##NAMES=Johachidolite
##RRUFFID=R070640
##IDEAL CHEMISTRY=CaAlB_3_O_7_
##LOCALITY=Pyant Gyi mine, Mogok Stone Tract, Mandalay Division, Burma
##OWNER=RRUFF
##SOURCE=Marcus Origlieri
##DESCRIPTION=Pale yellowish orange granular
##STATUS=The identification of this mineral has been confirmed by X-ray diffraction and chemical analysis
##URL=rruff.info/R070640
##MEASURED CHEMISTRY=Ca_1.00_Al_1.00_B_3.00_O_7_; B estimated by difference
104.3640, 1099.365
104.8461, 1115.241
105.3282, 1123.061
105.8104, 1127.498
106.2925, 1131.234
106.7746, 1134.753
107.2567, 1135.748
107.7388, 1128.906
108.2209, 1103.930
108.7031, 1088.144
109.1852, 1085.587
109.6673, 1091.095
110.1494, 1100.883
110.6315, 1113.296
111.1136, 1127.138
111.5958, 1133.026
112.0779, 1126.761
112.5600, 1117.912
113.0421, 1106.991
113.5242, 1095.090
114.0063, 1084.114
114.4885, 1074.958
114.9706, 1067.945
115.4527, 1067.190
115.9348, 1078.629
116.4169, 1092.089
116.8990, 1098.858
117.3812, 1097.367
117.8633, 1093.599
118.3454, 1094.365
118.8275, 1099.184
119.3096, 1104.484
119.7918, 1110.922
120.2739, 1117.172
120.7560, 1118.835
121.2381, 1110.979
121.7202, 1103.521
122.2023, 1108.002
122.6845, 1125.206
123.1666, 1142.282
123.6487, 1149.360
124.1308, 1145.943
124.6129, 1137.788
125.0950, 1113.853
125.5772, 1092.278
126.0593, 1087.356
126.5414, 1104.392
127.0235, 1132.704
127.5056, 1153.987
127.9877, 1169.763
128.4698, 1173.812
128.9520, 1157.426
129.4341, 1133.277
129.9162, 1115.540
130.3983, 1112.666
130.8804, 1122.630
131.3625, 1128.952
131.8447, 1128.716
132.3268, 1127.437
132.8089, 1123.498
133.2910, 1119.113
133.7731, 1119.232
134.2552, 1129.269
134.7374, 1152.170
135.2195, 1162.434
135.7016, 1149.536
136.1837, 1134.873
136.6658, 1133.295
137.1479, 1145.515
137.6301, 1158.304
138.1122, 1154.280
138.5943, 1125.369
139.0764, 1108.122
139.5585, 1112.673
140.0406, 1127.150
140.5228, 1137.671
141.0049, 1140.384
141.4870, 1138.727
141.9691, 1137.672
142.4512, 1137.134
142.9333, 1137.119
143.4155, 1137.385
143.8976, 1138.107
144.3797, 1140.051
144.8618, 1144.101
145.3439, 1149.089
145.8260, 1153.382
146.3082, 1156.880
146.7903, 1159.851
147.2724, 1162.289
147.7545, 1164.097
148.2366, 1166.227
148.7188, 1172.198
149.2009, 1177.404
149.6830, 1176.580
150.1651, 1166.195
150.6472, 1152.041
151.1293, 1145.358
151.6115, 1148.026
152.0936, 1155.522
152.5757, 1165.780
153.0578, 1179.058
153.5399, 1194.743
154.0220, 1210.857
154.5042, 1229.225
154.9863, 1264.166
155.4684, 1367.208
155.9505, 1433.272
156.4326, 1417.458
156.9147, 1343.325
157.3969, 1260.458
157.8790, 1208.722
158.3611, 1190.546
158.8432, 1185.640
159.3253, 1209.117
159.8074, 1230.991
160.2896, 1235.221
160.7717, 1222.945
161.2538, 1207.237
161.7359, 1203.651
162.2180, 1219.354
162.7001, 1226.356
163.1823, 1216.396
163.6644, 1203.677
164.1465, 1201.270
164.6286, 1211.929
165.1107, 1225.466
165.5928, 1224.107
166.0750, 1195.609
166.5571, 1182.393
167.0392, 1203.113
167.5213, 1238.096
168.0034, 1260.193
168.4855, 1259.221
168.9677, 1244.132
169.4498, 1230.581
169.9319, 1216.027
170.4140, 1208.153
170.8961, 1214.273
171.3783, 1230.418
171.8604, 1243.189
172.3425, 1244.802
172.8246, 1242.388
173.3067, 1250.384
173.7888, 1275.250
174.2710, 1297.882
174.7531, 1301.539
175.2352, 1286.249
175.7173, 1270.813
176.1994, 1261.892
176.6815, 1258.545
177.1637, 1260.717
177.6458, 1271.451
178.1279, 1283.425
178.6100, 1284.316
179.0921, 1269.374
179.5742, 1260.052
180.0564, 1273.717
180.5385, 1295.504
181.0206, 1308.471
181.5027, 1303.023
181.9848, 1286.654
182.4669, 1279.019
182.9491, 1284.621
183.4312, 1292.071
183.9133, 1297.513
184.3954, 1301.832
184.8775, 1306.607
185.3596, 1313.317
185.8418, 1321.351
186.3239, 1326.084
186.8060, 1326.172
187.2881, 1323.829
187.7702, 1316.804
188.2523, 1307.799
188.7345, 1301.752
189.2166, 1302.982
189.6987, 1311.985
190.1808, 1320.258
190.6629, 1327.692
191.1450, 1334.538
191.6272, 1343.536
192.1093, 1352.750
192.5914, 1356.505
193.0735, 1347.746
193.5556, 1321.296
194.0377, 1306.774
194.5199, 1308.609
195.0020, 1315.896
195.4841, 1325.887
195.9662, 1336.756
196.4483, 1344.745
196.9304, 1344.494
197.4126, 1329.561
197.8947, 1325.479
198.3768, 1343.573
198.8589, 1364.105
199.3410, 1371.015
199.8231, 1361.342
200.3053, 1345.286
200.7874, 1336.430
201.2695, 1337.003
201.7516, 1341.265
202.2337, 1353.761
202.7158, 1367.936
203.1980, 1376.465
203.6801, 1377.219
204.1622, 1373.548
204.6443, 1370.117
205.1264, 1366.049
205.6085, 1364.675
206.0907, 1367.007
206.5728, 1372.348
207.0549, 1379.590
207.5370, 1388.328
208.0191, 1399.011
208.5012, 1414.068
208.9834, 1435.806
209.4655, 1452.673
209.9476, 1460.724
210.4297, 1460.788
210.9118, 1452.706
211.3939, 1431.750
211.8761, 1409.039
212.3582, 1402.365
212.8403, 1414.163
213.3224, 1430.077
213.8045, 1446.557
214.2866, 1462.123
214.7688, 1468.716
215.2509, 1459.274
215.7330, 1442.641
216.2151, 1429.519
216.6972, 1418.056
217.1793, 1416.814
217.6615, 1442.428
218.1436, 1493.266
218.6257, 1526.534
219.1078, 1514.811
219.5899, 1485.728
220.0720, 1468.636
220.5542, 1468.097
221.0363, 1474.742
221.5184, 1480.156
222.0005, 1484.142
222.4826, 1489.272
222.9647, 1500.631
223.4469, 1511.274
223.9290, 1513.286
224.4111, 1503.220
224.8932, 1491.664
225.3753, 1494.464
225.8574, 1516.037
226.3396, 1532.872
226.8217, 1531.764
227.3038, 1525.780
227.7859, 1526.121
228.2680, 1537.133
228.7501, 1550.818
229.2323, 1554.289
229.7144, 1544.502
230.1965, 1532.709
230.6786, 1517.218
231.1607, 1503.471
231.6428, 1496.811
232.1250, 1499.558
232.6071, 1508.166
233.0892, 1516.206
233.5713, 1523.441
234.0534, 1530.543
234.5355, 1540.390
235.0177, 1549.029
235.4998, 1551.817
235.9819, 1546.431
236.4640, 1536.889
236.9461, 1531.907
237.4282, 1531.099
237.9104, 1536.462
238.3925, 1551.042
238.8746, 1569.587
239.3567, 1587.924
239.8388, 1604.303
240.3209, 1617.998
240.8031, 1626.667
241.2852, 1627.026
241.7673, 1626.897
242.2494, 1626.504
242.7315, 1626.655
243.2136, 1629.649
243.6958, 1636.815
244.1779, 1644.469
244.6600, 1640.518
245.1421, 1605.624
245.6242, 1586.545
246.1063, 1602.218
246.5885, 1630.386
247.0706, 1644.995
247.5527, 1633.465
248.0348, 1605.589
248.5169, 1592.421
248.9990, 1607.574
249.4812, 1621.435
249.9633, 1631.436
250.4454, 1638.497
250.9275, 1643.733
251.4096, 1647.691
251.8917, 1650.266
252.3739, 1651.033
252.8560, 1645.372
253.3381, 1643.552
253.8202, 1647.970
254.3023, 1656.008
254.7844, 1665.418
255.2666, 1675.206
255.7487, 1684.373
256.2308, 1689.695
256.7129, 1683.854
257.1950, 1682.526
257.6772, 1687.129
258.1593, 1696.560
258.6414, 1711.765
259.1235, 1733.265
259.6056, 1756.420
260.0877, 1768.008
260.5699, 1755.601
261.0520, 1744.814
261.5341, 1735.014
262.0162, 1728.036
262.4983, 1725.907
262.9804, 1729.466
263.4626, 1738.118
263.9447, 1750.416
264.4268, 1776.103
264.9089, 1793.727
265.3910, 1796.011
265.8731, 1792.178
266.3553, 1792.266
266.8374, 1800.281
267.3195, 1814.171
267.8016, 1829.235
268.2837, 1848.444
268.7658, 1865.324
269.2480, 1873.525
269.7301, 1881.799
270.2122, 1902.776
270.6943, 1940.777
271.1764, 1985.248
271.6585, 2014.142
272.1407, 2012.746
272.6228, 2014.667
273.1049, 2019.263
273.5870, 2027.840
274.0691, 2043.264
274.5512, 2066.300
275.0334, 2092.473
275.5155, 2113.452
275.9976, 2121.109
276.4797, 2136.809
276.9618, 2165.592
277.4439, 2199.893
277.9261, 2232.583
278.4082, 2261.602
278.8903, 2289.311
279.3724, 2318.206
279.8545, 2342.615
280.3366, 2381.430
280.8188, 2445.121
281.3009, 2516.920
281.7830, 2586.337
282.2651, 2649.897
282.7472, 2703.504
283.2293, 2742.806
283.7115, 2771.003
284.1936, 2769.394
284.6757, 2728.183
285.1578, 2665.154
285.6399, 2583.833
286.1220, 2488.527
286.6042, 2398.948
287.0863, 2338.687
287.5684, 2320.886
288.0505, 2290.895
288.5326, 2240.601
289.0147, 2185.450
289.4969, 2129.985
289.9790, 2077.594
290.4611, 2037.111
290.9432, 2019.731
291.4253, 2031.630
291.9074, 2035.108
292.3896, 2022.181
292.8717, 2008.741
293.3538, 2004.308
293.8359, 2008.475
294.3180, 2015.444
294.8001, 2021.033
295.2823, 2025.738
295.7644, 2022.128
296.2465, 1995.980
296.7286, 1976.300
297.2107, 1981.981
297.6928, 2007.146
298.1750, 2031.853
298.6571, 2040.684
299.1392, 2033.811
299.6213, 2030.423
300.1034, 2034.718
300.5855, 2037.519
301.0677, 2029.549
301.5498, 2017.492
302.0319, 2017.175
302.5140, 2040.294
302.9961, 2082.868
303.4782, 2111.866
303.9604, 2117.603
304.4425, 2121.424
304.9246, 2128.861
305.4067, 2137.236
305.8888, 2140.548
306.3709, 2135.113
306.8531, 2124.496
307.3352, 2122.928
307.8173, 2145.313
308.2994, 2159.620
308.7815, 2152.697
309.2636, 2139.433
309.7458, 2140.602
310.2279, 2164.995
310.7100, 2201.598
311.1921, 2223.050
311.6742, 2211.634
312.1563, 2208.097
312.6385, 2218.780
313.1206, 2234.831
313.6027, 2248.092
314.0848, 2255.980
314.5669, 2261.497
315.0490, 2269.740
315.5312, 2281.962
316.0133, 2294.973
316.4954, 2309.121
316.9775, 2323.701
317.4596, 2338.561
317.9417, 2353.471
318.4239, 2367.656
318.9060, 2379.699
319.3881, 2387.820
319.8702, 2399.209
320.3523, 2416.675
320.8344, 2434.552
321.3166, 2447.743
321.7987, 2457.535
322.2808, 2470.849
322.7629, 2497.842
323.2450, 2543.348
323.7271, 2564.935
324.2093, 2543.347
324.6914, 2515.993
325.1735, 2490.668
325.6556, 2469.887
326.1377, 2455.592
326.6198, 2450.029
327.1020, 2452.676
327.5841, 2454.409
328.0662, 2449.130
328.5483, 2450.229
329.0304, 2464.776
329.5125, 2487.181
329.9947, 2509.592
330.4768, 2528.219
330.9589, 2542.339
331.4410, 2546.865
331.9231, 2526.304
332.4052, 2522.697
332.8874, 2560.871
333.3695, 2612.593
333.8516, 2643.552
334.3337, 2638.349
334.8158, 2617.598
335.2979, 2621.266
335.7801, 2657.357
336.2622, 2696.828
336.7443, 2736.949
337.2264, 2775.775
337.7085, 2811.953
338.1906, 2845.199
338.6728, 2876.063
339.1549, 2900.695
339.6370, 2916.192
340.1191, 2948.798
340.6012, 3013.629
341.0833, 3089.916
341.5655, 3164.985
342.0476, 3238.088
342.5297, 3315.209
343.0118, 3405.900
343.4939, 3507.915
343.9760, 3601.312
344.4582, 3693.637
344.9403, 3761.607
345.4224, 3798.681
345.9045, 3804.572
346.3866, 3778.128
346.8687, 3708.379
347.3509, 3605.947
347.8330, 3496.416
348.3151, 3374.534
348.7972, 3259.831
349.2793, 3164.886
349.7614, 3085.411
350.2436, 3016.387
350.7257, 2955.834
351.2078, 2905.098
351.6899, 2868.604
352.1720, 2847.007
352.6541, 2829.599
353.1363, 2808.578
353.6184, 2789.198
354.1005, 2782.347
354.5826, 2797.997
355.0647, 2813.167
355.5468, 2805.378
356.0290, 2779.867
356.5111, 2766.153
356.9932, 2781.196
357.4753, 2808.435
357.9574, 2813.644
358.4395, 2787.202
358.9217, 2769.605
359.4038, 2781.682
359.8859, 2812.185
360.3680, 2840.305
360.8501, 2859.636
361.3322, 2878.011
361.8144, 2907.921
362.2965, 2952.673
362.7786, 2990.733
363.2607, 3014.746
363.7428, 3033.304
364.2249, 3056.457
364.7071, 3084.888
365.1892, 3108.967
365.6713, 3116.659
366.1534, 3105.057
366.6355, 3112.886
367.1176, 3152.692
367.5998, 3198.527
368.0819, 3236.113
368.5640, 3267.520
369.0461, 3302.747
369.5282, 3348.801
370.0103, 3403.908
370.4925, 3454.308
370.9746, 3493.748
371.4567, 3535.677
371.9388, 3594.168
372.4209, 3653.425
372.9030, 3692.598
373.3852, 3702.523
373.8673, 3687.438
374.3494, 3656.875
374.8315, 3605.731
375.3136, 3545.313
375.7957, 3469.466
376.2779, 3389.617
376.7600, 3311.616
377.2421, 3238.037
377.7242, 3172.328
378.2063, 3120.181
378.6884, 3084.801
379.1706, 3049.980
379.6527, 3013.864
380.1348, 2980.000
380.6169, 2948.859
381.0990, 2921.214
381.5811, 2898.553
382.0633, 2882.141
382.5454, 2871.815
383.0275, 2866.230
383.5096, 2869.572
383.9917, 2871.559
384.4738, 2866.460
384.9560, 2858.302
385.4381, 2852.851
385.9202, 2852.516
386.4023, 2856.191
386.8844, 2862.747
387.3665, 2872.919
387.8487, 2882.568
388.3308, 2888.611
388.8129, 2894.370
389.2950, 2904.968
389.7771, 2922.618
390.2592, 2935.772
390.7414, 2927.311
391.2235, 2902.143
391.7056, 2895.085
392.1877, 2923.277
392.6698, 2957.951
393.1519, 2964.425
393.6341, 2944.796
394.1162, 2933.605
394.5983, 2952.757
395.0804, 2984.996
395.5625, 3004.293
396.0446, 3007.437
396.5268, 3002.834
397.0089, 2994.772
397.4910, 2983.859
397.9731, 2975.692
398.4552, 2965.731
398.9373, 2962.805
399.4195, 2977.551
399.9016, 3005.448
400.3837, 3029.964
400.8658, 3041.704
401.3479, 3044.591
401.8300, 3052.319
402.3122, 3072.819
402.7943, 3087.080
403.2764, 3086.561
403.7585, 3080.012
404.2406, 3078.677
404.7227, 3085.717
405.2049, 3095.220
405.6870, 3097.276
406.1691, 3083.681
406.6512, 3084.716
407.1333, 3118.843
407.6154, 3150.159
408.0976, 3151.904
408.5797, 3128.874
409.0618, 3106.236
409.5439, 3105.272
410.0260, 3125.177
410.5081, 3145.984
410.9903, 3175.086
411.4724, 3196.003
411.9545, 3198.737
412.4366, 3192.985
412.9187, 3192.750
413.4008, 3205.057
413.8830, 3223.063
414.3651, 3230.650
414.8472, 3221.169
415.3293, 3222.314
415.8114, 3257.914
416.2935, 3294.991
416.7757, 3305.875
417.2578, 3287.590
417.7399, 3267.818
418.2220, 3274.613
418.7041, 3303.386
419.1862, 3318.229
419.6684, 3304.945
420.1505, 3294.605
420.6326, 3318.708
421.1147, 3366.624
421.5968, 3403.007
422.0789, 3403.625
422.5611, 3392.715
423.0432, 3402.937
423.5253, 3434.786
424.0074, 3467.355
424.4895, 3488.622
424.9716, 3502.116
425.4538, 3520.031
425.9359, 3548.666
426.4180, 3572.277
426.9001, 3579.246
427.3822, 3577.115
427.8643, 3578.474
428.3465, 3586.836
428.8286, 3604.422
429.3107, 3636.238
429.7928, 3691.489
430.2749, 3738.295
430.7570, 3767.691
431.2392, 3795.320
431.7213, 3828.132
432.2034, 3869.124
432.6855, 3924.907
433.1676, 4004.834
433.6497, 4107.383
434.1319, 4183.966
434.6140, 4222.931
435.0961, 4247.760
435.5782, 4268.609
436.0603, 4275.769
436.5424, 4250.665
437.0246, 4185.001
437.5067, 4100.423
437.9888, 4039.518
438.4709, 4010.823
438.9530, 3980.217
439.4352, 3929.741
439.9173, 3886.235
440.3994, 3873.788
440.8815, 3889.706
441.3636, 3902.387
441.8457, 3878.421
442.3279, 3827.678
442.8100, 3799.239
443.2921, 3797.780
443.7742, 3812.534
444.2563, 3843.368
444.7384, 3884.629
445.2206, 3928.276
445.7027, 3982.029
446.1848, 4026.137
446.6669, 4033.964
447.1490, 4010.602
447.6311, 3991.305
448.1133, 3988.323
448.5954, 3998.856
449.0775, 4018.649
449.5596, 4047.481
450.0417, 4082.607
450.5238, 4131.379
451.0060, 4182.077
451.4881, 4219.302
451.9702, 4241.171
452.4523, 4259.845
452.9344, 4288.417
453.4165, 4328.702
453.8987, 4352.559
454.3808, 4363.512
454.8629, 4357.837
455.3450, 4324.296
455.8271, 4274.744
456.3092, 4227.562
456.7914, 4191.592
457.2735, 4166.086
457.7556, 4150.526
458.2377, 4149.766
458.7198, 4149.419
459.2020, 4148.403
459.6841, 4147.176
460.1662, 4144.632
460.6483, 4141.435
461.1304, 4141.178
461.6125, 4148.874
462.0947, 4163.587
462.5768, 4173.299
463.0589, 4170.583
463.5410, 4176.221
464.0231, 4203.083
464.5052, 4244.461
464.9874, 4290.701
465.4695, 4342.703
465.9516, 4393.264
466.4337, 4433.746
466.9158, 4464.844
467.3979, 4491.281
467.8801, 4509.703
468.3622, 4530.673
468.8443, 4575.348
469.3264, 4647.880
469.8085, 4711.875
470.2906, 4743.609
470.7728, 4770.677
471.2549, 4822.909
471.7370, 4902.797
472.2191, 4994.372
472.7012, 5084.374
473.1833, 5173.111
473.6655, 5279.897
474.1476, 5424.133
474.6297, 5562.216
475.1118, 5693.553
475.5939, 5808.617
476.0760, 5900.345
476.5582, 5965.501
477.0403, 5998.097
477.5224, 5989.236
478.0045, 5940.496
478.4866, 5844.704
478.9688, 5660.631
479.4509, 5465.547
479.9330, 5283.133
480.4151, 5119.588
480.8972, 4980.099
481.3793, 4870.836
481.8615, 4786.619
482.3436, 4714.791
482.8257, 4655.677
483.3078, 4608.836
483.7899, 4582.573
484.2720, 4564.864
484.7542, 4538.976
485.2363, 4498.901
485.7184, 4465.726
486.2005, 4458.224
486.6826, 4466.230
487.1647, 4465.090
487.6469, 4448.573
488.1290, 4430.913
488.6111, 4425.461
489.0932, 4433.572
489.5753, 4449.177
490.0574, 4481.791
490.5396, 4512.712
491.0217, 4533.708
491.5038, 4545.295
491.9859, 4548.980
492.4680, 4545.173
492.9501, 4536.781
493.4323, 4530.884
493.9144, 4528.147
494.3965, 4527.017
494.8786, 4524.521
495.3607, 4525.628
495.8428, 4537.000
496.3250, 4556.504
496.8071, 4573.488
497.2892, 4577.103
497.7713, 4570.368
498.2534, 4571.186
498.7355, 4579.720
499.2177, 4595.645
499.6998, 4625.907
500.1819, 4660.469
500.6640, 4688.055
501.1461, 4707.060
501.6282, 4716.575
502.1104, 4705.506
502.5925, 4682.993
503.0746, 4683.916
503.5567, 4720.461
504.0388, 4765.854
504.5209, 4792.308
505.0031, 4799.153
505.4852, 4806.358
505.9673, 4817.125
506.4494, 4826.753
506.9315, 4826.628
507.4136, 4822.900
507.8958, 4834.814
508.3779, 4873.700
508.8600, 4923.396
509.3421, 4942.221
509.8242, 4897.120
510.3063, 4876.897
510.7885, 4899.097
511.2706, 4930.652
511.7527, 4951.924
512.2348, 4961.375
512.7169, 4966.193
513.1990, 4969.589
513.6812, 4973.340
514.1633, 4986.403
514.6454, 5010.657
515.1275, 5039.746
515.6096, 5077.655
516.0917, 5116.077
516.5739, 5143.768
517.0560, 5156.409
517.5381, 5171.146
518.0202, 5205.728
518.5023, 5251.123
518.9844, 5284.131
519.4666, 5299.706
519.9487, 5308.623
520.4308, 5318.888
520.9129, 5330.730
521.3950, 5345.849
521.8771, 5373.479
522.3593, 5394.685
522.8414, 5388.048
523.3235, 5371.538
523.8056, 5382.334
524.2877, 5434.942
524.7698, 5501.615
525.2520, 5534.314
525.7341, 5518.863
526.2162, 5506.482
526.6983, 5494.720
527.1804, 5488.153
527.6625, 5495.824
528.1447, 5510.501
528.6268, 5514.831
529.1089, 5496.300
529.5910, 5465.345
530.0731, 5443.953
530.5552, 5433.646
531.0374, 5421.913
531.5195, 5401.684
532.0016, 5381.060
532.4837, 5369.803
532.9658, 5368.587
533.4479, 5367.557
533.9301, 5361.369
534.4122, 5353.986
534.8943, 5346.869
535.3764, 5341.358
535.8585, 5348.596
536.3406, 5379.222
536.8228, 5426.562
537.3049, 5455.812
537.7870, 5451.316
538.2691, 5450.056
538.7512, 5464.790
539.2333, 5479.298
539.7155, 5471.243
540.1976, 5441.328
540.6797, 5417.042
541.1618, 5431.168
541.6439, 5481.414
542.1260, 5502.671
542.6082, 5473.334
543.0903, 5448.972
543.5724, 5449.776
544.0545, 5465.740
544.5366, 5487.175
545.0187, 5513.250
545.5009, 5536.651
545.9830, 5551.776
546.4651, 5559.301
546.9472, 5559.368
547.4293, 5550.100
547.9114, 5541.790
548.3936, 5542.769
548.8757, 5553.680
549.3578, 5570.475
549.8399, 5601.559
550.3220, 5629.637
550.8041, 5643.717
551.2863, 5650.520
551.7684, 5663.296
552.2505, 5686.276
552.7326, 5709.245
553.2147, 5715.077
553.6968, 5697.028
554.1790, 5688.046
554.6611, 5691.271
555.1432, 5700.894
555.6253, 5718.210
556.1074, 5740.090
556.5895, 5761.646
557.0717, 5780.927
557.5538, 5798.527
558.0359, 5814.614
558.5180, 5829.227
559.0001, 5847.059
559.4822, 5872.492
559.9644, 5896.130
560.4465, 5905.272
560.9286, 5901.575
561.4107, 5900.185
561.8928, 5895.021
562.3749, 5900.744
562.8571, 5942.723
563.3392, 6005.059
563.8213, 6040.762
564.3034, 6027.140
564.7855, 5989.459
565.2676, 5977.466
565.7498, 5999.531
566.2319, 6030.279
566.7140, 6090.804
567.1961, 6139.360
567.6782, 6143.751
568.1603, 6118.470
568.6425, 6101.796
569.1246, 6116.313
569.6067, 6149.214
570.0888, 6178.529
570.5709, 6204.586
571.0530, 6223.737
571.5352, 6225.074
572.0173, 6230.598
572.4994, 6271.163
572.9815, 6345.369
573.4636, 6407.250
573.9457, 6433.560
574.4279, 6451.012
574.9100, 6482.527
575.3921, 6525.795
575.8742, 6567.306
576.3563, 6599.320
576.8384, 6629.934
577.3206, 6678.351
577.8027, 6758.405
578.2848, 6830.510
578.7669, 6889.644
579.2490, 6945.802
579.7311, 6995.657
580.2133, 7046.766
580.6954, 7119.715
581.1775, 7233.057
581.6596, 7363.277
582.1417, 7454.031
582.6238, 7499.802
583.1060, 7568.763
583.5881, 7688.624
584.0702, 7829.475
584.5523, 7965.323
585.0344, 8096.089
585.5165, 8205.194
585.9987, 8292.319
586.4808, 8352.921
586.9629, 8385.581
587.4450, 8388.812
587.9271, 8356.675
588.4092, 8285.697
588.8914, 8183.967
589.3735, 8066.995
589.8556, 7923.306
590.3377, 7789.002
590.8198, 7657.869
591.3019, 7540.288
591.7841, 7443.708
592.2662, 7365.090
592.7483, 7296.442
593.2304, 7235.757
593.7125, 7179.670
594.1946, 7117.527
594.6768, 7049.771
595.1589, 7005.804
595.6410, 6998.793
596.1231, 7008.960
596.6052, 7017.287
597.0873, 7023.940
597.5695, 7031.531
598.0516, 7042.680
598.5337, 7052.661
599.0158, 7061.944
599.4979, 7067.397
599.9800, 7059.196
600.4622, 7033.427
600.9443, 7004.639
601.4264, 6995.811
601.9085, 7010.333
602.3906, 7032.140
602.8727, 7073.408
603.3549, 7109.407
603.8370, 7128.926
604.3191, 7137.895
604.8012, 7147.518
605.2833, 7162.353
605.7654, 7177.070
606.2476, 7187.911
606.7297, 7194.312
607.2118, 7190.563
607.6939, 7172.614
608.1760, 7157.866
608.6581, 7163.318
609.1403, 7188.631
609.6224, 7209.941
610.1045, 7225.198
610.5866, 7239.053
611.0687, 7257.466
611.5508, 7273.366
612.0330, 7272.754
612.5151, 7254.738
612.9972, 7238.020
613.4793, 7243.475
613.9614, 7270.460
614.4435, 7301.721
614.9257, 7342.273
615.4078, 7377.682
615.8899, 7402.443
616.3720, 7419.189
616.8541, 7427.377
617.3362, 7424.480
617.8184, 7428.814
618.3005, 7461.946
618.7826, 7504.010
619.2647, 7519.219
619.7468, 7506.978
620.2289, 7500.999
620.7111, 7526.516
621.1932, 7571.945
621.6753, 7591.466
622.1574, 7547.463
622.6395, 7531.227
623.1216, 7571.370
623.6038, 7618.614
624.0859, 7631.981
624.5680, 7618.179
625.0501, 7615.883
625.5322, 7655.348
626.0143, 7715.793
626.4965, 7754.570
626.9786, 7770.700
627.4607, 7778.175
627.9428, 7773.942
628.4249, 7771.628
628.9070, 7795.122
629.3892, 7843.882
629.8713, 7876.244
630.3534, 7870.746
630.8355, 7861.623
631.3176, 7869.914
631.7997, 7890.422
632.2819, 7911.060
632.7640, 7927.271
633.2461, 7942.151
633.7282, 7960.908
634.2103, 7984.568
634.6924, 8005.395
635.1746, 8018.445
635.6567, 8035.724
636.1388, 8067.325
636.6209, 8104.408
637.1030, 8133.208
637.5851, 8149.825
638.0673, 8160.824
638.5494, 8168.191
639.0315, 8173.841
639.5136, 8178.661
639.9957, 8183.194
640.4778, 8197.260
640.9600, 8229.663
641.4421, 8277.168
641.9242, 8321.521
642.4063, 8368.253
642.8884, 8403.583
643.3705, 8418.761
643.8527, 8428.144
644.3348, 8441.136
644.8169, 8458.915
645.2990, 8478.414
645.7811, 8494.410
646.2632, 8513.915
646.7454, 8559.298
647.2275, 8631.267
647.7096, 8682.543
648.1917, 8690.878
648.6738, 8685.472
649.1559, 8704.878
649.6381, 8751.237
650.1202, 8787.476
650.6023, 8798.026
651.0844, 8811.037
651.5665, 8836.536
652.0486, 8875.619
652.5308, 8933.499
653.0129, 9010.793
653.4950, 9091.279
653.9771, 9151.587
654.4592, 9191.031
654.9413, 9240.365
655.4235, 9302.603
655.9056, 9369.759
656.3877, 9435.193
656.8698, 9504.889
657.3519, 9587.709
657.8340, 9687.446
658.3162, 9791.345
658.7983, 9893.146
659.2804, 9996.162
659.7625, 10100.99
660.2446, 10209.44
660.7267, 10328.38
661.2089, 10462.13
661.6910, 10606.28
662.1731, 10748.40
662.6552, 10892.81
663.1373, 11024.30
663.6194, 11146.11
664.1016, 11249.67
664.5837, 11331.58
665.0658, 11391.66
665.5479, 11431.64
666.0300, 11455.47
666.5121, 11453.45
666.9943, 11413.96
667.4764, 11341.31
667.9585, 11246.98
668.4406, 11133.39
668.9227, 10997.44
669.4048, 10830.22
669.8870, 10635.35
670.3691, 10466.37
670.8512, 10329.68
671.3333, 10212.06
671.8154, 10107.85
672.2975, 10024.64
672.7797, 9979.245
673.2618, 9965.639
673.7439, 9947.364
674.2260, 9888.366
674.7081, 9815.669
675.1902, 9786.345
675.6724, 9798.255
676.1545, 9805.971
676.6366, 9792.243
677.1187, 9773.508
677.6008, 9769.045
678.0829, 9779.469
678.5651, 9805.660
679.0472, 9876.800
679.5293, 9930.497
680.0114, 9932.097
680.4935, 9906.369
680.9756, 9881.473
681.4578, 9867.259
681.9399, 9868.187
682.4220, 9901.463
682.9041, 9957.002
683.3862, 9978.149
683.8683, 9959.346
684.3505, 9932.093
684.8326, 9903.143
685.3147, 9879.898
685.7968, 9879.808
686.2789, 9909.774
686.7610, 9930.194
687.2432, 9931.024
687.7253, 9924.551
688.2074, 9914.264
688.6895, 9903.729
689.1716, 9896.832
689.6537, 9895.253
690.1359, 9902.388
690.6180, 9926.809
691.1001, 9968.739
691.5822, 10005.10
692.0643, 10036.75
692.5464, 10058.01
693.0286, 10057.91
693.5107, 10047.49
693.9928, 10049.78
694.4749, 10067.64
694.9570, 10092.30
695.4391, 10127.45
695.9213, 10163.51
696.4034, 10186.94
696.8855, 10202.33
697.3676, 10229.24
697.8497, 10279.85
698.3318, 10337.15
698.8140, 10366.22
699.2961, 10363.62
699.7782, 10357.21
700.2603, 10344.61
700.7424, 10336.31
701.2245, 10337.75
701.7067, 10348.66
702.1888, 10370.15
702.6709, 10406.58
703.1530, 10445.63
703.6351, 10487.22
704.1172, 10526.10
704.5994, 10559.03
705.0815, 10584.12
705.5636, 10595.24
706.0457, 10586.43
706.5278, 10568.10
707.0099, 10567.64
707.4921, 10586.46
707.9742, 10618.88
708.4563, 10684.31
708.9384, 10737.20
709.4205, 10726.85
709.9026, 10679.39
710.3848, 10668.22
710.8669, 10729.77
711.3490, 10793.44
711.8311, 10822.53
712.3132, 10835.20
712.7953, 10855.85
713.2775, 10886.18
713.7596, 10912.69
714.2417, 10926.00
714.7238, 10927.99
715.2059, 10921.06
715.6880, 10898.47
716.1702, 10894.41
716.6523, 10920.49
717.1344, 10959.69
717.6165, 11006.40
718.0986, 11056.31
718.5807, 11094.13
719.0629, 11109.87
719.5450, 11123.20
720.0271, 11143.60
720.5092, 11167.58
720.9913, 11191.29
721.4734, 11213.84
721.9556, 11234.74
722.4377, 11253.09
722.9198, 11270.53
723.4019, 11294.31
723.8840, 11328.30
724.3661, 11351.39
724.8483, 11350.80
725.3304, 11349.13
725.8125, 11364.67
726.2946, 11394.01
726.7767, 11425.54
727.2589, 11463.12
727.7410, 11495.14
728.2231, 11507.80
728.7052, 11516.58
729.1873, 11545.10
729.6694, 11592.24
730.1516, 11633.89
730.6337, 11649.64
731.1158, 11651.71
731.5979, 11680.56
732.0800, 11743.27
732.5621, 11785.40
733.0443, 11788.39
733.5264, 11781.44
734.0085, 11784.24
734.4906, 11796.64
734.9727, 11819.62
735.4548, 11858.34
735.9370, 11901.18
736.4191, 11960.01
736.9012, 12011.16
737.3833, 12020.11
737.8654, 11992.69
738.3475, 11967.27
738.8297, 11969.03
739.3118, 11990.27
739.7939, 12013.93
740.2760, 12039.69
740.7581, 12080.13
741.2402, 12147.21
741.7224, 12205.44
742.2045, 12216.57
742.6866, 12191.73
743.1687, 12197.93
743.6508, 12270.54
744.1329, 12325.57
744.6151, 12339.80
745.0972, 12336.06
745.5793, 12320.06
746.0614, 12303.26
746.5435, 12313.37
747.0256, 12371.91
747.5078, 12444.06
747.9899, 12467.91
748.4720, 12451.88
748.9541, 12462.14
749.4362, 12512.14
749.9183, 12568.16
750.4005, 12608.55
750.8826, 12634.78
751.3647, 12652.62
751.8468, 12650.93
752.3289, 12657.20
752.8110, 12677.08
753.2932, 12700.42
753.7753, 12719.01
754.2574, 12736.31
754.7395, 12763.56
755.2216, 12808.37
755.7037, 12849.20
756.1859, 12854.79
756.6680, 12840.85
757.1501, 12853.21
757.6322, 12895.57
758.1143, 12929.77
758.5964, 12930.89
759.0786, 12914.15
759.5607, 12917.95
760.0428, 12951.10
760.5249, 12984.62
761.0070, 13018.48
761.4891, 13052.75
761.9713, 13087.73
762.4534, 13123.10
762.9355, 13160.35
763.4176, 13201.26
763.8997, 13234.10
764.3818, 13246.29
764.8640, 13249.57
765.3461, 13256.42
765.8282, 13268.17
766.3103, 13285.43
766.7924, 13308.66
767.2745, 13335.69
767.7567, 13363.46
768.2388, 13391.75
768.7209, 13422.70
769.2030, 13461.36
769.6851, 13492.75
770.1672, 13499.87
770.6494, 13502.61
771.1315, 13529.99
771.6136, 13586.66
772.0957, 13628.78
772.5778, 13628.84
773.0599, 13626.86
773.5421, 13654.23
774.0242, 13696.73
774.5063, 13729.34
774.9884, 13744.81
775.4705, 13749.82
775.9526, 13745.00
776.4348, 13736.54
776.9169, 13751.65
777.3990, 13792.34
777.8811, 13836.63
778.3632, 13881.59
778.8453, 13920.19
779.3275, 13941.38
779.8096, 13943.75
780.2917, 13957.13
780.7738, 13979.20
781.2559, 14014.46
781.7380, 14083.91
782.2202, 14153.19
782.7023, 14189.28
783.1844, 14192.66
783.6665, 14184.51
784.1486, 14168.79
784.6307, 14159.34
785.1129, 14176.78
785.5950, 14214.94
786.0771, 14254.28
786.5592, 14291.05
787.0413, 14332.71
787.5234, 14386.98
788.0056, 14448.10
788.4877, 14493.60
788.9698, 14523.62
789.4519, 14536.75
789.9340, 14505.76
790.4161, 14485.58
790.8983, 14514.12
791.3804, 14572.16
791.8625, 14617.43
792.3446, 14635.49
792.8267, 14655.82
793.3088, 14700.43
793.7910, 14748.24
794.2731, 14770.27
794.7552, 14775.09
795.2373, 14798.37
795.7194, 14857.16
796.2015, 14921.52
796.6837, 14939.28
797.1658, 14914.78
797.6479, 14922.55
798.1300, 14971.50
798.6121, 15020.14
799.0942, 15049.25
799.5764, 15069.18
800.0585, 15099.05
800.5406, 15145.42
801.0227, 15174.04
801.5048, 15162.42
801.9869, 15159.67
802.4691, 15191.93
802.9512, 15238.07
803.4333, 15275.60
803.9154, 15300.04
804.3975, 15314.88
804.8796, 15308.73
805.3618, 15304.77
805.8439, 15338.61
806.3260, 15400.85
806.8081, 15464.70
807.2902, 15523.08
807.7723, 15574.61
808.2545, 15618.59
808.7366, 15654.08
809.2187, 15674.89
809.7008, 15672.30
810.1829, 15678.70
810.6650, 15698.66
811.1472, 15728.86
811.6293, 15774.07
812.1114, 15827.26
812.5935, 15867.61
813.0756, 15885.36
813.5577, 15903.89
814.0399, 15920.33
814.5220, 15949.38
815.0041, 16016.40
815.4862, 16106.44
815.9683, 16179.39
816.4504, 16217.35
816.9326, 16243.59
817.4147, 16281.48
817.8968, 16331.45
818.3789, 16399.86
818.8610, 16486.93
819.3431, 16569.95
819.8253, 16638.13
820.3074, 16696.78
820.7895, 16753.83
821.2716, 16809.33
821.7537, 16859.96
822.2358, 16876.14
822.7180, 16927.67
823.2001, 17066.86
823.6822, 17221.99
824.1643, 17321.17
824.6464, 17364.32
825.1285, 17413.08
825.6107, 17487.35
826.0928, 17576.64
826.5749, 17683.77
827.0570, 17797.58
827.5391, 17903.84
828.0212, 17999.80
828.5034, 18088.33
828.9855, 18171.79
829.4677, 18247.55
829.9498, 18309.89
830.4319, 18358.85
830.9140, 18398.60
831.3961, 18434.20
831.8782, 18435.71
832.3604, 18374.85
832.8425, 18273.65
833.3246, 18192.55
833.8067, 18133.48
834.2888, 18090.52
834.7709, 18086.22
835.2531, 18071.77
835.7352, 18017.47
836.2173, 17946.43
836.6994, 17888.44
837.1815, 17849.26
837.6636, 17823.00
838.1458, 17806.91
838.6279, 17802.23
839.1100, 17830.78
839.5921, 17866.84
840.0742, 17839.92
840.5563, 17742.35
841.0385, 17663.06
841.5206, 17690.71
842.0027, 17789.42
842.4848, 17846.27
842.9669, 17859.80
843.4490, 17867.81
843.9312, 17875.25
844.4133, 17886.67
844.8954, 17905.46
845.3775, 17931.30
845.8596, 17963.32
846.3417, 18018.15
846.8239, 18053.38
847.3060, 18044.08
847.7881, 18041.25
848.2702, 18082.21
848.7523, 18143.76
849.2344, 18181.76
849.7166, 18183.21
850.1987, 18185.52
850.6808, 18222.86
851.1629, 18258.80
851.6450, 18239.18
852.1271, 18192.03
852.6093, 18189.09
853.0914, 18248.93
853.5735, 18318.74
854.0556, 18340.66
854.5377, 18334.06
855.0198, 18375.66
855.5020, 18465.90
855.9841, 18527.54
856.4662, 18537.58
856.9483, 18534.08
857.4304, 18549.27
857.9125, 18580.20
858.3947, 18609.42
858.8768, 18633.79
859.3589, 18662.36
859.8410, 18707.03
860.3231, 18744.40
860.8052, 18751.38
861.2874, 18746.12
861.7695, 18764.99
862.2516, 18820.78
862.7337, 18872.54
863.2158, 18902.54
863.6979, 18922.18
864.1801, 18932.34
864.6622, 18941.44
865.1443, 18963.92
865.6264, 19003.40
866.1085, 19051.81
866.5906, 19109.89
867.0728, 19166.35
867.5549, 19183.19
868.0370, 19168.50
868.5191, 19190.22
869.0012, 19267.41
869.4833, 19344.05
869.9655, 19372.65
870.4476, 19361.69
870.9297, 19344.11
871.4118, 19305.77
871.8939, 19300.93
872.3760, 19343.77
872.8582, 19407.19
873.3403, 19494.56
873.8224, 19586.88
874.3045, 19649.64
874.7866, 19675.22
875.2687, 19694.71
875.7509, 19711.13
876.2330, 19726.53
876.7151, 19739.64
877.1972, 19753.77
877.6793, 19771.92
878.1614, 19795.30
878.6436, 19826.58
879.1257, 19874.32
879.6078, 19923.98
880.0899, 19959.09
880.5720, 19982.02
881.0541, 19995.67
881.5363, 20001.74
882.0184, 20002.20
882.5005, 19994.12
882.9826, 19998.53
883.4647, 20086.99
883.9468, 20266.47
884.4290, 20342.48
884.9111, 20273.46
885.3932, 20209.11
885.8753, 20227.04
886.3574, 20287.89
886.8395, 20322.48
887.3217, 20321.14
887.8038, 20339.05
888.2859, 20398.23
888.7680, 20448.11
889.2501, 20465.63
889.7322, 20477.68
890.2144, 20505.91
890.6965, 20551.67
891.1786, 20611.24
891.6607, 20713.99
892.1428, 20786.83
892.6249, 20753.42
893.1071, 20698.98
893.5892, 20733.50
894.0713, 20832.35
894.5534, 20891.14
895.0355, 20861.31
895.5176, 20810.63
895.9998, 20813.62
896.4819, 20853.40
896.9640, 20887.71
897.4461, 20917.70
897.9282, 20967.01
898.4103, 21045.23
898.8925, 21123.70
899.3746, 21170.43
899.8567, 21188.51
900.3388, 21199.85
900.8209, 21202.83
901.3030, 21203.99
901.7852, 21198.38
902.2673, 21202.71
902.7494, 21233.39
903.2315, 21283.01
903.7136, 21324.58
904.1957, 21356.18
904.6779, 21383.18
905.1600, 21400.33
905.6421, 21418.76
906.1242, 21439.00
906.6063, 21465.65
907.0884, 21506.30
907.5706, 21561.73
908.0527, 21619.75
908.5348, 21686.40
909.0169, 21742.36
909.4990, 21767.30
909.9811, 21777.71
910.4633, 21794.71
910.9454, 21820.87
911.4275, 21847.80
911.9096, 21869.00
912.3917, 21894.54
912.8738, 21951.40
913.3560, 22020.65
913.8381, 22043.00
914.3202, 22019.04
914.8023, 21991.78
915.2844, 21979.02
915.7665, 21990.88
916.2487, 22047.75
916.7308, 22146.30
917.2129, 22228.13
917.6950, 22294.81
918.1771, 22338.34
918.6592, 22349.91
919.1414, 22351.79
919.6235, 22358.37
920.1056, 22372.13
920.5877, 22408.81
921.0698, 22502.73
921.5519, 22562.29
922.0341, 22550.74
922.5162, 22543.78
922.9983, 22583.71
923.4804, 22646.46
923.9625, 22692.27
924.4446, 22713.80
924.9268, 22743.75
925.4089, 22809.29
925.8910, 22865.49
926.3731, 22866.18
926.8552, 22856.87
927.3373, 22905.95
927.8195, 23005.56
928.3016, 23077.32
928.7837, 23066.99
929.2658, 23047.87
929.7479, 23094.17
930.2300, 23179.16
930.7122, 23272.01
931.1943, 23360.79
931.6764, 23419.36
932.1585, 23436.84
932.6406, 23426.54
933.1227, 23387.98
933.6049, 23337.50
934.0870, 23355.99
934.5691, 23440.31
935.0512, 23500.69
935.5333, 23511.11
936.0154, 23520.43
936.4976, 23572.73
936.9797, 23653.02
937.4618, 23699.06
937.9439, 23690.90
938.4260, 23728.30
938.9081, 23847.94
939.3903, 23951.17
939.8724, 23982.01
940.3545, 23976.35
940.8366, 23988.95
941.3187, 24021.94
941.8008, 24061.19
942.2830, 24128.43
942.7651, 24173.27
943.2472, 24159.30
943.7293, 24140.02
944.2114, 24164.04
944.6935, 24220.38
945.1757, 24263.26
945.6578, 24273.53
946.1399, 24289.35
946.6220, 24328.99
947.1041, 24377.79
947.5862, 24428.73
948.0684, 24478.28
948.5505, 24523.62
949.0326, 24563.59
949.5147, 24592.75
949.9968, 24600.79
950.4789, 24602.37
950.9611, 24601.68
951.4432, 24611.36
951.9253, 24671.02
952.4074, 24773.58
952.8895, 24856.27
953.3716, 24881.81
953.8538, 24883.65
954.3359, 24915.20
954.8180, 24966.64
955.3001, 24988.56
955.7822, 24982.14
956.2643, 24990.46
956.7465, 25029.08
957.2286, 25081.54
957.7107, 25133.63
958.1928, 25182.99
958.6749, 25208.68
959.1570, 25201.21
959.6392, 25230.84
960.1213, 25316.59
960.6034, 25412.65
961.0855, 25497.31
961.5676, 25568.66
962.0497, 25619.57
962.5319, 25642.21
963.0140, 25679.77
963.4961, 25767.07
963.9782, 25816.63
964.4603, 25755.38
964.9424, 25687.62
965.4246, 25698.25
965.9067, 25777.62
966.3888, 25876.08
966.8709, 26021.99
967.3530, 26131.11
967.8351, 26177.34
968.3173, 26195.68
968.7994, 26185.21
969.2815, 26170.12
969.7636, 26183.89
970.2457, 26232.25
970.7278, 26295.50
971.2100, 26396.71
971.6921, 26474.78
972.1742, 26469.69
972.6563, 26435.44
973.1384, 26431.01
973.6205, 26459.61
974.1027, 26503.15
974.5848, 26555.74
975.0669, 26606.36
975.5490, 26643.13
976.0311, 26673.36
976.5132, 26699.81
976.9954, 26729.64
977.4775, 26785.34
977.9596, 26868.73
978.4417, 26952.23
978.9238, 27018.38
979.4059, 27060.90
979.8881, 27042.63
980.3702, 26989.31
980.8523, 27016.53
981.3344, 27128.24
981.8165, 27224.80
982.2986, 27257.28
982.7808, 27275.29
983.2629, 27356.06
983.7450, 27485.24
984.2271, 27543.51
984.7092, 27525.74
985.1913, 27524.21
985.6735, 27559.08
986.1556, 27613.53
986.6377, 27681.38
987.1198, 27750.11
987.6019, 27781.53
988.0840, 27760.97
988.5662, 27769.40
989.0483, 27820.56
989.5304, 27866.05
990.0125, 27884.34
990.4946, 27896.13
990.9767, 27922.63
991.4589, 27963.40
991.9410, 28013.47
992.4231, 28084.99
992.9052, 28145.19
993.3873, 28180.10
993.8694, 28216.16
994.3516, 28268.27
994.8337, 28328.04
995.3158, 28385.66
995.7979, 28442.00
996.2800, 28483.39
996.7621, 28492.32
997.2443, 28506.90
997.7264, 28539.52
998.2085, 28580.83
998.6906, 28621.87
999.1727, 28665.17
999.6548, 28722.87
1000.137, 28808.58
1000.619, 28869.47
1001.101, 28860.75
1001.583, 28849.63
1002.065, 28881.84
1002.548, 28935.01
1003.030, 28969.64
1003.512, 28989.18
1003.994, 29045.04
1004.476, 29188.46
1004.958, 29315.81
1005.440, 29328.09
1005.922, 29309.19
1006.404, 29348.96
1006.887, 29432.25
1007.369, 29517.31
1007.851, 29589.47
1008.333, 29641.29
1008.815, 29656.55
1009.297, 29660.53
1009.779, 29672.90
1010.261, 29699.34
1010.744, 29761.68
1011.226, 29850.15
1011.708, 29918.88
1012.190, 29946.23
1012.672, 29968.52
1013.154, 30040.68
1013.636, 30130.87
1014.118, 30171.93
1014.600, 30171.51
1015.083, 30141.03
1015.565, 30091.90
1016.047, 30091.95
1016.529, 30194.24
1017.011, 30332.48
1017.493, 30390.89
1017.975, 30385.84
1018.457, 30388.43
1018.940, 30402.30
1019.422, 30432.04
1019.904, 30479.36
1020.386, 30529.86
1020.868, 30569.06
1021.350, 30602.43
1021.832, 30643.41
1022.314, 30692.35
1022.796, 30766.67
1023.279, 30872.29
1023.761, 30940.06
1024.243, 30931.83
1024.725, 30909.78
1025.207, 30960.54
1025.689, 31072.13
1026.171, 31137.68
1026.653, 31152.51
1027.135, 31144.36
1027.618, 31104.63
1028.100, 31092.29
1028.582, 31147.98
1029.064, 31240.74
1029.546, 31318.04
1030.028, 31380.68
1030.510, 31405.35
1030.992, 31370.16
1031.474, 31366.21
1031.957, 31428.63
1032.439, 31496.93
1032.921, 31524.03
1033.403, 31525.76
1033.885, 31547.87
1034.367, 31600.52
1034.849, 31638.75
1035.331, 31659.54
1035.814, 31672.19
1036.296, 31672.41
1036.778, 31674.56
1037.260, 31695.06
1037.742, 31729.46
1038.224, 31752.40
1038.706, 31739.58
1039.188, 31761.58
1039.671, 31833.73
1040.153, 31920.93
1040.635, 32054.76
1041.117, 32166.33
1041.599, 32144.43
1042.081, 32001.70
1042.563, 31954.90
1043.045, 32075.76
1043.527, 32188.28
1044.010, 32299.37
1044.492, 32378.00
1044.974, 32389.70
1045.456, 32370.59
1045.938, 32367.40
1046.420, 32382.70
1046.902, 32406.72
1047.384, 32442.93
1047.866, 32481.18
1048.349, 32533.62
1048.831, 32573.74
1049.313, 32562.34
1049.795, 32535.66
1050.277, 32562.52
1050.759, 32655.71
1051.241, 32744.71
1051.723, 32810.45
1052.206, 32878.34
1052.688, 32983.76
1053.170, 33069.45
1053.652, 33076.25
1054.134, 33031.15
1054.616, 32995.12
1055.098, 32973.71
1055.580, 32988.73
1056.063, 33074.63
1056.545, 33162.72
1057.027, 33232.04
1057.509, 33282.41
1057.991, 33302.94
1058.473, 33306.23
1058.955, 33328.63
1059.437, 33383.69
1059.919, 33437.24
1060.401, 33483.05
1060.884, 33518.65
1061.366, 33533.52
1061.848, 33543.95
1062.330, 33568.92
1062.812, 33606.52
1063.294, 33644.58
1063.776, 33688.52
1064.258, 33706.86
1064.741, 33645.91
1065.223, 33601.44
1065.705, 33663.29
1066.187, 33758.65
1066.669, 33786.08
1067.151, 33750.25
1067.633, 33737.11
1068.115, 33780.17
1068.598, 33838.94
1069.080, 33917.42
1069.562, 33983.21
1070.044, 33990.63
1070.526, 33982.58
1071.008, 34032.30
1071.490, 34136.04
1071.972, 34206.02
1072.454, 34185.55
1072.937, 34169.55
1073.419, 34210.56
1073.901, 34263.96
1074.383, 34305.19
1074.865, 34330.98
1075.347, 34327.29
1075.829, 34300.45
1076.311, 34309.23
1076.794, 34413.35
1077.276, 34501.18
1077.758, 34493.20
1078.240, 34472.15
1078.722, 34504.86
1079.204, 34571.82
1079.686, 34641.62
1080.168, 34705.36
1080.651, 34742.95
1081.133, 34714.87
1081.615, 34702.32
1082.097, 34752.20
1082.579, 34825.23
1083.061, 34908.96
1083.543, 34982.87
1084.025, 35011.88
1084.507, 34992.16
1084.990, 34974.02
1085.472, 34965.73
1085.954, 34979.81
1086.436, 35034.49
1086.918, 35102.39
1087.400, 35162.96
1087.882, 35219.20
1088.364, 35282.70
1088.846, 35355.30
1089.329, 35416.50
1089.811, 35452.64
1090.293, 35483.05
1090.775, 35519.18
1091.257, 35549.80
1091.739, 35560.98
1092.221, 35561.18
1092.703, 35564.17
1093.186, 35572.54
1093.668, 35590.28
1094.150, 35609.95
1094.632, 35650.85
1095.114, 35746.40
1095.596, 35841.34
1096.078, 35889.60
1096.560, 35907.95
1097.042, 35930.55
1097.525, 35963.20
1098.007, 35995.79
1098.489, 36020.35
1098.971, 36051.48
1099.453, 36089.56
1099.935, 36140.41
1100.417, 36239.39
1100.899, 36341.68
1101.381, 36346.22
1101.864, 36234.51
1102.346, 36198.24
1102.828, 36357.75
1103.310, 36487.59
1103.792, 36486.89
1104.274, 36474.05
1104.756, 36545.86
1105.238, 36653.11
1105.721, 36704.18
1106.203, 36687.73
1106.685, 36666.20
1107.167, 36613.26
1107.649, 36606.84
1108.131, 36701.46
1108.613, 36807.29
1109.095, 36872.86
1109.578, 36913.29
1110.060, 36947.64
1110.542, 36974.68
1111.024, 37033.68
1111.506, 37164.41
1111.988, 37272.20
1112.470, 37349.19
1112.952, 37396.95
1113.434, 37403.82
1113.917, 37387.85
1114.399, 37362.48
1114.881, 37324.02
1115.363, 37352.77
1115.845, 37508.71
1116.327, 37624.50
1116.809, 37676.57
1117.291, 37696.84
1117.773, 37678.12
1118.256, 37656.29
1118.738, 37687.75
1119.220, 37770.81
1119.702, 37829.18
1120.184, 37857.02
1120.666, 37870.76
1121.148, 37852.44
1121.630, 37862.75
1122.113, 37936.66
1122.595, 38043.27
1123.077, 38147.13
1123.559, 38248.02
1124.041, 38340.36
1124.523, 38427.79
1125.005, 38494.34
1125.487, 38541.59
1125.969, 38550.68
1126.452, 38499.17
1126.934, 38447.98
1127.416, 38468.82
1127.898, 38546.96
1128.380, 38613.27
1128.862, 38666.54
1129.344, 38710.57
1129.826, 38740.87
1130.308, 38811.82
1130.791, 38949.81
1131.273, 39085.98
1131.755, 39150.10
1132.237, 39165.87
1132.719, 39201.68
1133.201, 39255.93
1133.683, 39316.16
1134.165, 39379.81
1134.648, 39396.96
1135.130, 39352.63
1135.612, 39319.47
1136.094, 39359.46
1136.576, 39440.20
1137.058, 39486.37
1137.540, 39519.05
1138.022, 39631.13
1138.505, 39809.13
1138.987, 39984.27
1139.469, 40130.76
1139.951, 40182.34
1140.433, 40083.09
1140.915, 39944.11
1141.397, 39909.25
1141.879, 39948.38
1142.361, 40024.38
1142.844, 40119.54
1143.326, 40195.16
1143.808, 40246.34
1144.290, 40291.39
1144.772, 40340.76
1145.254, 40375.92
1145.736, 40352.48
1146.218, 40328.35
1146.700, 40372.39
1147.183, 40462.02
1147.665, 40580.20
1148.147, 40705.34
1148.629, 40785.38
1149.111, 40798.36
1149.593, 40819.40
1150.075, 40924.64
1150.557, 41022.43
1151.040, 41032.77
1151.522, 41013.24
1152.004, 41023.89
1152.486, 41057.94
1152.968, 41083.96
1153.450, 41094.73
1153.932, 41112.47
1154.414, 41138.90
1154.896, 41183.00
1155.379, 41262.99
1155.861, 41346.97
1156.343, 41419.67
1156.825, 41477.14
1157.307, 41499.92
1157.789, 41487.68
1158.271, 41532.90
1158.753, 41738.44
1159.235, 41862.52
1159.718, 41782.77
1160.200, 41727.38
1160.682, 41841.63
1161.164, 41999.70
1161.646, 42055.48
1162.128, 42022.53
1162.610, 42010.75
1163.092, 42020.34
1163.575, 42052.04
1164.057, 42113.27
1164.539, 42181.93
1165.021, 42259.44
1165.503, 42321.32
1165.985, 42334.55
1166.467, 42326.77
1166.949, 42399.80
1167.432, 42574.22
1167.914, 42626.29
1168.396, 42537.41
1168.878, 42497.71
1169.360, 42557.43
1169.842, 42636.62
1170.324, 42681.45
1170.806, 42707.35
1171.288, 42739.00
1171.771, 42775.75
1172.253, 42816.25
1172.735, 42859.71
1173.217, 42893.19
1173.699, 42919.93
1174.181, 42989.62
1174.663, 43126.24
1175.145, 43262.68
1175.627, 43324.44
1176.110, 43340.64
1176.592, 43346.30
1177.074, 43350.90
1177.556, 43380.72
1178.038, 43427.11
1178.520, 43454.05
1179.002, 43452.98
1179.484, 43453.62
1179.967, 43473.50
1180.449, 43506.64
1180.931, 43559.26
1181.413, 43612.69
1181.895, 43634.73
1182.377, 43650.53
1182.859, 43714.52
1183.341, 43821.04
1183.823, 43895.07
1184.306, 43897.73
1184.788, 43901.19
1185.270, 43905.18
1185.752, 43947.57
1186.234, 44113.26
1186.716, 44272.45
1187.198, 44276.98
1187.680, 44167.67
1188.162, 44092.96
1188.645, 44067.00
1189.127, 44061.51
1189.609, 44062.74
1190.091, 44105.14
1190.573, 44217.47
1191.055, 44339.13
1191.537, 44444.60
1192.019, 44524.70
1192.502, 44560.91
1192.984, 44554.66
1193.466, 44549.31
1193.948, 44545.22
1194.430, 44539.71
1194.912, 44530.13
1195.394, 44541.48
1195.876, 44588.10
1196.359, 44633.73
1196.841, 44638.06
1197.323, 44619.69
1197.805, 44634.70
1198.287, 44673.25
1198.769, 44668.33
1199.251, 44630.96
1199.733, 44657.06
1200.215, 44760.27
1200.698, 44832.74
1201.180, 44798.14
1201.662, 44755.00
1202.144, 44837.57
1202.626, 44970.38
1203.108, 45064.23
1203.590, 45118.50
1204.072, 45120.45
1204.554, 45089.07
1205.037, 45079.91
1205.519, 45111.98
1206.001, 45149.63
1206.483, 45151.06
1206.965, 45179.62
1207.447, 45321.13
1207.929, 45454.37
1208.411, 45453.16
1208.894, 45386.72
1209.376, 45369.45
1209.858, 45412.75
1210.340, 45481.92
1210.822, 45632.23
1211.304, 45711.18
1211.786, 45638.11
1212.268, 45587.23
1212.750, 45621.14
1213.233, 45691.38
1213.715, 45771.04
1214.197, 45844.28
1214.679, 45854.61
1215.161, 45787.38
1215.643, 45784.72
1216.125, 45860.72
1216.607, 45913.59
1217.089, 45922.48
1217.572, 45911.08
1218.054, 45889.09
1218.536, 45877.88
1219.018, 45911.52
1219.500, 45973.89
1219.982, 46017.26
1220.464, 46045.16
1220.946, 46073.42
1221.429, 46099.66
1221.911, 46097.13
1222.393, 46063.57
1222.875, 46053.29
1223.357, 46113.98
1223.839, 46181.83
1224.321, 46183.32
1224.803, 46168.02
1225.286, 46190.09
1225.768, 46232.40
1226.250, 46266.52
1226.732, 46291.80
1227.214, 46328.18
1227.696, 46389.32
1228.178, 46410.23
1228.660, 46300.98
1229.142, 46242.63
1229.625, 46348.71
1230.107, 46474.30
1230.589, 46520.85
1231.071, 46522.22
1231.553, 46526.39
1232.035, 46535.18
1232.517, 46594.33
1232.999, 46749.29
1233.481, 46808.84
1233.964, 46733.44
1234.446, 46664.96
1234.928, 46647.48
1235.410, 46663.79
1235.892, 46703.02
1236.374, 46755.47
1236.856, 46801.18
1237.338, 46841.37
1237.821, 46886.33
1238.303, 46933.41
1238.785, 46969.95
1239.267, 46992.95
1239.749, 46992.54
1240.231, 46965.68
1240.713, 46947.93
1241.195, 46987.81
1241.677, 47028.57
1242.160, 46965.32
1242.642, 46902.20
1243.124, 47007.03
1243.606, 47186.87
1244.088, 47256.53
1244.570, 47206.07
1245.052, 47161.01
1245.534, 47146.02
1246.016, 47178.58
1246.499, 47341.91
1246.981, 47450.42
1247.463, 47375.26
1247.945, 47275.98
1248.427, 47263.05
1248.909, 47317.55
1249.391, 47424.27
1249.873, 47585.58
1250.356, 47618.16
1250.838, 47474.08
1251.320, 47434.21
1251.802, 47545.39
1252.284, 47625.70
1252.766, 47602.20
1253.248, 47567.96
1253.730, 47606.31
1254.213, 47690.14
1254.695, 47791.40
1255.177, 47885.20
1255.659, 47860.98
1256.141, 47770.22
1256.623, 47784.28
1257.105, 47902.10
1257.587, 47986.66
1258.069, 47983.37
1258.552, 47980.98
1259.034, 48048.64
1259.516, 48132.27
1259.998, 48205.16
1260.480, 48268.43
1260.962, 48332.43
1261.444, 48381.43
1261.926, 48371.74
1262.408, 48317.28
1262.891, 48328.96
1263.373, 48469.10
1263.855, 48557.29
1264.337, 48570.95
1264.819, 48565.48
1265.301, 48531.43
1265.783, 48530.03
1266.265, 48610.14
1266.748, 48720.78
1267.230, 48785.15
1267.712, 48806.26
1268.194, 48784.24
1268.676, 48728.26
1269.158, 48722.93
1269.640, 48771.38
1270.122, 48852.05
1270.604, 48951.63
1271.087, 49014.71
1271.569, 48994.81
1272.051, 48980.13
##END=



