##NAMES=Johnbaumite
##RRUFFID=R070753
##IDEAL CHEMISTRY=Ca_5_(As^5+^O_4_)_3_OH
##LOCALITY=Sterling Mine, Sterling Hill, Ogdensburg, Franklin Mining District, Sussex County, New Jersey, USA
##OWNER=RRUFF
##SOURCE=Michael Scott
##DESCRIPTION=Pale brown to gray massive
##STATUS=The identification of this mineral has been confirmed only by single crystal X-ray diffraction.
##URL=rruff.info/R070753
79.66046, 0.0000000E+00
80.14258, 186.4985
80.62469, 187.3562
81.10681, 191.6968
81.58893, 198.3914
82.07104, 202.2744
82.55316, 196.4209
83.03528, 189.8527
83.51740, 189.4788
83.99951, 208.3707
84.48163, 224.9234
84.96375, 227.9138
85.44586, 215.2889
85.92798, 201.3333
86.41010, 190.9874
86.89221, 184.7851
87.37433, 183.6132
87.85645, 192.9532
88.33856, 205.4651
88.82068, 213.4638
89.30280, 213.5066
89.78491, 211.6961
90.26702, 214.5362
90.74914, 221.4619
91.23125, 228.3679
91.71337, 231.0812
92.19549, 231.2252
92.67760, 232.8391
93.15972, 238.8434
93.64184, 247.1669
94.12395, 252.2491
94.60607, 253.2729
95.08819, 254.3860
95.57030, 262.1185
96.05242, 276.2847
96.53454, 290.7139
97.01665, 299.8416
97.49877, 304.2412
97.98089, 314.9520
98.46301, 334.6866
98.94512, 360.4952
99.42724, 382.7867
99.90936, 399.9771
100.3915, 417.6521
100.8736, 440.7570
101.3557, 470.5885
101.8378, 501.8404
102.3199, 534.1151
102.8021, 568.0032
103.2842, 599.4862
103.7663, 628.3603
104.2484, 655.3960
104.7305, 680.8979
105.2126, 694.9229
105.6948, 720.6095
106.1769, 767.4587
106.6590, 848.3491
107.1411, 930.3678
107.6232, 1014.958
108.1053, 1101.862
108.5875, 1183.264
109.0696, 1248.603
109.5517, 1315.128
110.0338, 1393.537
110.5159, 1503.566
110.9980, 1607.146
111.4801, 1695.932
111.9623, 1767.783
112.4444, 1841.638
112.9265, 1920.316
113.4086, 2002.195
113.8907, 2086.278
114.3728, 2169.964
114.8550, 2257.162
115.3371, 2347.810
115.8192, 2441.345
116.3013, 2542.542
116.7834, 2655.256
117.2655, 2777.658
117.7477, 2903.112
118.2298, 3035.372
118.7119, 3168.407
119.1940, 3295.627
119.6761, 3413.828
120.1582, 3527.767
120.6404, 3643.104
121.1225, 3759.938
121.6046, 3867.302
122.0867, 3956.426
122.5688, 4030.932
123.0509, 4097.361
123.5331, 4156.568
124.0152, 4210.194
124.4973, 4258.785
124.9794, 4300.982
125.4615, 4342.758
125.9436, 4387.066
126.4258, 4435.280
126.9079, 4494.261
127.3900, 4581.375
127.8721, 4682.924
128.3542, 4763.612
128.8363, 4806.481
129.3185, 4825.779
129.8006, 4847.642
130.2827, 4877.267
130.7648, 4916.473
131.2469, 4954.428
131.7290, 4991.347
132.2112, 5032.581
132.6933, 5084.122
133.1754, 5143.372
133.6575, 5190.301
134.1396, 5222.743
134.6217, 5248.662
135.1039, 5279.275
135.5860, 5314.071
136.0681, 5354.354
136.5502, 5407.868
137.0323, 5476.880
137.5145, 5523.445
137.9966, 5539.883
138.4787, 5533.820
138.9608, 5531.229
139.4429, 5531.666
139.9250, 5536.596
140.4072, 5548.329
140.8893, 5569.165
141.3714, 5589.342
141.8535, 5605.995
142.3356, 5618.761
142.8177, 5639.400
143.2998, 5674.770
143.7820, 5712.204
144.2641, 5733.779
144.7462, 5726.666
145.2283, 5724.247
145.7104, 5738.525
146.1925, 5781.504
146.6747, 5810.401
147.1568, 5818.885
147.6389, 5813.457
148.1210, 5810.947
148.6031, 5806.821
149.0852, 5809.228
149.5674, 5821.760
150.0495, 5859.923
150.5316, 5889.693
151.0137, 5904.646
151.4958, 5906.492
151.9779, 5915.415
152.4601, 5936.988
152.9422, 5962.975
153.4243, 5987.798
153.9064, 6019.481
154.3885, 6041.248
154.8706, 6045.704
155.3528, 6029.504
155.8349, 6017.371
156.3170, 6009.209
156.7991, 6008.498
157.2812, 6019.758
157.7633, 6067.769
158.2455, 6109.438
158.7276, 6123.100
159.2097, 6090.567
159.6918, 6065.543
160.1739, 6068.537
160.6560, 6091.361
161.1382, 6115.347
161.6203, 6142.806
162.1024, 6164.110
162.5845, 6172.050
163.0666, 6151.663
163.5487, 6132.714
164.0309, 6131.838
164.5130, 6146.344
164.9951, 6159.236
165.4772, 6156.562
165.9593, 6149.587
166.4414, 6150.430
166.9236, 6172.153
167.4057, 6196.837
167.8878, 6212.502
168.3699, 6218.084
168.8520, 6220.386
169.3341, 6221.158
169.8163, 6221.645
170.2984, 6224.095
170.7805, 6232.982
171.2626, 6242.744
171.7447, 6246.053
172.2268, 6239.805
172.7090, 6235.583
173.1911, 6244.518
173.6732, 6264.287
174.1553, 6286.825
174.6374, 6310.997
175.1195, 6334.382
175.6017, 6353.780
176.0838, 6369.237
176.5659, 6379.136
177.0480, 6377.575
177.5301, 6365.909
178.0122, 6356.330
178.4944, 6358.502
178.9765, 6369.584
179.4586, 6383.400
179.9407, 6399.032
180.4228, 6415.441
180.9049, 6432.283
181.3871, 6449.438
181.8692, 6465.138
182.3513, 6480.397
182.8334, 6493.666
183.3155, 6499.005
183.7976, 6485.674
184.2797, 6462.387
184.7619, 6455.334
185.2440, 6466.874
185.7261, 6487.326
186.2082, 6505.133
186.6903, 6520.635
187.1724, 6537.080
187.6546, 6557.197
188.1367, 6580.025
188.6188, 6602.449
189.1009, 6624.441
189.5830, 6644.325
190.0651, 6657.986
190.5473, 6664.935
191.0294, 6670.554
191.5115, 6680.086
191.9936, 6692.661
192.4757, 6698.720
192.9578, 6693.736
193.4400, 6682.655
193.9221, 6680.727
194.4042, 6688.796
194.8863, 6701.408
195.3684, 6716.640
195.8505, 6734.856
196.3327, 6745.985
196.8148, 6745.198
197.2969, 6734.857
197.7790, 6729.623
198.2611, 6730.168
198.7432, 6734.563
199.2254, 6740.634
199.7075, 6748.476
200.1896, 6758.420
200.6717, 6770.646
201.1538, 6785.024
201.6359, 6802.213
202.1181, 6823.593
202.6002, 6845.400
203.0823, 6861.380
203.5644, 6870.843
204.0465, 6876.623
204.5286, 6876.800
205.0108, 6868.963
205.4929, 6873.540
205.9750, 6895.965
206.4571, 6927.338
206.9392, 6943.079
207.4213, 6937.290
207.9035, 6931.574
208.3856, 6941.560
208.8677, 6973.680
209.3498, 6993.135
209.8319, 6992.014
210.3140, 6976.745
210.7962, 6976.952
211.2783, 6997.903
211.7604, 7024.391
212.2425, 7045.954
212.7246, 7063.414
213.2067, 7075.058
213.6889, 7081.737
214.1710, 7083.356
214.6531, 7073.227
215.1352, 7043.582
215.6173, 7013.740
216.0994, 7004.174
216.5816, 7021.286
217.0637, 7042.603
217.5458, 7065.394
218.0279, 7089.906
218.5100, 7105.710
218.9921, 7106.889
219.4743, 7104.727
219.9564, 7115.614
220.4385, 7147.299
220.9206, 7175.068
221.4027, 7189.220
221.8848, 7185.675
222.3670, 7187.814
222.8491, 7195.523
223.3312, 7208.849
223.8133, 7230.204
224.2954, 7270.284
224.7775, 7300.384
225.2596, 7305.806
225.7418, 7271.117
226.2239, 7255.701
226.7060, 7266.087
227.1881, 7294.056
227.6702, 7318.953
228.1523, 7339.024
228.6345, 7358.440
229.1166, 7380.475
229.5987, 7411.200
230.0808, 7429.424
230.5629, 7429.550
231.0450, 7416.104
231.5272, 7407.537
232.0093, 7404.808
232.4914, 7405.653
232.9735, 7408.528
233.4556, 7411.899
233.9377, 7421.515
234.4199, 7445.905
234.9020, 7481.039
235.3841, 7483.339
235.8662, 7422.797
236.3483, 7363.637
236.8304, 7358.917
237.3126, 7446.658
237.7947, 7515.680
238.2768, 7547.301
238.7589, 7542.104
239.2410, 7533.530
239.7231, 7511.090
240.2053, 7495.572
240.6874, 7509.770
241.1695, 7579.049
241.6516, 7632.733
242.1337, 7653.462
242.6158, 7637.958
243.0980, 7631.065
243.5801, 7638.460
244.0622, 7649.717
244.5443, 7651.593
245.0264, 7635.255
245.5085, 7624.874
245.9907, 7626.121
246.4728, 7639.813
246.9549, 7662.766
247.4370, 7705.689
247.9191, 7750.059
248.4012, 7764.416
248.8834, 7722.448
249.3655, 7696.439
249.8476, 7715.953
250.3297, 7801.919
250.8118, 7847.798
251.2939, 7834.584
251.7761, 7792.016
252.2582, 7773.440
252.7403, 7788.077
253.2224, 7810.899
253.7045, 7833.495
254.1866, 7855.715
254.6688, 7879.247
255.1509, 7907.106
255.6330, 7934.658
256.1151, 7951.551
256.5972, 7956.541
257.0793, 7953.108
257.5615, 7938.342
258.0436, 7898.806
258.5257, 7887.999
259.0078, 7918.658
259.4899, 7974.083
259.9720, 8009.052
260.4542, 8017.614
260.9363, 8016.917
261.4184, 8013.903
261.9005, 8006.127
262.3826, 8003.587
262.8647, 8005.045
263.3469, 8012.464
263.8290, 8034.616
264.3111, 8078.285
264.7932, 8123.204
265.2753, 8157.439
265.7574, 8177.447
266.2396, 8197.621
266.7217, 8222.115
267.2038, 8246.587
267.6859, 8250.480
268.1680, 8222.762
268.6501, 8198.601
269.1323, 8208.697
269.6144, 8264.405
270.0965, 8298.962
270.5786, 8296.390
271.0607, 8267.702
271.5428, 8261.948
272.0250, 8285.822
272.5071, 8316.062
272.9892, 8337.123
273.4713, 8348.683
273.9534, 8351.697
274.4355, 8341.599
274.9177, 8323.853
275.3998, 8327.816
275.8819, 8361.157
276.3640, 8393.306
276.8461, 8392.376
277.3282, 8353.453
277.8104, 8329.025
278.2925, 8332.104
278.7746, 8356.885
279.2567, 8376.950
279.7388, 8390.976
280.2209, 8405.569
280.7031, 8430.913
281.1852, 8468.097
281.6673, 8492.354
282.1494, 8494.293
282.6315, 8480.309
283.1136, 8473.838
283.5958, 8474.439
284.0779, 8485.083
284.5600, 8516.995
285.0421, 8569.079
285.5242, 8605.334
286.0063, 8611.779
286.4884, 8596.514
286.9706, 8584.355
287.4527, 8574.587
287.9348, 8571.742
288.4169, 8583.392
288.8990, 8607.805
289.3811, 8632.021
289.8633, 8654.054
290.3454, 8672.318
290.8275, 8680.229
291.3096, 8677.057
291.7917, 8671.436
292.2738, 8670.421
292.7560, 8673.890
293.2381, 8681.123
293.7202, 8693.662
294.2023, 8709.340
294.6844, 8725.986
295.1665, 8744.180
295.6487, 8756.480
296.1308, 8753.680
296.6129, 8739.002
297.0950, 8722.147
297.5771, 8696.823
298.0592, 8676.408
298.5414, 8690.178
299.0235, 8738.490
299.5056, 8789.591
299.9877, 8817.071
300.4698, 8826.155
300.9519, 8829.401
301.4341, 8822.986
301.9162, 8817.468
302.3983, 8827.852
302.8804, 8853.700
303.3625, 8885.554
303.8446, 8924.425
304.3268, 8962.919
304.8089, 8987.097
305.2910, 8981.962
305.7731, 8966.439
306.2552, 8955.642
306.7373, 8949.658
307.2195, 8952.161
307.7016, 8977.794
308.1837, 9010.991
308.6658, 9029.701
309.1479, 9012.014
309.6300, 8987.437
310.1122, 8972.181
310.5943, 8966.668
311.0764, 8978.427
311.5585, 9033.962
312.0406, 9101.657
312.5227, 9146.838
313.0049, 9133.243
313.4870, 9113.322
313.9691, 9120.045
314.4512, 9151.150
314.9333, 9175.329
315.4154, 9162.746
315.8976, 9142.610
316.3797, 9142.501
316.8618, 9196.620
317.3439, 9248.096
317.8260, 9271.027
318.3081, 9267.677
318.7903, 9264.329
319.2724, 9271.060
319.7545, 9280.621
320.2366, 9287.302
320.7187, 9286.450
321.2008, 9286.173
321.6830, 9285.593
322.1651, 9285.653
322.6472, 9295.176
323.1293, 9323.272
323.6114, 9357.289
324.0935, 9388.707
324.5757, 9422.242
325.0578, 9446.930
325.5399, 9455.134
326.0220, 9448.981
326.5041, 9452.171
326.9862, 9474.160
327.4684, 9500.080
327.9505, 9521.560
328.4326, 9541.309
328.9147, 9552.211
329.3968, 9543.775
329.8789, 9521.670
330.3611, 9522.827
330.8432, 9564.605
331.3253, 9612.145
331.8074, 9645.878
332.2895, 9657.812
332.7716, 9670.981
333.2538, 9691.042
333.7359, 9713.806
334.2180, 9718.154
334.7001, 9686.673
335.1822, 9665.306
335.6643, 9686.794
336.1465, 9774.633
336.6286, 9829.580
337.1107, 9835.923
337.5928, 9810.188
338.0749, 9801.502
338.5570, 9816.396
339.0392, 9828.388
339.5213, 9818.671
340.0034, 9783.205
340.4855, 9758.339
340.9676, 9742.904
341.4497, 9742.324
341.9319, 9780.830
342.4140, 9864.587
342.8961, 9930.506
343.3782, 9931.698
343.8603, 9874.629
344.3424, 9839.842
344.8246, 9832.772
345.3067, 9845.637
345.7888, 9872.025
346.2709, 9910.898
346.7530, 9948.466
347.2351, 9974.724
347.7173, 9993.886
348.1994, 10021.37
348.6815, 10059.12
349.1636, 10098.91
349.6457, 10129.55
350.1278, 10152.99
350.6100, 10177.70
351.0921, 10215.32
351.5742, 10253.67
352.0563, 10268.65
352.5384, 10256.83
353.0205, 10245.75
353.5027, 10267.41
353.9848, 10308.09
354.4669, 10340.25
354.9490, 10346.78
355.4311, 10343.22
355.9132, 10343.11
356.3954, 10346.97
356.8775, 10351.90
357.3596, 10354.36
357.8417, 10357.55
358.3238, 10365.58
358.8059, 10383.87
359.2881, 10404.30
359.7702, 10422.78
360.2523, 10439.32
360.7344, 10455.38
361.2165, 10470.68
361.6986, 10485.99
362.1808, 10502.13
362.6629, 10525.23
363.1450, 10542.89
363.6271, 10549.85
364.1092, 10547.16
364.5913, 10542.73
365.0735, 10531.50
365.5556, 10523.46
366.0377, 10524.75
366.5198, 10554.44
367.0019, 10572.20
367.4840, 10563.52
367.9661, 10536.78
368.4482, 10529.08
368.9304, 10559.04
369.4125, 10592.57
369.8946, 10614.53
370.3767, 10615.77
370.8588, 10621.34
371.3409, 10631.87
371.8231, 10646.54
372.3052, 10664.70
372.7873, 10692.06
373.2694, 10712.96
373.7515, 10719.33
374.2336, 10706.92
374.7158, 10696.01
375.1979, 10683.34
375.6800, 10675.53
376.1621, 10687.64
376.6442, 10726.14
377.1263, 10758.48
377.6085, 10766.99
378.0906, 10752.80
378.5727, 10762.74
379.0548, 10803.07
379.5369, 10848.80
380.0190, 10867.74
380.5012, 10860.72
380.9833, 10846.97
381.4654, 10825.75
381.9475, 10803.78
382.4296, 10801.76
382.9117, 10820.17
383.3939, 10849.26
383.8760, 10883.81
384.3581, 10922.01
384.8402, 10958.81
385.3223, 10999.08
385.8044, 11030.59
386.2866, 11028.93
386.7687, 10997.75
387.2508, 10964.44
387.7329, 10939.32
388.2150, 10927.21
388.6971, 10939.33
389.1793, 10999.55
389.6614, 11050.65
390.1435, 11028.57
390.6256, 10957.97
391.1077, 10916.09
391.5898, 10967.50
392.0720, 11046.54
392.5541, 11107.74
393.0362, 11141.73
393.5183, 11160.33
394.0004, 11158.91
394.4825, 11146.15
394.9647, 11138.04
395.4468, 11135.73
395.9289, 11141.11
396.4110, 11157.88
396.8931, 11191.58
397.3752, 11216.50
397.8574, 11233.31
398.3395, 11237.83
398.8216, 11224.18
399.3037, 11148.90
399.7858, 11104.67
400.2679, 11122.39
400.7501, 11208.48
401.2322, 11260.53
401.7143, 11259.89
402.1964, 11243.63
402.6785, 11243.41
403.1606, 11265.61
403.6428, 11289.46
404.1249, 11314.37
404.6070, 11338.71
405.0891, 11349.73
405.5712, 11341.86
406.0533, 11336.36
406.5355, 11351.10
407.0176, 11387.50
407.4997, 11416.35
407.9818, 11431.35
408.4639, 11441.69
408.9460, 11473.88
409.4282, 11527.69
409.9103, 11568.43
410.3924, 11567.19
410.8745, 11536.17
411.3566, 11514.00
411.8387, 11501.73
412.3209, 11504.78
412.8030, 11543.48
413.2851, 11605.28
413.7672, 11653.34
414.2493, 11651.58
414.7314, 11636.08
415.2136, 11657.60
415.6957, 11717.87
416.1778, 11767.75
416.6599, 11752.61
417.1420, 11710.42
417.6241, 11691.32
418.1063, 11737.15
418.5884, 11787.39
419.0705, 11805.68
419.5526, 11797.28
420.0347, 11799.47
420.5168, 11843.37
420.9990, 11892.98
421.4811, 11922.11
421.9632, 11907.29
422.4453, 11899.35
422.9274, 11919.91
423.4095, 11955.68
423.8917, 11968.20
424.3738, 11916.37
424.8559, 11875.86
425.3380, 11879.20
425.8201, 11958.08
426.3022, 11993.84
426.7844, 11955.83
427.2665, 11893.52
427.7486, 11883.72
428.2307, 11952.11
428.7128, 12013.96
429.1949, 12042.92
429.6771, 12039.13
430.1592, 12045.91
430.6413, 12063.20
431.1234, 12089.61
431.6055, 12131.78
432.0876, 12190.52
432.5698, 12224.73
433.0519, 12216.35
433.5340, 12185.81
434.0161, 12190.50
434.4982, 12229.63
434.9803, 12261.34
435.4625, 12237.93
435.9446, 12184.44
436.4267, 12169.00
436.9088, 12210.22
437.3909, 12267.09
437.8730, 12297.18
438.3552, 12306.66
438.8373, 12312.51
439.3194, 12318.30
439.8015, 12327.56
440.2836, 12345.88
440.7657, 12374.72
441.2479, 12400.77
441.7300, 12414.24
442.2121, 12421.31
442.6942, 12429.57
443.1763, 12433.73
443.6584, 12446.39
444.1406, 12481.84
444.6227, 12537.16
445.1048, 12571.69
445.5869, 12563.96
446.0690, 12542.16
446.5511, 12522.73
447.0333, 12496.05
447.5154, 12486.41
447.9975, 12507.90
448.4796, 12545.70
448.9617, 12557.54
449.4438, 12527.48
449.9260, 12497.54
450.4081, 12479.39
450.8902, 12469.72
451.3723, 12498.77
451.8544, 12583.66
452.3365, 12680.38
452.8186, 12729.31
453.3008, 12727.01
453.7829, 12711.12
454.2650, 12683.26
454.7471, 12652.25
455.2292, 12658.09
455.7113, 12703.10
456.1935, 12743.91
456.6756, 12727.81
457.1577, 12677.86
457.6398, 12660.89
458.1219, 12702.61
458.6040, 12760.98
459.0862, 12785.55
459.5683, 12784.29
460.0504, 12783.82
460.5325, 12799.88
461.0146, 12823.15
461.4967, 12845.35
461.9789, 12864.97
462.4610, 12886.53
462.9431, 12918.51
463.4252, 12951.97
463.9073, 12974.81
464.3894, 12972.83
464.8716, 12970.16
465.3537, 12978.00
465.8358, 12996.42
466.3179, 13003.79
466.8000, 12976.03
467.2821, 12951.46
467.7643, 12953.63
468.2464, 12998.46
468.7285, 13045.21
469.2106, 13099.56
469.6927, 13152.25
470.1748, 13175.61
470.6570, 13159.57
471.1391, 13137.90
471.6212, 13121.73
472.1033, 13110.50
472.5854, 13112.38
473.0675, 13129.41
473.5497, 13153.73
474.0318, 13181.61
474.5139, 13211.77
474.9960, 13226.38
475.4781, 13210.46
475.9602, 13182.62
476.4424, 13184.38
476.9245, 13213.87
477.4066, 13245.46
477.8887, 13270.75
478.3708, 13283.52
478.8529, 13267.51
479.3351, 13204.18
479.8172, 13151.17
480.2993, 13160.20
480.7814, 13211.54
481.2635, 13263.15
481.7456, 13298.62
482.2278, 13329.02
482.7099, 13359.71
483.1920, 13391.11
483.6741, 13420.03
484.1562, 13447.32
484.6383, 13470.00
485.1205, 13485.66
485.6026, 13489.92
486.0847, 13491.33
486.5668, 13490.11
487.0489, 13486.39
487.5310, 13478.90
488.0132, 13458.71
488.4953, 13449.75
488.9774, 13471.75
489.4595, 13536.66
489.9416, 13564.30
490.4237, 13542.98
490.9059, 13505.24
491.3880, 13502.72
491.8701, 13535.46
492.3522, 13562.07
492.8343, 13560.77
493.3164, 13546.33
493.7986, 13562.49
494.2807, 13608.57
494.7628, 13650.21
495.2449, 13652.86
495.7270, 13633.19
496.2091, 13616.83
496.6913, 13602.45
497.1734, 13606.35
497.6555, 13657.80
498.1376, 13737.54
498.6197, 13801.23
499.1018, 13824.02
499.5840, 13829.74
500.0661, 13826.55
500.5482, 13812.88
501.0303, 13806.24
501.5124, 13816.47
501.9945, 13832.03
502.4767, 13842.53
502.9588, 13841.92
503.4409, 13843.26
503.9230, 13848.72
504.4051, 13857.59
504.8872, 13864.93
505.3694, 13867.01
505.8515, 13876.33
506.3336, 13902.42
506.8157, 13949.55
507.2978, 13989.09
507.7799, 14023.04
508.2621, 14045.93
508.7442, 14039.42
509.2263, 14007.44
509.7084, 13997.08
510.1905, 14035.73
510.6726, 14096.92
511.1548, 14126.91
511.6369, 14127.71
512.1190, 14125.06
512.6011, 14143.59
513.0832, 14166.38
513.5653, 14167.02
514.0474, 14129.77
514.5295, 14102.45
515.0117, 14121.21
515.4938, 14169.25
515.9759, 14217.58
516.4580, 14273.05
516.9401, 14312.67
517.4222, 14316.25
517.9044, 14281.54
518.3865, 14272.89
518.8686, 14334.95
519.3507, 14399.05
519.8328, 14422.19
520.3149, 14376.55
520.7971, 14345.27
521.2792, 14337.75
521.7613, 14343.04
522.2434, 14331.31
522.7255, 14293.60
523.2076, 14276.04
523.6898, 14308.07
524.1719, 14380.35
524.6540, 14426.41
525.1361, 14444.54
525.6182, 14450.12
526.1003, 14454.62
526.5825, 14458.33
527.0646, 14460.11
527.5467, 14454.00
528.0288, 14456.03
528.5109, 14495.38
528.9930, 14558.95
529.4752, 14609.24
529.9573, 14615.28
530.4394, 14608.68
530.9215, 14607.86
531.4036, 14613.86
531.8857, 14629.80
532.3679, 14662.99
532.8500, 14703.11
533.3321, 14740.26
533.8142, 14771.31
534.2963, 14801.66
534.7784, 14837.39
535.2606, 14873.19
535.7427, 14889.90
536.2248, 14881.46
536.7069, 14865.86
537.1890, 14845.11
537.6711, 14817.18
538.1533, 14819.18
538.6354, 14859.40
539.1175, 14906.09
539.5996, 14916.90
540.0817, 14897.61
540.5638, 14888.12
541.0460, 14899.48
541.5281, 14924.86
542.0102, 14964.85
542.4923, 15013.67
542.9744, 15044.12
543.4565, 15027.96
543.9387, 14992.44
544.4208, 14961.09
544.9029, 14935.83
545.3850, 14918.50
545.8671, 14899.49
546.3492, 14892.77
546.8314, 14913.49
547.3135, 14992.18
547.7956, 15067.80
548.2777, 15138.38
548.7598, 15198.83
549.2419, 15225.54
549.7241, 15188.32
550.2062, 15158.55
550.6883, 15172.55
551.1704, 15243.64
551.6525, 15274.23
552.1346, 15252.17
552.6168, 15216.94
553.0989, 15220.05
553.5810, 15259.56
554.0631, 15282.77
554.5452, 15268.97
555.0273, 15243.12
555.5095, 15256.65
555.9916, 15302.71
556.4737, 15343.42
556.9558, 15338.70
557.4379, 15325.00
557.9200, 15350.78
558.4022, 15424.93
558.8843, 15490.68
559.3664, 15507.59
559.8485, 15504.05
560.3306, 15509.23
560.8127, 15547.81
561.2949, 15575.68
561.7770, 15573.39
562.2591, 15551.08
562.7412, 15547.16
563.2233, 15564.75
563.7054, 15597.49
564.1876, 15651.07
564.6697, 15731.66
565.1518, 15773.03
565.6339, 15764.93
566.1160, 15741.53
566.5981, 15736.22
567.0803, 15748.52
567.5624, 15761.78
568.0445, 15774.39
568.5266, 15784.37
569.0087, 15781.01
569.4908, 15769.46
569.9730, 15771.47
570.4551, 15807.14
570.9372, 15856.74
571.4193, 15906.78
571.9014, 15955.84
572.3835, 15991.55
572.8657, 15988.56
573.3478, 15979.01
573.8299, 15991.19
574.3120, 16061.07
574.7941, 16109.99
575.2762, 16113.23
575.7584, 16089.88
576.2405, 16076.77
576.7226, 16074.97
577.2047, 16082.18
577.6868, 16103.19
578.1689, 16135.99
578.6511, 16144.18
579.1332, 16120.86
579.6153, 16098.05
580.0974, 16106.25
580.5795, 16139.96
581.0616, 16154.80
581.5438, 16139.18
582.0259, 16127.57
582.5080, 16175.36
582.9901, 16261.20
583.4722, 16332.20
583.9543, 16356.14
584.4365, 16364.76
584.9186, 16386.41
585.4007, 16416.29
585.8828, 16427.41
586.3649, 16377.33
586.8470, 16328.88
587.3292, 16322.82
587.8113, 16390.22
588.2934, 16428.94
588.7755, 16411.78
589.2576, 16379.51
589.7397, 16376.91
590.2219, 16414.73
590.7040, 16453.06
591.1861, 16486.41
591.6682, 16515.24
592.1503, 16537.27
592.6324, 16551.59
593.1146, 16573.95
593.5967, 16627.35
594.0788, 16694.09
594.5609, 16717.73
595.0430, 16695.82
595.5251, 16673.48
596.0073, 16696.40
596.4894, 16738.58
596.9715, 16766.10
597.4536, 16765.57
597.9357, 16757.11
598.4178, 16738.62
598.9000, 16720.02
599.3821, 16720.20
599.8642, 16781.45
600.3463, 16821.87
600.8284, 16808.42
601.3105, 16743.34
601.7927, 16712.15
602.2748, 16729.02
602.7569, 16756.30
603.2390, 16770.31
603.7211, 16770.14
604.2032, 16773.53
604.6854, 16781.61
605.1675, 16793.05
605.6496, 16804.97
606.1317, 16818.36
606.6138, 16837.56
607.0959, 16867.64
607.5781, 16900.12
608.0602, 16921.29
608.5423, 16934.97
609.0244, 16955.75
609.5065, 17004.25
609.9886, 17051.27
610.4708, 17076.23
610.9529, 17074.57
611.4350, 17071.87
611.9171, 17060.39
612.3992, 17057.93
612.8813, 17080.30
613.3635, 17156.74
613.8456, 17196.98
614.3277, 17179.05
614.8098, 17138.12
615.2919, 17155.29
615.7740, 17239.24
616.2562, 17290.69
616.7383, 17250.25
617.2204, 17161.73
617.7025, 17155.90
618.1846, 17226.66
618.6667, 17300.93
619.1489, 17323.39
619.6310, 17321.51
620.1131, 17328.74
620.5952, 17351.00
621.0773, 17373.82
621.5594, 17393.21
622.0416, 17407.39
622.5237, 17414.27
623.0058, 17407.46
623.4879, 17400.40
623.9700, 17389.04
624.4521, 17379.17
624.9343, 17386.86
625.4164, 17417.29
625.8985, 17453.95
626.3806, 17495.26
626.8627, 17539.26
627.3448, 17566.77
627.8270, 17576.89
628.3091, 17576.93
628.7912, 17562.48
629.2733, 17543.00
629.7554, 17548.89
630.2375, 17590.21
630.7197, 17627.54
631.2018, 17609.40
631.6839, 17568.31
632.1660, 17553.42
632.6481, 17604.68
633.1302, 17662.42
633.6124, 17712.18
634.0945, 17753.09
634.5766, 17781.57
635.0587, 17785.58
635.5408, 17790.52
636.0229, 17805.48
636.5051, 17831.52
636.9872, 17850.75
637.4693, 17862.84
637.9514, 17869.50
638.4335, 17864.96
638.9156, 17852.07
639.3978, 17861.43
639.8799, 17899.16
640.3620, 17948.30
640.8441, 17999.50
641.3262, 18046.43
641.8083, 18076.03
642.2905, 18064.27
642.7726, 18052.35
643.2547, 18077.98
643.7368, 18127.22
644.2189, 18153.62
644.7010, 18106.52
645.1832, 18066.59
645.6653, 18075.18
646.1474, 18139.70
646.6295, 18176.54
647.1116, 18174.07
647.5938, 18161.88
648.0759, 18160.36
648.5580, 18170.02
649.0401, 18186.97
649.5222, 18212.78
650.0043, 18241.42
650.4865, 18269.05
650.9686, 18293.55
651.4507, 18304.57
651.9328, 18283.46
652.4149, 18265.61
652.8970, 18294.27
653.3792, 18355.32
653.8613, 18405.90
654.3434, 18416.46
654.8255, 18422.21
655.3076, 18441.35
655.7897, 18476.42
656.2718, 18504.41
656.7539, 18525.27
657.2360, 18537.64
657.7181, 18537.52
658.2003, 18519.21
658.6824, 18515.86
659.1645, 18530.36
659.6466, 18556.65
660.1287, 18594.03
660.6108, 18639.29
661.0930, 18669.29
661.5751, 18671.20
662.0572, 18667.18
662.5393, 18684.42
663.0214, 18717.53
663.5035, 18751.80
663.9857, 18784.55
664.4678, 18811.79
664.9499, 18827.43
665.4320, 18831.54
665.9141, 18840.55
666.3962, 18844.16
666.8784, 18863.98
667.3605, 18919.71
667.8426, 19032.00
668.3247, 19080.99
668.8068, 19051.97
669.2889, 18993.31
669.7711, 18948.51
670.2532, 18918.28
670.7353, 18908.55
671.2174, 18924.19
671.6995, 18953.38
672.1816, 18993.09
672.6638, 19035.66
673.1459, 19061.55
673.6280, 19053.17
674.1101, 19035.23
674.5922, 19009.47
675.0743, 18981.98
675.5565, 18982.17
676.0386, 19031.98
676.5207, 19095.67
677.0028, 19165.68
677.4849, 19244.80
677.9670, 19298.64
678.4492, 19323.71
678.9313, 19330.16
679.4134, 19312.26
679.8955, 19274.43
680.3776, 19278.74
680.8597, 19337.38
681.3419, 19410.52
681.8240, 19465.45
682.3061, 19500.16
682.7882, 19509.90
683.2703, 19473.32
683.7524, 19438.57
684.2346, 19435.25
684.7167, 19454.48
685.1988, 19475.21
685.6809, 19493.53
686.1630, 19512.29
686.6451, 19534.29
687.1273, 19558.38
687.6094, 19573.12
688.0915, 19573.35
688.5736, 19577.24
689.0557, 19601.43
689.5378, 19642.32
690.0200, 19656.55
690.5021, 19641.30
690.9842, 19625.12
691.4663, 19642.95
691.9484, 19674.70
692.4305, 19681.54
692.9127, 19640.84
693.3948, 19620.82
693.8769, 19697.03
694.3590, 19805.33
694.8411, 19859.82
695.3232, 19784.50
695.8054, 19727.43
696.2875, 19705.50
696.7696, 19714.31
697.2517, 19748.46
697.7338, 19818.13
698.2159, 19877.31
698.6981, 19908.83
699.1802, 19917.47
699.6623, 19907.85
700.1444, 19881.92
700.6265, 19875.70
701.1086, 19930.88
701.5908, 20010.53
702.0729, 20074.49
702.5550, 20118.80
703.0371, 20141.18
703.5192, 20112.37
704.0013, 20078.44
704.4835, 20075.78
704.9656, 20131.30
705.4477, 20182.35
705.9298, 20237.13
706.4119, 20280.33
706.8940, 20285.17
707.3762, 20242.57
707.8583, 20226.99
708.3404, 20259.81
708.8225, 20312.09
709.3046, 20323.51
709.7867, 20305.59
710.2689, 20305.31
710.7510, 20368.48
711.2331, 20439.85
711.7152, 20464.66
712.1973, 20453.14
712.6794, 20449.29
713.1616, 20482.35
713.6437, 20514.32
714.1258, 20522.61
714.6079, 20504.44
715.0900, 20504.32
715.5721, 20530.13
716.0543, 20559.57
716.5364, 20575.20
717.0185, 20577.05
717.5006, 20595.20
717.9827, 20633.91
718.4648, 20669.36
718.9470, 20663.31
719.4291, 20638.23
719.9112, 20641.59
720.3933, 20699.61
720.8754, 20752.83
721.3575, 20754.26
721.8397, 20731.00
722.3218, 20721.80
722.8039, 20742.83
723.2860, 20769.34
723.7681, 20803.36
724.2502, 20838.49
724.7324, 20852.97
725.2145, 20839.71
725.6966, 20832.41
726.1787, 20841.42
726.6608, 20864.99
727.1429, 20906.47
727.6251, 20963.25
728.1072, 21009.43
728.5893, 21014.31
729.0714, 21009.29
729.5535, 21036.24
730.0356, 21097.98
730.5178, 21132.46
730.9999, 21092.17
731.4820, 21035.42
731.9641, 20998.75
732.4462, 20984.46
732.9283, 20988.41
733.4105, 21016.89
733.8926, 21054.79
734.3747, 21093.49
734.8568, 21132.62
735.3389, 21143.80
735.8210, 21116.35
736.3032, 21082.61
736.7853, 21079.22
737.2674, 21100.07
737.7495, 21134.63
738.2316, 21197.65
738.7137, 21248.67
739.1959, 21249.65
739.6780, 21223.75
740.1601, 21224.50
740.6422, 21282.92
741.1243, 21342.97
741.6064, 21399.39
742.0886, 21449.21
742.5707, 21475.33
743.0528, 21475.15
743.5349, 21467.69
744.0170, 21457.57
744.4991, 21448.26
744.9813, 21447.66
745.4634, 21455.92
745.9455, 21475.26
746.4276, 21521.66
746.9097, 21569.67
747.3918, 21592.99
747.8740, 21584.63
748.3561, 21587.31
748.8382, 21620.14
749.3203, 21660.65
749.8024, 21693.86
750.2845, 21714.79
750.7667, 21748.02
751.2488, 21800.19
751.7309, 21850.23
752.2130, 21872.50
752.6951, 21870.46
753.1772, 21858.89
753.6594, 21837.23
754.1415, 21817.32
754.6236, 21802.22
755.1057, 21798.64
755.5878, 21817.12
756.0699, 21885.83
756.5521, 21948.92
757.0342, 21993.67
757.5163, 22021.61
757.9984, 22035.69
758.4805, 22032.82
758.9626, 22021.77
759.4448, 21995.87
759.9269, 21968.74
760.4090, 21995.56
760.8911, 22072.21
761.3732, 22133.51
761.8553, 22118.51
762.3375, 22083.49
762.8196, 22110.83
763.3017, 22190.30
763.7838, 22252.76
764.2659, 22244.35
764.7480, 22228.42
765.2302, 22239.06
765.7123, 22281.41
766.1944, 22317.94
766.6765, 22338.91
767.1586, 22368.99
767.6407, 22435.19
768.1229, 22536.79
768.6050, 22588.21
769.0871, 22585.51
769.5692, 22557.13
770.0513, 22503.59
770.5334, 22450.54
771.0156, 22448.17
771.4977, 22516.71
771.9798, 22578.09
772.4619, 22573.55
772.9440, 22551.77
773.4261, 22563.13
773.9083, 22661.38
774.3904, 22713.79
774.8725, 22695.76
775.3546, 22655.22
775.8367, 22661.82
776.3188, 22716.10
776.8010, 22766.81
777.2831, 22807.27
777.7652, 22831.83
778.2473, 22818.19
778.7294, 22783.21
779.2115, 22764.56
779.6937, 22790.22
780.1758, 22823.20
780.6579, 22847.10
781.1400, 22865.52
781.6221, 22889.49
782.1042, 22925.05
782.5864, 22955.22
783.0685, 22968.61
783.5506, 22974.80
784.0327, 23023.25
784.5148, 23115.66
784.9969, 23184.30
785.4791, 23169.02
785.9612, 23121.78
786.4433, 23142.96
786.9254, 23217.48
787.4075, 23267.47
787.8896, 23224.90
788.3718, 23169.59
788.8539, 23147.77
789.3360, 23165.17
789.8181, 23176.42
790.3002, 23174.19
790.7823, 23176.64
791.2645, 23191.87
791.7466, 23220.17
792.2287, 23271.31
792.7108, 23347.82
793.1929, 23407.54
793.6750, 23388.21
794.1572, 23339.23
794.6393, 23336.79
795.1214, 23392.69
795.6035, 23457.06
796.0856, 23517.10
796.5677, 23567.47
797.0499, 23601.61
797.5320, 23612.87
798.0141, 23621.95
798.4962, 23622.26
798.9783, 23630.24
799.4604, 23675.14
799.9426, 23752.36
800.4247, 23791.07
800.9068, 23777.08
801.3889, 23751.01
801.8710, 23753.24
802.3531, 23773.18
802.8353, 23795.23
803.3174, 23816.76
803.7995, 23837.98
804.2816, 23860.91
804.7637, 23883.08
805.2458, 23899.40
805.7280, 23899.85
806.2101, 23920.38
806.6922, 23971.66
807.1743, 24033.93
807.6564, 24070.64
808.1385, 24085.42
808.6207, 24102.43
809.1028, 24130.53
809.5849, 24159.89
810.0670, 24181.00
810.5491, 24196.22
811.0313, 24210.44
811.5134, 24216.56
811.9955, 24232.72
812.4776, 24273.78
812.9597, 24326.80
813.4418, 24354.29
813.9240, 24346.90
814.4061, 24358.29
814.8882, 24415.60
815.3703, 24491.43
815.8524, 24519.84
816.3345, 24509.42
816.8167, 24498.42
817.2988, 24496.49
817.7809, 24509.63
818.2630, 24550.33
818.7451, 24612.12
819.2272, 24665.21
819.7094, 24695.00
820.1914, 24724.39
820.6735, 24753.82
821.1556, 24786.06
821.6378, 24846.05
822.1199, 24936.29
822.6020, 25014.86
823.0841, 25037.43
823.5662, 25041.53
824.0483, 25109.49
824.5305, 25229.23
825.0126, 25335.50
825.4947, 25377.29
825.9768, 25408.64
826.4589, 25464.50
826.9410, 25547.41
827.4232, 25604.39
827.9053, 25625.40
828.3874, 25638.35
828.8695, 25658.39
829.3516, 25682.88
829.8337, 25695.74
830.3159, 25696.77
830.7980, 25677.56
831.2801, 25598.14
831.7622, 25515.80
832.2443, 25503.48
832.7264, 25565.03
833.2086, 25624.39
833.6907, 25656.51
834.1728, 25679.35
834.6549, 25706.05
835.1370, 25739.85
835.6191, 25742.14
836.1013, 25703.94
836.5834, 25669.87
837.0655, 25675.81
837.5476, 25711.67
838.0297, 25753.84
838.5118, 25800.85
838.9940, 25833.91
839.4761, 25819.19
839.9582, 25799.37
840.4403, 25812.47
840.9224, 25873.16
841.4045, 25915.24
841.8867, 25911.64
842.3688, 25917.79
842.8509, 25982.39
843.3330, 26108.31
843.8151, 26173.38
844.2972, 26171.63
844.7794, 26158.08
845.2615, 26178.30
845.7436, 26218.04
846.2257, 26264.14
846.7078, 26318.05
847.1899, 26351.25
847.6721, 26324.54
848.1542, 26295.17
848.6363, 26308.58
849.1184, 26384.69
849.6005, 26423.31
850.0826, 26413.81
850.5648, 26398.39
851.0469, 26421.25
851.5290, 26470.07
852.0111, 26500.21
852.4932, 26506.13
852.9753, 26514.40
853.4575, 26544.84
853.9396, 26586.30
854.4217, 26631.19
854.9038, 26682.93
855.3859, 26719.56
855.8680, 26731.70
856.3502, 26738.63
856.8323, 26755.47
857.3144, 26782.29
857.7965, 26808.46
858.2786, 26834.82
858.7607, 26848.51
859.2429, 26812.26
859.7250, 26767.38
860.2071, 26781.01
860.6892, 26877.85
861.1713, 26953.90
861.6534, 26956.25
862.1356, 26932.85
862.6177, 26921.61
863.0998, 26930.92
863.5819, 26914.48
864.0640, 26864.00
864.5461, 26813.77
865.0283, 26799.30
865.5104, 26809.35
865.9925, 26814.71
866.4746, 26812.15
866.9567, 26804.14
867.4388, 26789.86
867.9210, 26772.50
868.4031, 26757.08
868.8852, 26751.80
869.3673, 26721.77
869.8494, 26649.70
870.3315, 26583.23
870.8137, 26569.24
871.2958, 26602.13
871.7779, 26617.23
872.2600, 26611.17
872.7421, 26594.34
873.2242, 26552.16
873.7064, 26517.48
874.1885, 26535.69
874.6706, 26627.12
875.1527, 26688.73
875.6348, 26664.54
876.1169, 26630.74
876.5991, 26628.76
877.0812, 26661.69
877.5633, 26694.67
878.0454, 26727.38
878.5275, 26759.50
879.0096, 26788.93
879.4918, 26818.09
879.9739, 26856.88
880.4560, 26906.65
880.9381, 26938.61
881.4202, 26905.65
881.9023, 26877.22
882.3845, 26907.97
882.8666, 27009.79
883.3487, 27064.28
883.8308, 27061.74
884.3129, 27041.82
884.7950, 27025.21
885.2772, 27013.50
885.7593, 27013.23
886.2414, 27023.99
886.7235, 27035.92
887.2056, 27054.87
887.6877, 27063.03
888.1699, 27040.41
888.6520, 26982.31
889.1341, 26947.95
889.6162, 26945.09
890.0983, 26955.76
890.5804, 26977.99
891.0626, 27008.08
891.5447, 27007.38
892.0268, 26979.59
892.5089, 26980.63
892.9910, 27079.77
893.4731, 27199.06
893.9553, 27271.27
894.4374, 27295.88
894.9195, 27312.59
895.4016, 27320.90
895.8837, 27331.10
896.3658, 27346.02
896.8480, 27364.54
897.3301, 27386.24
897.8122, 27410.60
898.2943, 27426.20
898.7764, 27422.39
899.2585, 27409.17
899.7407, 27389.25
900.2228, 27369.01
900.7049, 27371.46
901.1870, 27426.41
901.6691, 27483.06
902.1512, 27530.31
902.6334, 27568.05
903.1155, 27591.00
903.5976, 27597.92
904.0797, 27602.42
904.5618, 27604.58
905.0439, 27612.64
905.5261, 27644.51
906.0082, 27692.85
906.4903, 27738.86
906.9724, 27779.53
907.4545, 27810.63
907.9366, 27826.32
908.4188, 27832.10
908.9009, 27836.55
909.3830, 27836.47
909.8651, 27851.65
910.3472, 27894.24
910.8293, 27939.19
911.3115, 27934.27
911.7936, 27899.34
912.2757, 27881.46
912.7578, 27901.61
913.2399, 27934.74
913.7220, 27988.85
914.2042, 28040.82
914.6863, 28053.90
915.1684, 27999.46
915.6505, 27984.34
916.1326, 28023.93
916.6147, 28086.96
917.0969, 28135.61
917.5790, 28173.51
918.0611, 28213.18
918.5432, 28257.74
919.0253, 28297.97
919.5074, 28330.92
919.9896, 28354.62
920.4717, 28364.29
920.9538, 28343.94
921.4359, 28357.56
921.9180, 28422.56
922.4001, 28484.99
922.8823, 28482.34
923.3644, 28434.17
923.8465, 28412.15
924.3286, 28422.00
924.8107, 28450.30
925.2928, 28514.55
925.7750, 28573.60
926.2571, 28584.49
926.7392, 28529.96
927.2213, 28524.71
927.7034, 28602.97
928.1855, 28664.10
928.6677, 28629.15
929.1498, 28525.20
929.6319, 28490.99
930.1140, 28523.91
930.5961, 28588.13
931.0782, 28704.69
931.5604, 28807.00
932.0425, 28827.66
932.5246, 28775.27
933.0067, 28760.04
933.4888, 28797.39
933.9709, 28856.28
934.4531, 28938.07
934.9352, 29027.49
935.4173, 29078.41
935.8994, 29093.87
936.3815, 29097.08
936.8636, 29094.79
937.3458, 29088.13
937.8279, 29060.38
938.3100, 29030.30
938.7921, 29045.75
939.2742, 29158.43
939.7563, 29235.05
940.2385, 29247.26
940.7206, 29229.57
941.2027, 29241.54
941.6848, 29280.21
942.1669, 29329.78
942.6490, 29389.90
943.1312, 29450.04
943.6133, 29506.89
944.0954, 29557.14
944.5775, 29597.23
945.0596, 29631.55
945.5417, 29638.67
946.0239, 29595.23
946.5060, 29562.18
946.9881, 29620.02
947.4702, 29748.93
947.9523, 29841.21
948.4344, 29884.65
948.9166, 29921.23
949.3987, 29988.43
949.8808, 30059.60
950.3629, 30109.84
950.8450, 30130.67
951.3271, 30163.01
951.8093, 30212.60
952.2914, 30264.15
952.7735, 30309.69
953.2556, 30349.69
953.7377, 30389.39
954.2198, 30427.00
954.7020, 30447.09
955.1841, 30420.56
955.6662, 30390.21
956.1483, 30396.29
956.6304, 30429.88
957.1125, 30422.88
957.5947, 30356.93
958.0768, 30287.36
958.5589, 30219.67
959.0410, 30169.46
959.5231, 30195.02
960.0052, 30275.08
960.4874, 30331.94
960.9695, 30322.41
961.4516, 30297.84
961.9337, 30279.21
962.4158, 30266.46
962.8979, 30259.17
963.3801, 30256.60
963.8622, 30260.25
964.3443, 30270.34
964.8264, 30285.42
965.3085, 30306.28
965.7906, 30329.97
966.2728, 30347.24
966.7549, 30352.86
967.2370, 30368.15
967.7191, 30413.39
968.2012, 30466.13
968.6833, 30508.22
969.1655, 30538.32
969.6476, 30563.08
970.1297, 30582.38
970.6118, 30597.20
971.0939, 30610.31
971.5760, 30619.02
972.0582, 30616.89
972.5403, 30604.78
973.0224, 30591.01
973.5045, 30557.11
973.9866, 30547.33
974.4688, 30605.07
974.9509, 30706.16
975.4330, 30723.04
975.9151, 30645.48
976.3972, 30586.48
976.8793, 30593.69
977.3615, 30638.03
977.8436, 30690.55
978.3257, 30746.30
978.8078, 30792.18
979.2899, 30829.99
979.7720, 30847.78
980.2542, 30827.94
980.7363, 30798.96
981.2184, 30801.00
981.7005, 30834.24
982.1826, 30868.68
982.6647, 30899.00
983.1469, 30931.76
983.6290, 30976.46
984.1111, 31024.96
984.5932, 31066.92
985.0753, 31096.08
985.5574, 31137.60
986.0395, 31216.43
986.5216, 31276.28
987.0037, 31274.63
987.4858, 31218.71
987.9680, 31172.43
988.4501, 31137.53
988.9322, 31131.29
989.4143, 31201.24
989.8964, 31273.97
990.3785, 31279.44
990.8607, 31231.84
991.3428, 31234.56
991.8249, 31328.97
992.3070, 31393.27
992.7891, 31386.28
993.2712, 31342.67
993.7534, 31326.57
994.2355, 31337.13
994.7176, 31375.87
995.1997, 31465.61
995.6818, 31542.17
996.1639, 31560.29
996.6461, 31551.44
997.1282, 31552.68
997.6103, 31556.07
998.0924, 31605.20
998.5745, 31711.77
999.0566, 31821.83
999.5388, 31867.07
1000.021, 31881.03
1000.503, 31932.63
1000.985, 32029.04
1001.467, 32092.60
1001.949, 32072.54
1002.431, 32027.19
1002.914, 31972.66
1003.396, 31913.94
1003.878, 31911.43
1004.360, 31966.98
1004.842, 32021.80
1005.324, 32040.37
1005.806, 32051.83
1006.288, 32104.11
1006.771, 32174.69
1007.253, 32208.30
1007.735, 32147.19
1008.217, 32106.81
1008.699, 32100.37
1009.181, 32119.18
1009.663, 32159.96
1010.145, 32216.68
1010.627, 32253.36
1011.110, 32259.65
1011.592, 32262.33
1012.074, 32272.00
1012.556, 32292.25
1013.038, 32330.44
1013.520, 32393.02
1014.002, 32439.84
1014.484, 32469.65
1014.966, 32487.35
1015.449, 32491.25
1015.931, 32487.30
1016.413, 32482.59
1016.895, 32480.63
1017.377, 32497.57
1017.859, 32568.52
1018.341, 32629.46
1018.823, 32648.67
1019.306, 32644.03
1019.788, 32662.18
1020.270, 32705.22
1020.752, 32724.60
1021.234, 32698.70
1021.716, 32673.93
1022.198, 32725.07
1022.680, 32802.13
1023.162, 32832.96
1023.645, 32776.51
1024.127, 32730.98
1024.609, 32694.32
1025.091, 32684.01
1025.573, 32725.68
1026.055, 32809.55
1026.537, 32875.81
1027.019, 32922.55
1027.502, 32949.62
1027.984, 32929.43
1028.466, 32913.77
1028.948, 32940.89
1029.430, 33004.09
1029.912, 33057.30
1030.394, 33096.06
1030.876, 33144.81
1031.359, 33220.51
1031.841, 33291.83
1032.323, 33293.04
1032.805, 33254.89
1033.287, 33240.98
1033.769, 33291.82
1034.251, 33328.52
1034.733, 33322.27
1035.215, 33306.03
1035.698, 33306.10
1036.180, 33322.77
1036.662, 33337.53
1037.144, 33349.78
1037.626, 33366.74
1038.108, 33400.77
1038.590, 33436.45
1039.072, 33456.92
1039.554, 33463.21
1040.037, 33485.70
1040.519, 33536.79
1041.001, 33575.07
1041.483, 33583.61
1041.965, 33576.79
1042.447, 33584.96
1042.929, 33602.20
1043.411, 33612.38
1043.894, 33607.38
1044.376, 33599.96
1044.858, 33590.48
1045.340, 33584.56
1045.822, 33585.18
1046.304, 33591.06
1046.786, 33620.07
1047.268, 33674.18
1047.750, 33732.31
1048.233, 33777.02
1048.715, 33817.38
1049.197, 33869.23
1049.679, 33930.79
1050.161, 33960.71
1050.643, 33941.68
1051.125, 33919.00
1051.607, 33901.99
1052.089, 33892.81
1052.572, 33894.80
1053.054, 33908.61
1053.536, 33937.59
1054.018, 33990.95
1054.500, 34043.39
1054.982, 34086.47
1055.464, 34120.34
1055.946, 34140.98
1056.429, 34141.43
1056.911, 34181.45
1057.393, 34267.00
1057.875, 34333.09
1058.357, 34293.11
1058.839, 34228.81
1059.321, 34242.96
1059.803, 34328.69
1060.286, 34375.72
1060.768, 34320.03
1061.250, 34315.47
1061.732, 34421.69
1062.214, 34572.02
1062.696, 34618.34
1063.178, 34587.13
1063.660, 34565.50
1064.142, 34578.21
1064.625, 34603.50
1065.107, 34637.21
1065.589, 34674.40
1066.071, 34714.55
1066.553, 34762.36
1067.035, 34774.46
1067.517, 34748.46
1067.999, 34726.25
1068.481, 34747.88
1068.964, 34782.44
1069.446, 34795.88
1069.928, 34792.88
1070.410, 34798.34
1070.892, 34827.50
1071.374, 34844.41
1071.856, 34840.84
1072.338, 34825.30
1072.820, 34791.34
1073.303, 34758.13
1073.785, 34788.40
1074.267, 34912.49
1074.749, 35027.95
1075.231, 35080.29
1075.713, 35110.97
1076.195, 35150.75
1076.677, 35199.14
1077.160, 35197.39
1077.642, 35144.96
1078.124, 35118.45
1078.606, 35186.82
1079.088, 35281.81
1079.570, 35363.97
1080.052, 35424.73
1080.534, 35436.21
1081.016, 35362.34
1081.499, 35330.83
1081.981, 35364.91
1082.463, 35423.69
1082.945, 35465.66
1083.427, 35492.14
1083.909, 35507.91
1084.391, 35514.73
1084.873, 35496.91
1085.355, 35393.55
1085.838, 35325.30
1086.320, 35353.79
1086.802, 35457.28
1087.284, 35535.18
1087.766, 35588.71
1088.248, 35629.54
1088.730, 35660.41
1089.212, 35683.09
1089.695, 35685.09
1090.177, 35685.59
1090.659, 35715.61
1091.141, 35791.83
1091.623, 35837.13
1092.105, 35846.55
1092.587, 35839.29
1093.069, 35818.02
1093.552, 35799.57
1094.034, 35805.04
1094.516, 35835.13
1094.998, 35883.45
1095.480, 35973.89
1095.962, 36039.89
1096.444, 36060.22
1096.926, 36052.47
1097.408, 36045.02
1097.891, 36041.11
1098.373, 36051.44
1098.855, 36078.60
1099.337, 36119.88
1099.819, 36195.46
1100.301, 36265.94
1100.783, 36298.30
1101.265, 36291.50
1101.747, 36305.85
1102.230, 36341.12
1102.712, 36377.44
1103.194, 36405.52
1103.676, 36426.47
1104.158, 36435.48
1104.640, 36438.82
1105.122, 36452.80
1105.604, 36480.52
1106.087, 36514.71
1106.569, 36557.32
1107.051, 36597.37
1107.533, 36622.88
1108.015, 36635.80
1108.497, 36626.56
1108.979, 36591.25
1109.461, 36600.13
1109.943, 36700.78
1110.426, 36802.07
1110.908, 36879.14
1111.390, 36928.20
1111.872, 36911.09
1112.354, 36851.02
1112.836, 36836.20
1113.318, 36935.68
1113.800, 37016.84
1114.282, 36989.89
1114.765, 36941.55
1115.247, 36961.93
1115.729, 37060.79
1116.211, 37095.25
1116.693, 37064.16
1117.175, 37025.17
1117.657, 36992.20
1118.139, 36992.91
1118.622, 37085.20
1119.104, 37233.38
1119.586, 37301.75
1120.068, 37267.54
1120.550, 37223.36
1121.032, 37177.62
1121.514, 37151.06
1121.996, 37191.59
1122.479, 37258.26
1122.961, 37281.59
1123.443, 37240.65
1123.925, 37249.23
1124.407, 37341.43
1124.889, 37443.62
1125.371, 37536.30
1125.853, 37608.31
1126.335, 37606.89
1126.818, 37557.03
1127.300, 37533.12
1127.782, 37575.09
1128.264, 37630.61
1128.746, 37709.37
1129.228, 37773.29
1129.710, 37776.32
1130.192, 37723.21
1130.674, 37702.20
1131.157, 37715.52
1131.639, 37755.99
1132.121, 37844.82
1132.603, 37933.19
1133.085, 37993.46
1133.567, 38028.16
1134.049, 38043.70
1134.531, 38036.49
1135.014, 38041.96
1135.496, 38068.35
1135.978, 38098.64
1136.460, 38122.20
1136.942, 38136.15
1137.424, 38131.16
1137.906, 38102.65
1138.388, 38105.09
1138.870, 38151.27
1139.353, 38187.02
1139.835, 38184.84
1140.317, 38166.33
1140.799, 38172.86
1141.281, 38190.10
1141.763, 38188.42
1142.245, 38125.98
1142.727, 38109.23
1143.209, 38162.50
1143.692, 38228.63
1144.174, 38259.91
1144.656, 38266.73
1145.138, 38274.99
1145.620, 38288.57
1146.102, 38327.13
1146.584, 38440.34
1147.066, 38526.68
1147.549, 38544.69
1148.031, 38532.37
1148.513, 38556.44
1148.995, 38608.89
1149.477, 38641.71
1149.959, 38647.44
1150.441, 38638.43
1150.923, 38590.39
1151.406, 38562.26
1151.888, 38606.24
1152.370, 38704.73
1152.852, 38767.67
1153.334, 38795.80
1153.816, 38817.29
1154.298, 38846.91
1154.780, 38861.94
1155.262, 38808.75
1155.745, 38748.42
1156.227, 38765.66
1156.709, 38885.54
1157.191, 38930.02
1157.673, 38886.91
1158.155, 38854.72
1158.637, 38912.88
1159.119, 39001.65
1159.601, 39054.75
1160.084, 39084.35
1160.566, 39124.07
1161.048, 39211.51
1161.530, 39227.93
1162.012, 39146.54
1162.494, 39054.73
1162.976, 39051.18
1163.458, 39096.54
1163.941, 39141.43
1164.423, 39180.45
1164.905, 39196.03
1165.387, 39142.59
1165.869, 39140.72
1166.351, 39239.77
1166.833, 39365.18
1167.315, 39386.71
1167.797, 39333.79
1168.280, 39257.77
1168.762, 39152.89
1169.244, 39118.36
1169.726, 39254.19
1170.208, 39386.56
1170.690, 39435.31
1171.172, 39425.95
1171.654, 39443.71
1172.136, 39481.86
1172.619, 39514.61
1173.101, 39525.37
1173.583, 39540.54
1174.065, 39579.07
1174.547, 39618.97
1175.029, 39644.76
1175.511, 39656.47
1175.993, 39649.98
1176.476, 39628.83
1176.958, 39631.25
1177.440, 39703.16
1177.922, 39778.95
1178.404, 39837.16
1178.886, 39872.62
1179.368, 39869.08
1179.850, 39825.64
1180.333, 39803.22
1180.815, 39807.90
1181.297, 39838.70
1181.779, 39919.98
1182.261, 40005.20
1182.743, 40060.94
1183.225, 40090.64
1183.707, 40105.79
1184.189, 40104.02
1184.672, 40115.76
1185.154, 40146.97
1185.636, 40195.10
1186.118, 40267.35
1186.600, 40348.18
1187.082, 40432.77
1187.564, 40521.68
1188.046, 40532.70
1188.528, 40451.13
1189.011, 40398.82
1189.493, 40442.01
1189.975, 40514.40
1190.457, 40549.80
1190.939, 40559.44
1191.421, 40556.09
1191.903, 40529.08
1192.385, 40537.45
1192.868, 40589.66
1193.350, 40640.70
1193.832, 40662.20
1194.314, 40664.18
1194.796, 40644.27
1195.278, 40616.98
1195.760, 40621.77
1196.242, 40682.80
1196.724, 40737.71
1197.207, 40786.71
1197.689, 40813.86
1198.171, 40773.64
1198.653, 40717.52
1199.135, 40733.09
1199.617, 40813.07
1200.099, 40868.98
1200.581, 40876.47
1201.063, 40875.79
1201.546, 40869.01
1202.028, 40868.39
1202.510, 40893.51
1202.992, 40935.89
1203.474, 40988.20
1203.956, 41050.54
1204.438, 41091.61
1204.920, 41097.30
1205.403, 41101.85
1205.885, 41115.40
1206.367, 41135.81
1206.849, 41171.66
1207.331, 41206.96
1207.813, 41199.39
1208.295, 41111.09
1208.777, 41082.31
1209.260, 41151.50
1209.742, 41239.32
1210.224, 41312.16
1210.706, 41369.03
1211.188, 41404.70
1211.670, 41425.73
1212.152, 41449.52
1212.634, 41492.48
1213.116, 41523.26
1213.599, 41544.33
1214.081, 41546.36
1214.563, 41495.23
1215.045, 41425.38
1215.527, 41461.93
1216.009, 41579.21
1216.491, 41670.75
1216.973, 41656.29
1217.455, 41663.83
1217.938, 41728.39
1218.420, 41795.49
1218.902, 41782.55
1219.384, 41724.75
1219.866, 41732.91
1220.348, 41805.62
1220.830, 41857.46
1221.312, 41832.93
1221.795, 41810.79
1222.277, 41810.97
1222.759, 41820.56
1223.241, 41798.50
1223.723, 41771.84
1224.205, 41833.45
1224.687, 42000.19
1225.169, 42126.85
1225.651, 42122.17
1226.134, 42111.81
1226.616, 42137.41
1227.098, 42172.26
1227.580, 42141.54
1228.062, 42072.70
1228.544, 42047.77
1229.026, 42098.68
1229.508, 42124.48
1229.990, 42049.91
1230.473, 42012.45
1230.955, 42098.63
1231.437, 42247.31
1231.919, 42276.63
1232.401, 42222.25
1232.883, 42178.75
1233.365, 42164.31
1233.847, 42196.97
1234.329, 42311.46
1234.812, 42420.40
1235.294, 42459.35
1235.776, 42450.36
1236.258, 42453.11
1236.740, 42468.95
1237.222, 42502.98
1237.704, 42568.70
1238.186, 42636.69
1238.669, 42709.48
1239.151, 42770.21
1239.633, 42793.67
1240.115, 42795.02
1240.597, 42816.17
1241.079, 42853.69
1241.561, 42888.43
1242.043, 42917.13
1242.526, 42935.95
1243.008, 42944.24
1243.490, 42944.12
1243.972, 42934.82
1244.454, 42920.23
1244.936, 42902.84
1245.418, 42885.94
1245.900, 42889.41
1246.382, 42932.42
1246.865, 42980.14
1247.347, 43030.02
1247.829, 43076.09
1248.311, 43106.50
1248.793, 43128.97
1249.275, 43159.70
1249.757, 43200.26
1250.239, 43232.37
1250.721, 43238.17
1251.204, 43269.92
1251.686, 43355.16
1252.168, 43440.59
1252.650, 43422.15
1253.132, 43356.70
1253.614, 43337.40
1254.096, 43382.38
1254.578, 43428.16
1255.061, 43467.77
1255.543, 43513.43
1256.025, 43578.00
1256.507, 43635.00
1256.989, 43624.95
1257.471, 43588.63
1257.953, 43590.04
1258.435, 43653.56
1258.917, 43694.20
1259.400, 43706.13
1259.882, 43713.99
1260.364, 43733.36
1260.846, 43747.30
1261.328, 43724.17
1261.810, 43684.77
1262.292, 43662.04
1262.774, 43666.78
1263.256, 43654.00
1263.739, 43617.02
1264.221, 43612.25
1264.703, 43694.66
1265.185, 43801.01
1265.667, 43889.51
1266.149, 43948.14
1266.631, 43947.05
1267.113, 43858.98
1267.596, 43837.05
1268.078, 43884.78
1268.560, 43948.17
1269.042, 43997.21
1269.524, 44039.79
1270.006, 44102.26
1270.488, 44150.89
1270.970, 44114.95
1271.453, 43972.02
1271.935, 43956.45
1272.417, 44075.68
1272.899, 44202.50
1273.381, 44263.57
1273.863, 44285.91
1274.345, 44244.35
1274.827, 44194.64
1275.309, 44242.19
1275.792, 44381.15
1276.274, 44447.69
1276.756, 44431.39
1277.238, 44401.83
1277.720, 44385.96
1278.202, 44388.96
1278.684, 44424.57
1279.166, 44471.13
1279.648, 44485.09
1280.131, 44477.20
1280.613, 44509.10
1281.095, 44587.36
1281.577, 44653.98
1282.059, 44683.13
1282.541, 44686.48
1283.023, 44660.09
1283.505, 44623.47
1283.988, 44604.80
1284.470, 44605.26
1284.952, 44631.87
1285.434, 44685.77
1285.916, 44748.93
1286.398, 44819.35
1286.880, 44892.40
1287.362, 44971.31
1287.844, 45043.05
1288.327, 45079.30
1288.809, 45094.36
1289.291, 45117.19
1289.773, 45154.30
1290.255, 45163.32
1290.737, 45119.50
1291.219, 45109.81
1291.701, 45175.67
1292.183, 45259.04
1292.666, 45271.74
1293.148, 45249.71
1293.630, 45233.25
1294.112, 45225.87
1294.594, 45279.70
1295.076, 45410.48
1295.558, 45510.11
1296.040, 45527.93
1296.523, 45524.34
1297.005, 45577.03
1297.487, 45636.42
1297.969, 45625.73
1298.451, 45543.68
1298.933, 45545.29
1299.415, 45630.63
1299.897, 45706.71
1300.380, 45745.66
##END=



