##NAMES=Jonesite
##RRUFFID=R070735
##IDEAL CHEMISTRY=KBa_2_Ti^4+^_2_(Si_5_Al)O_18_&#183;nH_2_O
##LOCALITY=Dallas Gem Mine (Gem Mine; Benitoite Mine), New Idria District, San Benito County, California, USA
##OWNER=RRUFF
##SOURCE=Michael Scott
##DESCRIPTION=Rosettes of colorless blades associated with reddish brown neptunite
##STATUS=The identification of this mineral is confirmed by single-crystal X-ray diffraction and chemical analysis.
##URL=rruff.info/R070735
##MEASURED CHEMISTRY=(K_0.84_Na_0.16_)_Σ=1_Ba_2.00_Ti_2.00_(Si_5.00_Al_1.00_)O_18_·3.5H_2_O; H_2_O estimated by difference
89.15009, 25416.17
89.63220, 25976.01
90.11432, 26308.88
90.59644, 26767.33
91.07855, 27523.21
91.56067, 28258.68
92.04279, 28789.07
92.52490, 29065.60
93.00702, 29164.98
93.48914, 29222.49
93.97125, 29195.64
94.45337, 29123.81
94.93549, 28747.85
95.41760, 28218.64
95.89972, 27754.16
96.38184, 27357.70
96.86395, 27024.31
97.34607, 26728.60
97.82819, 26456.33
98.31030, 26219.97
98.79242, 26033.60
99.27454, 25893.91
99.75665, 25769.76
100.2388, 25648.16
100.7209, 25525.70
101.2030, 25398.12
101.6851, 25245.25
102.1672, 25086.89
102.6494, 24971.12
103.1315, 24913.76
103.6136, 24868.47
104.0957, 24810.63
104.5778, 24741.63
105.0599, 24665.88
105.5421, 24575.66
106.0242, 24464.58
106.5063, 24391.34
106.9884, 24416.38
107.4705, 24432.36
107.9526, 24387.46
108.4348, 24276.77
108.9169, 24133.50
109.3990, 24006.58
109.8811, 23906.22
110.3632, 23804.80
110.8453, 23704.61
111.3275, 23601.69
111.8096, 23481.62
112.2917, 23338.37
112.7738, 23190.59
113.2559, 23113.49
113.7380, 23202.46
114.2202, 23250.19
114.7023, 23195.34
115.1844, 23064.87
115.6665, 22917.08
116.1486, 22782.36
116.6307, 22665.29
117.1129, 22580.46
117.5950, 22571.12
118.0771, 22561.24
118.5592, 22481.86
119.0413, 22325.89
119.5234, 22165.67
120.0056, 22070.72
120.4877, 22022.96
120.9698, 21975.98
121.4519, 21910.45
121.9340, 21836.62
122.4161, 21781.66
122.8982, 21761.33
123.3804, 21740.09
123.8625, 21693.64
124.3446, 21624.70
124.8267, 21546.42
125.3088, 21463.61
125.7909, 21375.26
126.2731, 21297.17
126.7552, 21219.26
127.2373, 21161.61
127.7194, 21144.41
128.2015, 21168.48
128.6837, 21209.05
129.1658, 21229.53
129.6479, 21219.69
130.1300, 21207.72
130.6121, 21206.13
131.0942, 21199.33
131.5764, 21173.43
132.0585, 21122.43
132.5406, 21050.58
133.0227, 20973.42
133.5048, 20903.47
133.9869, 20813.34
134.4691, 20685.58
134.9512, 20535.97
135.4333, 20386.94
135.9154, 20249.08
136.3975, 20125.19
136.8796, 20050.65
137.3618, 20077.14
137.8439, 20096.26
138.3260, 20043.13
138.8081, 19923.83
139.2902, 19802.71
139.7723, 19737.31
140.2545, 19727.90
140.7366, 19698.03
141.2187, 19626.51
141.7008, 19540.45
142.1829, 19470.28
142.6650, 19422.41
143.1472, 19379.89
143.6293, 19321.10
144.1114, 19250.08
144.5935, 19186.92
145.0756, 19145.20
145.5577, 19118.69
146.0399, 19085.47
146.5220, 19035.85
147.0041, 18985.91
147.4862, 18946.84
147.9683, 18918.59
148.4504, 18897.51
148.9326, 18886.20
149.4147, 18886.72
149.8968, 18874.06
150.3789, 18820.05
150.8610, 18765.91
151.3431, 18737.40
151.8252, 18739.82
152.3074, 18754.81
152.7895, 18757.31
153.2716, 18752.24
153.7537, 18720.79
154.2358, 18637.46
154.7179, 18543.43
155.2001, 18473.10
155.6822, 18440.93
156.1643, 18438.88
156.6464, 18442.64
157.1285, 18480.33
157.6106, 18489.78
158.0928, 18453.98
158.5749, 18388.74
159.0570, 18309.57
159.5391, 18222.98
160.0212, 18132.88
160.5033, 18090.63
160.9855, 18139.96
161.4676, 18185.07
161.9497, 18197.02
162.4318, 18179.85
162.9139, 18151.35
163.3960, 18125.21
163.8782, 18100.95
164.3603, 18061.14
164.8424, 17981.08
165.3245, 17905.51
165.8066, 17868.46
166.2887, 17871.03
166.7709, 17885.28
167.2530, 17887.05
167.7351, 17876.28
168.2172, 17865.75
168.6993, 17862.55
169.1814, 17857.97
169.6636, 17835.88
170.1457, 17788.93
170.6278, 17744.68
171.1099, 17739.70
171.5920, 17766.36
172.0741, 17788.73
172.5563, 17796.54
173.0384, 17789.91
173.5205, 17763.83
174.0026, 17698.37
174.4847, 17641.16
174.9668, 17624.98
175.4490, 17648.73
175.9311, 17705.05
176.4132, 17818.34
176.8953, 17986.06
177.3774, 18090.77
177.8595, 18083.61
178.3417, 18024.00
178.8238, 17931.15
179.3059, 17810.14
179.7880, 17696.29
180.2701, 17631.60
180.7522, 17625.02
181.2344, 17630.05
181.7165, 17654.84
182.1986, 17678.99
182.6807, 17689.15
183.1628, 17681.77
183.6449, 17663.80
184.1271, 17646.39
184.6092, 17630.37
185.0913, 17613.27
185.5734, 17589.09
186.0555, 17566.77
186.5376, 17552.59
187.0198, 17549.17
187.5019, 17556.91
187.9840, 17576.93
188.4661, 17610.87
188.9482, 17657.77
189.4303, 17748.28
189.9125, 17842.18
190.3946, 17888.43
190.8767, 17859.91
191.3588, 17772.78
191.8409, 17701.68
192.3230, 17642.22
192.8052, 17603.74
193.2873, 17599.68
193.7694, 17617.62
194.2515, 17639.59
194.7336, 17657.07
195.2157, 17668.29
195.6979, 17652.92
196.1800, 17566.24
196.6621, 17504.25
197.1442, 17518.33
197.6263, 17590.24
198.1084, 17664.24
198.5906, 17706.37
199.0727, 17714.97
199.5548, 17703.45
200.0369, 17638.38
200.5190, 17583.34
201.0011, 17590.22
201.4833, 17653.31
201.9654, 17707.46
202.4475, 17696.32
202.9296, 17627.52
203.4117, 17591.26
203.8938, 17612.27
204.3760, 17653.14
204.8581, 17685.89
205.3402, 17709.34
205.8223, 17721.49
206.3044, 17722.92
206.7865, 17711.71
207.2687, 17678.46
207.7508, 17605.15
208.2329, 17514.98
208.7150, 17435.01
209.1971, 17364.88
209.6792, 17312.04
210.1614, 17296.22
210.6435, 17303.72
211.1256, 17303.98
211.6077, 17279.75
212.0898, 17241.31
212.5719, 17214.63
213.0541, 17211.17
213.5362, 17197.38
214.0183, 17146.57
214.5004, 17068.74
214.9825, 16986.34
215.4646, 16898.85
215.9468, 16813.45
216.4289, 16766.48
216.9110, 16784.68
217.3931, 16806.47
217.8752, 16791.90
218.3573, 16751.19
218.8395, 16714.04
219.3216, 16713.07
219.8037, 16743.14
220.2858, 16734.50
220.7679, 16647.77
221.2500, 16562.14
221.7322, 16512.71
222.2143, 16495.60
222.6964, 16492.87
223.1785, 16499.52
223.6606, 16517.22
224.1427, 16506.49
224.6249, 16430.34
225.1070, 16356.47
225.5891, 16308.56
226.0712, 16286.21
226.5533, 16278.78
227.0354, 16280.32
227.5176, 16293.29
227.9997, 16297.04
228.4818, 16295.29
228.9639, 16280.35
229.4460, 16235.87
229.9281, 16170.01
230.4103, 16110.19
230.8924, 16084.58
231.3745, 16097.35
231.8566, 16126.77
232.3387, 16204.78
232.8208, 16271.76
233.3030, 16300.17
233.7851, 16289.18
234.2672, 16252.46
234.7493, 16198.80
235.2314, 16112.41
235.7135, 16069.51
236.1957, 16104.94
236.6778, 16147.75
237.1599, 16159.06
237.6420, 16137.20
238.1241, 16105.90
238.6062, 16093.94
239.0884, 16112.99
239.5705, 16112.22
240.0526, 16071.59
240.5347, 16030.48
241.0168, 16012.28
241.4989, 16019.11
241.9811, 16039.14
242.4632, 16060.43
242.9453, 16087.39
243.4274, 16099.58
243.9095, 16094.10
244.3916, 16078.47
244.8738, 16045.58
245.3559, 16000.15
245.8380, 15968.36
246.3201, 15984.90
246.8022, 16076.14
247.2843, 16130.53
247.7665, 16130.85
248.2486, 16110.76
248.7307, 16086.80
249.2128, 16064.01
249.6949, 16048.29
250.1770, 16046.85
250.6592, 16064.11
251.1413, 16083.65
251.6234, 16109.18
252.1055, 16134.36
252.5876, 16154.78
253.0697, 16169.70
253.5519, 16180.34
254.0340, 16184.96
254.5161, 16177.66
254.9982, 16195.35
255.4803, 16262.43
255.9624, 16337.67
256.4445, 16387.97
256.9267, 16409.32
257.4088, 16420.50
257.8909, 16440.31
258.3730, 16471.13
258.8551, 16499.85
259.3372, 16523.70
259.8194, 16547.10
260.3015, 16568.41
260.7836, 16588.69
261.2657, 16621.63
261.7478, 16684.00
262.2299, 16781.86
262.7121, 16869.91
263.1942, 16955.37
263.6763, 17025.56
264.1584, 17053.14
264.6405, 17039.18
265.1227, 17041.12
265.6048, 17122.88
266.0869, 17291.87
266.5690, 17407.67
267.0511, 17417.21
267.5332, 17406.73
268.0154, 17453.12
268.4975, 17560.00
268.9796, 17669.96
269.4617, 17728.66
269.9438, 17738.08
270.4259, 17785.68
270.9081, 17906.77
271.3902, 18043.39
271.8723, 18149.57
272.3544, 18224.34
272.8365, 18292.97
273.3186, 18379.22
273.8008, 18478.38
274.2829, 18549.11
274.7650, 18555.95
275.2471, 18560.23
275.7292, 18616.10
276.2113, 18720.73
276.6935, 18825.00
277.1756, 18898.72
277.6577, 18941.22
278.1398, 18969.97
278.6219, 18980.43
279.1040, 18981.07
279.5862, 18981.29
280.0683, 18979.45
280.5504, 18961.61
281.0325, 18918.26
281.5146, 18850.09
281.9967, 18771.94
282.4789, 18664.00
282.9610, 18563.59
283.4431, 18500.92
283.9252, 18469.98
284.4073, 18437.59
284.8894, 18385.27
285.3716, 18319.22
285.8537, 18260.02
286.3358, 18210.35
286.8179, 18163.85
287.3000, 18121.83
287.7821, 18081.58
288.2643, 18032.44
288.7464, 17967.25
289.2285, 17890.89
289.7106, 17814.96
290.1927, 17731.58
290.6748, 17662.10
291.1570, 17628.36
291.6391, 17618.68
292.1212, 17592.81
292.6033, 17525.60
293.0854, 17447.44
293.5675, 17427.26
294.0497, 17491.47
294.5318, 17533.64
295.0139, 17489.74
295.4960, 17392.88
295.9781, 17321.06
296.4602, 17304.36
296.9424, 17312.28
297.4245, 17290.78
297.9066, 17235.20
298.3887, 17182.54
298.8708, 17150.13
299.3529, 17127.03
299.8351, 17091.51
300.3172, 17035.10
300.7993, 16974.72
301.2814, 16936.85
301.7635, 16923.30
302.2456, 16905.53
302.7278, 16861.90
303.2099, 16815.87
303.6920, 16809.53
304.1741, 16855.07
304.6562, 16903.01
305.1383, 16888.79
305.6205, 16808.15
306.1026, 16749.06
306.5847, 16730.80
307.0668, 16735.35
307.5489, 16747.16
308.0310, 16764.21
308.5132, 16785.62
308.9953, 16813.11
309.4774, 16846.80
309.9595, 16871.63
310.4416, 16877.56
310.9237, 16881.17
311.4059, 16896.51
311.8880, 16923.53
312.3701, 16952.57
312.8522, 16977.15
313.3343, 16996.94
313.8164, 17015.33
314.2986, 17029.83
314.7807, 17044.95
315.2628, 17065.39
315.7449, 17089.41
316.2270, 17111.80
316.7091, 17132.27
317.1913, 17147.01
317.6734, 17136.56
318.1555, 17087.69
318.6376, 17032.31
319.1197, 16978.21
319.6018, 16926.40
320.0840, 16880.52
320.5661, 16844.71
321.0482, 16812.40
321.5303, 16761.02
322.0124, 16667.34
322.4945, 16588.99
322.9767, 16540.25
323.4588, 16513.65
323.9409, 16504.15
324.4230, 16511.56
324.9051, 16521.55
325.3872, 16503.65
325.8694, 16434.24
326.3515, 16378.78
326.8336, 16347.58
327.3157, 16330.09
327.7978, 16321.56
328.2799, 16319.64
328.7621, 16311.11
329.2442, 16274.39
329.7263, 16186.07
330.2084, 16130.50
330.6905, 16125.23
331.1726, 16138.30
331.6548, 16149.73
332.1369, 16156.00
332.6190, 16162.11
333.1011, 16174.34
333.5832, 16195.89
334.0653, 16203.99
334.5475, 16184.93
335.0296, 16167.63
335.5117, 16171.65
335.9938, 16191.16
336.4759, 16203.35
336.9580, 16187.50
337.4402, 16144.50
337.9223, 16135.45
338.4044, 16197.54
338.8865, 16251.96
339.3686, 16281.21
339.8507, 16288.49
340.3329, 16279.05
340.8150, 16254.50
341.2971, 16220.25
341.7792, 16199.22
342.2613, 16194.55
342.7434, 16201.28
343.2256, 16224.43
343.7077, 16256.01
344.1898, 16287.68
344.6719, 16316.20
345.1540, 16343.92
345.6361, 16374.60
346.1183, 16401.97
346.6004, 16445.94
347.0825, 16532.23
347.5646, 16616.02
348.0467, 16658.47
348.5288, 16654.59
349.0110, 16637.66
349.4931, 16648.12
349.9752, 16690.27
350.4573, 16743.03
350.9394, 16831.44
351.4215, 16909.61
351.9037, 16952.41
352.3858, 16963.38
352.8679, 16963.37
353.3500, 16966.40
353.8321, 16972.61
354.3142, 16988.26
354.7964, 17020.45
355.2785, 17053.90
355.7606, 17079.22
356.2427, 17101.38
356.7248, 17133.59
357.2069, 17195.05
357.6891, 17264.14
358.1712, 17269.83
358.6533, 17178.91
359.1354, 17099.08
359.6175, 17082.80
360.0996, 17096.89
360.5818, 17104.22
361.0639, 17090.03
361.5460, 17072.65
362.0281, 17084.69
362.5102, 17131.80
362.9923, 17156.61
363.4745, 17119.94
363.9566, 17065.62
364.4387, 17036.45
364.9208, 17038.42
365.4029, 17051.51
365.8850, 17074.83
366.3672, 17101.79
366.8493, 17089.37
367.3314, 17005.03
367.8135, 16913.64
368.2956, 16894.95
368.7777, 16942.63
369.2599, 16968.97
369.7420, 16919.92
370.2241, 16832.00
370.7062, 16764.97
371.1883, 16726.00
371.6704, 16704.10
372.1526, 16697.02
372.6347, 16701.56
373.1168, 16699.06
373.5989, 16688.23
374.0810, 16668.70
374.5631, 16637.93
375.0453, 16596.69
375.5274, 16550.16
376.0095, 16496.99
376.4916, 16442.41
376.9737, 16407.05
377.4558, 16400.47
377.9380, 16399.25
378.4201, 16403.81
378.9022, 16406.94
379.3843, 16390.02
379.8664, 16343.37
380.3485, 16285.22
380.8307, 16255.21
381.3128, 16274.81
381.7949, 16282.69
382.2770, 16260.74
382.7591, 16233.25
383.2412, 16228.13
383.7234, 16248.61
384.2055, 16271.30
384.6876, 16266.75
385.1697, 16223.52
385.6518, 16202.63
386.1339, 16215.69
386.6161, 16236.08
387.0982, 16250.99
387.5803, 16261.79
388.0624, 16276.91
388.5445, 16303.73
389.0266, 16340.38
389.5088, 16365.92
389.9909, 16368.41
390.4730, 16372.75
390.9551, 16389.75
391.4372, 16408.68
391.9193, 16410.24
392.4015, 16385.14
392.8836, 16355.02
393.3657, 16370.17
393.8478, 16458.16
394.3299, 16522.92
394.8120, 16532.12
395.2942, 16528.62
395.7763, 16541.18
396.2584, 16573.88
396.7405, 16610.65
397.2226, 16637.10
397.7047, 16653.12
398.1869, 16662.61
398.6690, 16657.67
399.1511, 16656.16
399.6332, 16672.91
400.1153, 16701.67
400.5974, 16724.47
401.0796, 16735.25
401.5617, 16732.82
402.0438, 16704.54
402.5259, 16638.23
403.0080, 16594.88
403.4901, 16630.12
403.9723, 16703.86
404.4544, 16755.71
404.9365, 16766.96
405.4186, 16768.78
405.9007, 16784.25
406.3828, 16811.93
406.8650, 16845.89
407.3471, 16887.60
407.8292, 16929.56
408.3113, 16957.23
408.7934, 16966.56
409.2755, 16982.75
409.7577, 17025.78
410.2398, 17075.14
410.7219, 17098.21
411.2040, 17089.11
411.6861, 17074.22
412.1682, 17081.07
412.6504, 17113.53
413.1325, 17133.92
413.6146, 17121.06
414.0967, 17115.90
414.5788, 17150.74
415.0609, 17214.42
415.5431, 17273.63
416.0252, 17309.47
416.5073, 17322.61
416.9894, 17315.98
417.4715, 17239.89
417.9536, 17204.83
418.4358, 17251.82
418.9179, 17331.27
419.4000, 17394.17
419.8821, 17424.64
420.3642, 17433.56
420.8463, 17436.61
421.3285, 17434.47
421.8106, 17424.25
422.2927, 17382.85
422.7748, 17353.91
423.2569, 17365.14
423.7390, 17410.18
424.2212, 17462.27
424.7033, 17504.43
425.1854, 17536.23
425.6675, 17552.81
426.1496, 17537.03
426.6317, 17535.38
427.1139, 17591.97
427.5960, 17662.21
428.0781, 17681.42
428.5602, 17614.03
429.0423, 17526.81
429.5244, 17508.93
430.0066, 17562.04
430.4887, 17609.99
430.9708, 17629.57
431.4529, 17636.91
431.9350, 17650.48
432.4171, 17670.63
432.8993, 17691.88
433.3814, 17717.72
433.8635, 17741.47
434.3456, 17748.17
434.8277, 17734.26
435.3098, 17716.41
435.7920, 17706.58
436.2741, 17705.25
436.7562, 17710.28
437.2383, 17731.62
437.7204, 17750.09
438.2025, 17754.01
438.6847, 17745.72
439.1668, 17730.12
439.6489, 17707.39
440.1310, 17684.96
440.6131, 17683.74
441.0952, 17741.81
441.5774, 17767.20
442.0595, 17730.31
442.5416, 17673.88
443.0237, 17628.97
443.5058, 17604.69
443.9879, 17605.41
444.4701, 17643.10
444.9522, 17728.37
445.4343, 17773.55
445.9164, 17757.06
446.3985, 17721.17
446.8806, 17656.25
447.3628, 17583.89
447.8449, 17542.65
448.3270, 17557.85
448.8091, 17605.06
449.2912, 17618.87
449.7733, 17579.98
450.2555, 17561.53
450.7376, 17620.16
451.2197, 17682.89
451.7018, 17685.64
452.1839, 17618.70
452.6660, 17545.92
453.1482, 17526.72
453.6303, 17547.68
454.1124, 17541.75
454.5945, 17488.80
455.0766, 17435.88
455.5587, 17429.07
456.0409, 17455.09
456.5230, 17477.77
457.0051, 17489.75
457.4872, 17494.91
457.9693, 17492.56
458.4514, 17484.79
458.9336, 17483.92
459.4156, 17498.29
459.8978, 17520.16
460.3799, 17528.98
460.8620, 17527.90
461.3441, 17510.86
461.8262, 17450.58
462.3083, 17387.39
462.7905, 17371.02
463.2726, 17407.18
463.7547, 17457.37
464.2368, 17481.65
464.7189, 17476.62
465.2010, 17474.26
465.6832, 17493.91
466.1653, 17495.47
466.6474, 17443.15
467.1295, 17368.55
467.6116, 17325.76
468.0938, 17344.25
468.5759, 17396.48
469.0580, 17421.77
469.5401, 17413.75
470.0222, 17396.86
470.5043, 17374.44
470.9865, 17345.01
471.4686, 17296.75
471.9507, 17233.50
472.4328, 17187.55
472.9149, 17194.30
473.3970, 17239.19
473.8792, 17268.35
474.3613, 17275.04
474.8434, 17279.35
475.3255, 17299.03
475.8076, 17325.02
476.2897, 17338.67
476.7719, 17338.43
477.2540, 17323.78
477.7361, 17279.26
478.2182, 17218.36
478.7003, 17183.65
479.1824, 17191.91
479.6646, 17224.88
480.1467, 17258.60
480.6288, 17301.21
481.1109, 17316.69
481.5930, 17284.74
482.0751, 17239.45
482.5573, 17200.56
483.0394, 17170.53
483.5215, 17144.07
484.0036, 17114.53
484.4857, 17087.51
484.9678, 17102.84
485.4500, 17225.84
485.9321, 17303.49
486.4142, 17280.04
486.8963, 17223.43
487.3784, 17202.95
487.8605, 17234.62
488.3427, 17276.76
488.8248, 17270.61
489.3069, 17212.45
489.7890, 17203.09
490.2711, 17293.72
490.7532, 17371.61
491.2354, 17330.38
491.7175, 17231.27
492.1996, 17225.20
492.6817, 17446.07
493.1638, 17707.38
493.6459, 17768.05
494.1281, 17641.79
494.6102, 17517.25
495.0923, 17459.92
495.5744, 17447.64
496.0565, 17448.78
496.5386, 17468.64
497.0208, 17476.24
497.5029, 17449.84
497.9850, 17416.46
498.4671, 17406.67
498.9492, 17420.74
499.4313, 17435.31
499.9135, 17430.99
500.3956, 17409.66
500.8777, 17396.80
501.3598, 17397.95
501.8419, 17401.10
502.3240, 17411.69
502.8062, 17420.05
503.2883, 17410.05
503.7704, 17378.80
504.2525, 17348.02
504.7346, 17343.93
505.2167, 17367.64
505.6989, 17416.73
506.1810, 17557.52
506.6631, 17643.74
507.1452, 17575.23
507.6273, 17405.15
508.1094, 17251.33
508.5916, 17160.65
509.0737, 17113.17
509.5558, 17093.18
510.0379, 17099.69
510.5200, 17104.00
511.0021, 17100.02
511.4843, 17084.46
511.9664, 17046.43
512.4485, 16981.29
512.9306, 16930.20
513.4127, 16914.16
513.8948, 16910.24
514.3770, 16898.91
514.8591, 16877.94
515.3412, 16849.12
515.8233, 16812.47
516.3054, 16769.79
516.7875, 16733.61
517.2697, 16694.60
517.7518, 16674.35
518.2339, 16686.32
518.7160, 16711.56
519.1981, 16736.14
519.6802, 16755.24
520.1624, 16765.06
520.6445, 16755.02
521.1266, 16724.09
521.6087, 16717.53
522.0908, 16749.87
522.5729, 16785.79
523.0551, 16814.98
523.5372, 16835.95
524.0193, 16844.26
524.5014, 16834.20
524.9835, 16821.66
525.4656, 16826.94
525.9478, 16845.32
526.4299, 16848.65
526.9120, 16823.93
527.3941, 16797.17
527.8762, 16805.25
528.3583, 16850.18
528.8405, 16874.92
529.3226, 16859.72
529.8047, 16835.59
530.2868, 16820.11
530.7689, 16812.56
531.2510, 16807.54
531.7332, 16802.47
532.2153, 16797.37
532.6974, 16792.99
533.1795, 16795.46
533.6616, 16786.92
534.1437, 16765.30
534.6259, 16735.77
535.1080, 16698.64
535.5901, 16656.06
536.0722, 16611.75
536.5543, 16559.88
537.0364, 16513.17
537.5186, 16522.21
538.0007, 16605.57
538.4828, 16674.42
538.9649, 16690.61
539.4470, 16677.31
539.9291, 16658.92
540.4113, 16636.44
540.8934, 16612.42
541.3755, 16582.08
541.8576, 16553.27
542.3397, 16543.63
542.8218, 16554.24
543.3040, 16559.48
543.7861, 16536.63
544.2682, 16491.14
544.7503, 16470.54
545.2324, 16491.57
545.7145, 16512.93
546.1967, 16536.99
546.6788, 16552.13
547.1609, 16535.49
547.6430, 16487.62
548.1251, 16445.17
548.6072, 16454.87
549.0894, 16519.35
549.5715, 16558.04
550.0536, 16560.18
550.5357, 16550.98
551.0178, 16526.93
551.4999, 16503.31
551.9821, 16506.94
552.4642, 16553.41
552.9463, 16595.86
553.4284, 16581.10
553.9105, 16523.75
554.3926, 16484.25
554.8748, 16476.84
555.3569, 16477.40
555.8390, 16464.03
556.3211, 16436.52
556.8032, 16411.58
557.2853, 16383.05
557.7675, 16363.60
558.2496, 16368.89
558.7317, 16384.98
559.2138, 16388.56
559.6959, 16371.29
560.1780, 16340.49
560.6602, 16305.14
561.1423, 16261.67
561.6244, 16228.63
562.1065, 16210.67
562.5886, 16199.80
563.0707, 16201.22
563.5529, 16206.63
564.0350, 16200.67
564.5171, 16174.55
564.9992, 16141.34
565.4813, 16118.58
565.9634, 16105.62
566.4456, 16092.75
566.9277, 16079.69
567.4098, 16062.59
567.8919, 16029.84
568.3740, 15984.09
568.8561, 15957.64
569.3383, 15984.86
569.8204, 16005.19
570.3025, 15962.96
570.7846, 15882.99
571.2667, 15829.37
571.7488, 15829.14
572.2310, 15855.82
572.7131, 15861.71
573.1952, 15834.55
573.6773, 15819.74
574.1594, 15830.79
574.6415, 15840.15
575.1237, 15834.54
575.6058, 15818.26
576.0879, 15796.97
576.5700, 15765.92
577.0521, 15751.21
577.5342, 15821.53
578.0164, 15977.65
578.4985, 16056.77
578.9806, 15999.81
579.4627, 15886.09
579.9448, 15776.01
580.4269, 15671.46
580.9091, 15612.54
581.3912, 15643.65
581.8733, 15689.07
582.3554, 15697.64
582.8375, 15678.28
583.3196, 15657.07
583.8018, 15644.73
584.2839, 15638.71
584.7660, 15636.14
585.2481, 15642.85
585.7302, 15636.01
586.2123, 15598.55
586.6945, 15565.35
587.1766, 15556.60
587.6587, 15562.12
588.1408, 15558.67
588.6229, 15532.92
589.1050, 15502.51
589.5872, 15494.69
590.0693, 15508.57
590.5514, 15521.29
591.0335, 15528.79
591.5156, 15532.84
591.9977, 15533.10
592.4799, 15530.38
592.9620, 15531.34
593.4441, 15546.72
593.9262, 15556.27
594.4083, 15537.74
594.8904, 15506.34
595.3726, 15494.32
595.8547, 15512.81
596.3368, 15545.81
596.8189, 15571.94
597.3010, 15592.28
597.7831, 15600.27
598.2653, 15577.99
598.7474, 15561.83
599.2295, 15572.31
599.7116, 15593.66
600.1937, 15601.10
600.6758, 15585.01
601.1580, 15557.90
601.6401, 15531.71
602.1222, 15505.78
602.6043, 15474.47
603.0864, 15434.09
603.5685, 15399.56
604.0507, 15386.64
604.5328, 15393.05
605.0149, 15390.24
605.4970, 15370.55
605.9791, 15350.79
606.4612, 15342.14
606.9434, 15334.35
607.4255, 15309.64
607.9076, 15266.40
608.3897, 15224.37
608.8718, 15207.42
609.3539, 15214.69
609.8361, 15206.68
610.3182, 15177.19
610.8003, 15142.03
611.2824, 15102.10
611.7645, 15061.83
612.2466, 15023.44
612.7288, 14986.78
613.2109, 14960.87
613.6930, 14955.77
614.1751, 14964.28
614.6572, 14983.02
615.1393, 15010.40
615.6215, 15008.89
616.1036, 14946.34
616.5857, 14844.04
617.0678, 14778.24
617.5499, 14788.40
618.0320, 14780.56
618.5142, 14725.26
618.9963, 14670.30
619.4784, 14654.28
619.9605, 14674.20
620.4426, 14706.63
620.9247, 14742.67
621.4069, 14769.59
621.8890, 14741.99
622.3711, 14646.35
622.8532, 14577.33
623.3353, 14573.77
623.8174, 14591.85
624.2996, 14582.32
624.7817, 14547.63
625.2638, 14527.38
625.7459, 14560.17
626.2280, 14586.99
626.7101, 14553.82
627.1923, 14477.22
627.6744, 14393.97
628.1565, 14318.29
628.6386, 14268.87
629.1207, 14287.52
629.6028, 14408.37
630.0850, 14458.95
630.5671, 14356.13
631.0492, 14266.69
631.5313, 14256.81
632.0134, 14290.04
632.4955, 14309.76
632.9777, 14298.15
633.4598, 14267.79
633.9419, 14215.54
634.4240, 14153.49
634.9061, 14127.69
635.3882, 14147.92
635.8704, 14175.56
636.3525, 14182.45
636.8346, 14172.15
637.3167, 14167.70
637.7988, 14183.71
638.2809, 14185.63
638.7631, 14155.94
639.2452, 14117.55
639.7273, 14087.83
640.2094, 14070.69
640.6915, 14067.54
641.1736, 14084.43
641.6558, 14111.67
642.1379, 14111.05
642.6200, 14074.68
643.1021, 14045.28
643.5842, 14038.90
644.0663, 14040.85
644.5485, 14031.45
645.0306, 14011.33
645.5127, 14005.77
645.9948, 14042.46
646.4769, 14078.45
646.9590, 14077.64
647.4412, 14048.31
647.9233, 14009.31
648.4054, 13968.02
648.8875, 13934.42
649.3696, 13926.83
649.8517, 13953.49
650.3339, 13963.72
650.8160, 13937.53
651.2981, 13918.44
651.7802, 13930.02
652.2623, 13953.60
652.7444, 13959.39
653.2266, 13936.80
653.7087, 13917.26
654.1908, 13931.92
654.6729, 13965.80
655.1550, 13985.55
655.6371, 13987.75
656.1193, 13987.24
656.6014, 13993.78
657.0835, 13996.22
657.5656, 13997.79
658.0477, 14005.17
658.5298, 14004.90
659.0120, 14008.78
659.4941, 14020.08
659.9762, 14051.72
660.4583, 14093.59
660.9404, 14116.00
661.4225, 14098.10
661.9047, 14060.79
662.3868, 14037.11
662.8689, 14026.86
663.3510, 14026.93
663.8331, 14038.40
664.3152, 14055.98
664.7974, 14076.21
665.2795, 14098.88
665.7616, 14119.71
666.2437, 14143.70
666.7258, 14159.91
667.2079, 14161.80
667.6901, 14154.83
668.1722, 14139.99
668.6543, 14120.87
669.1364, 14113.92
669.6185, 14144.15
670.1006, 14199.27
670.5828, 14195.46
671.0649, 14107.69
671.5470, 14044.60
672.0291, 14066.17
672.5112, 14109.59
672.9933, 14097.06
673.4755, 14025.84
673.9576, 13968.65
674.4397, 13958.78
674.9218, 13959.65
675.4039, 13943.78
675.8860, 13915.28
676.3682, 13889.06
676.8503, 13870.91
677.3324, 13849.60
677.8145, 13806.73
678.2966, 13738.88
678.7787, 13676.79
679.2609, 13615.87
679.7430, 13568.79
680.2251, 13550.75
680.7072, 13543.84
681.1893, 13526.01
681.6714, 13493.22
682.1536, 13453.20
682.6357, 13402.39
683.1178, 13351.39
683.5999, 13317.28
684.0820, 13298.56
684.5641, 13279.52
685.0463, 13250.75
685.5284, 13219.70
686.0105, 13206.07
686.4926, 13224.81
686.9747, 13225.23
687.4568, 13189.65
687.9390, 13153.02
688.4211, 13122.58
688.9032, 13102.73
689.3853, 13102.52
689.8674, 13128.96
690.3495, 13159.57
690.8317, 13184.29
691.3138, 13197.40
691.7959, 13176.02
692.2780, 13119.16
692.7601, 13073.02
693.2422, 13073.93
693.7244, 13106.73
694.2065, 13111.79
694.6886, 13063.27
695.1707, 13028.67
695.6528, 13020.66
696.1349, 13016.57
696.6171, 13001.08
697.0992, 12977.95
697.5813, 12960.17
698.0634, 12954.40
698.5455, 12954.66
699.0276, 12959.57
699.5098, 12965.37
699.9919, 12955.28
700.4740, 12925.02
700.9561, 12892.03
701.4382, 12867.95
701.9203, 12853.79
702.4025, 12857.69
702.8846, 12904.48
703.3667, 12936.46
703.8488, 12939.85
704.3309, 12934.77
704.8130, 12940.44
705.2952, 12952.69
705.7773, 12948.89
706.2594, 12906.52
706.7415, 12857.15
707.2236, 12857.80
707.7057, 12897.11
708.1879, 12898.48
708.6700, 12837.88
709.1521, 12775.50
709.6342, 12770.54
710.1163, 12819.99
710.5984, 12854.05
711.0806, 12861.94
711.5627, 12869.50
712.0448, 12883.18
712.5269, 12896.11
713.0090, 12910.78
713.4911, 12921.03
713.9733, 12902.65
714.4554, 12819.11
714.9375, 12723.97
715.4196, 12718.45
715.9017, 12790.36
716.3839, 12839.60
716.8660, 12837.84
717.3481, 12820.89
717.8302, 12826.26
718.3123, 12853.80
718.7944, 12856.58
719.2766, 12807.96
719.7587, 12771.24
720.2408, 12765.01
720.7229, 12769.97
721.2050, 12768.30
721.6871, 12759.29
722.1693, 12753.85
722.6514, 12761.35
723.1335, 12773.97
723.6156, 12776.91
724.0977, 12771.98
724.5798, 12775.58
725.0620, 12794.75
725.5441, 12808.68
726.0262, 12790.61
726.5083, 12740.57
726.9904, 12723.74
727.4725, 12785.94
727.9547, 12820.67
728.4368, 12779.58
728.9189, 12726.29
729.4010, 12720.15
729.8831, 12760.47
730.3652, 12804.53
730.8474, 12827.38
731.3295, 12839.02
731.8116, 12859.52
732.2937, 12883.67
732.7758, 12875.67
733.2579, 12821.36
733.7401, 12775.99
734.2222, 12800.68
734.7043, 12891.40
735.1864, 12948.49
735.6685, 12946.02
736.1506, 12942.63
736.6328, 12944.43
737.1149, 12948.11
737.5970, 12946.68
738.0791, 12943.31
738.5612, 12953.55
739.0433, 12999.12
739.5255, 13045.13
740.0076, 13033.90
740.4897, 12989.37
740.9718, 12998.03
741.4539, 13079.83
741.9360, 13165.40
742.4182, 13189.86
742.9003, 13161.80
743.3824, 13156.06
743.8645, 13187.49
744.3466, 13215.97
744.8287, 13244.88
745.3109, 13262.56
745.7930, 13250.41
746.2751, 13218.39
746.7572, 13203.58
747.2393, 13231.63
747.7214, 13264.22
748.2036, 13267.05
748.6857, 13252.68
749.1678, 13244.53
749.6499, 13246.58
750.1320, 13253.33
750.6141, 13262.54
751.0963, 13269.72
751.5784, 13254.02
752.0605, 13203.29
752.5426, 13163.55
753.0247, 13139.14
753.5068, 13128.55
753.9890, 13146.50
754.4711, 13176.43
754.9532, 13171.16
755.4353, 13098.60
755.9174, 13030.60
756.3995, 13001.91
756.8817, 12998.87
757.3638, 13014.60
757.8459, 13041.46
758.3280, 13060.17
758.8101, 13059.02
759.2922, 13041.50
759.7744, 13005.44
760.2565, 12945.30
760.7386, 12929.96
761.2207, 12993.14
761.7028, 13047.46
762.1849, 13023.44
762.6671, 12953.69
763.1492, 12924.28
763.6313, 12958.42
764.1134, 12982.68
764.5955, 12971.28
765.0776, 12951.91
765.5598, 12938.80
766.0419, 12935.83
766.5240, 12952.21
767.0061, 12992.70
767.4882, 13028.95
767.9703, 13018.14
768.4525, 12969.11
768.9346, 12928.84
769.4167, 12900.12
769.8988, 12880.36
770.3809, 12867.73
770.8630, 12864.38
771.3452, 12875.95
771.8273, 12910.67
772.3094, 12936.90
772.7915, 12952.47
773.2736, 12962.53
773.7557, 12965.05
774.2379, 12965.12
774.7200, 12970.49
775.2021, 12982.60
775.6842, 12992.56
776.1663, 12993.51
776.6484, 12988.25
777.1306, 12978.94
777.6127, 12966.85
778.0948, 12955.69
778.5769, 12946.21
779.0590, 12945.95
779.5411, 12966.89
780.0233, 13009.66
780.5054, 13041.26
780.9875, 13064.64
781.4696, 13071.38
781.9517, 13040.54
782.4338, 13006.90
782.9160, 13001.72
783.3981, 13023.09
783.8802, 13041.81
784.3623, 13050.65
784.8444, 13051.12
785.3265, 13037.26
785.8087, 13018.59
786.2908, 13008.70
786.7729, 13010.30
787.2550, 13023.32
787.7371, 13052.96
788.2192, 13083.49
788.7014, 13055.98
789.1835, 12960.36
789.6656, 12910.93
790.1477, 12942.63
790.6298, 12990.58
791.1119, 13010.35
791.5941, 13005.07
792.0762, 12991.43
792.5583, 12952.72
793.0404, 12932.33
793.5225, 12950.13
794.0046, 12976.58
794.4868, 13002.03
794.9689, 13017.36
795.4510, 13003.07
795.9331, 12947.27
796.4152, 12889.40
796.8973, 12873.97
797.3795, 12887.72
797.8616, 12896.05
798.3437, 12897.13
798.8258, 12907.10
799.3079, 12935.12
799.7900, 12972.54
800.2722, 13005.49
800.7543, 13037.62
801.2364, 13048.20
801.7185, 13014.06
802.2006, 12989.96
802.6827, 12994.01
803.1649, 13015.61
803.6470, 13044.65
804.1291, 13080.13
804.6112, 13121.83
805.0933, 13177.41
805.5754, 13231.71
806.0576, 13267.41
806.5397, 13295.39
807.0218, 13336.59
807.5039, 13394.78
807.9860, 13455.29
808.4681, 13503.47
808.9503, 13545.66
809.4324, 13603.58
809.9145, 13677.97
810.3966, 13755.45
810.8787, 13838.34
811.3608, 13908.23
811.8430, 13947.24
812.3251, 13958.40
812.8072, 13965.35
813.2893, 13969.85
813.7714, 13967.69
814.2535, 13965.60
814.7357, 13950.29
815.2178, 13900.96
815.6999, 13833.07
816.1820, 13781.72
816.6641, 13760.59
817.1462, 13753.42
817.6284, 13740.39
818.1105, 13735.89
818.5926, 13777.73
819.0747, 13856.16
819.5568, 13910.73
820.0389, 13912.39
820.5211, 13890.93
821.0032, 13889.64
821.4853, 13908.46
821.9674, 13953.67
822.4495, 14040.08
822.9316, 14115.54
823.4138, 14159.24
823.8959, 14183.14
824.3780, 14197.05
824.8601, 14200.44
825.3422, 14214.85
825.8243, 14240.63
826.3065, 14280.27
826.7886, 14348.94
827.2707, 14422.79
827.7528, 14474.50
828.2349, 14504.18
828.7170, 14533.63
829.1992, 14580.64
829.6813, 14626.22
830.1633, 14636.32
830.6454, 14623.76
831.1276, 14635.57
831.6097, 14677.91
832.0918, 14712.61
832.5739, 14712.81
833.0560, 14689.69
833.5381, 14672.14
834.0203, 14657.78
834.5024, 14659.25
834.9845, 14697.90
835.4666, 14722.01
835.9487, 14684.12
836.4308, 14624.74
836.9130, 14610.17
837.3951, 14657.16
837.8772, 14676.21
838.3593, 14597.58
838.8414, 14534.25
839.3235, 14569.29
839.8057, 14657.82
840.2878, 14731.90
840.7699, 14775.46
841.2520, 14812.72
841.7341, 14857.24
842.2162, 14912.78
842.6984, 14988.85
843.1805, 15082.97
843.6626, 15179.28
844.1447, 15273.57
844.6268, 15375.89
845.1089, 15496.17
845.5911, 15630.80
846.0732, 15762.51
846.5553, 15872.77
847.0374, 16030.54
847.5195, 16274.30
848.0016, 16529.82
848.4838, 16741.06
848.9659, 16937.88
849.4480, 17177.50
849.9301, 17471.20
850.4122, 17793.46
850.8943, 18145.90
851.3765, 18517.38
851.8586, 18914.33
852.3407, 19318.87
852.8228, 19697.04
853.3049, 20040.69
853.7870, 20374.11
854.2692, 20705.01
854.7513, 21044.67
855.2334, 21424.60
855.7155, 21834.62
856.1976, 22224.33
856.6797, 22579.22
857.1619, 22923.41
857.6440, 23289.87
858.1261, 23661.09
858.6082, 23938.84
859.0903, 24082.82
859.5724, 24272.65
860.0546, 24597.06
860.5367, 24882.26
861.0188, 25026.04
861.5009, 25042.95
861.9830, 24963.12
862.4651, 24773.36
862.9473, 24521.88
863.4294, 24198.66
863.9115, 23836.75
864.3936, 23464.13
864.8757, 23062.26
865.3578, 22591.28
865.8400, 22043.36
866.3221, 21494.03
866.8042, 20997.38
867.2863, 20529.23
867.7684, 20052.91
868.2505, 19576.96
868.7327, 19128.15
869.2148, 18710.48
869.6969, 18307.61
870.1790, 17900.11
870.6611, 17498.44
871.1432, 17135.25
871.6254, 16810.70
872.1075, 16526.68
872.5896, 16291.49
873.0717, 16073.31
873.5538, 15847.32
874.0359, 15624.83
874.5181, 15439.78
875.0002, 15306.64
875.4823, 15176.66
875.9644, 15050.19
876.4465, 14927.12
876.9286, 14808.97
877.4108, 14693.34
877.8929, 14571.13
878.3750, 14442.47
878.8571, 14339.58
879.3392, 14297.91
879.8214, 14266.72
880.3035, 14202.50
880.7856, 14121.99
881.2677, 14047.44
881.7498, 13985.56
882.2319, 13942.46
882.7141, 13922.89
883.1962, 13922.05
883.6783, 13936.99
884.1604, 13964.62
884.6425, 13983.94
885.1246, 13992.17
885.6068, 14000.51
886.0889, 14014.27
886.5710, 14033.83
887.0531, 14061.67
887.5352, 14101.34
888.0173, 14127.21
888.4995, 14120.22
888.9816, 14132.38
889.4637, 14194.81
889.9458, 14272.63
890.4279, 14339.69
890.9100, 14394.26
891.3922, 14421.09
891.8743, 14386.17
892.3564, 14364.96
892.8385, 14400.48
893.3206, 14443.73
893.8027, 14447.25
894.2849, 14420.71
894.7670, 14403.93
895.2491, 14415.58
895.7312, 14425.18
896.2133, 14404.32
896.6954, 14366.47
897.1776, 14332.85
897.6597, 14301.53
898.1418, 14258.36
898.6239, 14198.69
899.1060, 14139.72
899.5881, 14102.69
900.0703, 14080.97
900.5524, 14038.41
901.0345, 13973.26
901.5166, 13931.57
901.9987, 13931.15
902.4808, 13926.93
902.9630, 13879.54
903.4451, 13800.22
903.9272, 13734.24
904.4093, 13676.79
904.8914, 13642.99
905.3735, 13661.20
905.8557, 13670.42
906.3378, 13639.81
906.8199, 13587.78
907.3020, 13536.36
907.7841, 13485.81
908.2662, 13451.44
908.7484, 13433.94
909.2305, 13436.58
909.7126, 13481.40
910.1947, 13534.40
910.6768, 13548.53
911.1589, 13528.25
911.6411, 13521.92
912.1232, 13561.01
912.6053, 13610.42
913.0874, 13633.10
913.5695, 13642.70
914.0516, 13660.79
914.5338, 13689.62
915.0159, 13732.09
915.4980, 13789.86
915.9801, 13838.45
916.4622, 13825.24
916.9443, 13767.89
917.4265, 13797.74
917.9086, 13918.95
918.3907, 14020.26
918.8728, 14067.52
919.3549, 14093.01
919.8370, 14123.98
920.3192, 14162.13
920.8013, 14217.15
921.2834, 14287.07
921.7655, 14380.95
922.2476, 14527.51
922.7297, 14662.18
923.2119, 14759.90
923.6940, 14818.63
924.1761, 14818.44
924.6582, 14733.58
925.1403, 14701.94
925.6224, 14782.72
926.1046, 14872.88
926.5867, 14939.75
927.0688, 14985.69
927.5509, 15007.82
928.0330, 15012.14
928.5151, 15025.50
928.9973, 15070.91
929.4794, 15110.62
929.9615, 15117.09
930.4436, 15102.03
930.9257, 15067.31
931.4078, 15025.29
931.8900, 15012.86
932.3721, 15045.71
932.8542, 15079.55
933.3363, 15055.74
933.8184, 14997.34
934.3005, 14965.61
934.7827, 14957.40
935.2648, 14948.42
935.7469, 14931.97
936.2290, 14912.23
936.7111, 14895.09
937.1932, 14874.00
937.6754, 14812.91
938.1575, 14700.35
938.6396, 14655.21
939.1217, 14712.11
939.6038, 14765.93
940.0859, 14759.28
940.5681, 14717.11
941.0502, 14683.74
941.5323, 14661.31
942.0144, 14637.09
942.4965, 14622.34
942.9786, 14589.93
943.4608, 14508.14
943.9429, 14428.14
944.4250, 14394.77
944.9071, 14400.48
945.3892, 14406.51
945.8713, 14407.03
946.3535, 14407.41
946.8356, 14408.57
947.3177, 14410.38
947.7998, 14412.78
948.2819, 14415.67
948.7640, 14422.85
949.2462, 14434.44
949.7283, 14431.77
950.2104, 14378.52
950.6925, 14330.78
951.1746, 14358.26
951.6567, 14416.46
952.1389, 14426.16
952.6210, 14386.04
953.1031, 14353.42
953.5852, 14363.17
954.0673, 14387.62
954.5494, 14391.53
955.0316, 14380.95
955.5137, 14369.29
955.9958, 14358.20
956.4779, 14353.28
956.9600, 14356.67
957.4421, 14354.71
957.9243, 14326.79
958.4064, 14338.15
958.8885, 14287.67
959.3706, 14340.30
959.8527, 14373.68
960.3348, 14374.90
960.8170, 14362.65
961.2991, 14348.82
961.7812, 14329.92
962.2633, 14294.73
962.7454, 14233.34
963.2275, 14202.37
963.7097, 14222.95
964.1918, 14233.29
964.6739, 14208.75
965.1560, 14171.34
965.6381, 14143.26
966.1202, 14123.57
966.6024, 14099.55
967.0845, 14077.57
967.5666, 14041.94
968.0487, 13966.05
968.5308, 13902.59
969.0129, 13894.65
969.4951, 13913.08
969.9772, 13908.81
970.4593, 13873.23
970.9414, 13833.16
971.4235, 13785.32
971.9056, 13749.41
972.3878, 13750.58
972.8699, 13758.96
973.3520, 13740.21
973.8341, 13696.30
974.3162, 13647.96
974.7983, 13599.40
975.2805, 13564.98
975.7626, 13578.44
976.2447, 13594.70
976.7268, 13544.22
977.2089, 13455.44
977.6910, 13406.65
978.1732, 13414.61
978.6553, 13420.74
979.1374, 13372.52
979.6195, 13302.09
980.1016, 13258.99
980.5837, 13236.66
981.0659, 13218.87
981.5480, 13202.63
982.0301, 13186.03
982.5122, 13167.91
982.9943, 13150.56
983.4764, 13136.17
983.9586, 13125.42
984.4407, 13126.33
984.9228, 13138.59
985.4049, 13139.51
985.8870, 13123.39
986.3691, 13093.06
986.8513, 13046.86
987.3334, 12994.93
987.8155, 12969.74
988.2976, 12975.92
988.7797, 12976.65
989.2618, 12966.81
989.7440, 12964.84
990.2261, 12983.47
990.7082, 13004.21
991.1903, 13002.90
991.6724, 12980.10
992.1545, 12960.88
992.6367, 12941.34
993.1188, 12933.63
993.6009, 12943.14
994.0830, 12959.83
994.5651, 12986.45
995.0472, 13013.25
995.5294, 13018.75
996.0115, 12998.00
996.4936, 12978.24
996.9757, 12961.57
997.4578, 12944.78
997.9399, 12918.94
998.4221, 12899.47
998.9042, 12902.14
999.3863, 12922.80
999.8684, 12944.76
1000.351, 12967.63
1000.833, 12985.33
1001.315, 13000.21
1001.797, 13005.32
1002.279, 12984.76
1002.761, 12958.42
1003.243, 12961.29
1003.725, 12991.77
1004.207, 12999.44
1004.690, 12931.07
1005.172, 12879.45
1005.654, 12918.34
1006.136, 12984.20
1006.618, 13018.05
1007.100, 13023.22
1007.582, 13023.28
1008.064, 13025.40
1008.547, 13016.73
1009.029, 12964.99
1009.511, 12919.32
1009.993, 12947.44
1010.475, 13009.05
1010.957, 13037.74
1011.439, 13029.41
1011.921, 13012.29
1012.403, 12999.35
1012.886, 12997.32
1013.368, 13027.75
1013.850, 13066.65
1014.332, 13059.33
1014.814, 13022.31
1015.296, 13019.29
1015.778, 13059.79
1016.260, 13085.67
1016.742, 13047.03
1017.225, 12991.51
1017.707, 13013.24
1018.189, 13088.64
1018.671, 13131.81
1019.153, 13139.62
1019.635, 13141.88
1020.117, 13149.53
1020.599, 13161.90
1021.082, 13178.48
1021.564, 13199.20
1022.046, 13224.14
1022.528, 13253.08
1023.010, 13290.12
1023.492, 13336.50
1023.974, 13360.04
1024.456, 13341.33
1024.938, 13308.99
1025.421, 13305.46
1025.903, 13328.67
1026.385, 13353.34
1026.867, 13380.05
1027.349, 13403.07
1027.831, 13420.89
1028.313, 13437.50
1028.795, 13456.06
1029.278, 13474.19
1029.760, 13483.00
1030.242, 13516.94
1030.724, 13505.66
1031.206, 13579.29
1031.688, 13638.14
1032.170, 13666.50
1032.652, 13670.42
1033.135, 13643.71
1033.617, 13602.25
1034.099, 13609.42
1034.581, 13685.67
1035.063, 13752.68
1035.545, 13816.46
1036.027, 13856.90
1036.509, 13857.57
1036.991, 13842.75
1037.474, 13835.33
1037.956, 13835.56
1038.438, 13846.75
1038.920, 13883.67
1039.402, 13902.04
1039.884, 13878.32
1040.366, 13865.35
1040.848, 13904.34
1041.330, 13955.34
1041.813, 13955.63
1042.295, 13901.22
1042.777, 13882.42
1043.259, 13941.10
1043.741, 13973.51
1044.223, 13944.71
1044.705, 13914.09
1045.187, 13918.60
1045.670, 13940.93
1046.152, 13952.22
1046.634, 13951.17
1047.116, 13940.79
1047.598, 13901.18
1048.080, 13879.91
1048.562, 13906.25
1049.044, 13936.90
1049.526, 13935.69
1050.009, 13916.53
1050.491, 13917.52
1050.973, 13951.71
1051.455, 13964.68
1051.937, 13903.98
1052.419, 13876.37
1052.901, 13958.05
1053.383, 14056.48
1053.865, 14089.52
1054.348, 14068.75
1054.830, 14045.50
1055.312, 14028.51
1055.794, 14010.31
1056.276, 13981.67
1056.758, 13960.30
1057.240, 13953.87
1057.722, 13959.62
1058.205, 13980.17
1058.687, 14010.62
1059.169, 14031.28
1059.651, 14027.71
1060.133, 14037.32
1060.615, 14081.26
1061.097, 14131.48
1061.579, 14183.79
1062.062, 14225.09
1062.544, 14234.26
1063.026, 14215.34
1063.508, 14202.92
1063.990, 14208.43
1064.472, 14220.58
1064.954, 14241.07
1065.436, 14260.48
1065.918, 14273.20
1066.401, 14280.16
1066.883, 14275.40
1067.365, 14262.76
1067.847, 14275.38
1068.329, 14352.68
1068.811, 14415.56
1069.293, 14411.62
1069.775, 14397.38
1070.257, 14413.64
1070.740, 14451.88
1071.222, 14499.15
1071.704, 14550.84
1072.186, 14587.62
1072.668, 14590.97
1073.150, 14591.54
1073.632, 14608.89
1074.114, 14624.66
1074.597, 14607.73
1075.079, 14583.23
1075.561, 14604.53
1076.043, 14680.59
1076.525, 14749.30
1077.007, 14787.48
1077.489, 14806.71
1077.971, 14810.47
1078.453, 14800.03
1078.936, 14754.67
1079.418, 14703.11
1079.900, 14709.64
1080.382, 14788.66
1080.864, 14854.39
1081.346, 14861.36
1081.828, 14854.05
1082.310, 14837.89
1082.792, 14833.53
1083.275, 14874.21
1083.757, 14938.42
1084.239, 14975.04
1084.721, 14970.76
1085.203, 14968.41
1085.685, 14991.88
1086.167, 15015.52
1086.649, 15034.69
1087.131, 15040.02
1087.614, 15003.96
1088.096, 14951.33
1088.578, 14941.75
1089.060, 14991.89
1089.542, 15049.93
1090.024, 15107.04
1090.506, 15152.09
1090.988, 15182.89
1091.471, 15196.42
1091.953, 15170.06
1092.435, 15128.33
1092.917, 15133.31
1093.399, 15205.00
1093.881, 15267.93
1094.363, 15300.02
1094.845, 15309.68
1095.328, 15274.27
1095.810, 15240.83
1096.292, 15266.87
1096.774, 15327.81
1097.256, 15352.54
1097.738, 15319.51
1098.220, 15298.92
1098.702, 15321.28
1099.184, 15350.38
1099.667, 15367.07
1100.149, 15386.90
1100.631, 15432.69
1101.113, 15491.46
1101.595, 15531.15
1102.077, 15545.76
1102.559, 15543.56
1103.041, 15508.64
1103.523, 15480.63
1104.006, 15478.55
1104.488, 15485.28
1104.970, 15481.45
1105.452, 15499.94
1105.934, 15493.32
1106.416, 15542.59
1106.898, 15587.38
1107.380, 15620.77
1107.863, 15649.72
1108.345, 15662.31
1108.827, 15684.25
1109.309, 15750.69
1109.791, 15837.82
1110.273, 15887.84
1110.755, 15889.06
1111.237, 15888.95
1111.719, 15887.69
1112.202, 15890.94
1112.684, 15925.39
1113.166, 15940.11
1113.648, 15871.90
1114.130, 15765.27
1114.612, 15723.81
1115.094, 15763.01
1115.576, 15802.94
1116.058, 15871.81
1116.541, 15897.35
1117.023, 15819.66
1117.505, 15753.63
1117.987, 15793.45
1118.469, 15881.56
1118.951, 15899.89
1119.433, 15836.22
1119.915, 15793.17
1120.398, 15782.27
1120.880, 15767.26
1121.362, 15737.11
1121.844, 15710.67
1122.326, 15698.45
1122.808, 15698.18
1123.290, 15709.69
1123.772, 15734.60
1124.255, 15730.49
1124.737, 15676.17
1125.219, 15664.90
1125.701, 15728.13
1126.183, 15787.10
1126.665, 15796.29
1127.147, 15822.46
1127.629, 15786.67
1128.111, 15807.96
1128.594, 15799.05
1129.076, 15750.49
1129.558, 15738.87
1130.040, 15781.35
1130.522, 15820.75
1131.004, 15828.83
1131.486, 15818.80
1131.968, 15802.96
1132.450, 15787.15
1132.933, 15804.03
1133.415, 15853.40
1133.897, 15944.82
1134.379, 16080.69
1134.861, 16138.22
1135.343, 16059.74
1135.825, 15952.68
1136.307, 15937.40
1136.790, 15980.72
1137.272, 15986.38
1137.754, 15962.61
1138.236, 15956.09
1138.718, 15969.55
1139.200, 15987.98
1139.682, 16006.22
1140.164, 16032.60
1140.646, 16078.44
1141.129, 16127.38
1141.611, 16140.22
1142.093, 16189.33
1142.575, 16176.05
1143.057, 16246.48
1143.539, 16285.73
1144.021, 16279.23
1144.503, 16254.42
1144.985, 16223.92
1145.468, 16206.28
1145.950, 16220.69
1146.432, 16264.14
1146.914, 16339.22
1147.396, 16437.15
1147.878, 16553.50
1148.360, 16677.03
1148.842, 16769.57
1149.325, 16809.96
1149.807, 16821.75
1150.289, 16816.81
1150.771, 16798.31
1151.253, 16755.31
1151.735, 16709.23
1152.217, 16687.43
1152.699, 16691.76
1153.182, 16715.50
1153.664, 16760.56
1154.146, 16801.68
1154.628, 16824.13
1155.110, 16842.25
1155.592, 16854.22
1156.074, 16873.96
1156.556, 16924.32
1157.038, 16991.39
1157.521, 17034.99
1158.003, 17042.27
1158.485, 17067.32
1158.967, 17145.07
1159.449, 17209.30
1159.931, 17228.16
1160.413, 17239.99
1160.895, 17277.33
1161.377, 17322.98
1161.860, 17344.15
1162.342, 17339.16
1162.824, 17322.84
1163.306, 17270.51
1163.788, 17253.05
1164.270, 17293.69
1164.752, 17344.59
1165.234, 17389.91
1165.717, 17425.70
1166.199, 17442.30
1166.681, 17444.02
1167.163, 17471.77
1167.645, 17533.48
1168.127, 17590.01
1168.609, 17643.22
1169.091, 17666.60
1169.573, 17643.61
1170.056, 17613.96
1170.538, 17613.97
1171.020, 17641.32
1171.502, 17703.38
1171.984, 17795.05
1172.466, 17813.74
1172.948, 17761.07
1173.430, 17771.38
1173.912, 17877.40
1174.395, 17979.05
1174.877, 18003.80
1175.359, 17999.63
1175.841, 18047.39
1176.323, 18123.97
1176.805, 18165.30
1177.287, 18182.93
1177.769, 18217.51
1178.252, 18271.49
1178.734, 18321.52
1179.216, 18357.13
1179.698, 18374.01
1180.180, 18352.60
1180.662, 18325.94
1181.144, 18323.36
1181.626, 18345.17
1182.109, 18409.81
1182.591, 18494.56
1183.073, 18536.91
1183.555, 18523.65
1184.037, 18529.45
1184.519, 18608.38
1185.001, 18695.93
1185.483, 18780.64
1185.965, 18839.19
1186.448, 18822.62
1186.930, 18785.62
1187.412, 18820.21
1187.894, 18924.36
1188.376, 18995.78
1188.858, 18988.86
1189.340, 18997.75
1189.822, 19037.63
1190.304, 19091.69
1190.787, 19172.68
1191.269, 19248.08
1191.751, 19283.33
1192.233, 19291.91
1192.715, 19318.15
1193.197, 19368.80
1193.679, 19403.17
1194.161, 19404.92
1194.644, 19445.19
1195.126, 19553.77
1195.608, 19658.77
1196.090, 19718.82
1196.572, 19738.87
1197.054, 19715.06
1197.536, 19660.26
1198.018, 19684.02
1198.500, 19782.75
1198.983, 19880.92
1199.465, 19967.70
1199.947, 20020.07
1200.429, 20029.24
1200.911, 20039.77
1201.393, 20097.50
1201.875, 20180.57
1202.357, 20256.81
1202.839, 20324.12
1203.322, 20370.47
1203.804, 20404.32
1204.286, 20451.66
1204.768, 20515.51
1205.250, 20574.10
1205.732, 20614.91
1206.214, 20649.66
1206.696, 20685.24
1207.179, 20721.67
1207.661, 20751.98
1208.143, 20787.96
1208.625, 20857.45
1209.107, 20943.99
1209.589, 20991.25
1210.071, 20978.82
1210.553, 20989.64
1211.036, 21083.10
1211.518, 21153.28
1212.000, 21134.18
1212.482, 21118.01
1212.964, 21168.18
1213.446, 21256.80
1213.928, 21343.93
1214.410, 21429.36
1214.892, 21502.43
1215.375, 21565.94
1215.857, 21606.94
1216.339, 21614.26
1216.821, 21629.51
1217.303, 21666.95
1217.785, 21718.38
1218.267, 21778.86
1218.749, 21842.41
1219.231, 21888.89
1219.714, 21951.96
1220.196, 22013.63
1220.678, 22066.20
1221.160, 22139.74
1221.642, 22195.57
1222.124, 22253.72
1222.606, 22324.92
1223.088, 22387.24
1223.571, 22404.15
1224.053, 22408.79
1224.535, 22453.93
1225.017, 22524.28
1225.499, 22605.33
1225.981, 22685.33
1226.463, 22731.60
1226.945, 22744.06
1227.427, 22786.30
1227.910, 22912.07
1228.392, 23027.11
1228.874, 23075.23
1229.356, 23101.72
1229.838, 23123.81
1230.320, 23151.17
1230.802, 23199.66
1231.284, 23261.40
1231.766, 23305.37
1232.249, 23323.33
1232.731, 23342.16
1233.213, 23355.72
1233.695, 23383.69
1234.177, 23438.01
1234.659, 23489.87
1235.141, 23514.39
1235.623, 23544.73
1236.106, 23637.64
1236.588, 23776.94
1237.070, 23849.85
1237.552, 23854.95
1238.034, 23859.60
1238.516, 23869.34
1238.998, 23915.79
1239.480, 24007.41
1239.963, 24089.04
1240.445, 24115.74
1240.927, 24187.15
1241.409, 24187.29
1241.891, 24266.93
1242.373, 24300.93
1242.855, 24311.59
1243.337, 24328.11
1243.819, 24370.78
1244.302, 24508.20
1244.784, 24761.48
1245.266, 24931.98
1245.748, 24844.01
1246.230, 24726.01
1246.712, 24659.75
1247.194, 24645.44
1247.676, 24709.70
1248.158, 24808.75
1248.641, 24885.00
1249.123, 24938.36
1249.605, 24999.91
1250.087, 25091.83
1250.569, 25137.33
1251.051, 25097.88
1251.533, 25095.27
1252.015, 25165.74
1252.498, 25265.97
1252.980, 25379.83
1253.462, 25475.83
1253.944, 25491.16
1254.426, 25444.16
1254.908, 25456.29
1255.390, 25520.40
1255.872, 25568.04
1256.354, 25594.84
1256.837, 25619.21
1257.319, 25649.27
1257.801, 25701.87
1258.283, 25798.21
1258.765, 25891.15
1259.247, 25911.62
1259.729, 25912.27
1260.211, 25956.40
1260.693, 26025.03
1261.176, 26090.54
1261.658, 26148.24
1262.140, 26198.20
1262.622, 26239.72
1263.104, 26283.25
1263.586, 26341.15
1264.068, 26388.01
1264.550, 26368.96
1265.033, 26394.61
1265.515, 26579.49
1265.997, 26785.96
1266.479, 26862.55
1266.961, 26830.91
1267.443, 26773.88
1267.925, 26673.71
1268.407, 26662.18
1268.890, 26748.74
1269.372, 26833.35
1269.854, 26894.47
1270.336, 26947.68
1270.818, 27001.59
1271.300, 27055.66
1271.782, 27113.32
1272.264, 27165.94
1272.746, 27178.42
1273.229, 27182.64
1273.711, 27258.02
1274.193, 27375.41
1274.675, 27451.99
1275.157, 27473.81
1275.639, 27477.11
1276.121, 27464.96
1276.603, 27482.16
1277.085, 27585.17
1277.568, 27678.54
1278.050, 27706.78
1278.532, 27712.68
1279.014, 27720.18
1279.496, 27737.35
1279.978, 27778.13
1280.460, 27842.24
1280.942, 27900.21
1281.425, 27950.55
1281.907, 27998.70
1282.389, 28042.46
1282.871, 28100.61
1283.353, 28182.63
1283.835, 28253.58
1284.317, 28283.72
1284.799, 28298.41
1285.281, 28348.95
1285.764, 28413.16
1286.246, 28415.50
1286.728, 28391.87
1287.210, 28434.11
1287.692, 28533.99
1288.174, 28637.34
1288.656, 28718.64
##END=



