##NAMES=Jonesite
##RRUFFID=R070735
##IDEAL CHEMISTRY=KBa_2_Ti^4+^_2_(Si_5_Al)O_18_&#183;nH_2_O
##LOCALITY=Dallas Gem Mine (Gem Mine; Benitoite Mine), New Idria District, San Benito County, California, USA
##OWNER=RRUFF
##SOURCE=Michael Scott
##DESCRIPTION=Rosettes of colorless blades associated with reddish brown neptunite
##STATUS=The identification of this mineral is confirmed by single-crystal X-ray diffraction and chemical analysis.
##URL=rruff.info/R070735
##MEASURED CHEMISTRY=(K_0.84_Na_0.16_)_Σ=1_Ba_2.00_Ti_2.00_(Si_5.00_Al_1.00_)O_18_·3.5H_2_O; H_2_O estimated by difference
80.59375, 917.5301
81.07587, 911.2109
81.55798, 938.0592
82.04010, 988.3018
82.52222, 1017.717
83.00433, 987.8526
83.48645, 945.3503
83.96857, 925.8703
84.45068, 978.3842
84.93280, 1024.741
85.41492, 1022.423
85.89703, 963.0030
86.37915, 906.7576
86.86127, 848.6542
87.34338, 816.9579
87.82550, 863.2383
88.30762, 1156.307
88.78973, 1480.130
89.27185, 1601.533
89.75397, 1396.130
90.23608, 1098.879
90.71820, 930.4732
91.20031, 881.4409
91.68243, 877.0180
92.16454, 880.6031
92.64666, 887.5339
93.12878, 886.1141
93.61089, 861.6190
94.09301, 826.9230
94.57513, 813.2807
95.05724, 823.3530
95.53936, 844.2590
96.02148, 859.0648
96.50359, 868.0536
96.98571, 880.7655
97.46783, 906.8266
97.94994, 945.2246
98.43206, 972.3034
98.91418, 979.8387
99.39629, 977.2451
99.87841, 996.5283
100.3605, 1041.370
100.8426, 1097.069
101.3248, 1152.332
101.8069, 1209.422
102.2890, 1258.778
102.7711, 1293.997
103.2532, 1312.073
103.7353, 1348.120
104.2175, 1406.517
104.6996, 1480.224
105.1817, 1558.961
105.6638, 1641.984
106.1459, 1730.149
106.6280, 1822.947
107.1102, 1918.267
107.5923, 2021.024
108.0744, 2120.934
108.5565, 2223.781
109.0386, 2363.682
109.5207, 2559.590
110.0029, 2783.296
110.4850, 3016.633
110.9671, 3267.900
111.4492, 3523.110
111.9313, 3778.708
112.4134, 4035.201
112.8956, 4302.983
113.3777, 4606.849
113.8598, 4916.693
114.3419, 5196.727
114.8240, 5408.766
115.3061, 5608.789
115.7883, 5817.417
116.2704, 6039.428
116.7525, 6274.685
117.2346, 6528.710
117.7167, 6797.653
118.1988, 7067.530
118.6810, 7334.593
119.1631, 7602.581
119.6452, 7872.581
120.1273, 8130.369
120.6094, 8403.700
121.0915, 8723.372
121.5737, 9089.895
122.0558, 9447.065
122.5379, 9797.465
123.0200, 10110.92
123.5021, 10332.98
123.9842, 10378.26
124.4664, 10341.00
124.9485, 10329.32
125.4306, 10356.81
125.9127, 10403.90
126.3948, 10460.13
126.8769, 10522.41
127.3591, 10576.08
127.8412, 10613.78
128.3233, 10635.39
128.8054, 10636.29
129.2875, 10600.20
129.7696, 10542.62
130.2518, 10497.88
130.7339, 10478.31
131.2160, 10475.75
131.6981, 10454.97
132.1802, 10417.72
132.6623, 10376.63
133.1445, 10323.90
133.6266, 10265.28
134.1087, 10245.15
134.5908, 10266.52
135.0729, 10315.20
135.5550, 10374.15
136.0372, 10444.19
136.5193, 10512.76
137.0014, 10570.54
137.4835, 10615.10
137.9656, 10673.71
138.4477, 10759.23
138.9299, 10856.03
139.4120, 10908.15
139.8941, 10905.76
140.3762, 10881.62
140.8583, 10861.54
141.3404, 10851.19
141.8226, 10828.80
142.3047, 10788.42
142.7868, 10730.19
143.2689, 10671.28
143.7510, 10609.36
144.2331, 10549.59
144.7152, 10500.91
145.1974, 10477.11
145.6795, 10442.30
146.1616, 10380.24
146.6437, 10267.19
147.1258, 10188.26
147.6079, 10159.24
148.0901, 10163.54
148.5722, 10158.25
149.0543, 10137.77
149.5364, 10112.44
150.0185, 10086.76
150.5006, 10054.57
150.9828, 10028.98
151.4649, 10016.50
151.9470, 10015.06
152.4291, 10002.04
152.9112, 9948.224
153.3933, 9897.596
153.8755, 9880.665
154.3576, 9957.453
154.8397, 10012.42
155.3218, 10013.81
155.8039, 9952.263
156.2860, 9893.348
156.7682, 9851.755
157.2503, 9818.662
157.7324, 9782.834
158.2145, 9717.096
158.6966, 9667.589
159.1787, 9663.476
159.6609, 9743.157
160.1430, 9789.136
160.6251, 9734.116
161.1072, 9617.359
161.5893, 9528.815
162.0714, 9534.956
162.5536, 9562.530
163.0357, 9561.150
163.5178, 9492.660
163.9999, 9422.466
164.4820, 9387.855
164.9641, 9382.602
165.4463, 9368.021
165.9284, 9313.725
166.4105, 9243.613
166.8926, 9183.415
167.3747, 9134.281
167.8568, 9103.326
168.3390, 9101.564
168.8211, 9130.746
169.3032, 9163.219
169.7853, 9189.629
170.2674, 9206.451
170.7495, 9207.587
171.2317, 9183.613
171.7138, 9145.656
172.1959, 9100.142
172.6780, 9042.993
173.1601, 8995.979
173.6422, 8983.576
174.1244, 8998.799
174.6065, 9018.681
175.0886, 9036.690
175.5707, 9049.483
176.0528, 9050.050
176.5349, 9030.258
177.0171, 9007.383
177.4992, 9004.121
177.9813, 9018.358
178.4634, 9032.607
178.9455, 9030.294
179.4276, 9017.521
179.9098, 9008.541
180.3919, 9009.118
180.8740, 9014.961
181.3561, 9019.130
181.8382, 9021.419
182.3203, 9023.576
182.8025, 9030.805
183.2846, 9040.733
183.7667, 9043.726
184.2488, 9029.636
184.7309, 9005.603
185.2130, 8994.641
185.6951, 8999.947
186.1773, 9007.914
186.6594, 8996.447
187.1415, 8967.732
187.6236, 8943.607
188.1057, 8941.299
188.5878, 8955.343
189.0700, 8957.400
189.5521, 8941.061
190.0342, 8917.608
190.5163, 8906.665
190.9984, 8908.218
191.4805, 8916.847
191.9627, 8934.533
192.4448, 8959.458
192.9269, 8970.805
193.4090, 8961.308
193.8911, 8937.876
194.3732, 8919.107
194.8554, 8904.388
195.3375, 8897.209
195.8196, 8905.726
196.3017, 8930.625
196.7838, 8948.213
197.2659, 8949.433
197.7481, 8937.834
198.2302, 8938.028
198.7123, 8953.742
199.1944, 8971.570
199.6765, 8972.522
200.1586, 8954.016
200.6408, 8939.672
201.1229, 8939.386
201.6050, 8953.358
202.0871, 8964.551
202.5692, 8973.293
203.0513, 8978.397
203.5335, 8969.373
204.0156, 8936.765
204.4977, 8928.631
204.9798, 8992.360
205.4619, 9149.444
205.9440, 9207.917
206.4262, 9132.240
206.9083, 8976.013
207.3904, 8876.609
207.8725, 8849.202
208.3546, 8836.428
208.8367, 8806.149
209.3189, 8754.775
209.8010, 8697.946
210.2831, 8631.200
210.7652, 8560.123
211.2473, 8511.626
211.7294, 8493.059
212.2116, 8482.968
212.6937, 8467.197
213.1758, 8446.635
213.6579, 8417.196
214.1400, 8372.770
214.6221, 8315.609
215.1043, 8283.970
215.5864, 8295.667
216.0685, 8307.398
216.5506, 8268.052
217.0327, 8147.464
217.5148, 8052.949
217.9970, 8015.005
218.4791, 8037.993
218.9612, 8046.236
219.4433, 8037.160
219.9254, 8015.426
220.4075, 7984.111
220.8897, 7934.915
221.3718, 7892.869
221.8539, 7866.591
222.3360, 7857.854
222.8181, 7854.157
223.3002, 7857.828
223.7824, 7864.931
224.2645, 7867.963
224.7466, 7864.079
225.2287, 7861.281
225.7108, 7864.137
226.1929, 7878.236
226.6750, 7882.863
227.1572, 7876.632
227.6393, 7861.567
228.1214, 7841.612
228.6035, 7813.915
229.0856, 7785.944
229.5677, 7761.049
230.0499, 7739.122
230.5320, 7720.896
231.0141, 7705.778
231.4962, 7694.351
231.9783, 7690.305
232.4604, 7700.481
232.9426, 7709.100
233.4247, 7706.018
233.9068, 7685.116
234.3889, 7664.901
234.8710, 7645.559
235.3531, 7627.597
235.8353, 7618.417
236.3174, 7627.713
236.7995, 7635.058
237.2816, 7622.592
237.7637, 7573.202
238.2458, 7537.591
238.7280, 7527.025
239.2101, 7541.049
239.6922, 7547.204
240.1743, 7536.647
240.6564, 7526.918
241.1385, 7537.464
241.6207, 7590.666
242.1028, 7623.722
242.5849, 7618.812
243.0670, 7571.858
243.5491, 7537.819
244.0313, 7518.572
244.5134, 7510.636
244.9955, 7511.413
245.4776, 7527.484
245.9597, 7540.798
246.4418, 7545.187
246.9240, 7537.682
247.4061, 7539.392
247.8882, 7554.879
248.3703, 7576.347
248.8524, 7593.316
249.3345, 7607.701
249.8167, 7614.007
250.2988, 7606.626
250.7809, 7577.219
251.2630, 7568.793
251.7451, 7592.965
252.2272, 7631.144
252.7094, 7646.904
253.1915, 7621.379
253.6736, 7605.612
254.1557, 7621.561
254.6378, 7683.819
255.1199, 7732.540
255.6021, 7765.897
256.0842, 7786.275
256.5663, 7793.990
257.0484, 7772.861
257.5305, 7767.560
258.0126, 7803.819
258.4948, 7906.893
258.9769, 7979.972
259.4590, 8011.509
259.9411, 8016.785
260.4232, 8040.702
260.9053, 8096.308
261.3875, 8147.002
261.8696, 8168.573
262.3517, 8142.452
262.8338, 8146.265
263.3159, 8190.685
263.7980, 8266.009
264.2802, 8339.080
264.7623, 8411.296
265.2444, 8479.438
265.7265, 8541.293
266.2086, 8592.885
266.6907, 8648.396
267.1729, 8710.491
267.6550, 8776.176
268.1371, 8834.652
268.6192, 8881.883
269.1013, 8929.300
269.5834, 8984.535
270.0656, 9047.944
270.5477, 9114.327
271.0298, 9184.598
271.5119, 9256.526
271.9940, 9320.877
272.4761, 9374.569
272.9583, 9427.649
273.4404, 9488.394
273.9225, 9557.840
274.4046, 9631.670
274.8867, 9716.323
275.3688, 9804.387
275.8510, 9857.990
276.3331, 9867.913
276.8152, 9870.395
277.2973, 9901.101
277.7794, 9964.778
278.2615, 10010.79
278.7437, 10026.01
279.2258, 10016.72
279.7079, 10013.56
280.1900, 10019.96
280.6721, 10019.49
281.1542, 9994.610
281.6364, 9944.315
282.1185, 9891.313
282.6006, 9838.939
283.0827, 9787.720
283.5648, 9739.485
284.0469, 9694.270
284.5291, 9652.130
285.0112, 9614.801
285.4933, 9582.032
285.9754, 9545.826
286.4575, 9499.524
286.9396, 9449.421
287.4217, 9422.641
287.9038, 9421.729
288.3860, 9424.195
288.8681, 9407.087
289.3502, 9372.172
289.8323, 9334.003
290.3144, 9289.086
290.7965, 9246.493
291.2787, 9239.870
291.7608, 9272.075
292.2429, 9308.536
292.7250, 9308.736
293.2071, 9281.213
293.6892, 9269.228
294.1714, 9299.037
294.6535, 9348.421
295.1356, 9366.316
295.6177, 9351.933
296.0998, 9329.190
296.5819, 9317.896
297.0641, 9316.288
297.5462, 9318.785
298.0283, 9330.068
298.5104, 9341.052
298.9925, 9332.319
299.4746, 9303.624
299.9568, 9274.331
300.4389, 9265.112
300.9210, 9268.077
301.4031, 9264.655
301.8852, 9242.696
302.3673, 9213.768
302.8495, 9193.459
303.3316, 9181.593
303.8137, 9169.218
304.2958, 9146.738
304.7779, 9118.797
305.2600, 9094.183
305.7422, 9075.354
306.2243, 9061.712
306.7064, 9052.213
307.1885, 9046.877
307.6706, 9047.688
308.1527, 9058.220
308.6349, 9075.396
309.1170, 9094.708
309.5991, 9124.926
310.0812, 9149.629
310.5633, 9149.411
311.0454, 9126.258
311.5276, 9112.291
312.0097, 9133.001
312.4918, 9171.200
312.9739, 9208.046
313.4560, 9240.329
313.9381, 9266.566
314.4203, 9281.353
314.9024, 9286.091
315.3845, 9295.522
315.8666, 9326.635
316.3487, 9361.388
316.8308, 9382.727
317.3130, 9386.811
317.7951, 9375.230
318.2772, 9342.689
318.7593, 9290.904
319.2414, 9239.547
319.7235, 9198.320
320.2057, 9158.550
320.6878, 9113.392
321.1699, 9054.048
321.6520, 8996.471
322.1341, 8946.209
322.6162, 8902.494
323.0984, 8858.757
323.5805, 8802.574
324.0626, 8752.716
324.5447, 8721.859
325.0268, 8727.414
325.5089, 8734.854
325.9911, 8741.494
326.4732, 8746.900
326.9553, 8748.296
327.4374, 8744.351
327.9195, 8736.749
328.4016, 8726.200
328.8838, 8701.783
329.3659, 8687.438
329.8480, 8682.849
330.3301, 8688.585
330.8122, 8709.810
331.2943, 8764.686
331.7765, 8816.984
332.2586, 8845.354
332.7407, 8833.660
333.2228, 8827.385
333.7049, 8831.523
334.1870, 8843.298
334.6692, 8849.605
335.1513, 8844.144
335.6334, 8843.885
336.1155, 8860.968
336.5976, 8904.406
337.0797, 8936.530
337.5619, 8951.465
338.0440, 8955.287
338.5261, 8965.344
339.0082, 8983.251
339.4903, 9002.007
339.9724, 9017.144
340.4546, 9028.164
340.9367, 9041.553
341.4188, 9060.483
341.9009, 9078.723
342.3830, 9077.446
342.8651, 9053.653
343.3473, 9039.703
343.8294, 9058.536
344.3115, 9107.686
344.7936, 9150.101
345.2757, 9183.332
345.7578, 9212.580
346.2400, 9248.122
346.7221, 9289.082
347.2042, 9326.709
347.6863, 9348.088
348.1684, 9361.868
348.6505, 9399.971
349.1327, 9467.201
349.6148, 9543.156
350.0969, 9604.226
350.5790, 9652.908
351.0611, 9699.707
351.5432, 9741.737
352.0254, 9786.811
352.5075, 9859.258
352.9896, 9963.517
353.4717, 10052.15
353.9538, 10067.05
354.4359, 10035.08
354.9181, 10008.30
355.4002, 10022.96
355.8823, 10044.77
356.3644, 10037.05
356.8465, 9999.195
357.3286, 9964.453
357.8108, 9957.553
358.2929, 9965.916
358.7750, 9972.745
359.2571, 9984.280
359.7392, 9982.544
360.2213, 9946.960
360.7035, 9880.446
361.1856, 9826.083
361.6677, 9805.347
362.1498, 9803.815
362.6319, 9808.640
363.1140, 9821.602
363.5962, 9835.045
364.0783, 9854.569
364.5604, 9876.684
365.0425, 9877.541
365.5246, 9833.771
366.0067, 9778.288
366.4889, 9731.513
366.9710, 9704.800
367.4531, 9676.162
367.9352, 9649.804
368.4173, 9622.129
368.8994, 9576.291
369.3815, 9490.149
369.8636, 9405.401
370.3458, 9341.258
370.8279, 9310.430
371.3100, 9277.642
371.7921, 9242.315
372.2742, 9204.928
372.7563, 9166.858
373.2385, 9130.104
373.7206, 9089.674
374.2027, 9043.289
374.6848, 8989.738
375.1669, 8935.045
375.6490, 8876.643
376.1312, 8819.715
376.6133, 8773.795
377.0954, 8741.936
377.5775, 8708.238
378.0596, 8663.889
378.5417, 8610.198
379.0239, 8565.263
379.5060, 8531.126
379.9881, 8500.967
380.4702, 8464.146
380.9523, 8420.905
381.4344, 8387.725
381.9166, 8377.194
382.3987, 8379.202
382.8808, 8359.291
383.3629, 8316.438
383.8450, 8268.635
384.3271, 8226.955
384.8093, 8193.276
385.2914, 8175.853
385.7735, 8183.688
386.2556, 8202.601
386.7377, 8218.315
387.2198, 8229.931
387.7020, 8230.702
388.1841, 8208.892
388.6662, 8175.635
389.1483, 8143.821
389.6304, 8111.030
390.1125, 8090.522
390.5947, 8102.433
391.0768, 8137.050
391.5589, 8163.324
392.0410, 8166.130
392.5231, 8154.670
393.0052, 8130.347
393.4874, 8080.524
393.9695, 8050.608
394.4516, 8078.155
394.9337, 8135.221
395.4158, 8170.702
395.8979, 8145.156
396.3801, 8116.458
396.8622, 8108.536
397.3443, 8128.791
397.8264, 8149.553
398.3085, 8170.753
398.7906, 8189.091
399.2728, 8200.560
399.7549, 8213.572
400.2370, 8209.986
400.7191, 8177.893
401.2012, 8113.923
401.6833, 8073.888
402.1655, 8065.935
402.6476, 8074.542
403.1297, 8087.388
403.6118, 8104.830
404.0939, 8127.200
404.5760, 8159.545
405.0582, 8197.294
405.5403, 8209.680
406.0224, 8187.189
406.5045, 8166.520
406.9866, 8176.020
407.4688, 8217.515
407.9509, 8256.999
408.4330, 8291.128
408.9151, 8321.393
409.3972, 8348.328
409.8793, 8371.783
410.3615, 8400.691
410.8436, 8444.769
411.3257, 8499.247
411.8078, 8543.729
412.2899, 8574.246
412.7720, 8608.463
413.2542, 8684.579
413.7363, 8784.356
414.2184, 8854.646
414.7005, 8832.918
415.1826, 8786.865
415.6647, 8806.661
416.1469, 8895.472
416.6290, 8980.159
417.1111, 9009.216
417.5932, 9001.591
418.0753, 8981.536
418.5574, 8955.640
419.0396, 8920.828
419.5217, 8872.913
420.0038, 8813.421
420.4859, 8749.807
420.9680, 8683.397
421.4501, 8615.120
421.9323, 8546.843
422.4144, 8468.733
422.8965, 8403.287
423.3786, 8361.280
423.8607, 8335.601
424.3428, 8304.946
424.8250, 8255.744
425.3071, 8212.043
425.7892, 8185.281
426.2713, 8187.821
426.7534, 8172.853
427.2355, 8132.709
427.7177, 8079.627
428.1998, 8027.045
428.6819, 7960.188
429.1640, 7928.087
429.6461, 7959.908
430.1282, 8052.817
430.6104, 8091.744
431.0925, 8065.777
431.5746, 8012.810
432.0567, 7960.826
432.5388, 7909.098
433.0209, 7883.952
433.5031, 7899.045
433.9852, 7937.610
434.4673, 7962.881
434.9494, 7974.963
435.4315, 7973.466
435.9136, 7945.353
436.3958, 7903.713
436.8779, 7887.931
437.3600, 7913.938
437.8421, 7938.233
438.3242, 7899.982
438.8063, 7818.944
439.2885, 7750.341
439.7706, 7731.215
440.2527, 7732.455
440.7348, 7730.587
441.2169, 7723.975
441.6990, 7711.113
442.1812, 7676.487
442.6633, 7639.785
443.1454, 7623.962
443.6275, 7668.922
444.1096, 7703.996
444.5917, 7694.122
445.0739, 7642.862
445.5560, 7607.687
446.0381, 7608.291
446.5202, 7622.699
447.0023, 7638.177
447.4844, 7664.120
447.9666, 7678.241
448.4487, 7679.661
448.9308, 7669.454
449.4129, 7648.360
449.8950, 7607.651
450.3771, 7571.433
450.8593, 7550.162
451.3413, 7546.668
451.8235, 7542.926
452.3056, 7538.386
452.7877, 7534.558
453.2698, 7534.048
453.7519, 7537.202
454.2340, 7539.512
454.7162, 7539.040
455.1983, 7536.801
455.6804, 7536.715
456.1625, 7538.854
456.6446, 7541.233
457.1267, 7542.258
457.6089, 7542.171
458.0910, 7542.065
458.5731, 7543.006
459.0552, 7542.463
459.5373, 7535.881
460.0194, 7524.956
460.5016, 7515.107
460.9837, 7513.127
461.4658, 7511.593
461.9479, 7501.466
462.4300, 7479.333
462.9121, 7462.495
463.3943, 7466.599
463.8764, 7479.410
464.3585, 7485.061
464.8406, 7468.147
465.3227, 7453.829
465.8048, 7452.688
466.2870, 7464.851
466.7691, 7472.581
467.2512, 7475.571
467.7333, 7472.286
468.2154, 7460.652
468.6975, 7422.688
469.1797, 7406.425
469.6618, 7423.528
470.1439, 7461.026
470.6260, 7486.647
471.1081, 7501.351
471.5902, 7501.329
472.0724, 7476.898
472.5545, 7424.810
473.0366, 7403.805
473.5187, 7421.239
474.0008, 7449.577
474.4829, 7450.616
474.9651, 7427.372
475.4472, 7416.836
475.9293, 7437.679
476.4114, 7473.275
476.8935, 7487.723
477.3756, 7482.538
477.8578, 7476.696
478.3399, 7489.798
478.8220, 7509.546
479.3041, 7516.329
479.7862, 7502.563
480.2683, 7485.218
480.7505, 7472.419
481.2326, 7465.538
481.7147, 7467.226
482.1968, 7489.226
482.6789, 7511.020
483.1610, 7519.954
483.6432, 7513.206
484.1253, 7509.392
484.6074, 7517.240
485.0895, 7527.540
485.5716, 7532.341
486.0537, 7518.801
486.5359, 7514.296
487.0180, 7527.860
487.5001, 7553.576
487.9822, 7562.862
488.4643, 7546.945
488.9464, 7529.011
489.4286, 7518.206
489.9107, 7513.555
490.3928, 7526.537
490.8749, 7566.332
491.3570, 7608.002
491.8391, 7605.076
492.3213, 7557.999
492.8034, 7529.256
493.2855, 7551.390
493.7676, 7603.356
494.2497, 7629.307
494.7318, 7629.725
495.2140, 7631.957
495.6961, 7666.186
496.1782, 7715.792
496.6603, 7749.799
497.1424, 7758.000
497.6245, 7758.846
498.1067, 7763.825
498.5888, 7772.371
499.0709, 7783.290
499.5530, 7798.910
500.0351, 7814.046
500.5172, 7827.205
500.9994, 7838.382
501.4815, 7842.578
501.9636, 7834.998
502.4457, 7821.523
502.9278, 7807.549
503.4099, 7797.059
503.8921, 7781.305
504.3742, 7757.743
504.8563, 7728.457
505.3384, 7701.696
505.8205, 7679.026
506.3026, 7656.854
506.7848, 7633.521
507.2669, 7608.721
507.7490, 7587.550
508.2311, 7573.284
508.7132, 7555.481
509.1953, 7514.937
509.6775, 7454.060
510.1596, 7398.185
510.6417, 7356.591
511.1238, 7324.618
511.6059, 7290.763
512.0880, 7255.745
512.5701, 7231.020
513.0522, 7241.192
513.5344, 7259.312
514.0165, 7247.330
514.4986, 7188.741
514.9807, 7128.437
515.4628, 7095.448
515.9449, 7079.357
516.4271, 7062.878
516.9092, 7043.839
517.3913, 7020.102
517.8734, 6987.893
518.3555, 6946.793
518.8376, 6912.475
519.3198, 6876.745
519.8019, 6855.921
520.2840, 6861.989
520.7661, 6914.172
521.2482, 6956.217
521.7303, 6988.309
522.2125, 7007.472
522.6946, 7000.328
523.1767, 6957.926
523.6588, 6926.514
524.1409, 6926.431
524.6230, 6954.369
525.1052, 6991.216
525.5873, 7038.944
526.0694, 7080.128
526.5515, 7090.881
527.0336, 7080.732
527.5157, 7077.274
527.9979, 7089.629
528.4800, 7106.675
528.9621, 7118.847
529.4442, 7126.274
529.9263, 7129.699
530.4084, 7124.785
530.8906, 7119.221
531.3727, 7119.971
531.8548, 7128.766
532.3369, 7132.984
532.8190, 7130.184
533.3011, 7119.853
533.7833, 7101.587
534.2654, 7051.737
534.7475, 7022.544
535.2296, 7028.517
535.7117, 7058.916
536.1938, 7076.225
536.6760, 7077.439
537.1581, 7071.881
537.6402, 7062.704
538.1223, 7049.858
538.6044, 7031.943
539.0865, 7004.542
539.5687, 6984.853
540.0508, 7002.685
540.5329, 7051.911
541.0150, 7082.533
541.4971, 7070.392
541.9792, 7048.340
542.4614, 7080.325
542.9435, 7153.866
543.4256, 7210.646
543.9077, 7203.177
544.3898, 7169.380
544.8719, 7140.681
545.3541, 7118.892
545.8362, 7113.612
546.3183, 7142.659
546.8004, 7185.166
547.2825, 7218.618
547.7646, 7232.587
548.2468, 7242.264
548.7289, 7244.186
549.2110, 7242.398
549.6931, 7255.081
550.1752, 7294.778
550.6573, 7331.826
551.1395, 7355.392
551.6216, 7364.857
552.1037, 7361.303
552.5858, 7340.231
553.0679, 7316.078
553.5500, 7304.467
554.0322, 7305.327
554.5143, 7315.918
554.9964, 7342.415
555.4785, 7369.955
555.9606, 7367.970
556.4427, 7340.552
556.9249, 7309.438
557.4070, 7279.089
557.8891, 7256.535
558.3712, 7255.180
558.8533, 7278.877
559.3354, 7296.369
559.8176, 7280.301
560.2997, 7253.484
560.7818, 7239.289
561.2639, 7253.130
561.7460, 7269.406
562.2281, 7292.940
562.7103, 7316.574
563.1924, 7313.552
563.6745, 7261.085
564.1566, 7212.265
564.6387, 7188.207
565.1208, 7192.073
565.6030, 7188.721
566.0851, 7176.907
566.5672, 7161.318
567.0493, 7143.850
567.5314, 7125.273
568.0135, 7114.658
568.4957, 7114.647
568.9778, 7122.101
569.4599, 7136.969
569.9420, 7156.592
570.4241, 7168.910
570.9063, 7166.723
571.3884, 7154.661
571.8705, 7132.834
572.3526, 7101.631
572.8347, 7076.469
573.3168, 7062.368
573.7990, 7059.666
574.2811, 7069.346
574.7632, 7101.490
575.2453, 7132.035
575.7274, 7164.100
576.2095, 7191.316
576.6917, 7199.268
577.1738, 7174.766
577.6559, 7152.838
578.1380, 7145.263
578.6201, 7150.592
579.1022, 7142.489
579.5844, 7116.229
580.0665, 7093.854
580.5486, 7097.570
581.0307, 7122.937
581.5128, 7137.056
581.9949, 7134.146
582.4771, 7126.863
582.9592, 7128.226
583.4413, 7137.378
583.9234, 7152.189
584.4055, 7172.181
584.8876, 7197.238
585.3698, 7234.989
585.8519, 7281.045
586.3340, 7312.327
586.8161, 7311.244
587.2982, 7298.096
587.7803, 7280.983
588.2625, 7251.988
588.7446, 7243.010
589.2267, 7267.370
589.7088, 7303.789
590.1909, 7329.249
590.6730, 7338.712
591.1552, 7350.377
591.6373, 7367.827
592.1194, 7388.935
592.6015, 7409.609
593.0836, 7430.258
593.5657, 7443.421
594.0479, 7431.414
594.5300, 7410.018
595.0121, 7431.261
595.4942, 7497.550
595.9763, 7560.180
596.4584, 7576.389
596.9406, 7564.984
597.4227, 7549.154
597.9048, 7527.601
598.3869, 7515.083
598.8690, 7530.791
599.3511, 7558.835
599.8333, 7568.666
600.3154, 7536.286
600.7975, 7503.275
601.2796, 7482.327
601.7617, 7473.078
602.2438, 7456.233
602.7260, 7428.498
603.2081, 7399.495
603.6902, 7374.576
604.1723, 7353.544
604.6544, 7342.703
605.1365, 7347.346
605.6187, 7347.713
606.1008, 7307.220
606.5829, 7236.667
607.0650, 7183.238
607.5471, 7177.017
608.0292, 7177.365
608.5114, 7124.927
608.9935, 7035.638
609.4756, 6964.923
609.9577, 6960.167
610.4398, 6970.152
610.9219, 6961.452
611.4041, 6926.858
611.8862, 6904.229
612.3683, 6924.764
612.8504, 6944.261
613.3325, 6926.982
613.8146, 6840.104
614.2968, 6781.926
614.7789, 6767.078
615.2610, 6774.180
615.7431, 6761.688
616.2252, 6727.906
616.7073, 6692.463
617.1895, 6663.166
617.6716, 6636.988
618.1537, 6600.772
618.6358, 6555.774
619.1179, 6523.558
619.6000, 6535.307
620.0822, 6561.229
620.5643, 6562.451
621.0464, 6530.498
621.5285, 6495.678
622.0106, 6478.304
622.4927, 6465.434
622.9749, 6443.297
623.4570, 6371.293
623.9391, 6335.697
624.4212, 6380.301
624.9033, 6466.244
625.3854, 6491.059
625.8676, 6429.773
626.3497, 6361.345
626.8318, 6309.028
627.3139, 6272.385
627.7960, 6243.094
628.2781, 6218.839
628.7603, 6220.501
629.2424, 6303.344
629.7245, 6423.441
630.2066, 6458.655
630.6887, 6381.591
631.1708, 6274.842
631.6530, 6189.269
632.1351, 6127.318
632.6172, 6092.580
633.0993, 6099.281
633.5814, 6120.564
634.0635, 6168.729
634.5457, 6228.755
635.0278, 6242.315
635.5099, 6157.290
635.9920, 6077.492
636.4741, 6035.744
636.9562, 6034.063
637.4384, 6032.447
637.9205, 6030.285
638.4026, 6029.650
638.8847, 6035.909
639.3668, 6047.328
639.8489, 6046.444
640.3311, 6029.895
640.8132, 6006.010
641.2953, 5975.494
641.7774, 5945.423
642.2595, 5931.046
642.7416, 5952.889
643.2238, 5977.475
643.7059, 5982.774
644.1880, 5973.137
644.6701, 5963.486
645.1522, 5965.146
645.6343, 5961.734
646.1165, 5940.496
646.5986, 5897.246
647.0807, 5879.902
647.5628, 5902.354
648.0449, 5930.338
648.5270, 5936.854
649.0092, 5919.920
649.4913, 5907.699
649.9734, 5901.973
650.4555, 5901.821
650.9376, 5907.589
651.4197, 5918.138
651.9019, 5929.651
652.3840, 5943.690
652.8661, 5954.554
653.3482, 5954.128
653.8303, 5945.506
654.3124, 5938.288
654.7946, 5939.988
655.2767, 5940.735
655.7588, 5932.981
656.2409, 5914.753
656.7230, 5906.690
657.2051, 5917.870
657.6872, 5930.112
658.1693, 5930.947
658.6514, 5915.697
659.1335, 5910.334
659.6157, 5915.983
660.0978, 5930.898
660.5799, 5960.587
661.0620, 6000.710
661.5441, 6023.510
662.0262, 6015.258
662.5084, 5997.304
662.9905, 5993.713
663.4726, 6001.214
663.9547, 6010.904
664.4368, 6019.869
664.9189, 6028.419
665.4011, 6036.856
665.8832, 6044.996
666.3653, 6051.547
666.8474, 6051.767
667.3295, 6053.965
667.8116, 6063.743
668.2938, 6085.451
668.7759, 6093.500
669.2580, 6084.400
669.7401, 6069.564
670.2222, 6064.466
670.7043, 6067.245
671.1865, 6055.871
671.6686, 6022.729
672.1507, 5984.179
672.6328, 5962.181
673.1149, 5950.688
673.5970, 5935.425
674.0792, 5904.050
674.5613, 5872.767
675.0434, 5855.154
675.5255, 5847.491
676.0076, 5829.363
676.4897, 5781.299
676.9719, 5736.039
677.4540, 5706.928
677.9361, 5696.112
678.4182, 5676.617
678.9003, 5643.334
679.3824, 5611.494
679.8646, 5600.045
680.3467, 5605.845
680.8288, 5587.254
681.3109, 5535.949
681.7930, 5478.778
682.2751, 5445.906
682.7573, 5429.745
683.2394, 5414.366
683.7215, 5395.716
684.2036, 5375.670
684.6857, 5355.174
685.1678, 5334.222
685.6500, 5312.128
686.1321, 5291.617
686.6142, 5266.958
687.0963, 5232.263
687.5784, 5190.252
688.0605, 5164.482
688.5427, 5159.486
689.0248, 5159.487
689.5069, 5162.385
689.9890, 5165.952
690.4711, 5135.937
690.9532, 5068.251
691.4354, 5010.205
691.9175, 5019.435
692.3996, 5063.230
692.8817, 5089.002
693.3638, 5083.522
693.8459, 5068.260
694.3281, 5045.587
694.8102, 5023.728
695.2923, 5013.832
695.7744, 5031.371
696.2565, 5045.021
696.7386, 5054.571
697.2208, 5057.018
697.7029, 5039.948
698.1850, 4994.643
698.6671, 4961.339
699.1492, 4959.835
699.6313, 4979.589
700.1135, 4982.356
700.5956, 4969.042
701.0777, 4955.972
701.5598, 4956.904
702.0419, 4962.935
702.5240, 4960.685
703.0062, 4948.486
703.4883, 4942.649
703.9704, 4957.468
704.4525, 4977.844
704.9346, 4992.773
705.4167, 5003.763
705.8989, 5001.916
706.3810, 4975.075
706.8631, 4946.065
707.3452, 4947.447
707.8273, 4985.838
708.3094, 5008.538
708.7916, 5000.724
709.2737, 4982.569
709.7558, 4991.055
710.2379, 5021.655
710.7200, 5056.552
711.2021, 5108.756
711.6843, 5145.378
712.1664, 5122.284
712.6485, 5053.599
713.1306, 4999.733
713.6127, 4996.295
714.0948, 5001.098
714.5770, 4994.954
715.0591, 4976.490
715.5412, 4963.913
716.0233, 4961.433
716.5054, 4957.498
716.9875, 4938.167
717.4697, 4903.836
717.9518, 4897.839
718.4339, 4925.276
718.9160, 4961.111
719.3981, 4975.086
719.8802, 4979.002
720.3624, 5001.177
720.8445, 5066.791
721.3266, 5107.548
721.8087, 5054.064
722.2908, 4957.020
722.7729, 4890.704
723.2551, 4884.689
723.7372, 4894.420
724.2193, 4922.707
724.7014, 4959.622
725.1835, 4974.822
725.6656, 4962.741
726.1478, 4951.177
726.6299, 4949.191
727.1120, 4955.081
727.5941, 4965.874
728.0762, 4981.048
728.5583, 4995.349
729.0405, 5004.715
729.5226, 5011.942
730.0047, 5020.043
730.4868, 5029.265
730.9689, 5038.229
731.4510, 5048.804
731.9332, 5057.477
732.4153, 5061.042
732.8974, 5056.084
733.3795, 5057.331
733.8616, 5067.097
734.3438, 5079.712
734.8259, 5088.989
735.3080, 5095.078
735.7901, 5104.724
736.2722, 5119.798
736.7543, 5135.303
737.2365, 5140.437
737.7186, 5141.567
738.2007, 5152.355
738.6828, 5187.920
739.1649, 5220.660
739.6470, 5228.068
740.1292, 5222.501
740.6113, 5232.487
741.0934, 5275.780
741.5755, 5319.646
742.0576, 5359.652
742.5397, 5395.362
743.0219, 5423.415
743.5040, 5443.249
743.9861, 5458.925
744.4682, 5470.730
744.9503, 5480.239
745.4324, 5492.445
745.9146, 5507.067
746.3967, 5520.858
746.8788, 5527.573
747.3609, 5535.020
747.8430, 5554.008
748.3251, 5588.858
748.8073, 5608.929
749.2894, 5597.054
749.7715, 5575.839
750.2536, 5558.798
750.7357, 5546.295
751.2178, 5537.136
751.7000, 5532.517
752.1821, 5528.403
752.6642, 5519.319
753.1463, 5506.397
753.6284, 5496.048
754.1105, 5490.542
754.5927, 5483.965
755.0748, 5468.270
755.5569, 5448.033
756.0390, 5430.118
756.5211, 5391.941
757.0032, 5385.291
757.4854, 5473.119
757.9675, 5596.313
758.4496, 5612.835
758.9317, 5457.067
759.4138, 5340.318
759.8959, 5323.287
760.3781, 5372.189
760.8602, 5383.174
761.3423, 5358.525
761.8244, 5332.618
762.3065, 5321.047
762.7886, 5320.232
763.2708, 5324.057
763.7529, 5333.667
764.2350, 5355.987
764.7171, 5415.371
765.1992, 5470.201
765.6813, 5497.284
766.1635, 5492.585
766.6456, 5476.766
767.1277, 5434.005
767.6098, 5405.606
768.0919, 5433.830
768.5740, 5517.546
769.0562, 5535.159
769.5383, 5479.267
770.0204, 5408.629
770.5025, 5372.560
770.9846, 5359.819
771.4667, 5349.077
771.9489, 5331.432
772.4310, 5339.857
772.9131, 5427.216
773.3952, 5530.703
773.8773, 5586.127
774.3594, 5559.282
774.8416, 5524.751
775.3237, 5472.763
775.8058, 5425.220
776.2879, 5420.931
776.7700, 5460.363
777.2521, 5474.364
777.7343, 5440.516
778.2164, 5393.509
778.6985, 5378.748
779.1806, 5388.632
779.6627, 5405.457
780.1448, 5419.038
780.6270, 5440.745
781.1091, 5486.478
781.5912, 5545.022
782.0733, 5581.731
782.5554, 5589.285
783.0375, 5583.737
783.5197, 5561.827
784.0018, 5531.241
784.4839, 5521.940
784.9660, 5534.318
785.4481, 5552.565
785.9302, 5570.571
786.4124, 5588.730
786.8945, 5612.209
787.3766, 5638.243
787.8587, 5651.220
788.3408, 5640.224
788.8229, 5616.159
789.3051, 5574.175
789.7872, 5511.567
790.2693, 5490.061
790.7514, 5528.300
791.2335, 5580.364
791.7156, 5632.064
792.1978, 5683.129
792.6799, 5685.212
793.1620, 5635.845
793.6441, 5575.412
794.1262, 5528.772
794.6083, 5496.667
795.0905, 5482.650
795.5726, 5488.014
796.0547, 5499.278
796.5368, 5510.239
797.0189, 5523.943
797.5010, 5543.721
797.9832, 5574.626
798.4653, 5598.233
798.9474, 5611.849
799.4295, 5622.248
799.9116, 5632.041
800.3937, 5642.358
800.8759, 5672.452
801.3580, 5727.811
801.8401, 5788.940
802.3222, 5835.536
802.8043, 5874.324
803.2864, 5914.380
803.7686, 5952.989
804.2507, 6002.794
804.7328, 6059.199
805.2149, 6134.157
805.6970, 6248.354
806.1791, 6432.006
806.6613, 6575.939
807.1434, 6662.948
807.6255, 6711.572
808.1076, 6741.320
808.5897, 6756.985
809.0718, 6789.628
809.5540, 6857.570
810.0361, 6930.704
810.5182, 6987.981
811.0003, 7027.963
811.4824, 7047.936
811.9645, 7038.918
812.4467, 7019.034
812.9288, 6993.127
813.4109, 6959.686
813.8930, 6917.875
814.3751, 6872.396
814.8572, 6794.349
815.3394, 6656.788
815.8215, 6499.300
816.3036, 6413.455
816.7857, 6389.196
817.2678, 6381.981
817.7499, 6372.992
818.2321, 6368.769
818.7142, 6376.970
819.1963, 6394.785
819.6784, 6409.186
820.1605, 6412.240
820.6426, 6417.458
821.1248, 6426.671
821.6068, 6440.465
822.0889, 6449.069
822.5710, 6446.985
823.0532, 6501.988
823.5353, 6723.879
824.0174, 6996.546
824.4995, 7075.818
824.9816, 6992.620
825.4637, 6944.000
825.9459, 7116.244
826.4280, 7281.403
826.9101, 7293.675
827.3922, 7138.634
827.8743, 7035.722
828.3564, 6995.721
828.8386, 6992.807
829.3207, 7025.865
829.8028, 7088.331
830.2849, 7133.055
830.7670, 7159.808
831.2491, 7175.928
831.7313, 7183.729
832.2134, 7185.191
832.6955, 7178.853
833.1776, 7164.939
833.6597, 7158.588
834.1418, 7172.192
834.6240, 7188.288
835.1061, 7197.585
835.5882, 7199.368
836.0703, 7204.455
836.5524, 7215.135
837.0345, 7220.815
837.5167, 7205.543
837.9988, 7179.817
838.4809, 7176.017
838.9630, 7195.609
839.4451, 7222.455
839.9272, 7252.419
840.4094, 7280.160
840.8915, 7294.510
841.3736, 7283.657
841.8557, 7312.471
842.3378, 7396.862
842.8199, 7503.185
843.3021, 7615.537
843.7842, 7734.714
844.2663, 7834.352
844.7484, 7911.865
845.2305, 7998.631
845.7126, 8115.778
846.1948, 8262.177
846.6769, 8442.175
847.1590, 8660.366
847.6411, 8881.535
848.1232, 9070.231
848.6053, 9275.796
849.0875, 9534.884
849.5696, 9859.605
850.0517, 10193.29
850.5338, 10542.90
851.0159, 10884.39
851.4980, 11179.88
851.9802, 11445.67
852.4623, 11738.07
852.9444, 12062.13
853.4265, 12416.49
853.9086, 12811.03
854.3907, 13224.21
854.8729, 13637.15
855.3550, 14042.05
855.8371, 14453.57
856.3192, 14888.52
856.8013, 15314.75
857.2834, 15699.32
857.7656, 16042.99
858.2477, 16397.97
858.7298, 16770.16
859.2119, 17108.34
859.6940, 17341.66
860.1761, 17521.22
860.6583, 17739.36
861.1404, 18036.47
861.6225, 18214.34
862.1046, 18167.61
862.5867, 17988.09
863.0688, 17753.13
863.5510, 17460.17
864.0331, 17109.54
864.5152, 16696.09
864.9973, 16232.38
865.4794, 15712.35
865.9615, 15147.73
866.4437, 14549.34
866.9258, 13913.25
867.4079, 13315.20
867.8900, 12818.46
868.3721, 12365.96
868.8542, 11909.81
869.3364, 11432.16
869.8185, 10970.69
870.3006, 10520.25
870.7827, 10104.14
871.2648, 9757.027
871.7469, 9474.340
872.2291, 9187.628
872.7112, 8893.803
873.1933, 8615.322
873.6754, 8364.502
874.1575, 8144.596
874.6396, 7956.319
875.1218, 7804.288
875.6039, 7665.443
876.0860, 7535.479
876.5681, 7416.281
877.0502, 7310.622
877.5323, 7219.694
878.0145, 7130.757
878.4966, 7043.899
878.9787, 6957.639
879.4608, 6861.650
879.9429, 6768.858
880.4250, 6705.185
880.9072, 6673.490
881.3893, 6643.657
881.8714, 6591.998
882.3535, 6545.483
882.8356, 6521.910
883.3177, 6522.731
883.7999, 6533.394
884.2820, 6557.030
884.7641, 6581.046
885.2462, 6589.534
885.7283, 6592.249
886.2104, 6624.545
886.6926, 6685.673
887.1747, 6745.995
887.6568, 6783.664
888.1389, 6815.556
888.6210, 6851.435
889.1031, 6891.810
889.5853, 6943.984
890.0674, 7013.820
890.5495, 7083.754
891.0316, 7146.082
891.5137, 7201.530
891.9958, 7252.478
892.4780, 7299.336
892.9601, 7340.904
893.4422, 7380.559
893.9243, 7411.501
894.4064, 7426.292
894.8885, 7425.274
895.3707, 7417.167
895.8528, 7392.388
896.3349, 7375.293
896.8170, 7382.100
897.2991, 7403.489
897.7813, 7385.104
898.2634, 7326.988
898.7455, 7250.409
899.2276, 7149.227
899.7097, 7048.323
900.1918, 6984.462
900.6740, 6949.912
901.1561, 6915.431
901.6382, 6874.043
902.1203, 6827.265
902.6024, 6773.753
903.0845, 6715.964
903.5667, 6661.911
904.0488, 6610.657
904.5309, 6569.251
905.0130, 6527.334
905.4951, 6512.617
905.9772, 6608.941
906.4594, 6769.220
906.9415, 6870.636
907.4236, 6841.892
907.9057, 6768.815
908.3878, 6643.013
908.8699, 6502.077
909.3521, 6420.333
909.8342, 6405.389
910.3163, 6420.588
910.7984, 6466.796
911.2805, 6523.354
911.7626, 6547.178
912.2448, 6554.041
912.7269, 6585.055
913.2090, 6680.013
913.6911, 6757.874
914.1732, 6758.292
914.6553, 6727.730
915.1375, 6732.262
915.6196, 6784.200
916.1017, 6841.824
916.5838, 6903.507
917.0659, 6965.969
917.5480, 7020.132
918.0302, 7071.409
918.5123, 7137.239
918.9944, 7222.211
919.4765, 7313.853
919.9586, 7418.291
920.4407, 7517.029
920.9229, 7588.802
921.4050, 7609.108
921.8871, 7667.263
922.3692, 7774.973
922.8513, 7895.941
923.3334, 7995.597
923.8156, 8079.186
924.2977, 8171.214
924.7798, 8273.924
925.2619, 8368.144
925.7440, 8431.138
926.2261, 8485.752
926.7083, 8553.226
927.1904, 8641.748
927.6725, 8700.003
928.1546, 8715.335
928.6367, 8726.207
929.1188, 8757.406
929.6010, 8803.310
930.0831, 8834.777
930.5652, 8851.958
931.0473, 8861.296
931.5294, 8869.822
932.0115, 8869.300
932.4937, 8846.869
932.9758, 8805.322
933.4579, 8778.476
933.9400, 8777.315
934.4221, 8774.062
934.9042, 8763.565
935.3864, 8742.304
935.8685, 8685.698
936.3506, 8602.213
936.8327, 8540.966
937.3148, 8553.558
937.7969, 8569.834
938.2791, 8533.641
938.7612, 8463.735
939.2433, 8402.661
939.7254, 8347.817
940.2075, 8320.206
940.6896, 8335.183
941.1718, 8363.421
941.6539, 8345.283
942.1360, 8289.746
942.6181, 8244.715
943.1002, 8224.609
943.5823, 8213.029
944.0645, 8205.941
944.5466, 8195.657
945.0287, 8171.734
945.5108, 8109.538
945.9929, 8074.593
946.4750, 8074.903
946.9572, 8088.491
947.4393, 8094.558
947.9214, 8093.999
948.4035, 8093.038
948.8856, 8092.628
949.3677, 8085.715
949.8499, 8052.619
950.3320, 8020.657
950.8141, 8019.918
951.2962, 8065.151
951.7783, 8073.654
952.2604, 8027.397
952.7426, 7978.343
953.2247, 7951.850
953.7068, 7947.499
954.1889, 7975.081
954.6710, 8030.325
955.1531, 8075.362
955.6353, 8077.989
956.1174, 8070.009
956.5995, 8073.634
957.0816, 8086.829
957.5637, 8089.333
958.0458, 8075.433
958.5280, 8063.486
959.0101, 8060.327
959.4922, 8060.928
959.9743, 8050.030
960.4564, 8031.811
960.9385, 8021.592
961.4207, 8034.969
961.9028, 8045.571
962.3849, 8030.237
962.8670, 8005.363
963.3491, 8002.280
963.8312, 8039.395
964.3134, 8051.291
964.7955, 8028.254
965.2776, 7986.925
965.7597, 7942.430
966.2418, 7897.854
966.7239, 7860.492
967.2061, 7832.645
967.6882, 7807.801
968.1703, 7785.120
968.6524, 7761.807
969.1345, 7734.297
969.6166, 7699.395
970.0988, 7681.054
970.5809, 7685.983
971.0630, 7678.391
971.5451, 7619.214
972.0272, 7533.342
972.5093, 7466.782
972.9915, 7419.679
973.4736, 7373.971
973.9557, 7317.006
974.4378, 7263.523
974.9199, 7221.888
975.4020, 7189.413
975.8842, 7152.204
976.3663, 7109.439
976.8484, 7072.375
977.3305, 7048.119
977.8126, 7028.875
978.2947, 7004.053
978.7769, 6975.098
979.2590, 6946.154
979.7411, 6916.159
980.2232, 6889.495
980.7053, 6871.448
981.1874, 6853.124
981.6696, 6819.885
982.1517, 6771.187
982.6338, 6725.742
983.1159, 6685.376
983.5980, 6654.419
984.0801, 6641.950
984.5623, 6638.979
985.0444, 6636.130
985.5265, 6632.771
986.0085, 6625.167
986.4907, 6610.062
986.9728, 6595.367
987.4549, 6588.696
987.9370, 6588.351
988.4191, 6572.534
988.9012, 6542.453
989.3834, 6514.607
989.8655, 6502.295
990.3476, 6494.531
990.8297, 6480.151
991.3118, 6461.685
991.7939, 6457.729
992.2761, 6481.825
992.7582, 6491.572
993.2403, 6471.691
993.7224, 6436.454
994.2045, 6415.591
994.6866, 6406.056
995.1688, 6398.637
995.6509, 6391.815
996.1330, 6383.566
996.6151, 6371.763
997.0972, 6358.377
997.5793, 6344.695
998.0615, 6326.933
998.5436, 6325.173
999.0257, 6345.040
999.5078, 6360.751
999.9899, 6340.397
1000.472, 6299.666
1000.954, 6260.773
1001.436, 6226.482
1001.918, 6208.054
1002.401, 6226.762
1002.883, 6246.172
1003.365, 6248.727
1003.847, 6236.349
1004.329, 6226.056
1004.811, 6217.828
1005.293, 6213.271
1005.775, 6221.229
1006.257, 6225.979
1006.740, 6204.646
1007.222, 6167.197
1007.704, 6137.240
1008.186, 6117.312
1008.668, 6113.268
1009.150, 6131.557
1009.632, 6158.691
1010.114, 6174.392
1010.596, 6180.325
1011.079, 6185.412
1011.561, 6191.648
1012.043, 6194.242
1012.525, 6181.063
1013.007, 6167.799
1013.489, 6171.116
1013.971, 6196.728
1014.453, 6213.459
1014.936, 6219.491
1015.418, 6222.437
1015.900, 6229.546
1016.382, 6236.581
1016.864, 6215.204
1017.346, 6177.929
1017.828, 6188.707
1018.310, 6345.558
1018.792, 6480.273
1019.275, 6514.539
1019.757, 6487.795
1020.239, 6498.021
1020.721, 6548.108
1021.203, 6569.654
1021.685, 6536.872
1022.167, 6496.883
1022.649, 6518.912
1023.132, 6561.374
1023.614, 6564.829
1024.096, 6496.771
1024.578, 6432.786
1025.060, 6371.712
1025.542, 6326.185
1026.024, 6306.827
1026.506, 6312.004
1026.989, 6337.995
1027.471, 6382.733
1027.953, 6422.352
1028.435, 6436.780
1028.917, 6445.323
1029.399, 6459.102
1029.881, 6477.689
1030.363, 6493.771
1030.845, 6503.659
1031.328, 6528.559
1031.810, 6583.875
1032.292, 6639.980
1032.774, 6630.095
1033.256, 6588.693
1033.738, 6588.584
1034.220, 6690.532
1034.702, 6761.302
1035.184, 6746.644
1035.667, 6712.113
1036.149, 6710.129
1036.631, 6740.950
1037.113, 6771.160
1037.595, 6800.076
1038.077, 6822.632
1038.559, 6836.686
1039.041, 6841.340
1039.524, 6827.705
1040.006, 6798.736
1040.488, 6793.891
1040.970, 6827.415
1041.452, 6853.884
1041.934, 6857.846
1042.416, 6848.625
1042.898, 6842.877
1043.380, 6839.712
1043.863, 6837.318
1044.345, 6839.732
1044.827, 6834.363
1045.309, 6800.762
1045.791, 6768.337
1046.273, 6768.313
1046.755, 6805.222
1047.237, 6818.172
1047.719, 6801.591
1048.202, 6809.920
1048.684, 6945.129
1049.166, 7088.607
1049.648, 7098.459
1050.130, 6977.947
1050.612, 6878.243
1051.094, 6819.350
1051.576, 6776.337
1052.059, 6739.651
1052.541, 6716.953
1053.023, 6740.394
1053.505, 6793.723
1053.987, 6823.768
1054.469, 6801.740
1054.951, 6776.565
1055.433, 6762.897
1055.916, 6763.057
1056.398, 6784.000
1056.880, 6834.614
1057.362, 6844.655
1057.844, 6809.309
1058.326, 6777.016
1058.808, 6794.246
1059.290, 6830.202
1059.772, 6853.451
1060.255, 6863.399
1060.737, 6869.857
1061.219, 6871.350
1061.701, 6875.717
1062.183, 6885.683
1062.665, 6898.507
1063.147, 6909.943
1063.629, 6919.346
1064.111, 6923.130
1064.594, 6914.708
1065.076, 6915.277
1065.558, 6946.561
1066.040, 6983.446
1066.522, 7003.118
1067.004, 7002.477
1067.486, 7009.423
1067.968, 7024.907
1068.450, 7036.624
1068.933, 7027.920
1069.415, 7016.919
1069.897, 7023.137
1070.379, 7044.463
1070.861, 7069.005
1071.343, 7095.887
1071.825, 7124.595
1072.307, 7157.570
1072.790, 7188.091
1073.272, 7197.073
1073.754, 7194.215
1074.236, 7209.010
1074.718, 7254.212
1075.200, 7290.552
1075.682, 7285.868
1076.164, 7277.827
1076.646, 7292.698
1077.129, 7330.367
1077.611, 7358.953
1078.093, 7378.560
1078.575, 7388.699
1079.057, 7383.494
1079.539, 7373.592
1080.021, 7367.108
1080.503, 7363.378
1080.985, 7359.701
1081.468, 7350.734
1081.950, 7356.878
1082.432, 7386.785
1082.914, 7416.111
1083.396, 7397.331
1083.878, 7360.827
1084.360, 7377.527
1084.842, 7461.888
1085.325, 7522.263
1085.807, 7508.478
1086.289, 7476.330
1086.771, 7438.918
1087.253, 7403.692
1087.735, 7418.524
1088.217, 7477.231
1088.699, 7530.208
1089.182, 7554.458
1089.664, 7567.965
1090.146, 7578.505
1090.628, 7587.327
1091.110, 7596.304
1091.592, 7605.888
1092.074, 7614.877
1092.556, 7623.683
1093.038, 7629.736
1093.521, 7628.271
1094.003, 7624.138
1094.485, 7619.452
1094.967, 7615.935
1095.449, 7628.479
1095.931, 7677.590
1096.413, 7714.560
1096.895, 7725.529
1097.377, 7720.027
1097.860, 7712.933
1098.342, 7706.548
1098.824, 7710.042
1099.306, 7729.912
1099.788, 7746.541
1100.270, 7746.416
1100.752, 7742.922
1101.234, 7749.516
1101.717, 7766.881
1102.199, 7756.107
1102.681, 7717.602
1103.163, 7679.141
1103.645, 7650.252
1104.127, 7636.608
1104.609, 7648.876
1105.091, 7680.111
1105.573, 7713.242
1106.056, 7751.594
1106.538, 7777.400
1107.020, 7787.004
1107.502, 7788.628
1107.984, 7782.457
1108.466, 7778.920
1108.948, 7798.961
1109.430, 7846.416
1109.912, 7884.481
1110.395, 7905.802
1110.877, 7913.896
1111.359, 7904.286
1111.841, 7885.729
1112.323, 7889.215
1112.805, 7907.985
1113.287, 7918.738
1113.769, 7913.037
1114.252, 7897.356
1114.734, 7867.325
1115.216, 7833.583
1115.698, 7808.034
1116.180, 7792.382
1116.662, 7760.181
1117.144, 7711.183
1117.626, 7664.379
1118.109, 7644.503
1118.591, 7622.474
1119.073, 7573.993
1119.555, 7503.370
1120.037, 7428.180
1120.519, 7343.170
1121.001, 7277.529
1121.483, 7240.363
1121.965, 7209.999
1122.448, 7153.205
1122.930, 7088.907
1123.412, 7050.261
1123.894, 7047.079
1124.376, 7022.161
1124.858, 6954.873
1125.340, 6891.458
1125.822, 6851.560
1126.304, 6829.279
1126.787, 6816.801
1127.269, 6808.655
1127.751, 6788.177
1128.233, 6740.584
1128.715, 6693.361
1129.197, 6654.359
1129.679, 6619.248
1130.161, 6578.888
1130.644, 6535.317
1131.126, 6530.988
1131.608, 6564.829
1132.090, 6590.600
1132.572, 6568.331
1133.054, 6537.668
1133.536, 6530.161
1134.018, 6531.514
1134.500, 6496.442
1134.983, 6417.996
1135.465, 6365.991
1135.947, 6355.323
1136.429, 6359.081
1136.911, 6353.286
1137.393, 6344.914
1137.875, 6344.839
1138.357, 6356.701
1138.839, 6346.286
1139.322, 6307.067
1139.804, 6268.379
1140.286, 6241.414
1140.768, 6223.810
1141.250, 6212.860
1141.732, 6207.765
1142.214, 6207.068
1142.696, 6214.544
1143.179, 6219.229
1143.661, 6220.394
1144.143, 6218.602
1144.625, 6208.429
1145.107, 6196.293
1145.589, 6208.364
1146.071, 6240.596
1146.553, 6267.065
1147.036, 6273.542
1147.518, 6274.491
1148.000, 6271.058
1148.482, 6267.744
1148.964, 6274.588
1149.446, 6289.262
1149.928, 6295.738
1150.410, 6290.976
1150.892, 6288.166
1151.375, 6304.190
1151.857, 6317.390
1152.339, 6311.652
1152.821, 6291.035
1153.303, 6273.881
1153.785, 6260.288
1154.267, 6253.903
1154.749, 6258.643
1155.231, 6264.652
1155.714, 6262.156
1156.196, 6264.472
1156.678, 6255.067
1157.160, 6259.689
1157.642, 6257.728
1158.124, 6248.744
1158.606, 6235.682
1159.088, 6220.345
1159.571, 6201.867
1160.053, 6175.654
1160.535, 6145.712
1161.017, 6122.418
1161.499, 6111.708
1161.981, 6096.496
1162.463, 6073.909
1162.945, 6052.386
1163.427, 6051.354
1163.910, 6052.405
1164.392, 6018.044
1164.874, 5950.782
1165.356, 5903.461
1165.838, 5903.583
1166.320, 5900.549
1166.802, 5883.448
1167.284, 5857.690
1167.766, 5828.232
1168.249, 5798.076
1168.731, 5770.798
1169.213, 5744.394
1169.695, 5737.331
1170.177, 5787.554
1170.659, 5818.267
1171.141, 5784.850
1171.623, 5711.909
1172.106, 5691.640
1172.588, 5711.297
1173.070, 5720.930
1173.552, 5696.482
1174.034, 5667.180
1174.516, 5639.658
1174.998, 5616.284
1175.480, 5598.615
1175.963, 5586.778
1176.445, 5586.225
1176.927, 5594.992
1177.409, 5592.222
1177.891, 5552.103
1178.373, 5511.858
1178.855, 5489.874
1179.337, 5479.812
1179.819, 5473.465
1180.302, 5471.021
1180.784, 5469.552
1181.266, 5469.191
1181.748, 5462.907
1182.230, 5434.050
1182.712, 5407.297
1183.194, 5409.210
1183.676, 5429.647
1184.158, 5422.931
1184.641, 5385.840
1185.123, 5361.752
1185.605, 5363.177
1186.087, 5371.563
1186.569, 5375.214
1187.051, 5372.623
1187.533, 5360.073
1188.015, 5336.863
1188.498, 5317.771
1188.980, 5303.740
1189.462, 5286.078
1189.944, 5255.526
1190.426, 5228.834
1190.908, 5237.219
1191.390, 5257.968
1191.872, 5254.904
1192.354, 5209.639
1192.837, 5184.220
1193.319, 5181.033
1193.801, 5185.670
1194.283, 5195.901
1194.765, 5202.896
1195.247, 5189.586
1195.729, 5163.776
1196.211, 5146.959
1196.693, 5151.525
1197.176, 5143.167
1197.658, 5116.660
1198.140, 5087.275
1198.622, 5066.842
1199.104, 5055.149
1199.586, 5055.572
1200.068, 5065.971
1200.550, 5070.643
1201.033, 5066.236
1201.515, 5056.580
1201.997, 5040.105
1202.479, 5023.793
1202.961, 5020.332
1203.443, 5022.882
1203.925, 5018.694
1204.407, 5005.510
1204.890, 4998.645
1205.372, 5005.176
1205.854, 5008.462
1206.336, 5001.510
1206.818, 4990.412
1207.300, 4990.572
1207.782, 4995.056
1208.264, 4986.919
1208.746, 4952.713
1209.229, 4941.802
1209.711, 4973.332
1210.193, 5003.241
1210.675, 5009.409
1211.157, 4996.944
1211.639, 4970.005
1212.121, 4935.957
1212.603, 4914.011
1213.085, 4918.931
1213.568, 4922.749
1214.050, 4920.526
1214.532, 4919.146
1215.014, 4928.281
1215.496, 4941.688
1215.978, 4932.769
1216.460, 4909.102
1216.942, 4901.983
1217.425, 4947.764
1217.907, 4977.187
1218.389, 4973.231
1218.871, 4959.518
1219.353, 4963.488
1219.835, 4979.300
1220.317, 4984.744
1220.799, 4981.602
1221.281, 4999.817
1221.764, 5110.988
1222.246, 5159.493
1222.728, 5089.445
1223.210, 4972.505
1223.692, 4919.749
1224.174, 4915.515
1224.656, 4920.433
1225.138, 4928.983
1225.620, 4944.096
1226.103, 4974.260
1226.585, 5002.829
1227.067, 5028.494
1227.549, 5045.463
1228.031, 5033.399
1228.513, 5002.727
1228.995, 4981.131
1229.477, 4974.904
1229.960, 4977.302
1230.442, 4995.594
1230.924, 5008.912
1231.406, 5004.179
1231.888, 4990.880
1232.370, 4998.820
1232.852, 5020.537
1233.334, 5035.249
1233.816, 5032.911
1234.299, 5030.982
1234.781, 5035.672
1235.263, 5037.146
1235.745, 5022.861
1236.227, 5002.480
1236.709, 5011.782
1237.191, 5042.173
1237.673, 5066.123
1238.156, 5063.210
1238.638, 5068.240
1239.120, 5090.871
1239.602, 5112.350
1240.084, 5114.240
1240.566, 5102.190
1241.048, 5087.707
1241.530, 5072.634
1242.012, 5062.657
1242.495, 5061.328
1242.977, 5063.962
1243.459, 5068.951
1243.941, 5079.151
1244.423, 5108.315
1244.905, 5141.548
1245.387, 5137.789
1245.869, 5100.388
1246.351, 5073.328
1246.834, 5083.060
1247.316, 5084.624
1247.798, 5066.170
1248.280, 5046.882
1248.762, 5057.554
1249.244, 5084.481
1249.726, 5105.556
1250.208, 5118.268
1250.691, 5116.100
1251.173, 5086.583
1251.655, 5068.230
1252.137, 5073.456
1252.619, 5087.517
1253.101, 5088.366
1253.583, 5081.844
1254.065, 5076.035
1254.547, 5071.752
1255.030, 5075.577
1255.512, 5095.957
1255.994, 5099.282
1256.476, 5065.435
1256.958, 5024.834
1257.440, 5031.541
1257.922, 5059.280
1258.404, 5066.820
1258.886, 5038.789
1259.369, 5030.005
1259.851, 5046.401
1260.333, 5059.498
1260.815, 5051.774
1261.297, 5040.814
1261.779, 5053.252
1262.261, 5055.599
1262.743, 5067.539
1263.226, 5087.396
1263.708, 5100.864
1264.190, 5135.271
1264.672, 5156.562
1265.154, 5134.777
1265.636, 5101.457
1266.118, 5081.396
1266.600, 5075.096
1267.083, 5085.857
1267.565, 5119.355
1268.047, 5142.502
1268.529, 5155.087
1269.011, 5160.199
1269.493, 5150.517
1269.975, 5143.616
1270.457, 5158.902
1270.939, 5184.155
1271.422, 5197.433
1271.904, 5197.501
1272.386, 5194.523
1272.868, 5188.907
1273.350, 5183.741
1273.832, 5184.854
1274.314, 5183.289
1274.796, 5164.905
1275.278, 5144.661
1275.761, 5151.819
1276.243, 5184.697
1276.725, 5197.575
1277.207, 5187.294
1277.689, 5167.306
1278.171, 5128.750
1278.653, 5103.477
1279.135, 5117.292
1279.618, 5143.295
1280.100, 5135.038
1280.582, 5098.542
1281.064, 5061.441
1281.546, 5026.795
1282.028, 5004.430
1282.510, 5007.979
1282.992, 5014.418
1283.474, 5015.502
1283.957, 5015.893
1284.439, 5028.961
1284.921, 5047.459
1285.403, 5050.050
1285.885, 5033.443
1286.367, 5012.278
1286.849, 4986.476
1287.331, 4964.581
1287.813, 4949.396
1288.296, 4938.740
1288.778, 4925.715
1289.260, 4915.688
1289.742, 4921.269
1290.224, 4946.130
1290.706, 4964.025
1291.188, 4970.990
1291.670, 4975.679
1292.153, 4981.922
1292.635, 4984.948
1293.117, 4967.370
1293.599, 4947.536
1294.081, 4956.070
1294.563, 5003.258
1295.045, 5024.947
1295.527, 5018.762
1296.010, 5000.339
1296.492, 4968.227
1296.974, 4943.079
1297.456, 4958.818
1297.938, 4987.000
1298.420, 4993.139
1298.902, 4976.480
1299.384, 4962.213
1299.866, 4950.340
1300.349, 4944.398
1300.831, 4945.870
1301.313, 4950.603
1301.795, 4957.547
##END=



