##NAMES=Jonesite
##RRUFFID=R080005
##IDEAL CHEMISTRY=KBa_2_Ti^4+^_2_(Si_5_Al)O_18_&#183;nH_2_O
##LOCALITY=Langban, Filipstad, Varmland, Sweden
##OWNER=RRUFF
##SOURCE=Michael Scott
##DESCRIPTION=Colorless blades associated with metallic haussmanite and calcite.
##STATUS=The identification of this mineral has been confirmed by single-crystal X-ray diffraction.
##URL=rruff.info/R080005
93.40625, 135.0579
93.88837, 128.7738
94.37048, 134.1842
94.85260, 148.3344
95.33472, 162.6709
95.81683, 175.0499
96.29895, 186.7240
96.78107, 200.8188
97.26318, 217.5321
97.74530, 235.1511
98.22742, 252.1057
98.70953, 268.4707
99.19165, 284.1385
99.67377, 298.8502
100.1559, 312.6204
100.6380, 326.5573
101.1201, 340.9675
101.6022, 354.6959
102.0844, 365.5388
102.5665, 372.8580
103.0486, 379.7423
103.5307, 386.9321
104.0128, 394.2741
104.4949, 403.1208
104.9771, 414.1371
105.4592, 426.4208
105.9413, 438.0953
106.4234, 447.8954
106.9055, 458.6580
107.3876, 471.6336
107.8698, 489.3416
108.3519, 505.5494
108.8340, 519.6816
109.3161, 532.1948
109.7982, 544.8126
110.2803, 557.2198
110.7624, 570.0725
111.2446, 583.6960
111.7267, 600.4123
112.2088, 615.5894
112.6909, 628.1158
113.1730, 638.2335
113.6551, 648.7986
114.1373, 661.4848
114.6194, 674.1497
115.1015, 685.2058
115.5836, 693.8591
116.0657, 701.1600
116.5478, 707.3690
117.0300, 712.6221
117.5121, 716.5328
117.9942, 718.2944
118.4763, 718.7921
118.9584, 719.1653
119.4405, 717.3731
119.9227, 717.2676
120.4048, 722.0377
120.8869, 733.0477
121.3690, 744.4043
121.8511, 753.5195
122.3332, 760.4121
122.8154, 765.1226
123.2975, 765.3959
123.7796, 764.4691
124.2617, 765.6641
124.7438, 769.7793
125.2259, 775.5726
125.7081, 782.5039
126.1902, 789.9552
126.6723, 793.3277
127.1544, 793.0756
127.6365, 792.4721
128.1186, 791.9647
128.6008, 791.7600
129.0829, 791.5764
129.5650, 790.9854
130.0471, 790.0056
130.5292, 788.8525
131.0113, 787.7577
131.4935, 786.6558
131.9756, 785.1956
132.4577, 782.8877
132.9398, 780.2861
133.4219, 779.2897
133.9040, 780.0209
134.3862, 781.1425
134.8683, 781.1267
135.3504, 779.9955
135.8325, 779.0137
136.3146, 778.3921
136.7967, 778.1720
137.2789, 779.1625
137.7610, 781.8074
138.2431, 784.6157
138.7252, 785.5895
139.2073, 784.5356
139.6894, 782.6422
140.1716, 779.9330
140.6537, 776.0988
141.1358, 773.7394
141.6179, 773.1376
142.1000, 773.6540
142.5821, 773.9769
143.0643, 773.6356
143.5464, 774.0958
144.0285, 776.3762
144.5106, 782.0759
144.9927, 785.3068
145.4748, 785.1189
145.9570, 782.6360
146.4391, 781.0309
146.9212, 780.4148
147.4033, 780.4966
147.8854, 781.2121
148.3675, 783.3489
148.8497, 784.8486
149.3318, 785.2781
149.8139, 784.8876
150.2960, 784.9784
150.7781, 787.0539
151.2602, 788.5005
151.7424, 787.8891
152.2245, 781.5033
152.7066, 777.2928
153.1887, 776.5736
153.6708, 779.0687
154.1529, 781.2656
154.6351, 783.1647
155.1172, 784.5853
155.5993, 785.4128
156.0814, 786.5419
156.5635, 786.1792
157.0456, 782.7099
157.5278, 776.1814
158.0099, 772.0431
158.4920, 773.5404
158.9741, 776.8963
159.4562, 778.7550
159.9383, 776.5872
160.4205, 774.4134
160.9026, 773.5395
161.3847, 774.0748
161.8668, 775.2367
162.3489, 777.8353
162.8310, 780.6088
163.3132, 782.0837
163.7953, 780.0895
164.2774, 777.9641
164.7595, 777.7603
165.2416, 779.9522
165.7237, 781.6651
166.2059, 780.2552
166.6880, 777.6351
167.1701, 776.7197
167.6522, 780.1524
168.1343, 784.8275
168.6164, 788.7673
169.0986, 791.8231
169.5807, 793.8705
170.0628, 794.7349
170.5449, 794.5598
171.0270, 793.6011
171.5091, 789.9648
171.9913, 786.6033
172.4734, 787.0206
172.9555, 792.6934
173.4376, 798.8241
173.9197, 801.2597
174.4018, 800.8788
174.8840, 800.0100
175.3661, 798.9789
175.8482, 798.5643
176.3303, 799.9246
176.8124, 803.5212
177.2945, 808.2438
177.7767, 813.3891
178.2588, 818.8366
178.7409, 823.8730
179.2230, 828.0894
179.7051, 831.6393
180.1872, 834.5881
180.6694, 836.6444
181.1515, 838.7204
181.6336, 842.5117
182.1157, 847.7534
182.5978, 852.5403
183.0799, 854.9747
183.5621, 855.9276
184.0442, 857.7435
184.5263, 861.0407
185.0084, 865.1984
185.4905, 869.5372
185.9726, 874.0175
186.4547, 878.1252
186.9369, 880.7131
187.4190, 882.3838
187.9011, 885.8253
188.3832, 892.5671
188.8653, 900.5557
189.3474, 904.8051
189.8296, 905.2458
190.3117, 905.1467
190.7938, 907.0575
191.2759, 910.8387
191.7580, 915.5072
192.2401, 921.3867
192.7223, 927.7692
193.2044, 932.1774
193.6865, 934.3842
194.1686, 936.6979
194.6507, 941.8514
195.1328, 949.6554
195.6150, 956.1165
196.0971, 959.9366
196.5792, 961.7347
197.0613, 963.8514
197.5434, 966.2845
198.0255, 968.9561
198.5077, 972.3303
198.9898, 976.5251
199.4719, 978.6144
199.9540, 976.8591
200.4361, 972.3623
200.9182, 971.7263
201.4004, 975.9054
201.8825, 981.0828
202.3646, 983.5817
202.8467, 983.2266
203.3288, 981.4473
203.8109, 977.7526
204.2931, 972.6415
204.7752, 970.9896
205.2573, 973.9468
205.7394, 977.6174
206.2215, 977.5288
206.7036, 972.8754
207.1858, 968.8490
207.6679, 967.3605
208.1500, 968.0768
208.6321, 965.4818
209.1142, 958.6268
209.5963, 950.2444
210.0785, 943.1502
210.5606, 937.6187
211.0427, 932.5214
211.5248, 927.5413
212.0069, 922.6898
212.4890, 918.3390
212.9712, 914.4001
213.4533, 911.0955
213.9354, 909.0382
214.4175, 908.9295
214.8996, 907.8264
215.3817, 904.5306
215.8639, 899.0589
216.3460, 895.5280
216.8281, 895.0837
217.3102, 895.0348
217.7923, 891.9213
218.2744, 883.9167
218.7566, 877.5353
219.2387, 874.9749
219.7208, 876.3224
220.2029, 875.8549
220.6850, 872.6797
221.1671, 868.7479
221.6493, 866.5459
222.1314, 867.3943
222.6135, 866.8090
223.0956, 863.1312
223.5777, 856.1027
224.0598, 851.5117
224.5420, 850.1053
225.0241, 850.2623
225.5062, 850.3052
225.9883, 850.1366
226.4704, 850.0879
226.9525, 850.4644
227.4347, 851.3337
227.9168, 850.7920
228.3989, 847.5387
228.8810, 844.2579
229.3631, 844.1891
229.8452, 849.8236
230.3274, 853.6896
230.8095, 853.7346
231.2916, 849.7823
231.7737, 846.9823
232.2558, 845.5090
232.7379, 845.0033
233.2201, 845.3519
233.7022, 847.5234
234.1843, 848.6072
234.6664, 847.5667
235.1485, 844.3693
235.6306, 842.5006
236.1128, 842.8713
236.5949, 843.6105
237.0770, 842.6805
237.5591, 838.3237
238.0412, 835.7660
238.5233, 836.6019
239.0055, 840.8374
239.4876, 843.7061
239.9697, 845.1577
240.4518, 845.3474
240.9339, 844.0032
241.4160, 839.2009
241.8982, 836.7512
242.3803, 838.4784
242.8624, 844.2316
243.3445, 848.0783
243.8266, 849.0026
244.3087, 849.2059
244.7909, 850.6136
245.2730, 854.2331
245.7551, 856.9725
246.2372, 858.0142
246.7193, 857.5258
247.2014, 857.9193
247.6836, 859.3915
248.1657, 861.4808
248.6478, 863.8577
249.1299, 866.6401
249.6120, 869.4886
250.0941, 872.4819
250.5762, 875.5573
251.0584, 878.0122
251.5405, 878.9134
252.0226, 880.4324
252.5047, 884.3213
252.9868, 892.0327
253.4689, 898.7321
253.9511, 903.4962
254.4332, 906.8104
254.9153, 911.3534
255.3974, 917.7717
255.8795, 924.4457
256.3617, 930.1012
256.8438, 933.9298
257.3259, 938.9926
257.8080, 945.7508
258.2901, 953.8754
258.7722, 962.4880
259.2544, 972.0992
259.7365, 981.3705
260.2186, 989.5949
260.7007, 996.1395
261.1828, 1003.235
261.6649, 1011.045
262.1471, 1019.412
262.6292, 1028.112
263.1113, 1036.907
263.5934, 1046.364
264.0755, 1056.979
264.5576, 1069.432
265.0398, 1080.875
265.5219, 1091.207
266.0040, 1100.587
266.4861, 1109.282
266.9682, 1116.444
267.4503, 1124.935
267.9325, 1136.322
268.4146, 1151.663
268.8967, 1165.980
269.3788, 1179.489
269.8609, 1191.787
270.3430, 1201.055
270.8252, 1205.939
271.3073, 1212.287
271.7894, 1222.918
272.2715, 1238.322
272.7536, 1252.715
273.2357, 1266.144
273.7179, 1278.246
274.2000, 1288.065
274.6821, 1294.870
275.1642, 1302.411
275.6463, 1312.815
276.1284, 1326.086
276.6106, 1335.859
277.0927, 1341.576
277.5748, 1345.002
278.0569, 1348.684
278.5390, 1352.933
279.0211, 1354.858
279.5032, 1352.959
279.9854, 1347.699
280.4675, 1343.174
280.9496, 1339.728
281.4317, 1335.917
281.9138, 1329.923
282.3959, 1321.675
282.8781, 1313.457
283.3602, 1306.208
283.8423, 1299.364
284.3244, 1290.118
284.8065, 1278.013
285.2886, 1266.081
285.7708, 1257.003
286.2529, 1250.687
286.7350, 1245.640
287.2171, 1241.812
287.6992, 1238.839
288.1813, 1236.098
288.6635, 1233.610
289.1456, 1230.571
289.6277, 1225.540
290.1098, 1218.973
290.5919, 1214.244
291.0740, 1212.139
291.5562, 1211.641
292.0383, 1210.725
292.5204, 1209.435
293.0025, 1208.905
293.4846, 1210.754
293.9667, 1214.119
294.4489, 1216.010
294.9310, 1216.057
295.4131, 1214.611
295.8952, 1211.343
296.3773, 1206.609
296.8594, 1202.539
297.3416, 1201.334
297.8237, 1201.544
298.3058, 1199.615
298.7879, 1195.027
299.2700, 1189.649
299.7521, 1185.875
300.2343, 1183.209
300.7164, 1180.260
301.1985, 1175.705
301.6806, 1170.605
302.1627, 1166.691
302.6448, 1164.002
303.1270, 1162.027
303.6091, 1160.342
304.0912, 1158.999
304.5733, 1158.039
305.0554, 1157.743
305.5375, 1157.700
306.0197, 1157.749
306.5018, 1157.847
306.9839, 1157.225
307.4660, 1154.121
307.9481, 1150.227
308.4302, 1147.920
308.9124, 1147.875
309.3945, 1149.740
309.8766, 1154.457
310.3587, 1161.431
310.8408, 1167.281
311.3229, 1169.211
311.8051, 1169.385
312.2872, 1169.871
312.7693, 1171.080
313.2514, 1172.850
313.7335, 1175.984
314.2156, 1179.769
314.6978, 1182.175
315.1799, 1180.861
315.6620, 1178.683
316.1441, 1177.897
316.6262, 1179.568
317.1083, 1180.692
317.5905, 1181.060
318.0726, 1179.911
318.5547, 1175.896
319.0368, 1165.625
319.5189, 1154.654
320.0010, 1146.056
320.4832, 1140.617
320.9653, 1134.622
321.4474, 1125.569
321.9295, 1115.901
322.4116, 1108.477
322.8937, 1106.539
323.3759, 1104.424
323.8580, 1099.909
324.3401, 1092.790
324.8222, 1087.196
325.3043, 1085.093
325.7864, 1084.015
326.2686, 1082.060
326.7507, 1077.165
327.2328, 1073.466
327.7149, 1071.115
328.1970, 1070.219
328.6791, 1071.668
329.1613, 1078.624
329.6434, 1085.397
330.1255, 1089.096
330.6076, 1087.555
331.0897, 1085.987
331.5718, 1083.598
332.0540, 1081.264
332.5361, 1081.690
333.0182, 1087.348
333.5003, 1092.527
333.9824, 1094.649
334.4645, 1092.290
334.9467, 1091.396
335.4288, 1092.732
335.9109, 1095.005
336.3930, 1096.127
336.8751, 1095.930
337.3572, 1094.949
337.8394, 1092.862
338.3215, 1089.560
338.8036, 1088.110
339.2857, 1088.694
339.7678, 1090.823
340.2499, 1094.532
340.7321, 1100.185
341.2142, 1104.969
341.6963, 1108.480
342.1784, 1110.582
342.6605, 1109.519
343.1426, 1104.439
343.6248, 1100.205
344.1069, 1101.913
344.5890, 1109.207
345.0711, 1114.065
345.5532, 1114.246
346.0353, 1112.826
346.5175, 1116.866
346.9996, 1126.319
347.4817, 1135.990
347.9638, 1142.654
348.4459, 1146.960
348.9280, 1151.031
349.4102, 1154.870
349.8923, 1159.076
350.3744, 1165.005
350.8565, 1172.095
351.3386, 1178.283
351.8207, 1182.179
352.3029, 1184.635
352.7850, 1186.819
353.2671, 1188.762
353.7492, 1191.053
354.2313, 1194.804
354.7134, 1199.174
355.1956, 1202.701
355.6777, 1204.381
356.1598, 1205.479
356.6419, 1206.816
357.1240, 1208.489
357.6061, 1211.001
358.0883, 1215.642
358.5704, 1220.828
359.0525, 1224.903
359.5346, 1227.213
360.0167, 1228.974
360.4988, 1230.644
360.9810, 1232.252
361.4631, 1233.852
361.9452, 1234.604
362.4273, 1235.963
362.9094, 1239.549
363.3915, 1246.519
363.8737, 1250.975
364.3558, 1248.940
364.8379, 1243.987
365.3200, 1240.298
365.8021, 1240.901
366.2842, 1240.811
366.7664, 1238.936
367.2485, 1235.242
367.7306, 1229.610
368.2127, 1220.598
368.6948, 1210.576
369.1769, 1201.043
369.6591, 1193.180
370.1412, 1184.440
370.6233, 1174.694
371.1054, 1163.967
371.5875, 1152.225
372.0696, 1138.905
372.5518, 1125.406
373.0339, 1112.097
373.5160, 1098.638
373.9981, 1086.138
374.4802, 1074.149
374.9623, 1063.323
375.4445, 1055.298
375.9266, 1051.209
376.4087, 1046.513
376.8908, 1039.674
377.3729, 1030.749
377.8550, 1022.206
378.3372, 1013.944
378.8193, 1006.522
379.3014, 1000.806
379.7835, 996.8065
380.2656, 993.1641
380.7477, 989.5594
381.2299, 986.2067
381.7120, 983.6500
382.1941, 981.9122
382.6762, 980.5887
383.1583, 979.8527
383.6404, 979.3969
384.1226, 977.9997
384.6047, 975.4556
385.0868, 972.2833
385.5689, 968.7003
386.0510, 964.9181
386.5331, 961.6749
387.0153, 959.2230
387.4974, 957.5394
387.9795, 956.7540
388.4616, 956.8709
388.9437, 957.2590
389.4258, 957.2089
389.9080, 957.1935
390.3901, 957.9225
390.8722, 960.0348
391.3543, 962.4720
391.8364, 964.6994
392.3185, 966.6532
392.8007, 968.1694
393.2828, 968.3832
393.7649, 968.6241
394.2470, 970.0539
394.7291, 973.5302
395.2112, 976.2531
395.6934, 977.0966
396.1755, 976.5809
396.6576, 975.4944
397.1397, 971.8226
397.6218, 969.6743
398.1039, 971.0350
398.5861, 976.3307
399.0682, 980.7990
399.5503, 984.0745
400.0324, 986.3099
400.5145, 987.5780
400.9966, 986.7918
401.4788, 986.6001
401.9609, 987.2202
402.4430, 988.5788
402.9251, 990.4688
403.4072, 993.4136
403.8893, 996.1116
404.3714, 997.7140
404.8535, 997.6429
405.3357, 999.0487
405.8178, 1002.415
406.2999, 1006.574
406.7820, 1010.018
407.2641, 1012.777
407.7462, 1014.446
408.2284, 1013.880
408.7105, 1012.107
409.1926, 1015.359
409.6747, 1024.315
410.1568, 1033.321
410.6389, 1036.366
411.1211, 1034.682
411.6032, 1035.716
412.0853, 1041.362
412.5674, 1048.930
413.0495, 1054.784
413.5316, 1059.167
414.0138, 1063.147
414.4959, 1068.022
414.9780, 1072.674
415.4601, 1074.940
415.9422, 1074.600
416.4243, 1073.925
416.9065, 1075.683
417.3886, 1078.094
417.8707, 1078.497
418.3528, 1075.868
418.8349, 1071.030
419.3170, 1063.328
419.7992, 1053.329
420.2813, 1044.158
420.7634, 1038.487
421.2455, 1033.026
421.7276, 1025.145
422.2097, 1012.487
422.6919, 1001.943
423.1740, 996.5252
423.6561, 993.9264
424.1382, 990.4753
424.6203, 984.9241
425.1024, 979.2616
425.5846, 973.5944
426.0667, 967.8812
426.5488, 963.4528
427.0309, 960.4632
427.5130, 958.5770
427.9951, 957.8340
428.4773, 959.6579
428.9594, 959.4144
429.4415, 956.0889
429.9236, 950.8586
430.4057, 946.1940
430.8878, 941.5602
431.3700, 939.3416
431.8521, 942.0120
432.3342, 949.5789
432.8163, 952.1927
433.2984, 948.9440
433.7805, 943.9471
434.2627, 941.8287
434.7448, 942.3307
435.2269, 942.7716
435.7090, 942.1481
436.1911, 941.3993
436.6732, 943.4920
437.1554, 947.9212
437.6375, 950.5333
438.1196, 946.3859
438.6017, 939.2223
439.0838, 935.6024
439.5659, 936.8110
440.0481, 938.5331
440.5302, 936.4455
441.0123, 932.4709
441.4944, 929.8402
441.9765, 931.8071
442.4586, 933.9242
442.9408, 932.9949
443.4229, 929.3895
443.9050, 926.3615
444.3871, 926.3548
444.8692, 926.6888
445.3513, 925.4870
445.8335, 921.2200
446.3156, 917.6245
446.7977, 916.1981
447.2798, 915.7469
447.7619, 914.1605
448.2440, 909.0581
448.7262, 905.2660
449.2083, 904.1382
449.6904, 905.7946
450.1725, 907.5317
450.6546, 909.7676
451.1367, 911.5436
451.6189, 911.9520
452.1010, 910.4711
452.5831, 909.4712
453.0652, 909.3837
453.5473, 909.6705
454.0294, 908.7705
454.5116, 906.4424
454.9937, 904.9175
455.4758, 906.0539
455.9579, 909.0837
456.4400, 909.2489
456.9221, 906.2918
457.4043, 902.8545
457.8864, 901.4857
458.3685, 901.7014
458.8506, 901.9095
459.3327, 901.2094
459.8148, 901.1919
460.2970, 905.4532
460.7791, 912.4180
461.2612, 916.7425
461.7433, 912.8621
462.2254, 906.6827
462.7076, 903.4536
463.1897, 903.8149
463.6718, 904.7100
464.1539, 904.7963
464.6360, 904.5239
465.1181, 904.3358
465.6003, 904.6693
466.0824, 904.7684
466.5645, 903.8516
467.0466, 902.4026
467.5287, 902.2710
468.0108, 905.0789
468.4930, 907.9535
468.9751, 909.9525
469.4572, 911.0259
469.9393, 911.2974
470.4214, 910.2604
470.9035, 908.8612
471.3857, 908.1199
471.8678, 908.1657
472.3499, 908.3738
472.8320, 908.4119
473.3141, 908.6359
473.7962, 910.9460
474.2784, 915.7987
474.7605, 919.5062
475.2426, 918.6561
475.7247, 914.3016
476.2068, 913.4418
476.6889, 916.8138
477.1711, 920.5723
477.6532, 919.1439
478.1353, 914.5613
478.6174, 912.6460
479.0995, 917.0864
479.5816, 922.9628
480.0638, 924.4720
480.5459, 922.5467
481.0280, 920.6376
481.5101, 920.8209
481.9922, 921.6927
482.4743, 922.1912
482.9565, 922.1621
483.4386, 921.8644
483.9207, 921.1024
484.4028, 920.2496
484.8849, 919.7025
485.3670, 921.3255
485.8492, 921.3009
486.3313, 917.8797
486.8134, 911.8688
487.2955, 907.2687
487.7776, 903.5200
488.2597, 902.0327
488.7419, 904.1342
489.2240, 911.1250
489.7061, 915.1764
490.1882, 915.3581
490.6703, 913.9836
491.1524, 913.6963
491.6346, 914.7014
492.1167, 914.9954
492.5988, 913.8075
493.0809, 912.0119
493.5630, 912.3594
494.0451, 914.7549
494.5273, 916.4723
495.0094, 915.1040
495.4915, 912.0054
495.9736, 910.4132
496.4557, 910.5422
496.9378, 910.9578
497.4200, 910.4089
497.9021, 909.3324
498.3842, 908.3945
498.8663, 907.7661
499.3484, 907.3749
499.8305, 907.2601
500.3127, 907.3634
500.7948, 907.5223
501.2769, 907.9709
501.7590, 908.2262
502.2411, 908.0667
502.7232, 907.4562
503.2054, 906.5800
503.6875, 904.4533
504.1696, 902.7216
504.6517, 902.7005
505.1338, 905.9456
505.6159, 908.1442
506.0981, 908.8558
506.5802, 908.4414
507.0623, 907.5770
507.5444, 905.9984
508.0265, 904.7570
508.5086, 904.2355
508.9908, 904.3823
509.4729, 905.0741
509.9550, 906.4422
510.4371, 907.3475
510.9192, 906.0726
511.4013, 903.3563
511.8835, 902.3398
512.3655, 903.9647
512.8477, 905.8787
513.3298, 905.0817
513.8119, 902.4388
514.2940, 899.9929
514.7761, 898.9385
515.2582, 898.2499
515.7404, 896.7391
516.2225, 894.6346
516.7046, 893.6484
517.1867, 895.7101
517.6688, 898.3299
518.1509, 899.8439
518.6331, 899.5332
519.1152, 899.2822
519.5973, 899.2897
520.0794, 899.5275
520.5615, 899.9701
521.0436, 900.8901
521.5258, 901.5242
522.0079, 901.5309
522.4900, 901.1196
522.9721, 901.3901
523.4542, 902.4567
523.9363, 903.8300
524.4185, 905.5555
524.9006, 907.6330
525.3827, 908.7156
525.8648, 908.8231
526.3469, 907.9675
526.8290, 905.2020
527.3112, 901.2925
527.7933, 899.4408
528.2754, 901.4526
528.7575, 903.9028
529.2396, 902.6307
529.7217, 898.4000
530.2039, 893.4977
530.6860, 887.5169
531.1681, 882.4461
531.6502, 880.1151
532.1323, 880.5267
532.6144, 880.7911
533.0966, 880.7152
533.5787, 879.4542
534.0608, 876.1965
534.5429, 868.2070
535.0250, 862.4891
535.5071, 861.4617
535.9893, 862.3490
536.4714, 860.9932
536.9535, 855.3931
537.4356, 851.5638
537.9177, 851.6866
538.3998, 854.8209
538.8820, 854.9491
539.3641, 851.6704
539.8462, 847.3213
540.3283, 842.6771
540.8104, 837.9974
541.2925, 835.0363
541.7747, 833.9288
542.2568, 834.2645
542.7389, 837.1932
543.2210, 841.1882
543.7031, 842.4108
544.1852, 838.5933
544.6674, 833.5964
545.1495, 830.1876
545.6316, 828.3467
546.1137, 828.0197
546.5958, 831.9185
547.0779, 835.0040
547.5601, 833.9175
548.0422, 828.3854
548.5243, 823.6143
549.0064, 820.6613
549.4885, 818.8413
549.9706, 817.6727
550.4528, 816.5765
550.9349, 817.2805
551.4170, 820.8055
551.8991, 825.3179
552.3812, 828.3563
552.8633, 829.9860
553.3455, 829.7032
553.8276, 826.8234
554.3097, 822.2595
554.7918, 818.5081
555.2739, 815.6321
555.7560, 814.2957
556.2382, 816.3610
556.7203, 820.0140
557.2024, 820.7404
557.6845, 818.2655
558.1666, 815.7787
558.6487, 816.5103
559.1309, 818.6021
559.6130, 819.6863
560.0951, 819.0452
560.5772, 817.5946
561.0593, 814.6790
561.5414, 811.4014
562.0236, 809.7455
562.5057, 811.0731
562.9878, 813.1154
563.4699, 815.9027
563.9520, 819.2173
564.4341, 820.9799
564.9163, 820.7788
565.3984, 819.5732
565.8805, 817.3414
566.3626, 813.5460
566.8447, 812.3381
567.3268, 814.3379
567.8090, 817.1275
568.2911, 817.8677
568.7732, 816.7839
569.2553, 815.7982
569.7374, 815.2645
570.2195, 815.0730
570.7017, 815.0627
571.1838, 815.2527
571.6659, 815.6949
572.1480, 817.0011
572.6301, 818.1482
573.1122, 817.9088
573.5944, 816.4741
574.0765, 815.5807
574.5586, 817.0823
575.0407, 818.5609
575.5228, 818.4095
576.0049, 815.7217
576.4871, 813.4155
576.9692, 811.3844
577.4513, 810.0341
577.9334, 809.8008
578.4155, 811.0614
578.8976, 812.6760
579.3798, 814.8704
579.8619, 817.0757
580.3440, 817.5394
580.8261, 816.1043
581.3082, 815.0358
581.7903, 815.8985
582.2725, 817.6566
582.7546, 816.4743
583.2367, 812.6284
583.7188, 809.7797
584.2009, 811.8700
584.6830, 816.0583
585.1652, 818.9271
585.6473, 820.1002
586.1294, 819.4777
586.6115, 814.4071
587.0936, 808.6404
587.5757, 806.1976
588.0579, 812.1589
588.5400, 816.7078
589.0221, 817.1686
589.5042, 815.0636
589.9863, 813.9467
590.4684, 814.0817
590.9506, 814.8312
591.4327, 816.3598
591.9148, 818.4850
592.3969, 819.7089
592.8790, 820.1249
593.3611, 819.2769
593.8433, 815.7087
594.3254, 810.3031
594.8075, 807.9567
595.2896, 809.0873
595.7717, 811.0963
596.2538, 811.5047
596.7360, 810.9911
597.2181, 810.7606
597.7002, 811.1677
598.1823, 811.8413
598.6644, 813.2970
599.1465, 814.7276
599.6287, 814.7426
600.1108, 811.3021
600.5929, 808.0262
601.0750, 805.5510
601.5571, 804.0580
602.0392, 804.4221
602.5214, 808.3358
603.0035, 811.8047
603.4856, 812.9973
603.9677, 811.7108
604.4498, 811.1984
604.9319, 811.7363
605.4141, 812.1390
605.8962, 810.8531
606.3783, 808.2308
606.8604, 806.9596
607.3425, 807.5829
607.8246, 808.6853
608.3068, 808.9055
608.7889, 808.3058
609.2710, 806.9508
609.7531, 803.9561
610.2352, 801.2999
610.7173, 800.1693
611.1995, 800.3909
611.6816, 801.4525
612.1637, 804.4326
612.6458, 807.0506
613.1279, 808.5019
613.6100, 808.7089
614.0922, 808.3257
614.5743, 807.3744
615.0564, 805.8102
615.5385, 803.0801
616.0206, 798.4820
616.5027, 797.2145
616.9849, 800.0674
617.4670, 803.8766
617.9491, 804.6603
618.4312, 803.0380
618.9133, 802.0601
619.3954, 802.2211
619.8776, 803.5239
620.3597, 807.7252
620.8418, 813.0374
621.3239, 815.4308
621.8060, 809.5433
622.2881, 803.6913
622.7703, 803.3820
623.2524, 807.3570
623.7345, 810.2940
624.2166, 809.8525
624.6987, 809.0215
625.1808, 809.1655
625.6630, 810.4342
626.1451, 810.3209
626.6272, 807.8361
627.1093, 805.5498
627.5914, 805.5739
628.0735, 808.1245
628.5557, 809.6074
629.0378, 809.6326
629.5199, 809.4166
630.0020, 810.6847
630.4841, 812.9388
630.9662, 814.6382
631.4484, 815.4409
631.9305, 815.5013
632.4126, 814.4215
632.8947, 812.7742
633.3768, 811.6757
633.8589, 812.3049
634.3411, 812.8990
634.8232, 812.4625
635.3053, 811.2386
635.7874, 810.7083
636.2695, 810.8304
636.7516, 811.9468
637.2338, 814.8790
637.7159, 819.8512
638.1980, 821.1427
638.6801, 817.6522
639.1622, 813.5739
639.6443, 812.1358
640.1265, 813.0988
640.6086, 814.4987
641.0907, 816.2142
641.5728, 818.0670
642.0549, 820.1904
642.5370, 822.2665
643.0192, 823.8270
643.5013, 824.9901
643.9834, 825.1357
644.4655, 822.5632
644.9476, 819.0000
645.4297, 817.2693
645.9119, 820.1273
646.3940, 822.7850
646.8761, 824.2610
647.3582, 824.6491
647.8403, 823.7971
648.3224, 820.0288
648.8046, 818.4508
649.2867, 821.8783
649.7688, 829.5729
650.2509, 833.9204
650.7330, 834.7001
651.2151, 834.8500
651.6973, 836.7899
652.1794, 839.7191
652.6615, 841.5173
653.1436, 841.9882
653.6257, 842.3636
654.1078, 843.0432
654.5900, 844.3947
655.0721, 847.0140
655.5542, 851.8654
656.0363, 856.2216
656.5184, 859.1577
657.0005, 861.1229
657.4827, 862.5903
657.9648, 861.9819
658.4469, 863.7246
658.9290, 869.5553
659.4111, 877.3475
659.8932, 881.3990
660.3754, 881.1655
660.8575, 881.7563
661.3396, 885.3671
661.8217, 890.8491
662.3038, 895.6238
662.7859, 899.7272
663.2681, 903.4530
663.7502, 906.4525
664.2323, 909.4916
664.7144, 914.2212
665.1965, 920.5565
665.6786, 924.6375
666.1608, 922.2620
666.6429, 919.0054
667.1250, 918.6079
667.6071, 923.0970
668.0892, 925.8307
668.5714, 925.7482
669.0535, 925.1290
669.5356, 926.3529
670.0177, 929.9469
670.4998, 931.8148
670.9819, 931.4695
671.4641, 929.6118
671.9462, 926.7638
672.4283, 923.1910
672.9104, 919.7718
673.3925, 916.9728
673.8746, 914.0637
674.3568, 909.5565
674.8389, 904.4217
675.3210, 900.7874
675.8031, 900.9883
676.2852, 901.4047
676.7673, 900.7953
677.2495, 899.1823
677.7316, 897.0394
678.2137, 894.1902
678.6958, 891.1349
679.1779, 888.4307
679.6600, 885.9324
680.1422, 880.6045
680.6243, 871.8000
681.1064, 863.5841
681.5885, 859.1540
682.0706, 857.4963
682.5527, 855.4215
683.0349, 852.7338
683.5170, 850.2010
683.9991, 848.4331
684.4812, 847.1121
684.9633, 845.7731
685.4454, 844.1458
685.9276, 843.1680
686.4097, 843.9603
686.8918, 845.1844
687.3739, 845.4189
687.8560, 844.9990
688.3381, 842.6740
688.8203, 836.7878
689.3024, 830.3762
689.7845, 829.3280
690.2666, 834.1177
690.7487, 837.2667
691.2308, 836.1455
691.7130, 833.3729
692.1951, 833.9728
692.6772, 837.0070
693.1593, 839.0992
693.6414, 837.4734
694.1235, 835.1880
694.6057, 834.6890
695.0878, 835.6172
695.5699, 836.3288
696.0520, 836.9525
696.5341, 836.6535
697.0162, 834.4556
697.4984, 830.4354
697.9805, 828.2435
698.4626, 828.0996
698.9447, 829.3826
699.4268, 832.4461
699.9089, 837.1388
700.3911, 839.5809
700.8732, 839.6139
701.3553, 839.4354
701.8374, 841.5712
702.3195, 844.6259
702.8016, 845.8294
703.2838, 844.5201
703.7659, 843.5501
704.2480, 845.2092
704.7301, 847.7638
705.2122, 849.5838
705.6943, 850.2231
706.1765, 850.2974
706.6586, 849.4946
707.1407, 848.4374
707.6228, 847.6732
708.1049, 846.9627
708.5870, 847.7291
709.0692, 850.6030
709.5513, 854.2619
710.0334, 856.0890
710.5155, 856.4808
710.9976, 857.6543
711.4797, 861.4443
711.9618, 864.9128
712.4439, 864.2552
712.9260, 860.8651
713.4081, 858.1014
713.8903, 857.6792
714.3724, 857.7607
714.8545, 857.8978
715.3366, 857.9987
715.8187, 857.5441
716.3008, 855.5348
716.7830, 854.7914
717.2651, 856.9780
717.7472, 861.4901
718.2293, 863.0702
718.7114, 861.5925
719.1935, 859.3459
719.6757, 857.3304
720.1578, 855.6993
720.6399, 855.0262
721.1220, 855.2455
721.6041, 855.0591
722.0862, 852.7781
722.5684, 850.3579
723.0505, 849.1989
723.5326, 849.5854
724.0147, 850.7083
724.4968, 853.5884
724.9789, 856.1520
725.4611, 857.0706
725.9432, 855.9807
726.4253, 854.2233
726.9074, 851.2361
727.3895, 849.2547
727.8716, 851.8256
728.3538, 857.6906
728.8359, 861.4279
729.3180, 861.8434
729.8001, 861.6270
730.2822, 863.5602
730.7643, 866.2912
731.2465, 867.8859
731.7286, 866.4290
732.2107, 865.9268
732.6928, 867.9118
733.1749, 871.3575
733.6570, 874.5673
734.1392, 876.9379
734.6213, 880.4666
735.1034, 886.0527
735.5855, 892.1829
736.0676, 895.4740
736.5497, 896.0998
737.0319, 896.7326
737.5140, 897.9376
737.9961, 900.0503
738.4782, 903.9689
738.9603, 909.1833
739.4424, 914.3680
739.9246, 919.0177
740.4067, 923.4429
740.8888, 928.0962
741.3709, 932.7192
741.8530, 936.2332
742.3351, 938.0133
742.8173, 939.6019
743.2994, 941.2186
743.7815, 943.0026
744.2636, 946.0609
744.7457, 950.5156
745.2278, 954.5167
745.7100, 957.0984
746.1921, 958.4252
746.6742, 958.1221
747.1563, 956.4675
747.6384, 955.4210
748.1205, 956.9552
748.6027, 958.8273
749.0848, 959.8320
749.5669, 959.8815
750.0490, 958.3988
750.5311, 953.7410
751.0132, 949.3184
751.4954, 946.9962
751.9775, 947.0303
752.4596, 945.2586
752.9417, 941.4972
753.4238, 936.7127
753.9059, 930.4044
754.3881, 923.7692
754.8702, 920.3550
755.3523, 920.5109
755.8344, 920.5710
756.3165, 918.0829
756.7986, 914.1526
757.2808, 909.4445
757.7629, 903.4971
758.2450, 898.7832
758.7271, 895.2749
759.2092, 893.4498
759.6913, 894.0800
760.1735, 898.1017
760.6556, 900.6326
761.1377, 901.4177
761.6198, 901.1050
762.1019, 900.3117
762.5840, 898.9911
763.0662, 896.7678
763.5483, 893.3419
764.0304, 890.2814
764.5125, 889.1129
764.9946, 889.0086
765.4767, 889.1564
765.9589, 890.3538
766.4410, 890.0184
766.9231, 886.2318
767.4052, 881.6522
767.8873, 879.2213
768.3694, 879.8182
768.8516, 879.1582
769.3337, 876.4735
769.8158, 873.1401
770.2979, 871.3659
770.7800, 870.7044
771.2621, 869.4547
771.7443, 866.9146
772.2264, 864.2994
772.7085, 862.7336
773.1906, 861.7378
773.6727, 860.5977
774.1548, 857.6213
774.6370, 856.3958
775.1191, 858.9557
775.6012, 862.9474
776.0833, 864.8754
776.5654, 864.7510
777.0475, 862.2384
777.5297, 856.4635
778.0118, 849.7219
778.4939, 845.7903
778.9760, 844.3995
779.4581, 844.7386
779.9402, 847.7708
780.4224, 850.5516
780.9045, 850.6107
781.3866, 848.7189
781.8687, 846.3247
782.3508, 842.4650
782.8329, 839.7908
783.3151, 839.3600
783.7972, 840.1642
784.2793, 839.8592
784.7614, 838.1862
785.2435, 836.8241
785.7256, 836.2274
786.2078, 836.2262
786.6899, 837.0070
787.1720, 838.2151
787.6541, 838.4852
788.1362, 836.2253
788.6183, 833.8304
789.1005, 833.3033
789.5826, 833.9039
790.0647, 833.7728
790.5468, 831.6385
791.0289, 829.7994
791.5110, 828.8626
791.9932, 828.4924
792.4753, 827.4564
792.9574, 825.5594
793.4395, 824.6636
793.9216, 825.6820
794.4037, 827.7839
794.8859, 829.6087
795.3680, 831.1854
795.8501, 832.5450
796.3322, 833.8455
796.8143, 834.7958
797.2964, 835.4723
797.7786, 835.7048
798.2607, 834.7365
798.7428, 830.2700
799.2249, 828.1463
799.7070, 830.5856
800.1891, 835.9802
800.6713, 838.7972
801.1534, 838.9953
801.6355, 839.2411
802.1176, 840.6078
802.5997, 842.7189
803.0818, 845.2496
803.5640, 848.0862
804.0461, 850.8715
804.5282, 853.1768
805.0103, 855.6582
805.4924, 858.5438
805.9745, 861.8528
806.4567, 865.6916
806.9388, 870.4899
807.4209, 874.6912
807.9030, 877.5034
808.3851, 879.6364
808.8672, 882.9948
809.3494, 887.5842
809.8315, 893.6038
810.3136, 903.0205
810.7957, 912.1053
811.2778, 915.8391
811.7599, 915.9994
812.2421, 917.5786
812.7242, 922.4865
813.2063, 928.9391
813.6884, 936.8096
814.1705, 945.8052
814.6526, 955.2347
815.1348, 965.6055
815.6169, 974.5114
816.0990, 980.6157
816.5811, 985.5721
817.0632, 993.0877
817.5453, 1002.781
818.0275, 1012.919
818.5096, 1022.518
818.9917, 1032.397
819.4738, 1043.810
819.9559, 1055.963
820.4380, 1066.532
820.9202, 1073.449
821.4023, 1080.959
821.8844, 1089.463
822.3665, 1099.024
822.8486, 1110.001
823.3307, 1122.352
823.8129, 1134.615
824.2950, 1146.406
824.7771, 1157.700
825.2592, 1169.076
825.7413, 1179.982
826.2234, 1189.631
826.7056, 1195.182
827.1877, 1202.117
827.6698, 1214.143
828.1519, 1228.808
828.6340, 1240.953
829.1161, 1250.572
829.5983, 1257.038
830.0804, 1259.178
830.5625, 1259.560
831.0446, 1263.451
831.5267, 1270.235
832.0089, 1277.172
832.4910, 1284.417
832.9731, 1289.438
833.4552, 1287.533
833.9373, 1282.496
834.4194, 1280.445
834.9016, 1286.774
835.3837, 1291.210
835.8658, 1290.880
836.3479, 1289.189
836.8300, 1292.005
837.3121, 1300.006
837.7943, 1305.297
838.2764, 1306.078
838.7585, 1305.165
839.2406, 1304.503
839.7227, 1305.343
840.2048, 1310.434
840.6870, 1321.698
841.1691, 1334.898
841.6512, 1347.557
842.1333, 1361.385
842.6154, 1378.602
843.0975, 1400.424
843.5797, 1422.754
844.0618, 1445.174
844.5439, 1468.639
845.0260, 1493.317
845.5081, 1519.677
845.9902, 1549.479
846.4724, 1582.906
846.9545, 1620.338
847.4366, 1664.164
847.9187, 1711.299
848.4008, 1757.518
848.8829, 1800.769
849.3651, 1847.684
849.8472, 1899.866
850.3293, 1955.130
850.8114, 2012.121
851.2935, 2070.888
851.7756, 2131.492
852.2578, 2193.750
852.7399, 2257.146
853.2220, 2322.306
853.7041, 2388.454
854.1862, 2454.131
854.6683, 2518.522
855.1505, 2584.836
855.6326, 2657.785
856.1147, 2730.554
856.5968, 2799.027
857.0789, 2863.398
857.5610, 2924.372
858.0432, 2981.196
858.5253, 3035.022
859.0074, 3090.189
859.4895, 3142.712
859.9716, 3179.767
860.4537, 3201.687
860.9359, 3210.132
861.4180, 3205.296
861.9001, 3188.449
862.3822, 3159.506
862.8643, 3118.927
863.3464, 3069.021
863.8286, 3012.515
864.3107, 2945.584
864.7928, 2866.796
865.2749, 2776.840
865.7570, 2680.624
866.2391, 2577.692
866.7213, 2474.007
867.2034, 2368.229
867.6855, 2265.264
868.1676, 2168.167
868.6497, 2076.184
869.1318, 1990.196
869.6140, 1906.908
870.0961, 1832.987
870.5782, 1771.788
871.0603, 1719.492
871.5424, 1666.408
872.0245, 1612.046
872.5067, 1561.857
872.9888, 1517.048
873.4709, 1476.508
873.9530, 1438.038
874.4351, 1402.202
874.9172, 1371.018
875.3994, 1346.290
875.8815, 1323.554
876.3636, 1302.065
876.8457, 1281.237
877.3278, 1259.874
877.8099, 1236.638
878.2921, 1217.343
878.7742, 1203.015
879.2563, 1191.689
879.7384, 1180.744
880.2205, 1170.593
880.7026, 1162.711
881.1848, 1157.672
881.6669, 1153.069
882.1490, 1145.971
882.6311, 1139.399
883.1132, 1136.198
883.5953, 1137.754
884.0775, 1139.354
884.5596, 1140.599
885.0417, 1142.599
885.5238, 1146.785
886.0059, 1152.638
886.4880, 1156.720
886.9702, 1158.932
887.4523, 1160.881
887.9344, 1162.622
888.4165, 1165.453
888.8986, 1171.289
889.3807, 1180.178
889.8629, 1187.357
890.3450, 1191.792
890.8271, 1194.940
891.3092, 1196.615
891.7913, 1197.443
892.2734, 1202.008
892.7556, 1209.992
893.2377, 1215.238
893.7198, 1212.672
894.2019, 1207.223
894.6840, 1204.140
895.1661, 1202.368
895.6483, 1199.069
896.1304, 1191.579
896.6125, 1184.630
897.0946, 1179.485
897.5767, 1175.184
898.0588, 1170.228
898.5410, 1164.597
899.0231, 1156.818
899.5052, 1145.710
899.9873, 1134.410
900.4694, 1127.192
900.9515, 1122.276
901.4337, 1116.544
901.9158, 1108.383
902.3979, 1100.879
902.8800, 1095.621
903.3621, 1090.950
903.8442, 1085.131
904.3264, 1077.675
904.8085, 1072.763
905.2906, 1071.074
905.7727, 1068.844
906.2548, 1059.986
906.7369, 1049.059
907.2191, 1044.328
907.7012, 1046.782
908.1833, 1049.617
908.6654, 1049.336
909.1475, 1049.037
909.6296, 1050.642
910.1118, 1054.104
910.5939, 1056.534
911.0760, 1057.612
911.5581, 1059.345
912.0402, 1063.429
912.5223, 1068.621
913.0045, 1071.847
913.4866, 1073.812
913.9687, 1076.955
914.4508, 1083.105
914.9329, 1089.975
915.4150, 1096.491
915.8972, 1103.054
916.3793, 1110.673
916.8614, 1119.293
917.3435, 1129.163
917.8256, 1140.917
918.3077, 1152.686
918.7899, 1160.122
919.2720, 1165.316
919.7541, 1173.486
920.2362, 1187.440
920.7183, 1201.495
921.2004, 1213.693
921.6826, 1224.311
922.1647, 1233.796
922.6468, 1241.780
923.1289, 1249.828
923.6110, 1257.985
924.0931, 1266.177
924.5753, 1274.926
925.0574, 1283.375
925.5395, 1288.376
926.0216, 1289.857
926.5037, 1293.156
926.9858, 1304.168
927.4680, 1315.405
927.9501, 1322.168
928.4322, 1324.664
928.9143, 1325.665
929.3964, 1324.580
929.8785, 1324.314
930.3607, 1327.003
930.8428, 1330.638
931.3249, 1330.471
931.8070, 1327.281
932.2891, 1323.634
932.7712, 1321.683
933.2534, 1318.387
933.7355, 1310.608
934.2176, 1301.113
934.6997, 1295.666
935.1818, 1295.927
935.6639, 1294.298
936.1461, 1289.542
936.6282, 1283.311
937.1103, 1277.940
937.5924, 1272.715
938.0745, 1265.885
938.5566, 1256.650
939.0388, 1248.003
939.5209, 1241.701
940.0030, 1236.457
940.4851, 1231.511
940.9672, 1226.924
941.4493, 1221.799
941.9315, 1215.938
942.4136, 1210.488
942.8957, 1206.485
943.3778, 1203.267
943.8599, 1199.536
944.3420, 1195.313
944.8242, 1190.760
945.3063, 1185.816
945.7884, 1180.760
946.2705, 1175.036
946.7526, 1169.402
947.2347, 1166.275
947.7169, 1166.096
948.1990, 1165.762
948.6811, 1164.599
949.1632, 1162.709
949.6453, 1160.632
950.1274, 1157.815
950.6096, 1152.827
951.0917, 1142.941
951.5738, 1135.975
952.0559, 1137.049
952.5380, 1139.881
953.0201, 1139.433
953.5023, 1135.095
953.9844, 1131.930
954.4665, 1130.042
954.9486, 1129.209
955.4307, 1130.745
955.9128, 1132.375
956.3950, 1130.560
956.8771, 1125.468
957.3591, 1121.082
957.8412, 1119.146
958.3234, 1117.746
958.8055, 1116.549
959.2876, 1115.336
959.7697, 1113.319
960.2518, 1110.487
960.7339, 1106.678
961.2161, 1101.150
961.6982, 1095.742
962.1803, 1093.299
962.6624, 1091.972
963.1445, 1088.813
963.6266, 1081.676
964.1088, 1074.581
964.5909, 1067.522
965.0730, 1060.781
965.5551, 1054.675
966.0372, 1049.212
966.5193, 1044.631
967.0015, 1041.007
967.4836, 1036.809
967.9657, 1030.851
968.4478, 1023.862
968.9299, 1016.061
969.4120, 1007.530
969.8942, 1000.136
970.3763, 994.2236
970.8584, 988.8011
971.3405, 983.7462
971.8226, 978.6989
972.3047, 972.6916
972.7869, 965.7215
973.2690, 957.5656
973.7511, 946.5438
974.2332, 936.6818
974.7153, 931.4548
975.1974, 928.1650
975.6796, 922.6204
976.1617, 913.2606
976.6438, 905.9580
977.1259, 901.3624
977.6080, 897.7531
978.0901, 894.1084
978.5723, 890.0399
979.0544, 884.2368
979.5365, 876.6411
980.0186, 869.5714
980.5007, 864.6956
980.9828, 860.2021
981.4650, 854.7090
981.9471, 848.6457
982.4292, 845.1953
982.9113, 844.6021
983.3934, 843.9204
983.8755, 842.4038
984.3577, 839.5929
984.8398, 834.1039
985.3219, 826.9945
985.8040, 820.2982
986.2861, 812.9808
986.7682, 808.7245
987.2504, 808.7660
987.7325, 810.8497
988.2146, 813.4890
988.6967, 816.5531
989.1788, 816.7067
989.6609, 813.6739
990.1431, 809.7192
990.6252, 806.4434
991.1073, 803.1766
991.5894, 798.4630
992.0715, 792.5057
992.5536, 790.2056
993.0358, 794.1132
993.5179, 796.5809
994.0000, 794.5015
994.4821, 790.0919
994.9642, 788.7482
995.4464, 789.7237
995.9285, 790.4858
996.4106, 790.4234
996.8927, 789.3798
997.3748, 785.4255
997.8569, 781.5154
998.3391, 781.2343
998.8212, 786.4282
999.3033, 788.5710
999.7854, 787.1769
1000.268, 784.7064
1000.750, 782.8444
1001.232, 781.4986
1001.714, 780.9487
1002.196, 781.0178
1002.678, 780.2375
1003.160, 776.2968
1003.642, 773.6054
1004.124, 774.0079
1004.607, 776.2917
1005.089, 776.9139
1005.571, 775.9751
1006.053, 775.6294
1006.535, 776.6277
1007.017, 777.8875
1007.499, 778.1199
1007.981, 778.1506
1008.464, 779.2546
1008.946, 783.2476
1009.428, 783.5653
1009.910, 778.5703
1010.392, 773.1678
1010.874, 770.8708
1011.356, 770.9496
1011.838, 771.0253
1012.320, 771.1539
1012.803, 771.6915
1013.285, 773.1001
1013.767, 774.7125
1014.249, 776.8622
1014.731, 778.8241
1015.213, 778.8253
1015.695, 776.5399
1016.177, 774.1447
1016.659, 771.8135
1017.142, 770.2506
1017.624, 770.4484
1018.106, 771.9154
1018.588, 774.4816
1019.070, 778.5663
1019.552, 780.5804
1020.034, 778.1729
1020.516, 775.6888
1020.999, 775.4147
1021.481, 773.4540
1021.963, 775.4357
1022.445, 772.0923
1022.927, 769.8325
1023.409, 770.8563
1023.891, 772.7413
1024.373, 773.9332
1024.855, 774.9036
1025.338, 776.7305
1025.820, 780.6987
1026.302, 781.5649
1026.784, 778.2736
1027.266, 774.3876
1027.748, 773.7249
1028.230, 775.0691
1028.712, 776.0682
1029.195, 776.5810
1029.677, 777.8636
1030.159, 781.9915
1030.641, 785.1761
1031.123, 785.8878
1031.605, 784.7645
1032.087, 783.5509
1032.569, 782.3168
1033.052, 782.4633
1033.534, 785.1267
1034.016, 787.5150
1034.498, 786.5540
1034.980, 784.1541
1035.462, 782.4396
1035.944, 781.3101
1036.426, 782.4877
1036.908, 786.9314
1037.391, 791.0258
1037.873, 791.6884
1038.355, 790.2013
1038.837, 789.5785
1039.319, 789.7375
1039.801, 790.2241
1040.283, 791.5064
1040.765, 792.2390
1041.247, 791.4132
1041.730, 790.1364
1042.212, 790.3217
1042.694, 791.9897
1043.176, 793.5349
1043.658, 794.8028
1044.140, 795.4494
1044.622, 795.2686
1045.104, 794.2645
1045.587, 791.9760
1046.069, 788.2223
1046.551, 786.0931
1047.033, 786.0801
1047.515, 786.7487
1047.997, 787.8643
1048.479, 788.9694
1048.961, 789.1254
1049.443, 788.4546
1049.926, 787.1502
1050.408, 784.4019
1050.890, 782.6223
1051.372, 783.1355
1051.854, 784.6241
1052.336, 786.4982
1052.818, 788.8888
1053.300, 788.9508
1053.782, 786.6485
1054.265, 784.1879
1054.747, 782.9620
1055.229, 782.4127
1055.711, 782.1443
1056.193, 782.1474
1056.675, 782.3890
1057.157, 782.5186
1057.639, 784.0289
1058.122, 787.8622
1058.604, 791.3386
1059.086, 789.6412
1059.568, 785.1732
1060.050, 783.0012
1060.532, 784.1494
1061.014, 784.6225
1061.496, 781.0890
1061.979, 778.5626
1062.461, 779.7005
1062.943, 783.5275
1063.425, 785.5286
1063.907, 785.8041
1064.389, 785.1129
1064.871, 783.1139
1065.353, 781.4418
1065.835, 781.8605
1066.318, 783.0938
1066.800, 783.2330
1067.282, 780.9938
1067.764, 782.1540
1068.246, 787.4923
1068.728, 792.4789
1069.210, 793.1807
1069.692, 791.5605
1070.174, 789.8083
1070.657, 788.3971
1071.139, 788.8106
1071.621, 793.6432
1072.103, 797.4996
1072.585, 799.3039
1073.067, 800.0455
1073.549, 801.7601
1074.031, 803.8265
1074.514, 802.8790
1074.996, 798.2796
1075.478, 794.7749
1075.960, 795.7750
1076.442, 798.5754
1076.924, 802.8433
1077.406, 807.7367
1077.888, 807.2230
1078.370, 800.9941
1078.853, 795.4875
1079.335, 792.6386
1079.817, 792.0168
1080.299, 794.9559
1080.781, 799.0072
1081.263, 800.7955
1081.745, 798.8258
1082.227, 796.7352
1082.709, 794.2936
1083.192, 792.3810
1083.674, 791.8801
1084.156, 792.1973
1084.638, 791.7606
1085.120, 790.7906
1085.602, 790.0304
1086.084, 789.7421
1086.566, 789.8175
1087.048, 790.9198
1087.531, 791.6810
1088.013, 789.9503
1088.495, 786.0240
1088.977, 783.5517
1089.459, 782.7817
1089.941, 782.3969
1090.423, 781.8419
1090.905, 781.0050
1091.388, 779.9115
1091.870, 778.4573
1092.352, 775.7838
1092.834, 771.3416
1093.316, 769.8115
1093.798, 772.8744
1094.280, 776.9525
1094.762, 778.3550
1095.245, 777.9957
1095.727, 776.7568
1096.209, 774.5993
1096.691, 772.7640
1097.173, 771.3824
1097.655, 770.2662
1098.137, 769.6103
1098.619, 768.9122
1099.101, 766.2659
1099.583, 762.6597
1100.066, 760.6162
1100.548, 762.4537
1101.030, 763.3292
1101.512, 760.7914
1101.994, 758.1091
1102.476, 758.0723
1102.958, 760.4520
1103.440, 761.6603
1103.923, 761.7634
1104.405, 761.7078
1104.887, 762.7833
1105.369, 763.0933
1105.851, 760.7705
1106.333, 757.1921
1106.815, 755.1382
1107.297, 754.8806
1107.780, 753.9919
1108.262, 752.1268
1108.744, 750.4857
1109.226, 750.4819
1109.708, 751.0031
1110.190, 750.5888
1110.672, 749.3879
1111.154, 749.9070
1111.636, 753.3403
1112.119, 755.1772
1112.601, 753.8107
1113.083, 751.7343
1113.565, 753.5674
1114.047, 757.0651
1114.529, 758.0153
1115.011, 755.3367
1115.493, 752.5341
1115.975, 749.6155
1116.458, 747.9667
1116.940, 748.8975
1117.422, 751.1052
1117.904, 749.5517
1118.386, 745.4911
1118.868, 743.3241
1119.350, 746.0490
1119.832, 748.1365
1120.315, 746.3234
1120.797, 743.7091
1121.279, 742.6475
1121.761, 743.1152
1122.243, 743.3916
1122.725, 743.4696
1123.207, 743.3281
1123.689, 742.0511
1124.172, 741.4818
1124.654, 743.8148
1125.136, 747.2972
1125.618, 748.7194
1126.100, 747.6229
1126.582, 746.6689
1127.064, 745.9827
1127.546, 745.7355
1128.028, 746.4813
1128.510, 747.4350
1128.993, 748.1366
1129.475, 748.3683
1129.957, 747.1808
1130.439, 743.7594
1130.921, 741.1566
1131.403, 739.8651
1131.885, 739.5893
1132.367, 740.7969
1132.850, 742.3714
1133.332, 742.1671
1133.814, 739.8929
1134.296, 738.9164
1134.778, 740.9442
1135.260, 742.6053
1135.742, 742.7966
1136.224, 742.1423
1136.707, 742.0009
1137.189, 742.1011
1137.671, 741.5363
1138.153, 739.7412
1138.635, 738.7823
1139.117, 740.6603
1139.599, 742.2869
1140.081, 741.9856
1140.563, 740.2320
1141.046, 738.9321
1141.528, 738.1876
1142.010, 738.6079
1142.492, 741.5724
1142.974, 743.7010
1143.456, 742.3676
1143.938, 740.0331
1144.420, 738.8376
1144.902, 738.7978
1145.385, 739.5162
1145.867, 740.9210
1146.349, 741.5750
1146.831, 739.0574
1147.313, 737.0409
1147.795, 739.0311
1148.277, 742.8479
1148.759, 744.7602
1149.242, 744.3331
1149.724, 744.0451
1150.206, 744.0280
1150.688, 743.9760
1151.170, 744.2219
1151.652, 743.8370
1152.134, 741.3356
1152.616, 737.3970
1153.099, 734.7091
1153.581, 733.6501
1154.063, 732.9129
1154.545, 732.2728
1155.027, 732.1690
1155.509, 733.6733
1155.991, 735.6479
1156.473, 736.4792
1156.955, 736.1451
1157.438, 736.4082
1157.920, 737.8341
1158.402, 738.9459
1158.884, 739.4707
1159.366, 739.3605
1159.848, 738.1969
1160.330, 736.4776
1160.812, 734.9176
1161.294, 733.5904
1161.777, 732.9227
1162.259, 732.9667
1162.741, 733.7695
1163.223, 735.8253
1163.705, 738.0591
1164.187, 737.5705
1164.669, 735.4196
1165.151, 734.2841
1165.634, 735.3549
1166.116, 735.4931
1166.598, 732.3995
1167.080, 730.1996
1167.562, 731.4005
1168.044, 734.8492
1168.526, 736.9069
1169.008, 737.6129
1169.490, 737.0273
1169.973, 734.3309
1170.455, 732.0441
1170.937, 731.1854
1171.419, 730.9464
1171.901, 730.6384
1172.383, 730.4448
1172.865, 732.6335
1173.347, 736.5927
1173.829, 739.0543
1174.312, 737.7582
1174.794, 735.3136
1175.276, 731.0741
1175.758, 727.4315
1176.240, 727.2428
1176.722, 730.3694
1177.204, 731.6425
1177.686, 731.1025
1178.169, 730.7982
1178.651, 733.5197
1179.133, 735.1389
1179.615, 731.3890
1180.097, 726.3488
1180.579, 726.6412
1181.061, 732.3607
1181.543, 735.0886
1182.026, 734.2480
1182.508, 732.9331
1182.990, 733.3798
1183.472, 734.1141
1183.954, 734.8945
1184.436, 735.0189
1184.918, 732.2148
1185.400, 726.2004
1185.882, 723.4106
1186.365, 724.8251
1186.847, 727.6704
1187.329, 731.2401
1187.811, 733.9921
1188.293, 734.3290
1188.775, 732.7656
1189.257, 730.9935
1189.739, 728.9302
1190.221, 727.9779
1190.704, 728.5443
1191.186, 729.4329
1191.668, 729.6682
1192.150, 729.5734
1192.632, 729.1476
1193.114, 728.5403
1193.596, 729.0463
1194.078, 730.8205
1194.561, 731.9688
1195.043, 731.6974
1195.525, 731.5750
1196.007, 733.8240
1196.489, 736.5868
1196.971, 738.0012
1197.453, 737.9481
1197.935, 737.7222
1198.417, 737.4694
1198.900, 735.4481
1199.382, 729.9615
1199.864, 725.2530
1200.346, 727.3298
1200.828, 731.7584
1201.310, 733.2080
1201.792, 730.9067
1202.274, 729.3961
1202.756, 728.7383
1203.239, 728.3866
1203.721, 728.1012
1204.203, 728.0186
1204.685, 728.8187
1205.167, 729.6454
1205.649, 729.0318
1206.131, 726.3276
1206.613, 725.3483
1207.096, 726.2401
1207.578, 727.4186
1208.060, 728.1845
1208.542, 728.6162
1209.024, 728.4718
1209.506, 728.1779
1209.988, 728.6205
1210.470, 730.5267
1210.953, 729.9450
1211.435, 726.4293
1211.917, 724.1426
1212.399, 727.7294
1212.881, 731.9261
1213.363, 730.3075
1213.845, 725.6907
1214.327, 723.2476
1214.809, 723.6420
1215.292, 725.0223
1215.774, 727.4603
1216.256, 729.9044
1216.738, 732.0515
1217.220, 733.3554
1217.702, 732.8036
1218.184, 731.1448
1218.666, 729.9812
1219.148, 729.4633
1219.631, 729.0497
1220.113, 728.6746
1220.595, 728.8923
1221.077, 731.6152
1221.559, 733.7997
1222.041, 731.7488
1222.523, 727.2059
1223.005, 724.4332
1223.488, 723.5946
1223.970, 724.6744
1224.452, 727.8349
1224.934, 731.1853
1225.416, 733.9342
1225.898, 735.5822
1226.380, 735.3214
1226.862, 733.5995
1227.344, 731.7509
1227.827, 729.6542
1228.309, 728.2735
1228.791, 727.7042
1229.273, 727.5282
1229.755, 727.7296
1230.237, 727.8778
1230.719, 727.6016
1231.201, 726.9943
1231.683, 726.1891
1232.166, 725.0836
1232.648, 725.1240
1233.130, 726.4979
1233.612, 728.4764
1234.094, 731.7794
1234.576, 734.2350
1235.058, 733.5946
1235.540, 730.9818
1236.023, 728.7906
1236.505, 727.0044
1236.987, 726.9848
1237.469, 729.0266
1237.951, 730.5552
1238.433, 729.0973
1238.915, 726.9646
1239.397, 725.1901
1239.880, 724.0480
1240.362, 724.3510
1240.844, 726.0160
1241.326, 727.9489
1241.808, 730.0383
1242.290, 731.4836
1242.772, 730.8344
1243.254, 730.3630
1243.736, 731.5327
1244.219, 733.5387
1244.701, 734.5663
1245.183, 734.6898
1245.665, 734.5600
1246.147, 734.2838
1246.629, 733.5692
1247.111, 731.0618
1247.593, 729.5521
1248.075, 730.7098
1248.558, 733.1179
1249.040, 732.9082
1249.522, 731.0260
1250.004, 732.0294
1250.486, 736.9508
1250.968, 739.7460
1251.450, 735.2551
1251.932, 730.9442
1252.415, 729.3602
1252.897, 729.5444
1253.379, 730.4423
1253.861, 731.3097
1254.343, 729.5139
1254.825, 724.3737
1255.307, 720.9838
1255.789, 721.5121
1256.271, 723.5471
1256.754, 727.2720
1257.236, 730.7615
1257.718, 729.1698
1258.200, 725.1276
1258.682, 723.7017
1259.164, 725.8434
1259.646, 728.6323
1260.128, 732.3933
1260.610, 734.7828
1261.093, 734.8651
1261.575, 733.7413
1262.057, 733.2307
1262.539, 732.5292
1263.021, 729.7140
1263.503, 729.4446
1263.985, 729.2035
1264.467, 726.5245
1264.950, 728.4419
1265.432, 725.5214
1265.914, 721.8549
1266.396, 722.9064
1266.878, 726.0104
1267.360, 728.6744
1267.842, 730.5231
1268.324, 729.4178
1268.807, 724.7141
1269.289, 722.5719
1269.771, 725.2967
1270.253, 729.0823
1270.735, 730.5908
1271.217, 731.0843
1271.699, 731.8715
1272.181, 732.8030
1272.663, 731.9120
1273.146, 729.2617
1273.628, 728.2524
1274.110, 730.1327
1274.592, 732.2119
1275.074, 732.6171
1275.556, 732.3846
1276.038, 732.4506
1276.520, 732.4838
1277.002, 730.6008
1277.485, 727.2491
1277.967, 724.9988
1278.449, 724.5413
1278.931, 724.9122
1279.413, 726.2321
1279.895, 727.5822
1280.377, 728.7426
1280.859, 729.4548
1281.342, 728.9339
1281.824, 727.4258
1282.306, 725.2420
1282.788, 722.1835
1283.270, 720.8584
1283.752, 722.9531
1284.234, 725.5612
1284.716, 728.2216
1285.198, 730.1081
1285.681, 728.3186
1286.163, 725.2179
1286.645, 725.8596
1287.127, 731.5225
1287.609, 733.3513
1288.091, 728.6923
1288.573, 726.1735
1289.055, 728.9710
1289.537, 733.2919
1290.020, 735.0670
1290.502, 734.7294
1290.984, 732.1634
1291.466, 727.3787
1291.948, 723.4780
1292.430, 720.3232
1292.912, 719.4106
1293.394, 721.5494
1293.877, 724.1077
1294.359, 724.4069
1294.841, 724.1834
1295.323, 725.4330
1295.805, 727.5033
1296.287, 727.0568
1296.769, 724.3286
1297.251, 723.7451
1297.734, 726.5434
1298.216, 728.5850
1298.698, 725.6061
1299.180, 722.9576
1299.662, 723.7405
1300.144, 726.3157
1300.626, 726.5108
1301.108, 725.1052
1301.590, 725.2917
1302.073, 727.6742
1302.555, 729.0324
1303.037, 726.5046
1303.519, 724.9528
1304.001, 725.8033
1304.483, 727.6869
1304.965, 728.9180
##END=



