##NAMES=Jorgensenite
##RRUFFID=R100009
##IDEAL CHEMISTRY=Na_2_Sr_14_Na_2_Al_12_F_64_(OH)_4_
##LOCALITY=Ivigtut, Frederikshab District, South West Greenland
##OWNER=RRUFF
##SOURCE=William Pinch
##DESCRIPTION=Colorless massive, associated with pyrite, co-type sample
##STATUS=The identification of this mineral has been confirmed by single-crystal X-ray diffraction.
##URL=rruff.info/R100009
91.18097, 0.0000000E+00
91.66309, 2998.104
92.14520, 2970.924
92.62732, 2980.279
93.10944, 3021.637
93.59155, 3067.768
94.07367, 3094.996
94.55579, 3107.193
95.03790, 3112.098
95.52002, 3115.970
96.00214, 3119.914
96.48425, 3117.929
96.96637, 3109.554
97.44849, 3099.094
97.93060, 3089.157
98.41272, 3076.980
98.89484, 3060.190
99.37695, 3043.742
99.85907, 3025.643
100.3412, 3011.625
100.8233, 3002.043
101.3054, 2995.715
101.7875, 2991.475
102.2697, 2988.593
102.7518, 2986.953
103.2339, 2985.543
103.7160, 2982.925
104.1981, 2981.216
104.6802, 2981.842
105.1624, 2984.389
105.6445, 2986.596
106.1266, 2985.573
106.6087, 2981.146
107.0908, 2978.094
107.5729, 2975.949
108.0551, 2975.399
108.5372, 2978.014
109.0193, 2984.833
109.5014, 2991.956
109.9835, 2995.562
110.4656, 2996.320
110.9478, 2996.184
111.4299, 2995.360
111.9120, 2994.084
112.3941, 2994.408
112.8762, 2997.945
113.3583, 3002.047
113.8405, 3005.198
114.3226, 3007.307
114.8047, 3009.061
115.2868, 3011.507
115.7689, 3015.483
116.2510, 3017.551
116.7332, 3016.012
117.2153, 3013.637
117.6974, 3012.205
118.1795, 3012.274
118.6616, 3013.242
119.1437, 3013.740
119.6259, 3012.612
120.1080, 3012.344
120.5901, 3014.294
121.0722, 3016.786
121.5543, 3017.504
122.0364, 3015.081
122.5186, 3010.233
123.0007, 3006.964
123.4828, 3005.722
123.9649, 3005.063
124.4470, 3005.404
124.9291, 3006.231
125.4113, 3005.352
125.8934, 3000.099
126.3755, 2992.040
126.8576, 2988.352
127.3397, 2992.781
127.8218, 2999.512
128.3040, 3002.961
128.7861, 3002.586
129.2682, 3001.616
129.7503, 3003.106
130.2324, 3005.607
130.7145, 3006.579
131.1967, 3003.766
131.6788, 2998.634
132.1609, 2995.834
132.6430, 2996.844
133.1251, 2998.239
133.6072, 2997.960
134.0894, 2996.677
134.5715, 2995.952
135.0536, 2997.213
135.5357, 3000.656
136.0178, 3003.593
136.4999, 3005.839
136.9821, 3007.685
137.4642, 3009.046
137.9463, 3010.027
138.4284, 3010.910
138.9105, 3012.143
139.3926, 3014.323
139.8748, 3015.132
140.3569, 3013.589
140.8390, 3011.635
141.3211, 3010.524
141.8032, 3010.578
142.2853, 3011.327
142.7675, 3011.995
143.2496, 3012.146
143.7317, 3013.126
144.2138, 3016.012
144.6959, 3019.474
145.1780, 3021.740
145.6602, 3022.084
146.1423, 3021.285
146.6244, 3020.945
147.1065, 3021.219
147.5886, 3021.372
148.0707, 3021.360
148.5529, 3021.062
149.0350, 3019.966
149.5171, 3017.476
149.9992, 3014.342
150.4813, 3011.559
150.9634, 3008.889
151.4456, 3007.203
151.9277, 3007.605
152.4098, 3010.286
152.8919, 3013.049
153.3740, 3015.903
153.8561, 3018.010
154.3383, 3018.301
154.8204, 3016.157
155.3025, 3012.997
155.7846, 3011.064
156.2667, 3010.418
156.7488, 3011.063
157.2310, 3013.655
157.7131, 3017.024
158.1952, 3020.202
158.6773, 3022.780
159.1594, 3024.627
159.6415, 3025.224
160.1237, 3023.656
160.6058, 3021.728
161.0879, 3019.059
161.5700, 3016.344
162.0521, 3014.453
162.5342, 3013.929
163.0164, 3014.734
163.4985, 3016.487
163.9806, 3020.495
164.4627, 3024.022
164.9448, 3026.030
165.4269, 3026.874
165.9091, 3027.550
166.3912, 3028.883
166.8733, 3030.873
167.3554, 3031.954
167.8375, 3032.076
168.3196, 3031.538
168.8018, 3030.428
169.2839, 3028.787
169.7660, 3026.675
170.2481, 3023.755
170.7302, 3020.217
171.2123, 3018.264
171.6945, 3019.194
172.1766, 3021.147
172.6587, 3022.739
173.1408, 3023.981
173.6229, 3023.966
174.1050, 3020.177
174.5872, 3014.102
175.0693, 3010.046
175.5514, 3010.497
176.0335, 3013.612
176.5156, 3015.656
176.9977, 3015.970
177.4799, 3016.094
177.9620, 3018.111
178.4441, 3020.973
178.9262, 3021.894
179.4083, 3017.236
179.8904, 3008.274
180.3726, 3003.959
180.8547, 3007.646
181.3368, 3012.573
181.8189, 3015.866
182.3010, 3017.673
182.7831, 3018.787
183.2653, 3020.145
183.7474, 3021.896
184.2295, 3021.694
184.7116, 3016.457
185.1937, 3011.756
185.6758, 3009.771
186.1580, 3010.239
186.6401, 3011.579
187.1222, 3012.399
187.6043, 3012.856
188.0864, 3011.919
188.5685, 3008.580
189.0507, 3004.860
189.5328, 3001.425
190.0149, 2998.481
190.4970, 2996.185
190.9791, 2994.747
191.4612, 2994.535
191.9434, 2994.143
192.4255, 2993.383
192.9076, 2992.604
193.3897, 2992.437
193.8718, 2992.844
194.3539, 2992.694
194.8361, 2990.312
195.3182, 2984.005
195.8003, 2980.370
196.2824, 2981.815
196.7645, 2984.742
197.2466, 2985.904
197.7288, 2984.566
198.2109, 2981.696
198.6930, 2977.930
199.1751, 2972.835
199.6572, 2969.828
200.1393, 2971.099
200.6215, 2974.287
201.1036, 2975.778
201.5857, 2974.369
202.0678, 2972.583
202.5499, 2974.476
203.0320, 2979.707
203.5142, 2983.609
203.9963, 2983.330
204.4784, 2980.531
204.9605, 2979.265
205.4426, 2980.691
205.9247, 2983.083
206.4069, 2985.252
206.8890, 2987.133
207.3711, 2987.703
207.8532, 2984.896
208.3353, 2979.730
208.8174, 2977.699
209.2996, 2981.436
209.7817, 2986.331
210.2638, 2989.493
210.7459, 2990.902
211.2280, 2990.940
211.7101, 2989.698
212.1923, 2987.198
212.6744, 2983.831
213.1565, 2977.180
213.6386, 2972.160
214.1207, 2972.819
214.6028, 2978.027
215.0850, 2982.717
215.5671, 2981.474
216.0492, 2973.359
216.5313, 2967.064
217.0134, 2964.180
217.4955, 2962.054
217.9777, 2959.692
218.4598, 2957.142
218.9419, 2955.026
219.4240, 2954.247
219.9061, 2955.320
220.3882, 2955.167
220.8704, 2952.974
221.3525, 2950.339
221.8346, 2947.681
222.3167, 2945.165
222.7988, 2942.890
223.2809, 2940.895
223.7631, 2938.990
224.2452, 2938.190
224.7273, 2939.617
225.2094, 2940.950
225.6915, 2941.266
226.1736, 2940.388
226.6558, 2938.337
227.1379, 2934.859
227.6200, 2929.162
228.1021, 2925.865
228.5842, 2926.820
229.0663, 2928.211
229.5485, 2927.647
230.0306, 2925.149
230.5127, 2922.482
230.9948, 2921.518
231.4769, 2922.752
231.9590, 2922.891
232.4412, 2921.404
232.9233, 2919.376
233.4054, 2917.406
233.8875, 2915.574
234.3696, 2913.675
234.8517, 2911.430
235.3339, 2908.779
235.8160, 2906.907
236.2981, 2906.159
236.7802, 2905.900
237.2623, 2906.020
237.7444, 2906.414
238.2266, 2906.267
238.7087, 2904.647
239.1908, 2901.600
239.6729, 2899.170
240.1550, 2898.363
240.6371, 2897.578
241.1193, 2895.097
241.6014, 2890.854
242.0835, 2886.862
242.5656, 2884.665
243.0477, 2884.044
243.5298, 2883.688
244.0120, 2884.350
244.4941, 2884.712
244.9762, 2883.328
245.4583, 2880.119
245.9404, 2876.456
246.4225, 2872.398
246.9047, 2868.700
247.3868, 2866.987
247.8689, 2868.090
248.3510, 2870.766
248.8331, 2874.554
249.3152, 2879.736
249.7974, 2883.149
250.2795, 2881.822
250.7616, 2877.987
251.2437, 2874.502
251.7258, 2871.496
252.2079, 2869.544
252.6901, 2869.986
253.1722, 2873.242
253.6543, 2875.582
254.1364, 2874.784
254.6185, 2872.392
255.1006, 2869.655
255.5828, 2866.741
256.0649, 2863.865
256.5470, 2861.154
257.0291, 2858.526
257.5112, 2856.670
257.9933, 2856.484
258.4755, 2856.890
258.9576, 2857.485
259.4397, 2858.290
259.9218, 2858.313
260.4039, 2855.919
260.8860, 2850.594
261.3682, 2845.844
261.8503, 2842.489
262.3324, 2840.006
262.8145, 2838.449
263.2966, 2837.766
263.7787, 2837.116
264.2609, 2835.165
264.7430, 2831.438
265.2251, 2829.027
265.7072, 2829.446
266.1893, 2830.579
266.6714, 2831.517
267.1536, 2832.125
267.6357, 2832.637
268.1178, 2833.734
268.5999, 2835.855
269.0820, 2835.982
269.5641, 2831.822
270.0463, 2827.297
270.5284, 2823.894
271.0105, 2821.712
271.4926, 2820.203
271.9747, 2819.154
272.4568, 2818.738
272.9390, 2817.196
273.4211, 2812.511
273.9032, 2808.425
274.3853, 2805.933
274.8674, 2805.112
275.3495, 2806.000
275.8317, 2809.357
276.3138, 2815.248
276.7959, 2817.272
277.2780, 2810.827
277.7601, 2804.565
278.2422, 2800.344
278.7244, 2798.024
279.2065, 2797.079
279.6886, 2797.333
280.1707, 2798.604
280.6528, 2798.971
281.1349, 2797.918
281.6171, 2796.395
282.0992, 2794.415
282.5813, 2792.122
283.0634, 2789.571
283.5455, 2786.753
284.0276, 2783.863
284.5098, 2781.794
284.9919, 2781.533
285.4740, 2780.954
285.9561, 2779.667
286.4382, 2777.976
286.9203, 2775.943
287.4025, 2773.600
287.8846, 2771.543
288.3667, 2771.480
288.8488, 2775.701
289.3309, 2778.760
289.8130, 2779.530
290.2952, 2779.454
290.7773, 2780.093
291.2594, 2781.895
291.7415, 2783.863
292.2236, 2784.032
292.7057, 2780.195
293.1879, 2778.276
293.6700, 2779.542
294.1521, 2781.634
294.6342, 2782.672
295.1163, 2782.364
295.5984, 2781.877
296.0806, 2782.888
296.5627, 2786.413
297.0448, 2788.479
297.5269, 2788.365
298.0090, 2787.670
298.4911, 2787.178
298.9733, 2787.014
299.4554, 2787.049
299.9375, 2787.268
300.4196, 2787.875
300.9017, 2787.179
301.3839, 2784.266
301.8660, 2781.165
302.3481, 2778.060
302.8302, 2775.389
303.3123, 2774.117
303.7944, 2775.206
304.2766, 2778.530
304.7587, 2779.806
305.2408, 2777.682
305.7229, 2775.120
306.2050, 2772.396
306.6871, 2769.825
307.1693, 2767.883
307.6514, 2766.881
308.1335, 2766.586
308.6156, 2765.964
309.0977, 2764.183
309.5798, 2763.075
310.0620, 2764.054
310.5441, 2765.396
311.0262, 2764.651
311.5083, 2760.849
311.9904, 2755.488
312.4725, 2751.950
312.9547, 2753.163
313.4368, 2752.130
313.9189, 2746.948
314.4010, 2740.716
314.8831, 2736.429
315.3652, 2734.681
315.8474, 2733.440
316.3295, 2729.752
316.8116, 2722.103
317.2937, 2715.872
317.7758, 2712.442
318.2579, 2709.120
318.7401, 2704.116
319.2222, 2697.434
319.7043, 2690.213
320.1864, 2683.387
320.6685, 2676.804
321.1506, 2672.076
321.6328, 2671.635
322.1149, 2670.364
322.5970, 2665.591
323.0791, 2658.244
323.5612, 2650.933
324.0433, 2645.423
324.5255, 2641.521
325.0076, 2637.098
325.4897, 2630.230
325.9718, 2625.025
326.4539, 2623.381
326.9360, 2623.569
327.4182, 2623.013
327.9003, 2620.455
328.3824, 2616.711
328.8645, 2614.124
329.3466, 2614.885
329.8287, 2613.794
330.3109, 2609.062
330.7930, 2603.315
331.2751, 2598.769
331.7572, 2596.117
332.2393, 2594.915
332.7214, 2594.667
333.2036, 2596.293
333.6857, 2596.688
334.1678, 2595.729
334.6499, 2593.881
335.1320, 2590.546
335.6141, 2586.266
336.0963, 2583.035
336.5784, 2583.252
337.0605, 2587.636
337.5426, 2589.197
338.0247, 2586.191
338.5068, 2582.237
338.9890, 2577.627
339.4711, 2573.021
339.9532, 2569.435
340.4353, 2567.549
340.9174, 2567.210
341.3995, 2567.441
341.8817, 2569.587
342.3638, 2570.632
342.8459, 2570.172
343.3280, 2568.389
343.8101, 2564.963
344.2922, 2559.765
344.7744, 2554.235
345.2565, 2551.834
345.7386, 2555.300
346.2207, 2556.555
346.7028, 2553.781
347.1849, 2549.817
347.6671, 2546.581
348.1492, 2544.458
348.6313, 2542.875
349.1134, 2540.969
349.5955, 2538.420
350.0776, 2537.019
350.5598, 2538.469
351.0419, 2539.558
351.5240, 2538.955
352.0061, 2536.829
352.4882, 2533.946
352.9703, 2530.683
353.4525, 2527.132
353.9346, 2524.447
354.4167, 2523.375
354.8988, 2522.220
355.3809, 2520.414
355.8630, 2518.260
356.3452, 2516.251
356.8273, 2514.666
357.3094, 2513.179
357.7915, 2510.849
358.2736, 2506.999
358.7557, 2504.151
359.2379, 2504.038
359.7200, 2504.381
360.2021, 2503.055
360.6842, 2499.673
361.1663, 2496.310
361.6484, 2495.413
362.1306, 2497.188
362.6127, 2499.071
363.0948, 2501.996
363.5769, 2503.676
364.0590, 2502.528
364.5411, 2498.931
365.0233, 2494.566
365.5054, 2490.090
365.9875, 2485.683
366.4696, 2482.028
366.9517, 2478.755
367.4338, 2477.015
367.9160, 2478.861
368.3981, 2482.154
368.8802, 2483.645
369.3623, 2481.926
369.8444, 2478.322
370.3265, 2474.161
370.8087, 2469.231
371.2908, 2465.659
371.7729, 2465.446
372.2550, 2466.271
372.7371, 2465.564
373.2192, 2462.901
373.7014, 2460.103
374.1835, 2459.000
374.6656, 2459.070
375.1477, 2457.560
375.6298, 2452.994
376.1119, 2448.372
376.5941, 2447.391
377.0762, 2449.321
377.5583, 2449.927
378.0404, 2445.652
378.5225, 2439.972
379.0046, 2438.831
379.4868, 2443.016
379.9689, 2446.807
380.4510, 2446.082
380.9331, 2441.900
381.4152, 2437.940
381.8973, 2434.433
382.3795, 2431.057
382.8616, 2428.140
383.3437, 2425.229
383.8258, 2422.734
384.3079, 2420.492
384.7900, 2419.082
385.2722, 2420.500
385.7543, 2426.215
386.2364, 2429.103
386.7185, 2425.038
387.2006, 2417.948
387.6827, 2412.849
388.1649, 2410.749
388.6470, 2409.964
389.1291, 2408.997
389.6112, 2407.856
390.0933, 2405.927
390.5754, 2402.931
391.0576, 2399.421
391.5397, 2395.087
392.0218, 2390.416
392.5039, 2386.810
392.9860, 2385.221
393.4681, 2385.255
393.9503, 2385.074
394.4324, 2384.719
394.9145, 2384.122
395.3966, 2382.969
395.8787, 2381.691
396.3608, 2381.226
396.8430, 2381.759
397.3251, 2381.851
397.8072, 2379.087
398.2893, 2371.505
398.7714, 2366.410
399.2535, 2366.198
399.7357, 2366.001
400.2178, 2361.931
400.6999, 2355.098
401.1820, 2350.013
401.6641, 2350.593
402.1462, 2356.179
402.6284, 2358.108
403.1105, 2351.528
403.5926, 2346.953
404.0747, 2348.409
404.5568, 2351.978
405.0389, 2352.599
405.5211, 2348.327
406.0032, 2342.020
406.4853, 2338.849
406.9674, 2339.964
407.4495, 2340.650
407.9316, 2339.986
408.4138, 2339.150
408.8959, 2339.023
409.3780, 2339.440
409.8601, 2339.392
410.3422, 2337.851
410.8243, 2335.008
411.3065, 2332.435
411.7886, 2330.075
412.2707, 2328.060
412.7528, 2326.336
413.2349, 2324.959
413.7170, 2324.049
414.1992, 2323.680
414.6813, 2323.696
415.1634, 2324.553
415.6455, 2326.402
416.1276, 2326.100
416.6097, 2321.669
417.0919, 2315.532
417.5740, 2310.087
418.0561, 2305.398
418.5382, 2301.219
419.0203, 2297.039
419.5024, 2293.363
419.9846, 2291.667
420.4667, 2292.478
420.9488, 2293.534
421.4309, 2292.585
421.9130, 2290.359
422.3951, 2289.564
422.8773, 2293.255
423.3594, 2296.040
423.8415, 2293.121
424.3236, 2285.833
424.8057, 2279.136
425.2878, 2274.995
425.7700, 2272.754
426.2521, 2271.318
426.7342, 2271.106
427.2163, 2270.358
427.6984, 2268.195
428.1805, 2265.675
428.6627, 2264.047
429.1448, 2263.419
429.6269, 2262.819
430.1090, 2261.306
430.5911, 2258.811
431.0732, 2256.734
431.5554, 2255.840
432.0375, 2254.454
432.5196, 2251.494
433.0017, 2247.760
433.4838, 2244.690
433.9659, 2242.968
434.4481, 2241.915
434.9302, 2239.915
435.4123, 2235.674
435.8944, 2232.905
436.3765, 2232.642
436.8586, 2232.889
437.3408, 2232.760
437.8229, 2231.952
438.3050, 2230.113
438.7871, 2226.458
439.2692, 2221.217
439.7513, 2218.459
440.2335, 2220.253
440.7156, 2221.653
441.1977, 2221.102
441.6798, 2219.416
442.1619, 2217.399
442.6440, 2215.235
443.1262, 2213.553
443.6083, 2214.153
444.0904, 2217.467
444.5725, 2217.381
445.0546, 2209.467
445.5367, 2201.150
446.0189, 2198.628
446.5010, 2201.043
446.9831, 2203.136
447.4652, 2202.395
447.9473, 2199.489
448.4294, 2194.817
448.9116, 2188.001
449.3937, 2182.822
449.8758, 2182.451
450.3579, 2184.899
450.8400, 2185.521
451.3221, 2183.276
451.8043, 2181.010
452.2864, 2180.683
452.7685, 2181.362
453.2506, 2181.262
453.7327, 2179.999
454.2148, 2177.292
454.6970, 2172.111
455.1791, 2163.684
455.6612, 2158.623
456.1433, 2159.756
456.6254, 2161.786
457.1075, 2161.630
457.5897, 2159.640
458.0718, 2157.490
458.5539, 2156.110
459.0360, 2155.176
459.5181, 2153.677
460.0002, 2151.736
460.4824, 2148.965
460.9645, 2143.883
461.4466, 2138.999
461.9287, 2136.612
462.4108, 2136.782
462.8929, 2137.789
463.3751, 2138.011
463.8572, 2137.445
464.3393, 2136.856
464.8214, 2136.079
465.3035, 2135.482
465.7856, 2135.878
466.2678, 2136.226
466.7499, 2134.934
467.2320, 2131.309
467.7141, 2126.930
468.1962, 2123.974
468.6783, 2122.492
469.1605, 2121.737
469.6426, 2122.619
470.1247, 2123.027
470.6068, 2120.965
471.0889, 2117.031
471.5710, 2113.753
472.0532, 2112.967
472.5353, 2113.269
473.0174, 2112.368
473.4995, 2110.218
473.9816, 2108.174
474.4637, 2107.204
474.9459, 2106.506
475.4280, 2104.455
475.9101, 2100.689
476.3922, 2096.818
476.8743, 2093.417
477.3564, 2090.288
477.8386, 2087.032
478.3207, 2083.585
478.8028, 2080.569
479.2849, 2078.586
479.7670, 2077.654
480.2491, 2077.004
480.7313, 2076.769
481.2134, 2076.635
481.6955, 2076.871
482.1776, 2077.038
482.6597, 2076.428
483.1418, 2074.797
483.6240, 2072.543
484.1061, 2070.201
484.5882, 2067.273
485.0703, 2065.702
485.5524, 2066.373
486.0345, 2067.404
486.5167, 2068.583
486.9988, 2069.403
487.4809, 2068.869
487.9630, 2066.165
488.4451, 2062.202
488.9272, 2059.118
489.4094, 2056.847
489.8915, 2055.672
490.3736, 2056.617
490.8557, 2058.071
491.3378, 2059.144
491.8199, 2059.714
492.3021, 2059.751
492.7842, 2058.646
493.2663, 2057.078
493.7484, 2056.883
494.2305, 2058.368
494.7126, 2060.013
495.1948, 2061.076
495.6769, 2061.586
496.1590, 2061.678
496.6411, 2061.096
497.1232, 2060.586
497.6053, 2060.328
498.0875, 2060.419
498.5696, 2061.056
499.0517, 2062.279
499.5338, 2063.933
500.0159, 2065.904
500.4980, 2068.215
500.9802, 2070.480
501.4623, 2073.426
501.9444, 2075.568
502.4265, 2075.447
502.9086, 2074.377
503.3907, 2074.678
503.8729, 2077.262
504.3550, 2080.817
504.8371, 2082.948
505.3192, 2082.957
505.8013, 2083.516
506.2834, 2084.627
506.7656, 2086.298
507.2477, 2088.834
507.7298, 2091.940
508.2119, 2095.010
508.6940, 2097.736
509.1761, 2100.188
509.6583, 2102.557
510.1404, 2104.880
510.6225, 2106.822
511.1046, 2107.555
511.5867, 2108.513
512.0688, 2111.372
512.5510, 2116.029
513.0331, 2120.100
513.5152, 2122.196
513.9973, 2123.156
514.4794, 2124.153
514.9615, 2125.241
515.4437, 2126.040
515.9258, 2126.422
516.4079, 2126.305
516.8900, 2125.408
517.3721, 2123.673
517.8542, 2121.458
518.3364, 2118.731
518.8185, 2115.629
519.3006, 2112.545
519.7827, 2109.384
520.2648, 2105.186
520.7469, 2098.882
521.2291, 2090.729
521.7112, 2084.552
522.1933, 2082.510
522.6754, 2079.917
523.1575, 2076.448
523.6396, 2071.987
524.1218, 2066.056
524.6039, 2058.720
525.0860, 2051.327
525.5681, 2045.193
526.0502, 2040.337
526.5323, 2035.984
527.0145, 2032.759
527.4966, 2028.978
527.9787, 2023.591
528.4608, 2017.251
528.9429, 2010.561
529.4250, 2003.325
529.9072, 1996.900
530.3893, 1992.794
530.8714, 1990.424
531.3535, 1988.107
531.8356, 1985.727
532.3177, 1982.354
532.7999, 1976.712
533.2820, 1968.885
533.7641, 1962.012
534.2462, 1956.567
534.7283, 1951.677
535.2104, 1947.384
535.6926, 1943.277
536.1747, 1938.475
536.6568, 1932.740
537.1389, 1926.930
537.6210, 1922.348
538.1031, 1919.280
538.5853, 1916.022
539.0674, 1912.121
539.5495, 1908.529
540.0316, 1906.171
540.5137, 1904.165
540.9958, 1901.097
541.4780, 1896.352
541.9601, 1890.649
542.4422, 1884.621
542.9243, 1878.146
543.4064, 1873.249
543.8885, 1871.022
544.3707, 1869.397
544.8528, 1867.018
545.3349, 1864.113
545.8170, 1861.255
546.2991, 1858.644
546.7813, 1856.145
547.2634, 1853.642
547.7455, 1851.144
548.2276, 1848.674
548.7097, 1846.275
549.1918, 1843.767
549.6740, 1840.776
550.1561, 1837.090
550.6382, 1834.354
551.1203, 1833.400
551.6024, 1832.585
552.0845, 1831.215
552.5667, 1829.313
553.0488, 1826.940
553.5309, 1824.134
554.0130, 1821.140
554.4951, 1818.334
554.9772, 1815.557
555.4594, 1813.488
555.9415, 1813.608
556.4236, 1812.990
556.9057, 1809.619
557.3878, 1804.796
557.8699, 1801.123
558.3521, 1799.902
558.8342, 1799.825
559.3163, 1799.355
559.7984, 1798.489
560.2805, 1796.807
560.7626, 1793.716
561.2448, 1790.663
561.7269, 1789.651
562.2090, 1790.122
562.6911, 1789.309
563.1732, 1784.900
563.6553, 1780.765
564.1375, 1780.169
564.6196, 1781.762
565.1017, 1782.019
565.5838, 1779.667
566.0659, 1776.520
566.5480, 1775.229
567.0302, 1776.402
567.5123, 1776.668
567.9944, 1776.245
568.4765, 1774.805
568.9586, 1771.399
569.4407, 1767.139
569.9229, 1763.807
570.4050, 1762.075
570.8871, 1760.922
571.3692, 1758.748
571.8513, 1755.483
572.3334, 1753.112
572.8156, 1752.525
573.2977, 1751.758
573.7798, 1749.039
574.2619, 1745.461
574.7440, 1743.106
575.2261, 1742.848
575.7083, 1743.212
576.1904, 1743.543
576.6725, 1743.625
577.1546, 1742.742
577.6367, 1740.689
578.1188, 1738.376
578.6010, 1736.558
579.0831, 1735.240
579.5652, 1734.557
580.0473, 1735.324
580.5294, 1735.624
581.0115, 1734.502
581.4937, 1732.842
581.9758, 1731.719
582.4579, 1731.334
582.9400, 1731.058
583.4221, 1730.100
583.9042, 1728.515
584.3864, 1727.880
584.8685, 1729.049
585.3506, 1729.619
585.8327, 1728.361
586.3148, 1726.356
586.7969, 1724.540
587.2791, 1723.054
587.7612, 1722.047
588.2433, 1722.069
588.7254, 1722.510
589.2075, 1722.109
589.6896, 1720.776
590.1718, 1719.224
590.6539, 1717.878
591.1360, 1716.617
591.6181, 1714.966
592.1002, 1712.219
592.5823, 1710.516
593.0645, 1711.534
593.5466, 1712.637
594.0287, 1711.550
594.5108, 1708.496
594.9929, 1704.931
595.4750, 1701.697
595.9572, 1698.973
596.4393, 1697.408
596.9214, 1697.517
597.4035, 1697.358
597.8856, 1696.780
598.3677, 1695.738
598.8499, 1694.154
599.3320, 1692.062
599.8141, 1689.542
600.2962, 1686.144
600.7783, 1682.837
601.2604, 1680.993
601.7426, 1680.396
602.2247, 1679.699
602.7068, 1678.431
603.1889, 1677.188
603.6710, 1676.875
604.1531, 1677.695
604.6353, 1677.360
605.1174, 1675.835
605.5995, 1673.206
606.0816, 1668.151
606.5637, 1662.500
607.0458, 1659.205
607.5280, 1659.023
608.0101, 1659.907
608.4922, 1659.480
608.9743, 1657.709
609.4564, 1655.380
609.9385, 1651.527
610.4207, 1648.721
610.9028, 1648.928
611.3849, 1650.063
611.8670, 1649.728
612.3491, 1647.442
612.8312, 1644.587
613.3134, 1641.673
613.7955, 1638.934
614.2776, 1636.791
614.7597, 1635.283
615.2418, 1634.389
615.7239, 1634.374
616.2061, 1634.658
616.6882, 1633.583
617.1703, 1630.312
617.6524, 1627.262
618.1345, 1624.705
618.6166, 1622.250
619.0988, 1619.328
619.5809, 1616.296
620.0630, 1614.386
620.5451, 1614.446
621.0272, 1614.881
621.5093, 1611.723
621.9915, 1604.047
622.4736, 1599.428
622.9557, 1600.680
623.4378, 1602.778
623.9199, 1602.741
624.4020, 1600.925
624.8842, 1598.016
625.3663, 1593.211
625.8484, 1588.908
626.3305, 1587.248
626.8126, 1587.211
627.2947, 1586.787
627.7769, 1585.564
628.2590, 1584.306
628.7411, 1583.865
629.2232, 1584.052
629.7053, 1582.573
630.1874, 1577.738
630.6696, 1573.314
631.1517, 1569.678
631.6338, 1566.543
632.1159, 1563.449
632.5980, 1560.527
633.0801, 1558.538
633.5623, 1558.237
634.0444, 1559.038
634.5265, 1559.940
635.0086, 1561.051
635.4907, 1560.680
635.9728, 1557.842
636.4550, 1553.979
636.9371, 1550.505
637.4192, 1547.396
637.9013, 1545.102
638.3834, 1544.330
638.8655, 1543.730
639.3477, 1542.542
639.8298, 1540.972
640.3119, 1539.463
640.7940, 1538.125
641.2761, 1536.675
641.7582, 1534.621
642.2404, 1531.940
642.7225, 1530.480
643.2046, 1531.733
643.6867, 1531.855
644.1688, 1528.814
644.6509, 1524.907
645.1331, 1522.235
645.6152, 1521.075
646.0973, 1520.690
646.5794, 1521.797
647.0615, 1522.830
647.5436, 1520.686
648.0258, 1515.672
648.5079, 1511.095
648.9900, 1508.259
649.4721, 1506.897
649.9542, 1506.981
650.4363, 1509.598
650.9185, 1509.525
651.4006, 1503.737
651.8827, 1498.715
652.3648, 1497.796
652.8469, 1499.200
653.3290, 1500.414
653.8112, 1500.569
654.2933, 1499.769
654.7754, 1497.651
655.2575, 1494.448
655.7396, 1492.228
656.2217, 1491.069
656.7039, 1490.743
657.1860, 1492.085
657.6681, 1493.604
658.1502, 1492.682
658.6323, 1488.803
659.1144, 1485.302
659.5966, 1482.974
660.0787, 1481.540
660.5608, 1481.536
661.0429, 1482.230
661.5250, 1481.453
662.0071, 1478.207
662.4893, 1474.390
662.9714, 1473.593
663.4535, 1476.916
663.9356, 1477.366
664.4177, 1472.478
664.8998, 1467.908
665.3820, 1466.142
665.8641, 1465.708
666.3462, 1464.429
666.8283, 1461.732
667.3104, 1459.885
667.7925, 1461.810
668.2747, 1464.873
668.7568, 1464.252
669.2389, 1460.074
669.7210, 1456.212
670.2031, 1454.716
670.6852, 1454.554
671.1674, 1453.716
671.6495, 1452.496
672.1316, 1449.744
672.6137, 1443.129
673.0958, 1437.664
673.5779, 1436.260
674.0601, 1437.133
674.5422, 1437.643
675.0243, 1436.913
675.5064, 1435.332
675.9885, 1432.806
676.4706, 1429.727
676.9528, 1427.745
677.4349, 1427.076
677.9170, 1426.306
678.3991, 1424.455
678.8812, 1422.280
679.3633, 1421.632
679.8455, 1423.219
680.3276, 1423.732
680.8097, 1422.622
681.2918, 1420.559
681.7739, 1416.973
682.2560, 1412.952
682.7382, 1410.585
683.2203, 1410.628
683.7024, 1411.722
684.1845, 1412.418
684.6666, 1412.690
685.1487, 1411.742
685.6309, 1409.040
686.1130, 1406.544
686.5951, 1405.328
687.0772, 1404.777
687.5593, 1404.074
688.0414, 1403.266
688.5236, 1401.926
689.0057, 1399.440
689.4878, 1396.805
689.9699, 1394.841
690.4520, 1393.404
690.9341, 1391.932
691.4163, 1390.215
691.8984, 1388.787
692.3805, 1388.641
692.8626, 1389.944
693.3447, 1389.921
693.8268, 1387.958
694.3090, 1385.737
694.7911, 1382.458
695.2732, 1380.044
695.7553, 1381.724
696.2374, 1387.862
696.7195, 1391.479
697.2017, 1387.486
697.6838, 1381.107
698.1659, 1377.061
698.6480, 1375.200
699.1301, 1374.791
699.6122, 1375.571
700.0944, 1376.250
700.5765, 1375.022
701.0586, 1371.750
701.5407, 1369.041
702.0228, 1367.011
702.5049, 1365.422
702.9871, 1364.556
703.4692, 1363.863
703.9513, 1362.709
704.4334, 1361.122
704.9155, 1359.850
705.3976, 1359.680
705.8798, 1359.767
706.3619, 1359.143
706.8440, 1357.922
707.3261, 1356.392
707.8082, 1354.595
708.2903, 1353.068
708.7725, 1352.514
709.2546, 1352.911
709.7367, 1352.469
710.2188, 1351.116
710.7009, 1348.926
711.1830, 1344.264
711.6652, 1340.051
712.1473, 1339.294
712.6294, 1341.424
713.1115, 1342.973
713.5936, 1341.750
714.0757, 1339.627
714.5579, 1339.050
715.0400, 1339.545
715.5221, 1339.261
716.0042, 1337.754
716.4863, 1336.162
716.9684, 1335.551
717.4506, 1335.708
717.9327, 1335.089
718.4148, 1333.170
718.8969, 1331.211
719.3790, 1328.580
719.8611, 1326.553
720.3433, 1326.630
720.8254, 1327.980
721.3075, 1328.381
721.7896, 1326.766
722.2717, 1324.152
722.7538, 1321.030
723.2360, 1317.834
723.7181, 1316.224
724.2002, 1316.456
724.6823, 1317.040
725.1644, 1317.265
725.6465, 1316.839
726.1287, 1314.789
726.6108, 1308.981
727.0929, 1305.600
727.5750, 1306.250
728.0571, 1307.488
728.5392, 1308.090
729.0214, 1307.950
729.5035, 1306.969
729.9856, 1305.092
730.4677, 1303.116
730.9498, 1302.043
731.4319, 1301.357
731.9141, 1299.484
732.3962, 1296.436
732.8783, 1294.203
733.3604, 1293.900
733.8425, 1294.333
734.3246, 1293.473
734.8068, 1290.898
735.2889, 1288.913
735.7710, 1287.478
736.2531, 1286.615
736.7352, 1287.206
737.2173, 1287.865
737.6995, 1286.511
738.1816, 1283.139
738.6637, 1280.592
739.1458, 1281.572
739.6279, 1284.087
740.1100, 1285.291
740.5922, 1285.205
741.0743, 1283.522
741.5564, 1279.923
742.0385, 1276.510
742.5206, 1275.574
743.0027, 1276.983
743.4849, 1277.746
743.9670, 1277.288
744.4491, 1276.968
744.9312, 1278.445
745.4133, 1278.823
745.8954, 1274.648
746.3776, 1267.447
746.8597, 1262.274
747.3418, 1261.644
747.8239, 1262.992
748.3060, 1264.666
748.7881, 1266.159
749.2703, 1265.746
749.7524, 1263.303
750.2345, 1261.099
750.7166, 1260.745
751.1987, 1261.336
751.6808, 1260.260
752.1630, 1256.181
752.6451, 1253.533
753.1272, 1253.311
753.6093, 1253.445
754.0914, 1253.461
754.5735, 1253.242
755.0557, 1252.543
755.5378, 1251.277
756.0199, 1250.205
756.5020, 1250.486
756.9841, 1250.794
757.4662, 1248.699
757.9484, 1244.941
758.4305, 1242.599
758.9126, 1242.845
759.3947, 1244.346
759.8768, 1245.601
760.3589, 1246.618
760.8411, 1246.391
761.3232, 1243.879
761.8053, 1241.983
762.2874, 1243.331
762.7695, 1244.022
763.2516, 1239.688
763.7338, 1231.465
764.2159, 1225.983
764.6980, 1226.921
765.1801, 1229.286
765.6622, 1230.220
766.1443, 1230.312
766.6265, 1230.385
767.1086, 1230.584
767.5907, 1230.875
768.0728, 1231.326
768.5549, 1231.490
769.0370, 1229.986
769.5192, 1226.444
770.0013, 1223.619
770.4834, 1221.763
770.9655, 1220.591
771.4476, 1220.412
771.9297, 1220.661
772.4119, 1220.418
772.8940, 1219.638
773.3761, 1218.378
773.8582, 1215.637
774.3403, 1213.375
774.8224, 1213.590
775.3046, 1215.154
775.7867, 1216.001
776.2688, 1215.463
776.7509, 1214.036
777.2330, 1211.931
777.7151, 1209.431
778.1973, 1207.604
778.6794, 1206.462
779.1615, 1206.066
779.6436, 1206.818
780.1257, 1207.499
780.6078, 1206.633
781.0900, 1204.323
781.5721, 1202.973
782.0542, 1203.494
782.5363, 1203.685
783.0184, 1203.299
783.5005, 1202.345
783.9827, 1200.270
784.4648, 1197.659
784.9469, 1196.025
785.4290, 1196.151
785.9111, 1196.853
786.3932, 1196.806
786.8754, 1196.280
787.3575, 1196.227
787.8396, 1196.678
788.3217, 1196.413
788.8038, 1194.639
789.2859, 1192.396
789.7681, 1191.630
790.2502, 1192.779
790.7323, 1193.186
791.2144, 1192.893
791.6965, 1191.749
792.1786, 1188.663
792.6608, 1185.454
793.1429, 1183.989
793.6250, 1184.281
794.1071, 1184.848
794.5892, 1185.789
795.0714, 1186.003
795.5535, 1183.651
796.0356, 1180.281
796.5177, 1178.931
796.9998, 1179.873
797.4819, 1181.192
797.9641, 1181.654
798.4462, 1181.076
798.9283, 1178.371
799.4104, 1172.846
799.8925, 1170.252
800.3746, 1172.554
800.8568, 1174.801
801.3389, 1173.878
801.8210, 1171.287
802.3031, 1169.999
802.7852, 1170.342
803.2673, 1170.467
803.7495, 1170.293
804.2316, 1169.547
804.7137, 1167.220
805.1958, 1164.627
805.6779, 1163.956
806.1600, 1165.428
806.6422, 1167.038
807.1243, 1167.314
807.6064, 1166.573
808.0885, 1165.020
808.5706, 1162.837
809.0527, 1161.572
809.5349, 1161.644
810.0170, 1161.963
810.4991, 1161.712
810.9812, 1160.981
811.4633, 1160.135
811.9454, 1158.983
812.4276, 1158.051
812.9097, 1157.522
813.3918, 1156.990
813.8739, 1156.374
814.3560, 1155.591
814.8381, 1154.338
815.3203, 1152.502
815.8024, 1151.218
816.2845, 1151.498
816.7666, 1152.258
817.2487, 1152.793
817.7308, 1152.867
818.2130, 1151.669
818.6951, 1149.167
819.1772, 1147.022
819.6593, 1146.936
820.1414, 1148.212
820.6235, 1148.195
821.1057, 1146.724
821.5878, 1145.145
822.0699, 1143.603
822.5520, 1142.196
823.0341, 1141.198
823.5162, 1140.352
823.9984, 1138.626
824.4805, 1134.944
824.9626, 1132.995
825.4447, 1134.895
825.9268, 1136.849
826.4089, 1136.262
826.8911, 1134.594
827.3732, 1134.522
827.8553, 1136.508
828.3374, 1138.081
828.8195, 1137.018
829.3016, 1134.653
829.7838, 1132.385
830.2659, 1130.507
830.7480, 1130.659
831.2301, 1133.146
831.7122, 1135.022
832.1943, 1133.726
832.6765, 1130.110
833.1586, 1127.304
833.6407, 1125.412
834.1228, 1123.986
834.6049, 1122.833
835.0870, 1122.380
835.5692, 1123.650
836.0513, 1125.453
836.5334, 1126.090
837.0155, 1125.414
837.4976, 1123.906
837.9797, 1120.173
838.4619, 1117.271
838.9440, 1117.859
839.4261, 1119.944
839.9082, 1120.909
840.3903, 1120.261
840.8724, 1118.821
841.3546, 1116.912
841.8367, 1114.996
842.3188, 1114.176
842.8009, 1114.079
843.2830, 1112.568
843.7651, 1109.304
844.2473, 1106.836
844.7294, 1106.716
845.2115, 1108.493
845.6936, 1111.578
846.1757, 1117.114
846.6578, 1119.092
847.1400, 1114.843
847.6221, 1110.931
848.1042, 1110.035
848.5863, 1110.078
849.0684, 1108.818
849.5505, 1106.332
850.0327, 1104.708
850.5148, 1105.371
850.9969, 1105.976
851.4790, 1105.175
851.9611, 1103.895
852.4432, 1103.195
852.9254, 1103.025
853.4075, 1102.725
853.8896, 1101.966
854.3717, 1100.963
854.8538, 1099.945
855.3359, 1098.908
855.8181, 1097.669
856.3002, 1096.255
856.7823, 1095.653
857.2644, 1096.340
857.7465, 1097.533
858.2286, 1098.378
858.7108, 1098.857
859.1929, 1098.328
859.6750, 1096.212
860.1571, 1094.203
860.6392, 1091.924
861.1213, 1090.479
861.6035, 1091.272
862.0856, 1093.301
862.5677, 1094.186
863.0498, 1093.398
863.5319, 1092.025
864.0140, 1089.912
864.4962, 1087.867
864.9783, 1086.183
865.4604, 1085.114
865.9425, 1085.333
866.4246, 1086.796
866.9067, 1088.072
867.3889, 1088.164
867.8710, 1087.135
868.3531, 1084.566
868.8352, 1080.880
869.3173, 1077.888
869.7994, 1075.918
870.2816, 1074.972
870.7637, 1075.202
871.2458, 1076.055
871.7279, 1076.027
872.2100, 1074.615
872.6921, 1074.531
873.1743, 1076.840
873.6564, 1078.512
874.1385, 1077.974
874.6206, 1076.521
875.1027, 1075.748
875.5848, 1075.607
876.0670, 1074.996
876.5491, 1073.529
877.0312, 1071.886
877.5133, 1069.672
877.9954, 1067.879
878.4775, 1068.017
878.9597, 1069.241
879.4418, 1069.072
879.9239, 1066.408
880.4060, 1063.783
880.8881, 1064.030
881.3702, 1065.433
881.8524, 1064.855
882.3345, 1062.854
882.8166, 1062.211
883.2987, 1063.699
883.7808, 1065.138
884.2629, 1064.302
884.7451, 1061.957
885.2272, 1061.224
885.7093, 1062.367
886.1914, 1062.993
886.6735, 1062.947
887.1556, 1061.820
887.6378, 1058.698
888.1199, 1054.833
888.6020, 1053.037
889.0841, 1054.125
889.5662, 1054.324
890.0483, 1052.593
890.5305, 1051.305
891.0126, 1051.040
891.4947, 1051.560
891.9768, 1053.060
892.4589, 1055.196
892.9410, 1056.720
893.4232, 1057.215
893.9053, 1056.995
894.3874, 1056.156
894.8695, 1054.774
895.3516, 1052.139
895.8337, 1049.129
896.3159, 1048.111
896.7980, 1049.825
897.2801, 1052.317
897.7622, 1054.152
898.2443, 1054.975
898.7264, 1053.134
899.2086, 1049.094
899.6907, 1046.662
900.1728, 1046.723
900.6549, 1046.956
901.1370, 1045.597
901.6191, 1043.297
902.1013, 1041.898
902.5834, 1041.665
903.0655, 1041.247
903.5476, 1040.561
904.0297, 1039.802
904.5118, 1038.502
904.9940, 1037.605
905.4761, 1038.695
905.9582, 1041.604
906.4403, 1043.515
906.9224, 1044.418
907.4045, 1044.054
907.8867, 1041.522
908.3688, 1038.505
908.8509, 1035.594
909.3330, 1033.302
909.8151, 1032.461
910.2972, 1033.358
910.7794, 1034.787
911.2615, 1036.846
911.7436, 1038.330
912.2257, 1037.100
912.7078, 1034.622
913.1899, 1034.301
913.6721, 1036.337
914.1542, 1037.528
914.6363, 1035.455
915.1184, 1032.188
915.6005, 1031.573
916.0826, 1033.077
916.5648, 1033.691
917.0469, 1033.191
917.5290, 1032.463
918.0111, 1031.876
918.4932, 1031.234
918.9753, 1030.234
919.4575, 1028.923
919.9396, 1028.082
920.4217, 1027.962
920.9038, 1027.641
921.3859, 1026.761
921.8680, 1026.005
922.3502, 1026.268
922.8323, 1026.822
923.3144, 1025.675
923.7965, 1021.842
924.2786, 1020.193
924.7607, 1023.348
925.2429, 1026.079
925.7250, 1026.111
926.2071, 1025.053
926.6892, 1024.276
927.1713, 1023.965
927.6534, 1024.002
928.1356, 1024.431
928.6177, 1024.951
929.0998, 1025.609
929.5819, 1026.074
930.0640, 1025.517
930.5461, 1024.586
931.0283, 1025.310
931.5104, 1027.949
931.9925, 1029.480
932.4746, 1026.760
932.9567, 1022.103
933.4388, 1019.420
933.9210, 1018.471
934.4031, 1018.894
934.8852, 1020.467
935.3673, 1021.028
935.8494, 1019.292
936.3315, 1016.861
936.8137, 1016.590
937.2958, 1018.378
937.7779, 1018.460
938.2600, 1016.379
938.7421, 1014.776
939.2242, 1014.281
939.7064, 1014.499
940.1885, 1015.323
940.6706, 1016.517
941.1527, 1017.196
941.6348, 1017.324
942.1169, 1017.028
942.5991, 1015.795
943.0812, 1014.777
943.5633, 1014.730
944.0454, 1014.796
944.5275, 1013.928
945.0096, 1012.256
945.4918, 1010.977
945.9739, 1010.534
946.4560, 1010.232
946.9381, 1009.410
947.4202, 1009.076
947.9023, 1010.785
948.3845, 1013.242
948.8666, 1013.666
949.3487, 1011.575
949.8308, 1010.165
950.3129, 1012.655
950.7950, 1015.517
951.2772, 1014.713
951.7593, 1012.323
952.2414, 1012.032
952.7235, 1013.673
953.2056, 1014.402
953.6877, 1012.824
954.1699, 1010.882
954.6520, 1011.438
955.1341, 1013.378
955.6162, 1013.308
956.0983, 1011.554
956.5804, 1010.512
957.0626, 1010.736
957.5447, 1010.464
958.0268, 1008.187
958.5089, 1005.157
958.9910, 1004.538
959.4731, 1006.517
959.9553, 1008.036
960.4374, 1009.107
960.9195, 1009.266
961.4016, 1008.057
961.8837, 1006.516
962.3658, 1005.634
962.8480, 1005.386
963.3301, 1005.748
963.8122, 1007.712
964.2943, 1008.049
964.7764, 1004.568
965.2585, 1002.134
965.7407, 1004.337
966.2228, 1007.931
966.7049, 1008.771
967.1870, 1006.814
967.6691, 1005.463
968.1512, 1005.924
968.6334, 1005.828
969.1155, 1003.914
969.5976, 1001.990
970.0797, 1001.188
970.5618, 1001.312
971.0439, 1002.080
971.5261, 1003.451
972.0082, 1004.262
972.4903, 1003.931
972.9724, 1002.946
973.4545, 1000.801
973.9366, 998.7482
974.4188, 998.4109
974.9009, 999.5261
975.3830, 1000.891
975.8651, 1002.050
976.3472, 1002.682
976.8293, 1002.332
977.3115, 1001.416
977.7936, 1000.189
978.2757, 998.9213
978.7578, 998.3963
979.2399, 998.5775
979.7220, 998.4111
980.2042, 997.1856
980.6863, 995.7052
981.1684, 994.8649
981.6505, 994.8097
982.1326, 996.6066
982.6147, 999.9597
983.0969, 1002.256
983.5790, 1002.731
984.0611, 1002.688
984.5432, 1003.268
985.0253, 1002.871
985.5074, 1003.639
985.9896, 1002.052
986.4717, 1000.927
986.9538, 1000.342
987.4359, 1000.409
987.9180, 1001.503
988.4001, 1002.125
988.8823, 1000.302
989.3644, 996.6616
989.8465, 995.5520
990.3286, 998.1154
990.8107, 999.5942
991.2928, 999.2653
991.7750, 998.6887
992.2571, 998.5414
992.7392, 998.5003
993.2213, 997.7636
993.7034, 996.3376
994.1855, 997.0206
994.6677, 1002.878
995.1498, 1006.197
995.6319, 1004.484
996.1140, 1002.368
996.5961, 1001.822
997.0782, 1002.377
997.5604, 1003.663
998.0425, 1005.666
998.5246, 1006.572
999.0067, 1004.172
999.4888, 1003.254
999.9709, 1007.587
1000.453, 1011.534
1000.935, 1010.197
1001.417, 1005.736
1001.899, 1002.311
1002.382, 1000.756
1002.864, 1000.112
1003.346, 1000.227
1003.828, 1000.879
1004.310, 1002.706
1004.792, 1004.430
1005.274, 1004.578
1005.756, 1003.498
1006.238, 1002.136
1006.721, 1000.798
1007.203, 1000.192
1007.685, 1001.322
1008.167, 1002.897
1008.649, 1004.142
1009.131, 1004.784
1009.613, 1004.257
1010.095, 1002.739
1010.578, 1000.668
1011.060, 998.2330
1011.542, 996.6373
1012.024, 997.6150
1012.506, 999.7819
1012.988, 1001.308
1013.470, 1002.227
1013.952, 1002.563
1014.434, 1002.438
1014.917, 1002.390
1015.399, 1002.715
1015.881, 1003.008
1016.363, 1002.603
1016.845, 1001.784
1017.327, 1001.138
1017.809, 1000.785
1018.291, 1001.485
1018.773, 1003.296
1019.256, 1005.062
1019.738, 1006.063
1020.220, 1006.488
1020.702, 1006.754
1021.184, 1006.762
1021.666, 1005.492
1022.148, 1003.021
1022.630, 1001.109
1023.113, 1000.159
1023.595, 999.7311
1024.077, 999.4346
1024.559, 999.7870
1025.041, 1002.434
1025.523, 1007.419
1026.005, 1009.293
1026.487, 1007.683
1026.969, 1005.949
1027.452, 1004.793
1027.934, 1004.266
1028.416, 1004.472
1028.898, 1005.192
1029.380, 1005.885
1029.862, 1006.488
1030.344, 1007.666
1030.826, 1009.908
1031.309, 1010.804
1031.791, 1009.128
1032.273, 1007.429
1032.755, 1007.877
1033.237, 1009.607
1033.719, 1010.308
1034.201, 1009.934
1034.683, 1008.559
1035.166, 1004.681
1035.648, 1003.299
1036.130, 1007.571
1036.612, 1011.864
1037.094, 1011.153
1037.576, 1007.364
1038.058, 1006.175
1038.540, 1008.554
1039.022, 1010.109
1039.505, 1010.365
1039.987, 1010.536
1040.469, 1011.015
1040.951, 1011.369
1041.433, 1011.121
1041.915, 1010.501
1042.397, 1010.169
1042.879, 1010.123
1043.361, 1010.346
1043.844, 1010.610
1044.326, 1011.443
1044.808, 1014.219
1045.290, 1016.446
1045.772, 1015.317
1046.254, 1012.375
1046.736, 1011.794
1047.218, 1014.725
1047.700, 1016.377
1048.183, 1015.225
1048.665, 1014.123
1049.147, 1013.693
1049.629, 1013.764
1050.111, 1014.790
1050.593, 1016.063
1051.075, 1015.699
1051.557, 1012.984
1052.040, 1011.572
1052.522, 1012.802
1053.004, 1014.581
1053.486, 1016.997
1053.968, 1018.996
1054.450, 1019.858
1054.932, 1019.643
1055.414, 1018.340
1055.896, 1015.784
1056.379, 1013.790
1056.861, 1012.485
1057.343, 1012.290
1057.825, 1014.277
1058.307, 1016.589
1058.789, 1017.996
1059.271, 1018.524
1059.753, 1018.313
1060.236, 1017.360
1060.718, 1016.571
1061.200, 1016.467
1061.682, 1016.273
1062.164, 1015.304
1062.646, 1014.461
1063.128, 1014.493
1063.610, 1015.193
1064.093, 1016.162
1064.575, 1017.319
1065.057, 1018.525
1065.539, 1020.396
1066.021, 1021.429
1066.503, 1019.824
1066.985, 1018.234
1067.467, 1019.185
1067.949, 1021.483
1068.432, 1023.142
1068.914, 1023.766
1069.396, 1023.528
1069.878, 1021.466
1070.360, 1020.083
1070.842, 1021.345
1071.324, 1022.866
1071.806, 1022.279
1072.288, 1020.913
1072.771, 1021.179
1073.253, 1023.191
1073.735, 1024.852
1074.217, 1024.822
1074.699, 1025.346
1075.181, 1028.328
1075.663, 1031.386
1076.145, 1033.050
1076.627, 1033.461
1077.110, 1032.274
1077.592, 1030.058
1078.074, 1029.419
1078.556, 1032.227
1079.038, 1034.166
1079.520, 1032.333
1080.002, 1029.883
1080.484, 1028.312
1080.967, 1027.910
1081.449, 1029.694
1081.931, 1032.875
1082.413, 1034.451
1082.895, 1032.982
1083.377, 1031.987
1083.859, 1033.906
1084.341, 1035.842
1084.823, 1035.833
1085.306, 1034.999
1085.788, 1034.053
1086.270, 1033.546
1086.752, 1034.907
1087.234, 1038.901
1087.716, 1041.476
1088.198, 1039.210
1088.680, 1037.145
1089.163, 1038.390
1089.645, 1040.754
1090.127, 1042.592
1090.609, 1043.658
1091.091, 1043.640
1091.573, 1042.455
1092.055, 1041.956
1092.537, 1044.166
1093.020, 1045.478
1093.502, 1043.271
1093.984, 1040.548
1094.466, 1039.782
1094.948, 1040.157
1095.430, 1039.813
1095.912, 1038.576
1096.394, 1038.206
1096.876, 1039.948
1097.359, 1041.626
1097.841, 1042.907
1098.323, 1043.487
1098.805, 1042.584
1099.287, 1041.220
1099.769, 1040.766
1100.251, 1041.232
1100.733, 1041.701
1101.215, 1042.013
1101.698, 1042.171
1102.180, 1042.152
1102.662, 1041.985
1103.144, 1041.333
1103.626, 1040.791
1104.108, 1041.026
1104.590, 1041.910
1105.072, 1042.983
1105.554, 1044.511
1106.037, 1045.050
1106.519, 1043.224
1107.001, 1041.835
1107.483, 1041.883
1107.965, 1042.728
1108.447, 1044.644
1108.929, 1046.748
1109.411, 1046.731
1109.894, 1043.862
1110.376, 1042.693
1110.858, 1045.031
1111.340, 1047.129
1111.822, 1048.241
1112.304, 1048.962
1112.786, 1049.739
1113.268, 1050.307
1113.750, 1050.004
1114.233, 1048.790
1114.715, 1048.412
1115.197, 1049.089
1115.679, 1050.279
1116.161, 1053.132
1116.643, 1054.862
1117.125, 1052.873
1117.607, 1050.639
1118.090, 1052.722
1118.572, 1052.098
1119.054, 1052.928
1119.536, 1056.178
1120.018, 1055.676
1120.500, 1061.627
1120.982, 1064.544
1121.464, 1059.948
1121.947, 1054.292
1122.429, 1052.708
1122.911, 1053.890
1123.393, 1054.484
1123.875, 1054.265
1124.357, 1055.517
1124.839, 1059.332
1125.321, 1060.719
1125.803, 1057.756
1126.286, 1055.115
1126.768, 1055.626
1127.250, 1057.802
1127.732, 1059.451
1128.214, 1060.604
1128.696, 1061.548
1129.178, 1062.260
1129.660, 1062.917
1130.142, 1063.536
1130.625, 1063.976
1131.107, 1064.088
1131.589, 1064.485
1132.071, 1065.885
1132.553, 1067.879
1133.035, 1069.221
1133.517, 1069.929
1133.999, 1070.663
1134.481, 1071.445
1134.964, 1071.785
1135.446, 1071.555
1135.928, 1071.841
1136.410, 1073.511
1136.892, 1075.397
1137.374, 1075.145
1137.856, 1073.486
1138.338, 1073.209
1138.821, 1074.276
1139.303, 1077.272
1139.785, 1081.783
1140.267, 1084.417
1140.749, 1083.651
1141.231, 1081.943
1141.713, 1081.815
1142.195, 1082.362
1142.677, 1081.640
1143.160, 1080.481
1143.642, 1080.751
1144.124, 1082.351
1144.606, 1084.786
1145.088, 1087.652
1145.570, 1089.489
1146.052, 1089.045
1146.534, 1088.499
1147.017, 1091.325
1147.499, 1094.329
1147.981, 1092.110
1148.463, 1087.853
1148.945, 1088.024
1149.427, 1092.038
1149.909, 1094.376
1150.391, 1092.886
1150.874, 1090.885
1151.356, 1089.835
1151.838, 1089.801
1152.320, 1091.559
1152.802, 1093.716
1153.284, 1094.780
1153.766, 1095.223
1154.248, 1096.412
1154.730, 1098.436
1155.213, 1099.508
1155.695, 1097.954
1156.177, 1097.253
1156.659, 1099.967
1157.141, 1102.212
1157.623, 1100.793
1158.105, 1098.537
1158.587, 1098.652
1159.069, 1100.781
1159.552, 1102.865
1160.034, 1104.817
1160.516, 1106.263
1160.998, 1107.169
1161.480, 1107.552
1161.962, 1106.402
1162.444, 1105.922
1162.926, 1108.330
1163.408, 1111.565
1163.891, 1112.155
1164.373, 1110.151
1164.855, 1108.738
1165.337, 1107.471
1165.819, 1108.254
1166.301, 1112.130
1166.783, 1115.608
1167.265, 1117.528
1167.748, 1118.150
1168.230, 1117.455
1168.712, 1116.005
1169.194, 1115.478
1169.676, 1115.917
1170.158, 1115.739
1170.640, 1114.853
1171.122, 1115.511
1171.604, 1118.219
1172.087, 1120.776
1172.569, 1122.011
1173.051, 1122.274
1173.533, 1121.907
1174.015, 1121.069
1174.497, 1119.934
1174.979, 1118.748
1175.461, 1118.559
1175.944, 1119.316
1176.426, 1120.363
1176.908, 1121.492
1177.390, 1122.876
1177.872, 1124.761
1178.354, 1126.273
1178.836, 1126.000
1179.318, 1125.048
1179.801, 1124.888
1180.283, 1125.304
1180.765, 1125.785
1181.247, 1126.368
1181.729, 1127.740
1182.211, 1130.052
1182.693, 1131.267
1183.175, 1128.813
1183.657, 1126.657
1184.140, 1127.829
1184.622, 1129.765
1185.104, 1130.273
1185.586, 1130.138
1186.068, 1130.527
1186.550, 1131.593
1187.032, 1133.303
1187.514, 1136.150
1187.996, 1138.084
1188.479, 1137.937
1188.961, 1137.848
1189.443, 1138.839
1189.925, 1139.803
1190.407, 1139.664
1190.889, 1139.092
1191.371, 1139.279
1191.853, 1140.227
1192.335, 1140.756
1192.818, 1140.234
1193.300, 1141.133
1193.782, 1144.320
1194.264, 1146.794
1194.746, 1147.072
1195.228, 1147.759
1195.710, 1151.746
1196.192, 1156.480
1196.675, 1154.749
1197.157, 1147.050
1197.639, 1145.323
1198.121, 1149.352
1198.603, 1152.745
1199.085, 1154.482
1199.567, 1155.584
1200.049, 1156.508
1200.531, 1157.080
1201.014, 1156.960
1201.496, 1156.739
1201.978, 1158.149
1202.460, 1159.920
1202.942, 1158.608
1203.424, 1155.418
1203.906, 1154.086
1204.388, 1154.834
1204.871, 1154.734
1205.353, 1152.323
1205.835, 1151.164
1206.317, 1155.403
1206.799, 1160.165
1207.281, 1161.759
1207.763, 1161.914
1208.245, 1162.040
1208.728, 1162.243
1209.210, 1162.330
1209.692, 1162.323
1210.174, 1162.597
1210.656, 1163.641
1211.138, 1164.028
1211.620, 1162.330
1212.102, 1161.447
1212.584, 1163.416
1213.067, 1165.533
1213.549, 1165.629
1214.031, 1164.703
1214.513, 1164.768
1214.995, 1165.815
1215.477, 1164.831
1215.959, 1160.617
1216.441, 1158.926
1216.923, 1160.502
1217.406, 1163.644
1217.888, 1168.256
1218.370, 1171.733
1218.852, 1171.848
1219.334, 1169.954
1219.816, 1168.548
1220.298, 1167.541
1220.780, 1166.013
1221.262, 1166.404
1221.745, 1164.886
1222.227, 1167.485
1222.709, 1169.638
1223.191, 1170.454
1223.673, 1170.609
1224.155, 1170.154
1224.637, 1170.698
1225.119, 1175.780
1225.602, 1181.257
1226.084, 1181.294
1226.566, 1178.815
1227.048, 1178.790
1227.530, 1180.705
1228.012, 1180.719
1228.494, 1177.777
1228.976, 1176.758
1229.458, 1182.472
1229.941, 1186.048
1230.423, 1181.866
1230.905, 1178.210
1231.387, 1180.661
1231.869, 1185.170
1232.351, 1187.453
1232.833, 1188.021
1233.315, 1188.571
1233.798, 1189.164
1234.280, 1189.334
1234.762, 1188.893
1235.244, 1188.745
1235.726, 1189.209
1236.208, 1189.000
1236.690, 1187.278
1237.172, 1185.992
1237.655, 1187.181
1238.137, 1190.142
1238.619, 1193.791
1239.101, 1197.669
1239.583, 1199.381
1240.065, 1199.290
1240.547, 1198.925
1241.029, 1198.650
1241.511, 1198.636
1241.994, 1198.944
1242.476, 1199.360
1242.958, 1199.846
1243.440, 1200.131
1243.922, 1199.772
1244.404, 1199.265
1244.886, 1198.390
1245.368, 1198.187
1245.850, 1200.856
1246.333, 1205.381
1246.815, 1208.188
1247.297, 1208.385
1247.779, 1208.206
1248.261, 1207.578
1248.743, 1207.458
1249.225, 1208.451
1249.707, 1209.433
1250.189, 1209.781
1250.672, 1210.110
1251.154, 1211.077
1251.636, 1212.430
1252.118, 1213.379
1252.600, 1214.735
1253.082, 1215.156
1253.564, 1217.304
1254.046, 1219.011
1254.529, 1220.103
1255.011, 1220.127
1255.493, 1218.925
1255.975, 1218.073
1256.457, 1218.945
1256.939, 1220.887
1257.421, 1223.959
1257.903, 1226.646
1258.385, 1224.785
1258.868, 1221.292
1259.350, 1222.311
1259.832, 1226.865
1260.314, 1229.937
1260.796, 1230.326
1261.278, 1231.364
1261.760, 1235.863
1262.242, 1238.573
1262.725, 1235.526
1263.207, 1232.518
1263.689, 1232.130
1264.171, 1233.426
1264.653, 1236.798
1265.135, 1240.570
1265.617, 1241.118
1266.099, 1238.493
1266.582, 1238.182
1267.064, 1240.789
1267.546, 1243.375
1268.028, 1245.901
1268.510, 1247.554
1268.992, 1248.023
1269.474, 1248.528
1269.956, 1249.966
1270.438, 1251.188
1270.921, 1250.144
1271.403, 1248.156
1271.885, 1248.145
1272.367, 1249.697
1272.849, 1252.774
1273.331, 1256.320
1273.813, 1257.645
1274.295, 1256.675
1274.777, 1255.447
1275.260, 1254.621
1275.742, 1255.288
1276.224, 1259.272
1276.706, 1263.203
1277.188, 1265.410
1277.670, 1267.004
1278.152, 1269.109
1278.634, 1270.794
1279.116, 1269.851
1279.599, 1267.463
1280.081, 1268.526
1280.563, 1268.117
1281.045, 1267.953
1281.527, 1270.703
1282.009, 1269.286
1282.491, 1273.211
1282.973, 1275.810
1283.456, 1274.178
1283.938, 1273.421
1284.420, 1278.440
1284.902, 1285.333
1285.384, 1288.098
##END=



