##NAMES=Jorgensenite
##RRUFFID=R100009
##IDEAL CHEMISTRY=Na_2_Sr_14_Na_2_Al_12_F_64_(OH)_4_
##LOCALITY=Ivigtut, Frederikshab District, South West Greenland
##OWNER=RRUFF
##SOURCE=William Pinch
##DESCRIPTION=Colorless massive, associated with pyrite, co-type sample
##STATUS=The identification of this mineral has been confirmed by single-crystal X-ray diffraction.
##URL=rruff.info/R100009
89.60352, 205.0698
90.08563, 195.5769
90.56775, 194.6129
91.04987, 211.7389
91.53198, 228.5613
92.01410, 213.1188
92.49622, 167.2644
92.97833, 126.2035
93.46045, 127.3497
93.94257, 160.9400
94.42468, 194.0589
94.90680, 217.8571
95.38892, 232.2458
95.87103, 235.1942
96.35315, 224.8490
96.83527, 210.3763
97.31738, 204.2067
97.79950, 206.5800
98.28162, 208.8491
98.76373, 202.6345
99.24585, 187.3103
99.72797, 192.5863
100.2101, 229.4206
100.6922, 277.3834
101.1743, 283.0663
101.6564, 231.7653
102.1385, 178.2971
102.6207, 156.4004
103.1028, 177.9754
103.5849, 194.9826
104.0670, 204.2357
104.5491, 205.6379
105.0313, 196.1319
105.5134, 161.5395
105.9955, 130.6118
106.4776, 126.9367
106.9597, 175.4066
107.4418, 215.9692
107.9240, 238.6266
108.4061, 241.5783
108.8882, 240.6010
109.3703, 233.7940
109.8524, 223.7463
110.3345, 213.2733
110.8167, 202.7966
111.2988, 191.5534
111.7809, 178.3863
112.2630, 160.9390
112.7451, 148.4337
113.2272, 141.3101
113.7094, 139.9718
114.1915, 145.0554
114.6736, 167.2907
115.1557, 188.5024
115.6378, 199.1584
116.1199, 192.2425
116.6021, 184.3818
117.0842, 188.7858
117.5663, 198.4364
118.0484, 192.2571
118.5305, 125.2618
119.0126, 55.73763
119.4948, 34.18827
119.9769, 119.5002
120.4590, 211.3576
120.9411, 238.1451
121.4232, 207.7541
121.9053, 177.4887
122.3875, 188.6123
122.8696, 221.4251
123.3517, 248.5730
123.8338, 261.1111
124.3159, 262.2839
124.7980, 249.1048
125.2802, 220.8409
125.7623, 197.9997
126.2444, 202.1239
126.7265, 226.7668
127.2086, 254.7424
127.6907, 280.8159
128.1729, 304.4003
128.6550, 318.9415
129.1371, 319.9210
129.6192, 328.7990
130.1013, 385.3811
130.5834, 483.1954
131.0656, 574.2905
131.5477, 625.3618
132.0298, 644.1987
132.5119, 668.6793
132.9940, 701.3970
133.4761, 742.9611
133.9583, 797.8704
134.4404, 866.7996
134.9225, 941.8806
135.4046, 1022.901
135.8867, 1110.699
136.3688, 1179.906
136.8510, 1221.911
137.3331, 1244.029
137.8152, 1279.824
138.2973, 1334.924
138.7794, 1388.430
139.2615, 1416.760
139.7437, 1408.500
140.2258, 1423.022
140.7079, 1476.183
141.1900, 1566.220
141.6721, 1655.339
142.1542, 1742.910
142.6364, 1829.889
143.1185, 1918.512
143.6006, 2012.910
144.0827, 2098.530
144.5648, 2165.223
145.0469, 2206.147
145.5291, 2274.931
146.0112, 2394.771
146.4933, 2530.249
146.9754, 2633.189
147.4575, 2686.895
147.9396, 2726.722
148.4218, 2760.371
148.9039, 2782.027
149.3860, 2811.370
149.8681, 2863.900
150.3502, 2922.388
150.8323, 2952.182
151.3145, 2903.113
151.7966, 2867.042
152.2787, 2877.990
152.7608, 2993.006
153.2429, 3067.818
153.7250, 3059.471
154.2072, 2999.857
154.6893, 2978.371
155.1714, 3029.663
155.6535, 3079.841
156.1356, 3113.793
156.6177, 3107.740
157.0999, 3113.876
157.5820, 3153.364
158.0641, 3216.429
158.5462, 3262.350
159.0283, 3263.238
159.5104, 3254.336
159.9926, 3258.605
160.4747, 3287.456
160.9568, 3323.726
161.4389, 3362.950
161.9210, 3404.648
162.4031, 3450.187
162.8853, 3511.206
163.3674, 3571.185
163.8495, 3615.005
164.3316, 3615.553
164.8137, 3617.474
165.2958, 3652.970
165.7780, 3721.420
166.2601, 3773.941
166.7422, 3767.358
167.2243, 3734.698
167.7064, 3717.987
168.1885, 3748.578
168.6707, 3789.944
169.1528, 3817.689
169.6349, 3830.617
170.1170, 3835.261
170.5991, 3825.895
171.0812, 3812.227
171.5634, 3811.189
172.0455, 3849.371
172.5276, 3893.822
173.0097, 3905.110
173.4918, 3875.328
173.9739, 3846.596
174.4561, 3859.783
174.9382, 3901.927
175.4203, 3942.118
175.9024, 3960.816
176.3845, 3969.095
176.8666, 3981.782
177.3488, 4000.938
177.8309, 4022.589
178.3130, 4038.895
178.7951, 4052.900
179.2772, 4075.301
179.7593, 4115.368
180.2415, 4167.587
180.7236, 4223.471
181.2057, 4283.689
181.6878, 4343.276
182.1699, 4403.932
182.6520, 4462.242
183.1342, 4502.397
183.6163, 4499.294
184.0984, 4467.991
184.5805, 4453.682
185.0626, 4466.792
185.5447, 4492.989
186.0269, 4508.830
186.5090, 4514.567
186.9911, 4518.850
187.4732, 4534.767
187.9553, 4557.125
188.4374, 4558.195
188.9196, 4527.646
189.4017, 4479.711
189.8838, 4446.679
190.3659, 4428.901
190.8480, 4411.247
191.3301, 4386.974
191.8123, 4354.892
192.2944, 4301.808
192.7765, 4217.878
193.2586, 4115.783
193.7407, 4034.065
194.2228, 3973.461
194.7050, 3927.284
195.1871, 3892.403
195.6692, 3868.727
196.1513, 3849.165
196.6334, 3832.320
197.1155, 3818.456
197.5977, 3808.758
198.0798, 3803.629
198.5619, 3801.167
199.0440, 3798.731
199.5261, 3795.932
200.0082, 3798.148
200.4904, 3806.698
200.9725, 3821.275
201.4546, 3840.751
201.9367, 3865.823
202.4188, 3893.781
202.9009, 3920.685
203.3831, 3945.761
203.8652, 3975.712
204.3473, 4012.678
204.8294, 4056.214
205.3115, 4101.872
205.7936, 4150.017
206.2758, 4199.495
206.7579, 4251.423
207.2400, 4307.807
207.7221, 4355.219
208.2042, 4386.406
208.6863, 4402.103
209.1685, 4431.164
209.6506, 4478.644
210.1327, 4531.229
210.6148, 4571.353
211.0969, 4592.470
211.5790, 4622.813
212.0612, 4674.210
212.5433, 4746.944
213.0254, 4806.019
213.5075, 4851.420
213.9896, 4883.350
214.4717, 4897.642
214.9538, 4885.063
215.4360, 4880.838
215.9181, 4898.630
216.4002, 4940.700
216.8823, 4965.318
217.3644, 4966.153
217.8465, 4956.645
218.3287, 4954.109
218.8108, 4962.886
219.2929, 4968.678
219.7750, 4967.866
220.2571, 4960.067
220.7392, 4948.019
221.2214, 4928.061
221.7035, 4907.463
222.1856, 4897.256
222.6677, 4906.177
223.1498, 4907.278
223.6319, 4893.023
224.1141, 4862.200
224.5962, 4824.823
225.0783, 4779.041
225.5604, 4728.814
226.0425, 4677.065
226.5246, 4618.620
227.0068, 4569.650
227.4889, 4538.658
227.9710, 4529.344
228.4531, 4509.233
228.9352, 4471.835
229.4173, 4429.053
229.8995, 4397.698
230.3816, 4382.089
230.8637, 4369.284
231.3458, 4354.447
231.8279, 4335.218
232.3100, 4328.342
232.7922, 4338.138
233.2743, 4356.688
233.7564, 4374.713
234.2385, 4393.760
234.7206, 4409.249
235.2027, 4418.487
235.6849, 4419.700
236.1670, 4427.644
236.6491, 4450.529
237.1312, 4473.591
237.6133, 4476.789
238.0954, 4449.421
238.5776, 4420.864
239.0597, 4398.773
239.5418, 4384.698
240.0239, 4367.331
240.5060, 4344.997
240.9881, 4320.760
241.4703, 4298.196
241.9524, 4277.079
242.4345, 4257.835
242.9166, 4238.072
243.3987, 4215.456
243.8808, 4210.905
244.3630, 4230.418
244.8451, 4262.673
245.3272, 4295.295
245.8093, 4330.944
246.2914, 4362.156
246.7735, 4386.333
247.2557, 4402.706
247.7378, 4419.361
248.2199, 4429.757
248.7020, 4446.756
249.1841, 4487.280
249.6662, 4566.393
250.1484, 4639.417
250.6305, 4696.013
251.1126, 4734.859
251.5947, 4771.147
252.0768, 4801.053
252.5589, 4831.836
253.0411, 4872.434
253.5232, 4928.931
254.0053, 4981.242
254.4874, 5026.362
254.9695, 5064.476
255.4516, 5092.793
255.9338, 5109.135
256.4159, 5118.577
256.8980, 5126.519
257.3801, 5136.209
257.8622, 5136.942
258.3444, 5125.703
258.8265, 5102.916
259.3086, 5076.919
259.7907, 5047.392
260.2728, 5016.058
260.7549, 4983.085
261.2371, 4943.769
261.7192, 4915.492
262.2013, 4903.000
262.6834, 4905.005
263.1655, 4908.805
263.6476, 4912.081
264.1298, 4920.993
264.6119, 4943.941
265.0940, 4988.011
265.5761, 5020.447
266.0582, 5031.241
266.5403, 5025.655
267.0225, 5037.379
267.5046, 5074.732
267.9867, 5111.689
268.4688, 5129.019
268.9509, 5123.901
269.4330, 5111.233
269.9152, 5091.499
270.3973, 5065.786
270.8794, 5040.624
271.3615, 5018.776
271.8436, 4990.008
272.3257, 4946.938
272.8079, 4887.771
273.2900, 4823.301
273.7721, 4747.697
274.2542, 4671.241
274.7363, 4629.306
275.2184, 4631.208
275.7006, 4631.879
276.1827, 4598.355
276.6648, 4526.523
277.1469, 4472.181
277.6290, 4441.989
278.1111, 4428.195
278.5933, 4414.763
279.0754, 4401.382
279.5575, 4389.334
280.0396, 4380.215
280.5217, 4374.097
281.0038, 4364.031
281.4860, 4347.197
281.9681, 4330.646
282.4502, 4328.990
282.9323, 4343.140
283.4144, 4358.345
283.8965, 4366.556
284.3787, 4368.480
284.8608, 4373.726
285.3429, 4382.938
285.8250, 4394.166
286.3071, 4401.420
286.7892, 4404.996
287.2714, 4418.213
287.7535, 4446.234
288.2356, 4489.077
288.7177, 4548.604
289.1998, 4628.257
289.6819, 4709.464
290.1641, 4765.244
290.6462, 4799.125
291.1283, 4839.720
291.6104, 4903.003
292.0925, 4980.195
292.5746, 5039.793
293.0568, 5080.475
293.5389, 5123.623
294.0210, 5192.231
294.5031, 5282.103
294.9852, 5376.814
295.4673, 5473.815
295.9495, 5570.158
296.4316, 5657.783
296.9137, 5736.448
297.3958, 5810.093
297.8779, 5877.033
298.3600, 5940.730
298.8422, 6014.145
299.3243, 6112.329
299.8064, 6208.607
300.2885, 6259.048
300.7706, 6268.683
301.2527, 6273.446
301.7349, 6296.863
302.2170, 6332.946
302.6991, 6371.366
303.1812, 6410.800
303.6633, 6451.141
304.1454, 6491.090
304.6276, 6531.406
305.1097, 6575.803
305.5918, 6622.544
306.0739, 6675.888
306.5560, 6742.030
307.0381, 6825.890
307.5203, 6912.548
308.0024, 6985.751
308.4845, 7052.134
308.9666, 7127.237
309.4487, 7231.994
309.9308, 7341.406
310.4130, 7433.268
310.8951, 7504.051
311.3772, 7563.374
311.8593, 7616.780
312.3414, 7661.923
312.8235, 7695.894
313.3057, 7728.309
313.7878, 7741.349
314.2699, 7726.560
314.7520, 7683.745
315.2341, 7609.381
315.7162, 7487.591
316.1984, 7337.880
316.6805, 7183.853
317.1626, 7031.919
317.6447, 6876.442
318.1268, 6713.470
318.6089, 6542.238
319.0911, 6373.778
319.5732, 6207.939
320.0553, 6047.525
320.5374, 5896.578
321.0195, 5751.749
321.5016, 5619.218
321.9838, 5500.229
322.4659, 5394.656
322.9480, 5301.813
323.4301, 5232.505
323.9122, 5167.886
324.3943, 5098.435
324.8765, 5014.815
325.3586, 4937.515
325.8407, 4864.425
326.3228, 4798.593
326.8049, 4747.611
327.2870, 4722.312
327.7692, 4703.528
328.2513, 4683.902
328.7334, 4658.222
329.2155, 4644.326
329.6976, 4650.000
330.1797, 4664.882
330.6619, 4672.415
331.1440, 4664.141
331.6261, 4660.128
332.1082, 4669.780
332.5903, 4697.546
333.0724, 4704.677
333.5546, 4676.040
334.0367, 4640.639
334.5188, 4632.401
335.0009, 4666.696
335.4830, 4692.853
335.9651, 4698.218
336.4473, 4684.907
336.9294, 4680.079
337.4115, 4687.378
337.8936, 4696.003
338.3757, 4694.263
338.8578, 4677.453
339.3399, 4675.705
339.8221, 4697.663
340.3042, 4735.044
340.7863, 4759.093
341.2684, 4767.688
341.7505, 4775.502
342.2326, 4789.042
342.7148, 4808.233
343.1969, 4841.858
343.6790, 4894.658
344.1611, 4953.304
344.6432, 4995.566
345.1253, 5021.436
345.6075, 5035.183
346.0896, 5029.528
346.5717, 5011.257
347.0538, 5013.482
347.5359, 5039.281
348.0180, 5069.483
348.5002, 5082.363
348.9823, 5080.540
349.4644, 5074.882
349.9465, 5068.289
350.4286, 5061.008
350.9107, 5052.418
351.3929, 5042.748
351.8750, 5035.063
352.3571, 5033.040
352.8392, 5034.769
353.3213, 5037.252
353.8034, 5042.038
354.2856, 5044.218
354.7677, 5036.538
355.2498, 5021.150
355.7319, 5006.603
356.2140, 4998.001
356.6961, 4992.779
357.1783, 4988.332
357.6604, 4984.203
358.1425, 4980.499
358.6246, 4977.462
359.1067, 4974.710
359.5888, 4971.574
360.0710, 4975.213
360.5531, 4972.539
361.0352, 4950.608
361.5173, 4905.149
361.9994, 4868.865
362.4815, 4859.891
362.9637, 4864.343
363.4458, 4867.328
363.9279, 4857.868
364.4100, 4853.599
364.8921, 4862.433
365.3742, 4883.460
365.8564, 4902.725
366.3385, 4923.155
366.8206, 4937.792
367.3027, 4942.463
367.7848, 4921.952
368.2669, 4909.339
368.7491, 4903.026
369.2312, 4905.521
369.7133, 4926.206
370.1954, 4991.734
370.6775, 5046.685
371.1596, 5065.044
371.6418, 5023.891
372.1239, 5014.578
372.6060, 5054.231
373.0881, 5113.598
373.5702, 5149.280
374.0523, 5149.355
374.5345, 5153.529
375.0166, 5175.665
375.4987, 5215.365
375.9808, 5238.648
376.4629, 5239.402
376.9450, 5237.104
377.4272, 5248.671
377.9093, 5274.661
378.3914, 5310.591
378.8735, 5359.087
379.3556, 5414.536
379.8377, 5466.437
380.3199, 5515.253
380.8020, 5550.703
381.2841, 5556.340
381.7662, 5539.375
382.2483, 5539.513
382.7304, 5562.359
383.2126, 5596.151
383.6947, 5627.089
384.1768, 5655.771
384.6589, 5684.563
385.1410, 5722.556
385.6231, 5759.316
386.1053, 5771.592
386.5874, 5758.399
387.0695, 5748.087
387.5516, 5775.752
388.0337, 5820.972
388.5158, 5848.649
388.9980, 5847.874
389.4801, 5825.890
389.9622, 5777.616
390.4443, 5709.569
390.9264, 5647.623
391.4085, 5617.253
391.8907, 5593.099
392.3728, 5554.173
392.8549, 5494.330
393.3370, 5427.185
393.8191, 5350.913
394.3012, 5272.614
394.7834, 5204.283
395.2655, 5150.404
395.7476, 5106.272
396.2297, 5075.593
396.7118, 5061.577
397.1939, 5034.288
397.6761, 4966.672
398.1582, 4895.449
398.6403, 4851.295
399.1224, 4869.017
399.6045, 4875.726
400.0866, 4859.753
400.5688, 4825.362
401.0509, 4797.753
401.5330, 4774.685
402.0151, 4760.885
402.4972, 4758.519
402.9793, 4767.800
403.4615, 4790.786
403.9436, 4837.397
404.4257, 4888.972
404.9078, 4907.364
405.3899, 4881.806
405.8720, 4864.755
406.3542, 4876.286
406.8363, 4914.001
407.3184, 4945.479
407.8005, 4970.494
408.2826, 4990.739
408.7647, 5004.806
409.2469, 5013.456
409.7290, 5028.180
410.2111, 5052.444
410.6932, 5082.456
411.1753, 5115.722
411.6574, 5150.793
412.1396, 5176.081
412.6217, 5180.333
413.1038, 5170.314
413.5859, 5157.579
414.0680, 5142.748
414.5501, 5127.993
415.0323, 5112.057
415.5144, 5097.793
415.9965, 5090.397
416.4786, 5102.815
416.9607, 5115.115
417.4428, 5107.216
417.9250, 5081.514
418.4071, 5060.993
418.8892, 5070.653
419.3713, 5084.052
419.8534, 5077.711
420.3355, 5033.380
420.8177, 4990.293
421.2998, 4960.528
421.7819, 4940.887
422.2640, 4923.576
422.7461, 4907.857
423.2282, 4893.747
423.7104, 4877.712
424.1925, 4854.493
424.6746, 4852.252
425.1567, 4892.733
425.6388, 4941.836
426.1209, 4969.489
426.6031, 4962.781
427.0852, 4954.777
427.5673, 4948.179
428.0494, 4943.206
428.5315, 4942.575
429.0136, 4948.982
429.4958, 4953.734
429.9779, 4950.537
430.4600, 4937.498
430.9421, 4929.733
431.4242, 4929.022
431.9063, 4930.924
432.3885, 4927.005
432.8706, 4917.201
433.3527, 4912.379
433.8348, 4919.343
434.3169, 4933.346
434.7990, 4937.049
435.2812, 4930.406
435.7633, 4927.894
436.2454, 4949.422
436.7275, 4983.966
437.2096, 5005.649
437.6917, 5007.502
438.1739, 5000.114
438.6560, 4993.115
439.1381, 4985.754
439.6202, 4976.040
440.1023, 4955.649
440.5844, 4937.364
441.0666, 4934.081
441.5487, 4947.196
442.0308, 4959.817
442.5129, 4962.428
442.9950, 4960.919
443.4771, 4960.918
443.9593, 4961.816
444.4414, 4966.657
444.9235, 4976.573
445.4056, 4991.043
445.8877, 5008.559
446.3698, 5037.920
446.8520, 5062.374
447.3341, 5074.130
447.8162, 5068.423
448.2983, 5063.860
448.7804, 5059.187
449.2625, 5056.473
449.7447, 5059.264
450.2268, 5072.433
450.7089, 5079.558
451.1910, 5075.718
451.6731, 5063.315
452.1552, 5055.077
452.6374, 5052.181
453.1195, 5049.921
453.6016, 5045.812
454.0837, 5039.953
454.5658, 5032.555
455.0479, 5023.984
455.5301, 5013.259
456.0122, 4994.423
456.4943, 4969.929
456.9764, 4956.242
457.4585, 4967.091
457.9406, 4987.694
458.4228, 4993.189
458.9049, 4984.571
459.3870, 4972.283
459.8691, 4958.383
460.3512, 4947.349
460.8333, 4946.021
461.3155, 4958.573
461.7976, 4972.700
462.2797, 4982.263
462.7618, 4987.765
463.2439, 4989.913
463.7260, 4985.757
464.2082, 4981.185
464.6903, 4976.670
465.1724, 4972.339
465.6545, 4975.747
466.1366, 5003.720
466.6187, 5030.121
467.1009, 5037.706
467.5830, 4994.984
468.0651, 4975.169
468.5472, 4988.589
469.0293, 5022.075
469.5114, 5050.480
469.9936, 5075.338
470.4757, 5091.390
470.9578, 5094.101
471.4399, 5083.643
471.9220, 5080.458
472.4041, 5085.556
472.8863, 5094.820
473.3684, 5103.565
473.8505, 5111.934
474.3326, 5127.894
474.8147, 5154.896
475.2968, 5185.542
475.7790, 5207.448
476.2611, 5221.401
476.7432, 5232.104
477.2253, 5236.874
477.7074, 5241.962
478.1895, 5260.978
478.6717, 5293.979
479.1538, 5324.096
479.6359, 5337.110
480.1180, 5340.378
480.6001, 5342.093
481.0822, 5339.440
481.5644, 5343.995
482.0465, 5368.257
482.5286, 5404.050
483.0107, 5433.623
483.4928, 5436.979
483.9749, 5445.862
484.4571, 5479.201
484.9392, 5543.300
485.4213, 5589.941
485.9034, 5597.531
486.3855, 5597.495
486.8676, 5610.706
487.3498, 5641.804
487.8319, 5678.696
488.3140, 5725.038
488.7961, 5774.439
489.2782, 5807.511
489.7603, 5815.771
490.2425, 5835.404
490.7246, 5885.904
491.2067, 5963.524
491.6888, 6020.843
492.1709, 6053.942
492.6530, 6088.298
493.1352, 6154.417
493.6173, 6243.779
494.0994, 6317.534
494.5815, 6363.216
495.0636, 6402.286
495.5457, 6457.773
496.0279, 6528.521
496.5100, 6610.600
496.9921, 6711.519
497.4742, 6817.622
497.9563, 6914.903
498.4384, 7004.276
498.9206, 7097.242
499.4027, 7197.013
499.8848, 7305.068
500.3669, 7425.264
500.8490, 7558.823
501.3311, 7701.549
501.8133, 7858.992
502.2954, 8024.895
502.7775, 8187.884
503.2596, 8342.009
503.7417, 8501.756
504.2238, 8666.521
504.7060, 8836.276
505.1881, 9023.985
505.6702, 9236.576
506.1523, 9453.624
506.6344, 9658.919
507.1165, 9848.232
507.5987, 10051.83
508.0808, 10269.56
508.5629, 10498.81
509.0450, 10737.36
509.5271, 10984.58
510.0092, 11230.87
510.4914, 11476.43
510.9735, 11719.54
511.4556, 11957.43
511.9377, 12189.11
512.4199, 12423.19
512.9020, 12672.22
513.3841, 12923.47
513.8662, 13166.64
514.3483, 13404.43
514.8304, 13612.73
515.3126, 13767.33
515.7947, 13885.91
516.2768, 13993.44
516.7589, 14111.66
517.2410, 14204.45
517.7231, 14259.67
518.2053, 14279.56
518.6874, 14276.23
519.1695, 14256.09
519.6516, 14207.10
520.1337, 14122.42
520.6158, 13995.53
521.0980, 13862.38
521.5801, 13728.31
522.0622, 13581.33
522.5443, 13402.34
523.0264, 13184.93
523.5085, 12973.79
523.9907, 12777.45
524.4728, 12592.46
524.9549, 12408.30
525.4370, 12224.47
525.9191, 12047.85
526.4012, 11884.08
526.8834, 11727.17
527.3655, 11563.77
527.8476, 11394.71
528.3297, 11230.97
528.8118, 11084.74
529.2939, 10949.56
529.7761, 10819.78
530.2582, 10700.27
530.7403, 10573.83
531.2224, 10424.37
531.7045, 10263.81
532.1866, 10112.35
532.6688, 9978.476
533.1509, 9849.925
533.6330, 9724.082
534.1151, 9601.561
534.5972, 9473.525
535.0793, 9337.942
535.5615, 9200.095
536.0436, 9062.651
536.5257, 8923.936
537.0078, 8788.308
537.4899, 8658.917
537.9720, 8528.328
538.4542, 8386.089
538.9363, 8229.821
539.4184, 8082.607
539.9005, 7950.154
540.3826, 7831.366
540.8647, 7734.634
541.3469, 7657.188
541.8290, 7577.851
542.3111, 7479.702
542.7932, 7373.042
543.2753, 7270.725
543.7574, 7173.305
544.2396, 7086.026
544.7217, 7019.211
545.2038, 6962.077
545.6859, 6903.122
546.1680, 6835.078
546.6501, 6773.482
547.1323, 6728.476
547.6144, 6693.042
548.0965, 6654.112
548.5786, 6605.486
549.0607, 6557.974
549.5428, 6513.858
550.0250, 6472.913
550.5071, 6430.926
550.9892, 6381.270
551.4713, 6342.624
551.9534, 6330.276
552.4355, 6348.337
552.9177, 6349.298
553.3998, 6330.614
553.8819, 6302.073
554.3640, 6272.211
554.8461, 6241.692
555.3282, 6213.669
555.8104, 6188.013
556.2925, 6167.318
556.7746, 6158.587
557.2567, 6158.536
557.7388, 6156.890
558.2209, 6146.730
558.7031, 6133.988
559.1852, 6120.813
559.6673, 6107.708
560.1494, 6101.979
560.6315, 6119.134
561.1136, 6136.294
561.5958, 6137.030
562.0779, 6105.293
562.5600, 6083.915
563.0421, 6078.681
563.5242, 6082.820
564.0063, 6089.263
564.4885, 6101.314
564.9706, 6107.065
565.4527, 6101.853
565.9348, 6089.729
566.4169, 6085.918
566.8990, 6091.617
567.3812, 6094.990
567.8633, 6085.292
568.3454, 6067.868
568.8275, 6063.567
569.3096, 6072.731
569.7917, 6085.784
570.2739, 6100.812
570.7560, 6112.427
571.2381, 6109.831
571.7202, 6085.322
572.2023, 6063.062
572.6844, 6055.724
573.1666, 6061.082
573.6487, 6075.646
574.1308, 6115.261
574.6129, 6146.218
575.0950, 6152.068
575.5771, 6137.677
576.0593, 6135.044
576.5414, 6152.707
577.0235, 6172.189
577.5056, 6185.338
577.9877, 6190.446
578.4698, 6205.044
578.9520, 6229.690
579.4341, 6262.288
579.9162, 6306.757
580.3983, 6361.324
580.8804, 6398.760
581.3625, 6410.623
581.8447, 6417.671
582.3268, 6453.906
582.8089, 6509.079
583.2910, 6555.449
583.7731, 6573.676
584.2552, 6585.038
584.7373, 6607.676
585.2194, 6639.548
585.7015, 6672.935
586.1837, 6703.388
586.6658, 6735.069
587.1479, 6770.208
587.6300, 6808.604
588.1121, 6851.931
588.5942, 6914.306
589.0764, 6971.300
589.5585, 7004.560
590.0406, 6996.444
590.5227, 7007.522
591.0048, 7045.233
591.4869, 7096.091
591.9691, 7139.489
592.4512, 7174.754
592.9333, 7210.597
593.4154, 7252.126
593.8975, 7292.874
594.3796, 7316.362
594.8618, 7324.842
595.3439, 7332.921
595.8260, 7353.806
596.3081, 7376.067
596.7902, 7384.613
597.2723, 7379.315
597.7545, 7376.249
598.2366, 7389.806
598.7187, 7405.425
599.2008, 7411.355
599.6829, 7400.259
600.1650, 7391.262
600.6472, 7393.501
601.1293, 7396.262
601.6114, 7386.969
602.0935, 7359.401
602.5756, 7332.881
603.0577, 7310.146
603.5399, 7290.013
604.0220, 7265.058
604.5041, 7233.847
604.9862, 7216.233
605.4683, 7231.725
605.9504, 7264.681
606.4326, 7265.609
606.9147, 7236.521
607.3968, 7203.791
607.8789, 7182.980
608.3610, 7171.281
608.8431, 7166.196
609.3253, 7167.524
609.8074, 7173.374
610.2895, 7186.865
610.7716, 7202.183
611.2537, 7213.936
611.7358, 7220.178
612.2180, 7223.650
612.7001, 7223.894
613.1822, 7221.961
613.6643, 7219.420
614.1464, 7216.419
614.6285, 7213.236
615.1107, 7211.188
615.5928, 7208.851
616.0749, 7197.848
616.5570, 7177.435
617.0391, 7159.126
617.5212, 7155.452
618.0034, 7158.459
618.4855, 7143.947
618.9676, 7111.587
619.4497, 7078.022
619.9318, 7057.651
620.4139, 7042.486
620.8961, 7023.633
621.3782, 6998.781
621.8603, 6971.316
622.3424, 6937.223
622.8245, 6903.296
623.3066, 6877.369
623.7888, 6876.838
624.2709, 6863.831
624.7530, 6829.163
625.2351, 6781.552
625.7172, 6742.582
626.1993, 6714.820
626.6815, 6686.705
627.1636, 6653.279
627.6457, 6616.938
628.1278, 6586.331
628.6099, 6561.428
629.0920, 6545.188
629.5742, 6550.955
630.0563, 6563.190
630.5384, 6549.705
631.0205, 6508.740
631.5026, 6465.857
631.9847, 6439.590
632.4669, 6420.180
632.9490, 6395.869
633.4311, 6356.794
633.9132, 6331.655
634.3953, 6342.680
634.8774, 6365.834
635.3596, 6370.906
635.8417, 6343.758
636.3238, 6321.162
636.8059, 6305.223
637.2880, 6297.160
637.7701, 6304.601
638.2523, 6331.181
638.7344, 6345.957
639.2165, 6331.899
639.6986, 6300.733
640.1807, 6286.511
640.6628, 6287.516
641.1450, 6289.169
641.6271, 6279.958
642.1092, 6267.325
642.5913, 6260.440
643.0734, 6259.963
643.5555, 6259.085
644.0377, 6253.165
644.5198, 6246.378
645.0019, 6241.356
645.4840, 6236.153
645.9661, 6238.235
646.4482, 6252.819
646.9304, 6270.922
647.4125, 6283.819
647.8946, 6292.443
648.3767, 6291.659
648.8588, 6277.267
649.3409, 6257.953
649.8231, 6249.473
650.3052, 6251.244
650.7873, 6258.647
651.2694, 6274.521
651.7515, 6290.750
652.2336, 6292.838
652.7158, 6284.228
653.1979, 6277.582
653.6800, 6282.171
654.1621, 6288.951
654.6442, 6291.271
655.1263, 6288.801
655.6085, 6289.799
656.0906, 6303.788
656.5727, 6315.014
657.0548, 6313.161
657.5369, 6291.435
658.0190, 6286.485
658.5012, 6304.364
658.9833, 6327.797
659.4654, 6341.191
659.9475, 6344.711
660.4296, 6343.730
660.9117, 6338.910
661.3939, 6329.640
661.8760, 6306.028
662.3581, 6277.675
662.8402, 6269.048
663.3223, 6304.940
663.8044, 6338.989
664.2866, 6331.646
664.7687, 6299.063
665.2508, 6275.531
665.7329, 6279.073
666.2150, 6284.812
666.6971, 6285.400
667.1793, 6281.941
667.6614, 6280.715
668.1435, 6283.991
668.6256, 6284.853
669.1077, 6278.259
669.5898, 6265.594
670.0720, 6261.781
670.5541, 6266.976
671.0362, 6279.277
671.5183, 6305.655
672.0004, 6336.314
672.4825, 6347.618
672.9647, 6336.561
673.4468, 6323.362
673.9289, 6322.853
674.4110, 6327.222
674.8931, 6328.444
675.3752, 6323.190
675.8574, 6318.304
676.3395, 6310.168
676.8216, 6305.915
677.3037, 6315.644
677.7858, 6352.665
678.2679, 6372.764
678.7501, 6365.174
679.2322, 6344.217
679.7143, 6339.085
680.1964, 6349.713
680.6785, 6359.911
681.1606, 6364.392
681.6428, 6365.079
682.1249, 6360.465
682.6070, 6353.604
683.0891, 6355.778
683.5712, 6383.430
684.0533, 6413.372
684.5355, 6433.247
685.0176, 6442.196
685.4997, 6440.322
685.9818, 6407.866
686.4639, 6382.963
686.9460, 6385.381
687.4282, 6419.860
687.9103, 6436.948
688.3924, 6429.991
688.8745, 6421.366
689.3566, 6433.452
689.8387, 6463.238
690.3209, 6467.190
690.8030, 6440.234
691.2851, 6411.717
691.7672, 6417.730
692.2493, 6441.262
692.7314, 6453.563
693.2136, 6445.544
693.6957, 6434.849
694.1778, 6424.764
694.6599, 6420.470
695.1420, 6428.378
695.6241, 6466.865
696.1063, 6496.005
696.5884, 6514.758
697.0705, 6521.433
697.5526, 6506.935
698.0347, 6461.642
698.5168, 6435.569
698.9990, 6446.092
699.4811, 6478.246
699.9632, 6496.743
700.4453, 6503.602
700.9274, 6511.097
701.4095, 6531.739
701.8917, 6551.823
702.3738, 6552.739
702.8559, 6538.540
703.3380, 6527.978
703.8201, 6532.170
704.3022, 6539.531
704.7844, 6546.338
705.2665, 6552.532
705.7486, 6550.813
706.2307, 6532.561
706.7128, 6518.938
707.1949, 6523.374
707.6771, 6546.466
708.1592, 6564.624
708.6413, 6577.940
709.1234, 6585.444
709.6055, 6579.883
710.0876, 6568.684
710.5698, 6569.950
711.0519, 6586.603
711.5340, 6608.005
712.0161, 6631.266
712.4982, 6652.855
712.9803, 6669.169
713.4625, 6678.072
713.9446, 6683.716
714.4267, 6685.146
714.9088, 6684.379
715.3909, 6683.028
715.8730, 6680.214
716.3552, 6680.699
716.8373, 6687.792
717.3194, 6694.105
717.8015, 6682.448
718.2836, 6655.875
718.7657, 6638.495
719.2479, 6641.093
719.7300, 6650.406
720.2121, 6649.328
720.6942, 6643.116
721.1763, 6643.479
721.6584, 6660.499
722.1406, 6679.954
722.6227, 6700.199
723.1048, 6718.556
723.5869, 6724.229
724.0690, 6703.837
724.5511, 6692.094
725.0333, 6703.141
725.5154, 6731.067
725.9975, 6740.233
726.4796, 6728.897
726.9617, 6720.878
727.4438, 6736.611
727.9260, 6762.688
728.4081, 6767.688
728.8902, 6753.983
729.3723, 6741.397
729.8544, 6742.702
730.3365, 6749.355
730.8187, 6755.216
731.3008, 6759.482
731.7829, 6766.051
732.2650, 6774.655
732.7471, 6786.536
733.2292, 6804.370
733.7114, 6830.634
734.1935, 6846.521
734.6756, 6851.329
735.1577, 6848.484
735.6398, 6832.544
736.1219, 6810.573
736.6041, 6815.216
737.0862, 6852.350
737.5683, 6886.761
738.0504, 6881.224
738.5325, 6859.130
739.0146, 6846.221
739.4968, 6849.022
739.9789, 6858.150
740.4610, 6882.739
740.9431, 6905.652
741.4252, 6908.468
741.9073, 6877.982
742.3895, 6860.367
742.8716, 6858.909
743.3537, 6869.889
743.8358, 6894.094
744.3179, 6928.827
744.8000, 6953.287
745.2822, 6961.275
745.7643, 6961.461
746.2464, 6964.093
746.7285, 6965.993
747.2106, 6961.355
747.6927, 6931.789
748.1749, 6914.853
748.6570, 6936.578
749.1391, 6977.567
749.6212, 6996.206
750.1033, 6976.740
750.5854, 6964.354
751.0676, 6969.289
751.5497, 6984.056
752.0318, 6987.337
752.5139, 6979.671
752.9960, 6981.099
753.4781, 7004.888
753.9603, 7035.479
754.4424, 7051.668
754.9245, 7056.039
755.4066, 7055.642
755.8887, 7045.081
756.3708, 7039.234
756.8530, 7053.836
757.3351, 7082.088
757.8172, 7087.311
758.2993, 7044.999
758.7814, 7017.143
759.2635, 7027.863
759.7457, 7067.728
760.2278, 7085.518
760.7099, 7080.194
761.1920, 7071.670
761.6741, 7067.370
762.1563, 7068.456
762.6384, 7079.678
763.1205, 7099.248
763.6026, 7118.030
764.0847, 7132.235
764.5668, 7142.914
765.0490, 7150.637
765.5311, 7155.586
766.0132, 7156.738
766.4953, 7153.292
766.9774, 7147.391
767.4595, 7137.086
767.9417, 7123.062
768.4238, 7127.151
768.9059, 7150.888
769.3880, 7173.563
769.8701, 7177.250
770.3522, 7171.087
770.8344, 7171.648
771.3165, 7179.263
771.7986, 7186.488
772.2807, 7184.004
772.7628, 7183.224
773.2449, 7196.067
773.7271, 7228.451
774.2092, 7240.263
774.6913, 7215.116
775.1734, 7190.142
775.6555, 7191.763
776.1376, 7222.148
776.6198, 7226.610
777.1019, 7202.546
777.5840, 7179.726
778.0661, 7187.213
778.5482, 7212.229
779.0303, 7233.952
779.5125, 7250.143
779.9946, 7263.527
780.4767, 7274.099
780.9588, 7283.332
781.4409, 7292.268
781.9230, 7300.983
782.4052, 7308.693
782.8873, 7314.904
783.3694, 7320.386
783.8515, 7325.868
784.3336, 7331.234
784.8157, 7332.327
785.2979, 7327.803
785.7800, 7328.368
786.2621, 7355.793
786.7442, 7390.819
787.2263, 7398.909
787.7084, 7369.927
788.1906, 7347.534
788.6727, 7359.167
789.1548, 7381.931
789.6369, 7398.122
790.1190, 7407.676
790.6011, 7405.406
791.0833, 7382.392
791.5654, 7362.440
792.0475, 7372.547
792.5296, 7409.858
793.0117, 7439.606
793.4938, 7459.066
793.9760, 7471.413
794.4581, 7479.237
794.9402, 7482.257
795.4223, 7479.045
795.9044, 7467.617
796.3865, 7457.284
796.8687, 7451.955
797.3508, 7448.750
797.8329, 7444.435
798.3150, 7434.257
798.7971, 7436.529
799.2792, 7454.862
799.7614, 7477.942
800.2435, 7496.388
800.7256, 7510.239
801.2077, 7519.276
801.6898, 7523.208
802.1719, 7524.976
802.6541, 7519.130
803.1362, 7516.538
803.6183, 7534.108
804.1004, 7589.624
804.5825, 7621.322
805.0646, 7588.728
805.5468, 7547.348
806.0289, 7540.538
806.5110, 7579.858
806.9931, 7603.108
807.4752, 7606.152
807.9573, 7601.134
808.4395, 7599.880
808.9216, 7600.628
809.4037, 7598.436
809.8858, 7592.333
810.3679, 7585.759
810.8500, 7579.694
811.3322, 7575.245
811.8143, 7573.136
812.2964, 7572.469
812.7785, 7577.441
813.2606, 7590.624
813.7427, 7606.465
814.2249, 7621.691
814.7070, 7636.653
815.1891, 7645.757
815.6712, 7648.736
816.1533, 7646.743
816.6354, 7632.347
817.1176, 7617.007
817.5997, 7620.888
818.0818, 7649.245
818.5639, 7679.074
819.0460, 7703.173
819.5281, 7721.917
820.0103, 7735.520
820.4924, 7744.784
820.9745, 7744.455
821.4566, 7728.407
821.9387, 7715.647
822.4208, 7727.026
822.9030, 7757.127
823.3851, 7774.923
823.8672, 7778.712
824.3493, 7777.736
824.8314, 7773.064
825.3135, 7771.294
825.7957, 7783.966
826.2778, 7816.099
826.7599, 7832.242
827.2420, 7810.958
827.7241, 7783.858
828.2062, 7764.103
828.6884, 7751.548
829.1705, 7754.491
829.6526, 7775.579
830.1347, 7797.321
830.6168, 7801.573
831.0989, 7798.513
831.5811, 7813.075
832.0632, 7844.817
832.5453, 7868.780
833.0274, 7863.025
833.5095, 7850.073
833.9916, 7843.172
834.4738, 7843.811
834.9559, 7845.542
835.4380, 7843.948
835.9201, 7852.148
836.4022, 7884.596
836.8843, 7934.049
837.3665, 7948.149
837.8486, 7928.702
838.3307, 7909.323
838.8128, 7913.263
839.2949, 7927.440
839.7770, 7944.051
840.2592, 7960.992
840.7413, 7966.905
841.2234, 7942.788
841.7055, 7923.623
842.1876, 7921.960
842.6697, 7935.500
843.1519, 7952.255
843.6340, 7973.590
844.1161, 7987.570
844.5982, 7984.293
845.0803, 7973.349
845.5624, 7973.362
846.0446, 7982.361
846.5267, 7993.654
847.0088, 8008.788
847.4909, 8020.489
847.9730, 8025.774
848.4551, 8024.618
848.9373, 8016.936
849.4194, 7996.754
849.9015, 7984.047
850.3836, 7985.976
850.8657, 7995.905
851.3478, 7996.208
851.8300, 7989.157
852.3121, 7988.807
852.7942, 8004.659
853.2763, 8022.710
853.7584, 8029.435
854.2405, 8030.007
854.7227, 8033.525
855.2048, 8041.040
855.6869, 8054.353
856.1690, 8081.701
856.6511, 8108.514
857.1332, 8108.841
857.6154, 8080.569
858.0975, 8061.958
858.5796, 8059.647
859.0617, 8068.724
859.5438, 8092.878
860.0259, 8121.440
860.5081, 8132.963
860.9902, 8110.890
861.4723, 8098.333
861.9544, 8121.341
862.4365, 8155.750
862.9186, 8177.302
863.4008, 8183.139
863.8829, 8183.920
864.3650, 8178.313
864.8471, 8172.477
865.3292, 8173.454
865.8113, 8179.203
866.2935, 8185.761
866.7756, 8193.150
867.2577, 8194.521
867.7398, 8172.605
868.2219, 8151.806
868.7040, 8154.185
869.1862, 8190.032
869.6683, 8213.670
870.1504, 8220.517
870.6325, 8223.048
871.1146, 8226.623
871.5967, 8231.861
872.0789, 8249.505
872.5610, 8278.625
873.0431, 8296.018
873.5252, 8270.157
874.0073, 8236.630
874.4894, 8230.447
874.9716, 8250.167
875.4537, 8265.878
875.9358, 8259.592
876.4179, 8261.920
876.9000, 8287.894
877.3821, 8329.094
877.8643, 8341.890
878.3464, 8326.011
878.8285, 8310.586
879.3106, 8309.049
879.7927, 8315.233
880.2748, 8324.323
880.7570, 8334.573
881.2391, 8341.666
881.7212, 8337.816
882.2033, 8337.748
882.6854, 8346.596
883.1675, 8361.403
883.6497, 8381.635
884.1318, 8411.269
884.6139, 8418.924
885.0960, 8393.110
885.5781, 8357.287
886.0602, 8340.688
886.5424, 8340.404
887.0245, 8352.188
887.5066, 8380.516
887.9887, 8406.206
888.4708, 8427.123
888.9529, 8437.132
889.4351, 8427.622
889.9172, 8383.513
890.3993, 8365.971
890.8814, 8382.152
891.3635, 8405.688
891.8456, 8406.690
892.3278, 8395.446
892.8099, 8405.794
893.2920, 8441.049
893.7741, 8467.017
894.2562, 8450.127
894.7383, 8424.953
895.2205, 8415.476
895.7026, 8425.204
896.1847, 8437.602
896.6668, 8456.043
897.1489, 8468.979
897.6310, 8464.674
898.1132, 8451.072
898.5953, 8463.521
899.0774, 8498.274
899.5595, 8530.582
900.0416, 8548.346
900.5237, 8556.779
901.0059, 8557.025
901.4880, 8550.493
901.9701, 8541.786
902.4522, 8527.213
902.9343, 8517.920
903.4164, 8515.780
903.8986, 8520.316
904.3807, 8530.914
904.8628, 8547.412
905.3449, 8571.111
905.8270, 8608.509
906.3091, 8638.678
906.7913, 8633.253
907.2734, 8613.816
907.7555, 8608.617
908.2376, 8644.494
908.7197, 8660.927
909.2018, 8647.533
909.6840, 8626.443
910.1661, 8618.197
910.6482, 8622.183
911.1303, 8632.252
911.6124, 8648.545
912.0945, 8659.686
912.5767, 8650.562
913.0588, 8634.986
913.5409, 8623.489
914.0230, 8616.617
914.5051, 8624.283
914.9872, 8657.123
915.4694, 8692.031
915.9515, 8722.083
916.4336, 8746.084
916.9157, 8749.811
917.3978, 8734.414
917.8799, 8725.060
918.3621, 8742.506
918.8442, 8767.562
919.3263, 8787.228
919.8084, 8799.092
920.2905, 8797.124
920.7726, 8758.720
921.2548, 8733.720
921.7369, 8733.285
922.2190, 8747.592
922.7011, 8759.489
923.1832, 8768.901
923.6653, 8775.693
924.1475, 8779.516
924.6296, 8781.947
925.1117, 8779.664
925.5938, 8779.293
926.0759, 8791.192
926.5580, 8827.476
927.0402, 8850.789
927.5223, 8854.201
928.0044, 8848.123
928.4865, 8835.713
928.9686, 8817.273
929.4507, 8818.641
929.9329, 8840.461
930.4150, 8862.611
930.8971, 8866.224
931.3792, 8864.878
931.8613, 8872.412
932.3434, 8888.711
932.8256, 8905.562
933.3077, 8927.287
933.7898, 8940.392
934.2719, 8937.261
934.7540, 8923.958
935.2361, 8922.437
935.7183, 8931.969
936.2004, 8943.074
936.6825, 8955.061
937.1646, 8962.710
937.6467, 8955.883
938.1288, 8942.779
938.6110, 8936.454
939.0931, 8945.494
939.5752, 8954.682
940.0573, 8965.301
940.5394, 8973.146
941.0215, 8972.084
941.5037, 8963.079
941.9858, 8954.134
942.4679, 8945.772
942.9500, 8940.847
943.4321, 8938.867
943.9142, 8943.455
944.3964, 8961.566
944.8785, 8995.262
945.3606, 9019.353
945.8427, 9030.771
946.3248, 9034.017
946.8069, 9025.024
947.2891, 9010.720
947.7712, 9029.314
948.2533, 9074.484
948.7354, 9106.060
949.2175, 9092.576
949.6996, 9069.256
950.1818, 9052.469
950.6639, 9044.927
951.1460, 9055.048
951.6281, 9102.900
952.1102, 9125.900
952.5923, 9110.165
953.0745, 9082.603
953.5566, 9082.363
954.0387, 9101.686
954.5208, 9109.768
955.0029, 9100.069
955.4850, 9094.899
955.9672, 9119.884
956.4493, 9147.733
956.9314, 9153.582
957.4135, 9132.521
957.8956, 9125.316
958.3777, 9136.456
958.8599, 9148.260
959.3420, 9151.953
959.8241, 9149.021
960.3062, 9136.502
960.7883, 9118.972
961.2704, 9115.159
961.7526, 9146.596
962.2347, 9180.190
962.7168, 9204.074
963.1989, 9219.525
963.6810, 9229.776
964.1631, 9234.045
964.6453, 9235.282
965.1274, 9232.881
965.6095, 9230.672
966.0916, 9232.700
966.5737, 9238.514
967.0558, 9250.014
967.5380, 9270.161
968.0201, 9280.073
968.5022, 9258.611
968.9843, 9237.975
969.4664, 9238.768
969.9485, 9260.819
970.4307, 9273.150
970.9128, 9275.373
971.3949, 9275.563
971.8770, 9276.381
972.3591, 9279.455
972.8412, 9288.474
973.3234, 9301.515
973.8055, 9313.092
974.2876, 9323.993
974.7697, 9329.373
975.2518, 9325.960
975.7339, 9319.280
976.2161, 9314.953
976.6982, 9313.742
977.1803, 9330.072
977.6624, 9369.128
978.1445, 9405.487
978.6266, 9414.912
979.1088, 9412.350
979.5909, 9412.629
980.0730, 9419.039
980.5551, 9419.438
981.0372, 9409.184
981.5193, 9401.688
982.0015, 9404.346
982.4836, 9414.805
982.9657, 9426.484
983.4478, 9438.841
983.9299, 9449.311
984.4120, 9453.753
984.8942, 9458.920
985.3763, 9472.555
985.8584, 9487.910
986.3405, 9489.755
986.8226, 9469.105
987.3047, 9469.416
987.7869, 9500.615
988.2690, 9536.008
988.7511, 9537.143
989.2332, 9522.074
989.7153, 9527.187
990.1974, 9559.445
990.6796, 9579.854
991.1617, 9558.441
991.6438, 9535.410
992.1259, 9528.692
992.6080, 9537.558
993.0901, 9559.369
993.5723, 9594.342
994.0544, 9623.195
994.5365, 9635.025
995.0186, 9638.788
995.5007, 9645.077
995.9828, 9650.364
996.4650, 9648.449
996.9471, 9623.965
997.4292, 9611.813
997.9113, 9615.120
998.3934, 9628.636
998.8755, 9652.568
999.3577, 9683.413
999.8398, 9700.560
1000.322, 9702.826
1000.804, 9693.654
1001.286, 9659.689
1001.768, 9628.855
1002.250, 9623.126
1002.732, 9641.794
1003.215, 9660.760
1003.697, 9682.162
1004.179, 9695.808
1004.661, 9695.811
1005.143, 9691.207
1005.625, 9695.671
1006.107, 9707.964
1006.589, 9727.633
1007.072, 9766.381
1007.554, 9787.225
1008.036, 9762.853
1008.518, 9729.019
1009.000, 9707.550
1009.482, 9697.818
1009.964, 9721.966
1010.446, 9781.890
1010.928, 9825.815
1011.411, 9796.564
1011.893, 9749.889
1012.375, 9737.838
1012.857, 9756.306
1013.339, 9777.265
1013.821, 9801.525
1014.303, 9817.362
1014.785, 9819.349
1015.268, 9816.545
1015.750, 9828.205
1016.232, 9848.279
1016.714, 9853.322
1017.196, 9834.974
1017.678, 9823.830
1018.160, 9848.291
1018.642, 9879.231
1019.124, 9894.885
1019.607, 9894.705
1020.089, 9893.476
1020.571, 9890.907
1021.053, 9889.658
1021.535, 9890.394
1022.017, 9893.873
1022.499, 9902.649
1022.981, 9914.793
1023.464, 9926.022
1023.946, 9930.399
1024.428, 9940.334
1024.910, 9959.438
1025.392, 9981.174
1025.874, 10000.39
1026.356, 10015.96
1026.838, 10018.85
1027.320, 10008.37
1027.803, 10001.91
1028.285, 10022.72
1028.767, 10042.88
1029.249, 10039.02
1029.731, 10013.66
1030.213, 9995.881
1030.695, 9986.262
1031.177, 9982.742
1031.660, 9985.557
1032.142, 9992.693
1032.624, 10000.57
1033.106, 10010.63
1033.588, 10026.97
1034.070, 10056.41
1034.552, 10075.77
1035.034, 10070.08
1035.516, 10063.20
1035.999, 10074.02
1036.481, 10099.90
1036.963, 10094.93
1037.445, 10062.33
1037.927, 10041.88
1038.409, 10070.15
1038.891, 10106.65
1039.373, 10120.15
1039.855, 10120.74
1040.338, 10136.10
1040.820, 10180.14
1041.302, 10198.34
1041.784, 10179.02
1042.266, 10153.87
1042.748, 10163.84
1043.230, 10191.87
1043.712, 10206.94
1044.195, 10205.90
1044.677, 10204.43
1045.159, 10207.66
1045.641, 10212.75
1046.123, 10218.68
1046.605, 10225.85
1047.087, 10238.76
1047.569, 10255.99
1048.052, 10260.88
1048.534, 10242.09
1049.016, 10224.76
1049.498, 10231.50
1049.980, 10248.28
1050.462, 10258.62
1050.944, 10258.13
1051.426, 10266.93
1051.908, 10288.82
1052.391, 10303.92
1052.873, 10289.44
1053.355, 10264.79
1053.837, 10269.35
1054.319, 10294.43
1054.801, 10311.81
1055.283, 10301.88
1055.765, 10296.00
1056.247, 10301.88
1056.730, 10311.43
1057.212, 10312.54
1057.694, 10306.82
1058.176, 10306.22
1058.658, 10312.00
1059.140, 10319.02
1059.622, 10323.81
1060.104, 10328.13
1060.587, 10332.77
1061.069, 10337.87
1061.551, 10343.58
1062.033, 10349.17
1062.515, 10361.83
1062.997, 10388.59
1063.479, 10411.14
1063.961, 10399.31
1064.443, 10370.10
1064.926, 10347.04
1065.408, 10333.93
1065.890, 10332.97
1066.372, 10347.57
1066.854, 10367.15
1067.336, 10386.88
1067.818, 10406.45
1068.300, 10423.99
1068.782, 10439.72
1069.265, 10454.48
1069.747, 10471.72
1070.229, 10484.34
1070.711, 10486.76
1071.193, 10484.09
1071.675, 10479.06
1072.157, 10470.11
1072.639, 10482.47
1073.122, 10518.87
1073.604, 10551.17
1074.086, 10550.12
1074.568, 10538.55
1075.050, 10533.15
1075.532, 10535.71
1076.014, 10550.61
1076.496, 10584.48
1076.979, 10612.27
1077.461, 10628.46
1077.943, 10637.29
1078.425, 10639.18
1078.907, 10640.04
1079.389, 10654.72
1079.871, 10688.69
1080.353, 10711.68
1080.835, 10705.70
1081.318, 10693.94
1081.800, 10681.07
1082.282, 10670.96
1082.764, 10682.76
1083.246, 10713.44
1083.728, 10745.05
1084.210, 10771.82
1084.692, 10795.86
1085.174, 10828.81
1085.656, 10852.40
1086.139, 10843.25
1086.621, 10790.28
1087.103, 10780.46
1087.585, 10817.58
1088.067, 10854.81
1088.549, 10858.93
1089.031, 10848.32
1089.513, 10837.45
1089.996, 10828.38
1090.478, 10826.07
1090.960, 10834.44
1091.442, 10843.63
1091.924, 10853.96
1092.406, 10861.75
1092.888, 10860.15
1093.370, 10853.63
1093.853, 10853.36
1094.335, 10859.31
1094.817, 10861.42
1095.299, 10850.72
1095.781, 10841.32
1096.263, 10837.85
1096.745, 10837.99
1097.227, 10835.49
1097.709, 10831.51
1098.192, 10833.37
1098.674, 10843.31
1099.156, 10854.84
1099.638, 10876.40
1100.120, 10886.61
1100.602, 10857.12
1101.084, 10794.76
1101.566, 10789.79
1102.048, 10845.67
1102.531, 10883.82
1103.013, 10862.96
1103.495, 10830.61
1103.977, 10839.83
1104.459, 10868.59
1104.941, 10888.10
1105.423, 10892.40
1105.905, 10889.79
1106.388, 10877.22
1106.870, 10867.70
1107.352, 10875.44
1107.834, 10888.58
1108.316, 10877.30
1108.798, 10852.68
1109.280, 10845.17
1109.762, 10881.18
1110.245, 10912.92
1110.727, 10937.71
1111.209, 10952.83
1111.691, 10952.32
1112.173, 10939.79
1112.655, 10926.31
1113.137, 10913.22
1113.619, 10908.02
1114.101, 10928.49
1114.583, 10941.54
1115.066, 10926.00
1115.548, 10899.52
1116.030, 10895.85
1116.512, 10913.71
1116.994, 10926.51
1117.476, 10929.62
1117.958, 10936.29
1118.440, 10966.21
1118.923, 10995.80
1119.405, 11004.67
1119.887, 10995.82
1120.369, 10990.31
1120.851, 10988.22
1121.333, 10988.81
1121.815, 10991.78
1122.297, 10997.67
1122.780, 11010.23
1123.262, 11024.48
1123.744, 11035.39
1124.226, 11042.63
1124.708, 11040.21
1125.190, 11022.55
1125.672, 11013.58
1126.154, 11029.20
1126.636, 11053.90
1127.119, 11060.13
1127.601, 11054.39
1128.083, 11048.97
1128.565, 11047.51
1129.047, 11045.27
1129.529, 11038.14
1130.011, 11036.33
1130.493, 11047.53
1130.975, 11069.44
1131.458, 11100.66
1131.940, 11136.95
1132.422, 11162.19
1132.904, 11167.35
1133.386, 11161.52
1133.868, 11135.17
1134.350, 11111.90
1134.832, 11123.29
1135.315, 11163.42
1135.797, 11175.03
1136.279, 11158.26
1136.761, 11145.48
1137.243, 11161.41
1137.725, 11181.38
1138.207, 11196.57
1138.689, 11206.04
1139.172, 11203.22
1139.654, 11187.41
1140.136, 11196.00
1140.618, 11234.98
1141.100, 11266.16
1141.582, 11249.21
1142.064, 11221.15
1142.546, 11206.09
1143.028, 11204.94
1143.510, 11214.45
1143.993, 11236.04
1144.475, 11258.04
1144.957, 11277.92
1145.439, 11295.97
1145.921, 11315.46
1146.403, 11330.87
1146.885, 11333.29
1147.367, 11321.12
1147.850, 11320.78
1148.332, 11336.60
1148.814, 11350.69
1149.296, 11358.95
1149.778, 11359.07
1150.260, 11337.15
1150.742, 11309.42
1151.224, 11300.49
1151.707, 11317.99
1152.189, 11344.51
1152.671, 11388.25
1153.153, 11414.71
1153.635, 11397.82
1154.117, 11364.51
1154.599, 11374.98
1155.081, 11411.13
1155.563, 11432.79
1156.046, 11420.51
1156.528, 11412.87
1157.010, 11420.06
1157.492, 11423.54
1157.974, 11403.97
1158.456, 11373.93
1158.938, 11380.19
1159.420, 11412.89
1159.902, 11440.55
1160.385, 11444.44
1160.867, 11450.64
1161.349, 11471.28
1161.831, 11487.56
1162.313, 11478.58
1162.795, 11449.59
1163.277, 11426.30
1163.759, 11410.86
1164.242, 11414.44
1164.724, 11465.43
1165.206, 11508.40
1165.688, 11523.10
1166.170, 11520.61
1166.652, 11504.35
1167.134, 11477.83
1167.616, 11485.46
1168.099, 11526.65
1168.581, 11558.62
1169.063, 11544.22
1169.545, 11525.63
1170.027, 11522.29
1170.509, 11529.56
1170.991, 11541.47
1171.473, 11558.01
1171.955, 11578.66
1172.438, 11603.32
1172.920, 11624.12
1173.402, 11629.79
1173.884, 11634.42
1174.366, 11647.97
1174.848, 11667.03
1175.330, 11685.92
1175.812, 11704.86
1176.294, 11704.85
1176.777, 11679.76
1177.259, 11663.50
1177.741, 11709.05
1178.223, 11753.22
1178.705, 11730.04
1179.187, 11659.78
1179.669, 11646.98
1180.151, 11696.50
1180.634, 11722.12
1181.116, 11698.47
1181.598, 11672.18
1182.080, 11691.57
1182.562, 11725.10
1183.044, 11748.27
1183.526, 11758.98
1184.008, 11751.42
1184.490, 11723.23
1184.973, 11697.13
1185.455, 11677.95
1185.937, 11670.75
1186.419, 11684.85
1186.901, 11711.33
1187.383, 11746.78
1187.865, 11791.94
1188.347, 11805.66
1188.829, 11783.24
1189.312, 11766.67
1189.794, 11773.84
1190.276, 11790.07
1190.758, 11799.30
1191.240, 11807.47
1191.722, 11824.07
1192.204, 11852.41
1192.686, 11869.18
1193.169, 11873.30
1193.651, 11871.04
1194.133, 11862.68
1194.615, 11853.35
1195.097, 11847.09
1195.579, 11844.72
1196.061, 11847.19
1196.543, 11853.30
1197.026, 11872.90
1197.508, 11909.40
1197.990, 11940.19
1198.472, 11953.54
1198.954, 11953.20
1199.436, 11929.00
1199.918, 11899.52
1200.400, 11899.06
1200.882, 11950.28
1201.365, 11966.26
1201.847, 11939.88
1202.329, 11917.26
1202.811, 11934.98
1203.293, 11966.91
1203.775, 11987.19
1204.257, 11996.98
1204.739, 11998.24
1205.221, 11989.83
1205.704, 11973.93
1206.186, 11946.95
1206.668, 11931.83
1207.150, 11957.87
1207.632, 11994.38
1208.114, 12005.81
1208.596, 12000.70
1209.078, 11998.15
1209.561, 11999.34
1210.043, 12007.49
1210.525, 12024.19
1211.007, 12040.91
1211.489, 12051.36
1211.971, 12058.41
1212.453, 12068.94
1212.935, 12078.07
1213.417, 12069.54
1213.900, 12030.24
1214.382, 12016.00
1214.864, 12032.03
1215.346, 12057.77
1215.828, 12083.11
1216.310, 12103.67
1216.792, 12110.17
1217.274, 12126.72
1217.756, 12138.13
1218.239, 12141.19
1218.721, 12154.28
1219.203, 12153.23
1219.685, 12147.43
1220.167, 12146.82
1220.649, 12144.14
1221.131, 12125.80
1221.613, 12100.20
1222.096, 12093.85
1222.578, 12113.27
1223.060, 12122.44
1223.542, 12116.41
1224.024, 12115.56
1224.506, 12147.40
1224.988, 12183.97
1225.470, 12200.55
1225.953, 12200.43
1226.435, 12198.99
1226.917, 12194.53
1227.399, 12201.87
1227.881, 12223.74
1228.363, 12242.50
1228.845, 12238.93
1229.327, 12229.31
1229.809, 12225.88
1230.292, 12227.09
1230.774, 12226.59
1231.256, 12224.23
1231.738, 12222.32
1232.220, 12221.02
1232.702, 12225.18
1233.184, 12253.68
1233.666, 12275.10
1234.148, 12256.20
1234.631, 12216.11
1235.113, 12200.43
1235.595, 12209.47
1236.077, 12229.73
1236.559, 12259.89
1237.041, 12288.16
1237.523, 12308.93
1238.005, 12322.03
1238.488, 12326.34
1238.970, 12322.86
1239.452, 12306.15
1239.934, 12278.62
1240.416, 12274.77
1240.898, 12299.19
1241.380, 12323.63
1241.862, 12322.37
1242.344, 12324.79
1242.827, 12351.08
1243.309, 12385.73
1243.791, 12398.27
1244.273, 12391.83
1244.755, 12379.12
1245.237, 12361.89
1245.719, 12359.25
1246.201, 12400.74
1246.683, 12435.12
1247.166, 12439.19
1247.648, 12430.71
1248.130, 12443.10
1248.612, 12469.64
1249.094, 12486.72
1249.576, 12491.65
1250.058, 12497.13
1250.540, 12512.58
1251.023, 12524.42
1251.505, 12530.24
1251.987, 12529.29
1252.469, 12511.49
1252.951, 12488.20
1253.433, 12492.04
1253.915, 12524.62
1254.397, 12545.88
1254.880, 12542.80
1255.362, 12526.18
1255.844, 12490.37
1256.326, 12459.06
1256.808, 12471.74
1257.290, 12508.43
1257.772, 12539.87
1258.254, 12562.73
1258.736, 12569.68
1259.219, 12548.68
1259.701, 12545.10
1260.183, 12571.03
1260.665, 12603.31
1261.147, 12614.71
1261.629, 12616.19
1262.111, 12622.15
1262.593, 12631.96
1263.075, 12630.92
1263.558, 12611.18
1264.040, 12614.89
1264.522, 12653.62
1265.004, 12688.64
1265.486, 12668.43
1265.968, 12637.85
1266.450, 12641.59
1266.932, 12673.17
1267.415, 12694.11
1267.897, 12704.81
1268.379, 12697.87
1268.861, 12670.66
1269.343, 12650.61
1269.825, 12668.97
1270.307, 12693.29
1270.789, 12697.90
1271.271, 12693.23
1271.754, 12702.46
1272.236, 12724.44
1272.718, 12739.91
1273.200, 12746.62
1273.682, 12746.78
1274.164, 12732.13
1274.646, 12722.51
1275.128, 12726.57
1275.610, 12739.49
1276.093, 12758.20
1276.575, 12779.29
1277.057, 12786.26
1277.539, 12778.98
1278.021, 12775.26
1278.503, 12782.40
1278.985, 12797.26
1279.467, 12824.20
1279.950, 12849.03
1280.432, 12850.44
1280.914, 12837.88
1281.396, 12832.13
1281.878, 12833.14
1282.360, 12831.21
1282.842, 12811.63
1283.324, 12816.22
1283.807, 12857.35
1284.289, 12897.69
1284.771, 12889.14
1285.253, 12862.85
1285.735, 12861.65
1286.217, 12880.17
1286.699, 12888.79
1287.181, 12877.64
1287.663, 12890.01
1288.146, 12932.64
1288.628, 12969.72
1289.110, 12966.21
1289.592, 12949.09
1290.074, 12939.23
1290.556, 12933.26
1291.038, 12918.18
1291.520, 12891.52
1292.002, 12900.64
1292.485, 12946.48
1292.967, 12987.19
1293.449, 12988.50
1293.931, 12985.46
1294.413, 13004.35
1294.895, 13021.69
1295.377, 13004.18
1295.859, 12959.45
1296.342, 12941.94
1296.824, 12951.91
1297.306, 12980.17
1297.788, 13047.79
1298.270, 13094.48
1298.752, 13106.21
1299.234, 13102.20
1299.716, 13097.38
1300.198, 13090.03
1300.681, 13065.90
1301.163, 13036.72
1301.645, 13032.32
1302.127, 13056.10
##END=



