##NAMES=Julgoldite-(Fe2+)
##RRUFFID=R070725
##IDEAL CHEMISTRY=Ca_2_Fe^2+^Fe^3+^_2_(Si_2_O_7_)(SiO_4_)(OH)_2_&#183;H_2_O
##LOCALITY=Khandivali Quarry (Kandivali Quarry),  Mumbai District (Bombay District),  Maharashtra,  India
##OWNER=RRUFF
##SOURCE=Michael Scott
##DESCRIPTION=Clusters of black blades associated with pale green bladed prehnite and quartz
##STATUS=The identification of this mineral has been confirmed by X-ray diffraction and chemical analysis
##URL=rruff.info/R070725
##MEASURED CHEMISTRY=Ca_2.00_(Fe^2+^_0.86_Mg_0.14_)_Σ=1_(Fe^3+^_1.67_Al_0.33_)_Σ=2_(Si_2.00_O_7_)(Si_1.00_O_4_)(OH)_2_·H_2_O; OH by charge balance = light; Ca_2.00_(Fe^2+^_0.82_Mg_0.18_)_Σ=1_(Fe^3+^_1.44_Al_0.58_)_Σ=2_(Si_2.00_O_7_)(Si_1.00_O_4_)(OH)_2_·H_2_O = darker
80.11163, 0.0000000E+00
80.59375, 704.8040
81.07587, 648.7211
81.55798, 632.6863
82.04010, 649.5105
82.52222, 668.5064
83.00433, 689.5225
83.48645, 705.9111
83.96857, 712.4942
84.45068, 700.5803
84.93280, 684.3660
85.41492, 667.5232
85.89703, 649.4681
86.37915, 637.3486
86.86127, 641.6294
87.34338, 654.5640
87.82550, 661.9915
88.30762, 649.3950
88.78973, 631.0919
89.27185, 622.0623
89.75397, 628.9866
90.23608, 640.0805
90.71819, 645.8861
91.20031, 646.3389
91.68243, 640.9163
92.16454, 626.0915
92.64666, 604.6948
93.12878, 583.6416
93.61089, 559.5325
94.09301, 538.1428
94.57513, 536.4878
95.05724, 558.3239
95.53936, 585.4187
96.02148, 590.4155
96.50359, 574.0692
96.98571, 561.6485
97.46783, 572.7791
97.94994, 605.8214
98.43206, 627.4094
98.91418, 630.0388
99.39629, 620.9327
99.87841, 624.4447
100.3605, 643.5017
100.8426, 666.6921
101.3248, 683.5920
101.8069, 692.9453
102.2890, 701.3279
102.7711, 710.8872
103.2532, 722.2319
103.7353, 728.1819
104.2175, 723.1790
104.6996, 716.5533
105.1817, 725.6019
105.6638, 760.1938
106.1459, 797.0263
106.6280, 824.9678
107.1102, 818.2416
107.5923, 843.9515
108.0744, 921.8198
108.5565, 1042.829
109.0386, 1135.557
109.5207, 1173.853
110.0029, 1199.323
110.4850, 1238.045
110.9671, 1321.620
111.4492, 1388.191
111.9313, 1418.354
112.4134, 1402.904
112.8956, 1406.401
113.3777, 1447.572
113.8598, 1510.638
114.3419, 1575.356
114.8240, 1641.926
115.3061, 1705.243
115.7883, 1760.029
116.2704, 1797.220
116.7525, 1843.337
117.2346, 1917.105
117.7167, 2009.957
118.1988, 2093.053
118.6810, 2142.668
119.1631, 2182.346
119.6452, 2233.134
120.1273, 2310.554
120.6094, 2395.047
121.0915, 2475.475
121.5737, 2551.759
122.0558, 2626.879
122.5379, 2727.781
123.0200, 2828.289
123.5021, 2881.175
123.9842, 2825.562
124.4664, 2725.008
124.9485, 2655.006
125.4306, 2627.925
125.9127, 2618.173
126.3948, 2596.979
126.8769, 2567.841
127.3591, 2547.507
127.8412, 2554.198
128.3233, 2578.481
128.8054, 2596.837
129.2875, 2598.314
129.7696, 2592.513
130.2518, 2604.650
130.7339, 2638.991
131.2160, 2670.449
131.6981, 2655.673
132.1802, 2601.880
132.6623, 2566.371
133.1445, 2580.016
133.6266, 2633.674
134.1087, 2665.351
134.5908, 2670.964
135.0729, 2665.411
135.5550, 2670.721
136.0372, 2687.042
136.5193, 2711.284
137.0014, 2742.468
137.4835, 2780.255
137.9656, 2826.235
138.4477, 2888.001
138.9299, 2955.191
139.4120, 2994.273
139.8941, 3005.620
140.3762, 2989.341
140.8583, 2937.338
141.3404, 2833.900
141.8225, 2745.997
142.3047, 2684.882
142.7868, 2651.108
143.2689, 2634.085
143.7510, 2638.832
144.2331, 2655.981
144.7152, 2673.946
145.1974, 2692.901
145.6795, 2712.861
146.1616, 2737.020
146.6437, 2776.511
147.1258, 2791.257
147.6079, 2766.781
148.0901, 2717.875
148.5722, 2685.406
149.0543, 2678.764
149.5364, 2679.591
150.0185, 2679.940
150.5006, 2671.679
150.9828, 2672.419
151.4649, 2692.246
151.9470, 2728.092
152.4291, 2744.605
152.9112, 2715.458
153.3933, 2680.062
153.8755, 2665.950
154.3576, 2714.161
154.8397, 2746.468
155.3218, 2738.528
155.8039, 2681.811
156.2860, 2637.118
156.7682, 2621.674
157.2503, 2622.577
157.7324, 2623.803
158.2145, 2627.061
158.6966, 2625.807
159.1787, 2615.214
159.6609, 2587.602
160.1430, 2566.876
160.6251, 2561.369
161.1072, 2568.157
161.5893, 2580.750
162.0714, 2609.025
162.5536, 2635.446
163.0357, 2648.272
163.5178, 2643.154
163.9999, 2625.878
164.4820, 2589.164
164.9641, 2537.170
165.4463, 2497.593
165.9284, 2494.139
166.4105, 2506.952
166.8926, 2514.629
167.3747, 2506.189
167.8568, 2492.327
168.3390, 2476.070
168.8211, 2457.092
169.3032, 2447.046
169.7853, 2464.627
170.2674, 2495.764
170.7495, 2515.892
171.2317, 2506.112
171.7138, 2483.317
172.1959, 2463.400
172.6780, 2448.030
173.1601, 2436.026
173.6422, 2426.287
174.1244, 2419.093
174.6065, 2415.441
175.0886, 2424.244
175.5707, 2434.976
176.0528, 2428.844
176.5349, 2390.654
177.0171, 2350.851
177.4992, 2351.989
177.9813, 2389.669
178.4634, 2426.451
178.9455, 2430.424
179.4276, 2411.716
179.9098, 2393.509
180.3919, 2381.768
180.8740, 2375.238
181.3561, 2372.046
181.8382, 2372.264
182.3203, 2374.374
182.8025, 2376.605
183.2846, 2379.364
183.7667, 2384.359
184.2488, 2392.993
184.7309, 2404.582
185.2130, 2417.153
185.6951, 2431.261
186.1773, 2445.090
186.6594, 2458.578
187.1415, 2471.212
187.6236, 2477.709
188.1057, 2472.368
188.5878, 2457.562
189.0700, 2443.444
189.5521, 2429.803
190.0342, 2419.387
190.5163, 2418.842
190.9984, 2428.346
191.4805, 2440.317
191.9627, 2446.144
192.4448, 2447.000
192.9269, 2459.476
193.4090, 2490.461
193.8911, 2532.393
194.3732, 2563.983
194.8554, 2585.311
195.3375, 2597.646
195.8196, 2598.240
196.3017, 2586.796
196.7838, 2580.504
197.2659, 2586.396
197.7481, 2601.951
198.2302, 2608.410
198.7123, 2603.375
199.1944, 2596.397
199.6765, 2597.394
200.1586, 2606.303
200.6408, 2624.228
201.1229, 2657.461
201.6050, 2706.183
202.0871, 2737.336
202.5692, 2747.899
203.0513, 2745.499
203.5335, 2739.644
204.0156, 2728.009
204.4977, 2722.360
204.9798, 2732.983
205.4619, 2764.161
205.9440, 2777.436
206.4262, 2765.306
206.9083, 2739.126
207.3904, 2729.797
207.8725, 2743.459
208.3546, 2756.940
208.8367, 2754.726
209.3189, 2731.749
209.8010, 2714.903
210.2831, 2709.591
210.7652, 2711.714
211.2473, 2701.148
211.7294, 2672.093
212.2116, 2641.851
212.6937, 2624.140
213.1758, 2621.812
213.6579, 2623.404
214.1400, 2631.971
214.6221, 2645.896
215.1043, 2637.111
215.5864, 2594.839
216.0685, 2545.501
216.5506, 2518.800
217.0327, 2527.397
217.5148, 2525.171
217.9970, 2496.706
218.4791, 2439.712
218.9612, 2399.195
219.4433, 2379.320
219.9254, 2371.959
220.4075, 2369.016
220.8897, 2376.233
221.3718, 2375.351
221.8539, 2355.895
222.3360, 2308.751
222.8181, 2287.886
223.3002, 2307.465
223.7824, 2344.552
224.2645, 2356.042
224.7466, 2328.845
225.2287, 2298.854
225.7108, 2281.950
226.1929, 2289.171
226.6750, 2277.089
227.1572, 2232.500
227.6393, 2172.716
228.1214, 2145.010
228.6035, 2170.667
229.0856, 2197.048
229.5677, 2196.335
230.0499, 2151.317
230.5320, 2118.918
231.0141, 2104.329
231.4962, 2104.328
231.9783, 2107.307
232.4604, 2120.413
232.9426, 2127.217
233.4247, 2115.812
233.9068, 2073.940
234.3889, 2039.407
234.8710, 2016.319
235.3531, 2003.766
235.8353, 1995.786
236.3174, 1995.453
236.7995, 1996.265
237.2816, 1993.064
237.7637, 1983.063
238.2458, 1974.813
238.7280, 1972.290
239.2101, 1975.255
239.6922, 1965.743
240.1743, 1935.853
240.6564, 1901.308
241.1385, 1875.703
241.6207, 1856.892
242.1028, 1850.802
242.5849, 1862.213
243.0670, 1893.081
243.5491, 1916.556
244.0313, 1931.221
244.5134, 1939.693
244.9955, 1944.937
245.4776, 1947.306
245.9597, 1945.627
246.4418, 1937.323
246.9240, 1919.548
247.4061, 1912.408
247.8882, 1921.002
248.3703, 1936.616
248.8524, 1946.915
249.3345, 1950.675
249.8167, 1951.053
250.2988, 1946.612
250.7809, 1932.834
251.2630, 1933.888
251.7451, 1960.096
252.2272, 1994.984
252.7094, 2007.361
253.1915, 1985.636
253.6736, 1960.945
254.1557, 1942.616
254.6378, 1928.015
255.1199, 1928.390
255.6021, 1948.405
256.0842, 1981.085
256.5663, 2012.101
257.0484, 2043.069
257.5305, 2069.738
258.0126, 2090.666
258.4948, 2106.773
258.9769, 2115.065
259.4590, 2114.913
259.9411, 2107.295
260.4232, 2093.156
260.9053, 2067.500
261.3875, 2044.490
261.8696, 2031.965
262.3517, 2033.685
262.8338, 2034.334
263.3159, 2031.530
263.7980, 2027.545
264.2802, 2032.547
264.7623, 2053.636
265.2444, 2069.541
265.7265, 2065.508
266.2086, 2035.539
266.6907, 2007.367
267.1729, 1982.589
267.6550, 1961.603
268.1371, 1945.595
268.6192, 1934.818
269.1013, 1928.695
269.5834, 1931.058
270.0656, 1947.156
270.5477, 1945.790
271.0298, 1916.547
271.5119, 1868.109
271.9940, 1838.034
272.4761, 1830.864
272.9583, 1831.173
273.4404, 1827.590
273.9225, 1819.091
274.4046, 1813.218
274.8867, 1813.332
275.3688, 1816.695
275.8510, 1809.209
276.3331, 1788.346
276.8152, 1764.383
277.2973, 1744.050
277.7794, 1726.925
278.2615, 1718.477
278.7437, 1724.320
279.2258, 1739.086
279.7079, 1734.337
280.1900, 1705.069
280.6721, 1675.654
281.1542, 1670.802
281.6364, 1691.647
282.1185, 1711.393
282.6006, 1727.009
283.0827, 1736.729
283.5648, 1727.571
284.0469, 1695.376
284.5291, 1665.922
285.0112, 1670.254
285.4933, 1707.100
285.9754, 1734.014
286.4575, 1734.122
286.9396, 1717.751
287.4217, 1726.754
287.9038, 1765.099
288.3860, 1799.810
288.8681, 1790.268
289.3502, 1741.817
289.8323, 1702.634
290.3144, 1690.319
290.7965, 1695.849
291.2787, 1692.830
291.7608, 1680.196
292.2429, 1670.764
292.7250, 1683.667
293.2071, 1713.358
293.6892, 1731.515
294.1714, 1721.703
294.6535, 1697.629
295.1356, 1689.804
295.6177, 1698.762
296.0998, 1713.049
296.5819, 1722.743
297.0641, 1729.187
297.5462, 1736.796
298.0283, 1749.841
298.5104, 1763.476
298.9925, 1770.083
299.4746, 1769.646
299.9568, 1763.601
300.4389, 1746.272
300.9210, 1724.027
301.4031, 1711.499
301.8852, 1721.666
302.3673, 1739.891
302.8495, 1745.553
303.3316, 1738.848
303.8137, 1732.946
304.2958, 1742.813
304.7779, 1760.587
305.2600, 1772.052
305.7422, 1766.828
306.2243, 1756.181
306.7064, 1751.354
307.1885, 1752.046
307.6706, 1753.017
308.1527, 1748.538
308.6349, 1742.493
309.1170, 1740.340
309.5991, 1748.864
310.0812, 1758.564
310.5633, 1761.346
311.0454, 1757.683
311.5276, 1755.043
312.0097, 1758.726
312.4918, 1765.586
312.9739, 1772.174
313.4560, 1780.660
313.9381, 1785.727
314.4203, 1781.938
314.9024, 1770.070
315.3845, 1760.275
315.8666, 1759.930
316.3487, 1762.781
316.8308, 1762.915
317.3130, 1755.353
317.7951, 1747.681
318.2772, 1742.486
318.7593, 1739.714
319.2414, 1738.819
319.7235, 1742.004
320.2057, 1745.783
320.6878, 1747.404
321.1699, 1739.833
321.6520, 1736.592
322.1341, 1742.252
322.6162, 1756.186
323.0984, 1771.644
323.5805, 1796.276
324.0626, 1816.840
324.5447, 1824.412
325.0268, 1800.806
325.5089, 1782.859
325.9911, 1776.144
326.4732, 1780.148
326.9553, 1787.867
327.4374, 1805.809
327.9195, 1822.714
328.4016, 1832.104
328.8838, 1820.728
329.3659, 1818.276
329.8480, 1827.932
330.3301, 1848.496
330.8122, 1873.022
331.2943, 1906.703
331.7765, 1939.344
332.2586, 1965.394
332.7407, 1983.901
333.2228, 1997.498
333.7049, 2005.964
334.1870, 2009.700
334.6692, 2009.070
335.1513, 1998.448
335.6334, 1992.582
336.1155, 2002.046
336.5976, 2034.594
337.0797, 2057.628
337.5619, 2066.506
338.0440, 2065.895
338.5261, 2068.435
339.0082, 2074.241
339.4903, 2082.663
339.9724, 2095.267
340.4546, 2113.421
340.9367, 2123.899
341.4188, 2124.405
341.9009, 2119.009
342.3830, 2116.438
342.8651, 2117.139
343.3473, 2116.966
343.8294, 2112.477
344.3115, 2104.232
344.7936, 2101.222
345.2757, 2106.380
345.7578, 2111.041
346.2400, 2096.504
346.7221, 2064.373
347.2042, 2038.358
347.6863, 2034.470
348.1684, 2046.423
348.6505, 2053.509
349.1327, 2054.306
349.6148, 2052.667
350.0969, 2053.263
350.5790, 2055.389
351.0611, 2056.492
351.5432, 2051.716
352.0254, 2046.230
352.5075, 2050.226
352.9896, 2064.924
353.4717, 2079.833
353.9538, 2080.285
354.4359, 2074.074
354.9181, 2076.545
355.4002, 2105.306
355.8823, 2139.015
356.3644, 2159.301
356.8465, 2165.781
357.3286, 2162.494
357.8108, 2143.244
358.2929, 2118.261
358.7750, 2100.513
359.2571, 2098.069
359.7392, 2101.382
360.2213, 2109.052
360.7035, 2120.278
361.1856, 2124.984
361.6677, 2114.890
362.1498, 2098.115
362.6319, 2081.603
363.1140, 2071.458
363.5962, 2057.425
364.0783, 2030.053
364.5604, 1992.641
365.0425, 1968.417
365.5246, 1973.222
366.0067, 1986.207
366.4889, 1994.482
366.9710, 1993.392
367.4531, 1991.283
367.9352, 1990.757
368.4173, 1990.403
368.8994, 1983.692
369.3815, 1961.605
369.8636, 1941.023
370.3458, 1930.057
370.8279, 1939.487
371.3100, 1939.459
371.7921, 1923.843
372.2742, 1900.098
372.7563, 1887.478
373.2385, 1892.884
373.7206, 1898.155
374.2027, 1894.739
374.6848, 1878.863
375.1669, 1870.909
375.6490, 1874.762
376.1312, 1882.475
376.6133, 1880.658
377.0954, 1867.717
377.5775, 1851.405
378.0596, 1832.020
378.5417, 1810.179
379.0239, 1796.328
379.5060, 1791.469
379.9881, 1791.998
380.4702, 1794.675
380.9523, 1799.453
381.4344, 1804.384
381.9166, 1810.429
382.3987, 1815.833
382.8808, 1813.121
383.3629, 1801.687
383.8450, 1791.655
384.3271, 1798.040
384.8093, 1814.560
385.2914, 1820.598
385.7735, 1801.992
386.2556, 1777.569
386.7377, 1779.491
387.2198, 1803.964
387.7020, 1822.096
388.1841, 1804.704
388.6662, 1771.085
389.1483, 1745.656
389.6304, 1731.760
390.1125, 1732.255
390.5947, 1758.015
391.0768, 1801.852
391.5589, 1840.479
392.0410, 1864.641
392.5231, 1877.686
393.0052, 1879.124
393.4874, 1860.933
393.9695, 1851.007
394.4516, 1866.512
394.9337, 1896.893
395.4158, 1922.840
395.8979, 1937.187
396.3801, 1947.576
396.8622, 1957.350
397.3443, 1968.084
397.8264, 1973.335
398.3085, 1965.117
398.7906, 1953.311
399.2728, 1950.107
399.7549, 1974.896
400.2370, 1986.651
400.7191, 1969.863
401.2012, 1921.054
401.6833, 1897.760
402.1655, 1915.553
402.6476, 1943.743
403.1297, 1955.588
403.6118, 1944.120
404.0939, 1933.273
404.5760, 1926.577
405.0582, 1923.348
405.5403, 1920.755
406.0224, 1919.685
406.5045, 1916.722
406.9866, 1908.698
407.4688, 1895.237
407.9509, 1882.791
408.4330, 1872.950
408.9151, 1863.008
409.3972, 1846.295
409.8793, 1822.853
410.3615, 1798.748
410.8436, 1776.343
411.3257, 1755.720
411.8078, 1736.756
412.2899, 1718.700
412.7720, 1705.123
413.2542, 1705.010
413.7363, 1713.835
414.2184, 1718.096
414.7005, 1707.437
415.1826, 1690.927
415.6647, 1681.379
416.1469, 1679.370
416.6290, 1672.065
417.1111, 1638.455
417.5932, 1597.109
418.0753, 1573.283
418.5574, 1588.899
419.0396, 1611.547
419.5217, 1631.026
420.0038, 1645.719
420.4859, 1646.527
420.9680, 1611.997
421.4501, 1573.032
421.9323, 1551.823
422.4144, 1563.557
422.8965, 1577.015
423.3786, 1587.343
423.8607, 1595.634
424.3428, 1605.044
424.8250, 1628.516
425.3071, 1641.913
425.7892, 1634.758
426.2713, 1595.752
426.7534, 1566.021
427.2355, 1546.613
427.7177, 1535.717
428.1998, 1531.833
428.6819, 1537.492
429.1640, 1544.219
429.6461, 1548.751
430.1282, 1551.162
430.6104, 1561.924
431.0925, 1584.490
431.5746, 1606.292
432.0567, 1612.419
432.5388, 1602.364
433.0209, 1594.065
433.5031, 1591.022
433.9852, 1592.280
434.4673, 1600.307
434.9494, 1614.765
435.4315, 1619.580
435.9136, 1593.401
436.3958, 1548.785
436.8779, 1517.997
437.3600, 1507.412
437.8421, 1507.375
438.3242, 1511.077
438.8063, 1517.362
439.2885, 1522.952
439.7706, 1526.292
440.2527, 1528.078
440.7348, 1529.534
441.2169, 1530.990
441.6990, 1529.316
442.1812, 1517.959
442.6633, 1504.056
443.1454, 1495.951
443.6275, 1494.448
444.1096, 1500.871
444.5917, 1524.618
445.0739, 1563.234
445.5560, 1583.009
446.0381, 1557.441
446.5202, 1524.481
447.0023, 1506.390
447.4844, 1498.495
447.9666, 1514.814
448.4487, 1581.349
448.9308, 1670.319
449.4129, 1701.766
449.8950, 1639.362
450.3771, 1578.474
450.8592, 1558.653
451.3413, 1588.440
451.8235, 1611.138
452.3056, 1627.213
452.7877, 1635.517
453.2698, 1631.283
453.7519, 1613.073
454.2340, 1598.829
454.7162, 1592.535
455.1983, 1594.425
455.6804, 1608.776
456.1625, 1636.399
456.6446, 1663.308
457.1267, 1679.692
457.6089, 1686.183
458.0910, 1683.334
458.5731, 1665.942
459.0552, 1649.030
459.5373, 1652.566
460.0194, 1672.229
460.5016, 1693.905
460.9837, 1714.261
461.4658, 1730.151
461.9479, 1737.141
462.4300, 1733.178
462.9121, 1729.126
463.3943, 1725.264
463.8764, 1726.042
464.3585, 1737.313
464.8406, 1782.899
465.3227, 1817.689
465.8048, 1818.681
466.2870, 1785.768
466.7691, 1768.161
467.2512, 1792.645
467.7333, 1819.123
468.2154, 1822.420
468.6975, 1781.402
469.1797, 1751.484
469.6618, 1737.382
470.1439, 1735.353
470.6260, 1737.538
471.1081, 1747.332
471.5902, 1753.067
472.0724, 1749.119
472.5545, 1734.924
473.0366, 1718.697
473.5187, 1699.474
474.0008, 1681.358
474.4829, 1669.194
474.9651, 1662.833
475.4472, 1661.254
475.9293, 1669.000
476.4114, 1678.030
476.8935, 1669.303
477.3756, 1644.067
477.8578, 1616.578
478.3399, 1597.250
478.8220, 1582.364
479.3041, 1565.537
479.7862, 1543.385
480.2683, 1524.615
480.7505, 1519.230
481.2326, 1522.026
481.7147, 1521.966
482.1968, 1512.567
482.6789, 1500.651
483.1610, 1490.690
483.6432, 1483.730
484.1253, 1471.710
484.6074, 1445.021
485.0895, 1416.367
485.5716, 1396.574
486.0537, 1389.722
486.5359, 1388.395
487.0180, 1395.663
487.5001, 1408.759
487.9822, 1414.819
488.4643, 1412.187
488.9464, 1405.183
489.4286, 1396.427
489.9107, 1387.071
490.3928, 1368.085
490.8749, 1334.313
491.3570, 1300.042
491.8391, 1286.568
492.3213, 1293.919
492.8034, 1309.013
493.2855, 1332.980
493.7676, 1359.201
494.2497, 1369.387
494.7318, 1363.733
495.2140, 1353.766
495.6961, 1347.134
496.1782, 1342.858
496.6603, 1340.143
497.1424, 1340.480
497.6245, 1338.491
498.1067, 1322.607
498.5888, 1300.854
499.0709, 1291.728
499.5530, 1319.839
500.0351, 1349.239
500.5172, 1357.115
500.9994, 1337.750
501.4815, 1325.885
501.9636, 1343.484
502.4457, 1364.869
502.9278, 1366.766
503.4099, 1315.265
503.8921, 1285.303
504.3742, 1291.237
504.8563, 1324.359
505.3384, 1348.789
505.8205, 1362.776
506.3026, 1371.620
506.7848, 1378.089
507.2669, 1382.732
507.7490, 1380.439
508.2311, 1368.979
508.7132, 1355.839
509.1953, 1350.978
509.6775, 1353.870
510.1596, 1358.814
510.6417, 1365.002
511.1238, 1371.306
511.6059, 1374.959
512.0880, 1376.177
512.5701, 1377.575
513.0522, 1380.528
513.5344, 1384.899
514.0165, 1390.474
514.4986, 1397.087
514.9807, 1405.207
515.4628, 1417.887
515.9449, 1431.919
516.4271, 1441.691
516.9092, 1442.636
517.3913, 1441.748
517.8734, 1441.603
518.3555, 1442.408
518.8376, 1442.325
519.3198, 1439.550
519.8019, 1437.032
520.2840, 1436.012
520.7661, 1433.058
521.2482, 1439.373
521.7303, 1461.198
522.2125, 1489.334
522.6946, 1501.248
523.1767, 1493.328
523.6588, 1484.755
524.1409, 1483.301
524.6230, 1488.029
525.1052, 1492.503
525.5873, 1496.911
526.0694, 1499.578
526.5515, 1494.979
527.0336, 1486.995
527.5157, 1488.002
527.9979, 1504.649
528.4800, 1524.702
528.9621, 1539.130
529.4442, 1546.800
529.9263, 1544.788
530.4084, 1516.252
530.8906, 1488.386
531.3727, 1485.743
531.8548, 1514.447
532.3369, 1532.070
532.8190, 1509.420
533.3011, 1476.644
533.7833, 1461.521
534.2654, 1489.696
534.7475, 1508.821
535.2296, 1509.803
535.7117, 1498.040
536.1938, 1492.501
536.6760, 1495.024
537.1581, 1500.185
537.6402, 1507.607
538.1223, 1518.034
538.6044, 1519.724
539.0865, 1511.191
539.5687, 1498.356
540.0508, 1488.139
540.5329, 1479.951
541.0150, 1470.243
541.4971, 1457.717
541.9792, 1443.770
542.4614, 1426.459
542.9435, 1408.153
543.4256, 1399.919
543.9077, 1419.019
544.3898, 1445.267
544.8719, 1457.328
545.3541, 1451.007
545.8362, 1445.938
546.3183, 1454.405
546.8004, 1467.904
547.2825, 1477.230
547.7646, 1469.999
548.2468, 1469.710
548.7289, 1488.882
549.2110, 1520.676
549.6931, 1535.309
550.1752, 1523.393
550.6573, 1507.025
551.1395, 1493.320
551.6216, 1481.399
552.1037, 1480.172
552.5858, 1494.103
553.0679, 1509.033
553.5500, 1504.625
554.0322, 1481.978
554.5143, 1467.560
554.9964, 1469.762
555.4785, 1480.826
555.9606, 1490.712
556.4427, 1498.423
556.9249, 1498.052
557.4070, 1474.290
557.8891, 1446.516
558.3712, 1436.989
558.8533, 1448.817
559.3354, 1469.051
559.8176, 1507.402
560.2997, 1543.243
560.7818, 1555.433
561.2639, 1502.725
561.7460, 1465.971
562.2281, 1472.965
562.7103, 1511.006
563.1924, 1530.857
563.6745, 1518.837
564.1566, 1506.146
564.6387, 1504.146
565.1208, 1514.094
565.6030, 1522.876
566.0851, 1531.247
566.5672, 1536.633
567.0493, 1532.489
567.5314, 1519.719
568.0135, 1517.667
568.4957, 1532.199
568.9778, 1555.076
569.4599, 1577.923
569.9420, 1598.930
570.4241, 1609.410
570.9063, 1594.533
571.3884, 1573.236
571.8705, 1564.510
572.3526, 1569.245
572.8347, 1577.639
573.3168, 1583.258
573.7990, 1590.992
574.2811, 1605.762
574.7632, 1646.529
575.2453, 1669.028
575.7274, 1650.630
576.2095, 1612.127
576.6917, 1595.921
577.1738, 1618.639
577.6559, 1636.089
578.1380, 1633.558
578.6201, 1612.771
579.1022, 1603.533
579.5844, 1608.568
580.0665, 1614.996
580.5486, 1613.795
581.0307, 1605.406
581.5128, 1592.636
581.9949, 1575.381
582.4771, 1555.310
582.9592, 1534.076
583.4413, 1511.634
583.9234, 1487.856
584.4055, 1451.174
584.8876, 1422.341
585.3698, 1427.142
585.8519, 1458.228
586.3340, 1475.515
586.8161, 1449.560
587.2982, 1414.497
587.7803, 1388.785
588.2625, 1376.234
588.7446, 1368.751
589.2267, 1374.322
589.7088, 1379.111
590.1909, 1365.701
590.6730, 1323.805
591.1552, 1292.837
591.6373, 1282.317
592.1194, 1285.030
592.6015, 1279.334
593.0836, 1264.664
593.5657, 1250.138
594.0479, 1240.955
594.5300, 1235.472
595.0121, 1230.024
595.4942, 1224.521
595.9763, 1217.791
596.4584, 1206.163
596.9406, 1193.676
597.4227, 1185.362
597.9048, 1182.578
598.3869, 1184.037
598.8690, 1195.180
599.3511, 1209.449
599.8333, 1214.328
600.3154, 1200.718
600.7975, 1184.025
601.2796, 1167.964
601.7617, 1152.476
602.2438, 1134.822
602.7260, 1110.448
603.2081, 1091.829
603.6902, 1092.323
604.1723, 1114.800
604.6544, 1116.472
605.1365, 1091.095
605.6187, 1057.802
606.1008, 1040.330
606.5829, 1036.785
607.0650, 1040.081
607.5471, 1053.144
608.0292, 1066.026
608.5114, 1068.020
608.9935, 1060.076
609.4756, 1045.358
609.9577, 1016.807
610.4398, 988.9329
610.9219, 971.2971
611.4041, 965.4951
611.8862, 962.9304
612.3683, 962.7198
612.8504, 964.6219
613.3325, 969.2154
613.8146, 983.6392
614.2968, 985.5922
614.7789, 968.7407
615.2610, 943.4528
615.7431, 931.6926
616.2252, 935.0198
616.7073, 936.3397
617.1895, 928.2284
617.6716, 914.3240
618.1537, 903.0669
618.6358, 894.5034
619.1179, 891.3195
619.6000, 898.8665
620.0822, 911.2595
620.5643, 922.2273
621.0464, 931.5195
621.5285, 936.6794
622.0106, 931.4728
622.4927, 923.5057
622.9749, 920.9344
623.4570, 931.1220
623.9391, 940.1809
624.4212, 948.0693
624.9033, 953.3921
625.3854, 951.5920
625.8676, 939.2321
626.3497, 927.3415
626.8318, 919.7117
627.3139, 915.9720
627.7960, 912.4741
628.2781, 909.0869
628.7603, 906.9558
629.2424, 907.4481
629.7245, 909.9000
630.2066, 913.1370
630.6887, 917.4623
631.1708, 920.3678
631.6530, 915.0648
632.1351, 907.9679
632.6172, 908.7979
633.0993, 937.9225
633.5814, 957.9682
634.0635, 944.3481
634.5457, 908.4089
635.0278, 894.0803
635.5099, 932.9278
635.9920, 963.2154
636.4741, 961.5525
636.9562, 925.1637
637.4384, 906.0564
637.9205, 906.5447
638.4026, 916.9720
638.8847, 933.6936
639.3668, 955.3889
639.8489, 968.6072
640.3311, 971.1337
640.8132, 967.3409
641.2953, 960.0181
641.7774, 950.4229
642.2595, 940.9641
642.7416, 927.7241
643.2238, 919.9700
643.7059, 930.7443
644.1880, 953.2654
644.6701, 964.8926
645.1522, 947.0925
645.6343, 927.3046
646.1165, 916.2990
646.5986, 914.6520
647.0807, 916.2257
647.5628, 924.6466
648.0449, 931.0373
648.5270, 925.8608
649.0092, 907.4456
649.4913, 901.1321
649.9734, 911.3727
650.4555, 926.0739
650.9376, 926.5416
651.4197, 917.0260
651.9019, 913.1295
652.3840, 925.9255
652.8661, 939.4919
653.3482, 938.3160
653.8303, 925.2737
654.3124, 909.2192
654.7946, 882.0625
655.2767, 862.9744
655.7588, 866.4929
656.2408, 896.3568
656.7230, 912.6890
657.2051, 905.9255
657.6872, 894.0653
658.1693, 887.3665
658.6514, 886.8145
659.1335, 888.0792
659.6157, 892.7377
660.0978, 895.3642
660.5799, 882.5217
661.0620, 858.6559
661.5441, 851.2946
662.0262, 875.4969
662.5084, 906.6786
662.9905, 916.0083
663.4726, 908.2529
663.9547, 896.2784
664.4368, 877.9402
664.9189, 864.4553
665.4011, 863.1766
665.8832, 873.9640
666.3653, 886.5323
666.8474, 900.9256
667.3295, 915.2513
667.8116, 930.1173
668.2938, 948.0547
668.7759, 953.5720
669.2580, 943.4618
669.7401, 928.1854
670.2222, 915.4077
670.7043, 905.8965
671.1865, 910.2736
671.6686, 935.5823
672.1507, 962.4448
672.6328, 964.6818
673.1149, 949.5818
673.5970, 934.5375
674.0792, 919.5776
674.5613, 913.5967
675.0434, 928.4466
675.5255, 959.3763
676.0076, 981.3420
676.4897, 980.9730
676.9719, 978.1973
677.4540, 979.0278
677.9361, 983.2119
678.4182, 994.9262
678.9003, 1017.750
679.3824, 1040.497
679.8646, 1053.802
680.3467, 1058.242
680.8288, 1059.134
681.3109, 1055.130
681.7930, 1055.756
682.2751, 1074.786
682.7573, 1106.167
683.2394, 1139.616
683.7215, 1183.614
684.2036, 1211.571
684.6857, 1192.901
685.1678, 1147.457
685.6500, 1120.632
686.1321, 1139.366
686.6142, 1161.530
687.0963, 1177.283
687.5784, 1186.787
688.0605, 1193.478
688.5427, 1198.317
689.0248, 1197.741
689.5069, 1186.802
689.9890, 1166.882
690.4711, 1153.077
690.9532, 1145.708
691.4354, 1142.335
691.9175, 1141.219
692.3996, 1142.435
692.8817, 1148.557
693.3638, 1165.021
693.8459, 1171.341
694.3281, 1147.584
694.8102, 1109.412
695.2923, 1077.953
695.7744, 1056.599
696.2565, 1043.739
696.7386, 1046.877
697.2208, 1056.573
697.7029, 1044.128
698.1850, 1000.269
698.6671, 967.8568
699.1492, 968.4444
699.6313, 990.2098
700.1135, 989.2567
700.5956, 966.8177
701.0777, 944.4938
701.5598, 941.0540
702.0419, 943.9801
702.5240, 936.1343
703.0062, 915.6621
703.4883, 897.6306
703.9704, 889.4849
704.4525, 886.6561
704.9346, 885.8480
705.4167, 888.4189
705.8989, 889.9244
706.3810, 889.8327
706.8631, 889.1305
707.3452, 888.3597
707.8273, 887.0252
708.3094, 890.3823
708.7916, 902.4172
709.2737, 914.4574
709.7558, 905.9706
710.2379, 882.2590
710.7200, 864.1413
711.2021, 868.2777
711.6843, 876.6409
712.1664, 871.6390
712.6485, 856.5394
713.1306, 845.4502
713.6127, 853.0087
714.0948, 857.3788
714.5770, 843.1017
715.0591, 807.8461
715.5412, 793.7429
716.0233, 810.0048
716.5054, 831.1975
716.9875, 840.3417
717.4697, 837.4572
717.9518, 835.3743
718.4339, 834.6301
718.9160, 834.6413
719.3981, 835.7977
719.8802, 837.1284
720.3624, 836.0712
720.8445, 830.0649
721.3266, 826.3948
721.8087, 835.6251
722.2908, 848.3373
722.7729, 850.6845
723.2551, 820.3571
723.7372, 803.8572
724.2193, 816.1190
724.7014, 844.4808
725.1835, 851.7059
725.6656, 832.2673
726.1478, 814.4366
726.6299, 808.9610
727.1120, 812.0854
727.5941, 811.7081
728.0762, 808.4952
728.5583, 809.0374
729.0405, 824.7516
729.5226, 841.7332
730.0047, 843.5332
730.4868, 829.0740
730.9689, 818.8383
731.4510, 823.9488
731.9332, 833.5295
732.4153, 841.3631
732.8974, 848.9202
733.3795, 849.4058
733.8616, 839.5951
734.3438, 827.7465
734.8259, 821.2647
735.3080, 820.1251
735.7901, 824.8442
736.2722, 837.2403
736.7543, 849.5583
737.2365, 852.0477
737.7186, 847.1007
738.2007, 838.9879
738.6828, 822.0379
739.1649, 811.5377
739.6470, 825.6721
740.1292, 851.5637
740.6113, 859.5673
741.0934, 822.2876
741.5755, 794.1420
742.0576, 787.8627
742.5397, 798.6164
743.0219, 806.6468
743.5040, 812.1486
743.9861, 813.6747
744.4682, 807.8182
744.9503, 797.9696
745.4324, 792.4100
745.9146, 791.1523
746.3967, 794.8749
746.8788, 813.5334
747.3609, 830.9288
747.8430, 830.6494
748.3251, 808.3439
748.8073, 789.8215
749.2894, 778.8737
749.7715, 775.4774
750.2536, 780.9002
750.7357, 800.0910
751.2178, 812.4581
751.7000, 816.8335
752.1821, 817.3715
752.6642, 818.0200
753.1463, 818.8129
753.6284, 820.6614
754.1105, 824.8769
754.5927, 826.4663
755.0748, 815.3317
755.5569, 799.5322
756.0390, 791.6044
756.5211, 807.2426
757.0032, 818.6136
757.4854, 814.5485
757.9675, 801.2848
758.4496, 793.5604
758.9317, 794.8526
759.4138, 793.5503
759.8959, 785.0645
760.3781, 773.2462
760.8602, 771.4849
761.3423, 779.1464
761.8244, 786.4073
762.3065, 788.1869
762.7886, 786.4973
763.2708, 782.6736
763.7529, 777.1610
764.2350, 772.7350
764.7171, 765.1898
765.1992, 763.6998
765.6813, 777.7178
766.1635, 810.7718
766.6456, 828.0963
767.1277, 824.2576
767.6098, 813.4473
768.0919, 801.9048
768.5740, 789.6526
769.0562, 786.0911
769.5383, 792.1854
770.0204, 799.3895
770.5025, 798.5724
770.9846, 793.9661
771.4667, 792.8480
771.9489, 797.2823
772.4310, 801.0023
772.9131, 797.3444
773.3952, 793.1418
773.8773, 795.5771
774.3594, 814.7257
774.8416, 825.4139
775.3237, 824.0154
775.8058, 817.4121
776.2879, 815.6222
776.7700, 818.7028
777.2521, 818.1505
777.7343, 810.4520
778.2164, 802.3349
778.6985, 806.9922
779.1806, 818.3871
779.6627, 822.8549
780.1448, 804.0784
780.6270, 788.1160
781.1091, 792.1566
781.5912, 808.2960
782.0733, 811.8243
782.5554, 785.0214
783.0375, 772.8041
783.5197, 793.0942
784.0018, 833.1644
784.4839, 840.8120
784.9660, 814.9163
785.4481, 794.6095
785.9302, 804.6390
786.4124, 830.1221
786.8945, 849.5732
787.3766, 863.0265
787.8587, 869.4291
788.3408, 867.9432
788.8229, 859.4238
789.3051, 837.8918
789.7872, 801.3740
790.2693, 788.7676
790.7514, 812.4495
791.2335, 841.6657
791.7156, 862.0613
792.1978, 873.8456
792.6799, 877.8970
793.1620, 873.8435
793.6441, 867.6210
794.1262, 862.4810
794.6083, 859.0557
795.0905, 858.4714
795.5726, 860.9478
796.0547, 865.0363
796.5368, 870.4216
797.0189, 876.8473
797.5010, 884.8644
797.9832, 898.4478
798.4653, 902.7686
798.9474, 894.2043
799.4295, 882.1310
799.9116, 874.4548
800.3937, 871.3214
800.8759, 874.8610
801.3580, 886.1559
801.8401, 900.2927
802.3222, 914.4447
802.8043, 927.2901
803.2864, 936.9251
803.7686, 943.2233
804.2507, 945.5839
804.7328, 938.1728
805.2149, 929.0542
805.6970, 930.5358
806.1791, 951.0782
806.6613, 959.7427
807.1434, 948.3917
807.6255, 930.4766
808.1076, 932.3738
808.5897, 950.4501
809.0718, 962.7766
809.5540, 959.7034
810.0361, 952.6368
810.5182, 953.1848
811.0003, 957.6874
811.4824, 959.0240
811.9645, 946.7872
812.4467, 940.6715
812.9288, 951.5544
813.4109, 970.7733
813.8930, 976.1290
814.3751, 964.8088
814.8572, 950.9327
815.3394, 936.6045
815.8215, 924.3397
816.3036, 919.8953
816.7857, 922.7199
817.2678, 930.1009
817.7499, 951.0389
818.2321, 966.9346
818.7142, 955.0722
819.1963, 924.0228
819.6784, 913.3149
820.1605, 957.0960
820.6426, 991.8051
821.1247, 998.8303
821.6068, 982.7625
822.0889, 966.7109
822.5710, 950.1062
823.0532, 941.5500
823.5353, 950.6779
824.0174, 968.9025
824.4995, 983.0734
824.9816, 992.6957
825.4637, 996.3763
825.9459, 987.1215
826.4280, 977.0801
826.9101, 972.6789
827.3922, 974.6292
827.8743, 978.2709
828.3564, 982.9421
828.8386, 990.7015
829.3207, 1006.783
829.8028, 1028.186
830.2849, 1028.047
830.7670, 1006.721
831.2491, 987.6843
831.7313, 990.9313
832.2134, 1003.908
832.6955, 1015.676
833.1776, 1025.270
833.6597, 1026.879
834.1418, 999.4968
834.6240, 981.2742
835.1061, 996.1807
835.5882, 1049.730
836.0703, 1079.578
836.5524, 1081.093
837.0345, 1075.685
837.5167, 1079.314
837.9988, 1088.321
838.4809, 1091.494
838.9630, 1088.321
839.4451, 1083.683
839.9272, 1075.661
840.4094, 1071.203
840.8915, 1077.055
841.3736, 1096.531
841.8557, 1115.087
842.3378, 1135.615
842.8199, 1150.031
843.3021, 1150.675
843.7842, 1136.966
844.2663, 1128.600
844.7484, 1125.988
845.2305, 1126.185
845.7126, 1128.528
846.1948, 1131.209
846.6769, 1131.033
847.1590, 1127.105
847.6411, 1124.731
848.1232, 1130.643
848.6053, 1135.316
849.0875, 1130.417
849.5696, 1110.535
850.0517, 1103.650
850.5338, 1112.613
851.0159, 1126.773
851.4980, 1141.176
851.9802, 1152.926
852.4623, 1147.965
852.9444, 1123.607
853.4265, 1103.522
853.9086, 1109.931
854.3907, 1126.349
854.8729, 1140.160
855.3550, 1152.973
855.8371, 1149.362
856.3192, 1115.681
856.8013, 1082.041
857.2834, 1074.436
857.7656, 1093.360
858.2477, 1105.321
858.7298, 1108.232
859.2119, 1109.059
859.6940, 1117.803
860.1761, 1127.032
860.6583, 1124.407
861.1404, 1105.274
861.6225, 1090.007
862.1046, 1089.672
862.5867, 1093.715
863.0688, 1094.648
863.5510, 1092.481
864.0331, 1085.553
864.5152, 1071.351
864.9973, 1060.508
865.4794, 1069.845
865.9615, 1089.709
866.4437, 1090.651
866.9258, 1068.113
867.4079, 1046.157
867.8900, 1038.359
868.3721, 1039.335
868.8542, 1046.518
869.3364, 1065.723
869.8185, 1071.945
870.3006, 1060.972
870.7827, 1043.849
871.2648, 1023.982
871.7469, 1003.169
872.2291, 1006.248
872.7112, 1036.052
873.1933, 1064.414
873.6754, 1065.547
874.1575, 1053.130
874.6396, 1040.042
875.1218, 1027.454
875.6039, 1018.294
876.0860, 1014.422
876.5681, 1013.224
877.0502, 1014.096
877.5323, 1017.521
878.0145, 1018.146
878.4966, 1015.724
878.9787, 1012.087
879.4608, 1005.924
879.9429, 1000.670
880.4250, 1005.264
880.9072, 1020.803
881.3893, 1029.647
881.8714, 1015.583
882.3535, 998.1650
882.8356, 991.2620
883.3177, 997.2040
883.7999, 993.6552
884.2820, 977.6913
884.7641, 961.1532
885.2462, 948.7750
885.7283, 942.4827
886.2104, 952.4245
886.6926, 977.7081
887.1747, 999.0305
887.6568, 1002.787
888.1389, 998.8516
888.6210, 993.6910
889.1031, 987.9312
889.5853, 977.4031
890.0674, 954.7023
890.5495, 941.4841
891.0316, 954.2872
891.5137, 986.9969
891.9958, 999.5099
892.4780, 992.8008
892.9601, 980.6967
893.4422, 967.5053
893.9243, 956.7186
894.4064, 952.0593
894.8885, 953.2896
895.3707, 955.9727
895.8528, 960.5771
896.3349, 964.7676
896.8170, 967.6232
897.2991, 969.3767
897.7813, 972.4232
898.2634, 976.7322
898.7455, 977.9285
899.2276, 965.5551
899.7097, 954.0673
900.1918, 970.9930
900.6740, 1006.494
901.1561, 1023.753
901.6382, 986.0957
902.1203, 954.8442
902.6024, 950.9495
903.0845, 966.9008
903.5667, 975.9373
904.0488, 977.2624
904.5309, 979.1807
905.0130, 986.3628
905.4951, 993.6103
905.9772, 990.4697
906.4594, 980.6362
906.9415, 973.8408
907.4236, 972.2676
907.9057, 976.4047
908.3878, 992.2106
908.8699, 1012.397
909.3521, 1022.586
909.8342, 1021.344
910.3163, 1015.699
910.7984, 1006.176
911.2805, 994.7446
911.7626, 984.0274
912.2448, 974.1953
912.7269, 965.1216
913.2090, 953.2941
913.6911, 948.3043
914.1732, 960.9022
914.6553, 980.5876
915.1375, 992.3986
915.6196, 993.0712
916.1017, 993.6095
916.5838, 994.9392
917.0659, 996.1212
917.5480, 996.3989
918.0302, 995.4977
918.5123, 991.1982
918.9944, 981.2089
919.4765, 976.0145
919.9586, 991.1447
920.4407, 1009.183
920.9229, 1011.520
921.4050, 985.9120
921.8871, 975.0317
922.3692, 984.1054
922.8513, 996.7109
923.3334, 997.6859
923.8156, 989.3973
924.2977, 977.4645
924.7798, 962.0447
925.2619, 955.1604
925.7440, 976.2740
926.2261, 1001.638
926.7083, 1010.321
927.1904, 996.2148
927.6725, 994.0781
928.1546, 1012.875
928.6367, 1026.114
929.1188, 1009.834
929.6010, 973.8187
930.0831, 975.1824
930.5652, 1010.556
931.0473, 1044.006
931.5294, 1053.506
932.0115, 1051.307
932.4937, 1041.122
932.9758, 1024.765
933.4579, 1017.349
933.9400, 1025.763
934.4221, 1031.091
934.9042, 1025.013
935.3864, 1013.134
935.8685, 1014.484
936.3506, 1027.054
936.8327, 1038.878
937.3148, 1045.694
937.7969, 1047.974
938.2791, 1039.681
938.7612, 1027.604
939.2433, 1028.844
939.7254, 1061.209
940.2075, 1078.560
940.6896, 1069.807
941.1718, 1049.244
941.6539, 1043.217
942.1360, 1049.229
942.6181, 1054.023
943.1002, 1054.222
943.5823, 1052.158
944.0645, 1044.128
944.5466, 1037.318
945.0287, 1041.165
945.5108, 1074.536
945.9929, 1087.050
946.4750, 1069.860
946.9572, 1046.519
947.4393, 1043.305
947.9214, 1056.202
948.4035, 1063.263
948.8856, 1061.991
949.3677, 1060.812
949.8499, 1067.922
950.3320, 1076.675
950.8141, 1080.395
951.2962, 1076.406
951.7783, 1079.820
952.2604, 1096.846
952.7426, 1109.198
953.2247, 1101.317
953.7068, 1079.509
954.1889, 1076.256
954.6710, 1089.344
955.1531, 1099.082
955.6353, 1088.119
956.1174, 1074.132
956.5995, 1067.836
957.0816, 1069.356
957.5637, 1075.215
958.0458, 1088.933
958.5280, 1098.080
959.0101, 1098.014
959.4922, 1092.249
959.9743, 1089.944
960.4564, 1089.543
960.9385, 1084.818
961.4207, 1065.431
961.9028, 1051.602
962.3849, 1058.864
962.8670, 1077.680
963.3491, 1091.672
963.8312, 1101.316
964.3134, 1102.983
964.7955, 1094.947
965.2776, 1082.307
965.7597, 1068.408
966.2418, 1055.644
966.7239, 1051.697
967.2061, 1060.228
967.6882, 1065.736
968.1703, 1053.315
968.6524, 1039.112
969.1345, 1037.580
969.6166, 1052.552
970.0988, 1058.731
970.5809, 1054.027
971.0630, 1049.541
971.5451, 1058.580
972.0272, 1071.814
972.5093, 1068.073
972.9915, 1048.766
973.4736, 1033.150
973.9557, 1030.741
974.4378, 1033.557
974.9199, 1038.732
975.4020, 1045.980
975.8842, 1056.577
976.3663, 1071.667
976.8484, 1078.633
977.3305, 1068.537
977.8126, 1053.080
978.2947, 1051.949
978.7769, 1058.500
979.2590, 1058.034
979.7411, 1032.090
980.2232, 1016.098
980.7053, 1021.580
981.1874, 1035.920
981.6696, 1042.111
982.1517, 1039.942
982.6338, 1039.313
983.1159, 1042.426
983.5980, 1042.415
984.0801, 1025.021
984.5623, 1004.548
985.0444, 999.1708
985.5264, 1017.422
986.0085, 1029.241
986.4907, 1028.033
986.9728, 1024.315
987.4549, 1024.734
987.9370, 1028.666
988.4191, 1030.508
988.9012, 1030.103
989.3834, 1024.871
989.8655, 1004.188
990.3476, 985.7375
990.8297, 987.1062
991.3118, 1004.536
991.7939, 1010.711
992.2761, 996.5474
992.7582, 988.2397
993.2403, 994.3229
993.7224, 1008.067
994.2045, 1016.982
994.6866, 1021.176
995.1688, 1020.223
995.6509, 1010.370
996.1330, 1001.937
996.6151, 1000.313
997.0972, 1003.286
997.5793, 1008.266
998.0615, 1016.842
998.5436, 1020.715
999.0257, 1018.225
999.5078, 1016.383
999.9899, 1027.982
1000.472, 1043.013
1000.954, 1041.240
1001.436, 1020.167
1001.918, 1001.242
1002.401, 992.4083
1002.883, 988.8934
1003.365, 988.8837
1003.847, 992.2001
1004.329, 999.5203
1004.811, 1011.169
1005.293, 1015.247
1005.775, 997.4938
1006.257, 977.1466
1006.740, 978.1998
1007.222, 992.8954
1007.704, 1002.190
1008.186, 997.5623
1008.668, 991.3393
1009.150, 983.7411
1009.632, 976.5117
1010.114, 972.7690
1010.596, 971.9142
1011.079, 970.0455
1011.561, 965.5573
1012.043, 964.8723
1012.525, 980.2793
1013.007, 996.8923
1013.489, 999.5994
1013.971, 984.0685
1014.453, 972.1888
1014.936, 964.1024
1015.418, 959.2164
1015.900, 956.4836
1016.382, 956.8870
1016.864, 965.9937
1017.346, 981.5508
1017.828, 991.9577
1018.310, 983.3615
1018.792, 978.1337
1019.275, 990.3932
1019.757, 1010.114
1020.239, 1010.678
1020.721, 991.1149
1021.203, 973.7879
1021.685, 963.9582
1022.167, 958.5892
1022.649, 953.8420
1023.132, 951.5284
1023.614, 955.1479
1024.096, 971.7971
1024.578, 978.9113
1025.060, 970.9012
1025.542, 959.9832
1026.024, 956.5942
1026.506, 958.9838
1026.989, 955.3379
1027.471, 945.7956
1027.953, 935.9978
1028.435, 922.4707
1028.917, 916.3300
1029.399, 930.7823
1029.881, 960.9240
1030.363, 978.1318
1030.845, 979.7330
1031.328, 978.4135
1031.810, 977.7234
1032.292, 975.9891
1032.774, 968.7784
1033.256, 958.8439
1033.738, 951.8824
1034.220, 952.7113
1034.702, 950.6682
1035.184, 940.5461
1035.667, 929.1345
1036.149, 921.1736
1036.631, 916.6575
1037.113, 916.7271
1037.595, 921.5082
1038.077, 926.9084
1038.559, 931.8044
1039.041, 934.2966
1039.524, 931.6691
1040.006, 924.2603
1040.488, 917.9564
1040.970, 911.9061
1041.452, 910.5668
1041.934, 918.4668
1042.416, 927.7491
1042.898, 919.3934
1043.380, 899.3982
1043.863, 883.6604
1044.345, 875.2595
1044.827, 875.7509
1045.309, 894.2051
1045.791, 916.0564
1046.273, 928.3674
1046.755, 930.7218
1047.237, 925.8208
1047.719, 913.0784
1048.202, 901.7263
1048.684, 903.9713
1049.166, 908.2601
1049.648, 900.8448
1050.130, 882.0574
1050.612, 867.1932
1051.094, 855.8709
1051.576, 853.3348
1052.059, 866.0004
1052.541, 882.9152
1053.023, 874.4848
1053.505, 848.2267
1053.987, 827.6879
1054.469, 820.0098
1054.951, 820.6122
1055.433, 836.2573
1055.916, 853.2939
1056.398, 857.2413
1056.880, 844.7834
1057.362, 839.6989
1057.844, 842.7758
1058.326, 847.5405
1058.808, 852.5042
1059.290, 853.7928
1059.772, 843.4854
1060.255, 823.1890
1060.737, 810.5756
1061.219, 809.9257
1061.701, 814.4229
1062.183, 826.0816
1062.665, 837.4944
1063.147, 826.4172
1063.629, 801.2092
1064.111, 791.4642
1064.594, 814.1024
1065.076, 830.6920
1065.558, 810.3057
1066.040, 784.0159
1066.522, 780.6184
1067.004, 804.9332
1067.486, 815.5760
1067.968, 811.6126
1068.450, 808.1731
1068.933, 823.3869
1069.415, 839.4119
1069.897, 832.8987
1070.379, 809.0836
1070.861, 794.3557
1071.343, 799.6437
1071.825, 800.2992
1072.307, 788.8896
1072.790, 775.9363
1073.272, 785.0121
1073.754, 806.9490
1074.236, 814.9438
1074.718, 799.5723
1075.200, 785.3171
1075.682, 784.6765
1076.164, 788.3470
1076.646, 789.8354
1077.129, 789.1652
1077.611, 793.8304
1078.093, 803.8664
1078.575, 811.6342
1079.057, 812.9165
1079.539, 809.4349
1080.021, 797.4810
1080.503, 782.1818
1080.985, 778.1183
1081.468, 792.7152
1081.950, 803.0742
1082.432, 806.8109
1082.914, 805.2966
1083.396, 797.8716
1083.878, 787.1885
1084.360, 777.5281
1084.842, 769.3103
1085.325, 765.3657
1085.807, 765.2376
1086.289, 772.2503
1086.771, 790.6170
1087.253, 816.8354
1087.735, 836.0731
1088.217, 847.7029
1088.699, 845.9199
1089.182, 819.2122
1089.664, 791.1057
1090.146, 777.8967
1090.628, 773.1964
1091.110, 767.2399
1091.592, 757.2215
1092.074, 756.1083
1092.556, 765.7305
1093.038, 776.6584
1093.521, 780.7500
1094.003, 780.7300
1094.485, 777.8463
1094.967, 773.0164
1095.449, 773.9587
1095.931, 789.3981
1096.413, 798.5497
1096.895, 792.9494
1097.377, 782.2511
1097.860, 792.0333
1098.342, 814.5849
1098.824, 824.0416
1099.306, 809.8055
1099.788, 794.0461
1100.270, 786.9008
1100.752, 782.4568
1101.234, 775.2516
1101.717, 765.0214
1102.199, 765.3476
1102.681, 776.0253
1103.163, 782.7061
1103.645, 771.1019
1104.127, 756.3764
1104.609, 751.7770
1105.091, 753.7421
1105.573, 751.7236
1106.056, 742.3375
1106.538, 738.0416
1107.020, 741.0650
1107.502, 746.9666
1107.984, 750.8121
1108.466, 753.8348
1108.948, 759.0651
1109.430, 767.1585
1109.912, 770.3549
1110.395, 764.0500
1110.877, 756.1223
1111.359, 746.3527
1111.841, 738.9199
1112.323, 752.8867
1112.805, 781.2615
1113.287, 798.9547
1113.769, 791.7172
1114.252, 781.3316
1114.734, 777.8442
1115.216, 775.1165
1115.698, 767.1008
1116.180, 753.3207
1116.662, 738.3839
1117.144, 722.2712
1117.626, 716.2710
1118.109, 741.1340
1118.591, 768.0176
1119.073, 770.6600
1119.555, 755.0272
1120.037, 748.3874
1120.519, 754.6947
1121.001, 757.8624
1121.483, 755.0135
1121.965, 748.7841
1122.448, 738.9455
1122.930, 729.5234
1123.412, 726.7908
1123.894, 732.1985
1124.376, 740.1637
1124.858, 754.4869
1125.340, 762.0696
1125.822, 753.7026
1126.304, 737.2730
1126.787, 736.0200
1127.269, 745.5646
1127.751, 752.9855
1128.233, 751.8707
1128.715, 750.1234
1129.197, 750.5681
1129.679, 750.8463
1130.161, 747.8660
1130.644, 742.0267
1131.126, 742.8582
1131.608, 750.0617
1132.090, 752.3807
1132.572, 733.5266
1133.054, 716.1667
1133.536, 718.7095
1134.018, 732.9818
1134.500, 735.4961
1134.983, 724.5701
1135.465, 717.5634
1135.947, 717.8469
1136.429, 720.9866
1136.911, 722.8518
1137.393, 724.8591
1137.875, 730.5717
1138.357, 741.5574
1138.839, 738.7072
1139.322, 716.1782
1139.804, 700.4510
1140.286, 706.1149
1140.768, 720.7526
1141.250, 725.5204
1141.732, 722.8170
1142.214, 716.6993
1142.696, 699.7838
1143.179, 696.4767
1143.661, 713.8102
1144.143, 734.3204
1144.625, 746.0738
1145.107, 749.4399
1145.589, 742.0695
1146.071, 726.2053
1146.553, 714.6712
1147.036, 714.4613
1147.518, 718.5516
1148.000, 726.7238
1148.482, 735.8145
1148.964, 742.2291
1149.446, 745.2183
1149.928, 737.2450
1150.410, 716.3588
1150.892, 697.2838
1151.375, 686.9980
1151.857, 684.5608
1152.339, 693.1458
1152.821, 709.3051
1153.303, 716.2479
1153.785, 714.0459
1154.267, 707.4093
1154.749, 695.7834
1155.231, 685.1266
1155.714, 679.7319
1156.196, 678.8202
1156.678, 682.3362
1157.160, 690.9821
1157.642, 698.8725
1158.124, 706.4830
1158.606, 709.6885
1159.088, 701.7210
1159.571, 691.1920
1160.053, 685.6655
1160.535, 685.5814
1161.017, 693.2541
1161.499, 719.0510
1161.981, 727.4344
1162.463, 711.6227
1162.945, 692.0553
1163.427, 693.5809
1163.910, 704.1440
1164.392, 703.7883
1164.874, 692.4872
1165.356, 685.6635
1165.838, 692.0816
1166.320, 694.9608
1166.802, 690.4307
1167.284, 680.9875
1167.766, 666.2199
1168.249, 650.8411
1168.731, 646.4173
1169.213, 656.8067
1169.695, 668.6874
1170.177, 683.9609
1170.659, 691.5923
1171.141, 681.8786
1171.623, 662.9251
1172.106, 667.1349
1172.588, 688.6327
1173.070, 705.1780
1173.552, 708.4965
1174.034, 704.6194
1174.516, 688.8450
1174.998, 672.5744
1175.480, 664.7128
1175.963, 664.9662
1176.445, 666.3707
1176.927, 668.6103
1177.409, 668.7144
1177.891, 657.5090
1178.373, 651.8029
1178.855, 666.6877
1179.337, 689.2273
1179.819, 700.2848
1180.302, 699.5679
1180.784, 697.3670
1181.266, 694.5225
1181.748, 659.8164
1182.230, 700.8953
1182.712, 723.9576
1183.194, 729.9715
1183.676, 667.8752
1184.158, 693.7291
1184.641, 684.3365
1185.123, 673.4987
1185.605, 711.7312
1186.087, 659.5414
1186.569, 696.9958
1187.051, 698.6658
1187.533, 716.7134
1188.015, 699.2969
1188.498, 692.8340
1188.980, 721.8468
1189.462, 731.2165
1189.944, 709.7175
1190.426, 728.8062
1190.908, 675.3776
1191.390, 685.5839
1191.872, 723.2459
1192.354, 703.5300
1192.837, 723.2670
1193.319, 727.9782
1193.801, 664.4032
1194.283, 719.5848
1194.765, 723.4081
1195.247, 674.4976
1195.729, 725.6101
1196.211, 683.9695
1196.693, 675.4361
1197.176, 691.8178
1197.658, 682.2264
1198.140, 713.5850
1198.622, 705.4934
1199.104, 693.8773
1199.586, 697.6429
1200.068, 657.8212
1200.550, 698.8629
1201.033, 684.6678
1201.515, 697.9299
1201.997, 717.4154
1202.479, 689.2479
1202.961, 711.5297
1203.443, 655.5765
1203.925, 665.0854
1204.407, 667.5452
1204.890, 711.8468
1205.372, 656.2750
1205.854, 663.9651
1206.336, 698.5911
1206.818, 695.5276
1207.300, 708.2222
1207.782, 674.2659
1208.264, 684.1346
1208.746, 681.9235
1209.229, 721.4548
1209.711, 728.0324
1210.193, 694.8677
1210.675, 661.8714
1211.157, 704.4070
1211.639, 675.3527
1212.121, 684.9203
1212.603, 654.5995
1213.085, 658.7194
1213.568, 662.2930
1214.050, 683.5219
1214.532, 651.2156
1215.014, 688.3528
1215.496, 685.3536
1215.978, 694.1774
1216.460, 701.6859
1216.942, 655.3350
1217.425, 653.1357
1217.907, 714.1133
1218.389, 678.7432
1218.871, 662.8194
1219.353, 660.7194
1219.835, 723.8607
1220.317, 726.3610
1220.799, 656.3768
1221.281, 716.6432
1221.764, 696.7766
1222.246, 700.7230
1222.728, 695.9816
1223.210, 693.8119
1223.692, 658.9293
1224.174, 667.1562
1224.656, 710.4351
1225.138, 693.9554
1225.620, 718.0815
1226.103, 668.2054
1226.585, 662.2557
1227.067, 667.9656
1227.549, 677.9280
1228.031, 653.9133
1228.513, 697.8480
1228.995, 696.5400
1229.477, 656.0256
1229.960, 658.0418
1230.442, 652.9965
1230.924, 721.4666
1231.406, 688.8615
1231.888, 649.0991
1232.370, 689.4645
1232.852, 704.1473
1233.334, 684.1091
1233.816, 682.5205
1234.299, 645.9292
1234.781, 663.0162
1235.263, 661.6420
1235.745, 690.6852
1236.227, 654.2348
1236.709, 685.3704
1237.191, 689.8295
1237.673, 688.4913
1238.156, 667.4876
1238.638, 655.1665
1239.120, 654.5867
1239.602, 663.0826
1240.084, 687.4977
1240.566, 716.6227
1241.048, 710.2683
1241.530, 677.3066
1242.012, 659.5099
1242.495, 693.4843
1242.977, 714.0312
1243.459, 708.1266
1243.941, 694.1649
1244.423, 691.6481
1244.905, 697.1832
1245.387, 707.5967
1245.869, 720.6787
1246.351, 722.7322
1246.834, 691.4835
1247.316, 678.1793
1247.798, 698.0012
1248.280, 724.0745
1248.762, 714.5786
1249.244, 686.8192
1249.726, 672.5222
1250.208, 674.8398
1250.691, 680.1259
1251.173, 687.8641
1251.655, 693.2558
1252.137, 694.6419
1252.619, 694.2285
1253.101, 695.7072
1253.583, 697.6636
1254.065, 694.4144
1254.547, 683.2791
1255.030, 694.3735
1255.512, 743.4752
1255.994, 773.5554
1256.476, 758.9402
1256.958, 726.2061
1257.440, 709.6380
1257.922, 705.0599
1258.404, 708.1581
1258.886, 721.7762
1259.369, 724.3995
1259.851, 712.6129
1260.333, 702.9915
1260.815, 704.4041
1261.297, 709.8927
1261.779, 710.2825
1262.261, 708.5591
1262.743, 709.2957
1263.226, 713.5919
1263.708, 719.2708
1264.190, 727.2214
1264.672, 730.5437
1265.154, 723.0495
1265.636, 711.4181
1266.118, 697.7822
1266.600, 686.6247
1267.083, 686.1794
1267.565, 699.0623
1268.047, 713.3483
1268.529, 729.6845
1269.011, 737.7842
1269.493, 720.9719
1269.975, 702.9611
1270.457, 703.9602
1270.939, 716.1169
1271.422, 725.7445
1271.904, 733.6820
1272.386, 727.2341
1272.868, 706.0516
1273.350, 689.6709
1273.832, 695.8489
1274.314, 707.0839
1274.796, 715.3181
1275.278, 720.1722
1275.761, 719.5568
1276.243, 713.8406
1276.725, 714.2491
1277.207, 721.4293
1277.689, 726.9531
1278.171, 725.6276
1278.653, 720.9888
1279.135, 712.0735
1279.618, 703.0626
1280.100, 704.5196
1280.582, 712.7331
1281.064, 702.7408
1281.546, 672.1917
1282.028, 654.5320
1282.510, 681.2715
1282.992, 706.6190
1283.474, 716.8961
1283.957, 716.7872
1284.439, 709.9335
1284.921, 700.4382
1285.403, 701.4127
1285.885, 714.9546
1286.367, 726.9926
1286.849, 736.9459
1287.331, 736.9222
1287.813, 720.3430
1288.296, 700.1354
1288.778, 700.8483
1289.260, 713.3206
1289.742, 721.2541
1290.224, 721.5991
1290.706, 721.8387
1291.188, 720.8589
1291.670, 726.0537
1292.153, 742.8422
1292.635, 760.0778
1293.117, 759.5093
1293.599, 750.1506
1294.081, 745.9672
1294.563, 735.2800
1295.045, 739.6708
1295.527, 710.0873
1296.010, 684.1455
1296.492, 667.2509
1296.974, 663.9299
1297.456, 694.2429
1297.938, 731.4049
1298.420, 741.6137
1298.902, 724.6181
1299.384, 707.7248
1299.866, 690.8990
1300.349, 692.5797
1300.831, 733.4852
##END=



