##NAMES=Junitoite
##RRUFFID=R050154
##IDEAL CHEMISTRY=CaZn^2+^_2_Si_2_O_7_&#183;H_2_O
##LOCALITY=Christmas mine, Christmas, Gila County, Arizona, USA
##OWNER=RRUFF
##SOURCE=Jim McGlasson
##DESCRIPTION=Colorless thin hexagonal crystals and platy purple aggregates
##STATUS=The identification of this mineral has been confirmed only by single crystal X-ray diffraction.
##URL=rruff.info/R050154
96.42468, 16733.98
96.90680, 16818.01
97.38892, 16886.14
97.87103, 16948.65
98.35315, 16985.27
98.83527, 16981.55
99.31738, 16970.03
99.79950, 16954.10
100.2816, 16941.11
100.7637, 16922.44
101.2458, 16904.44
101.7280, 16891.80
102.2101, 16884.61
102.6922, 16884.00
103.1743, 16893.89
103.6564, 16912.76
104.1385, 16930.89
104.6207, 16939.54
105.1028, 16942.41
105.5849, 16953.94
106.0670, 16978.63
106.5491, 17007.43
107.0313, 17030.02
107.5134, 17044.59
107.9955, 17057.94
108.4776, 17078.17
108.9597, 17107.24
109.4418, 17131.72
109.9240, 17142.55
110.4061, 17149.55
110.8882, 17159.77
111.3703, 17175.91
111.8524, 17196.01
112.3345, 17214.97
112.8167, 17232.35
113.2988, 17249.03
113.7809, 17265.10
114.2630, 17280.47
114.7451, 17294.97
115.2272, 17308.26
115.7094, 17320.51
116.1915, 17333.69
116.6736, 17351.25
117.1557, 17366.08
117.6378, 17370.79
118.1199, 17368.82
118.6021, 17371.72
119.0842, 17389.21
119.5663, 17423.01
120.0484, 17459.92
120.5305, 17506.36
121.0126, 17551.88
121.4948, 17592.51
121.9769, 17629.25
122.4590, 17647.52
122.9411, 17619.22
123.4232, 17556.17
123.9053, 17491.15
124.3875, 17429.92
124.8696, 17374.48
125.3517, 17331.61
125.8338, 17305.44
126.3159, 17288.63
126.7980, 17274.14
127.2802, 17262.39
127.7623, 17255.53
128.2444, 17257.66
128.7265, 17270.02
129.2086, 17278.42
129.6907, 17278.86
130.1729, 17277.08
130.6550, 17275.27
131.1371, 17273.82
131.6192, 17271.96
132.1013, 17267.94
132.5834, 17257.76
133.0656, 17253.95
133.5477, 17259.26
134.0298, 17268.33
134.5119, 17276.58
134.9940, 17282.62
135.4761, 17289.01
135.9583, 17301.74
136.4404, 17334.69
136.9225, 17356.80
137.4046, 17360.72
137.8867, 17354.08
138.3688, 17346.47
138.8510, 17341.70
139.3331, 17340.16
139.8152, 17343.37
140.2973, 17352.91
140.7794, 17363.49
141.2615, 17374.45
141.7437, 17385.11
142.2258, 17392.13
142.7079, 17389.74
143.1900, 17384.70
143.6721, 17391.10
144.1542, 17415.90
144.6364, 17444.43
145.1185, 17461.73
145.6006, 17466.21
146.0827, 17469.10
146.5648, 17475.37
147.0469, 17483.41
147.5291, 17492.30
148.0112, 17502.74
148.4933, 17512.83
148.9754, 17517.39
149.4575, 17512.00
149.9396, 17508.89
150.4218, 17514.87
150.9039, 17524.56
151.3860, 17530.59
151.8681, 17528.09
152.3502, 17518.20
152.8323, 17510.87
153.3145, 17505.02
153.7966, 17503.26
154.2787, 17509.11
154.7608, 17519.49
155.2429, 17528.49
155.7250, 17531.18
156.2072, 17526.84
156.6893, 17525.78
157.1714, 17527.42
157.6535, 17531.81
158.1356, 17541.33
158.6177, 17554.52
159.0999, 17566.53
159.5820, 17573.25
160.0641, 17573.93
160.5462, 17569.30
161.0283, 17550.25
161.5104, 17532.31
161.9926, 17529.99
162.4747, 17545.00
162.9568, 17563.46
163.4389, 17570.34
163.9210, 17566.31
164.4031, 17562.64
164.8853, 17560.15
165.3674, 17559.43
165.8495, 17562.20
166.3316, 17569.85
166.8137, 17578.00
167.2958, 17583.21
167.7780, 17585.85
168.2601, 17585.96
168.7422, 17581.93
169.2243, 17574.97
169.7064, 17569.73
170.1885, 17566.04
170.6707, 17565.49
171.1528, 17569.35
171.6349, 17576.99
172.1170, 17585.87
172.5991, 17595.41
173.0812, 17605.83
173.5634, 17611.84
174.0455, 17608.10
174.5276, 17603.61
175.0097, 17600.59
175.4918, 17599.86
175.9739, 17602.39
176.4561, 17610.94
176.9382, 17629.56
177.4203, 17640.07
177.9024, 17638.25
178.3845, 17632.57
178.8666, 17625.28
179.3488, 17617.77
179.8309, 17611.96
180.3130, 17610.78
180.7951, 17616.63
181.2772, 17622.13
181.7593, 17625.50
182.2415, 17629.71
182.7236, 17639.19
183.2057, 17654.29
183.6878, 17668.75
184.1699, 17672.65
184.6520, 17658.34
185.1342, 17648.21
185.6163, 17646.21
186.0984, 17647.23
186.5805, 17645.17
187.0626, 17638.05
187.5447, 17629.95
188.0269, 17628.20
188.5090, 17633.75
188.9911, 17640.03
189.4732, 17643.52
189.9553, 17647.05
190.4374, 17657.46
190.9196, 17679.68
191.4017, 17702.59
191.8838, 17708.03
192.3659, 17695.10
192.8480, 17683.07
193.3301, 17683.24
193.8123, 17691.92
194.2944, 17694.87
194.7765, 17684.33
195.2586, 17671.85
195.7407, 17670.62
196.2228, 17680.79
196.7050, 17691.29
197.1871, 17693.98
197.6692, 17689.19
198.1513, 17683.55
198.6334, 17677.11
199.1155, 17671.44
199.5977, 17667.81
200.0798, 17666.31
200.5619, 17665.83
201.0440, 17665.57
201.5261, 17665.66
202.0082, 17665.60
202.4904, 17664.26
202.9725, 17663.69
203.4546, 17664.23
203.9367, 17666.25
204.4188, 17671.02
204.9009, 17680.61
205.3831, 17696.66
205.8652, 17712.59
206.3473, 17732.25
206.8294, 17748.72
207.3115, 17757.42
207.7936, 17757.81
208.2758, 17752.70
208.7579, 17745.16
209.2400, 17731.69
209.7221, 17723.80
210.2042, 17722.91
210.6863, 17725.43
211.1685, 17730.52
211.6506, 17737.31
212.1327, 17743.23
212.6148, 17744.28
213.0969, 17736.80
213.5790, 17731.91
214.0612, 17729.54
214.5433, 17729.49
215.0254, 17732.16
215.5075, 17737.46
215.9896, 17744.04
216.4717, 17750.16
216.9539, 17756.31
217.4360, 17760.32
217.9181, 17758.31
218.4002, 17756.03
218.8823, 17760.60
219.3644, 17773.80
219.8466, 17788.98
220.3287, 17797.08
220.8108, 17797.33
221.2929, 17795.64
221.7750, 17790.47
222.2571, 17784.68
222.7393, 17781.85
223.2214, 17782.81
223.7035, 17786.30
224.1856, 17791.39
224.6677, 17797.93
225.1498, 17805.51
225.6320, 17816.00
226.1141, 17827.03
226.5962, 17834.71
227.0783, 17838.21
227.5604, 17838.88
228.0425, 17833.93
228.5247, 17825.48
229.0068, 17825.03
229.4889, 17841.35
229.9710, 17868.36
230.4531, 17892.35
230.9352, 17910.38
231.4174, 17928.64
231.8995, 17952.09
232.3816, 17979.38
232.8637, 18007.12
233.3458, 18031.87
233.8279, 18055.59
234.3101, 18084.78
234.7922, 18118.48
235.2743, 18159.98
235.7564, 18214.97
236.2385, 18277.79
236.7206, 18337.53
237.2028, 18387.81
237.6849, 18429.79
238.1670, 18470.99
238.6491, 18520.99
239.1312, 18553.85
239.6133, 18557.83
240.0955, 18540.83
240.5776, 18515.86
241.0597, 18489.76
241.5418, 18461.97
242.0239, 18430.62
242.5060, 18396.09
242.9882, 18356.41
243.4703, 18305.59
243.9524, 18250.78
244.4345, 18202.46
244.9166, 18167.40
245.3987, 18142.49
245.8809, 18113.51
246.3630, 18074.45
246.8451, 18039.09
247.3272, 18008.74
247.8093, 17983.78
248.2914, 17966.68
248.7736, 17959.54
249.2557, 17958.04
249.7378, 17944.13
250.2199, 17898.59
250.7020, 17864.38
251.1841, 17852.55
251.6663, 17853.08
252.1484, 17855.66
252.6305, 17855.45
253.1126, 17851.76
253.5947, 17842.13
254.0768, 17818.20
254.5590, 17798.35
255.0411, 17781.04
255.5232, 17769.32
256.0053, 17769.01
256.4874, 17782.50
256.9695, 17802.60
257.4517, 17811.95
257.9338, 17798.58
258.4159, 17787.79
258.8980, 17779.05
259.3801, 17773.15
259.8622, 17771.53
260.3444, 17774.59
260.8265, 17780.24
261.3086, 17784.71
261.7907, 17787.68
262.2728, 17789.45
262.7549, 17790.22
263.2371, 17789.59
263.7192, 17786.80
264.2013, 17781.70
264.6834, 17775.34
265.1655, 17769.21
265.6476, 17763.41
266.1298, 17757.79
266.6119, 17752.68
267.0940, 17747.62
267.5761, 17740.00
268.0582, 17729.72
268.5403, 17724.06
269.0225, 17734.26
269.5046, 17766.87
269.9867, 17783.33
270.4688, 17770.26
270.9509, 17748.59
271.4330, 17734.94
271.9152, 17731.51
272.3973, 17733.46
272.8794, 17737.55
273.3615, 17743.90
273.8436, 17747.49
274.3257, 17744.10
274.8079, 17740.77
275.2900, 17743.36
275.7721, 17751.94
276.2542, 17763.03
276.7363, 17776.33
277.2184, 17789.98
277.7006, 17794.70
278.1827, 17780.87
278.6648, 17765.58
279.1469, 17761.38
279.6290, 17767.37
280.1111, 17774.84
280.5933, 17778.40
281.0754, 17779.80
281.5575, 17785.27
282.0396, 17800.36
282.5217, 17812.88
283.0038, 17813.77
283.4860, 17804.86
283.9681, 17795.25
284.4502, 17787.88
284.9323, 17783.47
285.4144, 17783.19
285.8965, 17788.79
286.3787, 17794.09
286.8608, 17794.87
287.3429, 17792.35
287.8250, 17790.47
288.3071, 17789.41
288.7892, 17791.20
289.2714, 17799.28
289.7535, 17814.23
290.2356, 17829.08
290.7177, 17840.99
291.1998, 17850.33
291.6819, 17857.87
292.1641, 17862.96
292.6462, 17867.85
293.1283, 17875.08
293.6104, 17884.36
294.0925, 17894.45
294.5746, 17905.73
295.0568, 17917.34
295.5389, 17925.85
296.0210, 17928.51
296.5031, 17935.24
296.9852, 17959.97
297.4673, 17996.50
297.9495, 18028.40
298.4316, 18050.24
298.9137, 18064.40
299.3958, 18070.50
299.8779, 18065.64
300.3600, 18067.20
300.8422, 18088.86
301.3243, 18124.81
301.8064, 18166.73
302.2885, 18215.34
302.7706, 18267.24
303.2527, 18321.87
303.7349, 18380.23
304.2170, 18430.37
304.6991, 18468.49
305.1812, 18493.12
305.6633, 18503.52
306.1454, 18500.18
306.6276, 18480.66
307.1097, 18438.30
307.5918, 18374.31
308.0739, 18305.53
308.5560, 18230.93
309.0381, 18160.78
309.5203, 18107.41
310.0024, 18072.15
310.4845, 18040.23
310.9666, 17996.66
311.4487, 17946.05
311.9308, 17913.57
312.4130, 17911.43
312.8951, 17918.59
313.3772, 17913.48
313.8593, 17898.25
314.3414, 17887.89
314.8235, 17895.13
315.3057, 17912.46
315.7878, 17920.43
316.2699, 17915.96
316.7520, 17905.48
317.2341, 17887.37
317.7162, 17866.76
318.1984, 17856.12
318.6805, 17868.48
319.1626, 17889.58
319.6447, 17894.63
320.1268, 17880.11
320.6089, 17867.60
321.0911, 17873.03
321.5732, 17887.20
322.0553, 17897.38
322.5374, 17899.24
323.0195, 17899.60
323.5016, 17906.89
323.9838, 17921.23
324.4659, 17932.40
324.9480, 17934.83
325.4301, 17933.02
325.9122, 17932.40
326.3943, 17933.29
326.8765, 17935.04
327.3586, 17936.99
327.8407, 17939.29
328.3228, 17943.27
328.8049, 17950.34
329.2870, 17957.55
329.7692, 17962.55
330.2513, 17965.38
330.7334, 17965.49
331.2155, 17958.96
331.6976, 17949.79
332.1797, 17948.40
332.6619, 17957.88
333.1440, 17969.42
333.6261, 17972.71
334.1082, 17972.04
334.5903, 17978.76
335.0724, 18001.21
335.5546, 18030.33
336.0367, 18055.37
336.5188, 18076.15
337.0009, 18093.43
337.4830, 18105.96
337.9651, 18115.68
338.4473, 18125.61
338.9294, 18133.36
339.4115, 18145.74
339.8936, 18170.52
340.3757, 18206.27
340.8578, 18240.76
341.3400, 18266.69
341.8221, 18292.64
342.3042, 18331.25
342.7863, 18383.83
343.2684, 18440.74
343.7505, 18497.18
344.2327, 18554.47
344.7148, 18615.06
345.1969, 18678.56
345.6790, 18747.80
346.1611, 18827.85
346.6432, 18917.10
347.1254, 19011.27
347.6075, 19114.20
348.0896, 19218.94
348.5717, 19318.53
349.0538, 19413.14
349.5359, 19495.27
350.0181, 19563.94
350.5002, 19614.16
350.9823, 19633.92
351.4644, 19617.67
351.9465, 19574.75
352.4286, 19505.46
352.9108, 19412.79
353.3929, 19308.24
353.8750, 19194.99
354.3571, 19075.88
354.8392, 18956.17
355.3214, 18829.50
355.8035, 18715.68
356.2856, 18628.79
356.7677, 18558.65
357.2498, 18485.34
357.7319, 18401.86
358.2141, 18321.19
358.6962, 18262.13
359.1783, 18227.75
359.6604, 18195.08
360.1425, 18162.73
360.6246, 18130.16
361.1068, 18095.87
361.5889, 18059.90
362.0710, 18026.19
362.5531, 17997.45
363.0352, 17974.09
363.5173, 17957.38
363.9995, 17954.94
364.4816, 17950.93
364.9637, 17932.47
365.4458, 17906.01
365.9279, 17889.92
366.4100, 17895.22
366.8922, 17913.77
367.3743, 17918.69
367.8564, 17895.78
368.3385, 17880.20
368.8206, 17881.23
369.3027, 17889.71
369.7849, 17896.28
370.2670, 17898.04
370.7491, 17895.75
371.2312, 17889.79
371.7133, 17877.53
372.1954, 17869.99
372.6776, 17872.87
373.1597, 17875.42
373.6418, 17869.06
374.1239, 17855.44
374.6060, 17843.64
375.0881, 17841.63
375.5703, 17848.95
376.0524, 17848.16
376.5345, 17831.03
377.0166, 17815.62
377.4987, 17805.61
377.9808, 17799.95
378.4630, 17797.50
378.9451, 17797.78
379.4272, 17799.09
379.9093, 17796.73
380.3914, 17782.82
380.8735, 17779.01
381.3557, 17794.59
381.8378, 17813.28
382.3199, 17823.12
382.8020, 17822.49
383.2841, 17817.17
383.7662, 17812.71
384.2484, 17808.57
384.7305, 17808.59
385.2126, 17822.10
385.6947, 17830.58
386.1768, 17822.18
386.6589, 17804.44
387.1411, 17793.09
387.6232, 17798.45
388.1053, 17815.55
388.5874, 17827.12
389.0695, 17833.46
389.5516, 17832.96
390.0338, 17817.28
390.5159, 17799.98
390.9980, 17795.48
391.4801, 17807.63
391.9622, 17824.50
392.4443, 17830.91
392.9265, 17825.68
393.4086, 17822.10
393.8907, 17824.44
394.3728, 17826.36
394.8549, 17822.71
395.3370, 17815.06
395.8192, 17809.67
396.3013, 17813.02
396.7834, 17821.69
397.2655, 17823.04
397.7476, 17813.57
398.2297, 17805.88
398.7119, 17805.63
399.1940, 17811.27
399.6761, 17823.03
400.1582, 17844.05
400.6403, 17864.04
401.1224, 17870.57
401.6046, 17864.46
402.0867, 17859.51
402.5688, 17860.11
403.0509, 17863.24
403.5330, 17864.27
404.0151, 17863.04
404.4973, 17864.91
404.9794, 17876.68
405.4615, 17891.85
405.9436, 17898.19
406.4257, 17893.54
406.9078, 17886.04
407.3900, 17881.20
407.8721, 17879.07
408.3542, 17878.84
408.8363, 17882.00
409.3184, 17885.82
409.8005, 17889.28
410.2827, 17892.14
410.7648, 17892.62
411.2469, 17888.91
411.7290, 17884.39
412.2111, 17887.22
412.6932, 17899.06
413.1754, 17912.46
413.6575, 17930.53
414.1396, 17947.13
414.6217, 17953.66
415.1038, 17949.41
415.5859, 17943.89
416.0681, 17946.88
416.5502, 17959.45
417.0323, 17968.23
417.5144, 17970.75
417.9965, 17972.66
418.4786, 17971.95
418.9608, 17972.77
419.4429, 17985.07
419.9250, 18014.69
420.4071, 18052.74
420.8892, 18074.19
421.3713, 18065.64
421.8535, 18059.85
422.3356, 18063.75
422.8177, 18066.61
423.2998, 18057.34
423.7819, 18036.32
424.2640, 18015.18
424.7462, 18006.28
425.2283, 18010.45
425.7104, 18013.91
426.1925, 18014.87
426.6746, 18017.02
427.1567, 18024.15
427.6389, 18032.51
428.1210, 18035.13
428.6031, 18027.70
429.0852, 18016.95
429.5673, 18018.01
430.0494, 18035.22
430.5316, 18048.71
431.0137, 18047.44
431.4958, 18045.42
431.9779, 18053.85
432.4600, 18072.54
432.9421, 18089.28
433.4243, 18090.86
433.9064, 18081.97
434.3885, 18084.99
434.8706, 18106.87
435.3527, 18126.93
435.8348, 18129.09
436.3170, 18120.93
436.7991, 18114.53
437.2812, 18113.52
437.7633, 18114.03
438.2454, 18112.53
438.7275, 18109.21
439.2097, 18105.81
439.6918, 18102.92
440.1739, 18100.13
440.6560, 18094.24
441.1381, 18083.67
441.6202, 18083.63
442.1024, 18108.61
442.5845, 18140.72
443.0666, 18159.68
443.5487, 18163.84
444.0308, 18161.47
444.5129, 18157.50
444.9951, 18152.32
445.4772, 18149.20
445.9593, 18150.71
446.4414, 18151.05
446.9235, 18147.50
447.4056, 18142.00
447.8878, 18137.94
448.3699, 18136.44
448.8520, 18135.12
449.3341, 18129.83
449.8162, 18117.47
450.2983, 18110.25
450.7805, 18111.54
451.2626, 18114.06
451.7447, 18113.13
452.2268, 18110.13
452.7089, 18109.33
453.1910, 18113.62
453.6732, 18122.28
454.1553, 18132.76
454.6374, 18148.50
455.1195, 18159.95
455.6016, 18163.42
456.0837, 18163.95
456.5659, 18165.03
457.0480, 18167.56
457.5301, 18171.40
458.0122, 18176.03
458.4943, 18181.48
458.9764, 18190.87
459.4586, 18211.38
459.9407, 18224.68
460.4228, 18214.50
460.9049, 18192.52
461.3870, 18180.19
461.8691, 18187.89
462.3513, 18203.41
462.8334, 18212.22
463.3155, 18214.61
463.7976, 18219.00
464.2797, 18233.59
464.7618, 18244.20
465.2440, 18227.26
465.7261, 18182.06
466.2082, 18149.13
466.6903, 18148.37
467.1724, 18163.67
467.6545, 18178.40
468.1367, 18190.78
468.6188, 18199.73
469.1009, 18204.90
469.5830, 18205.83
470.0651, 18200.42
470.5472, 18182.29
471.0294, 18166.79
471.5115, 18155.14
471.9936, 18149.30
472.4757, 18155.15
472.9578, 18173.11
473.4399, 18191.89
473.9221, 18197.70
474.4042, 18188.27
474.8863, 18178.24
475.3684, 18164.93
475.8505, 18153.76
476.3326, 18149.63
476.8148, 18148.46
477.2969, 18142.40
477.7790, 18127.53
478.2611, 18109.04
478.7432, 18097.96
479.2253, 18095.72
479.7075, 18097.25
480.1896, 18108.65
480.6717, 18118.28
481.1538, 18118.01
481.6359, 18109.44
482.1180, 18101.06
482.6002, 18098.20
483.0823, 18099.84
483.5644, 18104.32
484.0465, 18113.35
484.5286, 18118.79
485.0107, 18113.09
485.4929, 18103.85
485.9750, 18100.47
486.4571, 18104.87
486.9392, 18110.16
487.4213, 18111.63
487.9034, 18111.07
488.3856, 18113.42
488.8677, 18119.95
489.3498, 18124.98
489.8319, 18122.69
490.3140, 18113.63
490.7961, 18107.78
491.2783, 18110.77
491.7604, 18110.95
492.2425, 18096.54
492.7246, 18076.78
493.2067, 18070.05
493.6888, 18082.86
494.1710, 18105.34
494.6531, 18122.66
495.1352, 18133.87
495.6173, 18142.50
496.0994, 18151.96
496.5815, 18156.05
497.0637, 18146.82
497.5458, 18130.17
498.0279, 18119.31
498.5100, 18122.27
498.9921, 18132.34
499.4742, 18131.17
499.9564, 18111.55
500.4385, 18098.88
500.9206, 18100.19
501.4027, 18106.50
501.8848, 18113.75
502.3669, 18121.26
502.8491, 18128.98
503.3312, 18137.98
503.8133, 18146.99
504.2954, 18152.65
504.7775, 18155.03
505.2596, 18153.74
505.7418, 18144.34
506.2239, 18133.64
506.7060, 18132.40
507.1881, 18143.68
507.6702, 18153.94
508.1523, 18156.11
508.6345, 18153.04
509.1166, 18148.05
509.5987, 18141.61
510.0808, 18137.65
510.5629, 18140.12
511.0450, 18148.29
511.5272, 18153.63
512.0093, 18156.33
512.4914, 18156.35
512.9735, 18148.21
513.4556, 18139.58
513.9377, 18143.32
514.4199, 18161.75
514.9020, 18182.06
515.3841, 18187.24
515.8662, 18174.38
516.3483, 18166.63
516.8304, 18173.78
517.3126, 18175.75
517.7947, 18161.13
518.2768, 18139.57
518.7589, 18126.60
519.2410, 18128.77
519.7231, 18135.04
520.2053, 18124.85
520.6874, 18095.84
521.1695, 18086.89
521.6516, 18118.94
522.1337, 18151.75
522.6158, 18154.74
523.0980, 18136.54
523.5801, 18121.91
524.0622, 18121.98
524.5443, 18126.98
525.0264, 18124.25
525.5085, 18116.18
525.9907, 18119.05
526.4728, 18142.70
526.9549, 18170.74
527.4370, 18176.84
527.9191, 18157.17
528.4012, 18142.80
528.8834, 18140.46
529.3655, 18141.31
529.8476, 18137.28
530.3297, 18131.00
530.8118, 18132.12
531.2939, 18146.26
531.7761, 18167.62
532.2582, 18181.52
532.7403, 18184.11
533.2224, 18185.42
533.7045, 18184.58
534.1866, 18183.21
534.6688, 18181.55
535.1509, 18180.04
535.6330, 18179.77
536.1151, 18182.06
536.5972, 18185.36
537.0793, 18185.02
537.5615, 18180.06
538.0436, 18175.97
538.5257, 18175.59
539.0078, 18176.02
539.4899, 18173.86
539.9720, 18169.41
540.4542, 18167.46
540.9363, 18173.14
541.4184, 18181.54
541.9005, 18185.18
542.3826, 18184.09
542.8647, 18183.12
543.3469, 18185.32
543.8290, 18188.72
544.3111, 18187.54
544.7932, 18177.71
545.2753, 18173.16
545.7574, 18180.51
546.2396, 18190.38
546.7217, 18192.70
547.2038, 18188.85
547.6859, 18189.35
548.1680, 18202.57
548.6501, 18224.09
549.1323, 18233.64
549.6144, 18220.06
550.0965, 18213.72
550.5786, 18224.55
551.0607, 18237.82
551.5428, 18240.81
552.0250, 18234.51
552.5071, 18231.05
552.9892, 18241.68
553.4713, 18260.89
553.9534, 18272.82
554.4355, 18276.72
554.9177, 18276.64
555.3998, 18270.88
555.8819, 18264.29
556.3640, 18263.72
556.8461, 18269.89
557.3282, 18276.50
557.8104, 18280.23
558.2925, 18283.62
558.7746, 18291.72
559.2567, 18303.69
559.7388, 18310.14
560.2209, 18303.94
560.7031, 18290.63
561.1852, 18287.88
561.6673, 18307.89
562.1494, 18321.58
562.6315, 18327.81
563.1136, 18328.27
563.5958, 18318.82
564.0779, 18303.80
564.5600, 18296.47
565.0421, 18307.32
565.5242, 18330.63
566.0063, 18347.43
566.4885, 18355.94
566.9706, 18362.78
567.4527, 18370.35
567.9348, 18375.83
568.4169, 18375.07
568.8990, 18369.18
569.3812, 18366.35
569.8633, 18374.34
570.3454, 18386.12
570.8275, 18391.34
571.3096, 18390.29
571.7917, 18388.23
572.2739, 18387.41
572.7560, 18386.70
573.2381, 18383.53
573.7202, 18376.68
574.2023, 18372.60
574.6844, 18370.19
575.1666, 18372.32
575.6487, 18382.89
576.1308, 18399.69
576.6129, 18418.45
577.0950, 18437.30
577.5771, 18453.18
578.0593, 18457.86
578.5414, 18444.97
579.0235, 18438.15
579.5056, 18437.06
579.9877, 18443.72
580.4698, 18467.93
580.9520, 18500.20
581.4341, 18519.03
581.9162, 18511.35
582.3983, 18493.24
582.8804, 18484.38
583.3625, 18484.32
583.8447, 18489.10
584.3268, 18498.30
584.8089, 18511.13
585.2910, 18530.85
585.7731, 18555.89
586.2552, 18568.33
586.7374, 18550.34
587.2195, 18536.59
587.7016, 18552.15
588.1837, 18582.41
588.6658, 18598.96
589.1479, 18593.98
589.6301, 18586.30
590.1122, 18601.52
590.5943, 18643.98
591.0764, 18666.85
591.5585, 18648.71
592.0406, 18635.39
592.5228, 18641.32
593.0049, 18656.02
593.4870, 18666.74
593.9691, 18670.25
594.4512, 18672.54
594.9333, 18681.74
595.4155, 18694.96
595.8976, 18697.24
596.3797, 18684.51
596.8618, 18676.04
597.3439, 18688.56
597.8260, 18710.88
598.3082, 18714.67
598.7903, 18691.32
599.2724, 18671.49
599.7545, 18663.63
600.2366, 18665.08
600.7188, 18676.52
601.2009, 18695.75
601.6830, 18714.61
602.1651, 18728.00
602.6472, 18736.00
603.1293, 18738.24
603.6115, 18729.33
604.0936, 18724.47
604.5757, 18727.78
605.0578, 18732.16
605.5399, 18732.40
606.0220, 18729.70
606.5042, 18729.17
606.9863, 18734.36
607.4684, 18742.14
607.9505, 18747.54
608.4326, 18750.64
608.9147, 18753.35
609.3969, 18755.28
609.8790, 18758.82
610.3611, 18769.34
610.8432, 18785.91
611.3253, 18794.74
611.8074, 18787.22
612.2896, 18779.13
612.7717, 18780.05
613.2538, 18785.60
613.7359, 18786.96
614.2180, 18781.84
614.7001, 18776.77
615.1823, 18779.92
615.6644, 18791.74
616.1465, 18801.63
616.6286, 18811.39
617.1107, 18816.16
617.5928, 18811.61
618.0750, 18803.58
618.5571, 18797.17
619.0392, 18793.53
619.5213, 18793.25
620.0034, 18800.03
620.4855, 18809.77
620.9677, 18810.89
621.4498, 18802.59
621.9319, 18799.46
622.4140, 18810.33
622.8961, 18829.18
623.3782, 18844.07
623.8604, 18855.99
624.3425, 18861.85
624.8246, 18854.34
625.3067, 18846.72
625.7888, 18848.38
626.2709, 18857.29
626.7531, 18867.80
627.2352, 18877.12
627.7173, 18884.35
628.1994, 18886.66
628.6815, 18882.34
629.1636, 18882.46
629.6458, 18892.45
630.1279, 18900.40
630.6100, 18894.26
631.0921, 18883.68
631.5742, 18887.57
632.0563, 18915.24
632.5385, 18943.96
633.0206, 18956.43
633.5027, 18958.65
633.9848, 18963.50
634.4669, 18972.77
634.9490, 18977.38
635.4312, 18968.81
635.9133, 18951.57
636.3954, 18946.79
636.8775, 18968.91
637.3596, 18984.57
637.8417, 18988.04
638.3239, 18988.56
638.8060, 18992.74
639.2881, 19000.06
639.7702, 19006.90
640.2523, 19011.72
640.7344, 19013.12
641.2166, 19006.04
641.6987, 18989.78
642.1808, 18978.73
642.6629, 18975.54
643.1450, 18978.29
643.6271, 18988.01
644.1093, 19002.80
644.5914, 19015.63
645.0735, 19024.01
645.5556, 19031.99
646.0377, 19042.84
646.5198, 19053.93
647.0020, 19059.79
647.4841, 19060.29
647.9662, 19062.61
648.4483, 19074.02
648.9304, 19092.46
649.4125, 19103.20
649.8947, 19100.34
650.3768, 19100.64
650.8589, 19112.30
651.3410, 19123.62
651.8231, 19125.95
652.3052, 19119.84
652.7874, 19111.49
653.2695, 19100.96
653.7516, 19092.56
654.2337, 19093.04
654.7158, 19100.79
655.1979, 19108.47
655.6801, 19113.95
656.1622, 19119.11
656.6443, 19126.55
657.1264, 19136.56
657.6085, 19142.68
658.0906, 19136.70
658.5728, 19137.68
659.0549, 19159.18
659.5370, 19184.50
660.0191, 19195.71
660.5012, 19190.96
660.9833, 19181.48
661.4655, 19175.79
661.9476, 19172.80
662.4297, 19168.25
662.9118, 19161.36
663.3939, 19160.14
663.8760, 19171.27
664.3582, 19184.06
664.8403, 19180.94
665.3224, 19163.69
665.8045, 19160.69
666.2866, 19186.49
666.7687, 19217.05
667.2509, 19242.53
667.7330, 19262.61
668.2151, 19278.32
668.6972, 19289.64
669.1793, 19292.85
669.6614, 19280.38
670.1436, 19254.86
670.6257, 19256.24
671.1078, 19303.21
671.5899, 19338.34
672.0720, 19335.92
672.5541, 19322.36
673.0363, 19316.81
673.5184, 19320.06
674.0005, 19324.80
674.4826, 19325.13
674.9647, 19327.71
675.4468, 19343.92
675.9290, 19368.07
676.4111, 19382.10
676.8932, 19380.28
677.3753, 19371.24
677.8574, 19363.07
678.3395, 19355.21
678.8217, 19363.34
679.3038, 19409.06
679.7859, 19443.53
680.2680, 19455.79
680.7501, 19455.30
681.2322, 19446.07
681.7144, 19431.30
682.1965, 19420.78
682.6786, 19419.32
683.1607, 19427.23
683.6428, 19452.23
684.1249, 19491.06
684.6071, 19511.97
685.0892, 19501.65
685.5713, 19484.11
686.0534, 19486.99
686.5355, 19511.63
687.0176, 19532.21
687.4998, 19549.09
687.9819, 19561.60
688.4640, 19568.94
688.9461, 19572.15
689.4282, 19566.92
689.9103, 19556.57
690.3925, 19557.18
690.8746, 19585.42
691.3567, 19628.75
691.8388, 19656.97
692.3209, 19669.72
692.8030, 19678.77
693.2852, 19685.68
693.7673, 19693.06
694.2494, 19705.06
694.7315, 19721.20
695.2136, 19732.44
695.6957, 19728.08
696.1779, 19731.59
696.6600, 19757.90
697.1421, 19792.19
697.6242, 19816.47
698.1063, 19829.87
698.5884, 19844.97
699.0706, 19871.66
699.5527, 19906.27
700.0348, 19940.03
700.5169, 19973.72
700.9990, 19999.98
701.4811, 20011.53
701.9633, 20023.40
702.4454, 20050.52
702.9275, 20088.68
703.4096, 20124.97
703.8917, 20153.41
704.3738, 20185.49
704.8560, 20231.82
705.3381, 20281.25
705.8202, 20319.24
706.3023, 20345.81
706.7844, 20371.97
707.2665, 20405.15
707.7487, 20443.27
708.2308, 20480.61
708.7129, 20517.60
709.1950, 20551.75
709.6771, 20582.93
710.1592, 20610.88
710.6414, 20635.12
711.1235, 20656.22
711.6056, 20675.98
712.0877, 20697.81
712.5698, 20711.24
713.0519, 20705.58
713.5341, 20692.19
714.0162, 20686.31
714.4983, 20686.78
714.9804, 20681.92
715.4625, 20665.04
715.9446, 20638.62
716.4268, 20605.28
716.9089, 20560.77
717.3910, 20528.73
717.8731, 20519.16
718.3552, 20508.85
718.8373, 20484.75
719.3195, 20454.07
719.8016, 20427.48
720.2837, 20407.22
720.7658, 20386.02
721.2479, 20354.08
721.7300, 20323.94
722.2122, 20313.20
722.6943, 20317.12
723.1764, 20316.81
723.6585, 20304.04
724.1406, 20284.47
724.6227, 20264.68
725.1049, 20242.94
725.5870, 20237.56
726.0691, 20262.04
726.5512, 20280.96
727.0333, 20277.48
727.5154, 20265.76
727.9976, 20257.03
728.4797, 20252.59
728.9618, 20256.52
729.4439, 20274.87
729.9260, 20298.51
730.4081, 20322.82
730.8903, 20345.32
731.3724, 20360.79
731.8545, 20367.75
732.3366, 20368.42
732.8187, 20364.46
733.3008, 20356.32
733.7830, 20348.31
734.2651, 20338.11
734.7472, 20333.27
735.2293, 20335.85
735.7114, 20344.42
736.1935, 20365.01
736.6757, 20392.57
737.1578, 20405.32
737.6399, 20383.27
738.1220, 20362.03
738.6041, 20370.84
739.0862, 20393.74
739.5684, 20404.59
740.0505, 20400.49
740.5326, 20393.94
741.0147, 20393.54
741.4968, 20398.51
741.9789, 20408.50
742.4611, 20427.56
742.9432, 20435.28
743.4253, 20415.93
743.9074, 20402.41
744.3895, 20419.81
744.8716, 20453.82
745.3538, 20478.28
745.8359, 20487.76
746.3180, 20492.38
746.8001, 20493.92
747.2822, 20494.86
747.7643, 20496.73
748.2465, 20500.36
748.7286, 20507.46
749.2107, 20518.87
749.6928, 20533.33
750.1749, 20551.49
750.6570, 20574.17
751.1392, 20581.56
751.6213, 20563.62
752.1034, 20553.86
752.5855, 20573.87
753.0676, 20602.99
753.5497, 20613.32
754.0319, 20603.81
754.5140, 20602.12
754.9961, 20619.85
755.4782, 20641.82
755.9603, 20661.33
756.4424, 20677.88
756.9246, 20689.68
757.4067, 20697.44
757.8888, 20707.57
758.3709, 20727.51
758.8530, 20752.12
759.3351, 20761.75
759.8173, 20753.97
760.2994, 20751.96
760.7815, 20760.82
761.2636, 20776.70
761.7457, 20803.32
762.2278, 20835.37
762.7100, 20847.44
763.1921, 20822.05
763.6742, 20803.34
764.1563, 20806.62
764.6384, 20816.48
765.1205, 20819.86
765.6027, 20818.83
766.0848, 20822.48
766.5669, 20835.15
767.0490, 20852.32
767.5311, 20870.80
768.0132, 20889.19
768.4954, 20897.37
768.9775, 20893.18
769.4596, 20892.67
769.9417, 20905.73
770.4238, 20923.33
770.9059, 20928.46
771.3881, 20915.41
771.8702, 20912.58
772.3523, 20928.04
772.8344, 20943.53
773.3165, 20950.00
773.7986, 20954.69
774.2808, 20967.58
774.7629, 20988.84
775.2450, 21008.62
775.7271, 21018.59
776.2092, 21024.97
776.6913, 21036.91
777.1735, 21053.39
777.6556, 21070.44
778.1377, 21087.30
778.6198, 21103.27
779.1019, 21117.70
779.5840, 21130.73
780.0662, 21142.95
780.5483, 21153.40
781.0304, 21164.81
781.5125, 21174.71
781.9946, 21188.12
782.4767, 21214.31
782.9589, 21244.15
783.4410, 21258.29
783.9231, 21248.83
784.4052, 21240.66
784.8873, 21252.21
785.3694, 21271.00
785.8516, 21283.87
786.3337, 21290.09
786.8158, 21287.00
787.2979, 21273.89
787.7800, 21267.94
788.2621, 21296.44
788.7443, 21357.62
789.2264, 21393.96
789.7085, 21393.64
790.1906, 21402.26
790.6727, 21442.51
791.1548, 21487.98
791.6370, 21510.94
792.1191, 21514.43
792.6012, 21518.75
793.0833, 21524.52
793.5654, 21534.37
794.0475, 21553.36
794.5297, 21573.88
795.0118, 21590.21
795.4939, 21600.62
795.9760, 21601.64
796.4581, 21589.97
796.9402, 21577.21
797.4224, 21583.86
797.9045, 21606.43
798.3866, 21621.68
798.8687, 21627.21
799.3508, 21628.39
799.8329, 21626.50
800.3151, 21623.87
800.7972, 21624.56
801.2793, 21628.44
801.7614, 21636.45
802.2435, 21659.11
802.7256, 21672.84
803.2078, 21656.61
803.6899, 21637.48
804.1720, 21645.13
804.6541, 21680.60
805.1362, 21722.74
805.6183, 21766.25
806.1005, 21804.52
806.5826, 21829.07
807.0647, 21843.35
807.5468, 21852.57
808.0289, 21858.71
808.5110, 21868.76
808.9932, 21888.84
809.4753, 21912.51
809.9574, 21921.27
810.4395, 21910.64
810.9216, 21905.41
811.4037, 21909.50
811.8859, 21914.37
812.3680, 21912.32
812.8501, 21910.12
813.3322, 21918.29
813.8143, 21938.36
814.2964, 21960.21
814.7786, 21980.46
815.2607, 22003.04
815.7428, 22030.04
816.2249, 22060.87
816.7070, 22099.79
817.1891, 22143.69
817.6713, 22174.25
818.1534, 22172.30
818.6355, 22155.91
819.1176, 22161.82
819.5997, 22186.96
820.0818, 22208.23
820.5640, 22221.62
821.0461, 22229.19
821.5282, 22230.99
822.0103, 22229.40
822.4924, 22232.13
822.9745, 22242.77
823.4567, 22249.61
823.9388, 22248.32
824.4209, 22248.41
824.9030, 22254.78
825.3851, 22263.87
825.8672, 22268.91
826.3494, 22269.43
826.8315, 22278.36
827.3136, 22311.96
827.7957, 22347.18
828.2778, 22363.00
828.7599, 22366.97
829.2421, 22373.29
829.7242, 22384.52
830.2063, 22393.74
830.6884, 22394.28
831.1705, 22393.01
831.6526, 22410.99
832.1348, 22449.01
832.6169, 22473.74
833.0990, 22478.24
833.5811, 22477.09
834.0632, 22472.61
834.5453, 22472.51
835.0275, 22497.91
835.5096, 22565.81
835.9917, 22606.51
836.4738, 22599.61
836.9559, 22588.99
837.4380, 22585.88
837.9202, 22590.56
838.4023, 22605.10
838.8844, 22628.01
839.3665, 22650.39
839.8486, 22670.25
840.3307, 22684.62
840.8129, 22686.86
841.2950, 22682.76
841.7771, 22685.26
842.2592, 22695.03
842.7413, 22700.36
843.2234, 22692.90
843.7056, 22682.96
844.1877, 22695.62
844.6698, 22733.95
845.1519, 22752.57
845.6340, 22740.02
846.1161, 22737.06
846.5983, 22767.83
847.0804, 22810.13
847.5625, 22832.24
848.0446, 22832.91
848.5267, 22834.68
849.0089, 22832.77
849.4910, 22839.13
849.9731, 22862.58
850.4552, 22891.51
850.9373, 22919.97
851.4194, 22944.42
851.9016, 22957.37
852.3837, 22952.64
852.8658, 22946.79
853.3479, 22956.19
853.8300, 22974.29
854.3121, 22988.80
854.7943, 23000.25
855.2764, 23018.37
855.7585, 23047.33
856.2406, 23074.26
856.7227, 23079.72
857.2048, 23066.12
857.6870, 23067.29
858.1691, 23086.16
858.6512, 23109.04
859.1333, 23137.44
859.6154, 23160.67
860.0975, 23164.19
860.5797, 23153.23
861.0618, 23157.94
861.5439, 23193.35
862.0260, 23218.99
862.5081, 23222.38
862.9902, 23223.49
863.4724, 23239.95
863.9545, 23260.20
864.4366, 23259.30
864.9187, 23232.19
865.4008, 23214.66
865.8829, 23240.98
866.3651, 23280.80
866.8472, 23299.79
867.3293, 23304.17
867.8114, 23309.79
868.2935, 23320.22
868.7756, 23331.30
869.2578, 23339.34
869.7399, 23347.34
870.2220, 23363.89
870.7041, 23389.34
871.1862, 23413.21
871.6683, 23434.48
872.1505, 23453.93
872.6326, 23471.19
873.1147, 23487.45
873.5968, 23505.19
874.0789, 23525.07
874.5610, 23542.34
875.0432, 23557.15
875.5253, 23569.06
876.0074, 23577.35
876.4895, 23583.23
876.9716, 23587.73
877.4537, 23590.84
877.9359, 23591.03
878.4180, 23583.83
878.9001, 23583.59
879.3822, 23607.15
879.8643, 23636.61
880.3464, 23651.86
880.8286, 23654.96
881.3107, 23653.71
881.7928, 23651.84
882.2749, 23656.95
882.7570, 23680.85
883.2391, 23716.60
883.7213, 23739.90
884.2034, 23751.81
884.6855, 23772.65
885.1676, 23808.89
885.6497, 23841.50
886.1318, 23855.81
886.6140, 23855.00
887.0961, 23848.32
887.5782, 23827.93
888.0603, 23821.77
888.5424, 23834.77
889.0245, 23855.20
889.5067, 23887.19
889.9888, 23918.60
890.4709, 23929.52
890.9530, 23919.66
891.4351, 23927.29
891.9172, 23983.81
892.3994, 24029.94
892.8815, 24029.30
893.3636, 24016.35
893.8457, 24026.01
894.3278, 24054.86
894.8099, 24081.32
895.2921, 24096.36
895.7742, 24106.85
896.2563, 24113.32
896.7384, 24122.77
897.2205, 24148.89
897.7026, 24189.48
898.1848, 24235.26
898.6669, 24283.07
899.1490, 24327.82
899.6311, 24364.51
900.1132, 24394.69
900.5953, 24421.19
901.0775, 24442.60
901.5596, 24477.07
902.0417, 24530.29
902.5238, 24585.79
903.0059, 24634.68
903.4880, 24678.39
903.9702, 24719.89
904.4523, 24758.18
904.9344, 24797.05
905.4165, 24837.68
905.8986, 24877.00
906.3807, 24918.75
906.8629, 24955.66
907.3450, 24984.59
907.8271, 25003.44
908.3092, 25004.31
908.7913, 24975.12
909.2734, 24948.82
909.7556, 24942.26
910.2377, 24943.05
910.7198, 24941.74
911.2019, 24938.68
911.6840, 24937.65
912.1661, 24939.33
912.6483, 24938.27
913.1304, 24926.93
913.6125, 24912.79
914.0946, 24906.96
914.5767, 24908.78
915.0588, 24918.58
915.5410, 24935.35
916.0231, 24949.93
916.5052, 24956.39
916.9873, 24958.32
917.4694, 24963.04
917.9515, 24970.71
918.4337, 24975.83
918.9158, 24978.13
919.3979, 24978.07
919.8800, 24973.46
920.3621, 24971.82
920.8442, 24985.47
921.3264, 25011.23
921.8085, 25014.24
922.2906, 24971.70
922.7727, 24943.89
923.2548, 24935.84
923.7369, 24939.92
924.2191, 24965.12
924.7012, 24994.77
925.1833, 24998.78
925.6654, 24972.33
926.1475, 24960.86
926.6296, 24991.75
927.1118, 25024.57
927.5939, 25037.33
928.0760, 25042.48
928.5581, 25053.73
929.0402, 25071.04
929.5223, 25086.49
930.0045, 25095.84
930.4866, 25107.93
930.9687, 25132.88
931.4508, 25164.47
931.9329, 25194.95
932.4150, 25223.11
932.8972, 25246.58
933.3793, 25264.98
933.8614, 25281.68
934.3435, 25299.66
934.8256, 25317.63
935.3077, 25329.77
935.7899, 25337.10
936.2720, 25356.65
936.7541, 25391.16
937.2362, 25426.56
937.7183, 25456.81
938.2004, 25481.74
938.6826, 25501.05
939.1647, 25514.77
939.6468, 25522.70
940.1289, 25522.46
940.6110, 25522.79
941.0931, 25530.87
941.5753, 25532.48
942.0574, 25506.97
942.5395, 25469.42
943.0216, 25462.94
943.5037, 25502.62
943.9858, 25527.75
944.4680, 25525.80
944.9501, 25518.25
945.4322, 25506.61
945.9143, 25498.06
946.3964, 25501.50
946.8785, 25515.10
947.3607, 25527.39
947.8428, 25532.39
948.3249, 25540.08
948.8070, 25559.00
949.2891, 25580.10
949.7712, 25593.73
950.2534, 25602.94
950.7355, 25614.48
951.2176, 25630.13
951.6997, 25647.88
952.1818, 25667.94
952.6639, 25686.80
953.1461, 25697.14
953.6282, 25703.18
954.1103, 25713.27
954.5924, 25729.16
955.0745, 25756.76
955.5566, 25799.63
956.0388, 25836.47
956.5209, 25832.73
957.0030, 25798.48
957.4851, 25783.68
957.9672, 25788.34
958.4493, 25804.60
958.9315, 25832.10
959.4136, 25861.05
959.8957, 25885.43
960.3778, 25904.09
960.8599, 25912.16
961.3420, 25905.36
961.8242, 25910.69
962.3063, 25935.22
962.7884, 25954.57
963.2705, 25962.96
963.7526, 25959.44
964.2347, 25932.05
964.7169, 25888.35
965.1990, 25884.25
965.6811, 25955.44
966.1632, 26011.88
966.6453, 26052.59
967.1274, 26079.55
967.6096, 26086.62
968.0917, 26084.72
968.5738, 26084.46
969.0559, 26087.33
969.5380, 26098.72
970.0201, 26130.00
970.5023, 26156.72
970.9844, 26166.26
971.4665, 26171.54
971.9486, 26181.28
972.4307, 26195.72
972.9128, 26214.76
973.3950, 26238.18
973.8771, 26258.97
974.3592, 26269.30
974.8413, 26279.25
975.3234, 26301.72
975.8055, 26327.40
976.2877, 26339.70
976.7698, 26340.92
977.2519, 26347.40
977.7340, 26366.92
978.2161, 26388.62
978.6982, 26394.32
979.1804, 26397.40
979.6625, 26427.49
980.1446, 26477.46
980.6267, 26524.17
981.1088, 26561.82
981.5909, 26592.15
982.0731, 26615.82
982.5552, 26635.68
983.0373, 26657.59
983.5194, 26680.84
984.0015, 26700.54
984.4836, 26716.64
984.9658, 26729.57
985.4479, 26739.33
985.9300, 26747.38
986.4121, 26754.90
986.8942, 26762.06
987.3763, 26768.00
987.8585, 26770.84
988.3406, 26785.72
988.8227, 26815.76
989.3048, 26850.91
989.7869, 26891.92
990.2690, 26926.49
990.7512, 26937.69
991.2333, 26927.58
991.7154, 26921.73
992.1975, 26916.69
992.6796, 26923.47
993.1617, 26948.96
993.6439, 26977.87
994.1260, 27005.96
994.6081, 27031.97
995.0902, 27054.42
995.5723, 27073.38
996.0544, 27089.18
996.5366, 27100.73
997.0187, 27111.01
997.5008, 27115.95
997.9829, 27124.54
998.4650, 27147.41
998.9471, 27175.64
999.4293, 27192.70
999.9114, 27195.87
1000.393, 27200.43
1000.876, 27205.40
1001.358, 27219.00
1001.840, 27257.70
1002.322, 27295.34
1002.804, 27301.03
1003.286, 27288.34
1003.768, 27292.92
1004.250, 27325.28
1004.733, 27360.88
1005.215, 27388.09
1005.697, 27412.18
1006.179, 27444.33
1006.661, 27471.03
1007.143, 27461.27
1007.625, 27429.23
1008.107, 27428.79
1008.589, 27484.49
1009.072, 27546.41
1009.554, 27573.24
1010.036, 27582.54
1010.518, 27585.59
1011.000, 27590.69
1011.482, 27619.26
1011.964, 27667.96
1012.446, 27705.86
1012.929, 27715.45
1013.411, 27716.32
1013.893, 27733.57
1014.375, 27758.45
1014.857, 27770.43
1015.339, 27774.13
1015.821, 27787.63
1016.303, 27814.53
1016.785, 27847.17
1017.268, 27881.14
1017.750, 27913.64
1018.232, 27943.80
1018.714, 27968.83
1019.196, 27972.13
1019.678, 27956.32
1020.160, 27948.09
1020.642, 27954.76
1021.125, 27967.52
1021.607, 27979.65
1022.089, 27991.70
1022.571, 28004.55
1023.053, 28018.35
1023.535, 28032.12
1024.017, 28045.25
1024.499, 28078.83
1024.981, 28143.40
1025.464, 28201.77
1025.946, 28218.36
1026.428, 28205.87
1026.910, 28204.00
1027.392, 28214.36
1027.874, 28216.74
1028.356, 28204.60
1028.838, 28216.32
1029.321, 28273.12
1029.803, 28334.20
1030.285, 28357.79
1030.767, 28353.72
1031.249, 28366.74
1031.731, 28401.16
1032.213, 28436.62
1032.695, 28475.25
1033.177, 28507.64
1033.660, 28529.86
1034.142, 28544.38
1034.624, 28550.27
1035.106, 28550.72
1035.588, 28565.71
1036.070, 28600.26
1036.552, 28638.24
1037.034, 28687.95
1037.516, 28726.64
1037.999, 28746.17
1038.481, 28749.95
1038.963, 28733.09
1039.445, 28700.88
1039.927, 28694.53
1040.409, 28740.35
1040.891, 28765.59
1041.373, 28752.21
1041.855, 28740.99
1042.338, 28744.92
1042.820, 28759.67
1043.302, 28786.20
1043.784, 28821.85
1044.266, 28846.85
1044.748, 28856.84
1045.230, 28862.64
1045.712, 28856.39
1046.195, 28856.24
1046.677, 28874.28
1047.159, 28898.65
1047.641, 28915.47
1048.123, 28925.94
1048.605, 28942.16
1049.087, 28970.66
1049.569, 28995.34
1050.052, 29013.18
1050.534, 29027.19
1051.016, 29035.79
1051.498, 29043.06
1051.980, 29051.81
1052.462, 29062.88
1052.944, 29078.98
1053.426, 29097.33
1053.908, 29127.27
1054.391, 29194.25
1054.873, 29246.12
1055.355, 29241.99
1055.837, 29218.80
1056.319, 29214.44
1056.801, 29231.92
1057.283, 29265.41
1057.765, 29326.88
1058.248, 29372.41
1058.730, 29374.37
1059.212, 29374.47
1059.694, 29395.75
1060.176, 29428.15
1060.658, 29463.63
1061.140, 29498.44
1061.622, 29523.35
1062.104, 29531.61
1062.587, 29541.91
1063.069, 29556.53
1063.551, 29579.94
1064.033, 29626.16
1064.515, 29674.53
1064.997, 29699.69
1065.479, 29704.54
1065.961, 29708.89
1066.443, 29716.49
1066.926, 29730.29
1067.408, 29752.96
1067.890, 29780.26
1068.372, 29814.88
1068.854, 29848.91
1069.336, 29873.43
1069.818, 29889.26
1070.300, 29901.53
1070.782, 29909.99
1071.265, 29923.66
1071.747, 29951.18
1072.229, 29979.75
1072.711, 30000.24
1073.193, 30018.96
1073.675, 30045.40
1074.157, 30076.03
1074.639, 30097.85
1075.122, 30105.81
1075.604, 30117.00
1076.086, 30151.95
1076.568, 30177.48
1077.050, 30160.02
1077.532, 30134.71
1078.014, 30141.46
1078.496, 30171.41
1078.979, 30191.62
1079.461, 30192.81
1079.943, 30201.36
1080.425, 30234.29
1080.907, 30271.53
1081.389, 30308.57
1081.871, 30338.91
1082.353, 30353.41
1082.835, 30357.39
1083.318, 30359.80
1083.800, 30362.95
1084.282, 30375.86
1084.764, 30414.76
1085.246, 30448.75
1085.728, 30452.51
1086.210, 30453.96
1086.692, 30477.92
1087.175, 30517.43
1087.657, 30560.09
1088.139, 30602.41
1088.621, 30635.66
1089.103, 30652.48
1089.585, 30664.76
1090.067, 30675.85
1090.549, 30685.81
1091.031, 30686.12
1091.514, 30689.50
1091.996, 30721.89
1092.478, 30781.14
1092.960, 30824.94
1093.442, 30831.23
1093.924, 30834.89
1094.406, 30856.46
1094.888, 30871.65
1095.370, 30852.90
1095.853, 30826.26
1096.335, 30826.94
1096.817, 30853.88
1097.299, 30882.00
1097.781, 30909.29
1098.263, 30926.30
1098.745, 30912.16
1099.227, 30908.68
1099.709, 30949.51
1100.192, 31003.55
1100.674, 31038.94
1101.156, 31057.07
1101.638, 31071.07
1102.120, 31079.59
1102.602, 31098.05
1103.084, 31144.89
1103.566, 31182.76
1104.049, 31190.32
1104.531, 31188.10
1105.013, 31187.60
1105.495, 31192.69
1105.977, 31209.67
1106.459, 31239.84
1106.941, 31277.29
1107.423, 31327.67
1107.906, 31376.14
1108.388, 31428.78
1108.870, 31468.26
1109.352, 31476.08
1109.834, 31466.37
1110.316, 31463.94
1110.798, 31470.99
1111.280, 31472.43
1111.762, 31453.79
1112.245, 31450.29
1112.727, 31484.25
1113.209, 31513.93
1113.691, 31507.84
1114.173, 31493.30
1114.655, 31506.96
1115.137, 31546.58
1115.619, 31582.40
1116.102, 31611.07
1116.584, 31641.21
1117.066, 31677.24
1117.548, 31707.71
1118.030, 31729.92
1118.512, 31742.96
1118.994, 31740.43
1119.476, 31728.80
1119.958, 31735.74
1120.441, 31770.87
1120.923, 31792.68
1121.405, 31790.35
1121.887, 31799.12
1122.369, 31832.27
1122.851, 31871.38
1123.333, 31904.76
1123.815, 31933.05
1124.297, 31957.44
1124.780, 31977.80
1125.262, 31997.01
1125.744, 32016.37
1126.226, 32026.02
1126.708, 32015.52
1127.190, 32027.77
1127.672, 32095.02
1128.154, 32175.07
1128.636, 32203.14
1129.119, 32187.23
1129.601, 32196.18
1130.083, 32232.23
1130.565, 32266.19
1131.047, 32294.07
1131.529, 32328.99
1132.011, 32376.96
1132.493, 32425.84
1132.976, 32462.16
1133.458, 32492.55
1133.940, 32541.95
1134.422, 32607.28
1134.904, 32647.28
1135.386, 32660.76
1135.868, 32657.53
1136.350, 32640.97
1136.833, 32635.62
1137.315, 32659.87
1137.797, 32699.27
1138.279, 32733.94
1138.761, 32762.76
1139.243, 32770.93
1139.725, 32768.54
1140.207, 32808.97
1140.689, 32891.75
1141.172, 32952.75
1141.654, 32961.86
1142.136, 32952.05
1142.618, 32952.34
1143.100, 32962.52
1143.582, 32982.00
1144.064, 33011.14
1144.546, 33060.57
1145.029, 33119.51
1145.511, 33148.36
1145.993, 33140.83
1146.475, 33145.75
1146.957, 33203.43
1147.439, 33267.82
1147.921, 33290.16
1148.403, 33296.33
1148.885, 33317.32
1149.368, 33345.40
1149.850, 33362.69
1150.332, 33368.94
1150.814, 33375.83
1151.296, 33387.06
1151.778, 33406.37
1152.260, 33440.70
1152.742, 33478.49
1153.224, 33513.30
1153.707, 33546.88
1154.189, 33586.77
1154.671, 33625.98
1155.153, 33644.34
1155.635, 33637.70
1156.117, 33642.68
1156.599, 33680.11
1157.081, 33717.79
1157.563, 33750.12
1158.046, 33774.87
1158.528, 33779.63
1159.010, 33782.82
1159.492, 33812.87
1159.974, 33866.84
1160.456, 33910.26
1160.938, 33934.54
1161.420, 33959.14
1161.903, 33974.70
1162.385, 34005.13
1162.867, 34073.81
1163.349, 34139.73
1163.831, 34167.96
1164.313, 34171.70
1164.795, 34181.51
1165.277, 34197.02
1165.760, 34221.79
1166.242, 34256.75
1166.724, 34300.66
1167.206, 34359.85
1167.688, 34403.89
1168.170, 34410.38
1168.652, 34415.11
1169.134, 34470.51
1169.616, 34557.98
1170.099, 34578.73
1170.581, 34531.64
1171.063, 34521.48
1171.545, 34554.77
1172.027, 34599.38
1172.509, 34645.85
1172.991, 34693.43
1173.473, 34742.32
1173.956, 34787.70
1174.438, 34820.39
1174.920, 34842.91
1175.402, 34863.70
1175.884, 34881.52
1176.366, 34886.62
1176.848, 34882.30
1177.330, 34892.69
1177.813, 34927.59
1178.295, 34965.53
1178.777, 34984.68
1179.259, 35001.86
1179.741, 35041.13
1180.223, 35089.64
1180.705, 35141.86
1181.187, 35183.02
1181.669, 35175.95
1182.151, 35124.50
1182.634, 35082.33
1183.116, 35073.82
1183.598, 35077.95
1184.080, 35084.00
1184.562, 35096.71
1185.044, 35124.48
1185.526, 35155.95
1186.008, 35176.30
1186.490, 35191.42
1186.973, 35221.61
1187.455, 35271.66
1187.937, 35304.13
1188.419, 35286.62
1188.901, 35288.45
1189.383, 35343.88
1189.865, 35397.30
1190.347, 35414.76
1190.830, 35420.59
1191.312, 35443.71
1191.794, 35478.14
1192.276, 35492.55
1192.758, 35474.93
1193.240, 35479.92
1193.722, 35516.77
1194.204, 35548.43
1194.687, 35564.99
1195.169, 35580.50
1195.651, 35605.34
1196.133, 35630.38
1196.615, 35640.16
1197.097, 35637.40
1197.579, 35634.50
1198.061, 35632.45
1198.543, 35655.89
1199.026, 35704.57
1199.508, 35736.38
1199.990, 35737.89
1200.472, 35738.98
1200.954, 35763.80
1201.436, 35797.78
1201.918, 35820.77
1202.400, 35836.04
1202.883, 35848.44
1203.365, 35859.06
1203.847, 35868.20
1204.329, 35877.42
1204.811, 35890.63
1205.293, 35909.35
1205.775, 35933.59
1206.257, 35971.55
1206.740, 36003.81
1207.222, 36010.21
1207.704, 36010.69
1208.186, 36018.58
1208.668, 36035.79
1209.150, 36065.73
1209.632, 36106.06
1210.114, 36147.80
1210.596, 36194.38
1211.078, 36223.80
1211.561, 36201.14
1212.043, 36203.10
1212.525, 36283.96
1213.007, 36362.47
1213.489, 36382.40
1213.971, 36370.45
1214.453, 36360.90
1214.935, 36354.99
1215.417, 36383.25
1215.900, 36458.05
1216.382, 36520.68
1216.864, 36569.64
1217.346, 36595.48
1217.828, 36592.05
1218.310, 36580.25
1218.792, 36574.00
1219.274, 36577.95
1219.757, 36608.20
1220.239, 36654.95
1220.721, 36660.83
1221.203, 36638.09
1221.685, 36648.90
1222.167, 36695.82
1222.649, 36749.89
1223.131, 36798.63
1223.614, 36826.05
1224.096, 36812.39
1224.578, 36796.00
1225.060, 36821.14
1225.542, 36865.14
1226.024, 36904.86
1226.506, 36941.75
1226.988, 36985.68
1227.470, 37030.15
1227.953, 37051.56
1228.435, 37042.13
1228.917, 37038.12
1229.399, 37060.75
1229.881, 37079.94
1230.363, 37079.96
1230.845, 37080.38
1231.327, 37087.49
1231.810, 37104.93
1232.292, 37140.90
1232.774, 37190.61
1233.256, 37238.04
1233.738, 37290.27
1234.220, 37304.48
1234.702, 37259.95
1235.184, 37248.83
1235.667, 37298.75
1236.149, 37340.09
1236.631, 37335.34
1237.113, 37312.20
1237.595, 37300.31
1238.077, 37302.08
1238.559, 37333.16
1239.041, 37384.62
1239.523, 37407.76
1240.005, 37405.95
1240.488, 37400.77
1240.970, 37400.05
1241.452, 37415.94
1241.934, 37454.70
1242.416, 37501.38
1242.898, 37553.41
1243.380, 37593.75
1243.862, 37587.09
1244.344, 37575.06
1244.827, 37609.22
1245.309, 37670.48
1245.791, 37724.79
1246.273, 37766.95
1246.755, 37804.41
1247.237, 37840.74
1247.719, 37866.27
1248.201, 37864.67
1248.684, 37872.12
1249.166, 37917.11
1249.648, 37952.42
1250.130, 37934.31
1250.612, 37909.94
1251.094, 37950.96
1251.576, 38042.45
1252.058, 38082.48
1252.541, 38062.13
1253.023, 38053.91
1253.505, 38059.54
1253.987, 38081.66
1254.469, 38121.09
1254.951, 38165.80
1255.433, 38208.92
1255.915, 38253.11
1256.397, 38304.88
1256.880, 38355.55
1257.362, 38382.93
1257.844, 38399.13
1258.326, 38425.30
1258.808, 38462.13
1259.290, 38514.11
1259.772, 38574.44
1260.254, 38613.34
1260.737, 38615.21
1261.219, 38623.32
1261.701, 38672.80
1262.183, 38717.69
1262.665, 38717.75
1263.147, 38724.38
1263.629, 38787.79
1264.111, 38872.72
1264.594, 38928.80
1265.076, 38958.37
1265.558, 38986.16
1266.040, 39012.36
1266.522, 39034.77
1267.004, 39051.54
1267.486, 39070.36
1267.968, 39092.39
1268.450, 39119.19
1268.932, 39152.51
1269.415, 39184.64
1269.897, 39206.41
1270.379, 39222.62
1270.861, 39242.95
1271.343, 39268.32
1271.825, 39300.46
1272.307, 39340.17
1272.789, 39398.45
1273.271, 39466.96
1273.754, 39505.12
1274.236, 39498.80
1274.718, 39491.58
1275.200, 39505.62
1275.682, 39537.88
1276.164, 39589.43
1276.646, 39655.20
1277.128, 39758.53
1277.611, 39853.30
1278.093, 39874.31
1278.575, 39843.43
1279.057, 39839.54
1279.539, 39871.34
1280.021, 39894.78
1280.503, 39889.59
1280.985, 39913.87
1281.468, 39993.92
1281.950, 40074.27
1282.432, 40134.96
1282.914, 40179.39
1283.396, 40209.99
1283.878, 40232.96
1284.360, 40249.58
1284.842, 40252.74
1285.324, 40229.04
##END=



