##NAMES=Kaersutite
##RRUFFID=R070128
##IDEAL CHEMISTRY=NaCa_2_(Mg_3_AlTi^4+^)(Si_6_Al_2_)O_22_O_2_
##LOCALITY=Mt Etna, Etna Volcanic Complex, Catania Province, Sicily,  Italy
##OWNER=RRUFF
##SOURCE=Michael Scott
##DESCRIPTION=Black cleavage fragment with dark-red internal highlites
##STATUS=The identification of this mineral is confirmed by single-crystal X-ray diffraction and chemical analysis.
##URL=rruff.info/R070128
##MEASURED CHEMISTRY=(Na_0.65_K_0.15_[box]_0.20_)_Σ=1_(Ca_1.82_Na_0.18_)_Σ=2_(Mg_2.64_Fe^2+^_1.36_)_Σ=4_(Ti_0.64_Fe^2+^_0.15_Al_0.10_Fe^3+^_0.09_Mn_0.02_)_Σ=1_(Si_5.91_Al_2.09_)_Σ=8_O_22_O(OH); OH assumed by stoichiometry
137.1645, 1745.181
137.6466, 1772.240
138.1287, 1802.191
138.6109, 1835.571
139.0930, 1866.329
139.5751, 1897.158
140.0572, 1922.429
140.5393, 1928.695
141.0214, 1905.581
141.5036, 1886.506
141.9857, 1886.897
142.4678, 1917.635
142.9499, 1938.871
143.4320, 1947.703
143.9141, 1947.215
144.3963, 1946.243
144.8784, 1943.212
145.3605, 1941.535
145.8426, 1942.548
146.3247, 1942.447
146.8068, 1951.181
147.2890, 1973.748
147.7711, 2008.755
148.2532, 2036.986
148.7353, 2051.502
149.2174, 2063.720
149.6995, 2081.387
150.1817, 2116.400
150.6638, 2144.636
151.1459, 2161.440
151.6280, 2165.590
152.1101, 2169.609
152.5922, 2171.186
153.0744, 2174.028
153.5565, 2181.906
154.0386, 2197.175
154.5207, 2215.786
155.0028, 2240.416
155.4849, 2276.942
155.9671, 2298.418
156.4492, 2288.356
156.9313, 2261.918
157.4134, 2243.014
157.8955, 2241.411
158.3777, 2245.496
158.8598, 2250.123
159.3419, 2254.359
159.8240, 2259.445
160.3061, 2267.434
160.7882, 2276.791
161.2704, 2283.656
161.7525, 2282.444
162.2346, 2280.585
162.7167, 2283.484
163.1988, 2296.544
163.6809, 2309.352
164.1631, 2318.749
164.6452, 2324.410
165.1273, 2324.778
165.6094, 2313.112
166.0915, 2298.008
166.5736, 2287.923
167.0558, 2286.866
167.5379, 2290.781
168.0200, 2294.896
168.5021, 2299.688
168.9842, 2313.142
169.4663, 2354.243
169.9485, 2405.034
170.4306, 2439.499
170.9127, 2429.841
171.3948, 2408.194
171.8769, 2408.740
172.3590, 2434.323
172.8412, 2457.813
173.3233, 2451.109
173.8054, 2424.922
174.2875, 2402.452
174.7696, 2395.936
175.2517, 2399.428
175.7339, 2404.244
176.2160, 2408.960
176.6981, 2418.379
177.1802, 2444.819
177.6623, 2482.883
178.1444, 2511.919
178.6266, 2512.866
179.1087, 2497.660
179.5908, 2490.861
180.0729, 2497.949
180.5550, 2508.972
181.0371, 2511.707
181.5193, 2506.552
182.0014, 2496.353
182.4835, 2473.925
182.9656, 2446.818
183.4477, 2439.146
183.9298, 2462.118
184.4120, 2498.767
184.8941, 2518.051
185.3762, 2520.330
185.8583, 2518.264
186.3404, 2522.225
186.8225, 2530.869
187.3047, 2537.468
187.7868, 2540.508
188.2689, 2540.342
188.7510, 2538.718
189.2331, 2535.945
189.7152, 2528.807
190.1974, 2508.268
190.6795, 2476.219
191.1616, 2455.753
191.6437, 2457.245
192.1258, 2476.073
192.6080, 2493.657
193.0901, 2511.369
193.5722, 2523.120
194.0543, 2519.190
194.5364, 2499.390
195.0185, 2478.690
195.5007, 2459.145
195.9828, 2441.664
196.4649, 2439.688
196.9470, 2456.680
197.4291, 2480.376
197.9112, 2492.597
198.3934, 2491.953
198.8755, 2491.780
199.3576, 2500.819
199.8397, 2519.821
200.3218, 2522.857
200.8039, 2504.015
201.2861, 2478.079
201.7682, 2473.521
202.2503, 2494.755
202.7324, 2517.067
203.2145, 2528.961
203.6966, 2529.292
204.1788, 2528.478
204.6609, 2527.264
205.1430, 2524.598
205.6251, 2515.301
206.1072, 2495.038
206.5893, 2481.718
207.0715, 2489.995
207.5536, 2526.975
208.0357, 2546.921
208.5178, 2541.521
208.9999, 2520.068
209.4820, 2510.690
209.9642, 2516.821
210.4463, 2526.915
210.9284, 2534.245
211.4105, 2538.027
211.8926, 2541.983
212.3747, 2547.418
212.8569, 2553.163
213.3390, 2552.906
213.8211, 2542.370
214.3032, 2533.905
214.7853, 2538.137
215.2674, 2561.446
215.7496, 2577.387
216.2317, 2579.502
216.7138, 2570.621
217.1959, 2571.812
217.6780, 2588.722
218.1601, 2607.040
218.6423, 2614.075
219.1244, 2603.465
219.6065, 2598.052
220.0886, 2603.122
220.5707, 2617.890
221.0528, 2626.947
221.5350, 2628.635
222.0171, 2627.008
222.4992, 2625.482
222.9813, 2624.457
223.4634, 2622.213
223.9455, 2615.426
224.4277, 2604.021
224.9098, 2608.144
225.3919, 2635.208
225.8740, 2669.540
226.3561, 2696.556
226.8382, 2713.585
227.3204, 2728.342
227.8025, 2743.775
228.2846, 2760.481
228.7667, 2765.667
229.2488, 2751.665
229.7310, 2733.371
230.2131, 2727.434
230.6952, 2740.520
231.1773, 2753.618
231.6594, 2761.704
232.1415, 2763.614
232.6237, 2771.253
233.1058, 2789.182
233.5879, 2809.033
234.0700, 2820.500
234.5521, 2820.260
235.0342, 2817.286
235.5164, 2811.083
235.9985, 2799.048
236.4806, 2801.464
236.9627, 2825.292
237.4448, 2858.032
237.9269, 2885.214
238.4091, 2911.628
238.8912, 2923.452
239.3733, 2911.284
239.8554, 2866.223
240.3375, 2842.880
240.8196, 2850.407
241.3018, 2873.489
241.7839, 2890.841
242.2660, 2901.736
242.7481, 2908.143
243.2302, 2910.760
243.7123, 2909.901
244.1945, 2902.567
244.6766, 2881.207
245.1587, 2858.288
245.6408, 2855.273
246.1229, 2887.539
246.6050, 2913.097
247.0872, 2915.686
247.5693, 2886.587
248.0514, 2870.806
248.5335, 2876.482
249.0156, 2890.548
249.4977, 2889.795
249.9799, 2866.092
250.4620, 2842.272
250.9441, 2825.362
251.4262, 2816.094
251.9083, 2811.720
252.3904, 2816.064
252.8726, 2822.883
253.3547, 2820.893
253.8368, 2806.546
254.3189, 2789.980
254.8010, 2774.584
255.2831, 2761.041
255.7653, 2745.202
256.2474, 2723.868
256.7295, 2702.536
257.2116, 2692.606
257.6937, 2699.562
258.1758, 2706.593
258.6580, 2707.645
259.1401, 2701.510
259.6222, 2694.787
260.1043, 2688.485
260.5864, 2680.861
261.0685, 2667.066
261.5507, 2641.787
262.0328, 2622.690
262.5149, 2617.765
262.9970, 2630.653
263.4791, 2641.035
263.9612, 2649.753
264.4434, 2655.321
264.9255, 2652.920
265.4076, 2637.413
265.8897, 2627.915
266.3718, 2635.810
266.8539, 2666.607
267.3361, 2679.072
267.8182, 2667.091
268.3003, 2643.164
268.7824, 2628.164
269.2645, 2624.400
269.7466, 2622.542
270.2288, 2617.157
270.7109, 2606.719
271.1930, 2608.695
271.6751, 2627.494
272.1572, 2652.874
272.6393, 2668.820
273.1215, 2674.434
273.6036, 2674.332
274.0857, 2667.248
274.5678, 2652.340
275.0499, 2647.411
275.5320, 2654.845
276.0142, 2668.145
276.4963, 2677.584
276.9784, 2682.637
277.4605, 2687.214
277.9426, 2692.493
278.4247, 2698.458
278.9069, 2707.191
279.3890, 2720.821
279.8711, 2732.371
280.3532, 2727.684
280.8354, 2704.928
281.3175, 2688.935
281.7996, 2693.182
282.2817, 2715.175
282.7638, 2729.096
283.2459, 2734.440
283.7281, 2733.277
284.2102, 2723.760
284.6923, 2705.895
285.1744, 2696.325
285.6565, 2705.465
286.1386, 2729.289
286.6208, 2747.823
287.1029, 2761.498
287.5850, 2768.026
288.0671, 2757.979
288.5492, 2733.651
289.0313, 2720.687
289.5135, 2736.970
289.9956, 2771.530
290.4777, 2785.280
290.9598, 2776.793
291.4419, 2760.629
291.9240, 2748.772
292.4062, 2741.532
292.8883, 2741.128
293.3704, 2753.522
293.8525, 2771.456
294.3346, 2778.021
294.8167, 2772.893
295.2989, 2762.575
295.7810, 2749.616
296.2631, 2735.879
296.7452, 2727.153
297.2273, 2728.591
297.7094, 2734.215
298.1916, 2732.822
298.6737, 2724.720
299.1558, 2717.903
299.6379, 2721.083
300.1200, 2730.448
300.6021, 2737.570
301.0843, 2737.147
301.5664, 2735.766
302.0485, 2743.435
302.5306, 2759.194
303.0127, 2773.955
303.4948, 2784.020
303.9770, 2788.262
304.4591, 2784.090
304.9412, 2764.904
305.4233, 2744.344
305.9054, 2736.733
306.3875, 2740.009
306.8697, 2744.041
307.3518, 2741.244
307.8339, 2736.096
308.3160, 2734.070
308.7981, 2738.359
309.2802, 2743.039
309.7624, 2741.098
310.2445, 2735.207
310.7266, 2734.106
311.2087, 2749.181
311.6908, 2767.461
312.1729, 2776.854
312.6551, 2770.659
313.1372, 2764.403
313.6193, 2768.138
314.1014, 2778.353
314.5835, 2786.755
315.0656, 2791.365
315.5478, 2792.125
316.0299, 2786.501
316.5120, 2768.036
316.9941, 2759.339
317.4762, 2778.293
317.9583, 2811.735
318.4405, 2836.848
318.9226, 2839.919
319.4047, 2838.052
319.8868, 2840.007
320.3689, 2849.769
320.8510, 2852.934
321.3332, 2836.874
321.8153, 2814.424
322.2974, 2803.531
322.7795, 2818.915
323.2616, 2835.850
323.7437, 2847.110
324.2259, 2851.560
324.7080, 2853.661
325.1901, 2851.819
325.6722, 2848.601
326.1543, 2846.839
326.6364, 2859.404
327.1186, 2860.089
327.6007, 2834.544
328.0828, 2777.633
328.5649, 2750.292
329.0470, 2773.382
329.5291, 2812.704
330.0113, 2840.122
330.4934, 2850.764
330.9755, 2857.003
331.4576, 2859.409
331.9397, 2858.169
332.4218, 2856.417
332.9040, 2851.802
333.3861, 2849.414
333.8682, 2853.917
334.3503, 2870.295
334.8324, 2880.854
335.3145, 2880.176
335.7967, 2872.368
336.2788, 2878.970
336.7609, 2908.315
337.2430, 2934.156
337.7251, 2937.087
338.2072, 2911.879
338.6894, 2892.502
339.1715, 2880.934
339.6536, 2876.732
340.1357, 2881.228
340.6178, 2896.455
341.0999, 2910.223
341.5821, 2916.228
342.0642, 2914.440
342.5463, 2908.164
343.0284, 2895.563
343.5105, 2882.886
343.9926, 2882.597
344.4748, 2894.412
344.9569, 2905.514
345.4390, 2908.478
345.9211, 2905.397
346.4032, 2904.959
346.8853, 2907.237
347.3675, 2912.064
347.8496, 2922.328
348.3317, 2935.974
348.8138, 2944.440
349.2959, 2940.586
349.7780, 2930.729
350.2602, 2926.705
350.7423, 2928.580
351.2244, 2931.057
351.7065, 2930.955
352.1887, 2928.049
352.6708, 2921.442
353.1529, 2906.700
353.6350, 2892.140
354.1171, 2884.640
354.5992, 2884.237
355.0814, 2891.654
355.5635, 2918.292
356.0456, 2948.768
356.5277, 2965.403
357.0098, 2960.966
357.4919, 2946.511
357.9741, 2919.467
358.4562, 2886.605
358.9383, 2866.434
359.4204, 2878.038
359.9025, 2899.121
360.3846, 2915.813
360.8668, 2927.287
361.3489, 2930.465
361.8310, 2917.131
362.3131, 2895.541
362.7952, 2879.878
363.2773, 2883.052
363.7595, 2885.512
364.2416, 2877.689
364.7237, 2855.426
365.2058, 2838.758
365.6879, 2830.341
366.1700, 2829.483
366.6522, 2835.539
367.1343, 2865.392
367.6164, 2884.457
368.0985, 2880.385
368.5806, 2851.713
369.0627, 2835.844
369.5449, 2842.650
370.0270, 2854.755
370.5091, 2859.426
370.9912, 2851.012
371.4733, 2845.080
371.9554, 2844.889
372.4376, 2848.794
372.9197, 2846.996
373.4018, 2835.206
373.8839, 2825.142
374.3660, 2825.935
374.8481, 2842.712
375.3303, 2847.969
375.8124, 2837.002
376.2945, 2816.760
376.7766, 2801.109
377.2587, 2790.138
377.7408, 2783.862
378.2230, 2786.342
378.7051, 2796.937
379.1872, 2792.696
379.6693, 2769.420
380.1514, 2744.144
380.6335, 2744.650
381.1157, 2768.436
381.5978, 2785.442
382.0799, 2775.646
382.5620, 2753.433
383.0441, 2763.736
383.5262, 2807.625
384.0084, 2845.708
384.4905, 2832.145
384.9726, 2785.354
385.4547, 2752.532
385.9368, 2753.839
386.4189, 2764.921
386.9011, 2754.212
387.3832, 2725.974
387.8653, 2702.000
388.3474, 2698.955
388.8295, 2706.391
389.3116, 2713.774
389.7938, 2720.077
390.2759, 2723.421
390.7580, 2721.281
391.2401, 2715.314
391.7222, 2709.026
392.2043, 2708.919
392.6865, 2705.126
393.1686, 2687.184
393.6507, 2649.830
394.1328, 2625.151
394.6149, 2634.542
395.0970, 2657.971
395.5792, 2672.992
396.0613, 2665.479
396.5434, 2658.772
397.0255, 2659.776
397.5076, 2668.774
397.9897, 2674.500
398.4719, 2679.124
398.9540, 2678.232
399.4361, 2668.624
399.9182, 2639.511
400.4003, 2617.632
400.8824, 2605.191
401.3646, 2601.016
401.8467, 2602.098
402.3288, 2612.604
402.8109, 2621.239
403.2930, 2622.300
403.7751, 2613.661
404.2573, 2606.290
404.7394, 2600.899
405.2215, 2595.841
405.7036, 2586.623
406.1857, 2571.833
406.6678, 2563.610
407.1500, 2570.306
407.6321, 2588.296
408.1142, 2590.708
408.5963, 2574.979
409.0784, 2559.497
409.5605, 2566.495
410.0427, 2591.578
410.5248, 2610.929
411.0069, 2619.319
411.4890, 2618.765
411.9711, 2608.234
412.4532, 2589.384
412.9354, 2573.779
413.4175, 2575.395
413.8996, 2583.584
414.3817, 2580.213
414.8638, 2558.743
415.3459, 2539.260
415.8281, 2542.282
416.3102, 2559.724
416.7923, 2575.613
417.2744, 2581.610
417.7565, 2583.861
418.2386, 2585.323
418.7208, 2586.131
419.2029, 2588.145
419.6850, 2597.619
420.1671, 2606.229
420.6492, 2606.196
421.1313, 2588.061
421.6135, 2568.970
422.0956, 2550.307
422.5777, 2533.051
423.0598, 2521.755
423.5420, 2514.520
424.0241, 2515.539
424.5062, 2528.469
424.9883, 2572.278
425.4704, 2593.420
425.9525, 2579.828
426.4347, 2548.711
426.9168, 2531.411
427.3989, 2533.295
427.8810, 2538.577
428.3631, 2542.821
428.8452, 2545.945
429.3274, 2550.208
429.8095, 2556.310
430.2916, 2561.923
430.7737, 2565.276
431.2558, 2566.472
431.7379, 2563.287
432.2201, 2553.877
432.7022, 2540.898
433.1843, 2530.925
433.6664, 2524.037
434.1485, 2519.138
434.6306, 2516.862
435.1128, 2516.054
435.5949, 2513.475
436.0770, 2508.697
436.5591, 2502.451
437.0412, 2493.627
437.5233, 2483.892
438.0055, 2477.584
438.4876, 2481.922
438.9697, 2487.400
439.4518, 2481.601
439.9339, 2464.838
440.4160, 2453.518
440.8982, 2465.573
441.3803, 2484.159
441.8624, 2492.329
442.3445, 2471.289
442.8266, 2456.579
443.3087, 2470.327
443.7909, 2502.000
444.2730, 2517.804
444.7551, 2497.808
445.2372, 2470.475
445.7193, 2446.075
446.2014, 2421.867
446.6836, 2409.572
447.1657, 2415.448
447.6478, 2430.081
448.1299, 2442.887
448.6120, 2455.986
449.0941, 2463.167
449.5763, 2461.050
450.0584, 2450.614
450.5405, 2443.298
451.0226, 2436.478
451.5047, 2438.529
451.9868, 2463.251
452.4690, 2514.708
452.9511, 2538.622
453.4332, 2522.446
453.9153, 2488.684
454.3974, 2480.746
454.8795, 2497.547
455.3617, 2516.553
455.8438, 2529.399
456.3259, 2536.087
456.8080, 2533.970
457.2901, 2522.521
457.7722, 2512.779
458.2544, 2515.583
458.7365, 2527.173
459.2186, 2541.589
459.7007, 2564.373
460.1828, 2580.600
460.6649, 2567.024
461.1471, 2533.534
461.6292, 2515.387
462.1113, 2546.689
462.5934, 2587.613
463.0755, 2609.010
463.5576, 2599.931
464.0398, 2596.388
464.5219, 2619.593
465.0040, 2651.048
465.4861, 2666.978
465.9682, 2646.710
466.4503, 2628.840
466.9325, 2621.295
467.4146, 2623.780
467.8967, 2628.034
468.3788, 2638.208
468.8609, 2645.478
469.3430, 2641.900
469.8252, 2618.319
470.3073, 2612.748
470.7894, 2633.442
471.2715, 2666.489
471.7536, 2682.937
472.2357, 2680.090
472.7179, 2679.461
473.2000, 2690.685
473.6821, 2711.560
474.1642, 2732.538
474.6463, 2754.216
475.1284, 2769.741
475.6106, 2770.887
476.0927, 2760.496
476.5748, 2745.416
477.0569, 2722.563
477.5390, 2703.840
478.0211, 2707.267
478.5033, 2727.310
478.9854, 2746.322
479.4675, 2757.775
479.9496, 2761.895
480.4317, 2753.301
480.9138, 2729.107
481.3960, 2716.938
481.8781, 2739.124
482.3602, 2775.645
482.8423, 2805.761
483.3244, 2827.420
483.8065, 2839.516
484.2887, 2833.214
484.7708, 2813.794
485.2529, 2809.886
485.7350, 2838.796
486.2171, 2866.202
486.6992, 2878.535
487.1814, 2872.690
487.6635, 2859.973
488.1456, 2832.512
488.6277, 2806.683
489.1098, 2809.467
489.5919, 2849.189
490.0741, 2872.882
490.5562, 2860.234
491.0383, 2825.144
491.5204, 2822.814
492.0026, 2854.852
492.4847, 2889.349
492.9668, 2903.045
493.4489, 2901.381
493.9310, 2899.223
494.4131, 2897.667
494.8953, 2898.183
495.3774, 2901.750
495.8595, 2908.644
496.3416, 2919.222
496.8237, 2935.865
497.3058, 2954.647
497.7880, 2975.404
498.2701, 2997.068
498.7522, 3013.336
499.2343, 3013.484
499.7164, 3012.032
500.1985, 3019.234
500.6807, 3040.418
501.1628, 3063.063
501.6449, 3089.422
502.1270, 3115.153
502.6091, 3133.245
503.0912, 3141.303
503.5734, 3144.960
504.0555, 3144.983
504.5376, 3141.448
505.0197, 3133.548
505.5018, 3116.485
505.9839, 3104.433
506.4661, 3108.612
506.9482, 3130.398
507.4303, 3156.550
507.9124, 3189.672
508.3945, 3219.328
508.8766, 3221.217
509.3588, 3199.080
509.8409, 3185.287
510.3230, 3203.378
510.8051, 3234.135
511.2872, 3238.087
511.7693, 3216.907
512.2515, 3196.181
512.7336, 3197.546
513.2157, 3208.389
513.6978, 3212.101
514.1799, 3199.579
514.6620, 3194.037
515.1442, 3220.549
515.6263, 3260.702
516.1084, 3282.917
516.5905, 3263.443
517.0726, 3238.852
517.5547, 3216.100
518.0369, 3195.202
518.5190, 3192.809
519.0011, 3232.691
519.4832, 3269.989
519.9653, 3276.175
520.4474, 3227.513
520.9296, 3205.840
521.4117, 3221.633
521.8938, 3255.908
522.3759, 3274.783
522.8580, 3275.637
523.3401, 3278.805
523.8223, 3293.997
524.3044, 3315.977
524.7865, 3321.870
525.2686, 3311.393
525.7507, 3305.225
526.2328, 3327.954
526.7150, 3365.412
527.1971, 3386.779
527.6792, 3384.440
528.1613, 3377.152
528.6434, 3382.203
529.1255, 3393.791
529.6077, 3401.841
530.0898, 3392.778
530.5719, 3387.711
531.0540, 3402.610
531.5361, 3434.501
532.0182, 3458.184
532.5004, 3463.830
532.9825, 3461.901
533.4646, 3456.698
533.9467, 3443.729
534.4288, 3437.576
534.9109, 3438.044
535.3931, 3445.442
535.8752, 3462.601
536.3573, 3496.007
536.8394, 3520.146
537.3215, 3529.092
537.8036, 3525.148
538.2858, 3513.964
538.7679, 3494.012
539.2500, 3480.608
539.7321, 3490.966
540.2142, 3516.603
540.6964, 3524.430
541.1785, 3510.690
541.6606, 3494.765
542.1427, 3495.604
542.6248, 3508.341
543.1069, 3524.965
543.5891, 3552.323
544.0712, 3571.071
544.5533, 3555.091
545.0354, 3517.701
545.5175, 3499.333
545.9996, 3534.776
546.4818, 3576.525
546.9639, 3600.860
547.4460, 3602.033
547.9281, 3606.008
548.4102, 3616.719
548.8923, 3629.820
549.3745, 3642.426
549.8566, 3655.930
550.3387, 3666.056
550.8208, 3673.173
551.3029, 3676.198
551.7850, 3670.284
552.2672, 3653.804
552.7493, 3640.497
553.2314, 3635.810
553.7135, 3638.812
554.1956, 3648.601
554.6777, 3665.330
555.1599, 3679.688
555.6420, 3676.260
556.1241, 3666.718
556.6062, 3673.563
557.0883, 3704.838
557.5704, 3739.946
558.0526, 3766.135
558.5347, 3785.102
559.0168, 3799.763
559.4989, 3812.301
559.9810, 3819.236
560.4631, 3810.786
560.9453, 3790.298
561.4274, 3789.681
561.9095, 3840.813
562.3916, 3888.681
562.8737, 3908.286
563.3558, 3888.420
563.8380, 3878.645
564.3201, 3883.574
564.8022, 3892.533
565.2843, 3888.439
565.7664, 3867.906
566.2485, 3868.963
566.7307, 3907.878
567.2128, 3962.278
567.6949, 3981.655
568.1770, 3969.396
568.6591, 3952.671
569.1412, 3941.289
569.6234, 3936.829
570.1055, 3944.225
570.5876, 3963.468
571.0697, 3982.995
571.5518, 3999.082
572.0339, 4009.782
572.5161, 4011.652
572.9982, 3995.706
573.4803, 3986.097
573.9624, 3991.294
574.4445, 4007.169
574.9266, 4026.694
575.4088, 4063.810
575.8909, 4086.094
576.3730, 4083.412
576.8551, 4058.669
577.3372, 4034.307
577.8193, 4006.864
578.3015, 3988.725
578.7836, 3989.140
579.2657, 4007.936
579.7478, 4031.702
580.2299, 4062.126
580.7120, 4087.552
581.1942, 4089.857
581.6763, 4075.324
582.1584, 4063.004
582.6405, 4059.168
583.1226, 4058.294
583.6047, 4057.590
584.0869, 4055.781
584.5690, 4049.491
585.0511, 4030.235
585.5332, 4011.944
586.0153, 4003.706
586.4974, 4006.235
586.9796, 4006.784
587.4617, 4005.800
587.9438, 3999.889
588.4259, 3986.096
588.9080, 3955.490
589.3901, 3936.545
589.8723, 3934.629
590.3544, 3939.003
590.8365, 3933.587
591.3186, 3917.143
591.8007, 3901.818
592.2828, 3891.459
592.7650, 3883.421
593.2471, 3869.095
593.7292, 3849.446
594.2113, 3834.682
594.6934, 3837.768
595.1755, 3845.987
595.6577, 3842.396
596.1398, 3826.048
596.6219, 3803.678
597.1040, 3772.746
597.5862, 3741.359
598.0683, 3717.002
598.5504, 3706.235
599.0325, 3694.538
599.5146, 3675.102
599.9968, 3653.963
600.4789, 3641.830
600.9610, 3651.312
601.4431, 3649.146
601.9252, 3622.271
602.4073, 3578.376
602.8895, 3557.695
603.3716, 3566.104
603.8537, 3571.663
604.3358, 3550.652
604.8179, 3509.524
605.3000, 3484.345
605.7822, 3476.698
606.2643, 3474.229
606.7464, 3463.091
607.2285, 3449.564
607.7106, 3447.094
608.1927, 3467.881
608.6749, 3479.518
609.1570, 3447.697
609.6391, 3394.007
610.1212, 3356.573
610.6033, 3360.561
611.0854, 3367.463
611.5676, 3367.628
612.0497, 3361.153
612.5318, 3352.098
613.0139, 3341.221
613.4960, 3326.611
613.9781, 3307.161
614.4603, 3282.584
614.9424, 3256.440
615.4245, 3227.999
615.9066, 3201.032
616.3887, 3176.891
616.8708, 3156.650
617.3530, 3148.244
617.8351, 3157.666
618.3172, 3165.866
618.7993, 3142.947
619.2814, 3102.641
619.7635, 3074.403
620.2457, 3076.901
620.7278, 3089.497
621.2099, 3109.787
621.6920, 3133.219
622.1741, 3139.127
622.6563, 3105.163
623.1384, 3067.852
623.6205, 3040.575
624.1026, 3023.401
624.5847, 3017.987
625.0668, 3032.510
625.5490, 3046.656
626.0311, 3040.569
626.5132, 3012.123
626.9953, 2995.112
627.4774, 2995.503
627.9595, 3000.126
628.4417, 2985.838
628.9238, 2958.369
629.4059, 2941.221
629.8880, 2949.637
630.3701, 2963.533
630.8522, 2963.490
631.3344, 2951.883
631.8165, 2936.191
632.2986, 2910.898
632.7807, 2889.986
633.2628, 2882.739
633.7449, 2890.475
634.2271, 2897.593
634.7092, 2909.746
635.1913, 2914.281
635.6734, 2901.252
636.1555, 2859.989
636.6376, 2836.125
637.1198, 2833.510
637.6019, 2841.302
638.0840, 2847.366
638.5661, 2851.835
639.0482, 2856.284
639.5303, 2860.167
640.0125, 2865.817
640.4946, 2880.664
640.9767, 2900.539
641.4588, 2913.625
641.9409, 2910.349
642.4230, 2901.132
642.9052, 2888.823
643.3873, 2874.988
643.8694, 2870.235
644.3515, 2888.692
644.8336, 2907.929
645.3157, 2914.787
645.7979, 2905.102
646.2800, 2903.843
646.7621, 2915.820
647.2442, 2929.669
647.7263, 2934.766
648.2084, 2930.216
648.6906, 2927.579
649.1727, 2928.833
649.6548, 2930.135
650.1369, 2922.882
650.6190, 2910.407
651.1011, 2904.562
651.5833, 2913.199
652.0654, 2926.013
652.5475, 2933.673
653.0296, 2937.483
653.5117, 2941.165
653.9938, 2945.441
654.4760, 2950.706
654.9581, 2956.610
655.4402, 2963.120
655.9223, 2973.006
656.4044, 2990.978
656.8865, 3006.873
657.3687, 3016.120
657.8508, 3018.789
658.3329, 3012.136
658.8150, 2992.922
659.2971, 2974.057
659.7792, 2971.071
660.2614, 2981.247
660.7435, 2991.255
661.2256, 2999.518
661.7077, 3004.546
662.1898, 3000.580
662.6719, 2992.623
663.1541, 2990.294
663.6362, 3005.396
664.1183, 3019.170
664.6004, 3018.938
665.0825, 3009.509
665.5646, 3008.006
666.0468, 3027.064
666.5289, 3043.896
667.0110, 3051.721
667.4931, 3050.773
667.9752, 3052.436
668.4573, 3058.373
668.9395, 3061.719
669.4216, 3057.297
669.9037, 3045.956
670.3858, 3032.083
670.8679, 3015.574
671.3500, 2999.492
671.8322, 2990.117
672.3143, 2982.340
672.7964, 2966.151
673.2785, 2933.124
673.7606, 2906.726
674.2427, 2906.302
674.7249, 2918.394
675.2070, 2924.301
675.6891, 2917.148
676.1712, 2906.652
676.6533, 2888.965
677.1354, 2869.880
677.6176, 2869.194
678.0997, 2895.923
678.5818, 2909.509
679.0639, 2887.184
679.5460, 2841.743
680.0281, 2830.318
680.5103, 2851.251
680.9924, 2869.209
681.4745, 2849.294
681.9566, 2816.907
682.4387, 2811.897
682.9208, 2837.505
683.4030, 2856.290
683.8851, 2840.429
684.3672, 2813.675
684.8493, 2793.973
685.3314, 2783.984
685.8135, 2781.210
686.2957, 2791.040
686.7778, 2803.385
687.2599, 2807.825
687.7420, 2803.550
688.2241, 2793.460
688.7062, 2775.341
689.1884, 2755.928
689.6705, 2750.764
690.1526, 2757.267
690.6347, 2759.390
691.1168, 2745.710
691.5989, 2730.114
692.0811, 2732.775
692.5632, 2747.622
693.0453, 2755.122
693.5274, 2735.500
694.0095, 2716.354
694.4916, 2715.605
694.9738, 2734.098
695.4559, 2738.041
695.9380, 2714.299
696.4201, 2691.316
696.9022, 2684.086
697.3843, 2694.853
697.8665, 2697.789
698.3486, 2692.026
698.8307, 2682.014
699.3128, 2665.829
699.7949, 2648.584
700.2770, 2651.885
700.7592, 2683.265
701.2413, 2709.138
701.7234, 2689.603
702.2055, 2650.380
702.6876, 2625.198
703.1697, 2631.671
703.6519, 2643.132
704.1340, 2658.399
704.6161, 2672.889
705.0982, 2678.100
705.5803, 2668.146
706.0624, 2660.023
706.5446, 2657.048
707.0267, 2657.913
707.5088, 2659.933
707.9909, 2663.176
708.4730, 2663.776
708.9551, 2656.032
709.4373, 2646.563
709.9194, 2650.729
710.4015, 2666.023
710.8836, 2677.381
711.3657, 2675.987
711.8478, 2667.618
712.3300, 2651.678
712.8121, 2626.928
713.2942, 2615.757
713.7763, 2632.754
714.2584, 2656.389
714.7405, 2677.605
715.2227, 2699.339
715.7048, 2704.933
716.1869, 2689.841
716.6690, 2670.290
717.1511, 2662.070
717.6332, 2664.034
718.1154, 2671.044
718.5975, 2682.850
719.0796, 2697.201
719.5617, 2718.613
720.0438, 2739.311
720.5259, 2747.200
721.0081, 2727.124
721.4902, 2709.106
721.9723, 2703.517
722.4544, 2706.907
722.9365, 2712.381
723.4186, 2721.362
723.9008, 2728.812
724.3829, 2731.725
724.8650, 2733.572
725.3471, 2748.046
725.8292, 2776.276
726.3113, 2798.542
726.7935, 2802.276
727.2756, 2797.291
727.7577, 2801.153
728.2398, 2812.871
728.7219, 2826.966
729.2040, 2844.510
729.6862, 2859.927
730.1683, 2867.806
730.6504, 2867.732
731.1325, 2870.049
731.6146, 2877.790
732.0967, 2887.344
732.5789, 2898.297
733.0610, 2911.720
733.5431, 2918.246
734.0252, 2916.701
734.5073, 2911.766
734.9894, 2901.296
735.4716, 2890.050
735.9537, 2899.809
736.4358, 2935.079
736.9179, 2974.836
737.4000, 3005.735
737.8821, 3027.639
738.3643, 3039.309
738.8464, 3035.430
739.3286, 3031.073
739.8107, 3025.860
740.2928, 3024.583
740.7749, 3034.286
741.2570, 3064.061
741.7391, 3083.079
742.2213, 3084.701
742.7034, 3077.979
743.1855, 3080.236
743.6676, 3090.679
744.1497, 3100.544
744.6318, 3105.091
745.1140, 3110.353
745.5961, 3127.984
746.0782, 3152.690
746.5603, 3170.779
747.0424, 3167.610
747.5245, 3165.047
748.0067, 3178.997
748.4888, 3204.608
748.9709, 3209.601
749.4530, 3177.001
749.9351, 3151.146
750.4172, 3148.949
750.8994, 3166.867
751.3815, 3180.713
751.8636, 3190.553
752.3457, 3197.133
752.8278, 3196.308
753.3099, 3194.399
753.7921, 3205.607
754.2742, 3229.339
754.7563, 3249.428
755.2384, 3256.320
755.7205, 3256.462
756.2026, 3252.708
756.6848, 3243.778
757.1669, 3239.661
757.6490, 3244.430
758.1311, 3249.719
758.6132, 3249.775
759.0953, 3243.876
759.5775, 3238.482
760.0596, 3233.423
760.5417, 3229.997
761.0238, 3234.500
761.5059, 3240.927
761.9880, 3232.600
762.4702, 3202.980
762.9523, 3177.234
763.4344, 3175.429
763.9165, 3185.580
764.3986, 3194.860
764.8807, 3206.839
765.3629, 3208.140
765.8450, 3191.257
766.3271, 3169.057
766.8092, 3158.635
767.2913, 3161.705
767.7734, 3165.342
768.2556, 3168.343
768.7377, 3168.916
769.2198, 3162.660
769.7019, 3151.543
770.1840, 3141.286
770.6661, 3134.202
771.1483, 3128.191
771.6304, 3120.176
772.1125, 3112.448
772.5946, 3109.355
773.0767, 3118.820
773.5588, 3124.511
774.0410, 3122.656
774.5231, 3115.574
775.0052, 3109.092
775.4873, 3102.972
775.9694, 3099.426
776.4515, 3102.039
776.9337, 3104.972
777.4158, 3091.908
777.8979, 3066.706
778.3800, 3046.388
778.8621, 3041.032
779.3442, 3042.497
779.8264, 3050.126
780.3085, 3061.464
780.7906, 3063.771
781.2727, 3046.541
781.7548, 3028.552
782.2369, 3015.892
782.7191, 3007.667
783.2012, 2991.694
783.6833, 2966.112
784.1654, 2945.584
784.6475, 2945.613
785.1296, 2955.012
785.6118, 2944.608
786.0939, 2916.240
786.5760, 2887.021
787.0581, 2865.486
787.5402, 2849.540
788.0223, 2838.888
788.5045, 2833.848
788.9866, 2830.052
789.4687, 2834.622
789.9508, 2831.153
790.4329, 2807.898
790.9150, 2763.049
791.3972, 2732.269
791.8793, 2715.959
792.3614, 2707.395
792.8435, 2705.090
793.3256, 2705.366
793.8077, 2700.488
794.2899, 2689.624
794.7720, 2678.044
795.2541, 2671.280
795.7362, 2663.183
796.2183, 2647.374
796.7004, 2617.482
797.1826, 2599.154
797.6647, 2602.483
798.1468, 2604.579
798.6289, 2583.720
799.1110, 2539.427
799.5931, 2508.407
800.0753, 2493.181
800.5574, 2483.597
801.0395, 2468.057
801.5216, 2451.870
802.0037, 2447.033
802.4858, 2460.688
802.9680, 2461.828
803.4501, 2419.837
803.9322, 2368.215
804.4143, 2338.958
804.8964, 2347.723
805.3785, 2345.412
805.8607, 2327.703
806.3428, 2305.830
806.8249, 2289.541
807.3070, 2279.095
807.7891, 2281.919
808.2712, 2303.239
808.7534, 2315.258
809.2355, 2277.162
809.7176, 2216.749
810.1997, 2172.732
810.6818, 2157.141
811.1639, 2151.917
811.6461, 2161.371
812.1282, 2173.602
812.6103, 2175.872
813.0924, 2164.980
813.5745, 2154.347
814.0566, 2145.230
814.5388, 2136.252
815.0209, 2126.321
815.5030, 2115.036
815.9851, 2100.177
816.4672, 2079.333
816.9493, 2060.692
817.4315, 2051.443
817.9136, 2048.359
818.3957, 2047.381
818.8778, 2048.895
819.3599, 2051.065
819.8420, 2057.958
820.3242, 2062.121
820.8063, 2050.267
821.2884, 2019.436
821.7705, 2001.499
822.2526, 2003.375
822.7347, 2012.834
823.2169, 2015.821
823.6990, 2013.628
824.1811, 2008.964
824.6632, 2002.277
825.1453, 1993.854
825.6274, 1980.906
826.1096, 1967.269
826.5917, 1958.614
827.0738, 1960.194
827.5559, 1956.617
828.0380, 1943.851
828.5201, 1929.432
829.0023, 1926.780
829.4844, 1934.468
829.9665, 1940.757
830.4486, 1944.320
830.9307, 1941.768
831.4128, 1919.084
831.8950, 1891.022
832.3771, 1880.033
832.8592, 1910.339
833.3413, 1934.211
833.8234, 1941.271
834.3055, 1936.790
834.7877, 1923.847
835.2698, 1898.025
835.7519, 1883.576
836.2340, 1887.151
836.7161, 1894.703
837.1982, 1881.269
837.6804, 1855.336
838.1625, 1841.546
838.6446, 1851.298
839.1267, 1863.347
839.6088, 1858.794
840.0909, 1850.498
840.5731, 1855.797
841.0552, 1897.903
841.5373, 1922.040
842.0194, 1923.476
842.5015, 1909.339
842.9836, 1879.503
843.4658, 1835.955
843.9479, 1825.789
844.4300, 1865.277
844.9121, 1910.288
845.3942, 1910.919
845.8763, 1886.262
846.3585, 1863.630
846.8406, 1846.581
847.3227, 1839.352
847.8048, 1853.097
848.2869, 1871.583
848.7690, 1876.623
849.2512, 1862.876
849.7333, 1857.801
850.2154, 1865.073
850.6975, 1877.012
851.1796, 1887.378
851.6617, 1894.505
852.1439, 1892.331
852.6260, 1876.851
853.1081, 1863.418
853.5902, 1858.918
854.0723, 1863.008
854.5544, 1876.697
855.0366, 1917.963
855.5187, 1932.364
856.0008, 1905.733
856.4829, 1873.992
856.9650, 1879.268
857.4471, 1917.108
857.9293, 1940.596
858.4114, 1944.224
858.8935, 1939.119
859.3756, 1931.084
859.8577, 1922.712
860.3398, 1917.311
860.8220, 1916.616
861.3041, 1914.977
861.7862, 1904.751
862.2683, 1898.410
862.7504, 1907.452
863.2325, 1936.814
863.7147, 1948.447
864.1968, 1939.688
864.6789, 1925.466
865.1610, 1913.408
865.6431, 1907.374
866.1252, 1919.653
866.6074, 1952.876
867.0895, 1976.808
867.5716, 1965.568
868.0537, 1948.064
868.5358, 1946.101
869.0179, 1963.345
869.5001, 1973.985
869.9822, 1976.982
870.4643, 1976.101
870.9464, 1971.671
871.4285, 1965.370
871.9106, 1964.363
872.3928, 1968.576
872.8749, 1974.059
873.3570, 1979.194
873.8391, 1983.686
874.3212, 1987.321
874.8033, 1990.134
875.2855, 1991.671
875.7676, 1990.175
876.2497, 1990.296
876.7318, 1995.429
877.2139, 2004.191
877.6960, 2005.331
878.1782, 1999.093
878.6603, 1993.476
879.1424, 1991.054
879.6245, 1993.304
880.1067, 2007.291
880.5888, 2029.140
881.0709, 2040.475
881.5530, 2028.502
882.0352, 2012.328
882.5173, 1994.073
882.9994, 1976.327
883.4815, 1972.225
883.9636, 1982.946
884.4457, 1992.757
884.9279, 1990.859
885.4100, 1989.316
885.8921, 2018.927
886.3742, 2065.123
886.8563, 2089.643
887.3384, 2048.829
887.8206, 2014.176
888.3027, 2021.853
888.7848, 2050.631
889.2669, 2055.119
889.7490, 2027.419
890.2311, 2005.757
890.7133, 1997.824
891.1954, 1999.992
891.6775, 2007.985
892.1596, 2021.252
892.6417, 2040.191
893.1238, 2073.835
893.6060, 2096.145
894.0881, 2085.688
894.5702, 2059.185
895.0523, 2039.889
895.5344, 2034.330
896.0165, 2021.754
896.4987, 1995.883
896.9808, 1972.890
897.4629, 1978.961
897.9450, 2005.562
898.4271, 2020.411
898.9092, 2016.722
899.3914, 2010.341
899.8735, 2012.268
900.3556, 2017.795
900.8377, 2023.115
901.3198, 2029.553
901.8019, 2030.261
902.2841, 2025.095
902.7662, 2014.444
903.2483, 1993.716
903.7304, 1965.752
904.2125, 1953.731
904.6946, 1958.533
905.1768, 1971.324
905.6589, 1992.714
906.1410, 2014.145
906.6231, 2029.706
907.1052, 2038.862
907.5873, 2037.325
908.0695, 2017.058
908.5516, 1996.466
909.0337, 1980.006
909.5158, 1969.043
909.9979, 1975.943
910.4800, 1999.958
910.9622, 2022.971
911.4443, 2042.935
911.9264, 2050.289
912.4085, 2024.141
912.8906, 1975.731
913.3727, 1943.651
913.8549, 1945.371
914.3370, 1958.116
914.8191, 1985.324
915.3012, 2016.115
915.7833, 2016.848
916.2654, 1987.870
916.7476, 1965.884
917.2297, 1964.390
917.7118, 1970.188
918.1939, 1968.465
918.6760, 1963.016
919.1581, 1960.218
919.6403, 1970.625
920.1224, 1971.550
920.6045, 1951.768
921.0866, 1928.348
921.5687, 1923.868
922.0508, 1939.785
922.5330, 1944.730
923.0151, 1933.217
923.4972, 1922.304
923.9793, 1938.111
924.4614, 1961.594
924.9435, 1963.970
925.4257, 1934.541
925.9078, 1913.762
926.3899, 1924.441
926.8720, 1937.371
927.3541, 1934.932
927.8362, 1916.172
928.3184, 1903.458
928.8005, 1896.821
929.2826, 1895.735
929.7647, 1896.891
930.2468, 1905.045
930.7289, 1933.000
931.2111, 1977.620
931.6932, 2011.598
932.1753, 2025.068
932.6574, 2025.863
933.1395, 2013.994
933.6216, 1992.591
934.1038, 1972.655
934.5859, 1953.911
935.0680, 1944.358
935.5501, 1952.539
936.0322, 1964.318
936.5143, 1956.173
936.9965, 1937.782
937.4786, 1929.642
937.9607, 1953.683
938.4428, 1969.928
938.9249, 1964.839
939.4070, 1952.653
939.8892, 1953.392
940.3713, 1967.754
940.8534, 1986.704
941.3355, 2011.648
941.8176, 2028.036
942.2997, 2007.620
942.7819, 1973.304
943.2640, 1956.313
943.7461, 1965.729
944.2282, 1979.598
944.7103, 1997.363
945.1924, 2013.641
945.6746, 2026.376
946.1567, 2035.633
946.6388, 2032.939
947.1209, 2017.678
947.6030, 2005.308
948.0851, 2013.430
948.5673, 2026.395
949.0494, 2025.110
949.5315, 2010.643
950.0136, 1997.759
950.4957, 1989.451
950.9778, 1984.913
951.4600, 1984.839
951.9421, 1988.078
952.4242, 1991.602
952.9063, 1995.282
953.3884, 1995.532
953.8705, 1987.037
954.3527, 1980.839
954.8348, 1992.348
955.3169, 2013.100
955.7990, 2028.899
956.2811, 2034.784
956.7632, 2036.409
957.2454, 2030.761
957.7275, 2025.347
958.2096, 2032.399
958.6917, 2049.871
959.1738, 2058.626
959.6559, 2056.198
960.1381, 2047.525
960.6202, 2027.242
961.1023, 2009.186
961.5844, 2008.893
962.0665, 2032.360
962.5486, 2047.445
963.0308, 2051.016
963.5129, 2049.095
963.9950, 2043.560
964.4771, 2035.138
964.9592, 2025.454
965.4413, 2015.399
965.9235, 2012.191
966.4056, 2027.529
966.8877, 2043.773
967.3698, 2047.820
967.8519, 2043.457
968.3340, 2044.624
968.8162, 2055.568
969.2983, 2063.392
969.7804, 2066.186
970.2625, 2064.107
970.7446, 2053.786
971.2267, 2038.824
971.7089, 2029.619
972.1910, 2028.562
972.6731, 2034.539
973.1552, 2058.853
973.6373, 2082.141
974.1194, 2083.457
974.6016, 2053.049
975.0837, 2041.124
975.5658, 2051.948
976.0479, 2064.259
976.5300, 2060.292
977.0121, 2046.270
977.4943, 2028.708
977.9764, 2009.865
978.4585, 2004.742
978.9406, 2038.979
979.4227, 2068.848
979.9048, 2074.056
980.3870, 2060.628
980.8691, 2050.069
981.3512, 2042.422
981.8333, 2038.324
982.3154, 2039.598
982.7975, 2041.633
983.2797, 2039.710
983.7618, 2033.925
984.2439, 2024.118
984.7260, 1999.647
985.2081, 1988.083
985.6902, 1997.194
986.1724, 2013.823
986.6545, 2025.342
987.1366, 2031.959
987.6187, 2041.598
988.1008, 2055.180
988.5829, 2061.526
989.0651, 2043.651
989.5472, 2020.031
990.0293, 2005.389
990.5114, 2001.293
990.9935, 2008.445
991.4756, 2038.848
991.9578, 2053.232
992.4399, 2026.247
992.9220, 1979.626
993.4041, 1986.604
993.8862, 2034.448
994.3683, 2069.372
994.8505, 2059.507
995.3326, 2041.979
995.8147, 2031.774
996.2968, 2028.074
996.7789, 2029.220
997.2610, 2035.372
997.7432, 2047.196
998.2253, 2067.473
998.7074, 2084.121
999.1895, 2084.596
999.6716, 2072.391
1000.154, 2046.873
1000.636, 2006.611
1001.118, 1986.230
1001.600, 2021.992
1002.082, 2058.627
1002.564, 2069.148
1003.046, 2056.552
1003.529, 2043.763
1004.011, 2030.616
1004.493, 2023.763
1004.975, 2028.096
1005.457, 2038.267
1005.939, 2054.236
1006.421, 2070.887
1006.903, 2077.471
1007.385, 2060.730
1007.868, 2048.761
1008.350, 2044.340
1008.832, 2043.986
1009.314, 2039.967
1009.796, 2035.579
1010.278, 2052.218
1010.760, 2094.277
1011.242, 2125.485
1011.725, 2110.863
1012.207, 2083.971
1012.689, 2070.141
1013.171, 2070.673
1013.653, 2066.840
1014.135, 2058.171
1014.617, 2046.205
1015.099, 2026.589
1015.581, 2008.854
1016.064, 2018.094
1016.546, 2043.954
1017.028, 2059.578
1017.510, 2039.712
1017.992, 2027.215
1018.474, 2040.166
1018.956, 2059.120
1019.438, 2057.715
1019.921, 2035.456
1020.403, 2027.179
1020.885, 2037.072
1021.367, 2052.281
1021.849, 2072.753
1022.331, 2085.152
1022.813, 2067.722
1023.295, 2016.750
1023.778, 1995.660
1024.260, 2021.686
1024.742, 2049.161
1025.224, 2062.043
1025.706, 2062.908
1026.188, 2051.965
1026.670, 2033.862
1027.152, 2025.161
1027.634, 2042.545
1028.117, 2056.869
1028.599, 2048.688
1029.081, 2034.331
1029.563, 2035.734
1030.045, 2058.128
1030.527, 2064.635
1031.009, 2051.472
1031.491, 2035.838
1031.974, 2035.605
1032.456, 2041.278
1032.938, 2040.305
1033.420, 2032.291
1033.902, 2028.303
1034.384, 2035.966
1034.866, 2040.844
1035.348, 2038.995
1035.830, 2031.377
1036.313, 2015.311
1036.795, 1994.353
1037.277, 1985.577
1037.759, 1998.198
1038.241, 2017.465
1038.723, 2044.954
1039.205, 2067.554
1039.687, 2068.452
1040.169, 2037.799
1040.652, 2020.632
1041.134, 2018.132
1041.616, 2022.540
1042.098, 2037.724
1042.580, 2050.280
1043.062, 2031.283
1043.544, 1986.904
1044.026, 1955.956
1044.509, 1959.217
1044.991, 1969.805
1045.473, 1985.126
1045.955, 2000.850
1046.437, 2006.401
1046.919, 2003.200
1047.401, 2001.435
1047.883, 2004.797
1048.365, 2004.714
1048.848, 1986.767
1049.330, 1967.563
1049.812, 1966.285
1050.294, 1987.561
1050.776, 1994.449
1051.258, 1983.796
1051.740, 1973.485
1052.222, 1973.777
1052.704, 1981.767
1053.187, 1999.281
1053.669, 2020.941
1054.151, 2030.043
1054.633, 2010.681
1055.115, 1990.662
1055.597, 1971.022
1056.079, 1957.240
1056.561, 1962.863
1057.044, 1983.964
1057.526, 1987.902
1058.008, 1969.348
1058.490, 1950.673
1058.972, 1947.537
1059.454, 1950.799
1059.936, 1952.190
1060.418, 1951.952
1060.901, 1966.801
1061.383, 2001.660
1061.865, 2025.494
1062.347, 2023.748
1062.829, 2008.946
1063.311, 1997.695
1063.793, 1987.956
1064.275, 1975.798
1064.757, 1955.015
1065.240, 1940.728
1065.722, 1936.694
1066.204, 1935.480
1066.686, 1928.833
1067.168, 1918.745
1067.650, 1919.302
1068.132, 1930.210
1068.614, 1941.199
1069.096, 1952.647
1069.579, 1956.039
1070.061, 1938.029
1070.543, 1908.837
1071.025, 1899.431
1071.507, 1912.961
1071.989, 1921.951
1072.471, 1920.250
1072.953, 1914.618
1073.436, 1909.543
1073.918, 1906.809
1074.400, 1909.188
1074.882, 1918.273
1075.364, 1927.600
1075.846, 1939.965
1076.328, 1945.592
1076.810, 1936.183
1077.292, 1918.089
1077.775, 1910.778
1078.257, 1911.518
1078.739, 1910.415
1079.221, 1897.497
1079.703, 1888.651
1080.185, 1890.852
1080.667, 1898.853
1081.149, 1909.598
1081.631, 1923.325
1082.114, 1932.042
1082.596, 1935.392
1083.078, 1930.217
1083.560, 1905.198
1084.042, 1877.791
1084.524, 1863.461
1085.006, 1861.468
1085.488, 1855.990
1085.971, 1842.292
1086.453, 1840.300
1086.935, 1859.332
1087.417, 1882.542
1087.899, 1881.555
1088.381, 1867.900
1088.863, 1862.973
1089.345, 1875.835
1089.828, 1880.405
1090.310, 1868.852
1090.792, 1850.861
1091.274, 1826.758
1091.756, 1800.780
1092.238, 1799.188
1092.720, 1817.867
1093.202, 1834.583
1093.684, 1839.609
1094.167, 1838.002
1094.649, 1825.931
1095.131, 1811.912
1095.613, 1809.919
1096.095, 1823.180
1096.577, 1818.176
1097.059, 1791.118
1097.541, 1766.001
1098.024, 1768.683
1098.506, 1779.768
1098.988, 1780.786
1099.470, 1771.890
1099.952, 1764.496
1100.434, 1757.713
1100.916, 1757.507
1101.398, 1767.613
1101.880, 1779.934
1102.363, 1783.521
1102.845, 1779.067
1103.327, 1766.233
1103.809, 1742.667
1104.291, 1720.817
1104.773, 1700.609
1105.255, 1687.315
1105.737, 1685.135
1106.219, 1692.135
1106.702, 1700.341
1107.184, 1709.908
1107.666, 1721.397
1108.148, 1740.695
1108.630, 1754.838
1109.112, 1757.373
1109.594, 1751.345
1110.076, 1737.930
1110.559, 1715.040
1111.041, 1707.305
1111.523, 1716.174
1112.005, 1727.392
1112.487, 1735.774
1112.969, 1736.426
1113.451, 1717.386
1113.933, 1685.396
1114.416, 1671.031
1114.898, 1679.065
1115.380, 1695.045
1115.862, 1720.049
1116.344, 1740.908
1116.826, 1734.214
1117.308, 1713.955
1117.790, 1701.215
1118.272, 1699.834
1118.755, 1697.409
1119.237, 1690.828
1119.719, 1684.300
1120.201, 1679.232
1120.683, 1675.510
1121.165, 1672.046
1121.647, 1669.543
1122.129, 1669.952
1122.611, 1672.987
1123.094, 1680.940
1123.576, 1701.395
1124.058, 1721.474
1124.540, 1732.094
1125.022, 1733.521
1125.504, 1732.295
1125.986, 1728.062
1126.468, 1716.510
1126.951, 1683.538
1127.433, 1654.324
1127.915, 1648.394
1128.397, 1655.614
1128.879, 1657.236
1129.361, 1653.131
1129.843, 1641.786
1130.325, 1621.839
1130.807, 1605.388
1131.290, 1602.907
1131.772, 1610.025
1132.254, 1627.095
1132.736, 1652.098
1133.218, 1665.924
1133.700, 1662.024
1134.182, 1666.048
1134.664, 1686.438
1135.146, 1711.862
1135.629, 1729.381
1136.111, 1739.515
1136.593, 1742.952
1137.075, 1739.869
1137.557, 1727.924
1138.039, 1698.703
1138.521, 1676.732
1139.003, 1675.072
1139.486, 1686.870
1139.968, 1697.001
1140.450, 1705.506
1140.932, 1712.862
1141.414, 1720.044
1141.896, 1724.529
1142.378, 1727.493
1142.860, 1725.422
1143.343, 1713.192
1143.825, 1692.180
1144.307, 1673.075
1144.789, 1657.154
1145.271, 1653.081
1145.753, 1685.076
1146.235, 1708.658
1146.717, 1689.990
1147.199, 1657.843
1147.682, 1655.466
1148.164, 1683.555
1148.646, 1698.269
1149.128, 1695.525
1149.610, 1683.495
1150.092, 1650.056
1150.574, 1626.224
1151.056, 1649.895
1151.538, 1705.317
1152.021, 1716.605
1152.503, 1675.220
1152.985, 1654.061
1153.467, 1672.874
1153.949, 1700.186
1154.431, 1705.177
1154.913, 1699.291
1155.395, 1694.011
1155.878, 1690.934
1156.360, 1683.772
1156.842, 1668.753
1157.324, 1665.154
1157.806, 1685.709
1158.288, 1712.765
1158.770, 1723.969
1159.252, 1721.826
1159.734, 1708.465
1160.217, 1673.819
1160.699, 1656.462
1161.181, 1663.169
1161.663, 1672.646
1162.145, 1667.856
1162.627, 1658.303
1163.109, 1668.961
1163.591, 1692.659
1164.073, 1709.597
1164.556, 1711.400
1165.038, 1705.266
1165.520, 1686.406
1166.002, 1670.070
1166.484, 1679.539
1166.966, 1702.253
1167.448, 1688.796
1167.930, 1645.093
1168.413, 1623.966
1168.895, 1677.126
1169.377, 1719.783
1169.859, 1729.266
1170.341, 1718.970
1170.823, 1703.109
1171.305, 1684.594
1171.787, 1678.753
1172.270, 1687.352
1172.752, 1693.840
1173.234, 1684.507
1173.716, 1676.228
1174.198, 1677.806
1174.680, 1684.940
1175.162, 1685.386
1175.644, 1680.128
1176.126, 1676.213
1176.609, 1675.576
1177.091, 1674.924
1177.573, 1665.602
1178.055, 1662.211
1178.537, 1680.701
1179.019, 1714.586
1179.501, 1715.275
1179.983, 1685.189
1180.465, 1663.767
1180.948, 1670.829
1181.430, 1678.281
1181.912, 1659.774
1182.394, 1635.463
1182.876, 1625.270
1183.358, 1629.729
1183.840, 1643.168
1184.322, 1665.725
1184.805, 1679.947
1185.287, 1669.910
1185.769, 1655.198
1186.251, 1648.359
1186.733, 1648.270
1187.215, 1654.024
1187.697, 1667.510
1188.179, 1678.593
1188.661, 1687.620
1189.144, 1686.852
1189.626, 1657.132
1190.108, 1627.356
1190.590, 1625.761
1191.072, 1643.645
1191.554, 1656.939
1192.036, 1663.913
1192.518, 1668.954
1193.000, 1671.891
1193.483, 1676.935
1193.965, 1695.664
1194.447, 1712.354
1194.929, 1706.322
1195.411, 1682.291
1195.893, 1669.479
1196.375, 1669.508
1196.857, 1681.468
1197.340, 1708.903
1197.822, 1730.836
1198.304, 1713.293
1198.786, 1684.393
1199.268, 1678.696
1199.750, 1698.390
1200.232, 1704.295
1200.714, 1690.429
1201.197, 1680.675
1201.679, 1682.837
1202.161, 1687.434
1202.643, 1677.321
1203.125, 1664.850
1203.607, 1669.161
1204.089, 1696.938
1204.571, 1707.474
1205.053, 1695.466
1205.536, 1682.562
1206.018, 1675.511
1206.500, 1674.894
1206.982, 1689.112
1207.464, 1707.403
1207.946, 1711.695
1208.428, 1692.207
1208.910, 1680.571
1209.392, 1677.790
1209.875, 1680.205
1210.357, 1688.672
1210.839, 1698.057
1211.321, 1700.041
1211.803, 1697.281
1212.285, 1694.606
1212.767, 1692.610
1213.249, 1692.683
1213.732, 1696.421
1214.214, 1696.781
1214.696, 1686.547
1215.178, 1671.365
1215.660, 1653.318
1216.142, 1638.182
1216.624, 1640.738
1217.106, 1685.208
1217.589, 1703.502
1218.071, 1688.478
1218.553, 1665.844
1219.035, 1656.108
1219.517, 1653.257
1219.999, 1649.789
1220.481, 1645.301
1220.963, 1638.822
1221.445, 1624.991
1221.927, 1622.763
1222.410, 1636.988
1222.892, 1651.996
1223.374, 1650.003
1223.856, 1640.638
1224.338, 1637.041
1224.820, 1638.655
1225.302, 1637.638
1225.784, 1631.810
1226.267, 1626.485
1226.749, 1621.869
1227.231, 1619.907
1227.713, 1624.890
1228.195, 1632.572
1228.677, 1639.360
1229.159, 1644.193
1229.641, 1640.814
1230.124, 1625.691
1230.606, 1614.521
1231.088, 1611.656
1231.570, 1610.058
1232.052, 1591.367
1232.534, 1574.987
1233.016, 1592.451
1233.498, 1646.179
1233.980, 1669.993
1234.463, 1654.394
1234.945, 1642.086
1235.427, 1646.907
1235.909, 1652.522
1236.391, 1629.845
1236.873, 1601.713
1237.355, 1601.189
1237.837, 1634.491
1238.320, 1636.089
1238.802, 1599.028
1239.284, 1570.751
1239.766, 1568.746
1240.248, 1579.272
1240.730, 1592.844
1241.212, 1605.874
1241.694, 1613.918
1242.177, 1616.401
1242.659, 1617.522
1243.141, 1617.204
1243.623, 1616.696
1244.105, 1618.492
1244.587, 1616.296
1245.069, 1596.221
1245.551, 1573.206
1246.033, 1566.242
1246.516, 1576.618
1246.998, 1587.997
1247.480, 1600.464
1247.962, 1609.504
1248.444, 1608.951
1248.926, 1610.485
1249.408, 1632.584
1249.890, 1656.094
1250.372, 1658.596
1250.855, 1638.458
1251.337, 1611.388
1251.819, 1578.635
1252.301, 1563.935
1252.783, 1600.242
1253.265, 1632.820
1253.747, 1621.407
1254.229, 1591.333
1254.712, 1567.631
1255.194, 1549.640
1255.676, 1559.555
1256.158, 1593.566
1256.640, 1611.964
1257.122, 1570.632
1257.604, 1534.003
1258.086, 1544.747
1258.568, 1565.930
1259.051, 1555.003
1259.533, 1517.130
1260.015, 1522.304
1260.497, 1564.492
1260.979, 1590.589
1261.461, 1550.791
1261.943, 1517.650
1262.425, 1518.686
1262.907, 1531.931
1263.390, 1535.986
1263.872, 1532.823
1264.354, 1530.017
1264.836, 1527.991
1265.318, 1527.279
1265.800, 1525.502
1266.282, 1530.135
1266.764, 1547.491
1267.247, 1562.822
1267.729, 1552.956
1268.211, 1530.048
1268.693, 1527.568
1269.175, 1543.319
1269.657, 1554.989
1270.139, 1551.427
1270.621, 1547.567
1271.104, 1543.053
1271.586, 1543.573
1272.068, 1566.079
1272.550, 1592.418
1273.032, 1586.493
1273.514, 1552.687
1273.996, 1527.923
1274.478, 1516.454
1274.960, 1520.714
1275.443, 1545.219
1275.925, 1569.417
1276.407, 1569.947
1276.889, 1559.169
1277.371, 1549.484
1277.853, 1541.963
1278.335, 1537.108
1278.817, 1534.839
1279.299, 1535.370
1279.782, 1539.062
1280.264, 1543.254
1280.746, 1546.442
1281.228, 1548.132
1281.710, 1548.128
1282.192, 1546.071
1282.674, 1540.947
1283.156, 1532.580
1283.639, 1519.896
1284.121, 1501.583
1284.603, 1496.178
1285.085, 1539.485
1285.567, 1578.805
1286.049, 1570.642
1286.531, 1537.337
1287.013, 1528.729
1287.495, 1541.997
1287.978, 1550.647
1288.460, 1550.606
1288.942, 1552.376
1289.424, 1567.612
1289.906, 1579.135
1290.388, 1579.514
1290.870, 1573.244
1291.352, 1569.124
1291.834, 1565.994
1292.317, 1558.219
1292.799, 1544.978
1293.281, 1537.852
1293.763, 1552.532
1294.245, 1556.431
1294.727, 1536.303
1295.209, 1512.187
1295.691, 1521.566
1296.174, 1547.000
1296.656, 1555.546
1297.138, 1543.155
1297.620, 1539.984
1298.102, 1560.037
1298.584, 1556.141
1299.066, 1509.217
1299.548, 1460.113
1300.031, 1468.561
1300.513, 1499.459
1300.995, 1510.698
1301.477, 1500.322
1301.959, 1509.865
1302.441, 1544.269
1302.923, 1558.867
1303.405, 1539.924
1303.887, 1519.221
1304.370, 1529.706
1304.852, 1548.022
1305.334, 1556.334
1305.816, 1555.721
1306.298, 1547.120
1306.780, 1531.545
##END=



