##NAMES=Kaersutite
##RRUFFID=R070128
##IDEAL CHEMISTRY=NaCa_2_(Mg_3_AlTi^4+^)(Si_6_Al_2_)O_22_O_2_
##LOCALITY=Mt Etna, Etna Volcanic Complex, Catania Province, Sicily,  Italy
##OWNER=RRUFF
##SOURCE=Michael Scott
##DESCRIPTION=Black cleavage fragment with dark-red internal highlites
##STATUS=The identification of this mineral is confirmed by single-crystal X-ray diffraction and chemical analysis.
##URL=rruff.info/R070128
##MEASURED CHEMISTRY=(Na_0.65_K_0.15_[box]_0.20_)_Σ=1_(Ca_1.82_Na_0.18_)_Σ=2_(Mg_2.64_Fe^2+^_1.36_)_Σ=4_(Ti_0.64_Fe^2+^_0.15_Al_0.10_Fe^3+^_0.09_Mn_0.02_)_Σ=1_(Si_5.91_Al_2.09_)_Σ=8_O_22_O(OH); OH assumed by stoichiometry
159.3972, 1929.461
159.8793, 1927.768
160.3615, 1922.970
160.8436, 1934.543
161.3257, 1973.866
161.8078, 2032.099
162.2899, 2070.075
162.7720, 2068.561
163.2542, 2066.288
163.7363, 2070.908
164.2184, 2076.731
164.7005, 2072.253
165.1826, 2050.326
165.6647, 2018.229
166.1469, 2009.856
166.6290, 2053.386
167.1111, 2088.272
167.5932, 2098.935
168.0753, 2096.448
168.5574, 2099.547
169.0396, 2118.558
169.5217, 2147.544
170.0038, 2160.633
170.4859, 2141.572
170.9680, 2126.804
171.4501, 2121.549
171.9323, 2124.965
172.4144, 2138.391
172.8965, 2164.140
173.3786, 2195.667
173.8607, 2208.131
174.3428, 2185.969
174.8250, 2166.033
175.3071, 2154.432
175.7892, 2149.986
176.2713, 2151.649
176.7534, 2159.616
177.2355, 2171.707
177.7177, 2180.942
178.1998, 2183.915
178.6819, 2189.389
179.1640, 2203.536
179.6461, 2221.213
180.1283, 2232.692
180.6104, 2233.408
181.0925, 2226.899
181.5746, 2221.956
182.0567, 2218.933
182.5388, 2216.329
183.0210, 2212.203
183.5031, 2208.348
183.9852, 2209.573
184.4673, 2219.134
184.9494, 2231.250
185.4315, 2231.526
185.9137, 2215.635
186.3958, 2203.023
186.8779, 2199.817
187.3600, 2203.748
187.8421, 2212.113
188.3242, 2225.701
188.8064, 2239.198
189.2885, 2241.351
189.7706, 2230.901
190.2527, 2219.945
190.7348, 2209.661
191.2169, 2201.746
191.6991, 2202.490
192.1812, 2216.955
192.6633, 2231.591
193.1454, 2219.687
193.6275, 2178.694
194.1096, 2148.304
194.5918, 2146.730
195.0739, 2162.718
195.5560, 2177.798
196.0381, 2188.566
196.5202, 2195.320
197.0023, 2197.123
197.4845, 2194.434
197.9666, 2190.638
198.4487, 2188.397
198.9308, 2185.305
199.4129, 2175.635
199.8950, 2156.553
200.3771, 2137.193
200.8593, 2129.803
201.3414, 2132.278
201.8235, 2132.775
202.3056, 2125.826
202.7877, 2115.589
203.2698, 2107.100
203.7520, 2100.165
204.2341, 2098.190
204.7162, 2111.731
205.1983, 2135.586
205.6804, 2146.844
206.1625, 2130.494
206.6447, 2102.376
207.1268, 2082.380
207.6089, 2071.990
208.0910, 2068.788
208.5731, 2076.599
209.0552, 2090.951
209.5374, 2098.321
210.0195, 2091.445
210.5016, 2078.502
210.9837, 2069.615
211.4658, 2065.609
211.9479, 2058.875
212.4301, 2037.871
212.9122, 2011.230
213.3943, 1999.608
213.8764, 2016.091
214.3585, 2040.935
214.8406, 2055.377
215.3228, 2059.312
215.8049, 2058.850
216.2870, 2052.631
216.7691, 2045.859
217.2512, 2049.581
217.7333, 2073.764
218.2155, 2096.732
218.6976, 2096.037
219.1797, 2073.384
219.6618, 2054.447
220.1439, 2051.052
220.6260, 2058.298
221.1082, 2066.483
221.5903, 2076.005
222.0724, 2084.980
222.5545, 2091.270
223.0366, 2095.447
223.5187, 2101.270
224.0009, 2111.154
224.4830, 2122.168
224.9651, 2129.958
225.4472, 2133.960
225.9293, 2137.402
226.4114, 2144.398
226.8936, 2152.758
227.3757, 2153.289
227.8578, 2139.656
228.3399, 2123.621
228.8220, 2121.434
229.3041, 2133.387
229.7863, 2142.900
230.2684, 2141.607
230.7505, 2132.840
231.2326, 2122.458
231.7147, 2109.239
232.1968, 2100.312
232.6790, 2107.839
233.1611, 2128.987
233.6432, 2145.552
234.1253, 2147.542
234.6074, 2142.817
235.0895, 2144.216
235.5717, 2154.014
236.0538, 2164.920
236.5359, 2169.978
237.0180, 2170.588
237.5001, 2172.228
237.9822, 2177.594
238.4644, 2183.582
238.9465, 2184.035
239.4286, 2178.330
239.9107, 2178.987
240.3928, 2200.813
240.8749, 2235.805
241.3571, 2256.134
241.8392, 2247.149
242.3213, 2232.702
242.8034, 2232.564
243.2855, 2245.012
243.7676, 2255.535
244.2497, 2257.742
244.7319, 2251.554
245.2140, 2238.594
245.6961, 2210.457
246.1782, 2188.122
246.6603, 2187.268
247.1424, 2202.294
247.6246, 2214.152
248.1067, 2215.121
248.5888, 2209.283
249.0709, 2203.684
249.5530, 2195.792
250.0351, 2194.489
250.5173, 2214.643
250.9994, 2241.664
251.4815, 2244.655
251.9636, 2211.227
252.4457, 2166.114
252.9278, 2148.268
253.4100, 2161.527
253.8921, 2170.575
254.3742, 2169.857
254.8563, 2161.292
255.3384, 2143.329
255.8205, 2115.622
256.3027, 2090.078
256.7848, 2080.403
257.2669, 2089.144
257.7490, 2093.686
258.2311, 2088.982
258.7133, 2083.105
259.1954, 2085.110
259.6775, 2093.837
260.1596, 2097.001
260.6417, 2083.114
261.1238, 2053.316
261.6060, 2034.672
262.0880, 2035.255
262.5702, 2037.720
263.0523, 2031.698
263.5344, 2020.833
264.0165, 2017.157
264.4986, 2029.128
264.9807, 2051.034
265.4629, 2057.352
265.9450, 2032.609
266.4271, 2013.214
266.9092, 2010.808
267.3913, 2016.875
267.8734, 2017.974
268.3556, 2008.695
268.8377, 1996.124
269.3198, 1994.917
269.8019, 2021.416
270.2840, 2034.101
270.7661, 2019.219
271.2483, 1998.426
271.7304, 1993.493
272.2125, 2007.759
272.6946, 2025.443
273.1767, 2025.512
273.6588, 1997.860
274.1410, 1987.692
274.6231, 2009.811
275.1052, 2033.862
275.5873, 2042.565
276.0694, 2037.086
276.5515, 2029.225
277.0337, 2029.598
277.5158, 2038.498
277.9979, 2037.947
278.4800, 2013.765
278.9621, 1995.298
279.4442, 1990.079
279.9264, 1996.076
280.4085, 2011.360
280.8906, 2036.050
281.3727, 2064.798
281.8548, 2076.661
282.3369, 2057.305
282.8191, 2040.195
283.3012, 2025.676
283.7833, 2017.109
284.2654, 2020.222
284.7475, 2036.497
285.2296, 2057.154
285.7118, 2065.437
286.1939, 2052.547
286.6760, 2051.311
287.1581, 2079.183
287.6402, 2107.131
288.1223, 2116.877
288.6045, 2107.607
289.0866, 2091.454
289.5687, 2077.678
290.0508, 2065.862
290.5329, 2062.886
291.0150, 2081.226
291.4972, 2095.013
291.9793, 2088.586
292.4614, 2069.074
292.9435, 2053.567
293.4256, 2053.794
293.9077, 2065.251
294.3899, 2073.896
294.8720, 2081.719
295.3541, 2082.036
295.8362, 2065.171
296.3183, 2042.258
296.8004, 2025.918
297.2826, 2019.640
297.7647, 2022.257
298.2468, 2037.940
298.7289, 2068.875
299.2110, 2086.798
299.6931, 2072.236
300.1753, 2048.227
300.6574, 2038.347
301.1395, 2045.247
301.6216, 2053.710
302.1037, 2052.626
302.5858, 2044.412
303.0680, 2038.416
303.5501, 2036.882
304.0322, 2036.782
304.5143, 2034.224
304.9964, 2029.922
305.4785, 2028.574
305.9607, 2036.813
306.4428, 2046.482
306.9249, 2044.558
307.4070, 2029.715
307.8891, 2015.358
308.3712, 2009.808
308.8534, 2012.952
309.3355, 2020.310
309.8176, 2041.331
310.2997, 2057.635
310.7818, 2052.958
311.2639, 2033.734
311.7461, 2021.868
312.2282, 2028.278
312.7103, 2045.539
313.1924, 2056.035
313.6745, 2059.806
314.1566, 2058.621
314.6388, 2048.576
315.1209, 2035.544
315.6030, 2026.217
316.0851, 2022.228
316.5672, 2022.177
317.0493, 2025.302
317.5315, 2034.017
318.0136, 2035.351
318.4957, 2019.277
318.9778, 2005.088
319.4599, 2009.086
319.9420, 2026.365
320.4242, 2037.694
320.9063, 2027.744
321.3884, 1999.078
321.8705, 1980.984
322.3526, 1977.888
322.8347, 1981.007
323.3169, 1993.944
323.7990, 2010.654
324.2811, 2024.315
324.7632, 2032.104
325.2453, 2035.447
325.7274, 2037.080
326.2096, 2036.863
326.6917, 2035.087
327.1738, 2031.788
327.6559, 2027.144
328.1380, 2019.464
328.6201, 2009.685
329.1023, 2002.099
329.5844, 1999.893
330.0665, 2003.056
330.5486, 2014.708
331.0307, 2047.201
331.5128, 2072.490
331.9950, 2074.649
332.4771, 2062.505
332.9592, 2052.335
333.4413, 2052.622
333.9234, 2058.566
334.4055, 2060.726
334.8877, 2058.177
335.3698, 2056.054
335.8519, 2056.131
336.3340, 2057.772
336.8161, 2062.147
337.2982, 2070.670
337.7804, 2074.512
338.2625, 2060.268
338.7446, 2033.783
339.2267, 2022.547
339.7088, 2037.334
340.1909, 2058.394
340.6731, 2061.427
341.1552, 2049.377
341.6373, 2045.673
342.1194, 2070.839
342.6015, 2099.260
343.0836, 2096.183
343.5658, 2061.404
344.0479, 2029.839
344.5300, 2025.794
345.0121, 2044.090
345.4942, 2054.337
345.9763, 2051.557
346.4584, 2047.001
346.9406, 2042.805
347.4227, 2039.875
347.9048, 2041.614
348.3869, 2049.656
348.8690, 2057.410
349.3511, 2052.277
349.8333, 2019.555
350.3154, 2005.696
350.7975, 2026.560
351.2796, 2053.402
351.7617, 2066.727
352.2438, 2065.802
352.7260, 2060.648
353.2081, 2060.198
353.6902, 2064.248
354.1723, 2061.308
354.6544, 2036.495
355.1365, 2020.742
355.6187, 2025.484
356.1008, 2040.936
356.5829, 2054.688
357.0650, 2061.427
357.5471, 2063.517
358.0292, 2064.397
358.5114, 2062.686
358.9935, 2064.288
359.4756, 2075.265
359.9577, 2085.878
360.4398, 2092.115
360.9219, 2093.007
361.4041, 2087.260
361.8862, 2069.835
362.3683, 2043.832
362.8504, 2025.147
363.3325, 2017.054
363.8146, 2009.693
364.2968, 1989.583
364.7789, 1967.474
365.2610, 1963.614
365.7431, 1993.354
366.2252, 2028.535
366.7073, 2041.628
367.1895, 2035.087
367.6716, 2026.837
368.1537, 2022.825
368.6358, 2020.462
369.1179, 2014.788
369.6000, 2004.788
370.0822, 1997.975
370.5643, 2001.377
371.0464, 2006.502
371.5285, 2000.547
372.0106, 1982.948
372.4927, 1967.566
372.9749, 1966.439
373.4570, 1979.558
373.9391, 1992.077
374.4212, 2014.195
374.9033, 2024.678
375.3854, 2003.273
375.8676, 1968.284
376.3497, 1951.678
376.8318, 1967.056
377.3139, 1997.720
377.7960, 2010.161
378.2781, 1990.225
378.7603, 1978.698
379.2424, 1975.707
379.7245, 1979.675
380.2066, 1997.755
380.6887, 2024.068
381.1708, 2038.787
381.6530, 2021.185
382.1351, 1977.093
382.6172, 1953.965
383.0993, 1964.803
383.5814, 1975.089
384.0635, 1968.832
384.5457, 1957.580
385.0278, 1957.049
385.5099, 1974.061
385.9920, 1990.964
386.4741, 1984.142
386.9562, 1955.312
387.4384, 1935.080
387.9205, 1933.018
388.4026, 1936.672
388.8847, 1931.746
389.3668, 1920.033
389.8489, 1915.725
390.3311, 1933.673
390.8132, 1955.540
391.2953, 1953.494
391.7774, 1928.679
392.2595, 1915.090
392.7416, 1937.731
393.2238, 1983.501
393.7059, 2001.823
394.1880, 1978.342
394.6701, 1953.820
395.1522, 1938.876
395.6343, 1928.147
396.1165, 1912.156
396.5986, 1889.563
397.0807, 1872.823
397.5628, 1879.501
398.0449, 1917.455
398.5270, 1933.007
399.0092, 1904.976
399.4913, 1879.254
399.9734, 1873.414
400.4555, 1882.103
400.9376, 1895.320
401.4197, 1908.614
401.9019, 1918.865
402.3840, 1916.590
402.8661, 1894.182
403.3482, 1880.331
403.8303, 1884.399
404.3124, 1894.954
404.7946, 1911.230
405.2767, 1930.170
405.7588, 1937.995
406.2409, 1914.225
406.7230, 1870.955
407.2051, 1851.561
407.6873, 1862.569
408.1694, 1878.110
408.6515, 1886.031
409.1336, 1887.764
409.6157, 1884.698
410.0978, 1872.540
410.5800, 1863.677
411.0621, 1869.844
411.5442, 1884.885
412.0263, 1892.170
412.5084, 1885.915
412.9905, 1878.802
413.4727, 1888.863
413.9548, 1922.634
414.4369, 1938.447
414.9190, 1919.365
415.4011, 1897.628
415.8832, 1893.861
416.3654, 1902.644
416.8475, 1906.341
417.3296, 1894.685
417.8117, 1874.646
418.2938, 1867.237
418.7759, 1883.215
419.2581, 1893.526
419.7402, 1893.697
420.2223, 1890.585
420.7044, 1888.275
421.1865, 1887.432
421.6686, 1886.969
422.1508, 1884.103
422.6329, 1880.427
423.1150, 1888.332
423.5971, 1915.864
424.0792, 1937.996
424.5613, 1943.109
425.0435, 1937.182
425.5256, 1923.222
426.0077, 1898.167
426.4898, 1879.118
426.9719, 1884.417
427.4540, 1907.440
427.9361, 1926.387
428.4182, 1938.096
428.9004, 1940.759
429.3825, 1928.017
429.8646, 1900.518
430.3467, 1883.372
430.8288, 1882.515
431.3109, 1888.341
431.7931, 1901.053
432.2752, 1915.933
432.7573, 1920.880
433.2394, 1909.902
433.7215, 1891.892
434.2036, 1885.279
434.6858, 1897.476
435.1679, 1906.965
435.6500, 1912.354
436.1321, 1916.523
436.6142, 1922.553
437.0963, 1929.109
437.5785, 1931.900
438.0606, 1927.650
438.5427, 1917.725
439.0248, 1906.036
439.5069, 1889.980
439.9890, 1878.701
440.4712, 1876.172
440.9533, 1878.760
441.4354, 1886.507
441.9175, 1899.230
442.3996, 1907.714
442.8817, 1903.230
443.3639, 1890.195
443.8460, 1878.733
444.3281, 1869.501
444.8102, 1862.934
445.2923, 1858.816
445.7744, 1857.951
446.2566, 1862.242
446.7387, 1879.746
447.2208, 1891.949
447.7029, 1889.039
448.1850, 1877.539
448.6671, 1865.447
449.1493, 1855.208
449.6314, 1848.362
450.1135, 1847.546
450.5956, 1854.188
451.0777, 1856.380
451.5598, 1853.661
452.0420, 1847.231
452.5241, 1832.808
453.0062, 1816.277
453.4883, 1805.437
453.9704, 1803.490
454.4525, 1808.706
454.9347, 1821.161
455.4168, 1842.411
455.8989, 1856.427
456.3810, 1860.175
456.8631, 1857.059
457.3452, 1844.689
457.8274, 1827.300
458.3095, 1818.528
458.7916, 1832.736
459.2737, 1850.174
459.7558, 1843.426
460.2379, 1817.120
460.7201, 1803.058
461.2022, 1816.483
461.6843, 1841.177
462.1664, 1848.140
462.6485, 1830.439
463.1306, 1822.453
463.6128, 1839.338
464.0949, 1856.879
464.5770, 1854.948
465.0591, 1837.710
465.5412, 1821.568
466.0233, 1816.230
466.5055, 1819.835
466.9876, 1827.869
467.4697, 1848.714
467.9518, 1857.356
468.4339, 1840.903
468.9160, 1821.316
469.3982, 1812.474
469.8803, 1814.774
470.3624, 1821.163
470.8445, 1827.990
471.3266, 1834.915
471.8087, 1841.077
472.2909, 1846.487
472.7730, 1850.962
473.2551, 1852.989
473.7372, 1855.050
474.2193, 1862.197
474.7014, 1876.690
475.1836, 1886.137
475.6657, 1882.056
476.1478, 1872.522
476.6299, 1866.940
477.1120, 1866.128
477.5941, 1866.997
478.0763, 1867.559
478.5584, 1867.814
479.0405, 1867.760
479.5226, 1863.203
480.0047, 1863.854
480.4868, 1874.164
480.9690, 1887.552
481.4511, 1899.853
481.9332, 1909.681
482.4153, 1915.273
482.8974, 1913.140
483.3795, 1905.145
483.8617, 1905.253
484.3438, 1918.489
484.8259, 1928.169
485.3080, 1922.737
485.7901, 1912.486
486.2722, 1907.523
486.7544, 1909.412
487.2365, 1914.491
487.7186, 1920.426
488.2007, 1928.114
488.6828, 1941.453
489.1649, 1960.814
489.6471, 1975.743
490.1292, 1976.274
490.6113, 1966.199
491.0934, 1970.222
491.5755, 2009.688
492.0576, 2033.548
492.5398, 2017.342
493.0219, 1991.213
493.5040, 1988.189
493.9861, 2010.812
494.4682, 2035.341
494.9503, 2038.389
495.4325, 2022.439
495.9146, 2015.056
496.3967, 2016.369
496.8788, 2026.443
497.3609, 2058.294
497.8430, 2091.104
498.3252, 2099.074
498.8073, 2077.089
499.2894, 2059.584
499.7715, 2078.550
500.2536, 2117.050
500.7357, 2135.610
501.2179, 2129.910
501.7000, 2125.188
502.1821, 2139.146
502.6642, 2166.067
503.1463, 2182.823
503.6284, 2182.646
504.1106, 2183.979
504.5927, 2189.628
505.0748, 2198.635
505.5569, 2211.296
506.0390, 2226.822
506.5211, 2243.448
507.0033, 2260.883
507.4854, 2277.378
507.9675, 2279.986
508.4496, 2255.350
508.9317, 2242.628
509.4138, 2264.063
509.8959, 2291.277
510.3781, 2298.764
510.8602, 2284.915
511.3423, 2272.787
511.8244, 2281.775
512.3065, 2300.821
512.7886, 2307.663
513.2708, 2301.560
513.7529, 2296.091
514.2350, 2298.745
514.7171, 2305.916
515.1992, 2309.468
515.6813, 2311.723
516.1635, 2305.758
516.6456, 2276.462
517.1277, 2249.595
517.6098, 2249.091
518.0919, 2270.649
518.5740, 2294.603
519.0562, 2308.706
519.5383, 2314.907
520.0204, 2318.328
520.5025, 2317.655
520.9846, 2317.794
521.4667, 2318.953
521.9489, 2321.677
522.4310, 2326.927
522.9131, 2334.237
523.3952, 2341.723
523.8773, 2348.363
524.3594, 2354.795
524.8416, 2363.021
525.3237, 2372.334
525.8058, 2376.752
526.2879, 2372.495
526.7700, 2367.679
527.2521, 2375.113
527.7343, 2399.853
528.2164, 2416.545
528.6985, 2419.895
529.1806, 2420.883
529.6627, 2427.219
530.1448, 2434.546
530.6270, 2432.111
531.1091, 2415.721
531.5912, 2397.491
532.0733, 2398.229
532.5554, 2420.436
533.0375, 2437.767
533.5197, 2449.055
534.0018, 2455.054
534.4839, 2452.954
534.9660, 2446.866
535.4481, 2444.479
535.9302, 2448.675
536.4124, 2454.338
536.8945, 2457.002
537.3766, 2458.758
537.8587, 2465.679
538.3408, 2478.712
538.8229, 2489.701
539.3051, 2492.254
539.7872, 2486.331
540.2693, 2471.943
540.7514, 2426.757
541.2335, 2401.725
541.7156, 2423.127
542.1978, 2454.742
542.6799, 2459.805
543.1620, 2436.307
543.6441, 2411.851
544.1262, 2409.907
544.6083, 2424.750
545.0905, 2436.341
545.5726, 2443.952
546.0547, 2452.515
546.5368, 2466.502
547.0189, 2480.107
547.5010, 2485.129
547.9832, 2481.074
548.4653, 2474.416
548.9474, 2461.794
549.4295, 2451.336
549.9116, 2452.522
550.3937, 2462.178
550.8759, 2469.599
551.3580, 2469.597
551.8401, 2466.140
552.3222, 2468.180
552.8043, 2481.417
553.2864, 2483.745
553.7686, 2458.910
554.2507, 2438.975
554.7328, 2444.751
555.2149, 2462.258
555.6970, 2463.030
556.1791, 2432.396
556.6613, 2399.528
557.1434, 2397.771
557.6255, 2418.275
558.1076, 2430.273
558.5897, 2428.214
559.0718, 2421.288
559.5540, 2415.634
560.0361, 2411.353
560.5182, 2409.336
561.0003, 2412.386
561.4824, 2413.682
561.9645, 2411.625
562.4467, 2407.504
562.9288, 2400.295
563.4109, 2391.570
563.8930, 2388.102
564.3751, 2398.712
564.8572, 2415.533
565.3394, 2406.347
565.8215, 2362.112
566.3036, 2331.835
566.7857, 2333.308
567.2678, 2350.653
567.7499, 2372.756
568.2321, 2398.564
568.7142, 2410.327
569.1963, 2389.485
569.6784, 2364.960
570.1605, 2357.808
570.6426, 2364.609
571.1248, 2379.897
571.6069, 2401.454
572.0890, 2416.449
572.5711, 2403.479
573.0532, 2355.570
573.5353, 2332.586
574.0175, 2364.151
574.4996, 2384.014
574.9817, 2359.356
575.4638, 2320.416
575.9459, 2305.768
576.4280, 2324.367
576.9102, 2348.552
577.3923, 2360.885
577.8744, 2363.656
578.3565, 2360.467
578.8386, 2351.690
579.3207, 2340.108
579.8029, 2325.338
580.2850, 2311.464
580.7671, 2308.948
581.2492, 2329.608
581.7313, 2339.015
582.2134, 2330.297
582.6956, 2316.718
583.1777, 2298.941
583.6598, 2283.325
584.1419, 2282.517
584.6240, 2303.505
585.1061, 2332.277
585.5883, 2351.617
586.0704, 2361.332
586.5525, 2356.381
587.0346, 2330.263
587.5167, 2304.985
587.9988, 2297.737
588.4810, 2303.611
588.9631, 2304.049
589.4452, 2293.777
589.9273, 2286.020
590.4094, 2283.777
590.8915, 2286.614
591.3737, 2299.178
591.8558, 2317.798
592.3379, 2327.342
592.8200, 2315.892
593.3021, 2291.644
593.7842, 2279.225
594.2664, 2281.265
594.7485, 2285.813
595.2306, 2298.183
595.7127, 2304.683
596.1948, 2290.212
596.6769, 2261.585
597.1591, 2243.217
597.6412, 2248.940
598.1233, 2257.426
598.6054, 2254.588
599.0875, 2244.351
599.5696, 2233.243
600.0518, 2222.807
600.5339, 2212.297
601.0160, 2200.985
601.4981, 2189.047
601.9802, 2178.023
602.4623, 2167.222
602.9445, 2158.647
603.4266, 2155.704
603.9087, 2152.518
604.3908, 2143.707
604.8729, 2130.101
605.3550, 2117.674
605.8372, 2109.140
606.3193, 2103.436
606.8014, 2100.029
607.2835, 2098.522
607.7656, 2098.265
608.2477, 2099.349
608.7299, 2098.553
609.2120, 2092.026
609.6941, 2079.574
610.1762, 2067.143
610.6583, 2048.055
611.1404, 2037.382
611.6226, 2045.017
612.1047, 2057.381
612.5868, 2062.210
613.0689, 2058.152
613.5510, 2050.835
614.0331, 2039.701
614.5153, 2030.412
614.9974, 2038.201
615.4795, 2061.007
615.9616, 2073.853
616.4437, 2066.718
616.9258, 2051.921
617.4080, 2044.922
617.8901, 2047.240
618.3722, 2044.309
618.8543, 2033.033
619.3364, 2020.698
619.8185, 2008.808
620.3007, 1997.424
620.7828, 1985.964
621.2649, 1974.589
621.7470, 1964.618
622.2291, 1958.376
622.7112, 1953.961
623.1934, 1945.209
623.6755, 1931.826
624.1576, 1919.898
624.6397, 1909.538
625.1218, 1905.307
625.6039, 1917.224
626.0861, 1949.779
626.5682, 1963.569
627.0503, 1939.407
627.5324, 1917.373
628.0145, 1916.032
628.4966, 1924.685
628.9788, 1931.228
629.4609, 1931.869
629.9430, 1925.476
630.4251, 1905.603
630.9072, 1879.002
631.3893, 1874.384
631.8715, 1895.108
632.3535, 1908.351
632.8356, 1900.502
633.3177, 1883.495
633.7999, 1871.482
634.2820, 1864.451
634.7641, 1861.656
635.2462, 1865.126
635.7283, 1870.522
636.2104, 1880.658
636.6926, 1889.446
637.1747, 1887.759
637.6568, 1874.352
638.1389, 1856.541
638.6210, 1839.116
639.1031, 1823.386
639.5853, 1816.056
640.0674, 1818.400
640.5495, 1819.829
641.0316, 1816.454
641.5137, 1811.420
641.9958, 1809.156
642.4780, 1809.702
642.9601, 1807.637
643.4422, 1799.406
643.9243, 1792.004
644.4064, 1784.504
644.8885, 1781.520
645.3707, 1792.599
645.8528, 1817.210
646.3349, 1840.405
646.8170, 1849.444
647.2991, 1846.809
647.7813, 1838.314
648.2634, 1822.715
648.7455, 1813.635
649.2276, 1817.525
649.7097, 1825.505
650.1918, 1828.169
650.6740, 1825.685
651.1561, 1823.705
651.6382, 1819.979
652.1203, 1819.837
652.6024, 1828.456
653.0845, 1839.751
653.5667, 1846.414
654.0488, 1847.956
654.5309, 1849.392
655.0130, 1854.605
655.4951, 1862.298
655.9772, 1870.702
656.4594, 1880.119
656.9415, 1882.728
657.4236, 1874.304
657.9057, 1863.986
658.3878, 1860.042
658.8699, 1862.194
659.3521, 1864.517
659.8342, 1865.674
660.3163, 1868.740
660.7984, 1880.564
661.2805, 1890.266
661.7626, 1882.101
662.2448, 1860.799
662.7269, 1848.329
663.2090, 1860.337
663.6911, 1883.350
664.1732, 1896.742
664.6553, 1900.575
665.1375, 1894.844
665.6196, 1877.120
666.1017, 1859.345
666.5838, 1848.433
667.0659, 1845.078
667.5480, 1853.161
668.0302, 1893.901
668.5123, 1914.276
668.9944, 1890.358
669.4765, 1862.455
669.9586, 1860.720
670.4407, 1878.029
670.9229, 1891.635
671.4050, 1891.508
671.8871, 1884.582
672.3692, 1876.401
672.8513, 1868.167
673.3334, 1865.680
673.8156, 1869.874
674.2977, 1871.086
674.7798, 1861.942
675.2619, 1848.358
675.7440, 1845.999
676.2261, 1867.154
676.7083, 1872.225
677.1904, 1847.055
677.6725, 1822.327
678.1546, 1811.236
678.6367, 1809.240
679.1188, 1809.300
679.6010, 1809.530
680.0831, 1809.333
680.5652, 1807.833
681.0473, 1805.791
681.5294, 1803.495
682.0115, 1801.506
682.4937, 1804.908
682.9758, 1816.870
683.4579, 1827.489
683.9400, 1820.295
684.4221, 1791.714
684.9042, 1773.558
685.3864, 1770.545
685.8685, 1771.882
686.3506, 1778.035
686.8327, 1784.809
687.3148, 1788.276
687.7969, 1788.108
688.2791, 1786.156
688.7612, 1784.144
689.2433, 1779.880
689.7254, 1768.431
690.2075, 1753.818
690.6896, 1744.847
691.1718, 1743.529
691.6539, 1746.274
692.1360, 1751.028
692.6181, 1755.999
693.1002, 1747.942
693.5823, 1718.188
694.0645, 1704.658
694.5466, 1726.471
695.0287, 1753.877
695.5108, 1764.567
695.9929, 1761.460
696.4750, 1754.136
696.9572, 1734.927
697.4393, 1725.141
697.9214, 1744.616
698.4035, 1769.749
698.8856, 1775.860
699.3677, 1763.453
699.8499, 1744.903
700.3320, 1726.347
700.8141, 1710.844
701.2962, 1706.637
701.7783, 1712.718
702.2604, 1708.469
702.7426, 1687.688
703.2247, 1675.498
703.7068, 1691.770
704.1889, 1722.291
704.6710, 1732.431
705.1531, 1712.941
705.6353, 1697.749
706.1174, 1690.953
706.5995, 1685.774
707.0816, 1677.925
707.5637, 1670.044
708.0458, 1667.946
708.5280, 1672.618
709.0101, 1675.032
709.4922, 1661.972
709.9743, 1644.455
710.4564, 1644.958
710.9385, 1661.081
711.4207, 1677.021
711.9028, 1688.027
712.3849, 1692.911
712.8670, 1689.403
713.3491, 1677.638
713.8312, 1668.088
714.3134, 1659.806
714.7955, 1655.415
715.2776, 1659.318
715.7597, 1663.847
716.2418, 1661.779
716.7239, 1655.092
717.2061, 1653.016
717.6882, 1661.684
718.1703, 1670.771
718.6524, 1671.683
719.1345, 1670.411
719.6166, 1679.451
720.0988, 1696.334
720.5809, 1702.745
721.0630, 1686.554
721.5451, 1660.046
722.0272, 1646.951
722.5093, 1647.599
722.9915, 1655.648
723.4736, 1673.114
723.9557, 1691.282
724.4378, 1707.980
724.9199, 1720.888
725.4020, 1723.424
725.8842, 1711.837
726.3663, 1705.561
726.8484, 1709.263
727.3305, 1715.506
727.8126, 1725.817
728.2947, 1734.058
728.7769, 1729.115
729.2590, 1710.323
729.7411, 1694.195
730.2232, 1691.480
730.7053, 1700.735
731.1874, 1728.091
731.6696, 1767.552
732.1517, 1786.747
732.6338, 1776.515
733.1159, 1757.473
733.5980, 1748.009
734.0801, 1747.349
734.5623, 1751.768
735.0444, 1768.747
735.5265, 1774.625
736.0086, 1752.126
736.4907, 1732.148
736.9728, 1735.097
737.4550, 1753.513
737.9371, 1769.496
738.4192, 1780.058
738.9013, 1786.762
739.3834, 1789.528
739.8655, 1789.306
740.3477, 1785.328
740.8298, 1779.338
741.3119, 1774.448
741.7940, 1772.028
742.2761, 1773.328
742.7582, 1782.318
743.2404, 1796.963
743.7225, 1804.169
744.2046, 1802.969
744.6867, 1806.405
745.1688, 1820.919
745.6509, 1837.705
746.1331, 1845.639
746.6152, 1844.274
747.0973, 1844.374
747.5794, 1848.140
748.0615, 1850.407
748.5436, 1844.103
749.0258, 1841.229
749.5079, 1855.609
749.9900, 1882.243
750.4721, 1903.506
750.9542, 1916.407
751.4363, 1914.097
751.9185, 1873.049
752.4006, 1822.851
752.8827, 1814.981
753.3648, 1844.811
753.8469, 1867.555
754.3290, 1859.762
754.8112, 1839.982
755.2933, 1841.714
755.7754, 1865.268
756.2575, 1872.365
756.7396, 1856.918
757.2217, 1845.867
757.7039, 1852.719
758.1860, 1866.013
758.6681, 1870.024
759.1502, 1863.382
759.6323, 1858.342
760.1144, 1853.011
760.5966, 1851.776
761.0787, 1860.427
761.5608, 1870.282
762.0429, 1872.507
762.5250, 1867.972
763.0071, 1864.059
763.4893, 1864.847
763.9714, 1866.201
764.4535, 1864.334
764.9356, 1860.153
765.4177, 1855.280
765.8998, 1849.905
766.3820, 1843.726
766.8641, 1836.580
767.3462, 1828.579
767.8283, 1818.636
768.3104, 1806.192
768.7925, 1800.926
769.2747, 1805.594
769.7568, 1809.598
770.2389, 1808.346
770.7210, 1804.830
771.2031, 1802.538
771.6852, 1801.456
772.1674, 1802.011
772.6495, 1811.885
773.1316, 1813.599
773.6137, 1789.315
774.0958, 1764.510
774.5779, 1767.619
775.0601, 1792.974
775.5422, 1811.466
776.0243, 1808.527
776.5064, 1797.976
776.9885, 1793.331
777.4706, 1789.879
777.9528, 1776.500
778.4349, 1754.747
778.9170, 1737.703
779.3991, 1732.162
779.8812, 1731.381
780.3633, 1722.449
780.8455, 1705.475
781.3276, 1707.035
781.8097, 1733.638
782.2918, 1754.441
782.7739, 1757.103
783.2560, 1752.735
783.7382, 1756.035
784.2203, 1766.905
784.7024, 1763.000
785.1845, 1725.448
785.6666, 1699.508
786.1487, 1705.038
786.6309, 1713.972
787.1130, 1702.934
787.5951, 1677.875
788.0772, 1658.227
788.5593, 1650.753
789.0414, 1648.494
789.5236, 1647.927
790.0057, 1648.700
790.4878, 1652.789
790.9699, 1657.825
791.4520, 1655.511
791.9341, 1643.132
792.4163, 1629.624
792.8984, 1627.980
793.3805, 1633.298
793.8626, 1616.768
794.3447, 1575.879
794.8268, 1546.258
795.3090, 1536.240
795.7911, 1541.902
796.2732, 1566.725
796.7552, 1603.744
797.2374, 1613.477
797.7195, 1568.325
798.2016, 1542.283
798.6837, 1554.871
799.1658, 1566.593
799.6479, 1556.561
800.1301, 1534.533
800.6122, 1516.311
801.0943, 1504.901
801.5764, 1494.237
802.0585, 1477.388
802.5406, 1464.835
803.0228, 1472.115
803.5049, 1485.638
803.9870, 1479.145
804.4691, 1451.548
804.9512, 1429.350
805.4333, 1434.636
805.9155, 1450.079
806.3976, 1441.956
806.8797, 1416.628
807.3618, 1404.957
807.8439, 1410.995
808.3260, 1419.075
808.8082, 1420.486
809.2903, 1417.239
809.7724, 1413.681
810.2545, 1410.613
810.7366, 1401.073
811.2188, 1379.040
811.7009, 1363.016
812.1830, 1364.247
812.6651, 1369.819
813.1472, 1363.520
813.6293, 1346.762
814.1115, 1337.153
814.5936, 1342.224
815.0757, 1346.430
815.5578, 1346.195
816.0399, 1343.565
816.5220, 1339.443
817.0042, 1334.438
817.4863, 1329.305
817.9684, 1324.196
818.4505, 1319.595
818.9326, 1316.677
819.4147, 1313.851
819.8969, 1307.416
820.3790, 1299.465
820.8611, 1296.826
821.3432, 1301.063
821.8253, 1306.379
822.3074, 1308.175
822.7896, 1305.839
823.2717, 1294.829
823.7538, 1275.479
824.2359, 1263.618
824.7180, 1262.629
825.2001, 1264.767
825.6823, 1265.686
826.1644, 1265.220
826.6465, 1262.733
827.1286, 1257.168
827.6107, 1253.061
828.0928, 1249.219
828.5750, 1248.535
829.0571, 1256.786
829.5392, 1265.366
830.0213, 1263.243
830.5034, 1251.310
830.9855, 1245.694
831.4677, 1256.620
831.9498, 1264.775
832.4319, 1259.628
832.9140, 1252.364
833.3961, 1254.848
833.8782, 1263.388
834.3604, 1265.204
834.8425, 1254.798
835.3246, 1245.879
835.8067, 1254.661
836.2888, 1268.073
836.7709, 1266.506
837.2531, 1254.089
837.7352, 1243.842
838.2173, 1239.635
838.6994, 1239.131
839.1815, 1240.356
839.6636, 1243.574
840.1458, 1250.279
840.6279, 1260.307
841.1100, 1270.712
841.5921, 1282.017
842.0742, 1286.246
842.5563, 1278.016
843.0385, 1261.176
843.5206, 1241.428
844.0027, 1215.588
844.4848, 1206.207
844.9669, 1222.106
845.4490, 1238.667
845.9312, 1248.757
846.4133, 1256.728
846.8954, 1272.123
847.3775, 1291.059
847.8596, 1289.713
848.3417, 1241.393
848.8239, 1209.208
849.3060, 1214.276
849.7881, 1230.323
850.2702, 1246.672
850.7523, 1259.356
851.2344, 1263.315
851.7166, 1257.414
852.1987, 1249.325
852.6808, 1242.915
853.1629, 1236.778
853.6450, 1226.425
854.1271, 1216.817
854.6093, 1219.344
855.0914, 1232.791
855.5735, 1241.526
856.0556, 1234.711
856.5377, 1224.022
857.0198, 1231.309
857.5020, 1248.689
857.9841, 1244.144
858.4662, 1218.496
858.9483, 1205.781
859.4304, 1220.277
859.9125, 1241.545
860.3947, 1244.143
860.8768, 1230.971
861.3589, 1224.890
861.8410, 1227.746
862.3231, 1226.942
862.8052, 1217.511
863.2874, 1211.641
863.7695, 1221.534
864.2516, 1238.073
864.7337, 1235.425
865.2158, 1198.069
865.6979, 1187.158
866.1801, 1237.192
866.6622, 1270.340
867.1443, 1248.656
867.6264, 1213.738
868.1085, 1206.413
868.5906, 1224.457
869.0728, 1239.551
869.5549, 1250.919
870.0370, 1251.683
870.5191, 1225.994
871.0012, 1201.562
871.4833, 1201.978
871.9655, 1219.057
872.4476, 1236.726
872.9297, 1250.471
873.4118, 1258.818
873.8939, 1259.264
874.3760, 1255.455
874.8582, 1248.904
875.3403, 1241.538
875.8224, 1234.743
876.3045, 1230.095
876.7866, 1234.503
877.2687, 1253.720
877.7509, 1271.365
878.2330, 1255.907
878.7151, 1222.154
879.1972, 1216.628
879.6793, 1238.455
880.1614, 1265.867
880.6436, 1291.591
881.1257, 1304.816
881.6078, 1291.541
882.0899, 1260.463
882.5720, 1247.213
883.0541, 1253.258
883.5363, 1260.202
884.0184, 1266.490
884.5005, 1271.000
884.9826, 1272.582
885.4647, 1272.989
885.9468, 1275.531
886.4290, 1280.732
886.9111, 1283.242
887.3932, 1279.795
887.8753, 1280.175
888.3574, 1295.236
888.8395, 1305.667
889.3217, 1288.855
889.8038, 1255.351
890.2859, 1238.041
890.7680, 1244.242
891.2501, 1251.434
891.7322, 1260.684
892.2144, 1266.701
892.6965, 1262.693
893.1786, 1257.125
893.6607, 1261.104
894.1428, 1274.270
894.6249, 1285.437
895.1071, 1291.607
895.5892, 1293.888
896.0713, 1288.989
896.5534, 1283.644
897.0355, 1284.185
897.5176, 1289.196
897.9998, 1297.349
898.4819, 1307.600
898.9640, 1309.034
899.4461, 1283.027
899.9282, 1253.887
900.4103, 1249.035
900.8925, 1259.728
901.3746, 1273.735
901.8567, 1286.921
902.3388, 1294.823
902.8209, 1295.164
903.3030, 1287.503
903.7852, 1262.964
904.2673, 1232.282
904.7494, 1227.142
905.2315, 1244.030
905.7136, 1262.737
906.1957, 1277.266
906.6779, 1281.022
907.1600, 1266.071
907.6421, 1243.484
908.1242, 1245.154
908.6063, 1269.833
909.0884, 1276.930
909.5706, 1262.103
910.0527, 1247.522
910.5348, 1241.773
911.0169, 1242.454
911.4990, 1247.416
911.9811, 1256.160
912.4633, 1263.360
912.9454, 1268.738
913.4275, 1274.500
913.9096, 1283.861
914.3917, 1286.847
914.8738, 1275.525
915.3560, 1256.244
915.8381, 1239.023
916.3202, 1222.263
916.8023, 1218.408
917.2844, 1235.708
917.7665, 1253.063
918.2487, 1274.601
918.7308, 1287.105
919.2129, 1272.747
919.6950, 1243.411
920.1771, 1231.458
920.6592, 1244.807
921.1414, 1257.017
921.6235, 1268.320
922.1056, 1274.062
922.5877, 1271.215
923.0698, 1262.949
923.5519, 1248.333
924.0341, 1230.617
924.5162, 1222.715
924.9983, 1231.794
925.4804, 1242.312
925.9625, 1246.985
926.4446, 1252.749
926.9268, 1270.861
927.4089, 1290.090
927.8910, 1290.429
928.3731, 1271.167
928.8552, 1255.169
929.3373, 1256.181
929.8195, 1259.994
930.3016, 1253.232
930.7837, 1246.708
931.2658, 1259.448
931.7479, 1281.313
932.2300, 1284.932
932.7122, 1263.053
933.1943, 1239.519
933.6764, 1229.782
934.1585, 1230.960
934.6406, 1247.073
935.1227, 1268.541
935.6049, 1276.976
936.0870, 1272.633
936.5691, 1266.941
937.0512, 1265.100
937.5333, 1261.676
938.0154, 1242.525
938.4976, 1221.538
938.9797, 1234.896
939.4618, 1271.304
939.9439, 1295.573
940.4260, 1300.550
940.9081, 1288.504
941.3903, 1259.101
941.8724, 1228.913
942.3545, 1228.391
942.8366, 1249.328
943.3187, 1254.220
943.8008, 1244.103
944.2830, 1234.372
944.7651, 1229.083
945.2472, 1232.968
945.7293, 1251.446
946.2114, 1275.611
946.6935, 1281.565
947.1757, 1270.366
947.6578, 1275.130
948.1399, 1298.879
948.6220, 1305.415
949.1041, 1280.146
949.5862, 1249.911
950.0684, 1240.673
950.5505, 1248.048
951.0326, 1257.353
951.5147, 1269.993
951.9968, 1271.556
952.4789, 1256.858
952.9611, 1250.863
953.4432, 1266.392
953.9253, 1288.224
954.4074, 1298.803
954.8895, 1299.211
955.3716, 1299.323
955.8538, 1301.478
956.3359, 1293.267
956.8180, 1264.335
957.3001, 1247.820
957.7822, 1267.416
958.2643, 1296.766
958.7465, 1297.411
959.2286, 1269.441
959.7107, 1250.873
960.1928, 1243.442
960.6749, 1241.956
961.1570, 1248.980
961.6391, 1257.354
962.1212, 1264.957
962.6033, 1270.385
963.0854, 1269.988
963.5676, 1262.474
964.0497, 1261.720
964.5318, 1276.438
965.0139, 1284.241
965.4960, 1272.340
965.9781, 1263.386
966.4603, 1276.243
966.9424, 1298.927
967.4245, 1308.847
967.9066, 1303.708
968.3887, 1298.223
968.8708, 1292.255
969.3530, 1286.959
969.8351, 1279.739
970.3172, 1275.996
970.7993, 1282.620
971.2814, 1294.540
971.7635, 1301.159
972.2457, 1301.431
972.7278, 1297.430
973.2099, 1283.568
973.6920, 1273.158
974.1741, 1268.735
974.6563, 1270.587
975.1384, 1284.807
975.6205, 1304.368
976.1026, 1311.986
976.5847, 1303.487
977.0668, 1291.815
977.5490, 1271.368
978.0311, 1258.780
978.5132, 1272.404
978.9953, 1286.622
979.4774, 1271.443
979.9595, 1238.202
980.4417, 1223.744
980.9238, 1240.714
981.4059, 1252.758
981.8880, 1241.701
982.3701, 1233.012
982.8522, 1239.895
983.3344, 1253.729
983.8165, 1272.598
984.2986, 1289.943
984.7807, 1285.987
985.2628, 1247.187
985.7449, 1222.965
986.2271, 1246.411
986.7092, 1270.439
987.1913, 1265.411
987.6734, 1251.466
988.1555, 1251.755
988.6376, 1264.064
989.1198, 1272.745
989.6019, 1272.842
990.0840, 1271.776
990.5661, 1274.919
991.0482, 1275.051
991.5303, 1263.023
992.0125, 1249.126
992.4946, 1247.679
992.9767, 1255.533
993.4588, 1256.592
993.9409, 1244.032
994.4230, 1232.363
994.9052, 1225.838
995.3873, 1224.637
995.8694, 1230.172
996.3515, 1240.226
996.8336, 1258.709
997.3157, 1279.485
997.7979, 1280.744
998.2800, 1248.557
998.7621, 1224.652
999.2442, 1235.709
999.7263, 1252.516
1000.208, 1255.466
1000.691, 1253.862
1001.173, 1261.302
1001.655, 1275.787
1002.137, 1284.882
1002.619, 1284.011
1003.101, 1280.118
1003.583, 1276.455
1004.065, 1270.745
1004.547, 1257.621
1005.030, 1244.392
1005.512, 1239.174
1005.994, 1241.935
1006.476, 1250.146
1006.958, 1265.109
1007.440, 1275.876
1007.922, 1276.998
1008.404, 1272.891
1008.887, 1260.211
1009.369, 1248.206
1009.851, 1249.315
1010.333, 1260.363
1010.815, 1269.380
1011.297, 1274.520
1011.779, 1269.757
1012.261, 1241.449
1012.743, 1215.462
1013.226, 1206.301
1013.708, 1207.575
1014.190, 1216.101
1014.672, 1228.166
1015.154, 1235.707
1015.636, 1235.440
1016.118, 1237.655
1016.600, 1248.367
1017.083, 1260.000
1017.565, 1273.565
1018.047, 1282.220
1018.529, 1276.180
1019.011, 1260.363
1019.493, 1248.228
1019.975, 1242.942
1020.457, 1239.555
1020.939, 1237.221
1021.422, 1235.464
1021.904, 1232.090
1022.386, 1230.947
1022.868, 1236.340
1023.350, 1246.374
1023.832, 1259.401
1024.314, 1277.084
1024.796, 1279.005
1025.279, 1245.380
1025.761, 1214.490
1026.243, 1196.762
1026.725, 1189.835
1027.207, 1198.256
1027.689, 1213.637
1028.171, 1220.525
1028.653, 1216.360
1029.135, 1212.369
1029.618, 1208.583
1030.100, 1208.102
1030.582, 1214.357
1031.064, 1221.456
1031.546, 1227.553
1032.028, 1231.082
1032.510, 1228.829
1032.992, 1220.375
1033.474, 1213.336
1033.957, 1214.327
1034.439, 1208.200
1034.921, 1173.474
1035.403, 1152.476
1035.885, 1183.852
1036.367, 1232.602
1036.849, 1248.378
1037.331, 1230.832
1037.814, 1217.170
1038.296, 1213.920
1038.778, 1205.099
1039.260, 1180.864
1039.742, 1163.049
1040.224, 1163.190
1040.706, 1171.925
1041.188, 1178.945
1041.671, 1184.840
1042.153, 1195.712
1042.635, 1222.310
1043.117, 1229.436
1043.599, 1205.154
1044.081, 1181.704
1044.563, 1166.745
1045.045, 1161.856
1045.527, 1172.239
1046.010, 1192.723
1046.492, 1202.124
1046.974, 1198.318
1047.456, 1188.976
1047.938, 1167.994
1048.420, 1160.541
1048.902, 1178.580
1049.384, 1200.777
1049.866, 1211.077
1050.349, 1211.456
1050.831, 1206.223
1051.313, 1194.870
1051.795, 1182.740
1052.277, 1169.104
1052.759, 1158.863
1053.241, 1152.944
1053.723, 1151.775
1054.205, 1156.247
1054.688, 1163.667
1055.170, 1169.862
1055.652, 1174.659
1056.134, 1174.705
1056.616, 1169.930
1057.098, 1173.456
1057.580, 1187.723
1058.062, 1194.105
1058.545, 1181.843
1059.027, 1172.022
1059.509, 1199.192
1059.991, 1244.085
1060.473, 1229.969
1060.955, 1170.039
1061.437, 1142.393
1061.919, 1152.613
1062.401, 1169.643
1062.884, 1181.059
1063.366, 1183.783
1063.848, 1173.906
1064.330, 1155.696
1064.812, 1127.840
1065.294, 1101.107
1065.776, 1111.021
1066.258, 1148.641
1066.740, 1175.234
1067.223, 1180.998
1067.705, 1180.069
1068.187, 1180.610
1068.669, 1183.907
1069.151, 1197.176
1069.633, 1209.926
1070.115, 1204.526
1070.597, 1187.432
1071.080, 1171.422
1071.562, 1159.201
1072.044, 1148.408
1072.526, 1137.157
1073.008, 1133.441
1073.490, 1153.865
1073.972, 1173.159
1074.454, 1162.282
1074.937, 1141.950
1075.419, 1140.534
1075.901, 1153.345
1076.383, 1158.963
1076.865, 1151.285
1077.347, 1146.245
1077.829, 1156.467
1078.311, 1163.931
1078.793, 1156.170
1079.276, 1146.036
1079.758, 1141.521
1080.240, 1142.983
1080.722, 1153.147
1081.204, 1171.153
1081.686, 1179.115
1082.168, 1174.044
1082.650, 1157.764
1083.132, 1104.344
1083.615, 1070.942
1084.097, 1104.704
1084.579, 1157.131
1085.061, 1174.088
1085.543, 1161.001
1086.025, 1150.981
1086.507, 1143.849
1086.989, 1140.639
1087.472, 1146.154
1087.954, 1146.352
1088.436, 1135.748
1088.918, 1121.554
1089.400, 1106.992
1089.882, 1094.740
1090.364, 1091.389
1090.846, 1097.505
1091.328, 1103.920
1091.811, 1111.862
1092.293, 1112.406
1092.775, 1102.564
1093.257, 1093.931
1093.739, 1092.865
1094.221, 1094.042
1094.703, 1089.800
1095.185, 1082.466
1095.667, 1083.639
1096.150, 1091.846
1096.632, 1091.407
1097.114, 1081.692
1097.596, 1070.896
1098.078, 1062.128
1098.560, 1059.856
1099.042, 1068.812
1099.524, 1082.616
1100.007, 1090.194
1100.489, 1095.145
1100.971, 1111.518
1101.453, 1131.093
1101.935, 1126.359
1102.417, 1097.592
1102.899, 1069.992
1103.381, 1055.363
1103.864, 1052.730
1104.346, 1072.441
1104.828, 1092.296
1105.310, 1085.349
1105.792, 1068.554
1106.274, 1065.679
1106.756, 1072.136
1107.238, 1070.252
1107.720, 1056.142
1108.203, 1042.839
1108.685, 1035.740
1109.167, 1031.211
1109.649, 1027.017
1110.131, 1025.722
1110.613, 1032.515
1111.095, 1040.983
1111.577, 1040.702
1112.059, 1033.394
1112.542, 1033.332
1113.024, 1047.964
1113.506, 1056.664
1113.988, 1057.267
1114.470, 1052.681
1114.952, 1038.623
1115.434, 1025.787
1115.916, 1021.922
1116.399, 1024.410
1116.881, 1028.776
1117.363, 1035.394
1117.845, 1035.135
1118.327, 1025.802
1118.809, 1020.006
1119.291, 1020.000
1119.773, 1020.210
1120.255, 1017.734
1120.738, 1016.738
1121.220, 1023.060
1121.702, 1032.253
1122.184, 1029.046
1122.666, 1015.831
1123.148, 1008.343
1123.630, 1007.023
1124.112, 1008.626
1124.594, 1012.150
1125.077, 1017.251
1125.559, 1023.924
1126.041, 1030.205
1126.523, 1034.680
1127.005, 1036.549
1127.487, 1031.690
1127.969, 1024.885
1128.451, 1027.448
1128.934, 1035.767
1129.416, 1034.307
1129.898, 1019.294
1130.380, 1008.637
1130.862, 1016.772
1131.344, 1025.800
1131.826, 1025.536
1132.308, 1021.991
1132.791, 1019.807
1133.273, 1017.257
1133.755, 1007.563
1134.237, 994.1251
1134.719, 995.8973
1135.201, 1026.592
1135.683, 1042.121
1136.165, 1026.345
1136.647, 1010.753
1137.130, 998.0281
1137.612, 993.7909
1138.094, 1006.994
1138.576, 1025.796
1139.058, 1029.056
1139.540, 1017.483
1140.022, 1012.709
1140.504, 1016.948
1140.986, 1013.708
1141.469, 999.7539
1141.951, 991.6171
1142.433, 995.5338
1142.915, 1005.699
1143.397, 1018.130
1143.879, 1029.054
1144.361, 1030.283
1144.843, 1023.534
1145.326, 1012.843
1145.808, 1000.173
1146.290, 991.1011
1146.772, 987.0296
1147.254, 989.8841
1147.736, 1000.338
1148.218, 1010.744
1148.700, 1015.540
1149.182, 1015.958
1149.665, 1010.722
1150.147, 1003.943
1150.629, 1002.287
1151.111, 1001.613
1151.593, 990.2502
1152.075, 970.5573
1152.557, 964.2433
1153.039, 984.5836
1153.521, 998.5676
1154.004, 988.7543
1154.486, 981.5993
1154.968, 994.1111
1155.450, 1006.196
1155.932, 999.0181
1156.414, 982.4282
1156.896, 972.4435
1157.378, 969.0918
1157.861, 973.4379
1158.343, 988.3560
1158.825, 1002.554
1159.307, 1018.391
1159.789, 1016.654
1160.271, 986.6938
1160.753, 958.1969
1161.235, 957.4612
1161.718, 971.9985
1162.200, 973.2881
1162.682, 966.9975
1163.164, 985.3794
1163.646, 1019.946
1164.128, 1034.006
1164.610, 1025.269
1165.092, 1013.602
1165.574, 1006.977
1166.057, 998.2014
1166.539, 973.1200
1167.021, 958.5403
1167.503, 1001.321
1167.985, 1047.893
1168.467, 1031.816
1168.949, 987.7740
1169.431, 971.7706
1169.913, 984.2605
1170.396, 994.7949
1170.878, 996.3299
1171.360, 996.1348
1171.842, 992.9745
1172.324, 992.3671
1172.806, 998.1211
1173.288, 1004.243
1173.770, 1011.510
1174.253, 1013.012
1174.735, 996.1722
1175.217, 966.0777
1175.699, 953.8762
1176.181, 962.1086
1176.663, 970.3518
1177.145, 977.9204
1177.627, 988.4627
1178.109, 1003.079
1178.592, 1011.425
1179.074, 1006.905
1179.556, 997.2219
1180.038, 991.8526
1180.520, 988.9580
1181.002, 983.3209
1181.484, 978.0023
1181.966, 982.5472
1182.448, 992.3489
1182.931, 992.9223
1183.413, 982.7689
1183.895, 973.5514
1184.377, 970.0384
1184.859, 970.4539
1185.341, 980.1925
1185.823, 985.6390
1186.305, 975.1004
1186.788, 960.8290
1187.270, 953.4911
1187.752, 950.2552
1188.234, 940.7536
1188.716, 925.1389
1189.198, 932.6851
1189.680, 982.1547
1190.162, 1003.912
1190.645, 987.5808
1191.127, 967.7864
1191.609, 952.4753
1192.091, 946.1473
1192.573, 953.3458
1193.055, 965.4860
1193.537, 967.3238
1194.019, 962.4719
1194.501, 965.3699
1194.984, 973.0836
1195.466, 975.9218
1195.948, 973.3411
1196.430, 964.3139
1196.912, 951.0784
1197.394, 949.8996
1197.876, 974.3032
1198.358, 995.7279
1198.840, 984.7300
1199.323, 972.1687
1199.805, 983.9831
1200.287, 1002.686
1200.769, 1013.965
1201.251, 1016.670
1201.733, 1010.643
1202.215, 995.8967
1202.697, 979.9298
1203.180, 951.1993
1203.662, 947.8718
1204.144, 984.3992
1204.626, 1013.090
1205.108, 1020.693
1205.590, 1015.619
1206.072, 1001.947
1206.554, 984.8996
1207.036, 970.7329
1207.519, 962.1215
1208.001, 976.1964
1208.483, 1005.017
1208.965, 1015.308
1209.447, 1008.185
1209.929, 999.4257
1210.411, 993.6911
1210.893, 989.9207
1211.375, 988.1941
1211.858, 984.2148
1212.340, 963.5321
1212.822, 953.0714
1213.304, 993.1487
1213.786, 1031.992
1214.268, 1009.978
1214.750, 959.3723
1215.232, 937.7589
1215.714, 948.0740
1216.197, 963.7925
1216.679, 992.1970
1217.161, 1003.880
1217.643, 989.5089
1218.125, 988.8275
1218.607, 1015.684
1219.089, 1035.024
1219.571, 1025.584
1220.054, 1003.154
1220.536, 984.8213
1221.018, 973.4509
1221.500, 983.6193
1221.982, 1003.984
1222.464, 999.1767
1222.946, 977.0344
1223.428, 961.6719
1223.911, 958.1851
1224.393, 965.0900
1224.875, 982.3628
1225.357, 996.9537
1225.839, 1007.889
1226.321, 1005.568
1226.803, 964.8845
1227.285, 932.8906
1227.767, 952.9932
1228.250, 987.8986
1228.732, 992.7190
1229.214, 976.1957
##END=



