##NAMES=Kainosite-(Y)
##RRUFFID=R070759
##IDEAL CHEMISTRY=Ca_2_Y_2_(SiO_3_)_4_(CO_3_)&#183;H_2_O
##LOCALITY=Bicroft mine, Cardiff Township, Haliburton Co., Ontario, Canada
##OWNER=RRUFF
##SOURCE=Michael Scott
##DESCRIPTION=Light brown prismatic crystals associated with quartz and green fluorite
##STATUS=The identification of this mineral has been confirmed only by single crystal X-ray diffraction.
##URL=rruff.info/R070759
104.3526, 4001.196
104.8347, 4019.931
105.3168, 4035.000
105.7989, 4040.010
106.2811, 4045.889
106.7632, 4056.405
107.2453, 4072.457
107.7274, 4093.453
108.2095, 4119.441
108.6916, 4157.760
109.1738, 4188.611
109.6559, 4201.677
110.1380, 4212.473
110.6201, 4236.863
111.1022, 4281.645
111.5843, 4340.279
112.0665, 4388.331
112.5486, 4419.400
113.0307, 4447.916
113.5128, 4473.420
113.9949, 4497.950
114.4770, 4526.929
114.9592, 4564.499
115.4413, 4609.768
115.9234, 4651.588
116.4055, 4685.406
116.8876, 4719.126
117.3697, 4759.450
117.8519, 4806.976
118.3340, 4854.797
118.8161, 4895.097
119.2982, 4930.313
119.7803, 4967.692
120.2624, 5014.934
120.7446, 5065.604
121.2267, 5101.733
121.7088, 5110.277
122.1909, 5121.733
122.6730, 5160.564
123.1551, 5222.462
123.6373, 5286.096
124.1194, 5334.575
124.6015, 5366.693
125.0836, 5400.680
125.5657, 5447.746
126.0478, 5490.959
126.5300, 5520.666
127.0121, 5535.598
127.4942, 5541.941
127.9763, 5548.571
128.4584, 5555.880
128.9405, 5562.619
129.4227, 5565.360
129.9048, 5569.057
130.3869, 5580.021
130.8690, 5600.961
131.3511, 5627.157
131.8332, 5641.586
132.3154, 5630.325
132.7975, 5621.632
133.2796, 5615.875
133.7617, 5615.049
134.2438, 5623.129
134.7259, 5643.849
135.2081, 5676.208
135.6902, 5700.927
136.1723, 5709.908
136.6544, 5720.240
137.1365, 5742.535
137.6186, 5775.757
138.1008, 5809.084
138.5829, 5833.974
139.0650, 5849.942
139.5471, 5863.548
140.0292, 5877.626
140.5113, 5888.358
140.9935, 5889.225
141.4756, 5877.316
141.9577, 5864.337
142.4398, 5864.369
142.9219, 5874.572
143.4040, 5882.588
143.8862, 5873.566
144.3683, 5856.494
144.8504, 5863.569
145.3325, 5912.455
145.8146, 5973.678
146.2967, 6025.244
146.7789, 6066.872
147.2610, 6101.545
147.7431, 6130.185
148.2252, 6152.558
148.7073, 6173.281
149.1894, 6188.394
149.6716, 6205.138
150.1537, 6226.956
150.6358, 6254.723
151.1179, 6288.414
151.6000, 6330.782
152.0821, 6393.504
152.5643, 6438.799
153.0464, 6442.982
153.5285, 6440.792
154.0106, 6464.653
154.4927, 6528.749
154.9748, 6619.448
155.4570, 6694.821
155.9391, 6741.503
156.4212, 6787.109
156.9033, 6828.948
157.3854, 6872.412
157.8675, 6924.937
158.3497, 6991.297
158.8318, 7070.463
159.3139, 7148.273
159.7960, 7227.232
160.2781, 7302.751
160.7602, 7374.441
161.2424, 7441.701
161.7245, 7502.679
162.2066, 7554.850
162.6887, 7597.888
163.1708, 7645.161
163.6529, 7707.903
164.1351, 7766.294
164.6172, 7804.162
165.0993, 7821.213
165.5814, 7832.045
166.0635, 7848.797
166.5456, 7871.631
167.0278, 7896.465
167.5099, 7925.163
167.9920, 7954.803
168.4741, 7981.837
168.9562, 8005.579
169.4383, 8027.443
169.9205, 8047.268
170.4026, 8065.652
170.8847, 8087.092
171.3668, 8121.083
171.8489, 8160.316
172.3310, 8181.024
172.8132, 8169.407
173.2953, 8152.371
173.7774, 8154.844
174.2595, 8175.464
174.7416, 8197.896
175.2237, 8213.596
175.7059, 8222.559
176.1880, 8222.348
176.6701, 8209.719
177.1522, 8188.741
177.6343, 8156.498
178.1164, 8113.684
178.5986, 8075.076
179.0807, 8060.926
179.5628, 8078.667
180.0449, 8089.420
180.5270, 8077.770
181.0091, 8063.559
181.4913, 8057.890
181.9734, 8063.974
182.4555, 8079.202
182.9376, 8099.872
183.4197, 8127.992
183.9018, 8158.084
184.3840, 8197.175
184.8661, 8233.802
185.3482, 8254.819
185.8303, 8255.070
186.3124, 8244.793
186.7945, 8250.606
187.2767, 8277.635
187.7588, 8317.520
188.2409, 8378.268
188.7230, 8448.345
189.2051, 8517.007
189.6872, 8580.055
190.1694, 8634.622
190.6515, 8668.147
191.1336, 8654.645
191.6157, 8648.851
192.0978, 8662.953
192.5799, 8691.038
193.0621, 8722.133
193.5442, 8749.871
194.0263, 8774.821
194.5084, 8804.172
194.9905, 8844.648
195.4726, 8881.594
195.9548, 8906.778
196.4369, 8923.255
196.9190, 8942.127
197.4011, 8973.996
197.8832, 9015.646
198.3653, 9034.276
198.8475, 9016.778
199.3296, 8990.063
199.8117, 8963.889
200.2938, 8939.979
200.7759, 8926.397
201.2580, 8935.724
201.7402, 8963.557
202.2223, 8969.901
202.7044, 8935.335
203.1865, 8890.215
203.6686, 8861.392
204.1507, 8850.757
204.6328, 8846.312
205.1150, 8846.073
205.5971, 8845.644
206.0792, 8827.649
206.5613, 8777.329
207.0434, 8711.997
207.5255, 8651.516
208.0077, 8595.294
208.4898, 8550.406
208.9719, 8533.911
209.4540, 8534.481
209.9361, 8525.773
210.4182, 8485.893
210.9004, 8431.483
211.3825, 8403.190
211.8646, 8416.299
212.3467, 8427.917
212.8288, 8406.096
213.3109, 8360.193
213.7931, 8311.679
214.2752, 8269.285
214.7573, 8232.940
215.2394, 8204.028
215.7215, 8186.885
216.2036, 8171.479
216.6858, 8147.581
217.1679, 8119.488
217.6500, 8099.640
218.1321, 8107.015
218.6142, 8137.778
219.0963, 8140.525
219.5785, 8089.021
220.0606, 8035.512
220.5427, 8007.007
221.0248, 7998.277
221.5069, 7989.684
221.9890, 7962.869
222.4712, 7916.660
222.9533, 7878.469
223.4354, 7846.592
223.9175, 7825.676
224.3996, 7828.248
224.8817, 7846.843
225.3639, 7857.962
225.8460, 7832.641
226.3281, 7761.854
226.8102, 7718.340
227.2923, 7732.471
227.7744, 7749.128
228.2566, 7745.818
228.7387, 7723.434
229.2208, 7696.419
229.7029, 7679.679
230.1850, 7675.633
230.6671, 7670.783
231.1493, 7670.088
231.6314, 7664.577
232.1135, 7644.093
232.5956, 7611.885
233.0777, 7583.164
233.5598, 7577.114
234.0420, 7604.832
234.5241, 7614.696
235.0062, 7593.438
235.4883, 7568.507
235.9704, 7555.970
236.4525, 7556.017
236.9347, 7557.594
237.4168, 7547.850
237.8989, 7523.218
238.3810, 7498.188
238.8631, 7473.150
239.3452, 7447.649
239.8274, 7419.095
240.3095, 7388.425
240.7916, 7361.932
241.2737, 7348.542
241.7558, 7358.159
242.2379, 7348.363
242.7201, 7312.591
243.2022, 7265.626
243.6843, 7209.220
244.1664, 7147.171
244.6485, 7091.791
245.1306, 7058.782
245.6128, 7058.358
246.0949, 7049.082
246.5770, 7029.348
247.0591, 7002.868
247.5412, 6968.583
248.0233, 6927.875
248.5055, 6889.052
248.9876, 6862.757
249.4697, 6855.584
249.9518, 6837.450
250.4339, 6794.318
250.9160, 6750.364
251.3982, 6725.291
251.8803, 6721.012
252.3624, 6723.840
252.8445, 6719.839
253.3266, 6707.793
253.8087, 6690.450
254.2909, 6669.330
254.7730, 6642.244
255.2551, 6604.912
255.7372, 6557.564
256.2193, 6507.067
256.7014, 6457.610
257.1836, 6407.283
257.6657, 6379.217
258.1478, 6398.820
258.6299, 6424.387
259.1120, 6416.063
259.5941, 6370.938
260.0763, 6323.553
260.5584, 6308.625
261.0405, 6332.557
261.5226, 6350.056
262.0047, 6357.002
262.4868, 6359.698
262.9690, 6363.109
263.4511, 6367.720
263.9332, 6371.125
264.4153, 6370.183
264.8974, 6364.556
265.3795, 6363.260
265.8617, 6367.308
266.3438, 6375.185
266.8259, 6385.205
267.3080, 6397.346
267.7901, 6414.046
268.2722, 6439.669
268.7544, 6473.979
269.2365, 6499.713
269.7186, 6503.658
270.2007, 6507.797
270.6828, 6535.292
271.1649, 6585.822
271.6471, 6630.755
272.1292, 6643.969
272.6113, 6629.084
273.0934, 6633.934
273.5755, 6672.888
274.0576, 6721.601
274.5398, 6768.353
275.0219, 6811.404
275.5040, 6839.687
275.9861, 6836.350
276.4682, 6809.973
276.9503, 6814.411
277.4325, 6875.066
277.9146, 6946.173
278.3967, 6995.947
278.8788, 7026.378
279.3609, 7055.449
279.8430, 7091.033
280.3252, 7135.128
280.8073, 7189.937
281.2894, 7271.652
281.7715, 7349.384
282.2536, 7401.747
282.7357, 7431.780
283.2179, 7455.460
283.7000, 7478.698
284.1821, 7502.776
284.6642, 7530.468
285.1463, 7555.512
285.6284, 7591.412
286.1106, 7654.002
286.5927, 7736.655
287.0748, 7811.631
287.5569, 7867.072
288.0390, 7906.452
288.5211, 7940.439
289.0033, 7966.949
289.4854, 7992.397
289.9675, 8013.760
290.4496, 8035.472
290.9317, 8073.997
291.4138, 8142.032
291.8960, 8221.872
292.3781, 8277.674
292.8602, 8307.425
293.3423, 8326.631
293.8244, 8334.559
294.3065, 8336.604
294.7887, 8346.447
295.2708, 8370.540
295.7529, 8399.896
296.2350, 8416.724
296.7171, 8418.057
297.1992, 8424.213
297.6814, 8444.508
298.1635, 8473.177
298.6456, 8499.157
299.1277, 8518.521
299.6098, 8538.440
300.0919, 8572.694
300.5741, 8622.975
301.0562, 8665.803
301.5383, 8687.908
302.0204, 8702.091
302.5025, 8726.653
302.9846, 8765.854
303.4668, 8808.631
303.9489, 8842.560
304.4310, 8867.002
304.9131, 8892.959
305.3952, 8908.028
305.8773, 8932.737
306.3595, 9000.293
306.8416, 9114.813
307.3237, 9225.188
307.8058, 9276.710
308.2879, 9266.794
308.7701, 9288.523
309.2522, 9373.114
309.7343, 9471.051
310.2164, 9544.854
310.6985, 9592.901
311.1806, 9632.505
311.6628, 9677.793
312.1449, 9726.670
312.6270, 9760.167
313.1091, 9765.005
313.5912, 9766.806
314.0733, 9783.019
314.5555, 9810.232
315.0376, 9832.602
315.5197, 9839.986
316.0018, 9834.243
316.4839, 9827.796
316.9660, 9826.271
317.4482, 9818.347
317.9303, 9795.603
318.4124, 9763.025
318.8945, 9730.479
319.3766, 9701.572
319.8587, 9678.353
320.3409, 9670.054
320.8230, 9696.672
321.3051, 9708.993
321.7872, 9686.156
322.2693, 9645.295
322.7514, 9613.713
323.2336, 9602.337
323.7157, 9598.582
324.1978, 9576.319
324.6799, 9522.314
325.1620, 9473.190
325.6441, 9434.771
326.1263, 9401.187
326.6083, 9364.736
327.0905, 9323.869
327.5726, 9285.510
328.0547, 9260.240
328.5368, 9259.570
329.0189, 9242.539
329.5010, 9204.872
329.9832, 9155.018
330.4653, 9096.320
330.9474, 9030.477
331.4295, 8960.123
331.9116, 8887.286
332.3937, 8810.865
332.8759, 8738.597
333.3580, 8675.488
333.8401, 8611.206
334.3222, 8539.819
334.8043, 8462.754
335.2864, 8384.489
335.7686, 8308.422
336.2507, 8234.535
336.7328, 8161.539
337.2149, 8080.460
337.6970, 8010.137
338.1791, 7966.738
338.6613, 7935.861
339.1434, 7889.707
339.6255, 7809.924
340.1076, 7709.729
340.5897, 7646.366
341.0718, 7667.716
341.5540, 7667.006
342.0361, 7616.839
342.5182, 7546.051
343.0003, 7483.682
343.4824, 7441.302
343.9645, 7414.949
344.4467, 7398.484
344.9288, 7401.945
345.4109, 7395.645
345.8930, 7373.716
346.3751, 7345.853
346.8572, 7316.888
347.3394, 7288.811
347.8215, 7263.119
348.3036, 7241.198
348.7857, 7222.043
349.2678, 7210.458
349.7499, 7214.207
350.2321, 7219.129
350.7142, 7219.813
351.1963, 7215.815
351.6784, 7208.311
352.1605, 7194.267
352.6426, 7174.323
353.1248, 7171.521
353.6069, 7199.827
354.0890, 7229.295
354.5711, 7248.806
355.0532, 7260.639
355.5353, 7269.739
356.0175, 7277.417
356.4996, 7285.122
356.9817, 7297.163
357.4638, 7314.730
357.9459, 7334.248
358.4280, 7355.702
358.9102, 7377.606
359.3923, 7397.429
359.8744, 7413.074
360.3565, 7429.637
360.8386, 7455.134
361.3207, 7490.750
361.8029, 7525.396
362.2850, 7553.583
362.7671, 7580.561
363.2492, 7610.228
363.7313, 7642.756
364.2134, 7679.615
364.6956, 7729.928
365.1777, 7788.692
365.6598, 7826.408
366.1419, 7825.770
366.6240, 7818.358
367.1061, 7837.058
367.5883, 7879.837
368.0704, 7928.123
368.5525, 7977.287
369.0346, 8026.108
369.5167, 8072.518
369.9988, 8116.413
370.4810, 8157.401
370.9631, 8193.313
371.4452, 8225.594
371.9273, 8262.324
372.4094, 8309.749
372.8915, 8358.199
373.3737, 8393.708
373.8558, 8419.154
374.3379, 8459.326
374.8200, 8534.134
375.3021, 8633.795
375.7842, 8715.248
376.2664, 8762.639
376.7485, 8812.616
377.2306, 8879.407
377.7127, 8958.092
378.1948, 9041.108
378.6769, 9126.497
379.1591, 9209.354
379.6412, 9276.301
380.1233, 9307.140
380.6054, 9360.481
381.0875, 9451.258
381.5696, 9560.220
382.0518, 9671.366
382.5339, 9780.798
383.0160, 9888.227
383.4981, 9991.751
383.9802, 10088.68
384.4623, 10194.96
384.9445, 10322.54
385.4266, 10446.95
385.9087, 10545.73
386.3908, 10629.77
386.8729, 10730.00
387.3550, 10872.00
387.8372, 11051.03
388.3193, 11212.38
388.8014, 11339.58
389.2835, 11466.53
389.7656, 11591.90
390.2477, 11722.08
390.7299, 11866.20
391.2120, 12028.51
391.6941, 12200.69
392.1762, 12367.44
392.6583, 12525.27
393.1404, 12682.92
393.6226, 12848.35
394.1047, 13009.38
394.5868, 13153.86
395.0689, 13281.74
395.5510, 13407.71
396.0331, 13549.13
396.5153, 13705.61
396.9974, 13858.68
397.4795, 14013.05
397.9616, 14155.97
398.4437, 14283.44
398.9258, 14394.86
399.4080, 14489.11
399.8901, 14552.05
400.3722, 14601.34
400.8543, 14690.79
401.3364, 14840.25
401.8185, 14951.53
402.3007, 14939.32
402.7828, 14862.85
403.2649, 14808.89
403.7470, 14798.91
404.2291, 14802.47
404.7112, 14801.13
405.1934, 14793.82
405.6755, 14776.52
406.1576, 14752.58
406.6397, 14710.75
407.1218, 14626.44
407.6039, 14493.51
408.0861, 14362.06
408.5682, 14260.58
409.0503, 14164.96
409.5324, 14038.34
410.0145, 13874.35
410.4966, 13702.24
410.9788, 13552.68
411.4609, 13430.34
411.9430, 13291.57
412.4251, 13127.09
412.9072, 12955.23
413.3893, 12787.62
413.8715, 12621.30
414.3536, 12439.33
414.8357, 12226.27
415.3178, 11997.59
415.7999, 11823.15
416.2820, 11773.92
416.7642, 11693.49
417.2463, 11547.98
417.7284, 11372.94
418.2105, 11201.46
418.6926, 11045.02
419.1747, 10901.02
419.6569, 10766.46
420.1390, 10645.02
420.6211, 10524.59
421.1032, 10395.06
421.5853, 10275.63
422.0674, 10183.43
422.5496, 10111.96
423.0317, 10037.56
423.5138, 9940.364
423.9959, 9824.885
424.4780, 9714.910
424.9601, 9607.329
425.4423, 9512.704
425.9244, 9435.967
426.4065, 9372.280
426.8886, 9318.101
427.3707, 9276.647
427.8528, 9233.498
428.3350, 9167.425
428.8171, 9077.895
429.2992, 8990.983
429.7813, 8915.596
430.2634, 8844.287
430.7455, 8765.263
431.2277, 8677.311
431.7098, 8601.361
432.1919, 8554.625
432.6740, 8524.843
433.1561, 8489.674
433.6382, 8446.093
434.1204, 8399.307
434.6025, 8351.813
435.0846, 8304.080
435.5667, 8261.145
436.0488, 8223.095
436.5309, 8189.993
437.0131, 8166.631
437.4952, 8148.718
437.9773, 8123.074
438.4594, 8082.214
438.9415, 8032.427
439.4236, 7990.763
439.9058, 7957.931
440.3879, 7932.288
440.8700, 7917.960
441.3521, 7908.188
441.8342, 7900.604
442.3163, 7892.899
442.7985, 7877.585
443.2806, 7843.436
443.7627, 7785.576
444.2448, 7744.644
444.7269, 7739.686
445.2090, 7732.731
445.6912, 7710.999
446.1733, 7678.770
446.6554, 7645.340
447.1375, 7615.506
447.6196, 7587.726
448.1017, 7556.031
448.5839, 7515.673
449.0660, 7485.026
449.5481, 7478.082
450.0302, 7476.981
450.5123, 7470.693
450.9944, 7457.379
451.4766, 7435.805
451.9587, 7398.600
452.4408, 7350.494
452.9229, 7315.978
453.4050, 7303.066
453.8871, 7291.920
454.3693, 7259.671
454.8514, 7214.555
455.3335, 7182.680
455.8156, 7176.763
456.2977, 7180.901
456.7798, 7186.535
457.2620, 7191.721
457.7441, 7184.951
458.2262, 7157.374
458.7083, 7118.644
459.1904, 7095.616
459.6725, 7096.259
460.1547, 7094.530
460.6368, 7079.594
461.1189, 7063.395
461.6010, 7064.000
462.0831, 7082.257
462.5652, 7095.742
463.0474, 7077.093
463.5295, 7018.812
464.0116, 6994.599
464.4937, 7037.874
464.9758, 7077.468
465.4579, 7090.445
465.9401, 7084.328
466.4222, 7073.601
466.9043, 7065.332
467.3864, 7057.726
467.8685, 7046.920
468.3506, 7032.418
468.8328, 7016.011
469.3149, 6999.310
469.7970, 6979.892
470.2791, 6952.047
470.7612, 6917.187
471.2433, 6888.216
471.7255, 6876.842
472.2076, 6879.451
472.6897, 6884.451
473.1718, 6893.181
473.6539, 6898.811
474.1360, 6895.992
474.6182, 6886.884
475.1003, 6875.413
475.5824, 6861.607
476.0645, 6846.294
476.5466, 6823.425
477.0287, 6798.764
477.5109, 6792.772
477.9930, 6815.248
478.4751, 6849.014
478.9572, 6866.313
479.4393, 6859.229
479.9214, 6861.271
480.4036, 6877.530
480.8857, 6900.675
481.3678, 6926.089
481.8499, 6953.562
482.3320, 6984.659
482.8141, 7020.641
483.2963, 7061.127
483.7784, 7104.335
484.2605, 7165.239
484.7426, 7207.694
485.2247, 7220.933
485.7068, 7217.574
486.1890, 7206.955
486.6711, 7192.356
487.1532, 7176.915
487.6353, 7165.704
488.1174, 7159.157
488.5995, 7147.023
489.0817, 7133.095
489.5638, 7106.801
490.0459, 7051.286
490.5280, 6980.615
491.0101, 6927.146
491.4922, 6908.223
491.9743, 6907.190
492.4565, 6910.381
492.9386, 6916.859
493.4207, 6912.626
493.9028, 6889.654
494.3849, 6856.463
494.8670, 6822.729
495.3492, 6781.058
495.8313, 6766.142
496.3134, 6812.937
496.7955, 6873.859
497.2776, 6898.762
497.7597, 6885.345
498.2419, 6861.555
498.7240, 6847.425
499.2061, 6843.172
499.6882, 6851.928
500.1703, 6883.440
500.6524, 6916.265
501.1346, 6954.325
501.6167, 6988.521
502.0988, 7003.211
502.5809, 6995.697
503.0630, 6988.477
503.5451, 7014.554
504.0273, 7079.565
504.5094, 7137.014
504.9915, 7182.412
505.4736, 7223.449
505.9557, 7262.452
506.4378, 7300.205
506.9200, 7339.507
507.4021, 7387.446
507.8842, 7430.167
508.3663, 7435.962
508.8484, 7406.897
509.3305, 7407.722
509.8127, 7471.113
510.2948, 7562.726
510.7769, 7631.616
511.2590, 7676.476
511.7411, 7716.583
512.2233, 7757.461
512.7054, 7795.157
513.1875, 7820.800
513.6696, 7836.780
514.1517, 7861.675
514.6339, 7911.821
515.1160, 7980.086
515.5981, 8019.178
516.0802, 8003.033
516.5623, 7989.094
517.0444, 7979.354
517.5266, 7976.174
518.0087, 7983.054
518.4908, 7999.904
518.9729, 8021.261
519.4550, 8041.247
519.9371, 8059.769
520.4193, 8081.884
520.9014, 8115.610
521.3835, 8140.373
521.8656, 8140.631
522.3477, 8128.823
522.8298, 8124.439
523.3120, 8134.402
523.7941, 8150.885
524.2762, 8167.998
524.7583, 8185.394
525.2404, 8201.836
525.7225, 8217.204
526.2047, 8230.906
526.6868, 8243.367
527.1689, 8254.878
527.6510, 8258.363
528.1331, 8243.301
528.6152, 8228.732
529.0974, 8233.543
529.5795, 8249.600
530.0616, 8251.540
530.5437, 8225.396
531.0258, 8184.542
531.5079, 8161.857
531.9901, 8165.558
532.4722, 8173.520
532.9543, 8195.628
533.4364, 8212.648
533.9185, 8211.933
534.4006, 8194.730
534.8828, 8169.888
535.3649, 8143.213
535.8470, 8113.919
536.3291, 8076.441
536.8112, 8025.237
537.2933, 7986.869
537.7755, 7980.359
538.2576, 7986.847
538.7397, 7986.190
539.2218, 7977.078
539.7039, 7961.252
540.1860, 7943.908
540.6682, 7918.694
541.1503, 7870.080
541.6324, 7797.245
542.1145, 7726.325
542.5966, 7679.473
543.0787, 7651.976
543.5609, 7603.074
544.0430, 7505.296
544.5251, 7423.191
545.0072, 7383.340
545.4893, 7358.578
545.9714, 7320.316
546.4536, 7262.305
546.9357, 7195.492
547.4178, 7130.204
547.8999, 7066.217
548.3820, 7008.941
548.8641, 6962.539
549.3463, 6916.919
549.8284, 6868.708
550.3105, 6818.742
550.7926, 6768.482
551.2747, 6719.376
551.7568, 6666.423
552.2390, 6597.794
552.7211, 6519.811
553.2032, 6461.458
553.6853, 6431.419
554.1674, 6409.501
554.6495, 6380.113
555.1317, 6342.281
555.6138, 6294.818
556.0959, 6224.931
556.5780, 6158.447
557.0601, 6103.431
557.5422, 6061.047
558.0244, 6038.803
558.5065, 6038.643
558.9886, 6041.702
559.4707, 6015.850
559.9528, 5948.085
560.4349, 5903.907
560.9171, 5916.544
561.3992, 5920.947
561.8813, 5890.357
562.3634, 5836.226
562.8455, 5779.111
563.3276, 5725.604
563.8098, 5679.507
564.2919, 5650.803
564.7740, 5638.032
565.2561, 5616.214
565.7382, 5575.779
566.2203, 5531.547
566.7025, 5501.047
567.1846, 5482.639
567.6667, 5460.121
568.1488, 5421.739
568.6309, 5387.019
569.1130, 5374.654
569.5952, 5375.630
570.0773, 5367.158
570.5594, 5339.715
571.0415, 5302.127
571.5236, 5268.771
572.0057, 5233.905
572.4879, 5219.185
572.9700, 5250.177
573.4520, 5274.875
573.9341, 5267.473
574.4163, 5236.771
574.8984, 5203.250
575.3805, 5175.588
575.8626, 5153.086
576.3447, 5135.332
576.8268, 5122.387
577.3090, 5110.161
577.7911, 5095.105
578.2732, 5084.517
578.7553, 5091.494
579.2374, 5113.462
579.7195, 5125.500
580.2017, 5117.275
580.6838, 5102.798
581.1659, 5092.954
581.6480, 5084.648
582.1301, 5065.219
582.6122, 5028.828
583.0944, 4991.402
583.5765, 4983.930
584.0586, 5025.908
584.5407, 5041.995
585.0228, 5003.544
585.5049, 4969.453
585.9871, 4967.325
586.4692, 4987.448
586.9513, 5008.273
587.4334, 5020.597
587.9155, 5027.435
588.3976, 5032.231
588.8798, 5035.063
589.3619, 5036.914
589.8440, 5036.728
590.3261, 5037.943
590.8082, 5045.794
591.2903, 5059.161
591.7725, 5069.340
592.2546, 5071.181
592.7367, 5073.429
593.2188, 5079.617
593.7009, 5090.167
594.1830, 5106.656
594.6652, 5129.471
595.1473, 5154.822
595.6294, 5178.505
596.1115, 5202.891
596.5936, 5214.002
597.0757, 5187.129
597.5579, 5172.909
598.0400, 5198.502
598.5221, 5243.767
599.0042, 5276.685
599.4863, 5284.301
599.9684, 5284.936
600.4506, 5297.565
600.9327, 5320.101
601.4148, 5341.755
601.8969, 5360.060
602.3790, 5380.759
602.8611, 5412.077
603.3433, 5451.595
603.8254, 5477.832
604.3075, 5477.920
604.7896, 5480.022
605.2717, 5491.343
605.7538, 5511.240
606.2360, 5540.015
606.7181, 5577.003
607.2002, 5619.351
607.6823, 5665.138
608.1644, 5714.169
608.6465, 5756.847
609.1287, 5787.661
609.6108, 5821.522
610.0929, 5865.420
610.5750, 5913.292
611.0571, 5958.837
611.5392, 6000.696
612.0214, 6042.896
612.5035, 6086.586
612.9856, 6132.614
613.4677, 6184.196
613.9498, 6241.521
614.4319, 6299.362
614.9141, 6356.784
615.3962, 6411.174
615.8783, 6454.124
616.3604, 6487.361
616.8425, 6506.292
617.3246, 6499.354
617.8068, 6486.723
618.2889, 6491.387
618.7710, 6506.700
619.2531, 6503.704
619.7352, 6460.209
620.2173, 6388.032
620.6995, 6315.081
621.1816, 6239.861
621.6637, 6174.047
622.1458, 6130.838
622.6279, 6087.339
623.1100, 6013.528
623.5922, 5912.036
624.0743, 5824.724
624.5564, 5775.041
625.0385, 5732.938
625.5206, 5673.719
626.0027, 5603.048
626.4849, 5535.649
626.9670, 5477.680
627.4491, 5428.511
627.9312, 5390.315
628.4133, 5369.337
628.8954, 5334.297
629.3776, 5264.727
629.8597, 5202.123
630.3418, 5166.649
630.8239, 5144.635
631.3060, 5114.136
631.7881, 5067.351
632.2703, 5015.863
632.7524, 4968.655
633.2345, 4925.911
633.7166, 4887.933
634.1987, 4854.583
634.6808, 4828.211
635.1630, 4813.974
635.6451, 4808.525
636.1272, 4789.909
636.6093, 4753.965
637.0914, 4712.604
637.5735, 4655.635
638.0557, 4602.055
638.5378, 4573.609
639.0199, 4568.708
639.5020, 4568.104
639.9841, 4559.154
640.4662, 4541.004
640.9484, 4507.037
641.4305, 4451.481
641.9126, 4406.049
642.3947, 4387.533
642.8768, 4375.681
643.3589, 4347.364
643.8411, 4303.145
644.3232, 4262.714
644.8053, 4229.342
645.2874, 4203.632
645.7695, 4193.200
646.2516, 4190.767
646.7338, 4175.898
647.2159, 4140.632
647.6980, 4101.278
648.1801, 4085.537
648.6622, 4102.653
649.1443, 4095.961
649.6265, 4040.906
650.1086, 3990.795
650.5907, 3966.724
651.0728, 3956.496
651.5549, 3944.145
652.0370, 3926.268
652.5192, 3900.757
653.0013, 3856.035
653.4834, 3804.613
653.9655, 3776.996
654.4476, 3776.129
654.9297, 3778.371
655.4119, 3768.995
655.8940, 3750.381
656.3761, 3731.835
656.8582, 3714.533
657.3403, 3695.576
657.8224, 3672.468
658.3046, 3649.700
658.7867, 3632.035
659.2688, 3617.470
659.7509, 3598.896
660.2330, 3570.227
660.7151, 3539.256
661.1973, 3523.601
661.6794, 3522.341
662.1615, 3505.188
662.6436, 3457.865
663.1257, 3411.128
663.6078, 3399.255
664.0900, 3420.313
664.5721, 3426.126
665.0542, 3404.312
665.5363, 3380.317
666.0184, 3361.977
666.5005, 3347.419
666.9827, 3336.010
667.4648, 3326.502
667.9469, 3313.741
668.4290, 3291.722
668.9111, 3262.227
669.3932, 3235.309
669.8754, 3209.654
670.3575, 3190.871
670.8396, 3185.290
671.3217, 3183.953
671.8038, 3176.314
672.2859, 3162.116
672.7681, 3147.988
673.2502, 3135.905
673.7323, 3124.494
674.2144, 3112.746
674.6965, 3100.792
675.1786, 3088.410
675.6608, 3075.621
676.1429, 3064.299
676.6250, 3057.883
677.1071, 3057.246
677.5892, 3054.748
678.0714, 3051.121
678.5535, 3044.500
679.0356, 3033.184
679.5177, 3019.205
679.9998, 3004.401
680.4819, 2988.622
680.9641, 2975.250
681.4462, 2966.109
681.9283, 2960.633
682.4104, 2961.564
682.8925, 2966.872
683.3746, 2965.660
683.8568, 2951.749
684.3389, 2928.870
684.8210, 2904.800
685.3031, 2875.642
685.7852, 2854.585
686.2673, 2849.491
686.7495, 2844.537
687.2316, 2831.937
687.7137, 2815.153
688.1958, 2802.309
688.6779, 2797.728
689.1600, 2790.582
689.6422, 2766.209
690.1243, 2733.681
690.6064, 2715.960
691.0885, 2715.526
691.5706, 2713.360
692.0527, 2695.535
692.5349, 2666.615
693.0170, 2644.156
693.4991, 2627.729
693.9812, 2619.197
694.4633, 2628.290
694.9454, 2635.932
695.4276, 2625.935
695.9097, 2604.833
696.3918, 2592.060
696.8739, 2598.478
697.3560, 2612.028
697.8381, 2620.464
698.3203, 2624.500
698.8024, 2625.831
699.2845, 2624.461
699.7666, 2624.397
700.2487, 2630.151
700.7308, 2640.233
701.2130, 2642.724
701.6951, 2634.895
702.1772, 2622.740
702.6593, 2601.010
703.1414, 2579.593
703.6235, 2561.796
704.1057, 2550.599
704.5878, 2553.241
705.0699, 2579.764
705.5520, 2612.688
706.0341, 2628.611
706.5162, 2628.783
706.9984, 2618.950
707.4805, 2599.073
707.9626, 2576.982
708.4447, 2560.327
708.9268, 2548.703
709.4089, 2534.161
709.8911, 2513.607
710.3732, 2494.357
710.8553, 2472.389
711.3374, 2455.821
711.8195, 2456.606
712.3016, 2471.198
712.7838, 2480.905
713.2659, 2472.255
713.7480, 2454.039
714.2301, 2439.536
714.7122, 2428.359
715.1943, 2416.572
715.6765, 2402.428
716.1586, 2391.494
716.6407, 2391.755
717.1228, 2403.122
717.6049, 2400.304
718.0870, 2367.476
718.5692, 2342.133
719.0513, 2329.100
719.5334, 2327.386
720.0155, 2345.556
720.4976, 2377.063
720.9797, 2392.605
721.4619, 2363.941
721.9440, 2318.318
722.4261, 2302.631
722.9082, 2313.017
723.3903, 2321.203
723.8724, 2320.049
724.3546, 2313.604
724.8367, 2305.453
725.3188, 2295.577
725.8009, 2285.228
726.2830, 2270.062
726.7651, 2259.998
727.2473, 2261.654
727.7294, 2265.515
728.2115, 2261.023
728.6936, 2249.453
729.1757, 2242.705
729.6578, 2251.433
730.1400, 2265.258
730.6221, 2267.659
731.1042, 2261.111
731.5863, 2259.498
732.0684, 2267.176
732.5505, 2273.245
733.0327, 2265.240
733.5148, 2244.114
733.9969, 2233.166
734.4790, 2242.223
734.9611, 2248.856
735.4432, 2248.404
735.9254, 2246.247
736.4075, 2248.146
736.8896, 2252.933
737.3717, 2253.437
737.8538, 2244.095
738.3359, 2231.063
738.8181, 2219.289
739.3002, 2209.527
739.7823, 2204.906
740.2644, 2206.142
740.7465, 2210.224
741.2286, 2215.571
741.7108, 2221.196
742.1929, 2217.520
742.6750, 2192.966
743.1571, 2179.154
743.6392, 2191.220
744.1213, 2204.854
744.6035, 2200.126
745.0856, 2182.071
745.5677, 2172.968
746.0498, 2187.589
746.5319, 2204.445
747.0140, 2203.209
747.4962, 2192.296
747.9783, 2188.054
748.4604, 2192.996
748.9425, 2200.989
749.4246, 2208.131
749.9067, 2213.261
750.3889, 2210.443
750.8710, 2194.670
751.3531, 2185.322
751.8352, 2192.156
752.3173, 2198.025
752.7994, 2188.445
753.2816, 2169.814
753.7637, 2160.366
754.2458, 2169.345
754.7279, 2177.815
755.2100, 2171.664
755.6921, 2162.313
756.1743, 2165.447
756.6564, 2180.185
757.1385, 2194.411
757.6206, 2200.535
758.1027, 2202.103
758.5848, 2205.701
759.0670, 2211.068
759.5491, 2221.716
760.0312, 2240.935
760.5133, 2259.673
760.9954, 2271.500
761.4775, 2278.852
761.9597, 2287.733
762.4418, 2297.463
762.9239, 2310.462
763.4060, 2327.748
763.8881, 2348.036
764.3702, 2367.770
764.8524, 2390.102
765.3345, 2425.815
765.8166, 2480.070
766.2987, 2533.409
766.7808, 2556.042
767.2629, 2554.333
767.7451, 2565.571
768.2272, 2594.227
768.7093, 2615.190
769.1914, 2616.359
769.6735, 2601.774
770.1556, 2578.287
770.6378, 2542.030
771.1199, 2507.634
771.6020, 2474.614
772.0841, 2443.752
772.5662, 2417.176
773.0483, 2392.221
773.5305, 2363.074
774.0126, 2328.840
774.4947, 2301.242
774.9768, 2292.921
775.4589, 2294.552
775.9410, 2292.434
776.4232, 2286.641
776.9053, 2279.253
777.3874, 2270.971
777.8695, 2262.045
778.3516, 2251.949
778.8337, 2240.513
779.3159, 2237.166
779.7980, 2249.044
780.2801, 2257.249
780.7622, 2254.363
781.2443, 2248.338
781.7264, 2245.836
782.2086, 2246.615
782.6907, 2245.575
783.1728, 2241.240
783.6549, 2234.319
784.1370, 2223.614
784.6191, 2211.305
785.1013, 2197.787
785.5834, 2184.942
786.0655, 2182.668
786.5476, 2202.385
787.0297, 2231.023
787.5118, 2225.037
787.9940, 2179.372
788.4761, 2150.630
788.9582, 2153.594
789.4403, 2163.890
789.9224, 2163.243
790.4045, 2154.452
790.8867, 2150.849
791.3688, 2155.086
791.8509, 2160.108
792.3330, 2169.530
792.8151, 2175.288
793.2972, 2168.946
793.7794, 2154.644
794.2615, 2141.909
794.7436, 2134.573
795.2257, 2131.118
795.7078, 2129.665
796.1899, 2130.927
796.6721, 2139.801
797.1542, 2155.754
797.6363, 2164.637
798.1184, 2158.669
798.6005, 2144.570
799.0826, 2133.734
799.5648, 2125.240
800.0469, 2124.087
800.5290, 2134.116
801.0111, 2146.416
801.4932, 2162.355
801.9753, 2176.460
802.4575, 2181.934
802.9396, 2178.166
803.4217, 2171.843
803.9038, 2159.965
804.3859, 2151.774
804.8680, 2156.841
805.3502, 2169.678
805.8323, 2181.515
806.3144, 2189.936
806.7965, 2195.691
807.2786, 2199.383
807.7607, 2201.016
808.2429, 2200.524
808.7250, 2197.896
809.2071, 2191.862
809.6892, 2178.623
810.1713, 2171.983
810.6534, 2190.022
811.1356, 2226.793
811.6177, 2238.176
812.0998, 2200.898
812.5819, 2172.687
813.0640, 2162.563
813.5461, 2158.741
814.0283, 2156.828
814.5104, 2154.526
814.9925, 2147.898
815.4746, 2134.426
815.9567, 2121.572
816.4388, 2117.563
816.9210, 2117.023
817.4031, 2110.201
817.8852, 2097.704
818.3673, 2087.201
818.8494, 2082.469
819.3315, 2078.400
819.8137, 2066.246
820.2958, 2045.361
820.7779, 2027.076
821.2600, 2012.324
821.7421, 1997.662
822.2242, 1981.658
822.7064, 1965.398
823.1885, 1950.269
823.6706, 1936.216
824.1527, 1923.041
824.6348, 1909.741
825.1169, 1898.453
825.5991, 1895.240
826.0812, 1891.123
826.5633, 1872.987
827.0454, 1842.690
827.5275, 1816.400
828.0096, 1804.661
828.4918, 1800.533
828.9739, 1797.383
829.4560, 1794.048
829.9381, 1786.547
830.4202, 1774.318
830.9023, 1759.219
831.3845, 1741.734
831.8666, 1724.179
832.3487, 1713.862
832.8308, 1714.142
833.3129, 1709.633
833.7950, 1694.125
834.2772, 1682.021
834.7593, 1683.294
835.2414, 1691.209
835.7235, 1697.531
836.2056, 1702.760
836.6877, 1700.974
837.1699, 1684.151
837.6520, 1666.634
838.1341, 1657.057
838.6162, 1652.486
839.0983, 1648.483
839.5804, 1643.759
840.0626, 1638.279
840.5447, 1630.100
841.0268, 1622.698
841.5089, 1625.829
841.9910, 1636.541
842.4731, 1636.927
842.9553, 1622.419
843.4374, 1610.839
843.9195, 1619.081
844.4016, 1640.965
844.8837, 1646.641
845.3658, 1626.275
845.8480, 1616.827
846.3301, 1632.260
846.8122, 1646.164
847.2943, 1638.038
847.7764, 1619.214
848.2585, 1612.038
848.7407, 1621.598
849.2228, 1632.367
849.7049, 1645.291
850.1870, 1653.074
850.6691, 1645.760
851.1512, 1631.472
851.6334, 1623.557
852.1155, 1625.795
852.5976, 1633.395
853.0797, 1645.064
853.5618, 1657.845
854.0439, 1664.981
854.5261, 1667.824
855.0082, 1673.169
855.4903, 1682.834
855.9724, 1694.192
856.4545, 1705.396
856.9366, 1715.926
857.4188, 1722.860
857.9009, 1724.907
858.3830, 1727.776
858.8651, 1734.086
859.3472, 1738.715
859.8293, 1735.112
860.3115, 1727.840
860.7936, 1728.032
861.2757, 1737.877
861.7578, 1750.633
862.2399, 1770.764
862.7220, 1787.636
863.2042, 1789.295
863.6863, 1785.571
864.1684, 1793.957
864.6505, 1818.284
865.1326, 1842.994
865.6147, 1857.538
866.0969, 1865.333
866.5790, 1866.251
867.0611, 1864.527
867.5432, 1875.426
868.0253, 1901.687
868.5074, 1926.691
868.9896, 1935.249
869.4717, 1932.709
869.9538, 1937.218
870.4359, 1948.978
870.9180, 1967.414
871.4001, 1996.302
871.8823, 2022.320
872.3644, 2035.477
872.8465, 2040.243
873.3286, 2048.558
873.8107, 2061.405
874.2928, 2075.964
874.7750, 2093.557
875.2571, 2111.273
875.7392, 2128.003
876.2213, 2144.164
876.7034, 2159.697
877.1855, 2174.823
877.6677, 2191.666
878.1498, 2210.945
878.6319, 2232.875
879.1140, 2262.649
879.5961, 2293.092
880.0782, 2307.996
880.5604, 2308.850
881.0425, 2317.756
881.5246, 2351.976
882.0067, 2395.383
882.4888, 2417.664
882.9709, 2421.986
883.4531, 2428.814
883.9352, 2440.438
884.4173, 2452.440
884.8994, 2461.408
885.3815, 2472.411
885.8636, 2496.434
886.3458, 2537.354
886.8279, 2569.221
887.3100, 2588.637
887.7921, 2604.983
888.2742, 2620.006
888.7563, 2634.163
889.2385, 2647.324
889.7206, 2659.668
890.2027, 2673.221
890.6848, 2686.645
891.1669, 2703.528
891.6490, 2730.136
892.1312, 2756.529
892.6133, 2772.513
893.0954, 2780.735
893.5775, 2789.157
894.0596, 2800.025
894.5417, 2817.478
895.0239, 2850.132
895.5060, 2888.800
895.9881, 2921.793
896.4702, 2947.633
896.9523, 2961.831
897.4344, 2963.445
897.9166, 2964.477
898.3987, 2979.325
898.8808, 3004.563
899.3629, 3025.673
899.8450, 3042.679
900.3271, 3052.899
900.8093, 3053.398
901.2914, 3056.675
901.7735, 3075.953
902.2556, 3104.653
902.7377, 3114.338
903.2198, 3089.918
903.7019, 3078.151
904.1840, 3090.307
904.6661, 3103.281
905.1483, 3112.076
905.6304, 3113.721
906.1125, 3101.949
906.5946, 3074.958
907.0767, 3048.717
907.5588, 3023.519
908.0410, 3003.838
908.5231, 2999.697
909.0052, 2997.328
909.4873, 2979.280
909.9694, 2946.066
910.4515, 2911.048
910.9337, 2879.923
911.4158, 2853.068
911.8979, 2834.776
912.3800, 2819.275
912.8621, 2796.401
913.3442, 2765.940
913.8264, 2731.598
914.3085, 2695.065
914.7906, 2657.793
915.2727, 2621.997
915.7548, 2587.325
916.2369, 2551.481
916.7191, 2514.609
917.2012, 2475.403
917.6833, 2431.827
918.1654, 2392.074
918.6475, 2365.006
919.1296, 2348.405
919.6118, 2327.999
920.0939, 2301.781
920.5760, 2276.699
921.0581, 2257.344
921.5402, 2234.196
922.0223, 2198.109
922.5045, 2156.063
922.9866, 2121.255
923.4687, 2096.719
923.9508, 2067.720
924.4329, 2025.670
924.9150, 1986.494
925.3972, 1956.700
925.8793, 1933.661
926.3614, 1914.991
926.8435, 1899.828
927.3256, 1886.646
927.8077, 1875.266
928.2899, 1864.787
928.7720, 1856.057
929.2541, 1846.816
929.7362, 1833.798
930.2183, 1817.425
930.7004, 1800.813
931.1826, 1785.280
931.6647, 1766.825
932.1468, 1736.504
932.6289, 1700.946
933.1110, 1680.125
933.5931, 1671.710
934.0753, 1659.387
934.5574, 1638.661
935.0395, 1614.969
935.5216, 1593.057
936.0037, 1572.192
936.4858, 1548.501
936.9680, 1520.940
937.4501, 1501.206
937.9322, 1492.975
938.4143, 1485.203
938.8964, 1472.366
939.3785, 1456.130
939.8607, 1439.561
940.3428, 1422.940
940.8249, 1404.194
941.3070, 1375.750
941.7891, 1356.168
942.2712, 1357.500
942.7534, 1362.107
943.2355, 1354.003
943.7176, 1336.149
944.1997, 1323.974
944.6818, 1327.327
945.1639, 1323.087
945.6461, 1296.933
946.1282, 1269.381
946.6103, 1253.156
947.0924, 1245.918
947.5745, 1242.376
948.0566, 1241.191
948.5388, 1242.803
949.0209, 1250.367
949.5030, 1258.018
949.9851, 1261.376
950.4672, 1260.849
950.9493, 1255.302
951.4315, 1246.239
951.9136, 1240.052
952.3957, 1240.870
952.8778, 1243.933
953.3599, 1241.434
953.8420, 1236.560
954.3242, 1239.527
954.8063, 1249.364
955.2884, 1255.518
955.7705, 1254.081
956.2526, 1250.331
956.7347, 1250.263
957.2169, 1252.767
957.6990, 1251.782
958.1811, 1246.910
958.6632, 1247.141
959.1453, 1255.520
959.6274, 1261.393
960.1096, 1256.829
960.5917, 1246.514
961.0738, 1241.346
961.5559, 1242.184
962.0380, 1244.610
962.5201, 1251.338
963.0023, 1254.272
963.4844, 1248.564
963.9665, 1240.286
964.4486, 1235.426
964.9307, 1233.794
965.4128, 1232.514
965.8950, 1229.745
966.3771, 1230.049
966.8592, 1235.162
967.3413, 1242.098
967.8234, 1253.106
968.3055, 1263.228
968.7877, 1262.953
969.2698, 1249.888
969.7519, 1240.533
970.2340, 1242.642
970.7161, 1247.046
971.1982, 1249.424
971.6804, 1251.272
972.1625, 1255.531
972.6446, 1261.145
973.1267, 1263.552
973.6088, 1260.302
974.0909, 1255.476
974.5731, 1249.335
975.0552, 1245.475
975.5373, 1248.870
976.0194, 1257.940
976.5015, 1270.868
976.9836, 1285.926
977.4658, 1295.228
977.9479, 1289.065
978.4300, 1278.309
978.9121, 1283.142
979.3942, 1297.479
979.8763, 1302.587
980.3585, 1297.517
980.8406, 1293.300
981.3227, 1295.448
981.8048, 1303.007
982.2869, 1316.907
982.7690, 1335.295
983.2512, 1345.495
983.7333, 1347.767
984.2154, 1355.648
984.6975, 1373.346
985.1796, 1389.465
985.6617, 1394.183
986.1439, 1391.438
986.6260, 1393.247
987.1081, 1400.169
987.5902, 1408.390
988.0723, 1418.914
988.5544, 1427.529
989.0366, 1434.211
989.5187, 1434.916
990.0008, 1421.565
990.4829, 1394.816
990.9650, 1384.574
991.4471, 1402.459
991.9293, 1413.001
992.4114, 1407.852
992.8935, 1400.016
993.3756, 1398.362
993.8577, 1398.783
994.3398, 1392.241
994.8220, 1376.761
995.3041, 1363.159
995.7862, 1348.395
996.2683, 1340.091
996.7504, 1347.104
997.2325, 1355.757
997.7147, 1352.119
998.1968, 1339.844
998.6789, 1334.361
999.1610, 1341.252
999.6431, 1348.387
1000.125, 1350.083
1000.607, 1353.603
1001.089, 1366.936
1001.572, 1382.767
1002.054, 1389.931
1002.536, 1388.055
1003.018, 1387.541
1003.500, 1394.899
1003.982, 1401.888
1004.464, 1403.600
1004.946, 1402.697
1005.429, 1401.083
1005.911, 1399.285
1006.393, 1397.591
1006.875, 1396.114
1007.357, 1395.265
1007.839, 1397.426
1008.321, 1398.455
1008.803, 1392.483
1009.285, 1383.171
1009.768, 1378.363
1010.250, 1376.884
1010.732, 1368.195
1011.214, 1346.205
1011.696, 1324.647
1012.178, 1321.620
1012.660, 1327.784
1013.142, 1328.399
1013.625, 1322.903
1014.107, 1307.886
1014.589, 1284.767
1015.071, 1268.922
1015.553, 1273.002
1016.035, 1287.036
1016.517, 1295.893
1016.999, 1299.714
1017.481, 1297.471
1017.964, 1289.959
1018.446, 1282.818
1018.928, 1278.124
1019.410, 1276.991
1019.892, 1281.127
1020.374, 1289.008
1020.856, 1297.216
1021.338, 1305.293
1021.820, 1302.656
1022.303, 1287.256
1022.785, 1285.565
1023.267, 1313.056
1023.749, 1349.818
1024.231, 1365.022
1024.713, 1361.064
1025.195, 1368.217
1025.677, 1387.011
1026.160, 1412.624
1026.642, 1445.084
1027.124, 1481.043
1027.606, 1519.902
1028.088, 1557.630
1028.570, 1582.685
1029.052, 1591.896
1029.534, 1618.533
1030.016, 1669.604
1030.499, 1712.589
1030.981, 1734.537
1031.463, 1754.379
1031.945, 1788.420
1032.427, 1833.236
1032.909, 1876.335
1033.391, 1916.948
1033.873, 1958.763
1034.356, 2009.150
1034.838, 2045.379
1035.320, 2056.163
1035.802, 2053.067
1036.284, 2047.974
1036.766, 2040.434
1037.248, 2025.848
1037.730, 2005.534
1038.213, 1975.366
1038.695, 1929.363
1039.177, 1881.287
1039.659, 1836.077
1040.141, 1792.964
1040.623, 1750.077
1041.105, 1707.238
1041.587, 1668.723
1042.069, 1640.944
1042.552, 1608.280
1043.034, 1561.013
1043.516, 1517.034
1043.998, 1488.391
1044.480, 1468.707
1044.962, 1447.913
1045.444, 1426.012
1045.926, 1400.190
1046.408, 1362.180
1046.891, 1331.354
1047.373, 1315.129
1047.855, 1304.659
1048.337, 1292.542
1048.819, 1281.563
1049.301, 1280.318
1049.783, 1293.607
1050.265, 1298.907
1050.748, 1285.560
1051.230, 1272.628
1051.712, 1272.961
1052.194, 1271.408
1052.676, 1247.568
1053.158, 1210.577
1053.640, 1190.826
1054.122, 1197.817
1054.604, 1209.070
1055.087, 1226.212
1055.569, 1237.949
1056.051, 1233.546
1056.533, 1224.932
1057.015, 1226.549
1057.497, 1236.284
1057.979, 1239.385
1058.461, 1226.860
1058.943, 1220.477
1059.426, 1231.027
1059.908, 1245.325
1060.390, 1261.205
1060.872, 1272.846
1061.354, 1268.178
1061.836, 1250.787
1062.318, 1247.115
1062.800, 1278.628
1063.283, 1300.009
1063.765, 1281.823
1064.247, 1260.348
1064.729, 1261.089
1065.211, 1274.264
1065.693, 1285.341
1066.175, 1291.776
1066.657, 1295.116
1067.139, 1293.389
1067.622, 1292.629
1068.104, 1296.789
1068.586, 1301.639
1069.068, 1301.498
1069.550, 1300.832
1070.032, 1308.795
1070.514, 1326.149
1070.996, 1340.883
1071.479, 1344.890
1071.961, 1349.332
1072.443, 1360.404
1072.925, 1373.213
1073.407, 1383.311
1073.889, 1392.038
1074.371, 1404.738
1074.853, 1421.936
1075.335, 1430.804
1075.818, 1413.793
1076.300, 1402.253
1076.782, 1417.646
1077.264, 1440.479
1077.746, 1454.503
1078.228, 1461.453
1078.710, 1467.458
1079.192, 1473.967
1079.674, 1482.026
1080.157, 1493.690
1080.639, 1505.023
1081.121, 1511.320
1081.603, 1518.506
1082.085, 1536.132
1082.567, 1558.061
1083.049, 1568.499
1083.531, 1563.173
1084.014, 1561.073
1084.496, 1572.226
1084.978, 1586.536
1085.460, 1598.987
1085.942, 1611.714
1086.424, 1627.696
1086.906, 1645.647
1087.388, 1662.408
1087.870, 1677.312
1088.353, 1690.348
1088.835, 1704.117
1089.317, 1712.919
1089.799, 1706.146
1090.281, 1699.518
1090.763, 1708.665
1091.245, 1730.360
1091.727, 1756.624
1092.209, 1787.335
1092.692, 1805.336
1093.174, 1795.014
1093.656, 1781.966
1094.138, 1772.979
1094.620, 1771.539
1095.102, 1784.320
1095.584, 1806.259
1096.066, 1826.484
1096.549, 1843.562
1097.031, 1852.539
1097.513, 1840.769
1097.995, 1834.526
1098.477, 1851.623
1098.959, 1873.626
1099.441, 1882.420
1099.923, 1882.765
1100.406, 1889.284
1100.888, 1905.380
1101.370, 1922.777
1101.852, 1942.980
1102.334, 1959.588
1102.816, 1968.289
1103.298, 1974.274
1103.780, 1978.535
1104.262, 1984.239
1104.745, 1999.385
1105.227, 2027.697
1105.709, 2051.366
1106.191, 2057.519
1106.673, 2071.707
1107.155, 2106.157
1107.637, 2147.278
1108.119, 2189.653
1108.601, 2229.257
1109.084, 2254.367
1109.566, 2256.291
1110.048, 2281.769
1110.530, 2350.063
1111.012, 2421.422
1111.494, 2481.846
1111.976, 2547.459
1112.458, 2629.392
1112.941, 2725.188
1113.423, 2828.746
1113.905, 2939.813
1114.387, 3058.986
1114.869, 3189.205
1115.351, 3324.222
1115.833, 3473.040
1116.315, 3614.382
1116.797, 3729.860
1117.280, 3832.005
1117.762, 3950.912
1118.244, 4096.401
1118.726, 4186.217
1119.208, 4203.741
1119.690, 4202.704
1120.172, 4208.435
1120.654, 4166.596
1121.136, 4031.139
1121.619, 3841.740
1122.101, 3663.968
1122.583, 3498.024
1123.065, 3353.585
1123.547, 3238.449
1124.029, 3119.120
1124.511, 2982.188
1124.993, 2863.004
1125.476, 2783.387
1125.958, 2727.583
1126.440, 2671.693
1126.922, 2616.226
1127.404, 2568.521
1127.886, 2528.520
1128.368, 2498.440
1128.850, 2480.817
1129.333, 2457.643
1129.815, 2417.722
1130.297, 2377.831
1130.779, 2360.655
1131.261, 2363.072
1131.743, 2370.763
1132.225, 2383.650
1132.707, 2391.447
1133.189, 2392.884
1133.672, 2397.987
1134.154, 2411.581
1134.636, 2422.227
1135.118, 2416.035
1135.600, 2399.298
1136.082, 2385.967
1136.564, 2377.911
1137.046, 2390.874
1137.528, 2422.709
1138.011, 2445.334
1138.493, 2449.228
1138.975, 2449.232
1139.457, 2457.885
1139.939, 2472.720
1140.421, 2491.969
1140.903, 2513.111
1141.385, 2528.787
1141.868, 2540.057
1142.350, 2551.712
1142.832, 2565.295
1143.314, 2581.536
1143.796, 2602.628
1144.278, 2620.719
1144.760, 2619.985
1145.242, 2614.772
1145.724, 2629.926
1146.207, 2657.129
1146.689, 2675.028
1147.171, 2681.715
1147.653, 2693.029
1148.135, 2719.755
1148.617, 2741.470
1149.099, 2730.779
1149.581, 2718.778
##END=



