##NAMES=Kainite
##RRUFFID=R100021
##IDEAL CHEMISTRY=KMg(S^6+^O_4_)Cl&#183;3H_2_O
##LOCALITY=Leopoldshall, Stassfurt, Stassfurt Deposit, Saxony-Anhalt, Germany
##OWNER=RRUFF
##SOURCE=Michael Scott 
##DESCRIPTION=Colorless grains associated with carnallite R070291 and pentahydrite R100022
##STATUS=The identification of this mineral has been confirmed by single-crystal X-ray diffraction.
##URL=rruff.info/R100021
91.18097, 0.0000000E+00
91.66309, 732.2050
92.14520, 738.1769
92.62732, 744.1129
93.10944, 742.8665
93.59155, 738.3492
94.07367, 734.4459
94.55579, 732.3474
95.03790, 729.3553
95.52002, 722.4627
96.00214, 711.4332
96.48425, 698.5262
96.96637, 682.6431
97.44849, 666.9731
97.93060, 653.7102
98.41272, 642.8720
98.89484, 633.0946
99.37695, 623.2947
99.85907, 612.1271
100.3412, 602.8422
100.8233, 595.9083
101.3054, 590.6557
101.7875, 586.4244
102.2697, 582.8082
102.7518, 579.7657
103.2339, 576.3488
103.7160, 571.5151
104.1981, 567.2555
104.6802, 565.1319
105.1624, 564.7580
105.6445, 563.7929
106.1266, 559.9564
106.6087, 553.0992
107.0908, 546.1075
107.5729, 538.5046
108.0551, 531.0206
108.5372, 524.6053
109.0193, 519.4586
109.5014, 515.0870
109.9835, 511.2446
110.4656, 507.7911
110.9478, 504.3726
111.4299, 500.6078
111.9120, 496.5947
112.3941, 493.1566
112.8762, 490.8200
113.3583, 488.7540
113.8405, 486.5002
114.3226, 484.0361
114.8047, 481.4991
115.2868, 478.9930
115.7689, 476.3557
116.2510, 474.1986
116.7332, 472.6117
117.2153, 471.3917
117.6974, 470.4017
118.1795, 469.5956
118.6616, 469.0385
119.1437, 468.8872
119.6259, 469.2771
120.1080, 469.9810
120.5901, 471.1384
121.0722, 472.5544
121.5543, 474.1670
122.0364, 476.0243
122.5186, 477.8706
123.0007, 478.1556
123.4828, 475.4953
123.9649, 473.1205
124.4470, 472.3238
124.9291, 472.8411
125.4113, 473.6317
125.8934, 474.2184
126.3755, 474.4701
126.8576, 474.1713
127.3397, 472.4204
127.8218, 470.6470
128.3040, 470.2316
128.7861, 471.3147
129.2682, 473.0821
129.7503, 475.9983
130.2324, 479.1834
130.7145, 480.9755
131.1967, 480.1707
131.6788, 477.4669
132.1609, 474.9511
132.6430, 472.5843
133.1251, 470.4674
133.6072, 468.4745
134.0894, 466.7031
134.5715, 465.3746
135.0536, 464.7854
135.5357, 465.0038
136.0178, 465.0431
136.4999, 464.7979
136.9821, 464.4518
137.4642, 464.2609
137.9463, 464.1093
138.4284, 463.5972
138.9105, 462.2885
139.3926, 460.1732
139.8748, 457.0707
140.3569, 452.2018
140.8390, 447.0678
141.3211, 442.8104
141.8032, 439.6738
142.2853, 436.8864
142.7675, 433.1940
143.2496, 427.9341
143.7317, 422.9621
144.2138, 418.8199
144.6959, 414.8740
145.1780, 410.1146
145.6602, 404.0358
146.1423, 397.5019
146.6244, 392.4597
147.1065, 389.3044
147.5886, 386.0386
148.0707, 381.2601
148.5529, 375.5728
149.0350, 371.1653
149.5171, 369.2021
149.9992, 368.8499
150.4813, 368.5677
150.9634, 368.4740
151.4456, 368.1003
151.9277, 366.7556
152.4098, 364.2963
152.8919, 362.3203
153.3740, 362.3785
153.8561, 362.8012
154.3383, 362.0665
154.8204, 359.5229
155.3025, 356.3620
155.7846, 354.5969
156.2667, 354.6760
156.7488, 355.3041
157.2310, 356.8217
157.7131, 358.3559
158.1952, 358.8598
158.6773, 357.7059
159.1594, 355.4753
159.6415, 354.4250
160.1237, 356.0172
160.6058, 357.1358
161.0879, 357.1293
161.5700, 356.3592
162.0521, 355.3073
162.5342, 354.2506
163.0164, 353.2011
163.4985, 352.4703
163.9806, 351.9604
164.4627, 351.8228
164.9448, 352.3802
165.4269, 353.3937
165.9091, 354.3121
166.3912, 354.7345
166.8733, 354.6342
167.3554, 354.3331
167.8375, 354.2305
168.3196, 353.6463
168.8018, 351.7280
169.2839, 348.6379
169.7660, 345.8597
170.2481, 344.7129
170.7302, 345.2338
171.2123, 345.8078
171.6945, 346.2969
172.1766, 346.8539
172.6587, 347.4995
173.1408, 348.1849
173.6229, 349.3430
174.1050, 351.8837
174.5872, 355.3236
175.0693, 358.3385
175.5514, 360.2268
176.0335, 361.4877
176.5156, 363.1598
176.9977, 365.5457
177.4799, 367.8754
177.9620, 369.8016
178.4441, 371.3104
178.9262, 372.2631
179.4083, 372.4861
179.8904, 372.0430
180.3726, 371.2872
180.8547, 369.8108
181.3368, 368.5165
181.8189, 368.0501
182.3010, 368.1567
182.7831, 368.1153
183.2653, 367.0796
183.7474, 364.9159
184.2295, 363.7882
184.7116, 365.1237
185.1937, 366.3651
185.6758, 366.7940
186.1580, 366.3409
186.6401, 365.1750
187.1222, 363.2749
187.6043, 360.2398
188.0864, 358.2674
188.5685, 358.2064
189.0507, 358.3356
189.5328, 357.7055
190.0149, 356.3231
190.4970, 354.8954
190.9791, 354.2343
191.4612, 354.5951
191.9434, 355.0671
192.4255, 356.3478
192.9076, 357.2471
193.3897, 356.8032
193.8718, 354.9188
194.3539, 352.3416
194.8361, 349.9041
195.3182, 347.4235
195.8003, 345.8428
196.2824, 346.3167
196.7645, 347.1085
197.2466, 346.3098
197.7288, 343.4706
198.2109, 340.0811
198.6930, 338.2174
199.1751, 338.0843
199.6572, 337.8252
200.1393, 337.2608
200.6215, 336.3680
201.1036, 334.7886
201.5857, 332.1450
202.0678, 329.8087
202.5499, 330.3813
203.0320, 333.6173
203.5142, 335.5296
203.9963, 333.4707
204.4784, 329.0804
204.9605, 326.4972
205.4426, 327.2291
205.9247, 328.6030
206.4069, 327.3984
206.8890, 324.0086
207.3711, 321.6140
207.8532, 323.0019
208.3353, 327.2650
208.8174, 329.7387
209.2996, 329.1205
209.7817, 327.2179
210.2638, 324.7432
210.7459, 321.9886
211.2280, 320.2978
211.7101, 321.5087
212.1923, 325.5023
212.6744, 327.8200
213.1565, 327.0139
213.6386, 325.3182
214.1207, 323.4145
214.6028, 321.5341
215.0850, 320.1030
215.5671, 319.8269
216.0492, 320.9391
216.5313, 321.3004
217.0134, 320.7155
217.4955, 319.4473
217.9777, 317.0887
218.4598, 313.9468
218.9419, 310.9351
219.4240, 309.0355
219.9061, 308.4608
220.3882, 307.9617
220.8704, 307.5822
221.3525, 307.2344
221.8346, 306.8913
222.3167, 306.5453
222.7988, 306.1846
223.2809, 305.7640
223.7631, 305.1836
224.2452, 304.9843
224.7273, 305.8172
225.2094, 306.4105
225.6915, 305.8810
226.1736, 304.3587
226.6558, 302.7315
227.1379, 301.9430
227.6200, 302.2201
228.1021, 302.3952
228.5842, 302.5692
229.0663, 302.5819
229.5485, 302.0729
230.0306, 301.1725
230.5127, 300.5649
230.9948, 300.9964
231.4769, 302.7289
231.9590, 304.1533
232.4412, 305.0190
232.9233, 305.8015
233.4054, 306.8276
233.8875, 308.1035
234.3696, 309.4298
234.8517, 310.6323
235.3339, 311.6950
235.8160, 312.6007
236.2981, 313.0087
236.7802, 313.5057
237.2623, 314.7547
237.7444, 316.7271
238.2266, 318.4903
238.7087, 319.0816
239.1908, 318.5509
239.6729, 318.6790
240.1550, 319.6082
240.6371, 321.1585
241.1193, 324.0385
241.6014, 328.2297
242.0835, 330.7768
242.5656, 328.1032
243.0477, 321.7377
243.5298, 318.2675
244.0120, 321.0068
244.4941, 325.2149
244.9762, 326.3442
245.4583, 324.2232
245.9404, 321.3957
246.4225, 319.0820
246.9047, 317.2977
247.3868, 316.1126
247.8689, 316.1310
248.3510, 316.2450
248.8331, 315.0238
249.3152, 312.3089
249.7974, 309.7954
250.2795, 308.4831
250.7616, 307.9009
251.2437, 307.4894
251.7258, 307.2340
252.2079, 306.9745
252.6901, 306.4370
253.1722, 305.5615
253.6543, 304.8665
254.1364, 304.4986
254.6185, 304.4923
255.1006, 305.1181
255.5828, 306.6937
256.0649, 308.1640
256.5470, 307.9796
257.0291, 305.8266
257.5112, 303.9903
257.9933, 303.4576
258.4755, 303.4672
258.9576, 303.5313
259.4397, 303.5447
259.9218, 303.6172
260.4039, 304.0470
260.8860, 304.9964
261.3682, 305.3744
261.8503, 304.2145
262.3324, 302.8149
262.8145, 301.8724
263.2966, 301.5233
263.7787, 301.6412
264.2609, 302.2694
264.7430, 303.5737
265.2251, 304.4527
265.7072, 304.4412
266.1893, 304.1616
266.6714, 303.6272
267.1536, 302.9700
267.6357, 302.7492
268.1178, 303.7631
268.5999, 306.2819
269.0820, 308.4374
269.5641, 310.5392
270.0463, 311.9049
270.5284, 311.7226
271.0105, 310.2889
271.4926, 308.8319
271.9747, 308.5635
272.4568, 309.6247
272.9390, 310.6257
273.4211, 311.7884
273.9032, 312.6770
274.3853, 313.1089
274.8674, 313.1239
275.3495, 312.8466
275.8317, 312.3246
276.3138, 311.5547
276.7959, 310.9113
277.2780, 310.8101
277.7601, 310.4302
278.2422, 309.4706
278.7244, 308.0639
279.2065, 306.4840
279.6886, 304.9024
280.1707, 303.3206
280.6528, 301.7975
281.1349, 301.2083
281.6171, 299.6813
282.0992, 296.6328
282.5813, 292.4713
283.0634, 287.5010
283.5455, 281.7762
284.0276, 275.7980
284.5098, 271.8965
284.9919, 272.3716
285.4740, 272.2576
285.9561, 270.5533
286.4382, 268.0707
286.9203, 265.7756
287.4025, 264.1197
287.8846, 262.8602
288.3667, 261.3875
288.8488, 259.8988
289.3309, 257.8381
289.8130, 254.4574
290.2952, 250.9026
290.7773, 248.3311
291.2594, 247.1018
291.7415, 246.5410
292.2236, 245.4652
292.7057, 243.7759
293.1879, 241.6502
293.6700, 238.1994
294.1521, 234.9432
294.6342, 233.3905
295.1163, 233.6509
295.5984, 234.3143
296.0806, 233.4329
296.5627, 230.1434
297.0448, 227.7941
297.5269, 227.1483
298.0090, 226.6558
298.4911, 225.1524
298.9733, 222.7619
299.4554, 220.6150
299.9375, 219.9344
300.4196, 221.0564
300.9017, 221.4021
301.3839, 220.3941
301.8660, 219.3121
302.3481, 218.5557
302.8302, 218.1685
303.3123, 218.2327
303.7944, 218.9827
304.2766, 220.3442
304.7587, 219.7039
305.2408, 214.4885
305.7229, 210.1840
306.2050, 208.2513
306.6871, 208.2456
307.1693, 209.5381
307.6514, 211.8954
308.1335, 214.8338
308.6156, 216.0854
309.0977, 213.3887
309.5798, 211.5983
310.0620, 211.9505
310.5441, 213.2090
311.0262, 213.8045
311.5083, 213.1048
311.9904, 211.6496
312.4725, 210.6073
312.9547, 209.5848
313.4368, 209.6418
313.9189, 212.3003
314.4010, 215.1175
314.8831, 215.4895
315.3652, 212.9924
315.8474, 209.8020
316.3295, 209.1571
316.8116, 212.8235
317.2937, 214.3572
317.7758, 212.2200
318.2579, 209.4845
318.7401, 207.8958
319.2222, 207.6295
319.7043, 208.0280
320.1864, 208.5134
320.6685, 209.1170
321.1506, 209.5335
321.6328, 209.8028
322.1149, 209.8831
322.5970, 209.5809
323.0791, 209.0636
323.5612, 208.7450
324.0433, 208.9502
324.5255, 209.5957
325.0076, 209.7675
325.4897, 208.7451
325.9718, 208.0668
326.4539, 208.2615
326.9360, 208.9113
327.4182, 209.4512
327.9003, 209.6155
328.3824, 209.4404
328.8645, 209.0099
329.3466, 207.7514
329.8287, 207.0254
330.3109, 207.3265
330.7930, 207.9245
331.2751, 208.1154
331.7572, 207.7146
332.2393, 207.0815
332.7214, 206.7844
333.2036, 207.0520
333.6857, 207.1320
334.1678, 206.8603
334.6499, 206.5654
335.1320, 206.2558
335.6141, 206.0549
336.0963, 206.3751
336.5784, 207.8506
337.0605, 210.8238
337.5426, 211.9828
338.0247, 209.0812
338.5068, 206.6939
338.9890, 206.9020
339.4711, 208.8370
339.9532, 210.4644
340.4353, 210.3906
340.9174, 208.9199
341.3995, 208.0257
341.8817, 208.1649
342.3638, 208.3886
342.8459, 208.8654
343.3280, 209.2322
343.8101, 208.9262
344.2922, 207.7095
344.7744, 206.1315
345.2565, 205.3990
345.7386, 205.8793
346.2207, 206.5496
346.7028, 207.6468
347.1849, 208.6549
347.6671, 209.2214
348.1492, 209.2774
348.6313, 208.9340
349.1134, 208.2235
349.5955, 207.0001
350.0776, 206.0698
350.5598, 205.5215
351.0419, 205.1948
351.5240, 205.3432
352.0061, 205.7101
352.4882, 205.5913
352.9703, 204.1597
353.4525, 201.6702
353.9346, 200.8722
354.4167, 203.3982
354.8988, 205.4929
355.3809, 205.7408
355.8630, 205.0284
356.3452, 204.5252
356.8273, 204.7585
357.3094, 205.5466
357.7915, 206.6775
358.2736, 208.5892
358.7557, 209.6589
359.2379, 209.0176
359.7200, 207.7590
360.2021, 206.6385
360.6842, 205.8240
361.1663, 205.1049
361.6484, 204.0164
362.1306, 202.4586
362.6127, 201.8794
363.0948, 203.5585
363.5769, 205.1892
364.0590, 205.3505
364.5411, 204.2695
365.0233, 203.0634
365.5054, 202.5094
365.9875, 202.4543
366.4696, 202.2075
366.9517, 201.6242
367.4338, 201.1314
367.9160, 200.9329
368.3981, 200.9563
368.8802, 201.1687
369.3623, 201.7392
369.8444, 202.2313
370.3265, 201.5578
370.8087, 199.4387
371.2908, 198.6929
371.7729, 202.1152
372.2550, 206.2897
372.7371, 207.3438
373.2192, 204.5623
373.7014, 201.1551
374.1835, 199.2493
374.6656, 198.6643
375.1477, 198.6068
375.6298, 199.0331
376.1119, 199.7961
376.5941, 200.9940
377.0762, 202.5074
377.5583, 203.5968
378.0404, 204.0002
378.5225, 203.8147
379.0046, 202.8242
379.4868, 200.8942
379.9689, 199.5695
380.4510, 200.5266
380.9331, 202.8507
381.4152, 203.6573
381.8973, 201.4684
382.3795, 199.1429
382.8616, 198.6242
383.3437, 199.5863
383.8258, 200.8344
384.3079, 202.1052
384.7900, 203.0800
385.2722, 202.8467
385.7543, 200.9400
386.2364, 199.7435
386.7185, 200.0380
387.2006, 201.3488
387.6827, 203.4888
388.1649, 206.4216
388.6470, 208.8939
389.1291, 209.3891
389.6112, 207.5499
390.0933, 206.7508
390.5754, 207.9266
391.0576, 209.3013
391.5397, 209.8614
392.0218, 209.6803
392.5039, 209.1339
392.9860, 208.3292
393.4681, 207.4889
393.9503, 207.7473
394.4324, 210.7637
394.9145, 212.7311
395.3966, 211.9263
395.8787, 210.2628
396.3608, 210.2263
396.8430, 212.5277
397.3251, 215.6685
397.8072, 217.3956
398.2893, 217.1653
398.7714, 216.9070
399.2535, 216.6481
399.7357, 216.3420
400.2178, 215.7087
400.6999, 214.9553
401.1820, 214.7296
401.6641, 215.6396
402.1462, 217.5516
402.6284, 218.7458
403.1105, 218.1767
403.5926, 218.1194
404.0747, 219.6652
404.5568, 221.6569
405.0389, 222.5532
405.5211, 221.7635
406.0032, 220.3039
406.4853, 219.8882
406.9674, 220.6373
407.4495, 222.0807
407.9316, 225.4926
408.4138, 228.5193
408.8959, 229.1615
409.3780, 227.8575
409.8601, 227.1001
410.3422, 229.3961
410.8243, 234.2630
411.3065, 237.8058
411.7886, 239.7542
412.2707, 240.7597
412.7528, 240.3597
413.2349, 239.5196
413.7170, 239.7762
414.1992, 241.9982
414.6813, 244.7365
415.1634, 245.7033
415.6455, 244.7596
416.1276, 244.8029
416.6097, 247.2557
417.0919, 250.5884
417.5740, 253.0279
418.0561, 254.5214
418.5382, 256.4459
419.0203, 259.3557
419.5024, 263.2408
419.9846, 268.5565
420.4667, 275.7646
420.9488, 282.4147
421.4309, 285.6821
421.9130, 286.6440
422.3951, 289.3685
422.8773, 296.0101
423.3594, 303.0485
423.8415, 307.7285
424.3236, 310.6581
424.8057, 314.0872
425.2878, 318.8932
425.7700, 324.9029
426.2521, 332.0602
426.7342, 340.9268
427.2163, 349.1533
427.6984, 355.5774
428.1805, 361.6331
428.6627, 368.6813
429.1448, 376.9747
429.6269, 386.2228
430.1090, 396.2758
430.5911, 407.2305
431.0732, 418.1989
431.5554, 428.1017
432.0375, 439.2049
432.5196, 452.8805
433.0017, 468.1944
433.4838, 483.9243
433.9659, 499.4796
434.4481, 514.3806
434.9302, 527.6511
435.4123, 538.7297
435.8944, 548.9409
436.3765, 558.7421
436.8586, 567.4642
437.3408, 574.6863
437.8229, 580.3586
438.3050, 584.4933
438.7871, 586.7494
439.2692, 587.2924
439.7513, 589.0790
440.2335, 593.1477
440.7156, 597.0219
441.1977, 599.9587
441.6798, 602.3290
442.1619, 604.7156
442.6440, 607.3979
443.1262, 609.7055
443.6083, 610.6271
444.0904, 610.0725
444.5725, 609.2372
445.0546, 608.3318
445.5367, 607.1851
446.0189, 605.6682
446.5010, 603.8109
446.9831, 601.7956
447.4652, 600.8315
447.9473, 599.4352
448.4294, 594.3318
448.9116, 585.1012
449.3937, 575.3294
449.8758, 568.2238
450.3579, 561.3781
450.8400, 549.7676
451.3221, 531.6849
451.8043, 511.9825
452.2864, 492.4351
452.7685, 473.2138
453.2506, 454.9810
453.7327, 437.9225
454.2148, 421.2478
454.6970, 403.7290
455.1791, 384.9567
455.6612, 368.6162
456.1433, 355.1116
456.6254, 343.6851
457.1075, 334.2029
457.5897, 326.3706
458.0718, 319.4022
458.5539, 312.8133
459.0360, 307.5972
459.5181, 302.0975
460.0002, 299.4918
460.4824, 297.0869
460.9645, 295.4149
461.4466, 293.5549
461.9287, 290.3350
462.4108, 285.8965
462.8929, 281.7943
463.3751, 279.7209
463.8572, 279.6995
464.3393, 278.7613
464.8214, 276.2746
465.3035, 273.5782
465.7856, 271.0921
466.2678, 268.5932
466.7499, 265.5689
467.2320, 261.7703
467.7141, 258.0669
468.1962, 256.1653
468.6783, 256.3375
469.1605, 255.1401
469.6426, 251.1927
470.1247, 246.5867
470.6068, 242.5988
471.0889, 239.2308
471.5710, 236.3596
472.0532, 234.5715
472.5353, 232.9597
473.0174, 229.9934
473.4995, 225.6307
473.9816, 220.8460
474.4637, 215.5110
474.9459, 210.4900
475.4280, 207.4599
475.9101, 207.0256
476.3922, 206.6256
476.8743, 205.2506
477.3564, 203.3314
477.8386, 201.4551
478.3207, 199.7143
478.8028, 198.0830
479.2849, 196.7563
479.7670, 195.7127
480.2491, 193.0084
480.7313, 185.2204
481.2134, 179.8183
481.6955, 181.1767
482.1776, 186.0686
482.6597, 189.5150
483.1418, 189.6826
483.6240, 188.2749
484.1061, 188.1434
484.5882, 190.0266
485.0703, 191.0873
485.5524, 190.7788
486.0345, 190.2455
486.5167, 189.9678
486.9988, 189.8833
487.4809, 189.7771
487.9630, 189.5715
488.4451, 189.1567
488.9272, 187.9229
489.4094, 185.1546
489.8915, 183.8185
490.3736, 186.2893
490.8557, 189.4096
491.3378, 191.2977
491.8199, 191.7425
492.3021, 191.0943
492.7842, 188.5240
493.2663, 185.1722
493.7484, 184.0174
494.2305, 185.4675
494.7126, 187.6246
495.1948, 189.9866
495.6769, 192.0429
496.1590, 192.6275
496.6411, 191.0940
497.1232, 189.2416
497.6053, 187.4737
498.0875, 186.0723
498.5696, 185.5229
499.0517, 185.9368
499.5338, 187.2146
500.0159, 189.4880
500.4980, 192.9217
500.9802, 195.1595
501.4623, 195.8385
501.9444, 195.8978
502.4265, 195.1659
502.9086, 194.1976
503.3907, 194.0424
503.8729, 195.0954
504.3550, 196.4038
504.8371, 196.1020
505.3192, 193.1886
505.8013, 191.4329
506.2834, 191.6451
506.7656, 192.2288
507.2477, 192.3540
507.7298, 192.3093
508.2119, 192.9766
508.6940, 195.0768
509.1761, 197.7297
509.6583, 199.0435
510.1404, 198.7876
510.6225, 198.4837
511.1046, 198.4105
511.5867, 198.5782
512.0688, 199.1749
512.5510, 200.1565
513.0331, 200.7482
513.5152, 200.3288
513.9973, 199.4233
514.4794, 198.6733
514.9615, 198.1137
515.4437, 197.9025
515.9258, 198.1373
516.4079, 198.7765
516.8900, 199.8162
517.3721, 201.9735
517.8542, 203.0649
518.3364, 201.5226
518.8185, 199.3308
519.3006, 198.6529
519.7827, 199.6405
520.2648, 200.9986
520.7469, 201.6475
521.2291, 201.6259
521.7112, 201.5124
522.1933, 201.2980
522.6754, 200.9906
523.1575, 199.9010
523.6396, 199.1000
524.1218, 200.2808
524.6039, 203.5186
525.0860, 206.3915
525.5681, 205.6926
526.0502, 201.5289
526.5323, 199.3008
527.0145, 199.8556
527.4966, 200.9360
527.9787, 201.7134
528.4608, 202.2481
528.9429, 202.5367
529.4250, 202.4568
529.9072, 202.5380
530.3893, 203.7265
530.8714, 205.4774
531.3535, 205.6637
531.8356, 203.5436
532.3177, 201.3626
532.7999, 201.4729
533.2820, 203.7457
533.7641, 204.8218
534.2462, 203.7172
534.7283, 202.3857
535.2104, 201.6387
535.6926, 201.2923
536.1747, 200.9285
536.6568, 200.4187
537.1389, 200.0879
537.6210, 200.4468
538.1031, 201.7275
538.5853, 202.6823
539.0674, 203.2378
539.5495, 203.5650
540.0316, 203.5488
540.5137, 203.3882
540.9958, 203.4232
541.4780, 203.8094
541.9601, 204.2476
542.4422, 204.2550
542.9243, 203.8010
543.4064, 203.3797
543.8885, 203.2800
544.3707, 202.9073
544.8528, 201.6193
545.3349, 199.7702
545.8170, 198.2793
546.2991, 197.3974
546.7813, 197.0390
547.2634, 197.1221
547.7455, 197.6556
548.2276, 198.8691
548.7097, 201.0235
549.1918, 203.2046
549.6740, 204.3077
550.1561, 204.2141
550.6382, 203.1842
551.1203, 199.2019
551.6024, 196.2605
552.0845, 197.5968
552.5667, 201.3375
553.0488, 203.6180
553.5309, 202.7566
554.0130, 200.4364
554.4951, 199.7994
554.9772, 201.7459
555.4594, 202.6331
555.9415, 201.2404
556.4236, 199.9435
556.9057, 200.1169
557.3878, 200.9976
557.8699, 200.8725
558.3521, 198.7051
558.8342, 196.0793
559.3163, 195.3335
559.7984, 196.4017
560.2805, 197.2760
560.7626, 197.5311
561.2448, 197.4854
561.7269, 197.4295
562.2090, 197.3423
562.6911, 197.0703
563.1732, 196.1989
563.6553, 195.5008
564.1375, 195.7528
564.6196, 196.5556
565.1017, 196.8187
565.5838, 196.1414
566.0659, 195.2962
566.5480, 195.4599
567.0302, 197.0526
567.5123, 197.7784
567.9944, 196.8163
568.4765, 196.0002
568.9586, 196.4890
569.4407, 197.4159
569.9229, 197.2656
570.4050, 195.4623
570.8871, 193.1351
571.3692, 191.8393
571.8513, 191.6073
572.3334, 191.7605
572.8156, 192.5061
573.2977, 193.2534
573.7798, 193.4974
574.2619, 193.5290
574.7440, 193.9632
575.2261, 195.2204
575.7083, 196.3671
576.1904, 196.7627
576.6725, 196.5126
577.1546, 195.6675
577.6367, 194.1892
578.1188, 192.8787
578.6010, 192.6261
579.0831, 193.4242
579.5652, 193.4467
580.0473, 192.0053
580.5294, 190.7346
581.0115, 190.2204
581.4937, 190.0363
581.9758, 189.6606
582.4579, 188.9878
582.9400, 188.3329
583.4221, 188.1976
583.9042, 188.5164
584.3864, 187.5025
584.8685, 183.7581
585.3506, 181.1611
585.8327, 181.7612
586.3148, 183.6896
586.7969, 185.1331
587.2791, 185.7917
587.7612, 186.3195
588.2433, 186.9939
588.7254, 187.8846
589.2075, 189.4797
589.6896, 191.8150
590.1718, 193.2790
590.6539, 192.6618
591.1360, 190.6799
591.6181, 189.4752
592.1002, 189.3709
592.5823, 189.2782
593.0645, 189.0599
593.5466, 188.8009
594.0287, 188.4133
594.5108, 188.0264
594.9929, 187.9916
595.4750, 188.5448
595.9572, 189.5950
596.4393, 191.0296
596.9214, 193.3205
597.4035, 194.6990
597.8856, 194.0842
598.3677, 193.1594
598.8499, 192.5543
599.3320, 192.4019
599.8141, 192.9936
600.2962, 195.1544
600.7783, 197.3709
601.2604, 197.2005
601.7426, 195.1590
602.2247, 194.4341
602.7068, 196.1942
603.1889, 198.8382
603.6710, 200.5661
604.1531, 201.2601
604.6353, 201.7311
605.1174, 201.7393
605.5995, 201.7912
606.0816, 201.9340
606.5637, 202.3165
607.0458, 203.3478
607.5280, 205.0645
608.0101, 206.6922
608.4922, 207.0433
608.9743, 206.0315
609.4564, 206.3513
609.9385, 208.8994
610.4207, 211.3304
610.9028, 212.6750
611.3849, 213.5257
611.8670, 214.3676
612.3491, 215.2465
612.8312, 216.7317
613.3134, 219.3917
613.7955, 222.8400
614.2776, 226.6794
614.7597, 230.8189
615.2418, 234.2484
615.7239, 236.1632
616.2061, 237.2322
616.6882, 239.3523
617.1703, 243.7413
617.6524, 246.8904
618.1345, 247.2048
618.6166, 247.4911
619.0988, 249.8131
619.5809, 253.7502
620.0630, 257.8552
620.5451, 261.3710
621.0272, 264.3582
621.5093, 266.7943
621.9915, 268.5867
622.4736, 270.4745
622.9557, 272.5741
623.4378, 274.7540
623.9199, 277.0703
624.4020, 279.3886
624.8842, 281.3801
625.3663, 283.1477
625.8484, 284.2880
626.3305, 284.3257
626.8126, 283.5620
627.2947, 282.3828
627.7769, 280.8944
628.2590, 279.7628
628.7411, 279.7199
629.2232, 280.6111
629.7053, 280.5184
630.1874, 279.7623
630.6696, 277.4930
631.1517, 272.6694
631.6338, 266.9738
632.1159, 261.4733
632.5980, 256.4433
633.0801, 252.0024
633.5623, 248.3372
634.0444, 245.2249
634.5265, 242.4072
635.0086, 239.9698
635.4907, 236.6748
635.9728, 231.6111
636.4550, 226.2723
636.9371, 222.8828
637.4192, 221.2117
637.9013, 218.6206
638.3834, 213.8822
638.8655, 208.9465
639.3477, 204.4919
639.8298, 200.7468
640.3119, 198.3390
640.7940, 197.3355
641.2761, 196.5355
641.7582, 194.4227
642.2404, 190.9706
642.7225, 188.3257
643.2046, 187.0314
643.6867, 185.7354
644.1688, 184.2281
644.6509, 182.4481
645.1331, 180.0114
645.6152, 176.9642
646.0973, 174.6179
646.5794, 174.2742
647.0615, 174.8709
647.5436, 174.9433
648.0258, 174.4355
648.5079, 173.0867
648.9900, 170.5862
649.4721, 167.7894
649.9542, 166.1135
650.4363, 165.8083
650.9185, 165.8189
651.4006, 166.6458
651.8827, 167.2309
652.3648, 167.1553
652.8469, 166.5394
653.3290, 165.4676
653.8112, 164.0015
654.2933, 162.5338
654.7754, 161.3956
655.2575, 160.6100
655.7396, 160.4765
656.2217, 161.1721
656.7039, 161.9505
657.1860, 162.8059
657.6681, 163.3018
658.1502, 162.5412
658.6323, 160.1568
659.1144, 158.5663
659.5966, 159.1568
660.0787, 160.2571
660.5608, 160.4709
661.0429, 159.9804
661.5250, 159.5463
662.0071, 159.5042
662.4893, 159.7137
662.9714, 160.0171
663.4535, 160.5237
663.9356, 160.5356
664.4177, 159.6547
664.8998, 158.7906
665.3820, 158.1360
665.8641, 157.7547
666.3462, 157.7896
666.8283, 158.2956
667.3104, 158.8885
667.7925, 159.3866
668.2747, 159.7820
668.7568, 160.1761
669.2389, 160.5214
669.7210, 160.3201
670.2031, 159.2031
670.6852, 157.7100
671.1674, 156.9487
671.6495, 157.2233
672.1316, 157.4464
672.6137, 157.7839
673.0958, 157.8994
673.5779, 157.5840
674.0601, 156.9786
674.5422, 156.0995
675.0243, 154.9577
675.5064, 154.2931
675.9885, 155.2693
676.4706, 157.3828
676.9528, 158.7812
677.4349, 159.3568
677.9170, 159.2531
678.3991, 158.2377
678.8812, 156.8591
679.3633, 156.3856
679.8455, 157.1453
680.3276, 157.5593
680.8097, 157.0579
681.2918, 156.5629
681.7739, 156.8966
682.2560, 157.5990
682.7382, 157.5998
683.2203, 156.5138
683.7024, 155.2569
684.1845, 155.1519
684.6666, 156.1512
685.1487, 156.8309
685.6309, 157.2345
686.1130, 157.1183
686.5951, 155.9549
687.0772, 154.4287
687.5593, 153.6041
688.0414, 153.5937
688.5236, 153.6821
689.0057, 153.7197
689.4878, 153.7294
689.9699, 153.7316
690.4520, 153.7217
690.9341, 153.8297
691.4163, 154.0875
691.8984, 153.9632
692.3805, 152.4225
692.8626, 149.2836
693.3447, 147.7191
693.8268, 148.7327
694.3090, 143.8157
694.7911, 150.8685
695.2732, 154.8060
695.7553, 155.7954
696.2374, 145.0074
696.7195, 149.4276
697.2017, 147.7530
697.6838, 145.8285
698.1659, 152.3892
698.6480, 143.3142
699.1301, 149.7403
699.6122, 149.9787
700.0944, 153.0490
700.5765, 149.9869
701.0586, 148.8190
701.5407, 153.7853
702.0228, 155.3551
702.5049, 151.5871
702.9871, 154.8374
703.4692, 145.5482
703.9513, 147.2626
704.4334, 153.7246
704.9155, 150.2650
705.3976, 153.6275
705.8798, 154.3917
706.3619, 143.3480
706.8440, 152.8394
707.3261, 153.4501
707.8082, 144.9422
708.2903, 153.7300
708.7725, 146.4792
709.2546, 144.9532
709.7367, 147.7354
710.2188, 146.0265
710.7009, 151.3985
711.1830, 149.9489
711.6652, 147.8898
712.1473, 148.4905
712.6294, 146.6383
713.1115, 148.6006
713.5936, 146.0956
714.0757, 148.3384
714.5579, 151.6574
715.0400, 147.1266
715.5221, 146.5493
716.0042, 144.9085
716.4863, 143.4727
716.9684, 143.3901
717.4506, 144.4586
717.9327, 145.2709
718.4148, 145.5758
718.8969, 145.9713
719.3790, 146.6545
719.8611, 147.2872
720.3433, 147.6530
720.8254, 147.7809
721.3075, 147.7754
721.7896, 147.6380
722.2717, 147.5294
722.7538, 147.6122
723.2360, 147.8698
723.7181, 148.4391
724.2002, 149.3616
724.6823, 149.6456
725.1644, 148.3732
725.6465, 146.3247
726.1287, 145.9153
726.6108, 148.9497
727.0929, 150.2039
727.5750, 147.9682
728.0571, 145.8325
728.5392, 146.0491
729.0214, 147.4452
729.5035, 147.7831
729.9856, 146.3150
730.4677, 144.6481
730.9498, 144.1305
731.4319, 144.5357
731.9141, 145.5225
732.3962, 147.0368
732.8783, 148.5572
733.3604, 150.0024
733.8425, 150.8493
734.3246, 149.9540
734.8068, 146.4388
735.2889, 145.1153
735.7710, 148.2458
736.2531, 150.6588
736.7352, 149.8305
737.2173, 148.0735
737.6995, 148.4918
738.1816, 151.2661
738.6637, 153.1967
739.1458, 151.0578
739.6279, 147.3747
740.1100, 146.4584
740.5922, 147.8280
741.0743, 148.8590
741.5564, 148.8193
742.0385, 148.0465
742.5206, 146.6608
743.0027, 144.7371
743.4849, 144.0857
743.9670, 146.3249
744.4491, 147.6139
744.9312, 146.7773
745.4133, 145.5800
745.8954, 145.2566
746.3776, 145.7116
746.8597, 146.3315
747.3418, 147.0457
747.8239, 147.3527
748.3060, 146.2460
748.7881, 144.4039
749.2703, 143.7524
749.7524, 144.4931
750.2345, 145.2102
750.7166, 145.0368
751.1987, 144.0947
751.6808, 142.5720
752.1630, 139.5786
752.6451, 138.0793
753.1272, 139.2262
753.6093, 140.6256
754.0914, 141.3284
754.5735, 141.7584
755.0557, 142.9500
755.5378, 145.2219
756.0199, 146.2805
756.5020, 143.1043
756.9841, 138.9141
757.4662, 138.4548
757.9484, 140.9126
758.4305, 142.3301
758.9126, 141.2018
759.3947, 139.5713
759.8768, 140.2141
760.3589, 143.1630
760.8411, 144.3079
761.3232, 142.4383
761.8053, 140.9597
762.2874, 140.9340
762.7695, 141.4136
763.2516, 141.9598
763.7338, 142.4473
764.2159, 142.4367
764.6980, 141.4271
765.1801, 140.3313
765.6622, 139.6532
766.1443, 139.3198
766.6265, 139.3794
767.1086, 139.7273
767.5907, 139.7417
768.0728, 138.8848
768.5549, 137.9155
769.0370, 139.2844
769.5192, 143.7720
770.0013, 145.4398
770.4834, 142.4324
770.9655, 138.9728
771.4476, 136.6462
771.9297, 135.7585
772.4119, 137.3860
772.8940, 142.5830
773.3761, 146.0958
773.8582, 145.8367
774.3403, 144.0644
774.8224, 141.3974
775.3046, 138.6819
775.7867, 137.4997
776.2688, 138.1952
776.7509, 139.1010
777.2330, 138.3284
777.7151, 136.3989
778.1973, 135.3975
778.6794, 135.3833
779.1615, 135.7060
779.6436, 136.2317
780.1257, 136.9683
780.6078, 138.2916
781.0900, 140.0850
781.5721, 140.1082
782.0542, 136.6742
782.5363, 133.8835
783.0184, 132.3610
783.5005, 131.8050
783.9827, 132.3167
784.4648, 133.5521
784.9469, 134.8247
785.4290, 135.8810
785.9111, 136.6024
786.3932, 136.7718
786.8754, 136.5144
787.3575, 136.0141
787.8396, 135.3184
788.3217, 135.0660
788.8038, 135.6293
789.2859, 136.6714
789.7681, 137.6711
790.2502, 138.7363
790.7323, 139.1807
791.2144, 138.3014
791.6965, 137.6888
792.1786, 137.9727
792.6608, 138.5269
793.1429, 138.9141
793.6250, 139.0289
794.1071, 138.5920
794.5892, 137.0245
795.0714, 135.3385
795.5535, 134.0820
796.0356, 133.3717
796.5177, 133.6850
796.9998, 134.9248
797.4819, 136.0166
797.9641, 136.1408
798.4462, 135.8146
798.9283, 136.6004
799.4104, 138.8088
799.8925, 139.8576
800.3746, 139.0055
800.8568, 138.0372
801.3389, 138.0462
801.8210, 138.5216
802.3031, 138.4546
802.7852, 137.7132
803.2673, 137.0298
803.7495, 136.3264
804.2316, 135.9430
804.7137, 136.3709
805.1958, 137.1090
805.6779, 137.5052
806.1600, 137.3976
806.6422, 136.8885
807.1243, 135.8503
807.6064, 134.6863
808.0885, 134.1496
808.5706, 134.2222
809.0527, 134.8807
809.5349, 136.1988
810.0170, 137.3767
810.4991, 137.6566
810.9812, 137.3819
811.4633, 138.0480
811.9454, 141.0965
812.4276, 142.4039
812.9097, 140.8654
813.3918, 138.8077
813.8739, 136.1812
814.3560, 134.1181
814.8381, 134.7640
815.3203, 138.6922
815.8024, 141.9177
816.2845, 141.7729
816.7666, 140.4071
817.2487, 139.6030
817.7308, 139.3774
818.2130, 139.9224
818.6951, 141.1225
819.1772, 141.5428
819.6593, 139.4667
820.1414, 136.0571
820.6235, 136.2890
821.1057, 140.9423
821.5878, 143.3770
822.0699, 141.8297
822.5520, 139.2404
823.0341, 137.1767
823.5162, 135.7493
823.9984, 135.2891
824.4805, 136.1289
824.9626, 137.0916
825.4447, 138.6819
825.9268, 139.7077
826.4089, 139.0736
826.8911, 137.6437
827.3732, 136.7741
827.8553, 136.7487
828.3374, 136.7661
828.8195, 136.1759
829.3016, 135.2943
829.7838, 134.2802
830.2659, 133.3638
830.7480, 133.6324
831.2301, 135.3066
831.7122, 136.9850
832.1943, 137.5515
832.6765, 137.1281
833.1586, 135.9394
833.6407, 133.4103
834.1228, 132.0987
834.6049, 132.7210
835.0870, 133.8249
835.5692, 135.0268
836.0513, 136.0606
836.5334, 136.4177
837.0155, 135.9358
837.4976, 135.6186
837.9797, 135.9531
838.4619, 136.2584
838.9440, 136.2541
839.4261, 135.9194
839.9082, 134.9680
840.3903, 133.5628
840.8724, 132.7256
841.3546, 133.4427
841.8367, 134.6080
842.3188, 134.2434
842.8009, 132.6915
843.2830, 131.4063
843.7651, 130.5962
844.2473, 130.5380
844.7294, 131.5014
845.2115, 133.0807
845.6936, 134.4879
846.1757, 136.0233
846.6578, 136.0233
847.1400, 132.4948
847.6221, 130.3808
848.1042, 133.1314
848.5863, 136.7473
849.0684, 136.9354
849.5505, 133.8330
850.0327, 131.3728
850.5148, 131.0534
850.9969, 131.0564
851.4790, 130.3635
851.9611, 129.6441
852.4432, 129.9741
852.9254, 131.0244
853.4075, 131.3072
853.8896, 130.0035
854.3717, 128.4468
854.8538, 128.4968
855.3359, 129.6973
855.8181, 130.5381
856.3002, 130.9408
856.7823, 130.8163
857.2644, 130.0571
857.7465, 129.1468
858.2286, 128.7209
858.7108, 128.7626
859.1929, 128.5366
859.6750, 127.5441
860.1571, 127.2739
860.6392, 128.9593
861.1213, 130.4564
861.6035, 129.8129
862.0856, 128.0775
862.5677, 128.0077
863.0498, 130.8907
863.5319, 132.7328
864.0140, 131.1944
864.4962, 129.0605
864.9783, 128.3256
865.4604, 128.5033
865.9425, 128.3393
866.4246, 127.6220
866.9067, 127.4808
867.3889, 129.3893
867.8710, 131.8871
868.3531, 132.0874
868.8352, 130.4406
869.3173, 128.8758
869.7994, 127.7480
870.2816, 126.9411
870.7637, 126.3643
871.2458, 126.0968
871.7279, 126.5144
872.2100, 128.0826
872.6921, 128.3241
873.1743, 126.5708
873.6564, 124.6865
874.1385, 122.8037
874.6206, 121.5668
875.1027, 122.0823
875.5848, 124.2511
876.0670, 125.7630
876.5491, 125.7142
877.0312, 125.7428
877.5133, 127.1708
877.9954, 128.2303
878.4775, 126.7832
878.9597, 123.6925
879.4418, 121.4558
879.9239, 121.0967
880.4060, 121.2614
880.8881, 120.6037
881.3702, 119.7938
881.8524, 120.1077
882.3345, 121.2830
882.8166, 122.3870
883.2987, 123.0904
883.7808, 122.8517
884.2629, 120.9018
884.7451, 117.9526
885.2272, 116.9751
885.7093, 118.2497
886.1914, 119.0175
886.6735, 118.5510
887.1556, 118.6840
887.6378, 121.2704
888.1199, 124.5964
888.6020, 124.7195
889.0841, 120.1783
889.5662, 117.6747
890.0483, 118.7750
890.5305, 119.8808
891.0126, 120.1587
891.4947, 119.8789
891.9768, 118.9701
892.4589, 117.7129
892.9410, 117.1095
893.4232, 117.6886
893.9053, 118.6155
894.3874, 120.0310
894.8695, 121.0637
895.3516, 120.3442
895.8337, 118.4308
896.3159, 116.7866
896.7980, 115.9636
897.2801, 115.9219
897.7622, 117.0537
898.2443, 118.6810
898.7264, 118.9709
899.2086, 118.0695
899.6907, 116.9622
900.1728, 115.8286
900.6549, 115.1769
901.1370, 115.4420
901.6191, 116.3156
902.1013, 116.9602
902.5834, 117.3136
903.0655, 117.7470
903.5476, 118.6819
904.0297, 118.8241
904.5118, 116.6187
904.9940, 114.2255
905.4761, 114.9441
905.9582, 118.4970
906.4403, 119.9355
906.9224, 116.8682
907.4045, 114.4715
907.8867, 114.2696
908.3688, 114.7554
908.8509, 115.0626
909.3330, 115.1304
909.8151, 114.9351
910.2972, 114.4393
910.7794, 114.3701
911.2615, 115.6724
911.7436, 117.2050
912.2257, 117.8180
912.7078, 117.7459
913.1899, 117.4842
913.6721, 117.1407
914.1542, 116.5177
914.6363, 115.3785
915.1184, 114.3145
915.6005, 114.6172
916.0826, 115.9854
916.5648, 116.5725
917.0469, 116.2382
917.5290, 116.4027
918.0111, 117.8169
918.4932, 119.1944
918.9753, 118.8206
919.4575, 116.8152
919.9396, 115.1480
920.4217, 113.4487
920.9038, 113.2361
921.3859, 116.1845
921.8680, 118.5717
922.3502, 117.1339
922.8323, 113.7334
923.3144, 112.7267
923.7965, 114.8394
924.2786, 116.4321
924.7607, 117.1408
925.2429, 117.3084
925.7250, 116.5942
926.2071, 115.7445
926.6892, 115.5979
927.1713, 116.0289
927.6534, 116.2127
928.1356, 115.7407
928.6177, 115.2462
929.0998, 114.8662
929.5819, 114.8754
930.0640, 116.0286
930.5461, 117.7107
931.0283, 118.5504
931.5104, 118.1813
931.9925, 117.2846
932.4746, 116.2970
932.9567, 115.3381
933.4388, 114.5431
933.9210, 113.9618
934.4031, 113.9039
934.8852, 114.3731
935.3673, 114.8898
935.8494, 115.2155
936.3315, 115.2605
936.8137, 114.7466
937.2958, 113.7040
937.7779, 113.4133
938.2600, 114.0662
938.7421, 114.5069
939.2242, 114.3583
939.7064, 114.1376
940.1885, 114.2892
940.6706, 114.6973
941.1527, 114.9625
941.6348, 115.3090
942.1169, 114.9938
942.5991, 113.0232
943.0812, 111.6058
943.5633, 111.9781
944.0454, 112.8305
944.5275, 112.4862
945.0096, 111.1735
945.4918, 111.0728
945.9739, 113.9695
946.4560, 116.1124
946.9381, 116.0940
947.4202, 115.1278
947.9023, 113.5501
948.3845, 111.9061
948.8666, 110.8306
949.3487, 110.5094
949.8308, 111.1191
950.3129, 114.0144
950.7950, 116.6824
951.2772, 116.1587
951.7593, 114.0717
952.2414, 113.1334
952.7235, 113.3611
953.2056, 113.0102
953.6877, 111.2164
954.1699, 109.5853
954.6520, 110.2431
955.1341, 112.5602
955.6162, 115.3949
956.0983, 118.4223
956.5804, 119.6295
957.0626, 118.5591
957.5447, 116.4565
958.0268, 114.0337
958.5089, 111.9295
958.9910, 112.0115
959.4731, 114.4817
959.9553, 115.6957
960.4374, 115.4044
960.9195, 114.4992
961.4016, 112.9103
961.8837, 111.7454
962.3658, 112.4332
962.8480, 114.6139
963.3301, 115.5971
963.8122, 114.8602
964.2943, 114.0213
964.7764, 112.9009
965.2585, 112.0062
965.7407, 111.5461
966.2228, 111.4496
966.7049, 111.7277
967.1870, 112.3740
967.6691, 112.9584
968.1512, 113.3903
968.6334, 113.8189
969.1155, 114.2959
969.5976, 114.7642
970.0797, 115.3716
970.5618, 115.8787
971.0439, 115.7177
971.5261, 114.7627
972.0082, 114.1612
972.4903, 114.6559
972.9724, 115.4122
973.4545, 116.0361
973.9366, 116.5258
974.4188, 116.7633
974.9009, 116.8885
975.3830, 117.3842
975.8651, 118.4755
976.3472, 119.4001
976.8293, 119.5423
977.3115, 119.0976
977.7936, 117.8102
978.2757, 116.2789
978.7578, 116.1525
979.2399, 117.4512
979.7220, 118.3353
980.2042, 117.5496
980.6863, 116.5925
981.1684, 118.2290
981.6505, 121.5063
982.1326, 123.1665
982.6147, 123.2033
983.0969, 122.3171
983.5790, 120.7182
984.0611, 119.6098
984.5432, 120.0970
985.0253, 121.5586
985.5074, 122.2388
985.9896, 122.1065
986.4717, 122.7150
986.9538, 124.3553
987.4359, 125.2054
987.9180, 124.3624
988.4001, 123.1570
988.8823, 123.0182
989.3644, 123.7937
989.8465, 124.4874
990.3286, 125.0268
990.8107, 125.7676
991.2928, 127.0457
991.7750, 127.8979
992.2571, 127.6858
992.7392, 127.0237
993.2213, 126.6374
993.7034, 126.5265
994.1855, 126.7123
994.6677, 127.3635
995.1498, 128.0592
995.6319, 129.0784
996.1140, 129.8000
996.5961, 129.1264
997.0782, 128.3728
997.5604, 129.7771
998.0425, 133.5220
998.5246, 136.5916
999.0067, 138.4526
999.4888, 139.6554
999.9709, 139.0034
1000.453, 139.0464
1000.935, 142.7547
1001.417, 148.1074
1001.899, 150.7823
1002.382, 149.9094
1002.864, 150.1387
1003.346, 154.1982
1003.828, 158.8950
1004.310, 161.8334
1004.792, 164.9736
1005.274, 170.4790
1005.756, 177.9640
1006.238, 185.6203
1006.721, 192.8621
1007.203, 201.8481
1007.685, 215.0890
1008.167, 229.6460
1008.649, 241.2531
1009.131, 253.0811
1009.613, 270.7173
1010.095, 293.4188
1010.578, 316.5203
1011.060, 337.8018
1011.542, 358.8657
1012.024, 382.1718
1012.506, 405.3790
1012.988, 424.6907
1013.470, 441.2461
1013.952, 457.6970
1014.434, 474.6385
1014.917, 492.2904
1015.399, 510.6826
1015.881, 529.7030
1016.363, 548.7083
1016.845, 568.2403
1017.327, 590.9493
1017.809, 615.7003
1018.291, 638.0827
1018.773, 657.0723
1019.256, 673.0971
1019.738, 686.2839
1020.220, 697.2676
1020.702, 708.3259
1021.184, 718.4626
1021.666, 720.6916
1022.148, 715.1539
1022.630, 706.0314
1023.113, 694.2803
1023.595, 677.6183
1024.077, 654.1071
1024.559, 625.9056
1025.041, 596.2198
1025.523, 564.9593
1026.005, 537.1907
1026.487, 512.5524
1026.969, 494.4860
1027.452, 483.9790
1027.934, 479.8631
1028.416, 481.8369
1028.898, 488.5497
1029.380, 496.9963
1029.862, 507.2635
1030.344, 518.1329
1030.826, 529.7464
1031.309, 541.3239
1031.791, 552.3917
1032.273, 564.0579
1032.755, 576.9435
1033.237, 591.4047
1033.719, 608.5811
1034.201, 629.3057
1034.683, 648.8759
1035.166, 667.6641
1035.648, 684.9722
1036.130, 701.5526
1036.612, 715.3419
1037.094, 725.1174
1037.576, 730.7619
1038.058, 731.9833
1038.540, 729.4393
1039.022, 720.2177
1039.505, 703.9934
1039.987, 681.5861
1040.469, 653.0741
1040.951, 618.4442
1041.433, 576.1559
1041.915, 527.9260
1042.397, 478.8543
1042.879, 427.0038
1043.361, 380.8497
1043.844, 342.4916
1044.326, 307.3505
1044.808, 272.8476
1045.290, 242.7894
1045.772, 221.0376
1046.254, 205.9252
1046.736, 193.3479
1047.218, 183.4836
1047.700, 174.5771
1048.183, 166.3763
1048.665, 159.2857
1049.147, 153.4429
1049.629, 148.6865
1050.111, 145.5579
1050.593, 143.2725
1051.075, 139.8841
1051.557, 134.7753
1052.040, 130.8764
1052.522, 129.2890
1053.004, 128.2792
1053.486, 128.1457
1053.968, 127.5618
1054.450, 124.6458
1054.932, 120.7332
1055.414, 118.9510
1055.896, 120.0509
1056.379, 120.6838
1056.861, 119.7085
1057.343, 118.4648
1057.825, 117.1426
1058.307, 116.0483
1058.789, 115.8449
1059.271, 115.8965
1059.753, 114.7343
1060.236, 112.0500
1060.718, 109.9247
1061.200, 109.0271
1061.682, 108.8102
1062.164, 109.7070
1062.646, 110.5872
1063.128, 110.4233
1063.610, 109.6184
1064.093, 108.9731
1064.575, 108.6373
1065.057, 108.3645
1065.539, 108.1971
1066.021, 107.8990
1066.503, 107.0407
1066.985, 106.3277
1067.467, 106.4390
1067.949, 107.0459
1068.432, 107.8250
1068.914, 108.6037
1069.396, 108.3804
1069.878, 104.7592
1070.360, 103.0486
1070.842, 106.8967
1071.324, 112.3042
1071.806, 117.2180
1072.288, 120.9912
1072.771, 122.6125
1073.253, 122.3095
1073.735, 122.3949
1074.217, 124.5134
1074.699, 125.6920
1075.181, 124.3258
1075.663, 121.7100
1076.145, 117.6949
1076.627, 113.7168
1077.110, 111.7002
1077.592, 111.6532
1078.074, 112.2510
1078.556, 113.2467
1079.038, 114.2026
1079.520, 113.3326
1080.002, 114.0622
1080.484, 121.8911
1080.967, 130.6656
1081.449, 131.2903
1081.931, 125.2380
1082.413, 121.7149
1082.895, 124.2539
1083.377, 126.7948
1083.859, 125.8967
1084.341, 124.9044
1084.823, 126.2771
1085.306, 128.3735
1085.788, 129.4851
1086.270, 129.5836
1086.752, 129.1481
1087.234, 128.2277
1087.716, 127.4361
1088.198, 127.1125
1088.680, 126.8908
1089.163, 126.1743
1089.645, 125.8078
1090.127, 126.0810
1090.609, 127.5064
1091.091, 131.5076
1091.573, 138.4294
1092.055, 144.4003
1092.537, 148.9077
1093.020, 150.8892
1093.502, 147.6440
1093.984, 143.8573
1094.466, 144.2678
1094.948, 146.2895
1095.430, 144.5347
1095.912, 138.5544
1096.394, 134.0784
1096.876, 133.6376
1097.359, 133.8726
1097.841, 133.9248
1098.323, 134.0143
1098.805, 134.4539
1099.287, 134.9138
1099.769, 135.0354
1100.251, 134.7554
1100.733, 134.0185
1101.215, 132.7367
1101.698, 131.1551
1102.180, 128.5884
1102.662, 126.6229
1103.144, 127.1885
1103.626, 127.8581
1104.108, 125.6014
1104.590, 121.1642
1105.072, 117.7620
1105.554, 116.1129
1106.037, 114.7653
1106.519, 113.2644
1107.001, 112.2657
1107.483, 112.2663
1107.965, 112.6087
1108.447, 112.9690
1108.929, 113.2149
1109.411, 113.0324
1109.894, 112.2945
1110.376, 111.8338
1110.858, 112.0984
1111.340, 112.1124
1111.822, 111.3710
1112.304, 110.6704
1112.786, 110.7739
1113.268, 111.0535
1113.750, 110.4963
1114.233, 109.0727
1114.715, 107.5694
1115.197, 105.4086
1115.679, 104.1404
1116.161, 104.3038
1116.643, 104.7692
1117.125, 105.5426
1117.607, 105.9730
1118.090, 104.9676
1118.572, 102.9345
1119.054, 102.2510
1119.536, 103.6902
1120.018, 104.5496
1120.500, 104.6194
1120.982, 104.5279
1121.464, 104.5220
1121.947, 104.2561
1122.429, 103.1705
1122.911, 101.8586
1123.393, 102.0163
1123.875, 103.9935
1124.357, 104.7254
1124.839, 103.8850
1125.321, 102.8054
1125.803, 101.4774
1126.286, 100.8038
1126.768, 101.6267
1127.250, 102.6754
1127.732, 101.6971
1128.214, 99.03946
1128.696, 99.16017
1129.178, 102.7114
1129.660, 103.3324
1130.142, 99.79121
1130.625, 97.57232
1131.107, 99.12478
1131.589, 101.7116
1132.071, 102.5200
1132.553, 102.1350
1133.035, 102.2417
1133.517, 102.8325
1133.999, 104.1150
1134.481, 106.0495
1134.964, 106.0218
1135.446, 103.3214
1135.928, 100.8253
1136.410, 100.5192
1136.892, 101.6940
1137.374, 103.6523
1137.856, 106.0330
1138.338, 107.3996
1138.821, 107.8172
1139.303, 107.2252
1139.785, 105.8400
1140.267, 104.9626
1140.749, 105.1977
1141.231, 106.4449
1141.713, 109.1980
1142.195, 112.0150
1142.677, 111.9891
1143.160, 110.1673
1143.642, 108.2369
1144.124, 106.7699
1144.606, 107.2201
1145.088, 109.6169
1145.570, 111.5139
1146.052, 111.2310
1146.534, 110.3104
1147.017, 110.1951
1147.499, 110.4935
1147.981, 110.8340
1148.463, 111.1683
1148.945, 111.5336
1149.427, 111.8545
1149.909, 111.9759
1150.391, 111.8573
1150.874, 111.1609
1151.356, 109.1902
1151.838, 107.1370
1152.320, 105.2348
1152.802, 104.2053
1153.284, 105.3185
1153.766, 107.6083
1154.248, 109.1706
1154.730, 109.7359
1155.213, 110.5368
1155.695, 112.6144
1156.177, 113.8906
1156.659, 113.3820
1157.141, 112.2263
1157.623, 110.3537
1158.105, 108.7072
1158.587, 108.6690
1159.069, 109.7530
1159.552, 109.9304
1160.034, 108.7090
1160.516, 107.5530
1160.998, 106.5097
1161.480, 105.6494
1161.962, 104.6958
1162.444, 104.2836
1162.926, 105.4315
1163.408, 106.8945
1163.891, 106.4405
1164.373, 104.1116
1164.855, 102.9682
1165.337, 103.2357
1165.819, 104.1380
1166.301, 105.9646
1166.783, 107.4992
1167.265, 108.2836
1167.748, 108.5632
1168.230, 108.3678
1168.712, 108.1317
1169.194, 109.4480
1169.676, 109.0721
1170.158, 112.8825
1170.640, 110.5586
1171.122, 110.4537
1171.604, 113.6405
1172.087, 116.6191
1172.569, 117.4865
1173.051, 117.2714
1173.533, 117.1068
1174.015, 117.1310
1174.497, 117.9313
1174.979, 119.2546
1175.461, 119.7928
1175.944, 119.7936
1176.426, 121.1665
1176.908, 124.2835
1177.390, 127.4410
1177.872, 129.6367
1178.354, 130.5129
1178.836, 128.4854
1179.318, 125.8226
1179.801, 125.6521
1180.283, 127.3571
1180.765, 130.2503
1181.247, 133.7004
1181.729, 136.3687
1182.211, 137.8390
1182.693, 139.2390
1183.175, 140.5964
1183.657, 142.9555
1184.140, 147.8876
1184.622, 153.1640
1185.104, 156.6812
1185.586, 159.4333
1186.068, 163.0967
1186.550, 167.6372
1187.032, 171.8985
1187.514, 175.7485
1187.996, 178.8921
1188.479, 181.0204
1188.961, 182.7914
1189.443, 183.5937
1189.925, 184.9537
1190.407, 188.7691
1190.889, 193.4637
1191.371, 196.3137
1191.853, 197.2999
1192.335, 198.5740
1192.818, 200.6306
1193.300, 201.6782
1193.782, 201.6474
1194.264, 200.3505
1194.746, 197.4104
1195.228, 194.0908
1195.710, 191.5271
1196.192, 189.2585
1196.675, 186.1673
1197.157, 182.2859
1197.639, 178.1540
1198.121, 173.7368
1198.603, 168.6214
1199.085, 162.7439
1199.567, 156.2060
1200.049, 149.1011
1200.531, 142.1075
1201.014, 135.6691
1201.496, 130.5534
1201.978, 129.0766
1202.460, 129.4532
1202.942, 127.9078
1203.424, 124.8083
1203.906, 121.4230
1204.388, 118.2185
1204.871, 115.6961
1205.353, 114.1209
1205.835, 112.7800
1206.317, 111.1790
1206.799, 109.5623
1207.281, 107.9314
1207.763, 106.5465
1208.245, 105.7175
1208.728, 105.3007
1209.210, 105.1259
1209.692, 105.1037
1210.174, 104.8845
1210.656, 104.1879
1211.138, 103.7468
1211.620, 104.2201
1212.102, 104.2834
1212.584, 103.2293
1213.067, 101.8262
1213.549, 100.3145
1214.031, 99.04354
1214.513, 98.82424
1214.995, 99.65081
1215.477, 99.60325
1215.959, 98.14214
1216.441, 98.06367
1216.923, 100.1365
1217.406, 100.9082
1217.888, 98.86474
1218.370, 97.06667
1218.852, 98.19865
1219.334, 100.4598
1219.816, 100.2145
1220.298, 97.93108
1220.780, 95.65408
1221.262, 93.56274
1221.745, 92.61874
1222.227, 92.86433
1222.709, 94.04208
1223.191, 95.93255
1223.673, 97.39358
1224.155, 97.50844
1224.637, 96.96935
1225.119, 96.26384
1225.602, 95.57735
1226.084, 95.16274
1226.566, 94.90524
1227.048, 94.39096
1227.530, 94.88519
1228.012, 94.40079
1228.494, 96.18750
1228.976, 97.63331
1229.458, 98.80755
1229.941, 98.53123
1230.423, 94.29202
1230.905, 91.02534
1231.387, 92.97884
1231.869, 96.07517
1232.351, 95.26405
1232.833, 91.96999
1233.315, 90.84848
1233.798, 92.39034
1234.280, 93.06322
1234.762, 92.36472
1235.244, 92.64597
1235.726, 94.64350
1236.208, 95.93030
1236.690, 95.29109
1237.172, 94.12961
1237.655, 93.87548
1238.137, 94.15139
1238.619, 94.10126
1239.101, 93.74463
1239.583, 93.09653
1240.065, 92.22704
1240.547, 91.20576
1241.029, 90.24085
1241.511, 90.32211
1241.994, 91.78770
1242.476, 93.37946
1242.958, 94.27335
1243.440, 94.54958
1243.922, 93.89694
1244.404, 93.04031
1244.886, 92.32330
1245.368, 92.15694
1245.850, 93.87652
1246.333, 96.51054
1246.815, 96.57213
1247.297, 92.90263
1247.779, 90.79710
1248.261, 92.81133
1248.743, 94.37386
1249.225, 94.16831
1249.707, 93.88035
1250.189, 94.35019
1250.672, 94.85345
1251.154, 94.68855
1251.636, 94.01574
1252.118, 93.11060
1252.600, 91.88813
1253.082, 92.79831
1253.564, 96.07844
1254.046, 97.37070
1254.529, 96.07533
1255.011, 95.21375
1255.493, 95.98994
1255.975, 97.03786
1256.457, 97.18705
1256.939, 96.91651
1257.421, 97.20068
1257.903, 97.40137
1258.385, 96.06527
1258.868, 93.96423
1259.350, 92.30891
1259.832, 91.35909
1260.314, 91.40414
1260.796, 92.39868
1261.278, 93.04224
1261.760, 92.48650
1262.242, 92.02071
1262.725, 92.14001
1263.207, 92.49737
1263.689, 93.26091
1264.171, 93.86558
1264.653, 93.81969
1265.135, 93.24458
1265.617, 92.32056
1266.099, 91.05124
1266.582, 89.84669
1267.064, 88.25282
1267.546, 88.91663
1268.028, 92.55240
1268.510, 95.27346
1268.992, 95.98043
1269.474, 95.00003
1269.956, 92.32356
1270.438, 89.93846
1270.921, 91.22874
1271.403, 94.25126
1271.885, 94.21642
1272.367, 92.45100
1272.849, 91.98557
1273.331, 92.51975
1273.813, 92.34236
1274.295, 91.40743
1274.777, 91.37228
1275.260, 93.05489
1275.742, 94.48552
1276.224, 94.49610
1276.706, 94.13825
1277.188, 94.04405
1277.670, 93.62198
1278.152, 91.52309
1278.634, 89.50851
1279.116, 90.81152
1279.599, 89.63784
1280.081, 89.15925
1280.563, 90.38107
1281.045, 88.71730
##END=



