##NAMES=Kainosite-(Y)
##RRUFFID=R070759
##IDEAL CHEMISTRY=Ca_2_Y_2_(SiO_3_)_4_(CO_3_)&#183;H_2_O
##LOCALITY=Bicroft mine, Cardiff Township, Haliburton Co., Ontario, Canada
##OWNER=RRUFF
##SOURCE=Michael Scott
##DESCRIPTION=Light brown prismatic crystals associated with quartz and green fluorite
##STATUS=The identification of this mineral has been confirmed only by single crystal X-ray diffraction.
##URL=rruff.info/R070759
149.0852, 12605.59
149.5674, 12603.07
150.0495, 12590.46
150.5316, 12596.59
151.0137, 12634.66
151.4958, 12700.53
151.9779, 12747.71
152.4601, 12747.72
152.9422, 12742.44
153.4243, 12761.43
153.9064, 12795.90
154.3885, 12865.40
154.8706, 12985.53
155.3528, 13166.55
155.8349, 13335.98
156.3170, 13462.27
156.7991, 13572.92
157.2812, 13703.46
157.7633, 13895.18
158.2455, 14081.25
158.7276, 14229.42
159.2097, 14315.79
159.6918, 14410.42
160.1739, 14548.23
160.6560, 14710.26
161.1382, 14853.38
161.6203, 14956.07
162.1024, 15037.23
162.5845, 15109.21
163.0666, 15169.21
163.5487, 15228.09
164.0309, 15299.28
164.5130, 15378.76
164.9951, 15437.47
165.4772, 15440.56
165.9593, 15421.96
166.4414, 15418.17
166.9236, 15467.28
167.4057, 15517.63
167.8878, 15533.40
168.3699, 15511.79
168.8520, 15476.45
169.3341, 15422.82
169.8163, 15366.67
170.2984, 15335.76
170.7805, 15382.72
171.2626, 15442.44
171.7447, 15446.25
172.2268, 15378.90
172.7090, 15285.65
173.1911, 15204.41
173.6732, 15129.35
174.1553, 15042.98
174.6374, 14941.86
175.1195, 14820.92
175.6017, 14669.17
176.0838, 14476.04
176.5659, 14265.66
177.0480, 14061.97
177.5301, 13865.45
178.0122, 13666.02
178.4944, 13448.14
178.9765, 13222.21
179.4586, 13006.93
179.9407, 12803.74
180.4228, 12617.46
180.9049, 12447.87
181.3871, 12296.26
181.8692, 12161.99
182.3513, 12049.06
182.8334, 11955.77
183.3155, 11870.15
183.7976, 11784.59
184.2797, 11703.26
184.7619, 11643.52
185.2440, 11607.14
185.7261, 11584.27
186.2082, 11563.49
186.6903, 11545.05
187.1724, 11528.81
187.6546, 11511.65
188.1367, 11495.55
188.6188, 11491.85
189.1009, 11505.71
189.5830, 11524.88
190.0651, 11529.05
190.5473, 11517.76
191.0294, 11493.19
191.5115, 11448.16
191.9936, 11384.88
192.4757, 11335.75
192.9578, 11310.81
193.4400, 11300.47
193.9221, 11271.93
194.4042, 11221.02
194.8863, 11174.72
195.3684, 11166.01
195.8505, 11196.23
196.3327, 11212.93
196.8148, 11194.99
197.2969, 11150.66
197.7790, 11139.40
198.2611, 11170.50
198.7432, 11209.29
199.2254, 11210.91
199.7075, 11170.87
200.1896, 11129.48
200.6717, 11099.48
201.1538, 11081.15
201.6359, 11069.88
202.1181, 11071.43
202.6002, 11070.70
203.0823, 11035.65
203.5644, 10956.47
204.0465, 10882.86
204.5286, 10839.56
205.0108, 10831.17
205.4929, 10820.85
205.9750, 10806.78
206.4571, 10790.23
206.9392, 10777.05
207.4213, 10771.34
207.9035, 10757.12
208.3856, 10721.21
208.8677, 10656.15
209.3498, 10598.40
209.8319, 10547.44
210.3140, 10505.92
210.7962, 10490.21
211.2783, 10512.29
211.7604, 10537.23
212.2425, 10537.42
212.7246, 10506.27
213.2067, 10472.86
213.6889, 10439.13
214.1710, 10405.90
214.6531, 10384.11
215.1352, 10376.27
215.6173, 10376.59
216.0994, 10378.89
216.5816, 10381.14
217.0637, 10390.79
217.5458, 10409.02
218.0279, 10435.43
218.5100, 10475.05
218.9921, 10539.07
219.4743, 10603.89
219.9564, 10632.97
220.4385, 10601.92
220.9206, 10584.52
221.4027, 10611.02
221.8848, 10698.42
222.3670, 10744.49
222.8491, 10728.31
223.3312, 10683.31
223.8133, 10671.25
224.2954, 10707.09
224.7775, 10750.15
225.2596, 10783.62
225.7418, 10798.51
226.2239, 10830.36
226.7060, 10887.96
227.1881, 10959.84
227.6702, 11014.78
228.1523, 11036.69
228.6345, 11065.13
229.1166, 11122.18
229.5987, 11225.45
230.0808, 11313.68
230.5629, 11373.54
231.0450, 11415.09
231.5272, 11484.15
232.0093, 11596.87
232.4914, 11714.98
232.9735, 11816.01
233.4556, 11886.25
233.9377, 11963.96
234.4199, 12052.43
234.9020, 12151.93
235.3841, 12259.44
235.8662, 12387.23
236.3483, 12509.52
236.8304, 12605.29
237.3126, 12660.60
237.7947, 12717.11
238.2768, 12784.90
238.7589, 12863.56
239.2410, 12922.23
239.7231, 12953.14
240.2053, 12971.69
240.6874, 12992.02
241.1695, 13017.74
241.6516, 13038.90
242.1337, 13053.85
242.6158, 13062.40
243.0980, 13065.64
243.5801, 13062.23
244.0622, 13054.62
244.5443, 13045.93
245.0264, 13038.21
245.5085, 13025.94
245.9907, 13008.11
246.4728, 12984.95
246.9549, 12954.23
247.4370, 12910.90
247.9191, 12864.13
248.4012, 12827.30
248.8834, 12802.68
249.3655, 12784.29
249.8476, 12773.47
250.3297, 12776.23
250.8118, 12761.85
251.2939, 12726.95
251.7761, 12676.83
252.2582, 12622.35
252.7403, 12569.79
253.2224, 12501.06
253.7045, 12408.33
254.1866, 12285.09
254.6688, 12153.72
255.1509, 12003.93
255.6330, 11852.06
256.1151, 11738.95
256.5972, 11684.08
257.0793, 11633.64
257.5615, 11560.49
258.0436, 11445.83
258.5257, 11361.67
259.0078, 11317.87
259.4899, 11301.64
259.9720, 11277.99
260.4542, 11246.90
260.9363, 11208.67
261.4184, 11158.24
261.9005, 11085.89
262.3826, 11036.24
262.8647, 11017.03
263.3469, 11020.81
263.8290, 11022.69
264.3111, 11019.68
264.7932, 11020.37
265.2753, 11032.55
265.7574, 11061.55
266.2396, 11078.95
266.7217, 11074.43
267.2038, 11057.46
267.6859, 11069.04
268.1680, 11119.93
268.6501, 11174.49
269.1323, 11205.86
269.6144, 11207.45
270.0965, 11215.49
270.5786, 11238.54
271.0607, 11270.58
271.5428, 11283.87
272.0250, 11273.10
272.5071, 11257.35
272.9892, 11250.16
273.4713, 11252.63
273.9534, 11259.31
274.4355, 11270.07
274.9177, 11284.49
275.3998, 11299.64
275.8819, 11313.94
276.3640, 11333.85
276.8461, 11371.09
277.3282, 11429.29
277.8104, 11468.48
278.2925, 11473.34
278.7746, 11454.38
279.2567, 11458.80
279.7388, 11488.51
280.2209, 11534.31
280.7031, 11596.14
281.1852, 11675.62
281.6673, 11738.81
282.1494, 11775.16
282.6315, 11790.88
283.1136, 11806.13
283.5958, 11818.86
284.0779, 11842.16
284.5600, 11893.82
285.0421, 11972.93
285.5242, 12049.34
286.0063, 12108.77
286.4884, 12160.69
286.9706, 12242.11
287.4527, 12355.94
287.9348, 12476.08
288.4169, 12580.64
288.8990, 12668.97
289.3811, 12745.53
289.8633, 12808.64
290.3454, 12860.78
290.8275, 12902.16
291.3096, 12931.26
291.7917, 12968.21
292.2738, 13042.93
292.7560, 13147.24
293.2381, 13240.32
293.7202, 13307.96
294.2023, 13356.16
294.6844, 13397.14
295.1665, 13431.36
295.6487, 13459.22
296.1308, 13476.81
296.6129, 13488.02
297.0950, 13505.30
297.5771, 13537.86
298.0592, 13576.44
298.5414, 13602.21
299.0235, 13615.10
299.5056, 13632.28
299.9877, 13671.81
300.4698, 13726.98
300.9519, 13783.01
301.4341, 13819.26
301.9162, 13861.24
302.3983, 13949.01
302.8804, 14080.90
303.3625, 14224.57
303.8446, 14350.99
304.3268, 14470.12
304.8089, 14597.47
305.2910, 14737.65
305.7731, 14889.33
306.2552, 15050.90
306.7373, 15223.67
307.2195, 15406.27
307.7016, 15619.52
308.1837, 15838.39
308.6658, 16024.03
309.1479, 16126.65
309.6300, 16219.41
310.1122, 16375.56
310.5943, 16591.38
311.0764, 16776.86
311.5585, 16879.84
312.0406, 16923.08
312.5227, 16932.77
313.0049, 16894.43
313.4870, 16843.84
313.9691, 16813.97
314.4512, 16800.31
314.9333, 16748.06
315.4154, 16609.38
315.8976, 16429.17
316.3797, 16249.80
316.8618, 16078.77
317.3439, 15914.58
317.8260, 15754.80
318.3081, 15600.07
318.7903, 15466.52
319.2724, 15359.72
319.7545, 15276.14
320.2366, 15213.02
320.7187, 15182.48
321.2008, 15159.47
321.6830, 15137.30
322.1651, 15116.63
322.6472, 15105.54
323.1293, 15100.46
323.6114, 15108.86
324.0935, 15135.79
324.5757, 15174.35
325.0578, 15240.01
325.5399, 15353.54
326.0220, 15507.53
326.5041, 15634.44
326.9862, 15690.56
327.4684, 15744.34
327.9505, 15836.18
328.4326, 16014.39
328.9147, 16169.14
329.3968, 16289.60
329.8789, 16378.79
330.3611, 16460.79
330.8432, 16541.06
331.3253, 16609.02
331.8074, 16658.23
332.2895, 16682.14
332.7716, 16700.87
333.2538, 16728.22
333.7359, 16752.36
334.2180, 16722.43
334.7001, 16623.63
335.1822, 16495.18
335.6643, 16357.67
336.1465, 16209.27
336.6286, 16054.06
337.1107, 15889.41
337.5928, 15719.88
338.0749, 15565.18
338.5570, 15430.09
339.0392, 15296.05
339.5213, 15153.07
340.0034, 14998.08
340.4855, 14851.47
340.9676, 14717.46
341.4497, 14586.35
341.9319, 14431.59
342.4140, 14251.02
342.8961, 14075.19
343.3782, 13924.98
343.8603, 13797.65
344.3424, 13669.51
344.8246, 13534.91
345.3067, 13408.25
345.7888, 13314.51
346.2709, 13253.27
346.7530, 13195.19
347.2351, 13115.86
347.7173, 13026.71
348.1994, 12970.89
348.6815, 12955.15
349.1636, 12945.46
349.6457, 12886.76
350.1278, 12793.68
350.6100, 12723.95
351.0921, 12712.31
351.5742, 12738.19
352.0563, 12774.64
352.5384, 12821.40
353.0205, 12868.43
353.5027, 12903.00
353.9848, 12931.30
354.4669, 12964.44
354.9490, 13008.73
355.4311, 13059.65
355.9132, 13113.11
356.3954, 13169.27
356.8775, 13229.94
357.3596, 13287.79
357.8417, 13353.92
358.3238, 13443.71
358.8059, 13580.50
359.2881, 13727.77
359.7702, 13868.51
360.2523, 14002.55
360.7344, 14131.71
361.2165, 14252.24
361.6986, 14369.86
362.1808, 14490.88
362.6629, 14617.16
363.1450, 14746.26
363.6271, 14883.04
364.1092, 15024.86
364.5913, 15153.78
365.0735, 15246.33
365.5556, 15337.30
366.0377, 15447.89
366.5198, 15633.43
367.0019, 15778.43
367.4840, 15851.91
367.9662, 15870.56
368.4482, 15908.27
368.9304, 15996.04
369.4125, 16077.32
369.8946, 16127.00
370.3767, 16133.24
370.8588, 16129.26
371.3409, 16119.64
371.8231, 16098.78
372.3052, 16052.12
372.7873, 15975.87
373.2694, 15880.09
373.7515, 15760.80
374.2336, 15603.20
374.7158, 15493.21
375.1979, 15461.26
375.6800, 15445.06
376.1621, 15330.01
376.6442, 15092.30
377.1263, 14849.44
377.6085, 14638.83
378.0906, 14463.39
378.5727, 14303.31
379.0548, 14163.36
379.5369, 14028.86
380.0190, 13878.61
380.5012, 13712.44
380.9833, 13563.46
381.4654, 13445.77
381.9475, 13352.33
382.4296, 13254.06
382.9117, 13151.14
383.3939, 13050.63
383.8760, 12957.88
384.3581, 12873.00
384.8402, 12800.12
385.3223, 12746.69
385.8044, 12700.44
386.2866, 12635.76
386.7687, 12557.59
387.2508, 12502.06
387.7329, 12518.23
388.2150, 12566.44
388.6971, 12592.22
389.1793, 12571.32
389.6614, 12543.37
390.1435, 12535.02
390.6256, 12543.63
391.1077, 12560.87
391.5898, 12578.94
392.0720, 12606.44
392.5541, 12653.62
393.0362, 12732.80
393.5183, 12804.93
394.0004, 12832.17
394.4825, 12844.42
394.9647, 12896.47
395.4468, 13052.71
395.9289, 13209.35
396.4110, 13316.19
396.8931, 13348.39
397.3752, 13405.52
397.8574, 13518.98
398.3395, 13656.90
398.8216, 13780.38
399.3037, 13868.74
399.7858, 13964.89
400.2679, 14084.11
400.7501, 14229.80
401.2322, 14349.78
401.7143, 14436.32
402.1964, 14504.10
402.6785, 14562.58
403.1606, 14604.74
403.6428, 14657.04
404.1249, 14730.16
404.6070, 14817.02
405.0891, 14878.10
405.5712, 14911.35
406.0533, 14923.08
406.5355, 14912.49
407.0176, 14878.10
407.4997, 14842.85
407.9818, 14808.18
408.4639, 14774.26
408.9460, 14743.23
409.4282, 14715.13
409.9103, 14683.05
410.3924, 14641.62
410.8745, 14592.55
411.3566, 14542.17
411.8387, 14490.48
412.3209, 14438.49
412.8030, 14378.55
413.2851, 14318.32
413.7672, 14279.47
414.2493, 14295.93
414.7314, 14327.69
415.2136, 14322.72
415.6957, 14279.09
416.1778, 14234.89
416.6599, 14223.01
417.1420, 14225.31
417.6241, 14218.58
418.1063, 14177.48
418.5884, 14140.18
419.0705, 14142.04
419.5526, 14173.53
420.0347, 14171.79
420.5168, 14093.29
420.9990, 13984.39
421.4811, 13877.77
421.9632, 13765.03
422.4453, 13672.63
422.9274, 13618.19
423.4095, 13589.04
423.8917, 13547.49
424.3738, 13481.07
424.8559, 13410.28
425.3380, 13344.17
425.8201, 13287.60
426.3022, 13217.67
426.7844, 13109.96
427.2665, 13003.57
427.7486, 12966.33
428.2307, 13038.90
428.7128, 13086.72
429.1949, 13058.87
429.6771, 12957.67
430.1592, 12912.29
430.6413, 12938.69
431.1234, 12978.54
431.6055, 12962.87
432.0876, 12889.18
432.5698, 12845.99
433.0519, 12857.75
433.5340, 12906.80
434.0161, 12958.96
434.4982, 13013.92
434.9803, 13055.37
435.4625, 13058.58
435.9446, 13039.45
436.4267, 13039.20
436.9088, 13066.58
437.3909, 13106.70
437.8730, 13150.34
438.3552, 13194.59
438.8373, 13230.91
439.3194, 13251.95
439.8015, 13264.74
440.2836, 13274.50
440.7657, 13281.30
441.2479, 13287.25
441.7300, 13293.34
442.2121, 13298.98
442.6942, 13303.53
443.1763, 13313.14
443.6584, 13314.98
444.1406, 13302.29
444.6227, 13275.63
445.1048, 13246.55
445.5869, 13220.19
446.0690, 13190.22
446.5511, 13152.99
447.0333, 13091.75
447.5154, 13044.90
447.9975, 13019.96
448.4796, 13009.10
448.9617, 12990.50
449.4438, 12960.04
449.9260, 12929.69
450.4081, 12902.83
450.8902, 12878.84
451.3723, 12866.87
451.8544, 12874.05
452.3365, 12882.08
452.8186, 12857.49
453.3008, 12795.79
453.7829, 12755.74
454.2650, 12763.71
454.7471, 12804.24
455.2292, 12820.36
455.7113, 12810.81
456.1935, 12798.37
456.6756, 12804.33
457.1577, 12822.65
457.6398, 12837.14
458.1219, 12844.10
458.6040, 12846.40
459.0862, 12838.75
459.5683, 12827.10
460.0504, 12831.22
460.5325, 12872.94
461.0146, 12929.45
461.4967, 12979.19
461.9789, 13017.31
462.4610, 13061.79
462.9431, 13121.92
463.4252, 13193.61
463.9073, 13270.73
464.3894, 13360.30
464.8716, 13446.54
465.3537, 13524.43
465.8358, 13593.82
466.3179, 13658.31
466.8000, 13732.46
467.2821, 13792.33
467.7643, 13822.64
468.2464, 13801.10
468.7285, 13786.31
469.2106, 13785.74
469.6927, 13791.96
470.1748, 13784.78
470.6570, 13760.12
471.1391, 13731.50
471.6212, 13704.74
472.1033, 13679.83
472.5854, 13647.76
473.0675, 13604.38
473.5497, 13566.27
474.0318, 13558.27
474.5139, 13578.17
474.9960, 13597.64
475.4781, 13601.19
475.9602, 13604.06
476.4424, 13636.90
476.9245, 13698.85
477.4066, 13780.42
477.8887, 13883.33
478.3708, 13999.15
478.8529, 14108.86
479.3351, 14194.31
479.8172, 14310.38
480.2993, 14533.67
480.7814, 14817.70
481.2635, 15065.28
481.7456, 15187.49
482.2278, 15304.75
482.7099, 15486.41
483.1920, 15745.45
483.6741, 15995.41
484.1562, 16232.72
484.6383, 16439.40
485.1205, 16601.64
485.6026, 16739.46
486.0847, 16804.45
486.5668, 16786.15
487.0489, 16690.82
487.5310, 16541.48
488.0132, 16316.63
488.4953, 16075.92
488.9774, 15849.93
489.4595, 15649.64
489.9416, 15413.84
490.4237, 15130.56
490.9059, 14832.67
491.3880, 14559.41
491.8701, 14313.19
492.3522, 14082.95
492.8343, 13858.71
493.3164, 13653.45
493.7986, 13507.28
494.2807, 13420.51
494.7628, 13345.10
495.2449, 13239.48
495.7270, 13119.66
496.2091, 13015.74
496.6913, 12930.18
497.1734, 12865.41
497.6555, 12826.84
498.1376, 12809.66
498.6197, 12802.32
499.1018, 12792.63
499.5840, 12796.22
500.0661, 12829.88
500.5482, 12900.05
501.0303, 12952.38
501.5124, 12948.49
501.9945, 12934.32
502.4767, 12951.44
502.9588, 13040.12
503.4409, 13113.63
503.9230, 13162.53
504.4051, 13191.14
504.8872, 13213.95
505.3694, 13223.48
505.8515, 13243.04
506.3336, 13287.79
506.8157, 13363.21
507.2978, 13427.23
507.7799, 13474.57
508.2621, 13524.14
508.7442, 13611.33
509.2263, 13731.45
509.7084, 13834.61
510.1905, 13893.30
510.6726, 13930.73
511.1548, 13998.61
511.6369, 14093.50
512.1190, 14177.54
512.6011, 14221.91
513.0832, 14240.78
513.5653, 14254.47
514.0474, 14271.72
514.5295, 14267.90
515.0117, 14219.24
515.4938, 14140.36
515.9759, 14057.01
516.4580, 13974.24
516.9401, 13891.84
517.4222, 13809.44
517.9044, 13727.27
518.3865, 13647.96
518.8686, 13570.10
519.3507, 13497.14
519.8328, 13431.67
520.3149, 13385.09
520.7971, 13324.34
521.2792, 13242.51
521.7613, 13148.38
522.2434, 13061.44
522.7255, 12980.54
523.2076, 12909.20
523.6898, 12855.10
524.1719, 12814.73
524.6540, 12747.56
525.1361, 12649.52
525.6182, 12556.69
526.1003, 12517.51
526.5825, 12513.46
527.0646, 12489.69
527.5467, 12426.51
528.0288, 12352.01
528.5109, 12290.54
528.9930, 12241.94
529.4752, 12203.73
529.9573, 12190.30
530.4394, 12175.94
530.9215, 12139.44
531.4036, 12075.53
531.8857, 12015.75
532.3679, 11971.18
532.8500, 11934.71
533.3321, 11900.58
533.8142, 11870.13
534.2963, 11838.44
534.7784, 11797.54
535.2606, 11754.36
535.7427, 11735.61
536.2248, 11754.71
536.7069, 11772.34
537.1890, 11769.31
537.6711, 11743.21
538.1533, 11728.39
538.6354, 11725.33
539.1175, 11732.30
539.5996, 11757.56
540.0817, 11796.66
540.5638, 11810.84
541.0460, 11781.59
541.5281, 11734.22
542.0102, 11707.92
542.4923, 11699.27
542.9744, 11692.28
543.4565, 11690.78
543.9387, 11678.63
544.4208, 11630.72
544.9029, 11538.10
545.3850, 11459.69
545.8671, 11435.37
546.3492, 11434.72
546.8314, 11424.35
547.3135, 11388.11
547.7956, 11350.84
548.2777, 11318.93
548.7598, 11290.07
549.2419, 11253.17
549.7241, 11194.10
550.2062, 11146.51
550.6883, 11129.82
551.1704, 11153.53
551.6525, 11147.84
552.1346, 11103.26
552.6168, 11050.17
553.0989, 11032.34
553.5810, 11047.70
554.0631, 11034.76
554.5452, 10963.49
555.0273, 10875.88
555.5095, 10857.26
555.9916, 10896.80
556.4737, 10936.47
556.9558, 10939.70
557.4379, 10924.82
557.9200, 10909.33
558.4022, 10894.25
558.8843, 10884.56
559.3664, 10902.29
559.8485, 10918.08
560.3306, 10901.69
560.8127, 10778.26
561.2949, 10697.34
561.7770, 10716.51
562.2591, 10807.42
562.7412, 10860.68
563.2233, 10849.76
563.7054, 10834.98
564.1876, 10840.04
564.6697, 10868.82
565.1518, 10878.94
565.6339, 10866.01
566.1160, 10845.08
566.5981, 10831.79
567.0803, 10825.98
567.5624, 10813.79
568.0445, 10788.51
568.5266, 10763.61
569.0087, 10767.86
569.4908, 10794.57
569.9730, 10814.95
570.4551, 10810.73
570.9372, 10794.50
571.4193, 10772.33
571.9014, 10744.95
572.3835, 10732.24
572.8657, 10762.85
573.3478, 10802.82
573.8299, 10822.78
574.3120, 10801.88
574.7941, 10782.18
575.2762, 10764.30
575.7584, 10752.54
576.2405, 10757.96
576.7226, 10800.41
577.2047, 10826.26
577.6868, 10811.36
578.1689, 10759.99
578.6511, 10749.26
579.1332, 10789.02
579.6153, 10832.51
580.0974, 10837.79
580.5795, 10811.45
581.0616, 10802.81
581.5438, 10821.16
582.0259, 10844.51
582.5080, 10845.03
582.9901, 10829.29
583.4722, 10813.53
583.9543, 10797.69
584.4365, 10790.13
584.9186, 10801.80
585.4007, 10829.47
585.8828, 10855.73
586.3649, 10879.90
586.8470, 10895.39
587.3292, 10894.36
587.8113, 10860.81
588.2934, 10851.63
588.7755, 10886.04
589.2576, 10934.14
589.7397, 10962.82
590.2219, 10962.80
590.7040, 10967.65
591.1861, 10982.46
591.6682, 11005.77
592.1503, 11034.57
592.6324, 11069.14
593.1146, 11105.33
593.5967, 11140.63
594.0788, 11176.11
594.5609, 11214.45
595.0430, 11255.79
595.5251, 11298.04
596.0073, 11340.39
596.4894, 11382.00
596.9715, 11421.37
597.4536, 11452.25
597.9357, 11491.01
598.4178, 11545.00
598.9000, 11612.21
599.3821, 11689.81
599.8642, 11799.15
600.3463, 11895.81
600.8284, 11964.22
601.3105, 12005.67
601.7927, 12054.80
602.2748, 12107.56
602.7569, 12175.50
603.2390, 12264.38
603.7211, 12374.67
604.2032, 12510.75
604.6854, 12677.36
605.1675, 12853.25
605.6496, 13004.20
606.1317, 13136.72
606.6138, 13275.19
607.0959, 13416.87
607.5781, 13582.34
608.0602, 13798.46
608.5423, 14057.56
609.0244, 14339.48
609.5065, 14625.15
609.9886, 14930.49
610.4708, 15268.11
610.9529, 15647.65
611.4350, 16014.76
611.9171, 16338.21
612.3992, 16662.36
612.8813, 17021.87
613.3635, 17450.49
613.8456, 17856.29
614.3277, 18231.37
614.8098, 18587.78
615.2919, 18954.90
615.7740, 19338.60
616.2562, 19662.41
616.7383, 19894.24
617.2204, 20046.06
617.7025, 20149.17
618.1846, 20204.04
618.6667, 20194.76
619.1489, 20104.48
619.6310, 19946.97
620.1131, 19739.93
620.5952, 19484.77
621.0773, 19173.91
621.5594, 18771.18
622.0416, 18327.07
622.5237, 17897.13
623.0058, 17494.78
623.4879, 17105.80
623.9700, 16721.89
624.4521, 16349.92
624.9343, 16006.63
625.4164, 15696.92
625.8985, 15412.51
626.3806, 15154.88
626.8627, 14921.87
627.3448, 14692.17
627.8270, 14464.61
628.3091, 14248.95
628.7912, 14050.90
629.2733, 13871.80
629.7554, 13709.24
630.2375, 13562.12
630.7197, 13435.88
631.2018, 13352.24
631.6839, 13288.68
632.1660, 13210.83
632.6481, 13077.59
633.1302, 12959.28
633.6124, 12891.64
634.0945, 12861.33
634.5766, 12816.52
635.0587, 12736.23
635.5408, 12659.09
636.0229, 12597.60
636.5051, 12552.21
636.9872, 12505.53
637.4693, 12453.83
637.9514, 12409.08
638.4335, 12381.59
638.9156, 12370.38
639.3978, 12374.65
639.8799, 12400.21
640.3620, 12417.93
640.8441, 12379.15
641.3262, 12307.04
641.8083, 12251.59
642.2905, 12240.30
642.7726, 12243.79
643.2547, 12254.44
643.7368, 12266.78
644.2189, 12262.57
644.7010, 12211.80
645.1832, 12165.81
645.6653, 12151.94
646.1474, 12175.21
646.6295, 12175.37
647.1116, 12133.39
647.5938, 12096.39
648.0759, 12109.48
648.5580, 12179.19
649.0401, 12212.25
649.5222, 12196.45
650.0043, 12160.57
650.4865, 12138.57
650.9686, 12128.77
651.4507, 12126.12
651.9328, 12129.35
652.4149, 12138.16
652.8970, 12158.65
653.3792, 12185.28
653.8613, 12201.37
654.3434, 12191.84
654.8255, 12176.87
655.3076, 12163.89
655.7897, 12152.92
656.2718, 12148.30
656.7539, 12150.49
657.2360, 12158.14
657.7181, 12173.94
658.2003, 12203.89
658.6824, 12213.44
659.1645, 12197.04
659.6466, 12172.34
660.1287, 12161.64
660.6108, 12163.62
661.0930, 12169.88
661.5751, 12177.55
662.0572, 12190.26
662.5393, 12217.64
663.0214, 12254.13
663.5035, 12284.55
663.9857, 12290.29
664.4678, 12297.37
664.9499, 12321.06
665.4320, 12361.00
665.9141, 12399.51
666.3962, 12441.77
666.8784, 12473.43
667.3605, 12483.60
667.8426, 12462.51
668.3247, 12462.97
668.8068, 12490.40
669.2889, 12527.28
669.7711, 12555.47
670.2532, 12576.08
670.7353, 12597.04
671.2174, 12617.72
671.6995, 12645.55
672.1816, 12696.82
672.6638, 12763.45
673.1459, 12824.76
673.6280, 12872.20
674.1101, 12912.63
674.5922, 12946.40
675.0743, 12975.21
675.5565, 13008.05
676.0386, 13044.46
676.5207, 13087.67
677.0028, 13141.21
677.4849, 13206.86
677.9670, 13261.65
678.4492, 13300.49
678.9313, 13339.39
679.4134, 13396.46
679.8955, 13468.71
680.3776, 13527.03
680.8597, 13569.56
681.3419, 13593.88
681.8240, 13592.74
682.3061, 13572.55
682.7882, 13545.64
683.2703, 13514.35
683.7524, 13481.21
684.2346, 13444.46
684.7167, 13407.36
685.1988, 13376.20
685.6809, 13364.80
686.1630, 13346.96
686.6451, 13312.28
687.1273, 13263.70
687.6094, 13224.01
688.0915, 13193.63
688.5736, 13171.77
689.0557, 13156.95
689.5378, 13149.58
690.0200, 13157.24
690.5021, 13181.15
690.9842, 13205.11
691.4663, 13211.43
691.9484, 13208.52
692.4305, 13209.69
692.9127, 13217.76
693.3948, 13229.57
693.8769, 13242.54
694.3590, 13258.62
694.8411, 13280.12
695.3232, 13323.36
695.8054, 13352.25
696.2875, 13351.92
696.7696, 13337.00
697.2517, 13343.68
697.7338, 13371.79
698.2159, 13424.29
698.6981, 13513.91
699.1802, 13624.87
699.6623, 13691.91
700.1444, 13717.72
700.6265, 13750.49
701.1086, 13833.74
701.5908, 13936.82
702.0729, 14018.68
702.5550, 14073.95
703.0371, 14137.55
703.5192, 14244.82
704.0013, 14355.51
704.4835, 14437.36
704.9656, 14455.46
705.4477, 14498.33
705.9298, 14584.17
706.4119, 14679.85
706.8940, 14745.25
707.3762, 14777.05
707.8583, 14803.64
708.3404, 14832.99
708.8225, 14855.47
709.3046, 14848.16
709.7867, 14817.03
710.2689, 14785.42
710.7510, 14777.76
711.2331, 14763.41
711.7152, 14697.74
712.1973, 14596.34
712.6794, 14527.26
713.1616, 14543.61
713.6437, 14573.09
714.1258, 14582.89
714.6079, 14570.72
715.0900, 14563.96
715.5721, 14562.48
716.0543, 14566.46
716.5364, 14571.79
717.0185, 14578.52
717.5006, 14620.13
717.9827, 14704.10
718.4648, 14782.19
718.9470, 14793.06
719.4291, 14762.56
719.9112, 14740.75
720.3933, 14744.41
720.8754, 14747.21
721.3575, 14717.36
721.8397, 14681.02
722.3218, 14676.61
722.8039, 14746.97
723.2860, 14807.87
723.7681, 14849.26
724.2502, 14872.55
724.7324, 14878.67
725.2145, 14864.33
725.6966, 14844.66
726.1787, 14824.31
726.6608, 14802.27
727.1429, 14766.60
727.6251, 14720.26
728.1072, 14696.65
728.5893, 14740.39
729.0714, 14802.77
729.5535, 14840.37
730.0356, 14850.10
730.5178, 14841.01
730.9999, 14805.19
731.4820, 14760.97
731.9641, 14720.20
732.4462, 14684.98
732.9283, 14646.64
733.4105, 14597.58
733.8926, 14558.28
734.3747, 14559.54
734.8568, 14600.08
735.3389, 14614.41
735.8210, 14589.83
736.3032, 14549.22
736.7853, 14516.41
737.2674, 14489.51
737.7495, 14464.77
738.2316, 14434.71
738.7137, 14413.85
739.1959, 14417.27
739.6780, 14434.79
740.1601, 14443.27
740.6422, 14428.84
741.1243, 14417.03
741.6064, 14413.19
742.0886, 14415.72
742.5707, 14418.25
743.0528, 14421.03
743.5349, 14422.44
744.0170, 14420.57
744.4991, 14416.98
744.9813, 14418.30
745.4634, 14423.64
745.9455, 14423.74
746.4276, 14409.04
746.9097, 14388.54
747.3918, 14364.12
747.8740, 14332.77
748.3561, 14324.27
748.8382, 14383.35
749.3203, 14437.68
749.8024, 14436.83
750.2845, 14350.86
750.7667, 14308.30
751.2488, 14322.19
751.7309, 14348.56
752.2130, 14325.13
752.6951, 14265.52
753.1772, 14243.01
753.6594, 14278.81
754.1415, 14328.45
754.6236, 14355.14
755.1057, 14364.46
755.5878, 14365.80
756.0699, 14336.17
756.5521, 14328.67
757.0342, 14371.22
757.5163, 14445.17
757.9984, 14505.52
758.4805, 14543.59
758.9626, 14588.70
759.4448, 14647.63
759.9269, 14718.70
760.4090, 14792.98
760.8911, 14871.17
761.3732, 14969.22
761.8553, 15118.90
762.3375, 15278.13
762.8196, 15381.29
763.3017, 15438.68
763.7838, 15518.74
764.2659, 15669.69
764.7480, 15838.65
765.2302, 15999.07
765.7123, 16148.41
766.1944, 16293.60
766.6765, 16429.80
767.1586, 16569.16
767.6407, 16735.29
768.1229, 16927.69
768.6050, 17034.92
769.0871, 17053.75
769.5692, 17001.66
770.0513, 16870.83
770.5334, 16687.28
771.0156, 16490.97
771.4977, 16282.42
771.9798, 16076.72
772.4619, 15881.33
772.9440, 15692.40
773.4261, 15505.57
773.9083, 15295.55
774.3904, 15127.68
774.8725, 15010.32
775.3546, 14928.16
775.8367, 14862.37
776.3188, 14813.20
776.8010, 14762.58
777.2831, 14703.90
777.7652, 14649.25
778.2473, 14615.47
778.7294, 14599.11
779.2115, 14591.20
779.6937, 14584.92
780.1758, 14589.78
780.6579, 14631.98
781.1400, 14689.94
781.6221, 14695.94
782.1042, 14611.03
782.5864, 14531.83
783.0685, 14481.02
783.5506, 14451.63
784.0327, 14416.73
784.5148, 14375.62
784.9969, 14341.66
785.4791, 14331.37
785.9612, 14327.06
786.4433, 14293.13
786.9254, 14235.96
787.4075, 14188.73
787.8896, 14183.94
788.3718, 14182.18
788.8539, 14156.00
789.3360, 14101.40
789.8181, 14071.94
790.3002, 14079.30
790.7823, 14096.30
791.2645, 14111.64
791.7466, 14125.42
792.2287, 14131.87
792.7108, 14130.69
793.1929, 14125.88
793.6750, 14123.75
794.1572, 14118.63
794.6393, 14097.97
795.1214, 14057.83
795.6035, 14024.66
796.0856, 14018.97
796.5677, 14020.08
797.0499, 14010.61
797.5320, 13981.00
798.0141, 13960.35
798.4962, 13945.00
798.9783, 13944.08
799.4604, 13977.49
799.9426, 14041.50
800.4247, 14079.19
800.9068, 14079.39
801.3889, 14072.89
801.8710, 14102.10
802.3531, 14143.42
802.8353, 14160.28
803.3174, 14133.14
803.7995, 14099.26
804.2816, 14063.71
804.7637, 14031.16
805.2458, 14007.71
805.7280, 13997.52
806.2101, 13986.38
806.6922, 13972.48
807.1743, 13956.66
807.6564, 13938.21
808.1385, 13918.11
808.6207, 13904.08
809.1028, 13902.12
809.5849, 13900.72
810.0670, 13891.92
810.5491, 13875.10
811.0313, 13849.23
811.5134, 13807.78
811.9955, 13764.65
812.4776, 13724.89
812.9597, 13685.82
813.4418, 13639.63
813.9240, 13583.29
814.4061, 13533.27
814.8882, 13498.89
815.3703, 13469.35
815.8524, 13414.59
816.3345, 13340.15
816.8167, 13274.35
817.2988, 13226.39
817.7809, 13194.98
818.2630, 13194.95
818.7451, 13215.17
819.2272, 13206.52
819.7094, 13128.77
820.1915, 13054.03
820.6736, 12998.91
821.1556, 12961.91
821.6378, 12945.49
822.1199, 12952.26
822.6020, 12948.38
823.0841, 12900.06
823.5662, 12835.23
824.0483, 12807.65
824.5305, 12812.65
825.0126, 12819.16
825.4947, 12812.19
825.9768, 12800.98
826.4589, 12792.75
826.9410, 12788.08
827.4232, 12769.74
827.9053, 12726.93
828.3874, 12690.55
828.8695, 12674.23
829.3516, 12676.74
829.8337, 12691.13
830.3159, 12717.10
830.7980, 12743.75
831.2801, 12774.02
831.7622, 12794.00
832.2443, 12777.29
832.7264, 12723.16
833.2086, 12689.05
833.6907, 12708.04
834.1728, 12740.49
834.6549, 12767.76
835.1370, 12790.55
835.6191, 12802.31
836.1013, 12800.23
836.5834, 12798.26
837.0655, 12805.39
837.5476, 12820.95
838.0297, 12847.31
838.5118, 12884.33
838.9940, 12913.89
839.4761, 12906.83
839.9582, 12898.58
840.4403, 12922.36
840.9224, 12992.98
841.4045, 13042.69
841.8867, 13061.42
842.3688, 13066.50
842.8509, 13058.16
843.3330, 13034.65
843.8151, 13064.74
844.2972, 13153.43
844.7794, 13246.72
845.2615, 13307.14
845.7436, 13338.06
846.2257, 13331.50
846.7078, 13279.42
847.1899, 13254.39
847.6721, 13308.09
848.1542, 13382.72
848.6363, 13437.84
849.1184, 13468.29
849.6005, 13498.82
850.0826, 13529.99
850.5648, 13560.88
851.0469, 13587.05
851.5290, 13612.05
852.0111, 13651.08
852.4932, 13706.70
852.9753, 13759.89
853.4575, 13798.22
853.9396, 13825.51
854.4217, 13843.54
854.9038, 13848.43
855.3859, 13853.93
855.8680, 13849.81
856.3502, 13859.57
856.8323, 13910.99
857.3144, 14005.42
857.7965, 14067.09
858.2786, 14090.39
858.7607, 14097.41
859.2429, 14103.37
859.7250, 14108.61
860.2071, 14113.97
860.6892, 14120.06
861.1713, 14124.24
861.6534, 14131.35
862.1356, 14131.58
862.6177, 14116.39
863.0998, 14078.44
863.5819, 14051.84
864.0640, 14036.87
864.5461, 14030.96
865.0283, 14040.03
865.5104, 14055.29
865.9925, 14052.31
866.4746, 14027.87
866.9567, 13993.04
867.4388, 13945.18
867.9210, 13896.30
868.4031, 13857.28
868.8852, 13833.82
869.3673, 13806.68
869.8494, 13771.93
870.3315, 13741.12
870.8137, 13733.83
871.2958, 13745.50
871.7779, 13712.59
872.2600, 13629.09
872.7421, 13551.30
873.2242, 13541.51
873.7064, 13555.53
874.1885, 13544.27
874.6706, 13495.61
875.1527, 13451.10
875.6348, 13418.36
876.1169, 13394.17
876.5991, 13378.32
877.0812, 13371.66
877.5633, 13363.73
878.0454, 13354.26
878.5275, 13343.92
879.0096, 13335.26
879.4918, 13325.26
879.9739, 13304.95
880.4560, 13273.17
880.9381, 13250.79
881.4202, 13273.45
881.9023, 13288.21
882.3845, 13254.37
882.8666, 13163.98
883.3487, 13097.14
883.8308, 13056.54
884.3129, 13031.08
884.7950, 13025.16
885.2772, 13026.99
885.7593, 12992.46
886.2414, 12922.77
886.7235, 12859.31
887.2056, 12843.56
887.6877, 12832.35
888.1699, 12790.22
888.6520, 12711.34
889.1341, 12652.18
889.6162, 12619.55
890.0983, 12598.18
890.5804, 12587.98
891.0626, 12584.24
891.5447, 12548.54
892.0268, 12483.19
892.5089, 12428.52
892.9910, 12415.09
893.4731, 12420.92
893.9553, 12429.10
894.4374, 12438.86
894.9195, 12454.01
895.4016, 12484.49
895.8837, 12507.95
896.3658, 12512.00
896.8480, 12502.22
897.3301, 12516.40
897.8122, 12554.29
898.2943, 12586.57
898.7764, 12590.96
899.2585, 12584.79
899.7407, 12589.32
900.2228, 12601.94
900.7049, 12612.40
901.1870, 12612.58
901.6691, 12615.79
902.1512, 12625.96
902.6334, 12642.40
903.1155, 12666.75
903.5976, 12701.95
904.0797, 12719.27
904.5618, 12705.50
905.0439, 12671.88
905.5261, 12635.07
906.0082, 12592.42
906.4903, 12537.24
906.9724, 12429.23
907.4545, 12348.70
907.9366, 12359.58
908.4188, 12406.83
908.9009, 12373.12
909.3830, 12229.96
909.8651, 12121.94
910.3472, 12086.99
910.8293, 12085.27
911.3115, 12054.30
911.7936, 12004.27
912.2757, 11958.87
912.7578, 11927.90
913.2399, 11901.21
913.7220, 11870.40
914.2042, 11842.90
914.6863, 11828.83
915.1684, 11830.88
915.6505, 11840.52
916.1326, 11860.16
916.6147, 11879.43
917.0969, 11880.83
917.5790, 11870.43
918.0611, 11865.39
918.5432, 11868.27
919.0253, 11880.04
919.5074, 11912.77
919.9896, 11948.02
920.4717, 11966.67
920.9538, 11957.96
921.4359, 11958.75
921.9180, 11972.31
922.4001, 11988.73
922.8823, 11993.79
923.3644, 11993.57
923.8465, 12016.44
924.3286, 12065.21
924.8107, 12109.24
925.2928, 12125.12
925.7750, 12128.00
926.2571, 12125.90
926.7392, 12117.46
927.2213, 12122.00
927.7034, 12144.16
928.1855, 12170.60
928.6677, 12194.54
929.1498, 12216.42
929.6319, 12235.51
930.1140, 12252.34
930.5961, 12275.19
931.0782, 12319.45
931.5604, 12363.05
932.0425, 12394.73
932.5246, 12412.69
933.0067, 12403.99
933.4888, 12350.27
933.9709, 12305.40
934.4531, 12292.18
934.9352, 12295.01
935.4173, 12259.64
935.8994, 12192.21
936.3815, 12129.02
936.8636, 12099.42
937.3458, 12069.19
937.8279, 12001.49
938.3100, 11915.79
938.7921, 11859.09
939.2742, 11867.35
939.7563, 11851.76
940.2385, 11791.62
940.7206, 11712.71
941.2027, 11660.83
941.6848, 11632.52
942.1669, 11609.78
942.6490, 11590.29
943.1312, 11569.03
943.6133, 11538.76
944.0954, 11505.46
944.5775, 11476.13
945.0596, 11450.90
945.5417, 11432.09
946.0239, 11420.25
946.5060, 11413.26
946.9881, 11408.93
947.4702, 11407.36
947.9523, 11411.93
948.4344, 11423.68
948.9166, 11430.64
949.3987, 11413.66
949.8808, 11395.12
950.3629, 11396.18
950.8450, 11424.55
951.3271, 11444.83
951.8093, 11455.34
952.2914, 11460.34
952.7735, 11459.89
953.2556, 11455.82
953.7377, 11454.49
954.2198, 11456.36
954.7020, 11465.78
955.1841, 11498.37
955.6662, 11527.91
956.1483, 11529.14
956.6304, 11507.54
957.1125, 11507.54
957.5947, 11544.56
958.0768, 11568.69
958.5589, 11560.14
959.0410, 11535.49
959.5231, 11535.14
960.0052, 11553.97
960.4874, 11573.87
960.9695, 11596.33
961.4516, 11606.34
961.9337, 11587.29
962.4158, 11552.87
962.8979, 11525.81
963.3801, 11501.87
963.8622, 11501.35
964.3443, 11533.80
964.8264, 11570.98
965.3085, 11575.22
965.7906, 11554.32
966.2728, 11523.69
966.7549, 11482.00
967.2370, 11453.25
967.7191, 11460.94
968.2012, 11479.27
968.6833, 11486.25
969.1655, 11477.32
969.6476, 11480.71
970.1297, 11499.59
970.6118, 11517.28
971.0939, 11521.48
971.5760, 11515.78
972.0582, 11505.26
972.5403, 11490.84
973.0224, 11477.50
973.5045, 11468.05
973.9866, 11459.66
974.4688, 11445.67
974.9509, 11431.14
975.4330, 11448.34
975.9151, 11502.75
976.3972, 11536.34
976.8793, 11513.48
977.3615, 11475.63
977.8436, 11485.23
978.3257, 11526.83
978.8078, 11565.56
979.2899, 11573.09
979.7720, 11598.20
980.2542, 11662.37
980.7363, 11738.47
981.2184, 11787.04
981.7005, 11807.10
982.1826, 11835.15
982.6647, 11875.70
983.1469, 11925.03
983.6290, 11981.27
984.1111, 12042.62
984.5932, 12111.54
985.0753, 12195.17
985.5574, 12255.34
986.0395, 12272.03
986.5216, 12288.23
987.0037, 12334.58
987.4858, 12406.86
987.9680, 12457.93
988.4501, 12488.62
988.9322, 12516.92
989.4143, 12566.33
989.8964, 12608.00
990.3785, 12609.13
990.8607, 12578.72
991.3428, 12579.67
991.8249, 12640.39
992.3070, 12677.19
992.7891, 12664.96
993.2712, 12620.36
993.7534, 12565.03
994.2355, 12507.04
994.7176, 12474.86
995.1997, 12489.97
995.6818, 12512.36
996.1639, 12517.37
996.6461, 12520.29
997.1282, 12539.03
997.6103, 12573.57
998.0924, 12625.89
998.5745, 12698.16
999.0566, 12779.74
999.5388, 12857.97
1000.021, 12937.46
1000.503, 13030.69
1000.985, 13137.59
1001.467, 13235.29
1001.949, 13299.27
1002.431, 13365.80
1002.914, 13454.20
1003.396, 13561.49
1003.878, 13652.86
1004.360, 13729.41
1004.842, 13793.60
1005.324, 13851.06
1005.806, 13895.57
1006.288, 13919.09
1006.771, 13925.35
1007.253, 13923.51
1007.735, 13914.20
1008.217, 13899.69
1008.699, 13882.67
1009.181, 13857.65
1009.663, 13815.25
1010.145, 13756.48
1010.627, 13686.67
1011.110, 13604.21
1011.592, 13524.07
1012.074, 13453.38
1012.556, 13394.49
1013.038, 13351.43
1013.520, 13325.14
1014.002, 13307.50
1014.484, 13301.26
1014.966, 13294.67
1015.449, 13278.40
1015.931, 13256.80
1016.413, 13231.07
1016.895, 13206.31
1017.377, 13207.50
1017.859, 13271.76
1018.341, 13336.27
1018.823, 13371.38
1019.306, 13392.21
1019.788, 13435.60
1020.270, 13502.53
1020.752, 13572.79
1021.234, 13638.85
1021.716, 13714.32
1022.198, 13813.39
1022.680, 13932.71
1023.162, 14066.76
1023.645, 14218.58
1024.127, 14379.24
1024.609, 14550.85
1025.091, 14725.94
1025.573, 14884.22
1026.055, 15037.32
1026.537, 15268.04
1027.019, 15571.95
1027.502, 15877.01
1027.984, 16118.13
1028.466, 16362.73
1028.948, 16654.38
1029.430, 16988.46
1029.912, 17319.12
1030.394, 17644.46
1030.876, 17982.72
1031.359, 18350.22
1031.841, 18722.72
1032.323, 19057.17
1032.805, 19366.98
1033.287, 19691.64
1033.769, 20096.58
1034.251, 20414.75
1034.733, 20581.79
1035.215, 20679.87
1035.698, 20783.96
1036.180, 20894.72
1036.662, 20911.08
1037.144, 20829.70
1037.626, 20665.77
1038.108, 20408.11
1038.590, 20092.62
1039.072, 19731.08
1039.554, 19331.12
1040.037, 18935.17
1040.519, 18549.89
1041.001, 18165.17
1041.483, 17775.14
1041.965, 17393.59
1042.447, 17022.68
1042.929, 16673.27
1043.411, 16374.05
1043.894, 16152.45
1044.376, 15944.00
1044.858, 15715.42
1045.340, 15495.21
1045.822, 15310.43
1046.304, 15163.70
1046.786, 15034.80
1047.268, 14924.89
1047.750, 14818.68
1048.233, 14686.21
1048.715, 14562.68
1049.197, 14495.94
1049.679, 14483.66
1050.161, 14464.55
1050.643, 14429.13
1051.125, 14390.61
1051.607, 14349.89
1052.089, 14310.99
1052.572, 14288.21
1053.054, 14275.36
1053.536, 14250.91
1054.018, 14202.26
1054.500, 14152.25
1054.982, 14106.64
1055.464, 14068.35
1055.946, 14036.89
1056.429, 14008.71
1056.911, 14015.50
1057.393, 14060.88
1057.875, 14103.75
1058.357, 14105.27
1058.839, 14090.33
1059.321, 14088.92
1059.803, 14099.39
1060.286, 14093.50
1060.768, 14057.09
1061.250, 14023.16
1061.732, 14002.93
1062.214, 13985.47
1062.696, 13939.67
1063.178, 13876.32
1063.660, 13831.35
1064.142, 13819.20
1064.625, 13814.68
1065.107, 13819.10
1065.589, 13815.37
1066.071, 13789.41
1066.553, 13739.18
1067.035, 13675.56
1067.517, 13596.43
1067.999, 13528.09
1068.481, 13498.63
1068.964, 13482.90
1069.446, 13458.43
1069.928, 13425.27
1070.410, 13386.58
1070.892, 13337.82
1071.374, 13294.85
1071.856, 13262.70
1072.338, 13234.13
1072.820, 13197.35
1073.303, 13154.27
1073.785, 13110.78
1074.267, 13067.02
1074.749, 13025.03
1075.231, 12992.30
1075.713, 12954.57
1076.195, 12896.17
1076.677, 12816.66
1077.160, 12784.63
1077.642, 12799.76
1078.124, 12801.84
1078.606, 12741.45
1079.088, 12663.16
1079.570, 12603.29
1080.052, 12557.03
1080.534, 12507.69
1081.016, 12436.85
1081.499, 12409.67
1081.981, 12447.92
1082.463, 12494.33
1082.945, 12471.77
1083.427, 12406.48
1083.909, 12342.25
1084.391, 12283.89
1084.873, 12251.18
1085.355, 12278.24
1085.838, 12305.66
1086.320, 12309.45
1086.802, 12292.76
1087.284, 12261.68
1087.766, 12219.93
1088.248, 12199.56
1088.730, 12227.31
1089.212, 12262.41
1089.695, 12282.91
1090.177, 12290.81
1090.659, 12286.44
1091.141, 12260.69
1091.623, 12261.56
1092.105, 12295.19
1092.587, 12331.18
1093.069, 12341.52
1093.552, 12337.91
1094.034, 12340.51
1094.516, 12347.53
1094.998, 12327.15
1095.480, 12234.90
1095.962, 12179.43
1096.444, 12203.69
1096.926, 12260.02
1097.408, 12233.78
1097.891, 12151.69
1098.373, 12098.98
1098.855, 12100.71
1099.337, 12124.76
1099.819, 12187.72
1100.301, 12240.03
1100.783, 12238.54
1101.265, 12181.40
1101.747, 12155.73
1102.230, 12161.22
1102.712, 12192.10
1103.194, 12269.64
1103.676, 12348.27
1104.158, 12371.19
1104.640, 12367.58
1105.122, 12416.05
1105.604, 12526.65
1106.087, 12669.47
1106.569, 12846.61
1107.051, 13032.95
1107.533, 13161.05
1108.015, 13292.76
1108.497, 13536.55
1108.979, 13911.66
1109.461, 14285.76
1109.943, 14597.16
1110.426, 14953.14
1110.908, 15389.47
1111.390, 15902.06
1111.872, 16468.24
1112.354, 17080.63
1112.836, 17721.04
1113.318, 18386.14
1113.800, 19058.28
1114.282, 19717.99
1114.765, 20399.04
1115.247, 21136.92
1115.729, 21935.60
1116.211, 22746.02
1116.693, 23568.16
1117.175, 24381.34
1117.657, 25223.31
1118.139, 26005.20
1118.622, 26723.34
1119.104, 27305.30
1119.586, 27583.11
1120.068, 27572.56
1120.550, 27193.40
1121.032, 26402.66
1121.514, 25347.97
1121.996, 24135.75
1122.479, 22822.85
1122.961, 21477.05
1123.443, 20082.65
1123.925, 18816.57
1124.407, 17693.10
1124.889, 16689.87
1125.371, 15797.01
1125.853, 15015.47
1126.335, 14382.97
1126.818, 13874.34
1127.300, 13422.42
1127.782, 13013.03
1128.264, 12648.75
1128.746, 12346.36
1129.228, 12076.09
1129.710, 11809.43
1130.192, 11550.29
1130.674, 11340.06
1131.157, 11179.64
1131.639, 11029.65
1132.121, 10844.94
1132.603, 10681.91
1133.085, 10583.72
1133.567, 10533.97
1134.049, 10489.31
1134.531, 10450.28
1135.014, 10407.62
1135.496, 10359.61
1135.978, 10306.56
1136.460, 10240.66
1136.942, 10175.70
1137.424, 10129.98
1137.906, 10109.17
1138.388, 10077.03
1138.870, 10030.90
1139.353, 9983.424
1139.835, 9937.038
1140.317, 9896.319
1140.799, 9870.183
1141.281, 9855.098
1141.763, 9844.303
1142.245, 9842.511
1142.727, 9832.102
1143.209, 9805.992
1143.692, 9782.237
1144.174, 9776.437
1144.656, 9784.359
1145.138, 9799.360
1145.620, 9817.532
1146.102, 9818.852
1146.584, 9770.756
1147.066, 9733.128
1147.549, 9724.633
1148.031, 9733.304
1148.513, 9744.621
1148.995, 9756.726
1149.477, 9755.245
1149.959, 9737.034
1150.441, 9720.699
1150.923, 9717.697
1151.406, 9721.912
1151.888, 9734.871
1152.370, 9752.341
1152.852, 9748.646
1153.334, 9724.177
1153.816, 9705.067
1154.298, 9703.281
1154.780, 9702.018
1155.262, 9681.650
1155.745, 9656.028
1156.227, 9642.396
1156.709, 9643.996
1157.191, 9639.100
1157.673, 9626.106
1158.155, 9617.379
1158.637, 9626.712
1159.119, 9639.652
1159.601, 9635.475
1160.084, 9622.248
1160.566, 9620.749
1161.048, 9641.333
1161.530, 9658.076
1162.012, 9671.252
1162.494, 9674.464
1162.976, 9650.656
1163.458, 9617.979
1163.941, 9604.696
1164.423, 9611.716
1164.905, 9625.404
1165.387, 9650.784
1165.869, 9668.803
1166.351, 9674.316
1166.833, 9672.206
1167.315, 9669.717
1167.797, 9666.481
1168.280, 9657.865
1168.762, 9638.764
1169.244, 9639.539
1169.726, 9698.160
1170.208, 9744.453
1170.690, 9742.072
1171.172, 9706.911
1171.654, 9691.896
1172.136, 9693.761
1172.619, 9699.963
1173.101, 9710.111
1173.583, 9716.049
1174.065, 9710.522
1174.547, 9702.718
1175.029, 9697.964
1175.511, 9696.458
1175.993, 9704.850
1176.476, 9722.104
1176.958, 9738.176
1177.440, 9746.586
1177.922, 9752.191
1178.404, 9759.491
1178.886, 9764.390
1179.368, 9758.244
1179.850, 9740.780
1180.333, 9732.226
1180.815, 9735.001
1181.297, 9739.412
1181.779, 9731.946
1182.261, 9728.741
1182.743, 9747.478
1183.225, 9781.271
1183.707, 9802.702
1184.189, 9811.552
1184.672, 9809.418
1185.154, 9793.012
1185.636, 9780.169
1186.118, 9796.316
1186.600, 9818.831
1187.082, 9819.458
1187.564, 9794.412
1188.046, 9799.597
1188.528, 9840.017
1189.011, 9870.007
1189.493, 9864.448
1189.975, 9848.765
1190.457, 9854.679
1190.939, 9869.170
1191.421, 9872.671
1191.903, 9860.170
##END=



