##NAMES=Kaliborite
##RRUFFID=R060352
##IDEAL CHEMISTRY=KHMg_2_B_12_O_16_(OH)_10_&#183;4H_2_O
##LOCALITY=Inder Boron deposit, Atyrau (Gur'yev), Atyrau Oblast', Kazakhstan
##OWNER=RRUFF
##SOURCE=Herb Obodda
##DESCRIPTION=Colorless fragment
##STATUS=The identification of this mineral has been confirmed by X-ray diffraction and chemical analysis
##URL=rruff.info/R060352
##MEASURED CHEMISTRY=K_1.00_H_1.00_Mg_2.00_B_12.00_O_16_(OH)_10_Â·4H_2_O ; H and B not measured but estimated by stoichiometry
91.53320, 496.6568
92.01532, 495.7281
92.49744, 493.8740
92.97955, 496.8773
93.46167, 500.5832
93.94379, 503.0249
94.42590, 506.8174
94.90802, 513.1257
95.39014, 522.0797
95.87225, 533.4843
96.35437, 547.3895
96.83649, 563.0347
97.31860, 581.2399
97.80072, 603.3655
98.28284, 629.4344
98.76495, 658.3656
99.24707, 688.9258
99.72919, 726.1697
100.2113, 760.1340
100.6934, 791.2015
101.1755, 817.5904
101.6577, 835.9453
102.1398, 843.2933
102.6219, 838.6226
103.1040, 827.9880
103.5861, 810.6011
104.0682, 789.6927
104.5504, 765.5347
105.0325, 738.7907
105.5146, 711.4094
105.9967, 686.0603
106.4788, 662.6340
106.9609, 641.7028
107.4431, 621.8304
107.9252, 604.6561
108.4073, 592.3083
108.8894, 585.2966
109.3715, 583.9735
109.8536, 588.4668
110.3358, 598.0501
110.8179, 612.8445
111.3000, 634.8591
111.7821, 663.4413
112.2642, 692.7434
112.7463, 725.8943
113.2285, 754.9929
113.7106, 773.5929
114.1927, 781.0944
114.6748, 776.1576
115.1569, 754.8342
115.6390, 711.6208
116.1212, 664.7304
116.6033, 614.6747
117.0854, 565.7545
117.5675, 522.1214
118.0496, 485.6183
118.5317, 455.8096
119.0139, 431.0611
119.4960, 414.5185
119.9781, 400.5135
120.4602, 388.5470
120.9423, 378.2796
121.4244, 369.5233
121.9066, 362.2129
122.3887, 356.4369
122.8708, 350.7730
123.3529, 344.5296
123.8350, 338.9124
124.3171, 334.8218
124.7993, 332.1316
125.2814, 329.7854
125.7635, 326.6150
126.2456, 322.3236
126.7277, 318.9816
127.2098, 316.6704
127.6920, 315.3001
128.1741, 315.1153
128.6562, 316.3750
129.1383, 317.8140
129.6204, 317.4547
130.1025, 315.5067
130.5847, 314.0652
131.0668, 314.0139
131.5489, 315.1432
132.0310, 316.7369
132.5131, 318.7290
132.9952, 321.1635
133.4774, 324.0211
133.9595, 327.2998
134.4416, 330.8593
134.9237, 334.4147
135.4058, 337.8636
135.8879, 342.1738
136.3701, 347.4533
136.8522, 353.7125
137.3343, 361.1524
137.8164, 369.8534
138.2985, 379.4384
138.7806, 389.3549
139.2628, 399.4435
139.7449, 410.3031
140.2270, 422.7169
140.7091, 435.4767
141.1912, 448.0218
141.6733, 460.0306
142.1555, 470.9286
142.6376, 478.4903
143.1197, 482.8080
143.6018, 483.2876
144.0839, 479.0792
144.5660, 471.0040
145.0482, 459.9297
145.5303, 446.0578
146.0124, 429.8596
146.4945, 414.6154
146.9766, 399.7090
147.4587, 386.1214
147.9409, 373.9678
148.4230, 363.3716
148.9051, 354.8929
149.3872, 349.2254
149.8693, 346.3288
150.3514, 343.8724
150.8336, 341.7508
151.3157, 340.1085
151.7978, 339.0503
152.2799, 338.5753
152.7620, 338.6844
153.2441, 339.6242
153.7263, 341.1458
154.2084, 342.9660
154.6905, 344.9095
155.1726, 347.0892
155.6547, 349.7687
156.1368, 352.9554
156.6190, 356.6859
157.1011, 361.0370
157.5832, 365.8483
158.0653, 370.9044
158.5474, 376.3079
159.0295, 381.9746
159.5117, 386.7679
159.9938, 390.1454
160.4759, 393.1009
160.9580, 396.3013
161.4401, 399.4469
161.9222, 401.7492
162.4044, 402.5112
162.8865, 401.6468
163.3686, 399.6060
163.8507, 396.3536
164.3328, 392.0701
164.8149, 386.6271
165.2971, 380.0960
165.7792, 372.8191
166.2613, 364.9515
166.7434, 355.7521
167.2255, 348.4544
167.7076, 343.4539
168.1898, 339.7246
168.6719, 336.6935
169.1540, 334.1937
169.6361, 332.2923
170.1182, 331.1338
170.6003, 331.0158
171.0825, 330.9988
171.5646, 330.7318
172.0467, 330.6709
172.5288, 331.5019
173.0109, 333.4985
173.4930, 335.9393
173.9752, 337.5721
174.4573, 338.2982
174.9394, 339.2045
175.4215, 340.7539
175.9036, 342.7153
176.3857, 344.5151
176.8679, 345.8911
177.3500, 347.2457
177.8321, 349.0482
178.3142, 351.2896
178.7963, 353.8625
179.2784, 356.9311
179.7606, 360.4266
180.2427, 363.5355
180.7248, 365.6112
181.2069, 367.6059
181.6890, 370.4764
182.1711, 374.3388
182.6533, 378.2363
183.1354, 381.4791
183.6175, 384.1216
184.0996, 385.6828
184.5817, 384.7874
185.0638, 383.5040
185.5460, 383.2453
186.0281, 384.2781
186.5102, 385.4312
186.9923, 384.9973
187.4744, 382.4438
187.9565, 379.6354
188.4387, 376.7747
188.9208, 373.7995
189.4029, 370.5311
189.8850, 366.9322
190.3671, 363.3683
190.8492, 360.5104
191.3314, 358.8908
191.8135, 357.2064
192.2956, 355.2792
192.7777, 353.3136
193.2598, 351.4386
193.7419, 349.7177
194.2241, 348.2037
194.7062, 347.0285
195.1883, 346.7911
195.6704, 346.2017
196.1525, 345.3249
196.6346, 344.0551
197.1168, 342.1391
197.5989, 339.4415
198.0810, 336.2936
198.5631, 333.6777
199.0452, 332.6941
199.5273, 330.7750
200.0095, 326.5395
200.4916, 321.2376
200.9737, 316.9755
201.4558, 314.7832
201.9379, 313.9759
202.4200, 312.5106
202.9022, 309.9359
203.3843, 307.6362
203.8664, 305.9318
204.3485, 304.8512
204.8306, 304.6525
205.3127, 305.8282
205.7949, 307.5393
206.2770, 307.7987
206.7591, 305.7722
207.2412, 304.2003
207.7233, 305.1147
208.2054, 308.1222
208.6876, 310.7627
209.1697, 311.9180
209.6518, 312.2514
210.1339, 313.0123
210.6160, 314.5775
211.0981, 315.5952
211.5803, 314.5461
212.0624, 311.4269
212.5445, 308.6696
213.0266, 307.6345
213.5087, 307.0653
213.9908, 305.6690
214.4730, 303.1415
214.9551, 300.4930
215.4372, 299.0807
215.9193, 299.1788
216.4014, 298.7742
216.8836, 296.1374
217.3657, 293.4360
217.8478, 292.2579
218.3299, 293.0055
218.8120, 294.6415
219.2941, 295.8872
219.7763, 296.7567
220.2584, 297.1497
220.7405, 296.1776
221.2226, 295.2815
221.7047, 295.5944
222.1868, 297.3952
222.6690, 299.9287
223.1511, 302.0905
223.6332, 303.9617
224.1153, 305.2247
224.5974, 305.6107
225.0795, 305.6456
225.5617, 305.6305
226.0438, 305.6728
226.5259, 305.7836
227.0080, 306.0269
227.4901, 306.6968
227.9722, 306.9276
228.4544, 307.0668
228.9365, 306.6232
229.4186, 305.0927
229.9007, 302.3846
230.3828, 298.9140
230.8649, 295.3926
231.3471, 291.5890
231.8292, 288.1082
232.3113, 284.6059
232.7934, 281.5862
233.2755, 279.6440
233.7576, 278.8939
234.2398, 278.7010
234.7219, 278.0128
235.2040, 276.2057
235.6861, 275.0358
236.1682, 274.9580
236.6503, 275.2523
237.1325, 275.2510
237.6146, 274.7837
238.0967, 274.1674
238.5788, 273.8755
239.0609, 274.0637
239.5430, 274.2587
240.0252, 274.4144
240.5073, 274.5872
240.9894, 274.7921
241.4715, 275.0347
241.9536, 275.4007
242.4357, 275.9761
242.9179, 276.7141
243.4000, 277.9344
243.8821, 279.8215
244.3642, 282.1362
244.8463, 284.7073
245.3284, 287.5255
245.8106, 290.3842
246.2927, 293.0446
246.7748, 295.5051
247.2569, 297.9128
247.7390, 299.8693
248.2211, 301.9737
248.7033, 305.1513
249.1854, 309.6509
249.6675, 314.3986
250.1496, 318.3573
250.6317, 321.6488
251.1138, 324.7448
251.5960, 327.4803
252.0781, 330.1889
252.5602, 333.5801
253.0423, 337.8738
253.5244, 341.8406
254.0065, 343.8996
254.4887, 344.6735
254.9708, 345.8383
255.4529, 348.0782
255.9350, 350.8296
256.4171, 353.2423
256.8992, 355.1974
257.3813, 357.2466
257.8635, 359.8571
258.3456, 362.8319
258.8277, 365.9480
259.3098, 369.4232
259.7919, 372.8119
260.2740, 375.6609
260.7562, 378.1106
261.2383, 379.3987
261.7204, 378.8091
262.2025, 376.8335
262.6846, 373.7438
263.1667, 369.2668
263.6489, 364.1321
264.1310, 359.5838
264.6131, 355.9807
265.0952, 351.3850
265.5773, 343.9764
266.0594, 335.5229
266.5416, 327.5016
267.0237, 320.2463
267.5058, 313.6977
267.9879, 307.6054
268.4700, 301.8580
268.9521, 297.1827
269.4343, 294.9684
269.9164, 293.3573
270.3985, 290.7041
270.8806, 286.4993
271.3627, 282.3647
271.8448, 280.7068
272.3270, 282.1341
272.8091, 282.8161
273.2912, 280.8094
273.7733, 278.4104
274.2554, 277.0400
274.7375, 276.9264
275.2197, 277.3078
275.7018, 277.3847
276.1839, 277.1187
276.6660, 276.7881
277.1481, 276.5122
277.6302, 276.1075
278.1124, 275.5811
278.5945, 274.8818
279.0766, 273.8060
279.5587, 271.8391
280.0408, 268.7733
280.5229, 266.6685
281.0051, 266.5435
281.4872, 266.6698
281.9693, 266.3499
282.4514, 265.6352
282.9335, 264.9335
283.4156, 264.6617
283.8978, 264.8351
284.3799, 264.7069
284.8620, 263.8735
285.3441, 263.1306
285.8262, 262.7250
286.3083, 262.6211
286.7905, 262.6854
287.2726, 262.7933
287.7547, 262.9757
288.2368, 263.5843
288.7189, 265.3285
289.2010, 266.6421
289.6832, 266.9050
290.1653, 266.5193
290.6474, 266.0984
291.1295, 265.9960
291.6116, 266.1172
292.0938, 266.0855
292.5759, 265.9153
293.0580, 265.5428
293.5401, 264.9676
294.0222, 264.2064
294.5043, 263.1955
294.9865, 261.8921
295.4686, 260.5179
295.9507, 259.7118
296.4328, 260.2390
296.9149, 259.9252
297.3970, 257.5355
297.8792, 254.8608
298.3613, 253.5371
298.8434, 254.0284
299.3255, 255.4998
299.8076, 256.6893
300.2897, 257.7942
300.7719, 258.0915
301.2540, 256.8312
301.7361, 255.4098
302.2182, 254.6531
302.7003, 254.7191
303.1824, 255.2882
303.6646, 256.0683
304.1467, 257.1973
304.6288, 258.0158
305.1109, 258.4967
305.5930, 258.7198
306.0751, 258.7921
306.5573, 258.6537
307.0394, 258.0596
307.5215, 256.6198
308.0036, 254.2032
308.4857, 252.7751
308.9678, 253.3927
309.4500, 253.9992
309.9321, 254.1326
310.4142, 253.7978
310.8963, 253.1061
311.3784, 252.0883
311.8605, 250.7979
312.3427, 249.6722
312.8248, 248.5826
313.3069, 247.8401
313.7890, 247.6875
314.2711, 247.8489
314.7532, 248.0195
315.2354, 248.0584
315.7175, 247.9345
316.1996, 247.5425
316.6817, 246.7033
317.1638, 245.8589
317.6459, 244.7980
318.1281, 243.8906
318.6102, 243.5283
319.0923, 243.8167
319.5744, 244.4790
320.0565, 245.0736
320.5386, 245.5635
321.0208, 246.0657
321.5029, 246.8793
321.9850, 247.4860
322.4671, 247.3842
322.9492, 246.6220
323.4313, 245.7987
323.9135, 245.6346
324.3956, 246.3298
324.8777, 246.6613
325.3598, 246.2819
325.8419, 245.8584
326.3240, 245.5811
326.8062, 245.4719
327.2883, 245.5067
327.7704, 245.6984
328.2525, 246.0325
328.7346, 246.2383
329.2167, 246.0652
329.6989, 246.0565
330.1810, 246.5450
330.6631, 247.2366
331.1452, 247.6958
331.6273, 247.6834
332.1094, 247.3101
332.5916, 246.8449
333.0737, 245.8647
333.5558, 245.5777
334.0379, 246.8405
334.5200, 248.4428
335.0021, 249.1096
335.4843, 248.4536
335.9664, 247.3158
336.4485, 247.0277
336.9306, 247.7711
337.4127, 248.8411
337.8948, 250.9505
338.3770, 252.7630
338.8591, 253.1123
339.3412, 252.1099
339.8233, 251.1018
340.3055, 251.6593
340.7876, 254.0003
341.2697, 255.6704
341.7518, 256.2219
342.2339, 256.4677
342.7160, 256.3712
343.1982, 256.2061
343.6803, 256.5726
344.1624, 258.0879
344.6445, 260.4277
345.1266, 261.8726
345.6087, 261.7031
346.0909, 261.8022
346.5730, 262.8619
347.0551, 264.4777
347.5372, 266.2025
348.0193, 267.9207
348.5014, 269.5002
348.9836, 270.6581
349.4657, 271.2444
349.9478, 271.8962
350.4299, 273.0443
350.9120, 274.1592
351.3941, 274.7538
351.8763, 274.7489
352.3584, 274.6407
352.8405, 274.8447
353.3226, 275.3590
353.8047, 276.2706
354.2868, 277.6753
354.7690, 279.4408
355.2511, 281.7953
355.7332, 284.5273
356.2153, 286.7788
356.6974, 287.7656
357.1795, 287.7889
357.6617, 287.9640
358.1438, 288.2084
358.6259, 288.8133
359.1080, 290.4179
359.5901, 292.3828
360.0722, 293.6530
360.5544, 293.6956
361.0365, 293.0622
361.5186, 292.2875
362.0007, 291.2817
362.4828, 290.9402
362.9649, 292.5600
363.4471, 294.4955
363.9292, 294.7168
364.4113, 292.7185
364.8934, 290.3543
365.3755, 289.1009
365.8576, 288.7531
366.3398, 288.2273
366.8219, 287.3758
367.3040, 286.0954
367.7861, 284.0598
368.2682, 281.3593
368.7503, 278.9960
369.2325, 277.6206
369.7146, 276.7520
370.1967, 275.4301
370.6788, 273.4520
371.1609, 271.7720
371.6430, 271.5183
372.1252, 272.1937
372.6073, 272.1297
373.0894, 270.4196
373.5715, 268.4507
374.0536, 267.4945
374.5357, 267.3665
375.0179, 266.9246
375.5000, 265.5957
375.9821, 263.6283
376.4642, 261.5800
376.9463, 259.3308
377.4284, 257.2951
377.9106, 255.6305
378.3927, 254.2856
378.8748, 253.1800
379.3569, 252.2951
379.8390, 251.6226
380.3211, 251.0928
380.8033, 250.6438
381.2854, 250.8445
381.7675, 252.3480
382.2496, 254.0774
382.7317, 254.9538
383.2138, 255.0617
383.6960, 255.5479
384.1781, 257.3830
384.6602, 260.4374
385.1423, 262.8686
385.6244, 264.2025
386.1065, 265.5681
386.5887, 267.2281
387.0708, 269.1766
387.5529, 271.3861
388.0350, 273.8483
388.5171, 276.5667
388.9992, 279.5733
389.4814, 283.2681
389.9635, 286.6232
390.4456, 289.3455
390.9277, 291.9312
391.4098, 294.9593
391.8919, 298.3973
392.3741, 301.6395
392.8562, 304.0531
393.3383, 305.5990
393.8204, 306.6512
394.3025, 307.1460
394.7846, 307.2602
395.2668, 307.0135
395.7489, 306.4316
396.2310, 305.4651
396.7131, 304.0392
397.1952, 302.3673
397.6773, 301.1719
398.1595, 300.5020
398.6416, 300.2838
399.1237, 300.5652
399.6058, 301.1873
400.0879, 301.8672
400.5700, 302.5965
401.0522, 303.8402
401.5343, 306.1991
402.0164, 309.7426
402.4985, 313.9614
402.9806, 319.1019
403.4627, 324.7363
403.9449, 330.7839
404.4270, 337.1779
404.9091, 343.7386
405.3912, 350.1090
405.8733, 356.7013
406.3554, 364.8134
406.8376, 374.8739
407.3197, 385.5705
407.8018, 396.6463
408.2839, 407.9438
408.7660, 419.3141
409.2481, 430.8900
409.7303, 442.1968
410.2124, 453.4261
410.6945, 464.4256
411.1766, 473.1292
411.6587, 478.8135
412.1408, 482.3228
412.6230, 485.1048
413.1051, 486.9873
413.5872, 486.2172
414.0693, 481.4533
414.5514, 473.8125
415.0335, 464.6475
415.5157, 453.9153
415.9978, 442.9622
416.4799, 432.8170
416.9620, 423.0519
417.4441, 412.3981
417.9262, 400.1769
418.4084, 387.8800
418.8905, 375.7973
419.3726, 364.2970
419.8547, 354.6153
420.3368, 347.3761
420.8189, 341.4200
421.3011, 334.8755
421.7832, 327.3752
422.2653, 320.9061
422.7474, 315.9492
423.2295, 311.9356
423.7116, 308.6601
424.1938, 305.9543
424.6759, 303.1034
425.1580, 299.3498
425.6401, 294.8341
426.1222, 292.1263
426.6043, 292.8242
427.0865, 293.1731
427.5686, 291.8668
428.0507, 289.7667
428.5328, 288.0533
429.0149, 287.1822
429.4970, 286.9201
429.9792, 286.8593
430.4613, 286.9657
430.9434, 287.3785
431.4255, 288.6885
431.9076, 289.7426
432.3897, 289.9707
432.8719, 289.3549
433.3540, 288.0891
433.8361, 286.2607
434.3182, 283.9373
434.8003, 281.5730
435.2824, 279.3092
435.7646, 276.7827
436.2467, 273.8483
436.7288, 270.6798
437.2109, 267.3046
437.6930, 263.7200
438.1751, 260.4723
438.6573, 258.4691
439.1394, 257.8289
439.6215, 256.7834
440.1036, 254.9849
440.5857, 252.8189
441.0678, 250.4612
441.5500, 247.9542
442.0321, 245.4344
442.5142, 242.6520
442.9963, 240.0159
443.4784, 238.4629
443.9605, 238.1476
444.4427, 237.7056
444.9248, 236.3842
445.4069, 234.5462
445.8890, 232.8108
446.3711, 231.1208
446.8532, 229.7492
447.3354, 229.1937
447.8175, 229.0308
448.2996, 228.2342
448.7817, 226.5088
449.2638, 224.5726
449.7459, 223.1559
450.2281, 222.2968
450.7102, 221.6699
451.1923, 221.2903
451.6744, 221.1157
452.1565, 221.4290
452.6386, 221.9643
453.1208, 221.8470
453.6029, 220.5268
454.0850, 218.5797
454.5671, 217.6102
455.0492, 218.6859
455.5313, 219.3226
456.0135, 219.3874
456.4956, 219.0755
456.9777, 218.3434
457.4598, 217.3131
457.9419, 216.4369
458.4240, 216.1947
458.9062, 216.6010
459.3883, 216.7127
459.8704, 216.2520
460.3525, 215.7934
460.8346, 215.4932
461.3167, 215.2541
461.7989, 214.8604
462.2810, 214.2208
462.7631, 213.6791
463.2452, 214.0328
463.7273, 215.5976
464.2094, 216.1286
464.6916, 214.2149
465.1737, 212.2490
465.6558, 211.7944
466.1379, 212.5382
466.6200, 213.1436
467.1021, 212.6679
467.5843, 211.6779
468.0664, 211.3367
468.5485, 211.7128
469.0306, 212.2629
469.5127, 212.9931
469.9948, 213.5991
470.4770, 213.5893
470.9591, 212.8138
471.4412, 211.9330
471.9233, 210.9403
472.4054, 210.1469
472.8875, 210.2689
473.3697, 211.4705
473.8518, 213.0276
474.3339, 214.4448
474.8160, 215.6761
475.2981, 216.2673
475.7802, 216.0619
476.2624, 215.4028
476.7445, 214.0869
477.2266, 212.4780
477.7087, 211.2867
478.1908, 210.7897
478.6729, 210.6399
479.1551, 210.1934
479.6372, 209.1502
480.1193, 208.5226
480.6014, 208.7562
481.0835, 208.9450
481.5656, 208.4380
482.0478, 207.4360
482.5299, 206.6155
483.0120, 206.4656
483.4941, 206.7504
483.9762, 206.5474
484.4583, 205.5493
484.9405, 204.6917
485.4226, 204.2339
485.9047, 203.9222
486.3868, 203.5986
486.8689, 203.2312
487.3510, 202.8315
487.8332, 202.3881
488.3153, 201.9169
488.7974, 201.4767
489.2795, 201.0605
489.7616, 200.6988
490.2437, 200.4838
490.7259, 200.3176
491.2080, 200.0179
491.6901, 199.4509
492.1722, 198.9506
492.6543, 198.8453
493.1364, 199.0040
493.6186, 199.0471
494.1007, 198.8702
494.5828, 198.5800
495.0649, 198.2312
495.5470, 197.8045
496.0291, 197.6854
496.5113, 198.3338
496.9934, 198.8768
497.4755, 198.6650
497.9576, 197.9393
498.4397, 197.3277
498.9218, 197.1375
499.4040, 197.1994
499.8861, 197.1484
500.3682, 196.9845
500.8503, 196.6941
501.3324, 195.9703
501.8145, 195.3925
502.2967, 195.5362
502.7788, 196.1806
503.2609, 196.5305
503.7430, 195.9338
504.2251, 194.7347
504.7072, 194.3711
505.1894, 195.3437
505.6715, 195.9993
506.1536, 195.5259
506.6357, 194.8352
507.1178, 194.6601
507.5999, 195.0804
508.0821, 195.6181
508.5642, 195.9901
509.0463, 196.2067
509.5284, 196.3334
510.0105, 196.4116
510.4926, 196.1947
510.9748, 195.0948
511.4569, 193.7180
511.9390, 193.5670
512.4211, 195.6110
512.9032, 197.2484
513.3853, 196.6383
513.8674, 194.9202
514.3495, 194.1906
514.8317, 194.9097
515.3138, 195.8839
515.7959, 195.8709
516.2780, 194.7805
516.7601, 194.0153
517.2422, 193.5912
517.7244, 193.4121
518.2065, 193.5650
518.6886, 193.9027
519.1707, 194.2681
519.6528, 194.5953
520.1349, 194.8307
520.6171, 194.8600
521.0992, 194.6111
521.5813, 194.4558
522.0634, 194.4240
522.5455, 194.4674
523.0276, 194.5992
523.5098, 194.7909
523.9919, 195.0351
524.4740, 195.3882
524.9561, 195.6238
525.4382, 195.1910
525.9203, 194.0703
526.4025, 193.6032
526.8846, 194.4785
527.3667, 195.6026
527.8488, 195.8221
528.3309, 195.2835
528.8130, 194.9272
529.2952, 195.2828
529.7773, 195.7405
530.2594, 195.7109
530.7415, 195.2661
531.2236, 194.8232
531.7057, 194.6000
532.1879, 194.3702
532.6700, 193.6242
533.1521, 191.7418
533.6342, 190.8101
534.1163, 191.6383
534.5984, 192.7736
535.0806, 193.4353
535.5627, 193.5747
536.0448, 193.3064
536.5269, 192.6603
537.0090, 191.8289
537.4911, 191.4648
537.9733, 191.9465
538.4554, 192.0478
538.9375, 190.9875
539.4196, 190.0450
539.9017, 190.2193
540.3839, 191.3293
540.8660, 192.3174
541.3481, 192.4265
541.8302, 192.0023
542.3123, 191.8758
542.7944, 192.1118
543.2766, 192.0676
543.7587, 191.3271
544.2408, 190.3089
544.7229, 189.5871
545.2050, 189.1640
545.6871, 188.9671
546.1693, 189.1565
546.6514, 189.4489
547.1335, 189.4617
547.6156, 189.2286
548.0977, 189.1319
548.5798, 189.4147
549.0620, 189.9838
549.5441, 190.5228
550.0262, 191.2887
550.5083, 191.6524
550.9904, 191.3669
551.4725, 190.8596
551.9547, 190.2612
552.4368, 189.7169
552.9189, 189.5382
553.4010, 190.0146
553.8831, 190.9742
554.3652, 191.8032
554.8474, 192.6862
555.3295, 192.9628
555.8116, 191.5412
556.2937, 190.0900
556.7758, 190.0777
557.2579, 191.4743
557.7401, 192.6779
558.2222, 192.5382
558.7043, 191.6879
559.1864, 191.1378
559.6685, 190.9187
560.1506, 190.9851
560.6328, 191.3627
561.1149, 191.9663
561.5970, 192.6638
562.0791, 193.5170
562.5612, 194.2376
563.0433, 194.8179
563.5255, 195.2083
564.0076, 195.0994
564.4897, 194.6993
564.9718, 194.8753
565.4539, 196.2778
565.9360, 198.3464
566.4182, 199.1035
566.9003, 197.5659
567.3824, 196.5718
567.8645, 196.3559
568.3466, 196.6392
568.8287, 197.4839
569.3109, 198.7119
569.7930, 199.8407
570.2751, 200.6181
570.7572, 201.0715
571.2393, 201.1483
571.7214, 200.8056
572.2036, 200.5869
572.6857, 200.5857
573.1678, 200.8750
573.6499, 201.6985
574.1320, 203.0359
574.6141, 204.0277
575.0963, 204.0689
575.5784, 203.9596
576.0605, 204.4317
576.5426, 205.3658
577.0247, 206.3358
577.5068, 207.1729
577.9890, 207.7631
578.4711, 207.8309
578.9532, 206.9286
579.4353, 206.6633
579.9174, 207.7137
580.3995, 208.6430
580.8817, 208.4509
581.3638, 207.6747
581.8459, 207.4269
582.3280, 208.2550
582.8101, 209.6450
583.2922, 210.9080
583.7744, 212.0618
584.2565, 212.7028
584.7386, 212.3802
585.2207, 212.1055
585.7029, 212.6055
586.1850, 213.6953
586.6671, 214.9607
587.1492, 216.5345
587.6313, 217.9498
588.1135, 218.7121
588.5956, 219.0738
589.0777, 219.7294
589.5598, 220.8662
590.0419, 221.8773
590.5240, 222.0703
591.0062, 221.4027
591.4883, 220.8999
591.9704, 220.8080
592.4525, 220.5646
592.9346, 219.8496
593.4167, 219.0048
593.8989, 218.4402
594.3810, 218.2359
594.8631, 218.1368
595.3452, 217.9208
595.8273, 217.5860
596.3094, 217.1138
596.7916, 216.5477
597.2737, 215.7439
597.7558, 214.4182
598.2379, 212.9236
598.7200, 211.5948
599.2021, 210.4635
599.6843, 209.5231
600.1664, 208.6920
600.6485, 208.0818
601.1306, 207.9831
601.6127, 208.3519
602.0948, 208.6692
602.5770, 208.6527
603.0591, 208.3529
603.5412, 207.9119
604.0233, 207.3929
604.5054, 206.5959
604.9875, 205.1094
605.4697, 203.7057
605.9518, 202.9960
606.4339, 202.7901
606.9160, 202.5307
607.3981, 201.9132
607.8802, 201.0536
608.3624, 200.1270
608.8445, 199.1103
609.3266, 198.2107
609.8087, 197.3035
610.2908, 196.7431
610.7729, 197.1196
611.2551, 198.0550
611.7372, 198.3895
612.2193, 197.4570
612.7014, 196.3050
613.1835, 195.5311
613.6656, 195.1126
614.1478, 195.0980
614.6299, 195.4943
615.1120, 195.9734
615.5941, 196.2554
616.0762, 196.3397
616.5583, 195.9507
617.0405, 194.1069
617.5226, 193.0186
618.0047, 193.6210
618.4868, 194.7888
618.9689, 195.4527
619.4510, 195.4480
619.9332, 195.2586
620.4153, 195.3408
620.8974, 195.5541
621.3795, 195.3191
621.8616, 194.5387
622.3438, 193.8211
622.8259, 193.2875
623.3080, 193.0303
623.7901, 193.2768
624.2722, 194.0672
624.7543, 194.5885
625.2365, 194.6338
625.7186, 194.3216
626.2007, 193.4354
626.6828, 192.2660
627.1649, 191.6850
627.6470, 192.0691
628.1292, 192.7524
628.6113, 192.6363
629.0934, 191.5083
629.5755, 190.4547
630.0576, 189.2138
630.5397, 188.3438
631.0219, 188.2808
631.5040, 188.5870
631.9861, 188.7192
632.4682, 188.5256
632.9503, 188.0260
633.4324, 186.9991
633.9146, 185.6806
634.3967, 184.8615
634.8788, 184.6355
635.3609, 184.6479
635.8430, 184.7355
636.3251, 184.8955
636.8073, 185.1564
637.2894, 185.7048
637.7715, 185.9136
638.2536, 185.3232
638.7357, 184.6588
639.2178, 184.6220
639.7000, 185.0149
640.1821, 185.0849
640.6642, 184.3950
641.1463, 183.4010
641.6284, 183.0553
642.1105, 183.4798
642.5927, 183.9337
643.0748, 184.6300
643.5569, 184.9778
644.0390, 184.1529
644.5211, 182.8612
645.0032, 182.6707
645.4854, 184.4549
645.9675, 186.1595
646.4496, 186.2559
646.9317, 185.3769
647.4138, 184.5474
647.8959, 183.9511
648.3781, 183.6819
648.8602, 183.8267
649.3423, 184.3421
649.8244, 185.0100
650.3065, 185.7156
650.7886, 186.7757
651.2708, 188.7066
651.7529, 190.5481
652.2350, 191.4598
652.7171, 191.7112
653.1992, 192.1551
653.6813, 193.1910
654.1635, 194.7740
654.6456, 197.0368
655.1277, 199.9122
655.6098, 202.4541
656.0919, 204.2691
656.5740, 206.3325
657.0562, 209.5923
657.5383, 213.9072
658.0204, 217.9760
658.5025, 220.9480
658.9846, 224.7173
659.4667, 230.2317
659.9489, 236.5297
660.4310, 242.7946
660.9131, 248.8084
661.3952, 254.5736
661.8773, 260.2071
662.3594, 265.5074
662.8416, 269.9245
663.3237, 273.5163
663.8058, 276.0794
664.2879, 277.6418
664.7700, 278.0312
665.2521, 277.1190
665.7343, 275.0204
666.2164, 272.1119
666.6985, 268.2760
667.1806, 263.9373
667.6627, 259.0013
668.1448, 253.8722
668.6270, 249.6253
669.1091, 246.3962
669.5912, 242.6307
670.0733, 236.7419
670.5554, 229.2511
671.0375, 223.8420
671.5197, 222.0608
672.0018, 219.9046
672.4839, 216.7321
672.9660, 213.2964
673.4481, 209.8863
673.9302, 206.6756
674.4124, 203.9705
674.8945, 202.0669
675.3766, 200.5605
675.8587, 198.9673
676.3408, 197.3286
676.8229, 195.8810
677.3051, 194.6999
677.7872, 193.4907
678.2693, 191.8939
678.7514, 189.9878
679.2335, 188.6942
679.7156, 188.7349
680.1978, 188.3454
680.6799, 186.8793
681.1620, 185.1814
681.6441, 183.8776
682.1262, 183.0230
682.6083, 182.5235
683.0905, 182.4353
683.5726, 182.3809
684.0547, 181.4564
684.5368, 179.6669
685.0189, 178.3445
685.5010, 177.8660
685.9832, 177.6179
686.4653, 176.9669
686.9474, 176.0937
687.4295, 175.8972
687.9116, 177.1753
688.3937, 178.0659
688.8759, 177.9884
689.3580, 177.2987
689.8401, 175.8675
690.3222, 174.0772
690.8043, 173.2570
691.2864, 174.4324
691.7686, 176.5206
692.2507, 176.6591
692.7328, 174.4187
693.2149, 173.0243
693.6970, 173.4017
694.1791, 173.9855
694.6613, 173.6481
695.1434, 172.7199
695.6255, 171.9135
696.1076, 171.3903
696.5897, 170.8849
697.0718, 170.1915
697.5540, 169.4948
698.0361, 169.0556
698.5182, 168.8561
699.0003, 168.6786
699.4824, 168.3875
699.9645, 168.0471
700.4467, 167.8721
700.9288, 168.0078
701.4109, 167.7527
701.8930, 166.7169
702.3751, 165.7135
702.8572, 164.6550
703.3394, 164.0341
703.8215, 165.0142
704.3036, 168.3523
704.7857, 171.1167
705.2678, 171.3475
705.7499, 170.1293
706.2321, 168.4315
706.7142, 166.5917
707.1963, 165.6176
707.6784, 166.1015
708.1605, 167.2803
708.6426, 167.6390
709.1248, 166.9907
709.6069, 166.1765
710.0890, 164.6912
710.5711, 163.6465
711.0532, 163.7817
711.5353, 164.3972
712.0175, 164.5361
712.4996, 163.9918
712.9817, 163.4592
713.4638, 163.2451
713.9459, 163.3656
714.4280, 164.1596
714.9102, 165.4070
715.3923, 165.9451
715.8744, 165.2242
716.3565, 164.0693
716.8386, 163.7087
717.3207, 164.2737
717.8029, 164.6902
718.2850, 165.0455
718.7671, 165.1209
719.2492, 164.6278
719.7313, 163.9891
720.2134, 163.5543
720.6956, 163.3904
721.1777, 163.5023
721.6598, 164.1782
722.1419, 164.9371
722.6240, 165.1397
723.1061, 164.8725
723.5883, 164.3442
724.0704, 163.5811
724.5525, 163.1355
725.0346, 163.6862
725.5167, 165.1953
725.9988, 166.2254
726.4810, 166.6902
726.9631, 166.7733
727.4452, 166.1682
727.9273, 165.4770
728.4094, 165.1789
728.8915, 165.2194
729.3737, 165.2154
729.8558, 164.8439
730.3379, 164.6061
730.8200, 165.3621
731.3021, 166.6559
731.7842, 167.1130
732.2664, 166.5057
732.7485, 165.6982
733.2306, 165.2943
733.7127, 165.2576
734.1948, 165.4647
734.6769, 166.1606
735.1591, 166.6537
735.6412, 166.6932
736.1233, 166.7764
736.6054, 167.4007
737.0875, 168.1897
737.5696, 168.2715
738.0518, 167.2140
738.5339, 166.3908
739.0160, 167.2848
739.4981, 169.0060
739.9802, 169.8946
740.4623, 169.9033
740.9445, 169.6935
741.4266, 169.5168
741.9087, 169.6743
742.3908, 170.8484
742.8729, 173.5225
743.3550, 175.1287
743.8372, 174.4998
744.3193, 174.1854
744.8014, 175.0151
745.2835, 176.4136
745.7656, 177.7019
746.2477, 178.8056
746.7299, 180.2052
747.2120, 182.6687
747.6941, 185.2001
748.1762, 186.1076
748.6583, 186.0761
749.1404, 187.5463
749.6226, 191.1830
750.1047, 194.9895
750.5868, 196.8208
751.0689, 196.9080
751.5510, 197.8640
752.0331, 200.0086
752.5153, 202.4064
752.9974, 205.2203
753.4795, 207.9847
753.9616, 210.7480
754.4437, 213.2336
754.9258, 214.6060
755.4080, 214.2471
755.8901, 213.4386
756.3722, 213.3487
756.8543, 213.2166
757.3364, 211.8356
757.8185, 209.1842
758.3007, 205.8576
758.7828, 202.1609
759.2649, 198.3743
759.7470, 195.1239
760.2291, 192.4883
760.7112, 189.9219
761.1934, 187.5571
761.6755, 185.0177
762.1576, 181.6081
762.6397, 178.1641
763.1218, 175.9741
763.6039, 175.2940
764.0861, 174.3456
764.5682, 171.9133
765.0503, 169.5388
765.5324, 168.7523
766.0145, 168.8638
766.4966, 168.3164
766.9788, 166.7292
767.4609, 165.1203
767.9430, 164.6523
768.4251, 164.9920
768.9072, 164.3189
769.3893, 162.3886
769.8715, 160.7153
770.3536, 159.6420
770.8357, 158.9703
771.3178, 158.5523
771.7999, 158.3904
772.2820, 158.5149
772.7642, 159.6073
773.2463, 160.0645
773.7284, 158.6455
774.2105, 157.0370
774.6926, 157.0206
775.1747, 158.1943
775.6569, 158.9524
776.1390, 158.4746
776.6211, 157.4670
777.1032, 156.6906
777.5853, 156.1942
778.0674, 156.4403
778.5496, 157.5776
779.0317, 158.4130
779.5138, 158.2554
779.9959, 157.6397
780.4780, 157.5777
780.9601, 158.3894
781.4423, 158.4212
781.9244, 156.7990
782.4065, 155.4947
782.8886, 155.2004
783.3707, 155.5020
783.8528, 156.1190
784.3350, 156.8956
784.8171, 157.4277
785.2992, 157.3575
785.7813, 157.0438
786.2634, 157.0724
786.7455, 157.2552
787.2277, 156.7995
787.7098, 155.5657
788.1919, 154.5336
788.6740, 154.5072
789.1561, 155.2330
789.6382, 155.8001
790.1204, 156.1605
790.6025, 156.4728
791.0846, 156.8770
791.5667, 157.0774
792.0488, 156.6759
792.5309, 156.0935
793.0131, 156.0378
793.4952, 156.6916
793.9773, 157.3708
794.4594, 157.9258
794.9415, 158.2246
795.4236, 157.9995
795.9058, 157.4385
796.3879, 156.9569
796.8700, 156.6868
797.3521, 156.5069
797.8342, 156.2511
798.3163, 155.9931
798.7985, 156.2360
799.2806, 157.1374
799.7627, 157.6033
800.2448, 157.2728
800.7269, 156.6178
801.2090, 155.8321
801.6912, 155.0335
802.1733, 154.7974
802.6554, 155.6007
803.1375, 156.2074
803.6196, 156.4102
804.1017, 156.3234
804.5839, 155.6060
805.0660, 154.7537
805.5481, 154.9197
806.0302, 156.5387
806.5123, 158.2083
806.9944, 158.2967
807.4766, 157.4521
807.9587, 157.3636
808.4408, 157.9938
808.9229, 158.0963
809.4050, 157.1126
809.8871, 156.1157
810.3693, 156.4281
810.8514, 158.0396
811.3335, 159.6341
811.8156, 161.4489
812.2977, 162.8523
812.7798, 163.4138
813.2620, 163.8601
813.7441, 164.6241
814.2262, 165.6615
814.7083, 166.7722
815.1904, 167.8673
815.6725, 169.1185
816.1547, 170.6528
816.6368, 172.3793
817.1189, 174.1452
817.6010, 176.0100
818.0831, 178.1610
818.5652, 180.6781
819.0474, 183.4720
819.5295, 186.5223
820.0116, 189.7771
820.4937, 192.6756
820.9758, 195.1106
821.4579, 197.9142
821.9401, 201.6719
822.4222, 205.3359
822.9043, 207.8641
823.3864, 209.2525
823.8685, 210.1336
824.3506, 209.8975
824.8328, 210.0289
825.3149, 211.4648
825.7970, 212.7078
826.2791, 212.7126
826.7612, 211.6351
827.2433, 210.0272
827.7255, 208.0545
828.2076, 205.8025
828.6897, 203.1989
829.1718, 200.4345
829.6539, 197.8174
830.1360, 195.3470
830.6182, 192.8525
831.1003, 190.2756
831.5824, 187.8767
832.0645, 186.0812
832.5466, 184.7845
833.0287, 182.7181
833.5109, 179.5269
833.9930, 176.6303
834.4751, 174.2081
834.9572, 172.3098
835.4393, 171.3163
835.9214, 170.9008
836.4036, 170.0789
836.8857, 168.5030
837.3678, 167.0841
837.8499, 166.1701
838.3320, 165.3765
838.8141, 164.4876
839.2963, 163.5008
839.7784, 162.4393
840.2605, 161.3158
840.7426, 160.1791
841.2247, 158.8477
841.7068, 157.6299
842.1890, 157.3926
842.6711, 157.9157
843.1532, 157.9240
843.6353, 157.0756
844.1174, 155.9506
844.5995, 155.0148
845.0817, 154.2836
845.5638, 153.9188
846.0459, 154.1810
846.5280, 154.0647
847.0101, 153.2164
847.4922, 152.3451
847.9744, 151.8376
848.4565, 151.5235
848.9386, 151.1516
849.4207, 150.6970
849.9028, 150.2324
850.3849, 149.1541
850.8671, 148.7450
851.3492, 150.8253
851.8313, 153.4866
852.3134, 153.8637
852.7955, 151.8145
853.2776, 149.6152
853.7598, 148.7639
854.2419, 148.6189
854.7240, 148.1394
855.2061, 147.5012
855.6882, 147.5793
856.1703, 148.4611
856.6525, 149.1810
857.1346, 149.1881
857.6167, 148.7427
858.0988, 148.2762
858.5809, 147.7242
859.0630, 147.6211
859.5452, 148.3846
860.0273, 148.8516
860.5094, 148.3669
860.9915, 147.6821
861.4736, 147.4704
861.9557, 147.6730
862.4379, 147.8608
862.9200, 148.0244
863.4021, 148.0740
863.8842, 147.8482
864.3663, 147.6049
864.8484, 147.4691
865.3306, 147.5248
865.8127, 147.9415
866.2948, 148.7784
866.7769, 149.7386
867.2590, 150.5816
867.7411, 151.3095
868.2233, 151.9566
868.7054, 152.4961
869.1875, 152.6640
869.6696, 152.3775
870.1517, 152.2496
870.6339, 152.8732
871.1160, 154.1160
871.5981, 155.4515
872.0802, 157.0301
872.5623, 158.1794
873.0444, 158.8122
873.5266, 159.0297
874.0087, 158.5255
874.4908, 157.7980
874.9729, 157.9401
875.4550, 159.2508
875.9371, 159.7087
876.4193, 158.2611
876.9014, 156.8459
877.3835, 156.2603
877.8656, 156.1310
878.3477, 156.3368
878.8298, 156.6094
879.3120, 156.1316
879.7941, 154.2025
880.2762, 152.1767
880.7583, 151.6152
881.2404, 151.7496
881.7225, 151.1189
882.2047, 149.7924
882.6868, 148.8044
883.1689, 148.5990
883.6510, 148.5295
884.1331, 147.6557
884.6152, 146.1599
885.0974, 145.5597
885.5795, 146.0012
886.0616, 146.3122
886.5437, 146.2429
887.0258, 145.9175
887.5079, 145.3596
887.9901, 144.6464
888.4722, 144.0922
888.9543, 143.9338
889.4364, 143.4772
889.9185, 142.2682
890.4006, 141.2981
890.8828, 140.9594
891.3649, 141.0712
891.8470, 141.6476
892.3291, 142.5919
892.8112, 142.9531
893.2933, 141.7992
893.7755, 140.5744
894.2576, 140.1460
894.7397, 140.1849
895.2218, 140.3030
895.7039, 140.4786
896.1860, 140.9770
896.6682, 141.9547
897.1503, 142.7377
897.6324, 142.2739
898.1145, 141.0069
898.5966, 140.1720
899.0787, 139.7953
899.5609, 139.8418
900.0430, 140.3345
900.5251, 140.7713
901.0072, 140.6470
901.4893, 140.0778
901.9714, 139.6244
902.4536, 139.3147
902.9357, 139.0018
903.4178, 138.5654
903.8999, 138.3134
904.3820, 138.3487
904.8641, 138.7050
905.3463, 139.6708
905.8284, 141.4345
906.3105, 142.2355
906.7926, 141.2410
907.2747, 140.1774
907.7568, 139.4733
908.2390, 138.9986
908.7211, 138.6015
909.2032, 138.3118
909.6853, 138.2706
910.1674, 138.5669
910.6495, 138.9599
911.1317, 139.6173
911.6138, 140.0370
912.0959, 139.2101
912.5780, 137.7554
913.0601, 137.2580
913.5422, 138.0655
914.0244, 139.1167
914.5065, 139.5542
914.9886, 139.5400
915.4707, 139.3604
915.9528, 139.0311
916.4349, 138.6086
916.9171, 138.0993
917.3992, 137.7018
917.8813, 137.5346
918.3634, 137.4942
918.8455, 137.3905
919.3276, 137.2092
919.8098, 137.2905
920.2919, 137.9225
920.7740, 138.0319
921.2561, 136.8378
921.7382, 135.7304
922.2203, 136.1135
922.7025, 137.5388
923.1846, 138.2134
923.6667, 137.7927
924.1488, 137.3893
924.6309, 137.3620
925.1130, 137.0816
925.5952, 135.7544
926.0773, 134.3186
926.5594, 134.0500
927.0415, 134.9568
927.5236, 135.8406
928.0057, 136.2236
928.4879, 136.4048
928.9700, 136.6704
929.4521, 136.7763
929.9342, 136.1780
930.4163, 135.1855
930.8984, 134.7740
931.3806, 135.2808
931.8627, 135.8276
932.3448, 135.3016
932.8269, 134.3369
933.3090, 134.4194
933.7911, 135.2698
934.2733, 135.6374
934.7554, 135.2997
935.2375, 134.9441
935.7196, 135.0355
936.2017, 135.3845
936.6838, 135.6251
937.1660, 135.7601
937.6481, 135.7403
938.1302, 135.5430
938.6123, 135.2751
939.0944, 134.9095
939.5765, 134.6247
940.0587, 134.6619
940.5408, 134.9491
941.0229, 134.9436
941.5050, 134.2498
941.9871, 133.9886
942.4692, 134.6041
942.9514, 135.1892
943.4335, 135.2810
943.9156, 135.1999
944.3977, 135.4262
944.8798, 135.9757
945.3619, 136.2599
945.8441, 135.9189
946.3262, 135.5996
946.8083, 135.2654
947.2904, 135.2751
947.7725, 136.3017
948.2546, 137.8315
948.7368, 138.7137
949.2189, 138.5978
949.7010, 138.1668
950.1831, 137.4774
950.6652, 137.0423
951.1473, 137.6886
951.6295, 138.8364
952.1116, 139.3310
952.5937, 139.1505
953.0758, 139.1891
953.5579, 139.9817
954.0400, 141.0147
954.5222, 141.5589
955.0043, 141.7883
955.4864, 142.2855
955.9685, 143.0064
956.4506, 143.4648
956.9327, 143.5157
957.4149, 143.4410
957.8970, 143.4254
958.3791, 143.6178
958.8612, 144.6838
959.3433, 146.7314
959.8254, 147.8763
960.3076, 147.7196
960.7897, 147.8825
961.2718, 149.0457
961.7539, 150.8714
962.2360, 153.0185
962.7181, 155.4721
963.2003, 157.7305
963.6824, 160.0046
964.1645, 161.6083
964.6466, 161.4804
965.1287, 161.9099
965.6108, 164.8185
966.0930, 168.7123
966.5751, 171.2959
967.0572, 172.3829
967.5393, 173.6912
968.0214, 176.0051
968.5035, 177.7361
968.9857, 178.2362
969.4678, 178.1994
969.9499, 177.9763
970.4320, 177.6934
970.9141, 177.6582
971.3962, 178.0492
971.8784, 177.7049
972.3605, 175.6523
972.8426, 173.1605
973.3247, 171.1314
973.8068, 169.1735
974.2889, 166.3751
974.7711, 163.0589
975.2532, 160.7312
975.7353, 160.2167
976.2174, 159.9258
976.6995, 158.4000
977.1816, 156.2434
977.6638, 154.0610
978.1459, 152.0091
978.6280, 150.3460
979.1101, 149.1293
979.5922, 148.4290
980.0743, 148.3886
980.5565, 148.4635
981.0386, 147.4693
981.5207, 145.8625
982.0028, 145.6496
982.4849, 146.7001
982.9670, 146.6554
983.4492, 144.7106
983.9313, 142.7387
984.4134, 142.6132
984.8955, 143.6488
985.3776, 143.6275
985.8597, 142.5180
986.3419, 141.2320
986.8240, 139.7286
987.3061, 138.7997
987.7882, 138.9137
988.2703, 139.3458
988.7524, 139.1463
989.2346, 138.4317
989.7167, 138.5503
990.1988, 140.0473
990.6809, 140.6843
991.1630, 139.9248
991.6451, 138.8889
992.1273, 137.9427
992.6094, 137.1999
993.0915, 136.7942
993.5736, 136.7166
994.0557, 137.1298
994.5378, 138.8614
995.0200, 139.8552
995.5021, 139.2197
995.9842, 138.5436
996.4663, 138.8862
996.9484, 139.6584
997.4305, 139.7832
997.9127, 139.1129
998.3948, 138.7376
998.8769, 139.3444
999.3590, 139.5852
999.8411, 138.4982
1000.323, 137.3934
1000.805, 137.3995
1001.287, 138.1456
1001.770, 138.8003
1002.252, 139.1916
1002.734, 139.3792
1003.216, 139.1111
1003.698, 138.9688
1004.180, 139.5396
1004.662, 140.2320
1005.144, 140.4227
1005.627, 140.1421
1006.109, 139.6292
1006.591, 138.9527
1007.073, 138.3615
1007.555, 137.9190
1008.037, 137.7493
1008.519, 138.1587
1009.001, 138.8321
1009.483, 139.2715
1009.966, 139.4590
1010.448, 139.6770
1010.930, 140.0646
1011.412, 140.3238
1011.894, 139.9103
1012.376, 139.3432
1012.858, 139.5822
1013.340, 140.3052
1013.823, 140.5280
1014.305, 140.2161
1014.787, 140.2459
1015.269, 141.1292
1015.751, 142.3963
1016.233, 143.7031
1016.715, 144.8058
1017.197, 144.7747
1017.679, 143.8482
1018.162, 143.2400
1018.644, 143.1951
1019.126, 143.1248
1019.608, 142.6094
1020.090, 142.0774
1020.572, 142.3676
1021.054, 143.3522
1021.536, 144.2529
1022.018, 145.0459
1022.501, 145.1761
1022.983, 144.4743
1023.465, 143.7454
1023.947, 143.5739
1024.429, 143.7607
1024.911, 143.9321
1025.393, 144.0906
1025.875, 144.1049
1026.358, 143.9826
1026.840, 143.5923
1027.322, 142.8212
1027.804, 142.1430
1028.286, 141.9487
1028.768, 142.0642
1029.250, 142.0605
1029.732, 141.9263
1030.214, 141.7238
1030.697, 141.3464
1031.179, 141.3355
1031.661, 142.0477
1032.143, 142.6514
1032.625, 142.4207
1033.107, 141.6514
1033.589, 141.1623
1034.071, 140.9512
1034.553, 141.0759
1035.036, 141.8673
1035.518, 142.2561
1036.000, 141.7746
1036.482, 141.0884
1036.964, 140.6331
1037.446, 140.4088
1037.928, 140.4825
1038.410, 141.1021
1038.893, 141.1326
1039.375, 139.9918
1039.857, 139.1933
1040.339, 139.2183
1040.821, 139.5764
1041.303, 140.2392
1041.785, 140.9040
1042.267, 140.5474
1042.750, 138.5859
1043.232, 137.5544
1043.714, 138.4980
1044.196, 138.9933
1044.678, 137.8794
1045.160, 136.7036
1045.642, 136.9038
1046.124, 137.8499
1046.606, 137.8346
1047.089, 136.3461
1047.571, 135.6708
1048.053, 136.6611
1048.535, 137.6585
1049.017, 138.4392
1049.499, 138.8609
1049.981, 138.7377
1050.463, 138.2061
1050.945, 137.4480
1051.428, 136.3713
1051.910, 135.8192
1052.392, 136.6091
1052.874, 137.0686
1053.356, 136.2080
1053.838, 135.2487
1054.320, 135.3578
1054.802, 136.0145
1055.285, 135.9457
1055.767, 134.8748
1056.249, 134.2675
1056.731, 134.8792
1057.213, 135.5232
1057.695, 135.8154
1058.177, 135.9291
1058.659, 135.7940
1059.141, 135.6658
1059.624, 136.0025
1060.106, 136.8818
1060.588, 137.9035
1061.070, 139.4534
1061.552, 140.4397
1062.034, 140.2109
1062.516, 139.4634
1062.998, 138.4080
1063.480, 137.3715
1063.963, 136.7721
1064.445, 136.6853
1064.927, 137.0050
1065.409, 138.3145
1065.891, 139.1802
1066.373, 138.5657
1066.855, 137.7256
1067.337, 137.6588
1067.820, 138.0120
1068.302, 138.0881
1068.784, 137.8277
1069.266, 137.7906
1069.748, 138.5024
1070.230, 138.9223
1070.712, 138.1685
1071.194, 137.3795
1071.677, 137.7116
1072.159, 138.3914
1072.641, 137.9396
1073.123, 136.4928
1073.605, 135.9921
1074.087, 137.7066
1074.569, 139.0974
1075.051, 138.7299
1075.533, 137.8870
1076.016, 137.2383
1076.498, 136.8325
1076.980, 136.6598
1077.462, 136.7102
1077.944, 137.0578
1078.426, 137.9571
1078.908, 138.3241
1079.390, 136.8497
1079.873, 135.5796
1080.355, 136.2070
1080.837, 137.5483
1081.319, 138.3502
1081.801, 138.5210
1082.283, 138.2598
1082.765, 137.5058
1083.247, 137.0967
1083.729, 137.9083
1084.212, 138.5798
1084.694, 137.9501
1085.176, 137.0819
1085.658, 137.2183
1086.140, 138.0216
1086.622, 138.4125
1087.104, 138.1169
1087.586, 137.8687
1088.068, 138.1991
1088.551, 138.3679
1089.033, 137.6932
1089.515, 136.9848
1089.997, 137.1172
1090.479, 137.6912
1090.961, 137.8206
1091.443, 137.3720
1091.925, 137.0558
1092.408, 137.2939
1092.890, 137.5018
1093.372, 137.4074
1093.854, 137.2394
1094.336, 137.1701
1094.818, 137.1328
1095.300, 136.8271
1095.782, 136.3471
1096.265, 136.5690
1096.747, 138.2658
1097.229, 139.6819
1097.711, 140.2315
1098.193, 140.3367
1098.675, 140.0394
1099.157, 139.5785
1099.639, 139.0505
1100.121, 138.5827
1100.604, 138.6341
1101.086, 139.5826
1101.568, 140.1653
1102.050, 139.8301
1102.532, 139.3400
1103.014, 138.9013
1103.496, 138.5608
1103.978, 138.3134
1104.460, 138.1913
1104.943, 138.3252
1105.425, 138.8127
1105.907, 139.0769
1106.389, 138.5305
1106.871, 138.4135
1107.353, 139.5585
1107.835, 140.7741
1108.317, 141.2886
1108.800, 141.2893
1109.282, 141.0950
1109.764, 140.7231
1110.246, 140.3135
1110.728, 139.3883
1111.210, 139.1648
1111.692, 140.7781
1112.174, 142.0023
1112.656, 141.4009
1113.139, 140.0766
1113.621, 139.2302
1114.103, 138.8811
1114.585, 139.0079
1115.067, 140.2947
1115.549, 140.8123
1116.031, 139.9042
1116.513, 139.1568
1116.995, 139.0936
1117.478, 139.3549
1117.960, 139.7997
1118.442, 140.2800
1118.924, 140.2934
1119.406, 139.6754
1119.888, 139.2228
1120.370, 138.8311
1120.852, 138.8620
1121.335, 139.6778
1121.817, 140.4228
1122.299, 140.4816
1122.781, 140.1832
1123.263, 140.1155
1123.745, 140.2831
1124.227, 140.4407
1124.709, 140.5633
1125.192, 140.8052
1125.674, 141.3187
1126.156, 141.4505
1126.638, 140.6679
1127.120, 139.9928
1127.602, 140.8223
1128.084, 142.6786
1128.566, 143.0944
1129.048, 141.8769
1129.531, 140.8922
1130.013, 140.1990
1130.495, 139.9756
1130.977, 140.3428
1131.459, 140.7970
1131.941, 140.9561
1132.423, 140.8396
1132.905, 140.2271
1133.387, 139.2252
1133.870, 139.8447
1134.352, 141.9999
1134.834, 143.0745
1135.316, 142.5782
1135.798, 142.0824
1136.280, 142.4467
1136.762, 143.1272
1137.244, 143.4903
1137.727, 143.5560
1138.209, 143.2521
1138.691, 142.7050
1139.173, 142.5282
1139.655, 142.7069
1140.137, 142.6922
1140.619, 142.3228
1141.101, 142.1224
1141.583, 142.5797
1142.066, 143.2342
1142.548, 143.2652
1143.030, 143.0354
1143.512, 143.4610
1143.994, 144.2370
1144.476, 144.3594
1144.958, 143.7689
1145.440, 143.1952
1145.922, 142.9954
1146.405, 143.0569
1146.887, 143.4670
1147.369, 143.8981
1147.851, 143.9590
1148.333, 143.8077
1148.815, 143.6628
1149.297, 143.5300
1149.779, 143.2423
1150.262, 142.8012
1150.744, 142.7281
1151.226, 143.7157
1151.708, 144.4993
1152.190, 143.9754
1152.672, 143.1921
1153.154, 143.0274
1153.636, 143.1935
1154.119, 143.2271
1154.601, 143.0845
1155.083, 142.9288
1155.565, 142.8320
1156.047, 142.6226
1156.529, 142.1935
1157.011, 141.7042
1157.493, 140.7356
1157.975, 140.1875
1158.458, 141.3291
1158.940, 143.2757
1159.422, 144.1162
1159.904, 143.6137
1160.386, 143.1528
1160.868, 142.5320
1161.350, 142.4520
1161.832, 143.6356
1162.314, 144.5226
1162.797, 144.2862
1163.279, 143.6178
1163.761, 143.0596
1164.243, 142.7214
1164.725, 143.2461
1165.207, 145.2485
1165.689, 145.8152
1166.171, 144.2116
1166.654, 143.4452
1167.136, 144.4824
1167.618, 145.7615
1168.100, 146.3138
1168.582, 146.3640
1169.064, 146.2897
1169.546, 146.0706
1170.028, 145.3103
1170.510, 143.9743
1170.993, 143.7643
1171.475, 144.8798
1171.957, 145.6438
1172.439, 145.4126
1172.921, 145.1921
1173.403, 145.9388
1173.885, 147.1121
1174.367, 147.7010
1174.849, 147.8012
1175.332, 147.5115
1175.814, 147.0308
1176.296, 147.2117
1176.778, 148.0601
1177.260, 148.6504
1177.742, 148.5401
1178.224, 148.3589
1178.706, 148.8370
1179.189, 149.4408
1179.671, 149.2800
1180.153, 148.9350
1180.635, 149.3490
1181.117, 150.2809
1181.599, 151.1022
1182.081, 151.6497
1182.563, 151.9615
1183.046, 151.9668
1183.528, 152.0323
1184.010, 152.7288
1184.492, 153.1485
1184.974, 152.3910
1185.456, 151.2744
1185.938, 150.2422
1186.420, 149.6949
1186.902, 150.6366
1187.385, 153.3296
1187.867, 155.1013
1188.349, 154.7925
1188.831, 154.4923
1189.313, 154.3538
1189.795, 154.5822
1190.277, 155.7846
1190.759, 156.9743
1191.241, 157.0683
1191.724, 156.3233
1192.206, 155.7307
1192.688, 155.2689
1193.170, 155.0921
1193.652, 155.4021
1194.134, 155.3517
1194.616, 154.6975
1195.098, 153.8597
1195.581, 152.9556
1196.063, 152.3986
1196.545, 152.9032
1197.027, 154.0890
1197.509, 154.1592
1197.991, 153.2066
1198.473, 152.6985
1198.955, 152.7057
1199.438, 152.9016
1199.920, 153.1713
1200.402, 153.2674
1200.884, 153.0126
1201.366, 152.6332
1201.848, 152.4096
1202.330, 152.2805
1202.812, 152.0492
1203.294, 151.8615
1203.776, 152.2265
1204.259, 152.8877
1204.741, 152.8368
1205.223, 151.9381
1205.705, 151.5191
1206.187, 152.6462
1206.669, 153.6306
1207.151, 153.0137
1207.633, 152.1107
1208.116, 151.9921
1208.598, 152.1455
1209.080, 151.8069
1209.562, 151.1956
1210.044, 151.0865
1210.526, 151.6544
1211.008, 152.1500
1211.490, 152.5852
1211.973, 152.7009
1212.455, 152.1944
1212.937, 151.6710
1213.419, 151.4536
1213.901, 151.2675
1214.383, 150.7685
1214.865, 150.1111
1215.347, 149.8755
1215.829, 150.1860
1216.312, 149.9150
1216.794, 148.7479
1217.276, 148.8102
1217.758, 150.7231
1218.240, 152.1961
1218.722, 152.0703
1219.204, 151.3954
1219.686, 151.3645
1220.168, 151.6266
1220.651, 151.0673
1221.133, 150.0286
1221.615, 150.0130
1222.097, 150.8410
1222.579, 151.6055
1223.061, 152.0867
1223.543, 152.3171
1224.025, 152.3114
1224.508, 152.0160
1224.990, 151.0867
1225.472, 150.2111
1225.954, 150.1053
1226.436, 150.4147
1226.918, 150.9912
1227.400, 151.5428
1227.882, 151.6638
1228.365, 151.3404
1228.847, 150.7626
1229.329, 149.8426
1229.811, 149.2725
1230.293, 149.5134
1230.775, 149.7520
1231.257, 149.7765
1231.739, 149.6583
1232.221, 149.1694
1232.703, 148.7793
1233.186, 149.3445
1233.668, 150.5981
1234.150, 150.6011
1234.632, 148.6980
1235.114, 148.3411
1235.596, 150.0617
1236.078, 150.7622
1236.560, 149.5665
1237.043, 148.4936
1237.525, 148.7583
1238.007, 149.3434
1238.489, 148.8359
1238.971, 147.7725
1239.453, 147.6851
1239.935, 148.2863
1240.417, 148.7601
1240.900, 148.9999
1241.382, 148.7023
1241.864, 147.9867
1242.346, 147.7568
1242.828, 148.4690
1243.310, 149.2651
1243.792, 149.7023
1244.274, 149.6596
1244.756, 148.4081
1245.239, 147.2357
1245.721, 147.4429
1246.203, 148.5471
1246.685, 150.1960
1247.167, 151.9590
1247.649, 152.1335
1248.131, 149.6531
1248.613, 148.1881
1249.095, 148.6607
1249.578, 149.4908
1250.060, 150.8352
1250.542, 151.7759
1251.024, 151.6749
1251.506, 151.2282
1251.988, 151.2741
1252.470, 151.6625
1252.952, 151.7360
1253.435, 151.4763
1253.917, 151.9080
1254.399, 153.0005
1254.881, 153.1861
1255.363, 152.2657
1255.845, 151.7598
1256.327, 152.3643
1256.809, 153.2449
1257.292, 153.7429
1257.774, 153.7743
1258.256, 152.7290
1258.738, 151.5345
1259.220, 151.5776
1259.702, 152.4101
1260.184, 153.4123
1260.666, 154.3105
1261.148, 154.7038
1261.630, 154.4797
1262.113, 154.2303
1262.595, 154.0960
1263.077, 154.0821
1263.559, 154.2998
1264.041, 154.5027
1264.523, 154.5280
1265.005, 154.5340
1265.487, 154.7667
1265.970, 155.0105
1266.452, 154.6818
1266.934, 153.7625
1267.416, 153.5266
1267.898, 154.0801
1268.380, 154.4182
1268.862, 154.4060
1269.344, 155.1398
1269.827, 156.9934
1270.309, 158.3043
1270.791, 157.8025
1271.273, 156.7311
1271.755, 156.9720
1272.237, 157.7560
1272.719, 157.4736
1273.201, 156.8121
1273.683, 157.1689
1274.166, 158.1561
1274.648, 158.6639
1275.130, 158.5043
1275.612, 158.0994
1276.094, 157.5490
1276.576, 157.0085
1277.058, 156.2632
1277.540, 155.9233
1278.022, 156.5845
1278.505, 157.3301
1278.987, 157.7892
1279.469, 157.8002
1279.951, 156.9543
1280.433, 155.5633
1280.915, 154.9075
1281.397, 155.0526
1281.879, 155.8053
1282.362, 157.2734
1282.844, 158.1413
1283.326, 158.1978
1283.808, 157.3930
1284.290, 155.7065
1284.772, 154.0746
1285.254, 153.1706
1285.736, 152.9839
##END=



