##NAMES=Kaliborite
##RRUFFID=R060352
##IDEAL CHEMISTRY=KHMg_2_B_12_O_16_(OH)_10_&#183;4H_2_O
##LOCALITY=Inder Boron deposit, Atyrau (Gur'yev), Atyrau Oblast', Kazakhstan
##OWNER=RRUFF
##SOURCE=Herb Obodda
##DESCRIPTION=Colorless fragment
##STATUS=The identification of this mineral has been confirmed by X-ray diffraction and chemical analysis
##URL=rruff.info/R060352
##MEASURED CHEMISTRY=K_1.00_H_1.00_Mg_2.00_B_12.00_O_16_(OH)_10_Â·4H_2_O ; H and B not measured but estimated by stoichiometry
130.0258, 9.635228
130.5079, 13.20548
130.9900, 16.01115
131.4721, 18.02869
131.9542, 19.77544
132.4363, 21.79972
132.9185, 24.00952
133.4006, 25.75225
133.8827, 26.74758
134.3648, 27.15141
134.8469, 27.25540
135.3290, 26.84211
135.8112, 27.09002
136.2933, 29.76454
136.7754, 35.04040
137.2575, 40.12773
137.7396, 43.86219
138.2217, 46.24120
138.7039, 49.54454
139.1860, 53.70302
139.6681, 58.91355
140.1502, 65.94810
140.6323, 75.32265
141.1144, 84.57937
141.5966, 93.05984
142.0787, 100.9451
142.5608, 106.9186
143.0429, 110.6136
143.5250, 112.6060
144.0071, 114.0145
144.4893, 114.4383
144.9714, 114.9094
145.4535, 116.0419
145.9356, 118.9155
146.4177, 120.2293
146.8998, 119.1169
147.3820, 116.3119
147.8641, 114.7474
148.3462, 114.1210
148.8283, 115.0342
149.3104, 117.9220
149.7925, 125.1191
150.2747, 131.2184
150.7568, 134.7981
151.2389, 136.2073
151.7210, 139.8257
152.2031, 147.5173
152.6852, 156.2314
153.1674, 164.1629
153.6495, 170.3188
154.1316, 176.5827
154.6137, 182.7784
155.0958, 188.8876
155.5779, 196.5397
156.0601, 206.8217
156.5422, 218.3423
157.0243, 229.7972
157.5064, 243.8925
157.9885, 255.1825
158.4706, 260.8827
158.9528, 260.1285
159.4349, 260.5681
159.9170, 265.7204
160.3991, 272.6419
160.8812, 277.9303
161.3633, 278.9046
161.8455, 279.4032
162.3276, 281.3647
162.8097, 285.3584
163.2918, 288.7356
163.7739, 290.6546
164.2560, 290.9208
164.7382, 287.9542
165.2203, 281.2850
165.7024, 275.0732
166.1845, 272.0361
166.6666, 273.5889
167.1487, 274.5968
167.6309, 270.7208
168.1130, 264.1996
168.5951, 259.8352
169.0772, 261.4429
169.5593, 265.2210
170.0414, 267.7426
170.5236, 267.6973
171.0057, 268.0128
171.4878, 271.0943
171.9699, 276.3452
172.4520, 281.9015
172.9341, 287.1617
173.4163, 292.0301
173.8984, 296.4789
174.3805, 300.8119
174.8626, 304.2548
175.3447, 305.3834
175.8268, 304.7109
176.3090, 304.6388
176.7911, 306.9798
177.2732, 310.9331
177.7553, 315.2480
178.2374, 319.7189
178.7195, 324.3008
179.2017, 328.9207
179.6838, 333.6234
180.1659, 338.4389
180.6480, 343.5382
181.1301, 348.7916
181.6122, 354.0497
182.0944, 359.4671
182.5765, 364.7121
183.0586, 369.1463
183.5407, 372.7068
184.0228, 376.2912
184.5049, 381.0428
184.9871, 386.5679
185.4692, 391.4073
185.9513, 396.3704
186.4334, 399.9473
186.9155, 398.0618
187.3976, 390.4882
187.8798, 380.2902
188.3619, 370.0779
188.8440, 359.7506
189.3261, 349.3105
189.8082, 338.5915
190.2903, 327.6913
190.7725, 316.5376
191.2546, 304.8013
191.7367, 293.7680
192.2188, 284.6963
192.7009, 277.4652
193.1830, 271.4890
193.6652, 266.6785
194.1473, 262.9323
194.6294, 260.3973
195.1115, 259.5060
195.5936, 258.3966
196.0757, 253.9389
196.5579, 245.9969
197.0400, 238.7497
197.5221, 234.4148
198.0042, 232.7430
198.4863, 229.4133
198.9684, 224.0756
199.4506, 217.8837
199.9327, 212.4983
200.4148, 207.9184
200.8969, 203.8651
201.3790, 200.2637
201.8611, 197.1396
202.3433, 194.1621
202.8254, 191.3385
203.3075, 188.6296
203.7896, 186.0256
204.2717, 183.5208
204.7538, 181.0602
205.2360, 178.2352
205.7181, 174.8010
206.2002, 173.3792
206.6823, 174.4278
207.1644, 176.9235
207.6465, 178.9485
208.1287, 180.2571
208.6108, 181.8870
209.0929, 184.9673
209.5750, 190.3659
210.0571, 192.1842
210.5392, 189.1264
211.0214, 183.6878
211.5035, 181.4273
211.9856, 183.6452
212.4677, 185.5051
212.9498, 184.5378
213.4319, 179.8954
213.9140, 176.1061
214.3962, 173.4509
214.8783, 171.5001
215.3604, 169.2927
215.8425, 166.6593
216.3246, 164.0987
216.8067, 161.6113
217.2889, 158.8349
217.7710, 157.6162
218.2531, 158.7840
218.7352, 161.1078
219.2173, 161.4697
219.6994, 158.8947
220.1816, 156.2113
220.6637, 154.5498
221.1458, 153.9015
221.6279, 154.4247
222.1100, 156.7224
222.5921, 159.9570
223.0743, 161.8827
223.5564, 161.7867
224.0385, 161.6230
224.5206, 162.3333
225.0027, 164.3173
225.4848, 166.1733
225.9670, 168.0711
226.4491, 169.7562
226.9312, 170.5674
227.4133, 170.3765
227.8954, 169.5052
228.3775, 168.0900
228.8597, 166.0271
229.3418, 163.5759
229.8239, 160.5659
230.3060, 157.1983
230.7881, 154.1072
231.2702, 151.2301
231.7524, 148.6525
232.2345, 146.4837
232.7166, 144.9035
233.1987, 143.1672
233.6808, 140.9083
234.1629, 138.5907
234.6451, 137.5093
235.1272, 138.2794
235.6093, 139.3885
236.0914, 140.2168
236.5735, 140.7548
237.0556, 140.9461
237.5378, 140.1615
238.0199, 139.2155
238.5020, 140.3208
238.9841, 144.6687
239.4662, 149.3294
239.9483, 153.0268
240.4305, 155.1029
240.9126, 157.6601
241.3947, 160.6929
241.8768, 164.2040
242.3589, 168.2117
242.8410, 172.7424
243.3232, 177.7067
243.8053, 182.9805
244.2874, 188.3595
244.7695, 194.6569
245.2516, 202.4444
245.7337, 210.9605
246.2159, 218.2614
246.6980, 222.8621
247.1801, 228.6067
247.6622, 237.2418
248.1443, 249.9446
248.6264, 262.3362
249.1086, 274.3789
249.5907, 286.2146
250.0728, 298.1069
250.5549, 309.9886
251.0370, 322.0402
251.5191, 334.3546
252.0013, 346.7715
252.4834, 359.7312
252.9655, 373.6696
253.4476, 387.7613
253.9297, 400.2401
254.4118, 410.0262
254.8940, 419.9606
255.3761, 431.2199
255.8582, 444.4338
256.3403, 456.4567
256.8224, 466.3620
257.3046, 475.7978
257.7867, 487.3604
258.2688, 501.8100
258.7509, 517.0688
259.2330, 533.1459
259.7151, 551.0469
260.1973, 564.4489
260.6794, 572.5275
261.1615, 576.6803
261.6436, 578.9564
262.1257, 580.2711
262.6078, 577.5786
263.0900, 570.0146
263.5721, 557.4213
264.0542, 540.5767
264.5363, 518.4767
265.0184, 493.1300
265.5005, 465.6074
265.9827, 434.9199
266.4648, 405.5573
266.9469, 378.8081
267.4290, 354.7713
267.9111, 333.0185
268.3932, 313.9825
268.8754, 296.8131
269.3575, 280.2712
269.8396, 263.5577
270.3217, 249.9890
270.8038, 241.2585
271.2859, 236.9863
271.7681, 230.7965
272.2502, 221.8001
272.7323, 212.7329
273.2144, 206.7330
273.6965, 204.1952
274.1786, 202.4136
274.6608, 200.9822
275.1429, 199.8469
275.6250, 198.5441
276.1071, 197.0297
276.5892, 195.4820
277.0714, 193.9604
277.5535, 192.3923
278.0356, 191.5186
278.5177, 191.7902
278.9998, 192.7847
279.4819, 192.5992
279.9641, 190.9995
280.4462, 189.1976
280.9283, 187.8296
281.4104, 186.8785
281.8925, 187.3940
282.3746, 190.0283
282.8568, 193.8589
283.3389, 195.9915
283.8210, 196.1917
284.3031, 196.5003
284.7852, 198.2204
285.2673, 201.3088
285.7495, 205.4736
286.2316, 210.9637
286.7137, 217.0948
287.1958, 222.4688
287.6779, 227.0667
288.1600, 231.3866
288.6422, 235.8664
289.1243, 240.4395
289.6064, 244.2512
290.0885, 247.1502
290.5706, 249.6139
291.0527, 253.0095
291.5349, 257.1796
292.0170, 259.7749
292.4991, 259.1545
292.9812, 255.8536
293.4633, 251.5193
293.9454, 246.0301
294.4276, 240.2971
294.9097, 235.7107
295.3918, 232.0592
295.8739, 228.3176
296.3560, 223.3046
296.8381, 217.9236
297.3203, 214.4635
297.8024, 213.0406
298.2845, 212.9088
298.7666, 213.8971
299.2487, 215.6576
299.7308, 217.1506
300.2130, 217.5488
300.6951, 217.5685
301.1772, 218.1189
301.6593, 219.1939
302.1414, 221.3043
302.6235, 226.0003
303.1057, 232.0124
303.5878, 236.6404
304.0699, 238.4379
304.5520, 238.9182
305.0341, 240.3431
305.5162, 242.4521
305.9984, 243.0158
306.4805, 239.5325
306.9626, 233.7246
307.4447, 228.0953
307.9268, 223.6417
308.4089, 219.0419
308.8911, 212.6893
309.3732, 205.0085
309.8553, 197.7534
310.3374, 192.4863
310.8195, 187.8937
311.3016, 182.6250
311.7838, 175.9809
312.2659, 169.5337
312.7480, 164.4000
313.2301, 160.3341
313.7122, 156.6067
314.1943, 153.2889
314.6765, 149.8913
315.1586, 145.8484
315.6407, 140.7478
316.1228, 136.2282
316.6049, 133.2611
317.0870, 131.3883
317.5692, 129.8927
318.0513, 128.6589
318.5334, 127.5982
319.0155, 126.8686
319.4976, 126.5953
319.9797, 125.7258
320.4619, 123.2016
320.9440, 120.1344
321.4261, 117.8003
321.9082, 116.3904
322.3903, 115.8348
322.8724, 116.7793
323.3546, 119.2664
323.8367, 120.3930
324.3188, 118.2519
324.8009, 115.2827
325.2830, 113.3731
325.7651, 113.3116
326.2473, 113.6793
326.7294, 114.5080
327.2115, 115.7185
327.6936, 116.7069
328.1757, 117.7652
328.6578, 118.3462
329.1400, 118.1560
329.6221, 116.0003
330.1042, 114.6997
330.5863, 114.6863
331.0684, 115.5504
331.5505, 116.0479
332.0327, 115.5056
332.5148, 115.3923
332.9969, 116.4771
333.4790, 119.5699
333.9611, 121.5025
334.4432, 121.6827
334.9254, 121.0442
335.4075, 121.1975
335.8896, 122.4891
336.3717, 123.8596
336.8538, 124.7942
337.3359, 125.1618
337.8180, 126.7936
338.3001, 130.1961
338.7823, 134.0840
339.2644, 136.8814
339.7465, 138.3596
340.2286, 139.8353
340.7107, 141.6294
341.1928, 143.6965
341.6750, 145.3544
342.1571, 146.4103
342.6392, 147.8454
343.1213, 150.7937
343.6034, 155.2562
344.0855, 159.3123
344.5677, 162.4931
345.0498, 165.2010
345.5319, 168.3801
346.0140, 172.0469
346.4961, 175.7011
346.9782, 178.9972
347.4604, 182.0153
347.9425, 185.1083
348.4246, 188.4892
348.9067, 191.5149
349.3888, 192.9454
349.8709, 193.0444
350.3531, 193.2632
350.8352, 194.7140
351.3173, 196.6965
351.7994, 197.7066
352.2815, 197.6184
352.7636, 197.4339
353.2458, 197.5927
353.7279, 198.3758
354.2100, 200.4184
354.6921, 205.0299
355.1742, 210.2691
355.6563, 213.9687
356.1385, 216.2456
356.6206, 218.5209
357.1027, 221.7006
357.5848, 225.4388
358.0669, 229.4819
358.5490, 234.3703
359.0312, 238.6156
359.5133, 240.5249
359.9954, 240.8816
360.4775, 242.1463
360.9596, 246.5286
361.4417, 251.5446
361.9239, 255.6014
362.4060, 258.3825
362.8881, 260.3883
363.3702, 261.1809
363.8523, 261.4324
364.3344, 262.1736
364.8166, 264.9686
365.2987, 267.1769
365.7808, 267.7546
366.2629, 266.5821
366.7450, 264.5586
367.2271, 261.0413
367.7093, 257.1236
368.1914, 253.7670
368.6735, 251.0272
369.1556, 248.8703
369.6377, 246.7996
370.1198, 245.0016
370.6020, 245.6071
371.0841, 250.9754
371.5662, 256.5682
372.0483, 259.7791
372.5304, 258.6126
373.0125, 258.9846
373.4947, 262.0527
373.9768, 266.3512
374.4589, 268.4134
374.9410, 267.6060
375.4231, 265.8382
375.9052, 263.5788
376.3874, 260.6755
376.8695, 258.5860
377.3516, 257.6882
377.8337, 256.9344
378.3158, 254.4355
378.7979, 249.7411
379.2801, 246.7269
379.7622, 246.8515
380.2443, 249.4221
380.7264, 251.4097
381.2085, 252.7532
381.6906, 253.8595
382.1728, 254.6113
382.6549, 255.2293
383.1370, 257.1401
383.6191, 260.7689
384.1012, 265.4895
384.5833, 270.5854
385.0655, 276.0196
385.5476, 281.4415
386.0297, 286.3634
386.5118, 291.2748
386.9939, 297.1136
387.4760, 303.9154
387.9582, 311.7026
388.4403, 321.0721
388.9224, 331.5292
389.4045, 341.9555
389.8866, 352.0266
390.3687, 361.8966
390.8509, 371.8951
391.3330, 381.8856
391.8151, 390.8922
392.2972, 398.7333
392.7793, 405.0180
393.2614, 409.3977
393.7436, 411.7642
394.2257, 412.1635
394.7078, 409.9630
395.1899, 405.7217
395.6720, 400.9055
396.1541, 395.8971
396.6363, 390.4914
397.1184, 384.5853
397.6005, 378.1378
398.0826, 371.2977
398.5647, 362.1815
399.0468, 353.3318
399.5290, 347.8304
400.0111, 347.4437
400.4932, 348.7707
400.9753, 351.1427
401.4574, 354.5856
401.9395, 360.1660
402.4217, 368.4304
402.9038, 378.2842
403.3859, 389.0608
403.8680, 400.8348
404.3501, 413.2971
404.8322, 425.8624
405.3144, 439.3202
405.7965, 455.3865
406.2786, 474.3267
406.7607, 495.2505
407.2428, 518.3467
407.7249, 543.8033
408.2071, 568.0915
408.6892, 590.9791
409.1713, 613.7683
409.6534, 639.0870
410.1355, 666.6041
410.6176, 691.8207
411.0998, 713.6701
411.5819, 732.4322
412.0640, 749.9516
412.5461, 765.9335
413.0282, 776.5486
413.5103, 778.0688
413.9925, 772.0777
414.4746, 761.3352
414.9567, 745.6494
415.4388, 727.0993
415.9209, 707.4196
416.4030, 686.4828
416.8852, 663.3878
417.3673, 635.6344
417.8494, 607.2317
418.3315, 580.8765
418.8136, 556.9597
419.2957, 534.9563
419.7779, 516.2970
420.2600, 498.8793
420.7421, 480.9057
421.2242, 459.1161
421.7063, 439.3483
422.1884, 423.6908
422.6706, 411.5314
423.1527, 399.9195
423.6348, 388.4037
424.1169, 377.2853
424.5990, 366.4121
425.0811, 355.1273
425.5633, 345.8041
426.0454, 339.4260
426.5275, 334.6556
427.0096, 329.7451
427.4917, 324.4372
427.9738, 319.4212
428.4560, 314.7856
428.9381, 310.5014
429.4202, 306.8985
429.9023, 304.3092
430.3844, 301.8588
430.8665, 298.9250
431.3487, 295.4168
431.8308, 292.1379
432.3129, 289.5506
432.7950, 286.7099
433.2771, 281.2257
433.7592, 273.0323
434.2414, 265.0067
434.7235, 258.7956
435.2056, 253.8848
435.6877, 248.2760
436.1698, 241.9860
436.6519, 235.0928
437.1341, 227.0390
437.6162, 218.5122
438.0983, 211.2254
438.5804, 206.2251
439.0625, 201.8399
439.5446, 196.2260
440.0268, 189.5997
440.5089, 182.7448
440.9910, 175.7312
441.4731, 168.9339
441.9552, 162.4153
442.4373, 156.1287
442.9195, 150.8324
443.4016, 147.4869
443.8837, 145.1747
444.3658, 142.7802
444.8479, 139.8886
445.3300, 136.9515
445.8122, 133.6822
446.2943, 130.2630
446.7764, 127.9734
447.2585, 128.7857
447.7406, 129.4029
448.2227, 128.0702
448.7049, 123.4920
449.1870, 119.4394
449.6691, 115.8249
450.1512, 112.7990
450.6333, 110.6680
451.1154, 109.4778
451.5976, 109.1158
452.0797, 110.0176
452.5618, 112.0038
453.0439, 112.0805
453.5260, 109.7638
454.0081, 107.0505
454.4903, 105.3160
454.9724, 104.5714
455.4545, 104.9639
455.9366, 106.9418
456.4187, 109.1643
456.9008, 108.9402
457.3830, 106.5664
457.8651, 104.3955
458.3472, 103.8176
458.8293, 104.0738
459.3114, 103.7104
459.7935, 102.7250
460.2757, 101.7801
460.7578, 101.2411
461.2399, 101.1314
461.7220, 101.5128
462.2041, 102.5532
462.6862, 103.8335
463.1684, 105.8003
463.6505, 107.8337
464.1326, 108.4469
464.6147, 105.2638
465.0968, 101.9726
465.5789, 100.7179
466.0611, 101.9429
466.5432, 102.8470
467.0253, 102.1507
467.5074, 101.2906
467.9895, 101.4703
468.4716, 103.3493
468.9538, 105.5716
469.4359, 108.6511
469.9180, 111.9920
470.4001, 113.5378
470.8822, 112.4108
471.3643, 111.0134
471.8465, 110.1399
472.3286, 109.7556
472.8107, 110.3764
473.2928, 112.1829
473.7749, 114.5240
474.2570, 116.8669
474.7392, 119.2091
475.2213, 121.0240
475.7034, 122.2386
476.1855, 122.8137
476.6676, 122.3206
477.1497, 120.8783
477.6319, 119.6450
478.1140, 119.5869
478.5961, 120.0911
479.0782, 120.1945
479.5603, 119.8306
480.0424, 119.0853
480.5246, 117.8243
481.0067, 116.2767
481.4888, 114.7565
481.9709, 113.2055
482.4530, 111.8734
482.9352, 111.2681
483.4173, 111.0554
483.8994, 110.1790
484.3815, 107.6237
484.8636, 104.8559
485.3457, 102.5729
485.8279, 100.9121
486.3100, 99.36819
486.7921, 97.65269
487.2742, 96.17834
487.7563, 95.33410
488.2384, 95.55679
488.7206, 95.63535
489.2027, 95.26108
489.6848, 94.67220
490.1669, 94.89292
490.6490, 96.29013
491.1311, 97.37629
491.6133, 97.24658
492.0954, 95.92773
492.5775, 94.99922
493.0596, 94.47240
493.5417, 94.31826
494.0238, 94.74963
494.5060, 95.60506
494.9881, 96.08656
495.4702, 95.86172
495.9523, 95.37861
496.4344, 95.22118
496.9165, 95.34505
497.3987, 95.58290
497.8808, 95.85510
498.3629, 96.19036
498.8450, 96.79338
499.3271, 97.71349
499.8092, 98.13815
500.2914, 96.69645
500.7735, 95.00979
501.2556, 94.60698
501.7377, 97.67077
502.2198, 99.88021
502.7019, 99.90379
503.1841, 98.37606
503.6662, 97.03813
504.1483, 95.35610
504.6304, 94.59811
505.1125, 95.54884
505.5946, 98.44854
506.0768, 99.84988
506.5589, 99.01457
507.0410, 97.76218
507.5231, 97.66125
508.0052, 98.92458
508.4873, 99.88335
508.9695, 100.2233
509.4516, 100.3658
509.9337, 101.2819
510.4158, 102.9151
510.8979, 104.1742
511.3800, 103.9879
511.8622, 103.2947
512.3443, 104.6071
512.8264, 107.8053
513.3085, 110.8781
513.7906, 112.0586
514.2728, 112.2849
514.7549, 112.8022
515.2370, 113.9574
515.7191, 115.0854
516.2012, 115.7788
516.6833, 116.1716
517.1655, 116.4820
517.6476, 115.8440
518.1297, 116.0658
518.6118, 118.4621
519.0939, 122.7654
519.5760, 125.8800
520.0582, 126.2101
520.5403, 126.3072
521.0224, 127.2536
521.5045, 129.4057
521.9866, 131.3520
522.4688, 132.9305
522.9509, 134.4808
523.4330, 136.5282
523.9151, 139.1987
524.3972, 141.7621
524.8793, 144.3009
525.3615, 146.4050
525.8436, 146.6136
526.3257, 144.9544
526.8078, 143.3616
527.2899, 143.7771
527.7720, 144.9268
528.2542, 143.6339
528.7363, 139.7211
529.2184, 135.1470
529.7005, 131.5295
530.1826, 128.3209
530.6647, 124.6687
531.1469, 119.6617
531.6290, 115.3561
532.1111, 113.6553
532.5932, 113.4611
533.0753, 112.5394
533.5574, 109.0462
534.0396, 105.8551
534.5217, 104.1587
535.0038, 104.1151
535.4859, 103.6108
535.9680, 102.1255
536.4501, 100.6329
536.9323, 99.86893
537.4144, 100.6108
537.8965, 99.63228
538.3786, 96.06857
538.8607, 91.86641
539.3428, 90.12254
539.8250, 90.96922
540.3071, 92.36964
540.7892, 94.03867
541.2713, 95.64471
541.7534, 96.08200
542.2355, 95.45441
542.7177, 94.85695
543.1998, 95.45733
543.6819, 96.35208
544.1640, 95.78748
544.6461, 93.54993
545.1282, 91.72520
545.6104, 92.45940
546.0925, 94.15112
546.5746, 94.97057
547.0567, 93.66908
547.5388, 92.47351
548.0209, 92.09192
548.5031, 92.34964
548.9852, 92.84956
549.4673, 93.63176
549.9494, 94.56701
550.4315, 95.89810
550.9136, 97.61929
551.3958, 98.09518
551.8779, 96.65885
552.3600, 95.09980
552.8421, 94.51016
553.3242, 94.95000
553.8063, 95.97118
554.2885, 97.79460
554.7706, 99.53770
555.2527, 99.80823
555.7348, 98.82282
556.2169, 97.83944
556.6990, 96.89423
557.1812, 96.58836
557.6633, 98.57898
558.1454, 102.1919
558.6275, 104.8983
559.1096, 104.5545
559.5917, 103.1673
560.0739, 102.1900
560.5560, 101.7246
561.0381, 101.6397
561.5202, 101.9402
562.0023, 102.5664
562.4844, 103.4815
562.9666, 104.7931
563.4487, 106.2427
563.9308, 107.9878
564.4129, 109.7817
564.8950, 111.1912
565.3771, 111.9202
565.8593, 112.9451
566.3414, 114.7357
566.8235, 116.9510
567.3056, 117.9761
567.7877, 117.6683
568.2698, 117.1542
568.7520, 116.7737
569.2341, 116.6981
569.7162, 117.9447
570.1983, 120.6249
570.6804, 123.1491
571.1625, 123.4750
571.6447, 122.7733
572.1268, 122.9930
572.6089, 124.9381
573.0910, 127.1685
573.5731, 129.1640
574.0552, 130.7565
574.5374, 131.6949
575.0195, 130.9949
575.5016, 130.5256
575.9837, 130.8367
576.4658, 131.9297
576.9479, 133.6118
577.4301, 136.8893
577.9122, 139.5176
578.3943, 140.2138
578.8764, 138.3612
579.3585, 138.2059
579.8406, 140.2585
580.3228, 142.8707
580.8049, 144.3626
581.2870, 144.7797
581.7691, 144.8434
582.2512, 144.4010
582.7333, 144.2948
583.2155, 146.1384
583.6975, 149.4188
584.1796, 152.6273
584.6617, 155.3931
585.1439, 157.4996
585.6260, 158.3132
586.1081, 158.1131
586.5902, 158.3092
587.0723, 159.7276
587.5544, 161.5942
588.0366, 163.5612
588.5187, 165.6286
589.0008, 167.5850
589.4829, 169.2935
589.9650, 170.9616
590.4471, 172.8587
590.9293, 175.6283
591.4114, 177.0312
591.8935, 176.4790
592.3756, 175.0009
592.8577, 174.6306
593.3398, 175.4695
593.8220, 175.7152
594.3041, 174.5408
594.7862, 172.5857
595.2683, 171.4748
595.7504, 171.0782
596.2325, 170.3723
596.7147, 168.1145
597.1968, 165.5261
597.6789, 164.2318
598.1610, 164.3713
598.6431, 164.2408
599.1252, 162.8301
599.6074, 160.7901
600.0895, 158.5773
600.5716, 155.8219
601.0537, 153.6875
601.5358, 152.6988
602.0179, 152.3063
602.5001, 151.8637
602.9822, 151.4929
603.4643, 150.8195
603.9464, 149.7035
604.4285, 148.2684
604.9106, 146.7905
605.3928, 145.2467
605.8749, 143.9772
606.3570, 143.5235
606.8391, 143.4473
607.3212, 141.9349
607.8033, 139.0629
608.2855, 136.5390
608.7676, 136.5439
609.2497, 137.3276
609.7318, 136.3764
610.2139, 132.8972
610.6960, 129.7411
611.1782, 128.7168
611.6603, 128.7222
612.1424, 128.5769
612.6245, 127.9929
613.1066, 127.2818
613.5887, 126.4908
614.0709, 125.5990
614.5530, 124.4127
615.0351, 122.4208
615.5172, 121.3383
615.9993, 122.0248
616.4814, 123.9949
616.9636, 124.4458
617.4457, 123.2578
617.9278, 121.9377
618.4099, 121.5643
618.8920, 121.7850
619.3741, 121.4102
619.8563, 120.3801
620.3384, 119.7892
620.8205, 121.3111
621.3026, 123.4515
621.7847, 124.2490
622.2668, 122.7755
622.7490, 121.3821
623.2311, 121.2794
623.7132, 121.7815
624.1953, 122.0119
624.6774, 121.3219
625.1595, 120.9840
625.6417, 121.3669
626.1238, 122.1662
626.6059, 122.5220
627.0880, 122.3612
627.5701, 121.9880
628.0522, 121.4948
628.5344, 120.8784
629.0165, 120.2406
629.4986, 119.5924
629.9807, 118.4567
630.4628, 115.8898
630.9449, 112.7738
631.4271, 110.7226
631.9092, 109.8725
632.3913, 109.6345
632.8734, 110.2248
633.3555, 110.8918
633.8376, 110.8010
634.3198, 109.3142
634.8019, 107.9637
635.2840, 107.2650
635.7661, 106.8940
636.2482, 106.3513
636.7303, 105.1660
637.2125, 104.6131
637.6946, 105.1681
638.1767, 106.3392
638.6588, 106.5652
639.1409, 105.6522
639.6230, 105.1969
640.1052, 106.1649
640.5873, 107.9441
641.0694, 108.5948
641.5515, 108.2037
642.0336, 107.6692
642.5157, 107.5811
642.9979, 107.7020
643.4800, 107.5802
643.9621, 107.1436
644.4442, 107.3595
644.9263, 109.2923
645.4084, 111.7284
645.8906, 113.6634
646.3727, 114.5368
646.8548, 115.6469
647.3369, 117.0976
647.8190, 118.7840
648.3011, 120.5205
648.7833, 122.2192
649.2654, 124.3618
649.7475, 127.2301
650.2296, 130.3568
650.7117, 132.5059
651.1938, 133.8335
651.6760, 135.9783
652.1581, 139.7581
652.6402, 144.6680
653.1223, 150.2610
653.6044, 156.3612
654.0865, 162.5825
654.5687, 168.3968
655.0508, 174.3983
655.5329, 180.8301
656.0150, 187.6734
656.4971, 195.6748
656.9792, 205.5933
657.4614, 216.2581
657.9435, 226.8730
658.4256, 236.9496
658.9077, 248.7652
659.3898, 262.6769
659.8719, 277.6928
660.3541, 293.0066
660.8362, 308.5405
661.3183, 324.1887
661.8004, 339.8835
662.2825, 355.0127
662.7646, 369.4720
663.2468, 382.6666
663.7289, 393.2166
664.2110, 401.3278
664.6931, 405.7523
665.1752, 405.2116
665.6573, 400.3203
666.1395, 392.5397
666.6216, 381.2241
667.1037, 368.2035
667.5858, 352.9429
668.0679, 335.9239
668.5500, 321.1616
669.0322, 309.5376
669.5143, 298.1721
669.9964, 285.4722
670.4785, 271.5850
670.9606, 258.9942
671.4427, 247.7108
671.9249, 237.1820
672.4070, 226.3670
672.8891, 215.9329
673.3712, 207.8354
673.8533, 202.3541
674.3354, 197.2744
674.8176, 190.6594
675.2997, 183.6670
675.7818, 177.6309
676.2639, 173.2666
676.7460, 168.9387
677.2281, 163.5640
677.7103, 158.4468
678.1924, 155.4339
678.6745, 156.2395
679.1566, 155.3521
679.6387, 151.5180
680.1208, 146.1085
680.6030, 141.8364
681.0851, 138.7653
681.5672, 136.4573
682.0493, 135.2033
682.5314, 134.2333
683.0135, 131.9532
683.4957, 128.7055
683.9778, 125.9341
684.4599, 124.7533
684.9420, 124.0325
685.4241, 123.0751
685.9063, 121.8553
686.3884, 120.4285
686.8705, 117.7502
687.3526, 115.8841
687.8347, 116.0555
688.3168, 118.7457
688.7990, 120.0067
689.2811, 119.4739
689.7632, 118.3811
690.2453, 117.6958
690.7274, 117.3628
691.2095, 116.7697
691.6917, 115.8914
692.1738, 114.6664
692.6559, 112.5389
693.1380, 110.1680
693.6201, 108.7692
694.1022, 108.8744
694.5844, 109.2670
695.0665, 109.5733
695.5486, 109.6455
696.0307, 109.2934
696.5128, 107.8734
696.9949, 106.8143
697.4771, 106.5331
697.9592, 106.5650
698.4413, 105.8634
698.9234, 104.1208
699.4055, 102.9397
699.8876, 102.9816
700.3698, 103.6278
700.8519, 103.3260
701.3340, 102.1664
701.8161, 100.7369
702.2982, 99.14721
702.7803, 97.57837
703.2625, 95.97746
703.7446, 94.47707
704.2267, 93.75826
704.7088, 94.68385
705.1909, 95.96246
705.6730, 97.06303
706.1552, 97.95918
706.6373, 98.40271
707.1194, 98.06831
707.6015, 97.74405
708.0836, 98.16944
708.5657, 99.46089
709.0479, 98.64991
709.5300, 95.36623
710.0121, 92.25069
710.4942, 92.26672
710.9763, 94.20187
711.4584, 95.40608
711.9406, 95.57434
712.4227, 94.66189
712.9048, 91.15086
713.3869, 87.26778
713.8690, 85.51099
714.3511, 88.21317
714.8333, 89.86740
715.3154, 88.19006
715.7975, 85.64279
716.2796, 84.89514
716.7617, 86.62827
717.2438, 88.25709
717.7260, 89.61843
718.2081, 90.51369
718.6902, 90.30910
719.1723, 89.15076
719.6544, 88.20687
720.1365, 87.96598
720.6187, 87.90820
721.1008, 87.26125
721.5829, 86.31638
722.0650, 85.74104
722.5471, 86.00471
723.0292, 86.52145
723.5114, 87.22826
723.9935, 88.01665
724.4756, 88.43871
724.9577, 88.18782
725.4398, 88.05691
725.9219, 88.46940
726.4041, 89.20706
726.8862, 88.60131
727.3683, 86.46281
727.8504, 85.12181
728.3325, 86.58273
728.8146, 89.53886
729.2968, 91.25909
729.7789, 91.81506
730.2610, 92.01791
730.7431, 92.53874
731.2252, 92.78103
731.7073, 91.97895
732.1895, 89.93166
732.6716, 88.78429
733.1537, 89.64335
733.6358, 90.85017
734.1179, 91.62838
734.6000, 91.89464
735.0822, 92.23269
735.5643, 92.71727
736.0464, 93.02364
736.5285, 92.20168
737.0106, 90.87481
737.4927, 91.92477
737.9749, 95.88472
738.4570, 99.73431
738.9391, 100.3151
739.4212, 99.53008
739.9033, 99.66309
740.3854, 101.8871
740.8676, 103.3248
741.3497, 101.7523
741.8318, 99.81380
742.3139, 100.3526
742.7960, 104.8025
743.2781, 108.0501
743.7603, 109.5070
744.2424, 110.1146
744.7245, 110.8975
745.2066, 111.9201
745.6887, 113.9637
746.1708, 117.5716
746.6530, 121.3447
747.1351, 123.3338
747.6172, 124.4164
748.0993, 126.1209
748.5814, 129.4603
749.0635, 132.9889
749.5457, 136.0937
750.0278, 139.1177
750.5099, 142.7619
750.9920, 147.9100
751.4741, 151.9775
751.9562, 153.8778
752.4384, 154.8670
752.9205, 158.6397
753.4026, 165.1086
753.8847, 170.4756
754.3668, 172.8543
754.8489, 173.7673
755.3311, 175.6944
755.8132, 178.0441
756.2953, 179.0266
756.7774, 176.7702
757.2595, 173.9837
757.7416, 172.5893
758.2238, 172.0427
758.7059, 168.8970
759.1880, 161.2183
759.6701, 153.9256
760.1522, 148.5305
760.6343, 144.6884
761.1165, 140.2879
761.5986, 135.3203
762.0807, 130.3492
762.5628, 125.1963
763.0449, 120.4533
763.5270, 117.6305
764.0092, 116.3838
764.4913, 114.7885
764.9734, 111.2756
765.4555, 107.5372
765.9376, 104.4442
766.4197, 102.0201
766.9019, 100.4859
767.3840, 100.7008
767.8661, 100.5073
768.3482, 98.55796
768.8303, 94.97988
769.3124, 93.67814
769.7946, 94.82750
770.2767, 96.23228
770.7588, 96.08897
771.2409, 95.24929
771.7230, 95.55737
772.2051, 96.99296
772.6873, 97.71896
773.1694, 95.97152
773.6515, 93.66000
774.1336, 91.97239
774.6157, 91.07594
775.0978, 90.57649
775.5800, 90.55328
776.0621, 90.77177
776.5442, 91.08572
777.0263, 91.48987
777.5084, 92.13229
777.9905, 93.00635
778.4727, 94.18985
778.9548, 96.59349
779.4369, 99.06841
779.9190, 99.01085
780.4011, 96.03313
780.8832, 93.81443
781.3654, 95.18254
781.8475, 97.63006
782.3296, 99.37027
782.8117, 100.0013
783.2938, 100.4449
783.7759, 100.7397
784.2581, 100.7947
784.7402, 100.2661
785.2223, 99.15254
785.7044, 99.22424
786.1865, 100.6321
786.6686, 102.4589
787.1508, 103.9985
787.6329, 105.3225
788.1150, 106.6404
788.5971, 108.0487
789.0792, 109.0249
789.5613, 108.8517
790.0435, 108.4679
790.5256, 108.7108
791.0077, 110.0676
791.4898, 110.7697
791.9719, 110.4666
792.4540, 110.0852
792.9362, 110.6494
793.4183, 112.0521
793.9004, 112.7722
794.3825, 112.6074
794.8646, 112.5847
795.3467, 114.2436
795.8289, 116.4247
796.3110, 117.3415
796.7931, 116.3141
797.2752, 115.7406
797.7573, 116.6231
798.2394, 118.2418
798.7216, 120.0802
799.2037, 122.6241
799.6858, 123.9809
800.1679, 123.8026
800.6500, 123.2246
801.1321, 123.4269
801.6143, 124.2412
802.0964, 124.7772
802.5785, 124.8953
803.0606, 125.0920
803.5427, 125.3822
804.0248, 126.2020
804.5070, 128.3072
804.9891, 132.5812
805.4712, 135.8050
805.9533, 136.2409
806.4354, 136.1837
806.9175, 137.2839
807.3997, 139.8034
807.8818, 142.4769
808.3639, 145.3628
808.8460, 147.9958
809.3281, 149.2256
809.8102, 149.8816
810.2924, 152.2990
810.7745, 156.9317
811.2566, 161.9888
811.7387, 165.9491
812.2208, 169.8623
812.7029, 174.7561
813.1851, 181.3372
813.6672, 187.2866
814.1493, 191.4836
814.6314, 196.2538
815.1135, 203.4212
815.5956, 213.1092
816.0778, 223.8808
816.5599, 235.8340
817.0420, 247.9599
817.5241, 259.2112
818.0062, 270.0012
818.4883, 281.0363
818.9705, 292.4147
819.4526, 304.4328
819.9347, 317.4261
820.4168, 330.9470
820.8989, 344.9543
821.3810, 359.7755
821.8632, 373.1044
822.3453, 384.7725
822.8274, 395.4021
823.3095, 405.6470
823.7916, 415.2994
824.2737, 422.6689
824.7559, 427.7309
825.2380, 429.9981
825.7201, 429.0175
826.2022, 425.0476
826.6843, 417.8425
827.1664, 407.1269
827.6486, 395.8229
828.1307, 385.3251
828.6128, 373.5493
829.0949, 358.7702
829.5770, 340.7829
830.0591, 324.9978
830.5413, 311.7601
831.0234, 299.0869
831.5055, 285.5958
831.9876, 271.6563
832.4697, 257.0811
832.9518, 242.1784
833.4340, 229.2253
833.9161, 220.9903
834.3982, 214.1154
834.8803, 206.7167
835.3624, 198.6197
835.8445, 190.1578
836.3267, 180.6525
836.8088, 172.1774
837.2909, 166.1730
837.7730, 162.1636
838.2551, 157.3723
838.7372, 151.8376
839.2194, 146.1473
839.7015, 140.0395
840.1836, 134.4243
840.6657, 130.4725
841.1478, 127.9479
841.6299, 125.4976
842.1121, 123.0723
842.5942, 120.1820
843.0763, 116.1871
843.5584, 111.5157
844.0405, 108.8763
844.5226, 108.5669
845.0048, 108.0956
845.4869, 105.9733
845.9690, 103.3317
846.4511, 102.7816
846.9332, 103.7063
847.4153, 104.0936
847.8975, 102.8300
848.3796, 100.9317
848.8617, 98.17632
849.3438, 95.13642
849.8259, 93.68945
850.3080, 94.55114
850.7902, 95.52993
851.2723, 96.37138
851.7544, 96.80337
852.2365, 95.81198
852.7186, 93.67912
853.2007, 92.11218
853.6829, 92.12036
854.1650, 92.29130
854.6471, 91.23826
855.1292, 89.52442
855.6113, 88.09224
856.0934, 86.69456
856.5756, 86.37653
857.0577, 87.92289
857.5398, 90.01389
858.0219, 90.64302
858.5040, 89.71655
858.9861, 89.04336
859.4683, 88.97599
859.9504, 89.03085
860.4325, 88.48721
860.9146, 87.68497
861.3967, 87.20717
861.8788, 87.24262
862.3610, 87.48731
862.8431, 88.10731
863.3252, 88.70811
863.8073, 88.76891
864.2894, 87.61168
864.7715, 88.29563
865.2537, 91.35711
865.7358, 94.68214
866.2179, 96.03673
866.7000, 96.01863
867.1821, 96.09576
867.6642, 96.40332
868.1464, 97.29047
868.6285, 99.10854
869.1106, 101.5243
869.5927, 104.4974
870.0748, 108.2869
870.5569, 111.1888
871.0391, 112.6767
871.5212, 114.2330
872.0033, 116.8284
872.4854, 120.3027
872.9675, 123.4950
873.4496, 126.4255
873.9318, 128.7970
874.4139, 130.3234
874.8960, 131.2719
875.3781, 131.8538
875.8602, 132.0762
876.3423, 131.8700
876.8245, 131.0996
877.3066, 130.0004
877.7887, 128.4990
878.2708, 126.7376
878.7529, 125.4836
879.2350, 124.7466
879.7172, 123.4111
880.1993, 120.4364
880.6814, 117.3109
881.1635, 116.6179
881.6456, 117.2865
882.1277, 116.8168
882.6099, 112.6424
883.0920, 109.1463
883.5741, 107.1484
884.0562, 106.6854
884.5383, 108.4855
885.0204, 113.2181
885.5026, 115.7188
885.9847, 114.6399
886.4668, 112.3094
886.9489, 111.9370
887.4310, 112.6942
887.9131, 112.8153
888.3953, 111.5374
888.8774, 110.5135
889.3595, 111.1616
889.8416, 111.9687
890.3237, 111.3335
890.8058, 108.2364
891.2880, 106.8875
891.7701, 107.7979
892.2522, 108.8928
892.7343, 107.9749
893.2164, 105.7976
893.6985, 104.2878
894.1807, 103.6097
894.6628, 103.4772
895.1449, 105.0140
895.6270, 105.9864
896.1091, 104.2129
896.5912, 99.30966
897.0734, 96.86539
897.5555, 97.83263
898.0376, 99.05125
898.5197, 99.06951
899.0018, 98.16688
899.4839, 97.10390
899.9661, 95.95119
900.4482, 95.12218
900.9303, 94.86055
901.4124, 94.97586
901.8945, 95.34510
902.3766, 95.98554
902.8588, 97.06960
903.3409, 99.46529
903.8230, 100.6242
904.3051, 99.78584
904.7872, 97.85091
905.2693, 96.42556
905.7515, 95.48287
906.2336, 94.85427
906.7157, 94.57725
907.1978, 94.36594
907.6799, 94.05293
908.1620, 93.62881
908.6442, 93.08921
909.1263, 92.60819
909.6084, 91.65202
910.0905, 90.04192
910.5726, 88.20592
911.0547, 86.33157
911.5369, 84.47594
912.0190, 83.37156
912.5011, 83.08762
912.9832, 82.75731
913.4653, 81.50954
913.9474, 79.98270
914.4296, 78.71457
914.9117, 77.75919
915.3938, 77.12298
915.8759, 77.27976
916.3580, 77.05099
916.8401, 75.66512
917.3223, 73.48359
917.8044, 72.99327
918.2865, 74.06821
918.7686, 74.56495
919.2507, 72.18366
919.7328, 69.69440
920.2150, 70.59588
920.6971, 73.51065
921.1792, 75.03481
921.6613, 72.84084
922.1434, 71.04886
922.6255, 70.37222
923.1077, 70.25841
923.5898, 69.77702
924.0719, 68.95090
924.5540, 68.05987
925.0361, 67.10152
925.5182, 66.32809
926.0004, 66.13206
926.4825, 66.18779
926.9646, 66.08421
927.4467, 65.65214
927.9288, 65.30779
928.4109, 64.98588
928.8931, 64.88895
929.3752, 65.26785
929.8573, 66.10683
930.3394, 66.82190
930.8215, 67.40840
931.3036, 67.23625
931.7858, 64.82925
932.2679, 62.18080
932.7500, 61.37862
933.2321, 62.29799
933.7142, 63.18279
934.1964, 63.72945
934.6785, 64.08248
935.1606, 64.18439
935.6427, 64.16164
936.1248, 64.58697
936.6069, 65.38377
937.0891, 65.47189
937.5712, 64.10487
938.0533, 62.64002
938.5354, 62.68206
939.0175, 63.38346
939.4996, 63.50002
939.9818, 61.80455
940.4639, 60.91195
940.9460, 61.10859
941.4281, 61.86273
941.9102, 62.70567
942.3923, 63.63848
942.8745, 64.76965
943.3566, 66.12978
943.8387, 67.25197
944.3208, 67.70950
944.8029, 67.78716
945.2850, 67.59805
945.7672, 67.14602
946.2493, 66.97042
946.7314, 67.06654
947.2135, 67.52665
947.6956, 68.58822
948.1777, 69.95616
948.6599, 70.23151
949.1420, 69.65584
949.6241, 69.60636
950.1062, 71.08107
950.5883, 72.87640
951.0704, 74.08285
951.5526, 75.05103
952.0347, 76.44796
952.5168, 78.53760
952.9989, 80.70009
953.4810, 83.06841
953.9631, 85.14344
954.4453, 85.58855
954.9274, 85.18227
955.4095, 87.08072
955.8916, 91.85399
956.3737, 96.44917
956.8558, 98.38964
957.3380, 99.72056
957.8201, 101.8987
958.3022, 105.0331
958.7843, 108.7541
959.2664, 113.3478
959.7485, 117.6332
960.2307, 120.6585
960.7128, 123.2212
961.1949, 127.1023
961.6770, 132.1610
962.1591, 137.7989
962.6412, 144.3157
963.1234, 150.7689
963.6055, 156.7464
964.0876, 162.4727
964.5697, 168.4017
965.0518, 174.4606
965.5339, 180.9544
966.0161, 188.0940
966.4982, 195.1267
966.9803, 200.7748
967.4624, 205.8899
967.9445, 212.2542
968.4266, 220.5366
968.9088, 227.0124
969.3909, 230.3762
969.8730, 231.3954
970.3551, 230.1581
970.8372, 226.8111
971.3193, 224.1665
971.8015, 222.3378
972.2836, 218.3609
972.7657, 208.8722
973.2478, 197.9424
973.7299, 190.6839
974.2120, 185.7664
974.6942, 179.8066
975.1763, 170.6091
975.6584, 161.9070
976.1405, 154.1521
976.6226, 147.0324
977.1047, 139.9541
977.5869, 132.9396
978.0690, 126.8113
978.5511, 121.7275
979.0332, 117.5943
979.5153, 114.9389
979.9974, 112.7571
980.4796, 110.0968
980.9617, 106.7744
981.4438, 103.6050
981.9259, 100.5680
982.4080, 97.69057
982.8901, 94.80156
983.3723, 92.13330
983.8544, 90.67282
984.3365, 90.15954
984.8186, 89.51263
985.3007, 88.14599
985.7828, 86.57612
986.2650, 85.02447
986.7471, 83.41830
987.2292, 81.49529
987.7113, 78.81355
988.1934, 77.68660
988.6755, 78.67963
989.1577, 79.80448
989.6398, 78.16006
990.1219, 75.40723
990.6040, 74.86700
991.0861, 76.95017
991.5682, 77.94715
992.0504, 74.30711
992.5325, 71.48461
993.0146, 72.45625
993.4967, 76.30749
993.9788, 78.10310
994.4609, 77.84943
994.9431, 76.37498
995.4252, 73.09422
995.9073, 70.14468
996.3894, 70.26232
996.8715, 72.16738
997.3536, 73.75912
997.8358, 74.36617
998.3179, 74.76090
998.8000, 74.73666
999.2821, 74.86803
999.7642, 76.17773
1000.246, 78.25419
1000.728, 78.49206
1001.211, 76.83858
1001.693, 75.24895
1002.175, 74.69243
1002.657, 74.90636
1003.139, 76.42687
1003.621, 78.82291
1004.103, 79.02356
1004.585, 76.16761
1005.068, 74.48746
1005.550, 75.50155
1006.032, 77.54409
1006.514, 77.99801
1006.996, 77.45035
1007.478, 77.26097
1007.960, 78.51253
1008.442, 78.31773
1008.924, 73.04194
1009.407, 68.41894
1009.889, 69.03201
1010.371, 75.17284
1010.853, 77.36358
1011.335, 75.58720
1011.817, 73.55153
1012.299, 73.63067
1012.781, 74.68192
1013.263, 76.15786
1013.746, 77.76716
1014.228, 78.60869
1014.710, 78.46162
1015.192, 77.68729
1015.674, 76.11376
1016.156, 74.30546
1016.638, 72.65955
1017.120, 71.47724
1017.603, 72.05232
1018.085, 74.83510
1018.567, 77.35010
1019.049, 77.79162
1019.531, 77.74687
1020.013, 78.49767
1020.495, 79.99840
1020.977, 80.27774
1021.459, 79.21650
1021.942, 77.95560
1022.424, 76.84154
1022.906, 76.03475
1023.388, 75.59064
1023.870, 75.63347
1024.352, 76.40623
1024.834, 79.47651
1025.316, 81.06774
1025.799, 80.38465
1026.281, 78.86790
1026.763, 78.01384
1027.245, 77.68454
1027.727, 76.81174
1028.209, 75.35350
1028.691, 73.80939
1029.173, 72.12943
1029.656, 70.82706
1030.138, 70.40498
1030.620, 70.73461
1031.102, 71.07544
1031.584, 71.49374
1032.066, 71.57298
1032.548, 71.04491
1033.030, 70.54047
1033.512, 71.60136
1033.995, 73.15028
1034.477, 73.02687
1034.959, 70.02275
1035.441, 68.16911
1035.923, 69.65775
1036.405, 71.14010
1036.887, 70.53487
1037.369, 68.20096
1037.851, 67.71378
1038.334, 68.83859
1038.816, 69.27846
1039.298, 66.26876
1039.780, 63.62257
1040.262, 64.67166
1040.744, 67.69069
1041.226, 69.19953
1041.708, 68.71968
1042.191, 67.63464
1042.673, 65.81468
1043.155, 64.22258
1043.637, 63.96674
1044.119, 64.56017
1044.601, 65.42110
1045.083, 66.45545
1045.565, 66.88662
1046.047, 65.87466
1046.530, 64.85883
1047.012, 64.19301
1047.494, 63.89449
1047.976, 64.37197
1048.458, 65.44184
1048.940, 65.42760
1049.422, 63.49146
1049.904, 61.60690
1050.386, 60.85361
1050.869, 61.14402
1051.351, 62.97583
1051.833, 67.04565
1052.315, 67.59727
1052.797, 63.75851
1053.279, 60.39965
1053.761, 61.09779
1054.243, 63.56141
1054.726, 63.75603
1055.208, 62.44265
1055.690, 61.63649
1056.172, 62.91412
1056.654, 63.48201
1057.136, 62.46653
1057.618, 61.26110
1058.100, 61.72379
1058.583, 63.55443
1059.065, 64.82698
1059.547, 65.39913
1060.029, 65.61894
1060.511, 65.66008
1060.993, 65.47959
1061.475, 64.69546
1061.957, 63.62502
1062.439, 63.75853
1062.922, 65.36964
1063.404, 66.42934
1063.886, 66.31248
1064.368, 65.79726
1064.850, 65.82270
1065.332, 66.06180
1065.814, 65.97445
1066.296, 65.26082
1066.778, 65.23354
1067.261, 66.55209
1067.743, 67.53477
1068.225, 67.14427
1068.707, 65.85873
1069.189, 65.12179
1069.671, 64.88136
1070.153, 64.96852
1070.635, 65.27791
1071.118, 65.94835
1071.600, 67.57311
1072.082, 69.21160
1072.564, 69.86647
1073.046, 69.46072
1073.528, 68.95390
1074.010, 68.37988
1074.492, 67.66993
1074.974, 66.46585
1075.457, 65.36693
1075.939, 65.26456
1076.421, 65.78547
1076.903, 65.23043
1077.385, 62.77306
1077.867, 61.34705
1078.349, 61.62060
1078.831, 62.58034
1079.313, 62.85706
1079.796, 62.88071
1080.278, 63.66229
1080.760, 65.41566
1081.242, 66.39027
1081.724, 64.93748
1082.206, 63.89907
1082.688, 64.68504
1083.170, 66.37740
1083.652, 65.37174
1084.135, 62.35229
1084.617, 61.07006
1085.099, 63.55169
1085.581, 65.90774
1086.063, 65.28664
1086.545, 63.75582
1087.027, 63.11580
1087.509, 63.40229
1087.992, 64.84938
1088.474, 67.58035
1088.956, 69.59173
1089.438, 69.42077
1089.920, 68.12720
1090.402, 65.80289
1090.884, 63.37893
1091.366, 62.96048
1091.849, 66.34105
1092.331, 68.75754
1092.813, 69.88802
1093.295, 70.28322
1093.777, 70.06480
1094.259, 69.66396
1094.741, 70.27705
1095.223, 71.74754
1095.705, 72.56161
1096.188, 71.36686
1096.670, 70.35130
1097.152, 70.05463
1097.634, 70.25147
1098.116, 70.54705
1098.598, 70.96509
1099.080, 71.88738
1099.562, 73.49863
1100.044, 74.22314
1100.527, 71.70694
1101.009, 69.14243
1101.491, 68.88468
1101.973, 70.52440
1102.455, 71.75278
1102.937, 72.58044
1103.419, 72.82399
1103.901, 72.27370
1104.384, 71.47945
1104.866, 70.52348
1105.348, 69.91914
1105.830, 70.46935
1106.312, 72.73508
1106.794, 74.02127
1107.276, 73.97378
1107.758, 74.23231
1108.240, 76.22337
1108.723, 78.71122
1109.205, 79.40251
1109.687, 78.91487
1110.169, 78.68135
1110.651, 79.26921
1111.133, 79.99754
1111.615, 80.80241
1112.097, 81.73894
1112.579, 83.12930
1113.062, 84.68570
1113.544, 85.21680
1114.026, 84.81472
1114.508, 84.26413
1114.990, 83.44347
1115.472, 83.21389
1115.954, 84.39590
1116.436, 85.94955
1116.919, 86.26643
1117.401, 85.41566
1117.883, 84.19250
1118.365, 82.64381
1118.847, 81.96690
1119.329, 84.19067
1119.811, 86.57917
1120.293, 86.87090
1120.776, 85.62859
1121.258, 85.58036
1121.740, 86.98972
1122.222, 86.75247
1122.704, 83.61257
1123.186, 80.78419
1123.668, 82.63927
1124.150, 85.97928
1124.632, 87.22965
1125.115, 85.66517
1125.597, 84.32796
1126.079, 83.15990
1126.561, 82.58129
1127.043, 82.89617
1127.525, 83.66750
1128.007, 84.44169
1128.489, 85.06936
1128.971, 85.21243
1129.454, 84.46677
1129.936, 84.18975
1130.418, 84.73378
1130.900, 85.30578
1131.382, 85.50947
1131.864, 85.35531
1132.346, 84.49002
1132.828, 83.26826
1133.311, 82.82150
1133.793, 84.45426
1134.275, 85.73868
1134.757, 86.06693
1135.239, 85.96219
1135.721, 85.76089
1136.203, 85.49117
1136.685, 85.42285
1137.167, 85.53151
1137.650, 85.56837
1138.132, 85.26809
1138.614, 85.00034
1139.096, 84.57938
1139.578, 84.50150
1140.060, 85.92587
1140.542, 88.90189
1141.024, 89.81005
1141.506, 88.33151
1141.989, 86.65247
1142.471, 86.35817
1142.953, 86.49914
1143.435, 86.33690
1143.917, 86.06059
1144.399, 86.51003
1144.881, 87.86734
1145.363, 88.45238
1145.846, 87.87437
1146.328, 87.09795
1146.810, 86.97063
1147.292, 87.21169
1147.774, 87.56253
1148.256, 88.01568
1148.738, 88.90733
1149.220, 90.72525
1149.703, 90.91227
1150.185, 88.39491
1150.667, 85.03615
1151.149, 82.63760
1151.631, 81.24048
1152.113, 81.21306
1152.595, 82.90885
1153.077, 83.50703
1153.559, 82.25381
1154.042, 81.52326
1154.524, 82.57671
1155.006, 84.23605
1155.488, 84.05055
1155.970, 82.91647
1156.452, 82.73943
1156.934, 84.68407
1157.416, 85.34264
1157.898, 83.89305
1158.381, 82.01989
1158.863, 80.27809
1159.345, 79.00745
1159.827, 79.77829
1160.309, 81.83642
1160.791, 83.10811
1161.273, 82.61522
1161.755, 81.62635
1162.238, 79.91406
1162.720, 78.46754
1163.202, 77.92991
1163.684, 78.28514
1164.166, 80.13023
1164.648, 82.95113
1165.130, 84.41808
1165.612, 82.39145
1166.094, 80.08071
1166.577, 77.94008
1167.059, 76.47571
1167.541, 76.53627
1168.023, 77.91387
1168.505, 78.78636
1168.987, 79.12060
1169.469, 79.13813
1169.951, 78.59792
1170.433, 78.18877
1170.916, 78.09156
1171.398, 78.39243
1171.880, 79.59673
1172.362, 81.60782
1172.844, 81.93104
1173.326, 80.42709
1173.808, 79.22643
1174.290, 80.00853
1174.773, 81.32792
1175.255, 82.50440
1175.737, 83.58205
1176.219, 84.83940
1176.701, 86.29247
1177.183, 86.31909
1177.665, 84.59873
1178.147, 83.53288
1178.630, 86.04285
1179.112, 88.93566
1179.594, 89.64732
1180.076, 88.88911
1180.558, 89.19004
1181.040, 90.61620
1181.522, 91.87004
1182.004, 92.71166
1182.486, 93.29382
1182.969, 93.81836
1183.451, 94.08408
1183.933, 93.57198
1184.415, 92.53030
1184.897, 92.83546
1185.379, 94.66895
1185.861, 95.58766
1186.343, 94.57821
1186.825, 94.08763
1187.308, 97.88548
1187.790, 102.3792
1188.272, 103.6678
1188.754, 101.6828
1189.236, 100.8308
1189.718, 101.2743
1190.200, 101.3643
1190.682, 100.4405
1191.165, 99.36325
1191.647, 99.04103
1192.129, 99.06277
1192.611, 99.07479
1193.093, 99.05898
1193.575, 98.48192
1194.057, 97.21645
1194.539, 96.30515
1195.021, 96.22202
1195.504, 96.51517
1195.986, 96.82729
1196.468, 97.12882
1196.950, 97.37743
1197.432, 97.56836
1197.914, 97.81026
1198.396, 98.18416
1198.878, 98.03991
1199.360, 96.96328
1199.843, 95.38425
1200.325, 93.29137
1200.807, 91.27370
1201.289, 90.27236
1201.771, 90.58742
1202.253, 90.95358
1202.735, 91.36891
1203.217, 91.86176
1203.700, 92.48738
1204.182, 93.14502
1204.664, 93.84063
1205.146, 94.44740
1205.628, 94.79543
1206.110, 95.01382
1206.592, 94.21689
1207.074, 92.11469
1207.557, 90.83303
1208.039, 93.14632
1208.521, 95.61996
1209.003, 93.75351
1209.485, 89.50674
1209.967, 86.44425
1210.449, 84.89736
1210.931, 84.67696
1211.413, 86.02258
1211.896, 87.11125
1212.378, 86.32285
1212.860, 84.93961
1213.342, 84.01952
1213.824, 83.60967
1214.306, 83.88862
1214.788, 85.02209
1215.270, 86.28632
1215.752, 87.75163
1216.235, 88.63099
1216.717, 87.92825
1217.199, 86.72218
1217.681, 85.76196
1218.163, 85.20855
1218.645, 85.53691
1219.127, 87.21017
1219.609, 87.63233
1220.092, 86.55362
1220.574, 85.62366
1221.056, 86.48650
1221.538, 87.78805
1222.020, 88.57238
1222.502, 88.73147
1222.984, 87.99100
1223.466, 85.89977
1223.948, 85.36860
1224.431, 86.66943
1224.913, 88.20220
1225.395, 88.82803
1225.877, 89.00985
1226.359, 89.18544
1226.841, 89.18111
1227.323, 88.61642
1227.805, 87.43661
1228.287, 85.93518
1228.770, 84.10135
1229.252, 82.61253
1229.734, 81.94398
1230.216, 81.90320
1230.698, 83.08392
1231.180, 84.56715
1231.662, 83.90351
1232.144, 80.75680
1232.627, 80.74403
1233.109, 84.43269
1233.591, 87.43166
1234.073, 85.42269
1234.555, 82.68046
1235.037, 82.19854
1235.519, 82.86614
1236.001, 82.42256
1236.484, 80.87247
1236.966, 79.76283
1237.448, 79.24168
1237.930, 79.37662
1238.412, 81.24307
1238.894, 82.67538
1239.376, 82.17650
1239.858, 80.57922
1240.340, 78.79177
1240.823, 76.93726
1241.305, 76.26611
1241.787, 76.87434
1242.269, 77.82518
1242.751, 79.01059
1243.233, 79.82644
1243.715, 79.88140
1244.197, 79.55109
1244.679, 79.28951
1245.162, 79.13094
1245.644, 79.49104
1246.126, 80.34322
1246.608, 80.63352
1247.090, 79.08443
1247.572, 77.82927
1248.054, 77.72322
1248.536, 77.98843
1249.019, 77.32510
1249.501, 76.06972
1249.983, 75.01136
1250.465, 74.30756
1250.947, 74.72193
1251.429, 78.01487
1251.911, 80.46184
1252.393, 81.13329
1252.875, 80.96469
1253.358, 81.17403
1253.840, 81.52969
1254.322, 81.27669
1254.804, 80.49699
1255.286, 80.43877
1255.768, 82.18812
1256.250, 83.45451
1256.732, 83.94328
1257.214, 83.70983
1257.697, 82.18504
1258.179, 80.32746
1258.661, 79.87033
1259.143, 80.68847
1259.625, 81.23824
1260.107, 81.32686
1260.589, 81.00762
1261.071, 80.13224
1261.554, 79.50739
1262.036, 80.18460
1262.518, 81.45750
1263.000, 83.03505
1263.482, 84.51540
1263.964, 84.16858
1264.446, 81.23911
1264.928, 79.79243
1265.411, 80.44862
1265.893, 81.77106
1266.375, 83.02525
1266.857, 83.88784
1267.339, 83.91882
1267.821, 83.95888
1268.303, 82.81981
1268.785, 82.45189
1269.267, 81.39921
1269.750, 79.52346
1270.232, 78.82703
1270.714, 82.58163
1271.196, 86.16806
1271.678, 85.95285
1272.160, 83.90178
1272.642, 82.95049
1273.124, 83.04649
1273.606, 83.76620
1274.089, 84.97080
1274.571, 85.02975
1275.053, 80.80259
1275.535, 78.03574
1276.017, 79.64114
1276.499, 82.76286
1276.981, 83.69350
1277.463, 82.88963
1277.946, 81.83344
1278.428, 80.70789
1278.910, 79.92457
1279.392, 79.71143
1279.874, 79.92229
1280.356, 80.80463
1280.838, 81.52351
1281.320, 80.65295
1281.802, 79.17843
1282.285, 79.41744
1282.767, 81.03876
1283.249, 82.18320
1283.731, 82.27418
1284.213, 81.97615
1284.695, 81.22306
1285.177, 80.52837
1285.659, 79.98520
1286.141, 80.05599
1286.624, 82.28813
1287.106, 85.53267
1287.588, 86.28005
1288.070, 83.38317
1288.552, 82.16177
1289.034, 82.98566
1289.516, 84.26145
1289.998, 85.17752
1290.481, 85.64796
1290.963, 85.04153
1291.445, 84.21680
1291.927, 84.73388
1292.409, 86.71931
1292.891, 87.80201
1293.373, 87.95073
1293.855, 87.58912
1294.338, 86.14682
1294.820, 85.25113
1295.302, 86.50903
1295.784, 87.95850
1296.266, 87.56738
1296.748, 85.74034
1297.230, 85.43600
1297.712, 86.33749
1298.194, 86.95607
1298.677, 85.97023
1299.159, 85.62691
1299.641, 86.54343
1300.123, 87.54337
1300.605, 87.78289
1301.087, 87.43317
1301.569, 86.44602
1302.051, 85.26254
1302.533, 84.85219
1303.016, 85.41447
##END=



