##NAMES=Kaliophilite
##RRUFFID=R061113
##IDEAL CHEMISTRY=KAlSiO_4_
##LOCALITY=Bolsena, Lazio, Italy
##OWNER=RRUFF
##SOURCE=Michael Scott
##DESCRIPTION=Colorless acicular silky crystals associated with colorless prismatic apatite, orange akermanite and black augite
##STATUS=The identification of this mineral has been confirmed only by single crystal X-ray diffraction.
##URL=rruff.info/R061113
181.7661, 1780.680
182.2482, 1769.825
182.7303, 1760.118
183.2124, 1755.073
183.6946, 1755.124
184.1767, 1763.007
184.6588, 1786.380
185.1409, 1803.915
185.6230, 1803.641
186.1051, 1797.541
186.5873, 1801.304
187.0694, 1823.991
187.5515, 1855.622
188.0336, 1868.070
188.5157, 1844.826
188.9978, 1830.585
189.4800, 1841.790
189.9621, 1862.612
190.4442, 1876.024
190.9263, 1873.981
191.4084, 1863.528
191.8905, 1862.277
192.3727, 1877.146
192.8548, 1889.170
193.3369, 1898.212
193.8190, 1902.083
194.3011, 1895.785
194.7832, 1877.096
195.2654, 1854.577
195.7475, 1848.274
196.2296, 1870.915
196.7117, 1886.052
197.1938, 1884.121
197.6759, 1876.628
198.1581, 1872.243
198.6402, 1874.052
199.1223, 1881.547
199.6044, 1895.807
200.0865, 1926.772
200.5686, 1943.763
201.0508, 1932.708
201.5329, 1916.396
202.0150, 1913.934
202.4971, 1930.050
202.9792, 1953.309
203.4613, 1964.759
203.9435, 1957.488
204.4256, 1953.644
204.9077, 1950.858
205.3898, 1953.451
205.8719, 1967.262
206.3540, 1992.166
206.8362, 2019.982
207.3183, 2039.702
207.8004, 2048.626
208.2825, 2055.460
208.7646, 2060.169
209.2467, 2063.233
209.7289, 2066.037
210.2110, 2068.071
210.6931, 2066.436
211.1752, 2055.910
211.6573, 2031.626
212.1395, 2016.844
212.6216, 2021.017
213.1037, 2025.991
213.5858, 2022.683
214.0679, 2011.345
214.5500, 1997.776
215.0322, 1987.510
215.5143, 1981.000
215.9964, 1975.058
216.4785, 1972.297
216.9606, 1967.662
217.4427, 1955.119
217.9249, 1938.240
218.4070, 1927.333
218.8891, 1933.414
219.3712, 1957.364
219.8533, 1966.190
220.3354, 1944.287
220.8176, 1921.561
221.2997, 1903.059
221.7818, 1889.938
222.2639, 1883.674
222.7460, 1886.906
223.2281, 1897.929
223.7103, 1898.064
224.1924, 1876.295
224.6745, 1854.750
225.1566, 1835.838
225.6387, 1820.412
226.1208, 1809.201
226.6030, 1802.768
227.0851, 1800.674
227.5672, 1801.400
228.0493, 1809.288
228.5314, 1814.063
229.0135, 1811.074
229.4957, 1805.313
229.9778, 1802.864
230.4599, 1806.555
230.9420, 1813.715
231.4241, 1817.693
231.9062, 1816.452
232.3884, 1815.314
232.8705, 1814.370
233.3526, 1814.125
233.8347, 1815.029
234.3168, 1817.230
234.7989, 1820.492
235.2811, 1825.096
235.7632, 1833.555
236.2453, 1837.140
236.7274, 1830.219
237.2095, 1822.235
237.6916, 1820.522
238.1738, 1825.988
238.6559, 1832.884
239.1380, 1833.633
239.6201, 1826.198
240.1022, 1820.113
240.5843, 1813.066
241.0665, 1809.594
241.5486, 1816.190
242.0307, 1830.483
242.5128, 1841.362
242.9949, 1834.544
243.4770, 1807.460
243.9592, 1793.747
244.4413, 1806.018
244.9234, 1820.609
245.4055, 1829.695
245.8876, 1833.930
246.3697, 1836.877
246.8519, 1841.413
247.3340, 1847.097
247.8161, 1849.569
248.2982, 1846.349
248.7803, 1843.061
249.2624, 1840.529
249.7446, 1839.405
250.2267, 1841.649
250.7088, 1850.393
251.1909, 1860.916
251.6730, 1858.207
252.1551, 1834.904
252.6373, 1813.071
253.1194, 1800.264
253.6015, 1792.241
254.0836, 1784.828
254.5657, 1776.626
255.0478, 1768.134
255.5300, 1760.263
256.0121, 1753.370
256.4942, 1745.801
256.9763, 1736.080
257.4584, 1726.085
257.9406, 1717.344
258.4227, 1710.229
258.9048, 1703.192
259.3869, 1692.215
259.8690, 1676.773
260.3511, 1670.110
260.8333, 1683.490
261.3154, 1698.825
261.7975, 1700.672
262.2796, 1689.492
262.7617, 1680.640
263.2438, 1686.567
263.7260, 1704.975
264.2081, 1723.215
264.6902, 1742.852
265.1723, 1757.397
265.6544, 1760.867
266.1365, 1755.698
266.6187, 1749.536
267.1008, 1745.360
267.5829, 1742.739
268.0650, 1740.041
268.5471, 1736.201
269.0292, 1735.643
269.5114, 1744.677
269.9935, 1758.868
270.4756, 1770.847
270.9577, 1776.333
271.4398, 1780.789
271.9219, 1791.789
272.4041, 1809.605
272.8862, 1824.895
273.3683, 1830.441
273.8504, 1831.747
274.3325, 1838.979
274.8146, 1853.013
275.2968, 1872.326
275.7789, 1898.138
276.2610, 1928.996
276.7431, 1959.682
277.2252, 1989.462
277.7073, 2016.660
278.1895, 2038.893
278.6716, 2056.406
279.1537, 2069.866
279.6358, 2070.843
280.1179, 2069.812
280.6000, 2090.255
281.0822, 2140.592
281.5643, 2192.705
282.0464, 2209.595
282.5285, 2187.824
283.0106, 2173.909
283.4927, 2178.306
283.9749, 2189.364
284.4570, 2193.260
284.9391, 2190.111
285.4212, 2196.198
285.9033, 2228.378
286.3854, 2285.838
286.8676, 2325.170
287.3497, 2335.954
287.8318, 2340.629
288.3139, 2346.145
288.7960, 2354.037
289.2781, 2368.980
289.7603, 2395.729
290.2424, 2427.940
290.7245, 2437.647
291.2066, 2403.843
291.6887, 2375.203
292.1708, 2363.326
292.6530, 2358.981
293.1351, 2351.120
293.6172, 2335.817
294.0993, 2315.412
294.5814, 2293.995
295.0635, 2270.838
295.5457, 2247.865
296.0278, 2225.489
296.5099, 2203.131
296.9920, 2181.019
297.4741, 2158.792
297.9562, 2135.033
298.4384, 2106.568
298.9205, 2070.709
299.4026, 2049.189
299.8847, 2054.136
300.3668, 2060.826
300.8489, 2062.496
301.3310, 2059.231
301.8131, 2052.954
302.2953, 2044.664
302.7774, 2034.672
303.2595, 2024.351
303.7416, 2011.852
304.2237, 2001.973
304.7058, 1997.455
305.1880, 1994.988
305.6701, 1991.208
306.1522, 1984.875
306.6343, 1976.732
307.1164, 1966.880
307.5985, 1953.695
308.0807, 1945.049
308.5628, 1945.939
309.0449, 1949.444
309.5270, 1951.372
310.0091, 1951.479
310.4912, 1952.789
310.9734, 1959.871
311.4555, 1971.832
311.9376, 1977.386
312.4197, 1968.872
312.9018, 1964.075
313.3839, 1976.601
313.8661, 2001.224
314.3482, 2024.211
314.8303, 2035.203
315.3124, 2042.625
315.7945, 2064.258
316.2766, 2103.109
316.7588, 2138.160
317.2409, 2153.088
317.7230, 2158.368
318.2051, 2172.089
318.6872, 2201.172
319.1693, 2230.307
319.6515, 2248.682
320.1336, 2257.389
320.6157, 2260.370
321.0978, 2256.274
321.5799, 2251.128
322.0620, 2256.506
322.5442, 2274.372
323.0263, 2288.040
323.5084, 2288.595
323.9905, 2284.161
324.4726, 2288.104
324.9547, 2302.594
325.4369, 2313.286
325.9190, 2304.779
326.4011, 2274.654
326.8832, 2251.632
327.3653, 2240.344
327.8474, 2231.483
328.3296, 2218.034
328.8117, 2202.293
329.2938, 2192.434
329.7759, 2193.853
330.2580, 2203.672
330.7401, 2208.800
331.2223, 2201.862
331.7044, 2199.404
332.1865, 2205.593
332.6686, 2215.966
333.1507, 2224.447
333.6328, 2229.574
334.1150, 2236.666
334.5971, 2255.348
335.0792, 2293.979
335.5613, 2321.042
336.0434, 2324.058
336.5255, 2327.889
337.0077, 2347.192
337.4898, 2379.329
337.9719, 2412.105
338.4540, 2435.449
338.9361, 2450.629
339.4182, 2469.855
339.9004, 2500.564
340.3825, 2523.673
340.8646, 2523.437
341.3467, 2517.017
341.8288, 2528.689
342.3109, 2570.001
342.7931, 2620.738
343.2752, 2647.612
343.7573, 2646.131
344.2394, 2653.241
344.7215, 2683.452
345.2036, 2721.299
345.6858, 2753.666
346.1679, 2780.173
346.6500, 2810.024
347.1321, 2854.044
347.6142, 2905.736
348.0963, 2943.975
348.5785, 2961.248
349.0606, 2982.312
349.5427, 3030.841
350.0248, 3099.447
350.5069, 3167.286
350.9890, 3238.360
351.4712, 3301.640
351.9533, 3342.079
352.4354, 3364.332
352.9175, 3392.926
353.3996, 3440.126
353.8817, 3499.921
354.3639, 3556.729
354.8460, 3605.573
355.3281, 3661.585
355.8102, 3730.226
356.2923, 3806.771
356.7744, 3887.674
357.2566, 3971.786
357.7387, 4052.945
358.2208, 4125.404
358.7029, 4190.450
359.1850, 4237.657
359.6671, 4259.229
360.1493, 4273.537
360.6314, 4294.948
361.1135, 4315.335
361.5956, 4315.369
362.0777, 4282.616
362.5598, 4224.556
363.0420, 4168.128
363.5241, 4115.424
364.0062, 4060.949
364.4883, 4003.354
364.9704, 3944.422
365.4525, 3883.801
365.9347, 3822.354
366.4168, 3764.117
366.8989, 3715.363
367.3810, 3676.319
367.8631, 3636.049
368.3452, 3586.309
368.8274, 3545.245
369.3095, 3524.783
369.7916, 3519.106
370.2737, 3513.874
370.7558, 3499.011
371.2379, 3483.495
371.7201, 3487.145
372.2022, 3512.756
372.6843, 3530.417
373.1664, 3524.784
373.6485, 3505.017
374.1306, 3487.038
374.6128, 3473.393
375.0949, 3454.012
375.5770, 3417.288
376.0591, 3372.348
376.5412, 3337.253
377.0233, 3315.816
377.5055, 3303.366
377.9876, 3296.997
378.4697, 3297.549
378.9518, 3295.270
379.4339, 3289.243
379.9160, 3281.093
380.3982, 3271.622
380.8803, 3260.829
381.3624, 3248.556
381.8445, 3234.667
382.3266, 3219.442
382.8087, 3203.517
383.2909, 3192.198
383.7730, 3172.671
384.2551, 3141.483
384.7372, 3104.293
385.2193, 3061.754
385.7014, 3016.234
386.1836, 2975.818
386.6657, 2952.293
387.1478, 2947.494
387.6299, 2925.385
388.1120, 2864.974
388.5941, 2810.989
389.0763, 2780.488
389.5584, 2765.139
390.0405, 2751.128
390.5226, 2731.572
391.0047, 2713.205
391.4868, 2707.758
391.9690, 2716.474
392.4511, 2726.721
392.9332, 2737.177
393.4153, 2746.100
393.8974, 2750.937
394.3795, 2751.778
394.8617, 2753.936
395.3438, 2763.908
395.8259, 2775.529
396.3080, 2774.593
396.7901, 2758.873
397.2722, 2749.441
397.7544, 2764.479
398.2365, 2798.572
398.7186, 2820.800
399.2007, 2818.181
399.6828, 2818.282
400.1649, 2831.297
400.6471, 2854.106
401.1292, 2880.884
401.6113, 2909.885
402.0934, 2944.730
402.5755, 2991.630
403.0576, 3054.064
403.5398, 3118.367
404.0219, 3199.356
404.5040, 3268.980
404.9861, 3308.580
405.4682, 3324.739
405.9503, 3335.894
406.4325, 3354.308
406.9146, 3375.118
407.3967, 3380.317
407.8788, 3364.941
408.3609, 3343.569
408.8430, 3316.885
409.3252, 3287.185
409.8073, 3255.722
410.2894, 3222.815
410.7715, 3188.895
411.2536, 3154.278
411.7357, 3118.923
412.2179, 3083.516
412.7000, 3048.012
413.1821, 3013.020
413.6642, 2985.218
414.1463, 2957.811
414.6284, 2915.548
415.1106, 2842.865
415.5927, 2769.846
416.0748, 2721.379
416.5569, 2690.821
417.0390, 2656.122
417.5211, 2608.252
418.0033, 2559.954
418.4854, 2532.003
418.9675, 2533.165
419.4496, 2525.428
419.9317, 2498.964
420.4138, 2470.385
420.8960, 2449.217
421.3781, 2435.786
421.8602, 2426.853
422.3423, 2419.997
422.8244, 2416.641
423.3065, 2423.094
423.7887, 2445.248
424.2708, 2468.633
424.7529, 2491.456
425.2350, 2514.954
425.7171, 2540.408
426.1992, 2567.901
426.6814, 2595.783
427.1635, 2623.510
427.6456, 2650.975
428.1277, 2675.901
428.6098, 2703.671
429.0919, 2718.116
429.5741, 2700.980
430.0562, 2668.339
430.5383, 2646.211
431.0204, 2649.609
431.5025, 2645.348
431.9846, 2597.712
432.4668, 2518.165
432.9489, 2447.269
433.4310, 2395.494
433.9131, 2354.789
434.3952, 2318.829
434.8773, 2288.873
435.3595, 2250.221
435.8416, 2193.598
436.3237, 2135.847
436.8058, 2086.258
437.2879, 2043.972
437.7701, 2003.774
438.2522, 1962.770
438.7343, 1924.068
439.2164, 1896.844
439.6985, 1893.856
440.1806, 1879.522
440.6628, 1840.056
441.1449, 1801.013
441.6270, 1781.769
442.1091, 1779.556
442.5912, 1776.706
443.0733, 1758.409
443.5555, 1729.798
444.0376, 1712.165
444.5197, 1710.319
445.0018, 1705.930
445.4839, 1687.544
445.9660, 1665.365
446.4482, 1649.769
446.9303, 1642.782
447.4124, 1636.761
447.8945, 1625.136
448.3766, 1611.536
448.8587, 1603.660
449.3409, 1602.616
449.8230, 1606.023
450.3051, 1614.432
450.7872, 1626.403
451.2693, 1629.044
451.7514, 1611.890
452.2336, 1598.316
452.7157, 1596.728
453.1978, 1603.071
453.6799, 1613.654
454.1620, 1626.778
454.6441, 1638.093
455.1263, 1640.303
455.6084, 1629.704
456.0905, 1630.995
456.5726, 1656.994
457.0547, 1682.201
457.5368, 1700.162
458.0190, 1711.953
458.5011, 1718.747
458.9832, 1720.007
459.4653, 1721.528
459.9474, 1734.461
460.4295, 1759.030
460.9117, 1776.884
461.3938, 1786.294
461.8759, 1785.182
462.3580, 1764.841
462.8401, 1729.990
463.3222, 1706.293
463.8044, 1713.016
464.2865, 1724.025
464.7686, 1714.471
465.2507, 1688.344
465.7328, 1661.737
466.2149, 1640.703
466.6971, 1626.300
467.1792, 1622.057
467.6613, 1639.919
468.1434, 1641.968
468.6255, 1619.027
469.1076, 1588.610
469.5898, 1555.934
470.0719, 1525.140
470.5540, 1504.496
471.0361, 1500.499
471.5182, 1506.286
472.0003, 1500.837
472.4825, 1479.612
472.9646, 1459.625
473.4467, 1441.542
473.9288, 1428.190
474.4109, 1423.926
474.8930, 1427.879
475.3752, 1431.581
475.8573, 1429.576
476.3394, 1424.484
476.8215, 1421.079
477.3036, 1419.495
477.7857, 1416.327
478.2679, 1408.745
478.7500, 1399.440
479.2321, 1395.362
479.7142, 1398.630
480.1963, 1400.936
480.6784, 1404.616
481.1606, 1404.045
481.6427, 1385.855
482.1248, 1355.085
482.6069, 1338.300
483.0890, 1357.657
483.5711, 1404.981
484.0533, 1434.956
484.5354, 1438.393
485.0175, 1438.753
485.4996, 1434.109
485.9817, 1431.839
486.4638, 1440.938
486.9460, 1460.681
487.4281, 1478.196
487.9102, 1482.881
488.3923, 1477.655
488.8744, 1469.748
489.3565, 1458.179
489.8387, 1450.526
490.3208, 1454.589
490.8029, 1462.903
491.2850, 1460.611
491.7671, 1446.296
492.2492, 1425.904
492.7314, 1391.515
493.2135, 1357.750
493.6956, 1347.192
494.1777, 1358.427
494.6598, 1364.766
495.1419, 1344.111
495.6241, 1302.336
496.1062, 1277.535
496.5883, 1289.452
497.0704, 1291.025
497.5525, 1266.094
498.0346, 1237.372
498.5168, 1226.442
498.9989, 1233.769
499.4810, 1241.062
499.9631, 1231.617
500.4452, 1210.130
500.9273, 1194.355
501.4095, 1185.028
501.8916, 1178.362
502.3737, 1173.626
502.8558, 1170.146
503.3379, 1167.248
503.8200, 1165.532
504.3022, 1161.829
504.7843, 1154.209
505.2664, 1144.410
505.7485, 1133.571
506.2306, 1122.231
506.7127, 1112.145
507.1949, 1104.190
507.6770, 1098.723
508.1591, 1097.632
508.6412, 1108.907
509.1233, 1112.627
509.6054, 1100.790
510.0876, 1086.761
510.5697, 1080.927
511.0518, 1082.948
511.5339, 1085.491
512.0161, 1083.413
512.4982, 1078.011
512.9803, 1072.913
513.4624, 1068.435
513.9445, 1062.108
514.4266, 1049.823
514.9088, 1038.209
515.3909, 1036.955
515.8730, 1046.973
516.3551, 1054.981
516.8372, 1056.410
517.3193, 1054.510
517.8015, 1051.851
518.2836, 1048.600
518.7657, 1043.772
519.2478, 1036.513
519.7299, 1028.974
520.2120, 1026.813
520.6942, 1036.078
521.1763, 1039.047
521.6584, 1034.579
522.1405, 1025.741
522.6226, 1008.249
523.1047, 987.7748
523.5869, 978.1654
524.0690, 989.0322
524.5511, 1008.927
525.0332, 1020.203
525.5153, 1022.890
525.9974, 1021.378
526.4796, 1014.778
526.9617, 1007.392
527.4438, 1003.745
527.9259, 1003.454
528.4080, 1004.445
528.8901, 1010.048
529.3723, 1013.291
529.8544, 1008.534
530.3365, 998.7288
530.8186, 988.2280
531.3007, 978.6922
531.7828, 973.2069
532.2650, 976.7519
532.7471, 991.0310
533.2292, 1004.004
533.7113, 1021.093
534.1934, 1030.200
534.6755, 1023.742
535.1577, 1008.799
535.6398, 993.4190
536.1219, 979.3189
536.6040, 970.0576
537.0861, 971.2917
537.5682, 980.1068
538.0504, 986.8328
538.5325, 989.9927
539.0146, 994.0101
539.4967, 1003.985
539.9788, 1017.194
540.4609, 1020.119
540.9431, 1002.749
541.4252, 990.0403
541.9073, 989.9118
542.3894, 994.8062
542.8715, 997.0734
543.3536, 996.4459
543.8358, 998.6154
544.3179, 1009.622
544.8000, 1025.621
545.2821, 1028.315
545.7642, 1012.105
546.2463, 997.9011
546.7284, 990.4398
547.2105, 987.5179
547.6926, 989.0682
548.1747, 994.5046
548.6569, 998.9028
549.1390, 1000.661
549.6211, 999.9067
550.1032, 994.8503
550.5853, 986.8792
551.0674, 982.1350
551.5496, 983.2802
552.0317, 987.5489
552.5138, 990.8906
552.9959, 994.3029
553.4780, 993.1935
553.9601, 982.8618
554.4423, 973.6985
554.9244, 969.5816
555.4065, 969.4700
555.8886, 972.1280
556.3707, 977.2125
556.8528, 982.0056
557.3350, 984.0806
557.8171, 983.2652
558.2992, 976.4488
558.7813, 960.4133
559.2634, 947.8204
559.7455, 949.2606
560.2277, 960.4399
560.7098, 966.9330
561.1919, 968.0356
561.6740, 965.5350
562.1561, 952.8943
562.6382, 941.2374
563.1204, 947.1740
563.6025, 968.4308
564.0846, 984.9116
564.5667, 981.1115
565.0488, 962.8077
565.5309, 953.0839
566.0131, 955.4766
566.4952, 957.5220
566.9773, 957.5708
567.4594, 956.2122
567.9415, 952.4374
568.4236, 947.1611
568.9058, 944.2676
569.3879, 948.4116
569.8700, 952.9243
570.3521, 947.5470
570.8342, 936.4035
571.3163, 935.3356
571.7985, 949.9594
572.2806, 968.1270
572.7627, 975.0665
573.2448, 969.5074
573.7269, 964.8151
574.2090, 962.6910
574.6912, 959.2962
575.1733, 950.1371
575.6554, 941.0641
576.1375, 938.9910
576.6196, 945.2207
577.1017, 954.9484
577.5839, 966.4219
578.0660, 977.8865
578.5481, 983.6326
579.0302, 983.5460
579.5123, 977.2674
579.9944, 961.1650
580.4766, 941.7856
580.9587, 931.9910
581.4408, 932.2860
581.9229, 936.9700
582.4050, 950.3960
582.8871, 963.3666
583.3693, 970.4252
583.8514, 972.0424
584.3335, 970.3806
584.8156, 966.3964
585.2977, 959.7811
585.7798, 946.7793
586.2620, 925.7245
586.7441, 919.7932
587.2262, 938.5518
587.7083, 958.5493
588.1904, 964.2988
588.6725, 963.0826
589.1547, 968.0214
589.6368, 985.9017
590.1189, 996.5905
590.6010, 982.2654
591.0831, 959.7064
591.5652, 950.6921
592.0474, 956.0259
592.5295, 965.7457
593.0116, 974.2582
593.4937, 979.5843
593.9758, 973.7057
594.4579, 946.5683
594.9401, 932.2307
595.4222, 947.4615
595.9043, 963.5531
596.3864, 965.7689
596.8685, 957.4241
597.3506, 948.2537
597.8328, 940.8913
598.3149, 935.7306
598.7970, 934.5588
599.2791, 935.7319
599.7612, 933.9057
600.2433, 928.0259
600.7255, 924.5115
601.2076, 929.9503
601.6897, 942.5325
602.1718, 947.4132
602.6539, 937.1981
603.1360, 929.1387
603.6182, 925.6535
604.1003, 923.8513
604.5824, 921.3601
605.0645, 918.3973
605.5466, 916.9831
606.0287, 919.0817
606.5109, 922.2448
606.9930, 922.0994
607.4751, 919.2148
607.9572, 918.7985
608.4393, 922.9556
608.9214, 926.5642
609.4036, 923.7584
609.8857, 914.5002
610.3678, 908.9064
610.8499, 910.8173
611.3320, 911.1864
611.8141, 905.6563
612.2963, 899.0086
612.7784, 896.5069
613.2605, 898.3585
613.7426, 900.7469
614.2247, 900.5431
614.7068, 899.0418
615.1890, 900.3185
615.6711, 904.6247
616.1532, 905.1659
616.6353, 897.4679
617.1174, 889.9498
617.5995, 894.9679
618.0817, 912.8431
618.5638, 919.5786
619.0459, 901.9830
619.5280, 887.2980
620.0101, 890.9554
620.4922, 900.9887
620.9744, 900.7538
621.4565, 888.1025
621.9386, 874.5727
622.4207, 870.0750
622.9028, 873.1837
623.3849, 879.9478
623.8671, 891.6936
624.3492, 899.0719
624.8313, 897.5372
625.3134, 892.4070
625.7955, 889.3542
626.2776, 888.2469
626.7598, 888.5273
627.2419, 891.9434
627.7240, 894.7669
628.2061, 894.8972
628.6882, 893.3209
629.1703, 890.0696
629.6525, 885.9396
630.1346, 885.4801
630.6167, 895.6904
631.0988, 913.0023
631.5809, 916.0634
632.0630, 901.2093
632.5452, 886.0744
633.0273, 873.2906
633.5094, 865.0577
633.9915, 866.2056
634.4736, 876.0742
634.9557, 881.0675
635.4379, 872.3808
635.9200, 864.5709
636.4021, 867.4125
636.8842, 875.8939
637.3663, 882.7742
637.8484, 885.9496
638.3306, 886.1641
638.8127, 884.2028
639.2948, 879.9076
639.7769, 871.4083
640.2590, 856.6788
640.7411, 844.7457
641.2233, 837.5271
641.7054, 834.9766
642.1875, 838.7087
642.6696, 848.0645
643.1517, 854.6221
643.6339, 854.2913
644.1160, 853.2576
644.5981, 855.8636
645.0802, 859.5912
645.5623, 860.5333
646.0444, 857.8911
646.5266, 853.1602
647.0087, 847.0860
647.4908, 840.4822
647.9729, 837.9029
648.4550, 840.7720
648.9371, 841.8705
649.4193, 837.8526
649.9014, 833.0852
650.3835, 831.8301
650.8656, 833.6686
651.3477, 835.7994
651.8298, 836.6599
652.3120, 838.9620
652.7941, 846.4001
653.2762, 854.8760
653.7583, 858.6605
654.2404, 857.1180
654.7225, 853.1923
655.2047, 848.3137
655.6868, 844.1436
656.1689, 848.3422
656.6510, 863.3781
657.1331, 870.6364
657.6152, 861.1301
658.0974, 850.1577
658.5795, 854.7634
659.0616, 870.6633
659.5437, 878.3920
660.0258, 870.1317
660.5079, 861.0527
660.9901, 856.2828
661.4722, 853.2417
661.9543, 848.9353
662.4364, 843.4271
662.9185, 838.3911
663.4006, 834.5036
663.8828, 833.0656
664.3649, 839.8754
664.8470, 855.4826
665.3291, 859.7142
665.8112, 845.2001
666.2933, 828.9121
666.7755, 821.9802
667.2576, 823.7825
667.7397, 830.5215
668.2218, 849.7233
668.7039, 861.6010
669.1860, 856.1664
669.6682, 847.0891
670.1503, 845.7836
670.6324, 850.4091
671.1145, 852.5258
671.5966, 847.6991
672.0787, 840.6317
672.5609, 837.1752
673.0430, 837.2313
673.5251, 840.9827
674.0072, 849.2396
674.4893, 856.7791
674.9714, 861.1872
675.4536, 862.2478
675.9357, 858.6890
676.4178, 845.1702
676.8999, 838.8226
677.3820, 843.9205
677.8641, 852.3772
678.3463, 864.9495
678.8284, 876.2993
679.3105, 876.6906
679.7926, 863.0524
680.2747, 847.7672
680.7568, 842.6442
681.2390, 844.5261
681.7211, 847.5546
682.2032, 851.1863
682.6853, 850.3501
683.1674, 841.7700
683.6495, 831.2537
684.1317, 828.1235
684.6138, 834.1203
685.0959, 838.3469
685.5780, 839.9064
686.0601, 840.7899
686.5422, 840.4655
687.0244, 840.3054
687.5065, 842.4678
687.9886, 846.8625
688.4707, 849.8043
688.9528, 847.4346
689.4349, 843.9026
689.9171, 844.5404
690.3992, 847.9579
690.8813, 849.5075
691.3634, 847.9875
691.8455, 847.1255
692.3276, 851.5072
692.8098, 859.8481
693.2919, 859.3854
693.7740, 842.4139
694.2561, 833.8412
694.7382, 846.4559
695.2203, 861.5439
695.7025, 867.8324
696.1846, 865.9230
696.6667, 858.9553
697.1488, 843.8668
697.6309, 829.6589
698.1130, 817.2677
698.5952, 810.7123
699.0773, 819.2453
699.5594, 839.9799
700.0415, 857.7512
700.5236, 862.9965
701.0057, 861.3898
701.4879, 865.6003
701.9700, 876.1987
702.4521, 879.9920
702.9342, 873.2382
703.4163, 866.2433
703.8984, 865.0598
704.3806, 867.8044
704.8627, 869.8356
705.3448, 870.5610
705.8269, 872.3146
706.3090, 879.2013
706.7911, 883.4374
707.2733, 878.5832
707.7554, 868.4573
708.2375, 857.7480
708.7196, 848.3491
709.2017, 845.2243
709.6838, 859.2167
710.1660, 881.5572
710.6481, 887.9290
711.1302, 878.9596
711.6123, 871.0001
712.0944, 869.9032
712.5765, 871.6697
713.0587, 871.4042
713.5408, 868.9697
714.0229, 867.4019
714.5050, 866.0787
714.9871, 866.5687
715.4692, 871.3894
715.9514, 876.2986
716.4335, 877.2310
716.9156, 874.8352
717.3977, 872.9996
717.8798, 870.9769
718.3619, 873.3949
718.8441, 890.9781
719.3262, 912.7780
719.8083, 916.4159
720.2904, 901.8325
720.7725, 889.7548
721.2546, 894.5244
721.7368, 909.0756
722.2189, 916.5555
722.7010, 916.0769
723.1831, 915.1677
723.6652, 916.8852
724.1473, 913.0020
724.6295, 893.5865
725.1116, 867.5530
725.5937, 853.1909
726.0758, 853.2930
726.5579, 855.8520
727.0400, 863.1161
727.5222, 867.7648
728.0043, 864.2453
728.4864, 855.6040
728.9685, 846.1591
729.4506, 837.4221
729.9327, 830.2185
730.4149, 825.8329
730.8970, 823.3452
731.3791, 821.8745
731.8612, 820.9782
732.3433, 814.2930
732.8254, 798.4691
733.3076, 786.7729
733.7897, 795.2211
734.2718, 821.3530
734.7539, 832.2500
735.2360, 814.0410
735.7181, 803.8596
736.2003, 813.0762
736.6824, 824.5393
737.1645, 828.2325
737.6466, 825.5727
738.1287, 821.5385
738.6108, 816.5112
739.0930, 812.6043
739.5751, 811.6129
740.0572, 811.9638
740.5393, 812.9666
741.0214, 813.6584
741.5035, 811.2904
741.9857, 804.5651
742.4678, 796.5386
742.9499, 791.1310
743.4320, 788.3137
743.9141, 787.7894
744.3962, 789.9018
744.8784, 792.7482
745.3605, 796.7281
745.8426, 799.3469
746.3247, 796.0712
746.8068, 785.6837
747.2889, 781.0579
747.7711, 789.0811
748.2532, 793.5723
748.7353, 789.6388
749.2174, 781.4008
749.6995, 771.1356
750.1816, 760.0038
750.6638, 749.7008
751.1459, 738.4991
751.6280, 733.3117
752.1101, 745.0999
752.5922, 765.8226
753.0743, 782.0001
753.5565, 791.4285
754.0386, 793.7600
754.5207, 788.4091
755.0028, 778.5072
755.4849, 768.6876
755.9670, 758.2360
756.4492, 756.2348
756.9313, 767.5068
757.4134, 775.1554
757.8955, 768.6638
758.3776, 756.9460
758.8597, 755.1523
759.3419, 764.7029
759.8240, 767.8746
760.3061, 753.9438
760.7882, 744.5564
761.2703, 751.4857
761.7524, 764.6387
762.2346, 774.6473
762.7167, 779.7933
763.1988, 781.0274
763.6809, 777.0013
764.1630, 772.6777
764.6451, 775.3961
765.1273, 781.9990
765.6094, 785.0991
766.0915, 783.5967
766.5736, 777.7581
767.0557, 767.0234
767.5378, 755.3925
768.0200, 752.9203
768.5021, 762.0733
768.9842, 764.5191
769.4663, 754.8101
769.9484, 749.7556
770.4305, 761.4683
770.9127, 778.5372
771.3948, 783.3492
771.8769, 774.8190
772.3590, 769.5168
772.8411, 772.0440
773.3232, 774.8345
773.8054, 777.3152
774.2875, 777.0499
774.7696, 767.8449
775.2517, 752.5179
775.7338, 744.7452
776.2159, 755.1447
776.6981, 769.4806
777.1802, 772.7625
777.6623, 767.5627
778.1444, 757.0514
778.6265, 742.9668
779.1086, 733.7723
779.5908, 734.6459
780.0729, 740.2401
780.5550, 739.7978
781.0371, 732.1349
781.5192, 731.1337
782.0013, 739.8179
782.4835, 747.0892
782.9656, 748.1415
783.4477, 746.3157
783.9298, 745.3171
784.4119, 745.1204
784.8940, 746.3797
785.3762, 751.2607
785.8583, 754.8321
786.3404, 755.1443
786.8225, 754.1009
787.3046, 751.7480
787.7867, 749.5425
788.2689, 752.0573
788.7510, 763.4606
789.2331, 772.6282
789.7152, 765.9506
790.1973, 753.1671
790.6794, 750.9849
791.1616, 758.1792
791.6437, 763.1445
792.1258, 760.9002
792.6079, 756.9214
793.0900, 760.0128
793.5721, 768.7654
794.0543, 767.8388
794.5364, 755.4819
795.0185, 744.0881
795.5006, 736.4024
795.9827, 732.5639
796.4648, 733.6729
796.9470, 739.1718
797.4291, 743.0011
797.9112, 740.0254
798.3933, 742.8282
798.8754, 761.8008
799.3575, 776.9337
799.8397, 775.1711
800.3218, 761.7491
800.8039, 745.2407
801.2860, 726.0485
801.7681, 715.2227
802.2502, 725.0938
802.7324, 739.7994
803.2145, 744.3679
803.6966, 743.0599
804.1787, 745.5289
804.6608, 753.9343
805.1429, 763.9963
805.6251, 774.0607
806.1072, 780.7455
806.5893, 774.0269
807.0714, 755.8825
807.5535, 740.1867
808.0356, 728.9922
808.5178, 726.1199
808.9999, 735.9873
809.4820, 751.8625
809.9641, 755.6062
810.4462, 741.9670
810.9283, 735.9183
811.4105, 743.5521
811.8926, 748.7233
812.3747, 738.6987
812.8568, 727.4515
813.3389, 736.1416
813.8210, 764.6464
814.3032, 776.7607
814.7853, 750.6077
815.2674, 728.3884
815.7495, 728.5294
816.2316, 735.6662
816.7137, 735.6861
817.1959, 729.5781
817.6780, 725.8178
818.1601, 728.4915
818.6422, 731.6707
819.1243, 728.8506
819.6064, 724.1282
820.0886, 724.4933
820.5707, 728.9365
821.0528, 731.8499
821.5349, 731.3808
822.0170, 731.8394
822.4991, 739.4875
822.9813, 751.2436
823.4634, 752.6727
823.9455, 743.2080
824.4276, 734.8037
824.9097, 729.3342
825.3918, 727.8239
825.8740, 731.9072
826.3561, 739.9077
826.8382, 746.3969
827.3203, 752.7693
827.8024, 754.3068
828.2845, 745.5507
828.7667, 738.6559
829.2488, 741.9415
829.7309, 747.0674
830.2130, 741.8801
830.6951, 725.8431
831.1772, 716.0980
831.6594, 722.0943
832.1415, 728.6194
832.6236, 728.2778
833.1057, 725.8615
833.5878, 724.7870
834.0699, 726.3647
834.5521, 733.5120
835.0342, 748.9629
835.5163, 762.1170
835.9984, 762.9056
836.4805, 755.1697
836.9626, 740.5691
837.4448, 722.9950
837.9269, 716.5422
838.4090, 725.3300
838.8911, 735.4399
839.3732, 730.9755
839.8553, 717.1715
840.3375, 714.6193
840.8196, 723.5962
841.3017, 729.3605
841.7838, 729.0822
842.2659, 726.1555
842.7480, 721.7352
843.2302, 717.7374
843.7123, 719.4346
844.1944, 729.3563
844.6765, 736.6520
845.1586, 742.0903
845.6407, 743.7517
846.1229, 737.4412
846.6050, 729.4865
847.0871, 726.4587
847.5692, 728.0269
848.0513, 728.7206
848.5334, 726.1436
849.0156, 724.8472
849.4977, 726.5381
849.9798, 729.5410
850.4619, 736.0214
850.9440, 741.9763
851.4261, 737.4305
851.9083, 718.4740
852.3904, 702.2935
852.8725, 701.1130
853.3546, 707.4207
853.8367, 715.5977
854.3188, 724.3234
854.8010, 732.5049
855.2831, 739.4366
855.7652, 743.3218
856.2473, 742.9763
856.7294, 738.3959
857.2115, 725.8934
857.6937, 708.7158
858.1758, 702.4541
858.6579, 708.3268
859.1400, 717.1822
859.6221, 725.2429
860.1042, 731.0930
860.5864, 732.3702
861.0685, 729.2335
861.5506, 726.4464
862.0327, 724.3315
862.5148, 720.6300
862.9969, 712.0468
863.4791, 707.3959
863.9612, 716.0436
864.4433, 733.4840
864.9254, 743.2407
865.4075, 742.0970
865.8896, 739.9703
866.3718, 735.5359
866.8539, 731.7255
867.3360, 730.8854
867.8181, 730.3544
868.3002, 725.2859
868.7823, 716.1920
869.2645, 713.0402
869.7466, 725.8096
870.2287, 735.3121
870.7108, 731.5995
871.1929, 723.6626
871.6750, 717.0355
872.1572, 713.4361
872.6393, 715.8348
873.1214, 725.5313
873.6035, 733.6965
874.0856, 730.5383
874.5677, 725.3741
875.0499, 732.9139
875.5320, 745.3774
876.0141, 743.4418
876.4962, 725.9545
876.9783, 709.9427
877.4604, 706.7465
877.9426, 711.6999
878.4247, 720.5281
878.9068, 731.1014
879.3889, 733.6094
879.8710, 728.2736
880.3531, 726.5997
880.8353, 733.5164
881.3174, 740.7418
881.7995, 737.1315
882.2816, 725.5823
882.7637, 726.0197
883.2458, 740.5427
883.7280, 751.3600
884.2101, 755.2453
884.6922, 756.0436
885.1743, 755.5961
885.6564, 754.2422
886.1385, 752.0825
886.6207, 747.4164
887.1028, 750.2663
887.5849, 770.2436
888.0670, 782.0826
888.5491, 772.9090
889.0313, 758.4904
889.5134, 750.8416
889.9955, 749.4250
890.4776, 751.7348
890.9597, 758.9434
891.4418, 767.4341
891.9240, 779.1783
892.4061, 789.4576
892.8882, 797.2462
893.3703, 801.3341
893.8524, 797.3539
894.3345, 785.9927
894.8167, 781.0308
895.2988, 793.1762
895.7809, 806.7776
896.2630, 813.4755
896.7451, 817.5007
897.2272, 822.7643
897.7094, 829.3418
898.1915, 835.6864
898.6736, 841.2179
899.1557, 848.1889
899.6378, 862.9844
900.1199, 876.5176
900.6021, 876.6267
901.0842, 866.9960
901.5663, 851.4165
902.0484, 833.6966
902.5305, 827.0486
903.0126, 841.0090
903.4948, 861.9120
903.9769, 866.4940
904.4590, 862.1500
904.9411, 876.0643
905.4232, 906.0037
905.9053, 925.9491
906.3875, 927.4578
906.8696, 921.4713
907.3517, 917.7091
907.8338, 915.8235
908.3159, 914.1176
908.7980, 912.5609
909.2802, 916.3009
909.7623, 926.9597
910.2444, 934.7716
910.7265, 935.1122
911.2086, 929.6667
911.6907, 919.5497
912.1729, 904.9164
912.6550, 897.4238
913.1371, 898.1982
913.6192, 902.6490
914.1013, 910.8825
914.5834, 921.2118
915.0656, 934.0386
915.5477, 947.3178
916.0298, 956.5159
916.5119, 961.3425
916.9940, 963.0369
917.4761, 955.4706
917.9583, 953.4647
918.4404, 967.2045
918.9225, 981.9391
919.4046, 985.1055
919.8867, 979.4356
920.3688, 975.2188
920.8510, 971.5536
921.3331, 973.0725
921.8152, 986.7530
922.2973, 998.4612
922.7794, 1000.062
923.2615, 997.2534
923.7437, 996.7723
924.2258, 998.8818
924.7079, 999.9446
925.1900, 999.3932
925.6721, 996.7627
926.1542, 992.6555
926.6364, 985.6545
927.1185, 969.5400
927.6006, 951.8128
928.0827, 946.9671
928.5648, 957.0660
929.0469, 966.1879
929.5291, 968.0828
930.0112, 962.7532
930.4933, 939.6417
930.9754, 916.4303
931.4575, 920.7708
931.9396, 944.8204
932.4218, 960.3855
932.9039, 957.3804
933.3860, 950.2250
933.8681, 951.8541
934.3502, 955.8841
934.8323, 955.2531
935.3145, 950.2934
935.7966, 937.9924
936.2787, 921.2909
936.7608, 914.6414
937.2429, 926.3260
937.7250, 941.0994
938.2072, 938.0873
938.6893, 925.2576
939.1714, 921.3855
939.6535, 924.5762
940.1356, 924.6803
940.6177, 920.0578
941.0999, 920.1083
941.5820, 932.5847
942.0641, 947.4890
942.5462, 942.6540
943.0283, 923.5068
943.5104, 922.8036
943.9926, 939.6914
944.4747, 941.2968
944.9568, 917.0297
945.4389, 893.9061
945.9210, 896.5634
946.4031, 917.5458
946.8853, 939.6741
947.3674, 962.8962
947.8495, 970.9353
948.3316, 961.2488
948.8137, 954.3315
949.2958, 958.3961
949.7780, 966.4756
950.2601, 970.6930
950.7422, 972.2401
951.2243, 979.0555
951.7064, 993.3833
952.1885, 996.7319
952.6707, 983.7306
953.1528, 973.8828
953.6349, 977.8472
954.1170, 985.8380
954.5991, 983.5012
955.0812, 971.7052
955.5634, 970.5526
956.0455, 985.5203
956.5276, 993.9207
957.0097, 990.5620
957.4918, 985.4927
957.9739, 983.7684
958.4561, 983.8996
958.9382, 983.5247
959.4203, 982.5916
959.9024, 981.5493
960.3845, 977.1946
960.8666, 979.5872
961.3488, 996.5730
961.8309, 1011.758
962.3130, 1012.167
962.7951, 1005.580
963.2772, 1008.544
963.7593, 1024.457
964.2415, 1031.655
964.7236, 1021.713
965.2057, 1015.305
965.6878, 1018.424
966.1699, 1023.626
966.6520, 1027.909
967.1342, 1030.400
967.6163, 1028.127
968.0984, 1018.569
968.5805, 1014.196
969.0626, 1020.589
969.5447, 1025.537
970.0269, 1020.282
970.5090, 1017.657
970.9911, 1031.865
971.4732, 1055.895
971.9553, 1070.573
972.4374, 1072.414
972.9196, 1071.135
973.4017, 1061.510
973.8838, 1057.361
974.3659, 1066.461
974.8480, 1080.648
975.3301, 1098.163
975.8123, 1114.295
976.2944, 1114.256
976.7765, 1088.225
977.2586, 1071.251
977.7407, 1078.356
978.2228, 1087.337
978.7050, 1089.933
979.1871, 1088.660
979.6692, 1083.389
980.1513, 1076.831
980.6334, 1077.300
981.1155, 1088.762
981.5977, 1100.440
982.0798, 1113.280
982.5619, 1120.705
983.0440, 1116.640
983.5261, 1107.451
984.0082, 1097.904
984.4904, 1089.738
984.9725, 1086.437
985.4546, 1090.372
985.9367, 1094.857
986.4188, 1099.914
986.9009, 1102.119
987.3831, 1097.533
987.8652, 1090.320
988.3473, 1083.298
988.8294, 1078.215
989.3115, 1079.617
989.7936, 1090.948
990.2758, 1102.655
990.7579, 1116.867
991.2400, 1123.544
991.7221, 1107.054
992.2042, 1085.370
992.6863, 1081.524
993.1685, 1094.514
993.6506, 1107.371
994.1327, 1114.974
994.6148, 1120.401
995.0969, 1123.519
995.5790, 1126.529
996.0612, 1132.561
996.5433, 1138.297
997.0254, 1137.935
997.5075, 1132.804
997.9896, 1131.705
998.4717, 1140.381
998.9539, 1145.044
999.4360, 1136.766
999.9181, 1124.995
1000.400, 1112.180
1000.882, 1102.523
1001.364, 1102.116
1001.847, 1109.769
1002.329, 1118.802
1002.811, 1128.922
1003.293, 1133.880
1003.775, 1127.395
1004.257, 1118.414
1004.739, 1110.243
1005.221, 1105.105
1005.703, 1107.542
1006.186, 1115.500
1006.668, 1119.534
1007.150, 1114.213
1007.632, 1112.463
1008.114, 1125.101
1008.596, 1137.788
1009.078, 1137.298
1009.560, 1134.155
1010.043, 1144.114
1010.525, 1164.290
1011.007, 1178.121
1011.489, 1179.892
1011.971, 1177.630
1012.453, 1170.396
1012.935, 1165.200
1013.417, 1170.270
1013.899, 1176.830
1014.382, 1173.129
1014.864, 1161.663
1015.346, 1154.705
1015.828, 1157.103
1016.310, 1157.680
1016.792, 1153.914
1017.274, 1145.114
1017.756, 1125.285
1018.239, 1104.667
1018.721, 1096.063
1019.203, 1095.724
1019.685, 1089.453
1020.167, 1072.632
1020.649, 1056.786
1021.131, 1041.196
1021.613, 1032.876
1022.095, 1044.687
1022.578, 1056.977
1023.060, 1047.852
1023.542, 1024.934
1024.024, 1010.327
1024.506, 1008.903
1024.988, 1010.433
1025.470, 1021.257
1025.952, 1022.852
1026.435, 998.5602
1026.917, 971.2888
1027.399, 961.5587
1027.881, 962.5377
1028.363, 956.9070
1028.845, 941.4408
1029.327, 928.4162
1029.809, 919.4660
1030.292, 914.0417
1030.774, 916.0266
1031.256, 917.4139
1031.738, 914.0105
1032.220, 905.7548
1032.702, 890.9736
1033.184, 868.6927
1033.666, 852.7956
1034.148, 842.5771
1034.630, 841.9948
1035.113, 867.4656
1035.595, 885.6063
1036.077, 867.5058
1036.559, 836.2145
1037.041, 829.0063
1037.523, 847.3170
1038.005, 853.9319
1038.487, 840.1918
1038.970, 828.1594
1039.452, 814.3888
1039.934, 808.8033
1040.416, 822.6253
1040.898, 841.0266
1041.380, 844.6873
1041.862, 835.3563
1042.344, 833.4110
1042.826, 849.7037
1043.309, 847.8866
1043.791, 809.9875
1044.273, 786.2433
1044.755, 804.4565
1045.237, 830.7672
1045.719, 829.3940
1046.201, 807.1519
1046.683, 796.1559
1047.166, 800.6891
1047.648, 800.7344
1048.130, 792.2437
1048.612, 792.4007
1049.094, 811.1611
1049.576, 827.1837
1050.058, 820.2253
1050.540, 800.1088
1051.022, 794.2302
1051.505, 804.4511
1051.987, 810.2678
1052.469, 810.9963
1052.951, 811.7648
1053.433, 814.2343
1053.915, 813.5153
1054.397, 805.0769
1054.879, 795.6056
1055.361, 798.8251
1055.844, 813.2016
1056.326, 820.4546
1056.808, 820.6475
1057.290, 817.1600
1057.772, 810.4797
1058.254, 809.5477
1058.736, 819.6158
1059.218, 830.8998
1059.701, 829.6345
1060.183, 819.8628
1060.665, 814.4984
1061.147, 813.1284
1061.629, 813.8972
1062.111, 816.4763
1062.593, 821.5197
1063.075, 829.0266
1063.557, 832.8652
1064.040, 825.1456
1064.522, 814.0948
1065.004, 816.4971
1065.486, 826.8232
1065.968, 832.2504
1066.450, 832.6799
1066.932, 831.2430
1067.414, 829.1763
1067.896, 828.0012
1068.379, 829.2050
1068.861, 830.0186
1069.343, 826.4785
1069.825, 821.2487
1070.307, 814.9515
1070.789, 811.1567
1071.271, 818.1508
1071.753, 834.8184
1072.236, 852.6910
1072.718, 869.2568
1073.200, 877.4055
1073.682, 866.3238
1074.164, 850.8688
1074.646, 839.7070
1075.128, 834.1573
1075.610, 839.3221
1076.093, 850.2663
1076.575, 854.2852
1077.057, 847.8731
1077.539, 840.1521
1078.021, 834.8174
1078.503, 829.3868
1078.985, 819.3699
1079.467, 812.1520
1079.949, 815.0208
1080.432, 823.8549
1080.914, 831.0151
1081.396, 835.8705
1081.878, 844.6275
1082.360, 867.9255
1082.842, 880.6323
1083.324, 868.7870
1083.806, 857.7554
1084.288, 862.4669
1084.771, 871.0535
1085.253, 871.0482
1085.735, 863.5131
1086.217, 853.2000
1086.699, 836.3365
1087.181, 826.7371
1087.663, 824.4337
1088.145, 830.1234
1088.628, 848.2186
1089.110, 866.6378
1089.592, 876.9384
1090.074, 881.1334
1090.556, 883.1342
1091.038, 882.8208
1091.520, 884.4531
1092.002, 889.0904
1092.484, 887.2722
1092.967, 875.8903
1093.449, 869.4519
1093.931, 876.1475
1094.413, 886.4810
1094.895, 888.4348
1095.377, 884.0298
1095.859, 881.4952
1096.341, 879.9037
1096.823, 868.0801
1097.306, 847.4245
1097.788, 841.1542
1098.270, 855.8021
1098.752, 870.7954
1099.234, 868.9016
1099.716, 862.3078
1100.198, 873.2181
1100.680, 891.1480
1101.163, 892.6541
1101.645, 883.3191
1102.127, 878.8096
1102.609, 881.3182
1103.091, 885.8038
1103.573, 890.0865
1104.055, 892.4937
1104.537, 887.3330
1105.020, 884.2479
1105.502, 899.0169
1105.984, 915.7668
1106.466, 912.4562
1106.948, 895.6970
1107.430, 881.9125
1107.912, 875.1790
1108.394, 876.1004
1108.876, 894.5440
1109.359, 906.0850
1109.841, 894.5747
1110.323, 881.3256
1110.805, 880.1746
1111.287, 884.1032
1111.769, 884.1827
1112.251, 880.6567
1112.733, 877.8329
1113.215, 874.9467
1113.698, 875.6839
1114.180, 882.1683
1114.662, 889.0005
1115.144, 895.2208
1115.626, 901.6084
1116.108, 911.6344
1116.590, 918.8714
1117.072, 908.1480
1117.555, 879.2855
1118.037, 874.1700
1118.519, 898.4731
1119.001, 914.9851
1119.483, 919.2557
1119.965, 914.8456
1120.447, 901.7966
1120.929, 890.6746
1121.411, 892.9965
1121.894, 903.7774
1122.376, 910.6580
1122.858, 914.3006
1123.340, 918.0999
1123.822, 922.1355
1124.304, 925.6920
1124.786, 928.8077
1125.268, 934.7081
1125.750, 945.7542
1126.233, 951.2927
1126.715, 929.8175
1127.197, 903.8009
1127.679, 909.5416
1128.161, 929.1846
1128.643, 933.6951
1129.125, 925.8537
1129.607, 923.0202
1130.090, 928.9910
1130.572, 930.9948
1131.054, 917.5192
1131.536, 907.6813
1132.018, 915.3090
1132.500, 925.6133
1132.982, 927.1295
1133.464, 926.5027
1133.947, 933.0681
1134.429, 945.4296
1134.911, 955.3879
1135.393, 961.5441
1135.875, 966.6907
1136.357, 974.0899
1136.839, 975.5317
1137.321, 965.3423
1137.803, 954.9296
1138.286, 949.1652
1138.768, 949.0394
1139.250, 958.0035
1139.732, 974.1852
1140.214, 978.8583
1140.696, 970.0749
1141.178, 965.4575
1141.660, 966.6622
1142.142, 965.6537
1142.625, 959.7302
1143.107, 952.9176
1143.589, 947.7095
1144.071, 946.7762
1144.553, 958.1938
1145.035, 976.4974
1145.517, 984.4474
1145.999, 984.8412
1146.482, 986.9669
1146.964, 991.2934
1147.446, 993.3612
1147.928, 991.5366
1148.410, 987.8963
1148.892, 982.6119
1149.374, 978.4691
1149.856, 975.7925
1150.339, 977.5324
1150.821, 993.0997
1151.303, 1011.168
1151.785, 1013.225
1152.267, 1001.010
1152.749, 990.8770
1153.231, 985.0610
1153.713, 988.4105
1154.195, 1016.772
1154.677, 1033.949
1155.160, 1012.901
1155.642, 995.7204
1156.124, 1019.893
1156.606, 1053.520
1157.088, 1044.604
1157.570, 998.8420
1158.052, 986.2908
1158.534, 1016.693
1159.017, 1035.544
1159.499, 1038.844
1159.981, 1037.379
1160.463, 1033.515
1160.945, 1033.236
1161.427, 1041.759
1161.909, 1051.789
1162.391, 1049.896
1162.874, 1039.879
1163.356, 1030.573
1163.838, 1024.905
1164.320, 1037.707
1164.802, 1064.335
1165.284, 1082.366
1165.766, 1084.615
1166.248, 1076.830
1166.730, 1056.572
1167.213, 1043.812
1167.695, 1064.688
1168.177, 1090.333
1168.659, 1095.042
1169.141, 1088.927
1169.623, 1083.311
1170.105, 1080.275
1170.587, 1081.907
1171.069, 1089.851
1171.552, 1091.452
1172.034, 1070.302
1172.516, 1065.068
1172.998, 1096.818
1173.480, 1123.481
1173.962, 1126.588
1174.444, 1117.322
1174.926, 1104.590
1175.409, 1091.060
1175.891, 1086.656
1176.373, 1091.971
1176.855, 1099.536
1177.337, 1109.566
1177.819, 1111.919
1178.301, 1104.891
1178.783, 1096.306
1179.266, 1089.936
1179.748, 1088.888
1180.230, 1097.189
1180.712, 1111.439
1181.194, 1131.941
1181.676, 1150.681
1182.158, 1148.901
1182.640, 1135.946
1183.122, 1133.579
1183.604, 1142.405
1184.087, 1146.889
1184.569, 1140.296
1185.051, 1137.586
1185.533, 1151.044
1186.015, 1162.368
1186.497, 1160.468
1186.979, 1157.406
1187.461, 1162.034
1187.944, 1170.451
1188.426, 1179.596
1188.908, 1187.660
1189.390, 1182.008
1189.872, 1154.062
1190.354, 1143.859
1190.836, 1155.152
1191.318, 1167.721
1191.801, 1177.220
1192.283, 1188.717
1192.765, 1206.205
1193.247, 1216.904
1193.729, 1200.388
1194.211, 1172.176
1194.693, 1173.319
1195.175, 1192.372
1195.657, 1199.059
1196.140, 1195.766
1196.622, 1195.777
1197.104, 1201.100
1197.586, 1206.471
1198.068, 1209.869
1198.550, 1209.872
1199.032, 1200.990
1199.514, 1194.424
1199.996, 1196.620
1200.479, 1203.551
1200.961, 1219.372
1201.443, 1233.341
1201.925, 1225.153
1202.407, 1198.590
1202.889, 1188.340
1203.371, 1199.780
1203.853, 1211.775
1204.336, 1227.330
1204.818, 1231.263
1205.300, 1216.226
1205.782, 1211.319
1206.264, 1234.255
1206.746, 1260.312
1207.228, 1259.187
1207.710, 1241.381
1208.193, 1230.377
1208.675, 1225.335
1209.157, 1225.907
1209.639, 1229.914
1210.121, 1231.930
1210.603, 1231.255
1211.085, 1228.023
1211.567, 1222.067
1212.049, 1224.826
1212.531, 1257.316
1213.014, 1281.398
1213.496, 1267.495
1213.978, 1248.568
1214.460, 1244.778
1214.942, 1251.217
1215.424, 1265.737
1215.906, 1283.560
1216.388, 1288.333
1216.871, 1277.328
1217.353, 1270.150
1217.835, 1268.001
1218.317, 1263.129
1218.799, 1252.946
1219.281, 1252.427
1219.763, 1268.578
1220.245, 1285.394
1220.728, 1287.625
1221.210, 1284.691
1221.692, 1297.008
1222.174, 1313.887
1222.656, 1311.393
1223.138, 1296.963
1223.620, 1283.208
1224.102, 1273.680
1224.584, 1272.870
1225.067, 1280.975
1225.549, 1286.788
1226.031, 1282.708
1226.513, 1281.190
1226.995, 1289.757
1227.477, 1297.385
1227.959, 1295.752
1228.441, 1295.395
1228.923, 1308.628
1229.406, 1323.926
1229.888, 1319.238
1230.370, 1297.379
1230.852, 1290.082
1231.334, 1297.828
1231.816, 1310.763
1232.298, 1327.626
1232.780, 1332.912
1233.263, 1323.975
1233.745, 1320.720
1234.227, 1334.880
1234.709, 1345.929
1235.191, 1323.667
1235.673, 1297.601
1236.155, 1301.123
1236.637, 1317.915
1237.120, 1336.662
1237.602, 1351.385
1238.084, 1351.071
1238.566, 1339.984
1239.048, 1341.422
1239.530, 1367.377
##END=



