##NAMES=Kaliophilite
##RRUFFID=R061113
##IDEAL CHEMISTRY=KAlSiO_4_
##LOCALITY=Bolsena, Lazio, Italy
##OWNER=RRUFF
##SOURCE=Michael Scott
##DESCRIPTION=Colorless acicular silky crystals associated with colorless prismatic apatite, orange akermanite and black augite
##STATUS=The identification of this mineral has been confirmed only by single crystal X-ray diffraction.
##URL=rruff.info/R061113
173.7677, 5481.794
174.2498, 5502.357
174.7319, 5515.101
175.2140, 5499.202
175.6961, 5470.052
176.1783, 5452.042
176.6604, 5452.854
177.1425, 5460.535
177.6246, 5462.084
178.1067, 5457.941
178.5888, 5451.001
179.0710, 5440.320
179.5531, 5428.453
180.0352, 5421.597
180.5173, 5422.650
180.9994, 5428.024
181.4815, 5429.719
181.9637, 5428.035
182.4458, 5431.873
182.9279, 5456.485
183.4100, 5495.103
183.8921, 5521.860
184.3742, 5522.854
184.8564, 5510.157
185.3385, 5512.438
185.8206, 5530.509
186.3027, 5553.904
186.7848, 5574.021
187.2669, 5590.869
187.7491, 5605.184
188.2312, 5615.876
188.7133, 5624.132
189.1954, 5633.281
189.6775, 5642.549
190.1596, 5656.035
190.6418, 5685.918
191.1239, 5731.347
191.6060, 5764.161
192.0881, 5762.196
192.5702, 5731.441
193.0523, 5729.760
193.5345, 5764.587
194.0166, 5809.118
194.4987, 5821.370
194.9808, 5799.862
195.4629, 5768.241
195.9451, 5730.212
196.4272, 5685.747
196.9093, 5664.541
197.3914, 5672.748
197.8735, 5696.006
198.3556, 5707.403
198.8378, 5705.372
199.3199, 5701.324
199.8020, 5700.171
200.2841, 5701.836
200.7662, 5708.766
201.2483, 5723.642
201.7305, 5741.543
202.2126, 5749.273
202.6947, 5744.667
203.1768, 5737.961
203.6589, 5733.978
204.1410, 5732.325
204.6232, 5736.441
205.1053, 5746.838
205.5874, 5763.111
206.0695, 5785.806
206.5516, 5817.962
207.0337, 5848.558
207.5159, 5870.035
207.9980, 5880.833
208.4801, 5888.071
208.9622, 5892.307
209.4443, 5893.629
209.9264, 5892.520
210.4086, 5889.119
210.8907, 5882.966
211.3728, 5872.322
211.8549, 5854.293
212.3370, 5842.082
212.8191, 5841.021
213.3013, 5848.673
213.7834, 5841.801
214.2655, 5812.076
214.7476, 5781.154
215.2297, 5770.823
215.7118, 5791.638
216.1940, 5802.793
216.6761, 5792.956
217.1582, 5763.533
217.6403, 5747.392
218.1224, 5748.334
218.6045, 5757.681
219.0867, 5768.154
219.5688, 5780.945
220.0509, 5792.258
220.5330, 5803.612
221.0151, 5815.479
221.4972, 5810.554
221.9794, 5779.070
222.4615, 5741.666
222.9436, 5720.111
223.4257, 5719.120
223.9078, 5724.555
224.3899, 5734.260
224.8721, 5748.681
225.3542, 5763.985
225.8363, 5784.107
226.3184, 5801.534
226.8005, 5807.124
227.2826, 5797.027
227.7648, 5781.650
228.2469, 5758.148
228.7290, 5722.110
229.2111, 5714.896
229.6932, 5753.372
230.1754, 5807.071
230.6575, 5834.661
231.1396, 5818.800
231.6217, 5807.239
232.1038, 5815.011
232.5859, 5847.135
233.0681, 5871.221
233.5502, 5883.271
234.0323, 5890.096
234.5144, 5902.582
234.9965, 5926.828
235.4786, 5946.303
235.9608, 5956.302
236.4429, 5956.170
236.9250, 5948.572
237.4071, 5928.755
237.8892, 5904.468
238.3713, 5888.134
238.8535, 5882.942
239.3356, 5880.437
239.8177, 5878.635
240.2998, 5878.338
240.7819, 5875.173
241.2640, 5866.266
241.7462, 5856.110
242.2283, 5852.347
242.7104, 5856.296
243.1925, 5864.479
243.6746, 5875.874
244.1567, 5890.559
244.6389, 5908.985
245.1210, 5933.883
245.6031, 5960.848
246.0852, 5982.355
246.5673, 5998.986
247.0494, 6009.104
247.5316, 6011.030
248.0137, 6001.917
248.4958, 5994.110
248.9779, 5987.678
249.4600, 5982.566
249.9421, 5977.807
250.4243, 5969.257
250.9064, 5968.582
251.3885, 5985.051
251.8706, 6032.231
252.3527, 6049.175
252.8348, 6023.878
253.3170, 5975.921
253.7991, 5942.673
254.2812, 5930.991
254.7633, 5921.577
255.2454, 5908.052
255.7275, 5890.754
256.2097, 5868.055
256.6918, 5838.043
257.1739, 5804.212
257.6560, 5772.633
258.1381, 5743.958
258.6202, 5715.967
259.1024, 5685.138
259.5845, 5647.318
260.0666, 5626.643
260.5487, 5630.393
261.0308, 5645.816
261.5129, 5648.065
261.9951, 5630.462
262.4772, 5615.588
262.9593, 5612.850
263.4414, 5624.536
263.9235, 5638.294
264.4056, 5656.820
264.8878, 5675.044
265.3699, 5680.087
265.8520, 5662.532
266.3341, 5659.023
266.8162, 5691.484
267.2983, 5769.240
267.7805, 5819.439
268.2626, 5834.059
268.7447, 5829.456
269.2268, 5832.597
269.7089, 5844.679
270.1910, 5860.084
270.6732, 5875.406
271.1553, 5889.563
271.6374, 5914.915
272.1195, 5953.768
272.6016, 6000.515
273.0837, 6045.520
273.5659, 6088.896
274.0480, 6130.983
274.5301, 6172.689
275.0122, 6213.901
275.4943, 6250.817
275.9764, 6280.743
276.4586, 6311.442
276.9407, 6357.055
277.4228, 6418.789
277.9049, 6480.009
278.3870, 6536.924
278.8691, 6589.111
279.3513, 6621.986
279.8334, 6629.195
280.3155, 6633.434
280.7976, 6672.259
281.2797, 6747.230
281.7619, 6812.258
282.2440, 6843.049
282.7261, 6845.631
283.2082, 6867.396
283.6903, 6911.040
284.1725, 6963.952
284.6546, 7011.002
285.1367, 7052.098
285.6188, 7095.610
286.1009, 7147.281
286.5830, 7203.983
287.0652, 7251.082
287.5473, 7287.040
288.0294, 7320.000
288.5115, 7362.874
288.9936, 7413.510
289.4757, 7452.841
289.9579, 7475.040
290.4400, 7481.511
290.9221, 7474.463
291.4042, 7453.372
291.8863, 7425.295
292.3684, 7398.870
292.8506, 7372.080
293.3327, 7335.512
293.8148, 7280.990
294.2969, 7217.651
294.7790, 7162.117
295.2611, 7114.185
295.7433, 7069.095
296.2254, 7023.878
296.7075, 6977.516
297.1896, 6928.349
297.6717, 6870.465
298.1538, 6812.934
298.6360, 6773.449
299.1181, 6750.326
299.6002, 6727.924
300.0823, 6692.950
300.5644, 6650.031
301.0465, 6607.065
301.5287, 6563.896
302.0108, 6524.340
302.4929, 6495.764
302.9750, 6476.376
303.4571, 6457.540
303.9392, 6429.662
304.4214, 6399.756
304.9035, 6377.656
305.3856, 6370.379
305.8677, 6364.760
306.3498, 6347.071
306.8319, 6320.828
307.3141, 6298.048
307.7962, 6288.111
308.2783, 6284.313
308.7604, 6278.811
309.2425, 6266.584
309.7246, 6260.416
310.2068, 6269.428
310.6889, 6291.047
311.1710, 6318.532
311.6531, 6353.607
312.1352, 6390.307
312.6173, 6422.927
313.0995, 6447.680
313.5816, 6475.726
314.0637, 6512.984
314.5458, 6557.289
315.0279, 6604.794
315.5100, 6660.671
315.9922, 6714.355
316.4743, 6756.892
316.9564, 6782.286
317.4385, 6817.204
317.9206, 6884.309
318.4027, 6963.062
318.8849, 7024.756
319.3670, 7042.026
319.8491, 7058.229
320.3312, 7093.108
320.8133, 7153.100
321.2954, 7201.783
321.7776, 7227.857
322.2597, 7241.205
322.7418, 7252.357
323.2239, 7273.594
323.7060, 7282.022
324.1881, 7267.121
324.6703, 7226.332
325.1524, 7191.844
325.6345, 7168.146
326.1166, 7150.751
326.5987, 7135.935
327.0808, 7130.462
327.5630, 7119.454
328.0451, 7096.045
328.5272, 7061.365
329.0093, 7040.378
329.4914, 7042.100
329.9735, 7049.750
330.4557, 7051.997
330.9378, 7040.870
331.4199, 7038.246
331.9020, 7046.414
332.3841, 7064.463
332.8662, 7087.364
333.3484, 7111.517
333.8305, 7145.650
334.3126, 7196.459
334.7947, 7268.313
335.2768, 7342.639
335.7589, 7421.687
336.2411, 7500.808
336.7232, 7567.985
337.2053, 7617.552
337.6874, 7670.354
338.1695, 7743.797
338.6516, 7842.763
339.1338, 7909.972
339.6159, 7934.205
340.0980, 7941.819
340.5801, 7979.412
341.0622, 8050.938
341.5443, 8120.347
342.0265, 8169.685
342.5086, 8201.831
342.9907, 8249.886
343.4728, 8315.678
343.9549, 8388.648
344.4370, 8452.671
344.9192, 8509.053
345.4013, 8573.877
345.8834, 8650.322
346.3655, 8739.073
346.8476, 8848.466
347.3297, 8979.155
347.8119, 9100.036
348.2940, 9165.317
348.7761, 9194.319
349.2582, 9244.180
349.7403, 9340.286
350.2224, 9456.605
350.7046, 9557.432
351.1867, 9645.151
351.6688, 9731.165
352.1509, 9827.328
352.6331, 9926.367
353.1152, 10014.54
353.5973, 10079.82
354.0794, 10150.47
354.5615, 10255.07
355.0436, 10386.51
355.5258, 10523.16
356.0079, 10658.06
356.4900, 10790.25
356.9721, 10920.37
357.4542, 11050.68
357.9363, 11171.57
358.4185, 11278.95
358.9006, 11373.12
359.3827, 11454.60
359.8648, 11538.85
360.3469, 11598.38
360.8290, 11616.74
361.3112, 11590.03
361.7933, 11540.26
362.2754, 11467.30
362.7575, 11377.48
363.2396, 11277.25
363.7217, 11151.02
364.2039, 11032.88
364.6860, 10938.92
365.1681, 10869.22
365.6502, 10785.15
366.1323, 10660.21
366.6144, 10532.24
367.0966, 10426.96
367.5787, 10357.51
368.0608, 10297.12
368.5429, 10247.08
369.0250, 10205.57
369.5071, 10164.16
369.9893, 10118.15
370.4714, 10077.81
370.9535, 10050.09
371.4356, 10046.69
371.9177, 10029.88
372.3998, 9997.522
372.8820, 9952.151
373.3641, 9899.607
373.8462, 9839.998
374.3283, 9773.169
374.8104, 9695.436
375.2925, 9603.793
375.7747, 9529.852
376.2568, 9475.484
376.7389, 9433.831
377.2210, 9396.163
377.7031, 9362.183
378.1852, 9336.867
378.6674, 9322.842
379.1495, 9318.559
379.6316, 9317.813
380.1137, 9320.830
380.5958, 9325.387
381.0779, 9337.212
381.5601, 9351.599
382.0422, 9343.471
382.5243, 9301.624
383.0064, 9241.727
383.4885, 9188.465
383.9706, 9140.452
384.4528, 9091.235
384.9349, 9038.149
385.4170, 8980.126
385.8991, 8912.583
386.3812, 8831.669
386.8633, 8749.430
387.3455, 8667.971
387.8276, 8593.354
388.3097, 8538.315
388.7918, 8525.773
389.2739, 8525.638
389.7560, 8512.031
390.2382, 8481.545
390.7203, 8454.896
391.2024, 8444.227
391.6845, 8443.241
392.1666, 8444.608
392.6487, 8439.563
393.1309, 8442.522
393.6130, 8462.934
394.0951, 8499.332
394.5772, 8533.807
395.0593, 8559.153
395.5414, 8582.866
396.0236, 8609.417
396.5057, 8653.057
396.9878, 8683.477
397.4699, 8691.124
397.9520, 8682.443
398.4341, 8677.318
398.9163, 8667.839
399.3984, 8670.091
399.8805, 8689.236
400.3626, 8725.003
400.8447, 8778.570
401.3268, 8850.942
401.8090, 8940.362
402.2911, 9049.281
402.7732, 9185.241
403.2553, 9318.522
403.7374, 9443.051
404.2195, 9558.644
404.7017, 9667.232
405.1838, 9776.938
405.6659, 9858.164
406.1480, 9873.399
406.6301, 9821.806
407.1122, 9773.740
407.5944, 9744.854
408.0765, 9723.413
408.5586, 9682.943
409.0407, 9623.497
409.5228, 9552.713
410.0049, 9468.136
410.4871, 9376.678
410.9692, 9299.007
411.4513, 9239.716
411.9334, 9183.279
412.4155, 9113.669
412.8976, 9031.421
413.3798, 8941.408
413.8619, 8835.661
414.3440, 8727.584
414.8261, 8630.783
415.3082, 8545.154
415.7903, 8462.167
416.2725, 8372.046
416.7546, 8282.298
417.2367, 8199.334
417.7188, 8124.274
418.2009, 8059.754
418.6830, 8011.475
419.1652, 7976.165
419.6473, 7943.722
420.1294, 7902.123
420.6115, 7868.479
421.0936, 7852.542
421.5757, 7862.244
422.0579, 7876.197
422.5400, 7885.678
423.0221, 7898.950
423.5042, 7930.146
423.9864, 7995.996
424.4685, 8060.917
424.9506, 8115.989
425.4327, 8159.081
425.9148, 8211.107
426.3969, 8276.392
426.8791, 8345.637
427.3612, 8414.394
427.8433, 8491.315
428.3254, 8538.958
428.8075, 8546.272
429.2896, 8522.581
429.7718, 8500.599
430.2539, 8482.604
430.7360, 8454.588
431.2181, 8410.843
431.7002, 8351.086
432.1823, 8266.509
432.6645, 8151.783
433.1466, 8028.090
433.6287, 7924.498
434.1108, 7838.639
434.5929, 7758.467
435.0750, 7678.620
435.5572, 7602.418
436.0393, 7541.903
436.5214, 7496.002
437.0035, 7441.667
437.4856, 7349.671
437.9677, 7241.905
438.4499, 7151.087
438.9320, 7095.545
439.4141, 7041.767
439.8962, 6954.742
440.3783, 6850.167
440.8604, 6765.936
441.3426, 6731.420
441.8247, 6713.606
442.3068, 6697.291
442.7889, 6682.545
443.2710, 6660.694
443.7531, 6620.753
444.2353, 6575.974
444.7174, 6540.316
445.1995, 6526.830
445.6816, 6510.972
446.1637, 6484.525
446.6458, 6449.536
447.1280, 6426.050
447.6101, 6417.291
448.0922, 6416.498
448.5743, 6422.486
449.0564, 6443.695
449.5385, 6446.957
450.0207, 6422.347
450.5028, 6387.738
450.9849, 6383.101
451.4670, 6417.048
451.9491, 6436.603
452.4312, 6409.688
452.9134, 6346.106
453.3955, 6324.984
453.8776, 6349.723
454.3597, 6392.320
454.8418, 6432.313
455.3239, 6468.701
455.8061, 6494.141
456.2882, 6502.649
456.7703, 6506.821
457.2524, 6530.299
457.7345, 6567.226
458.2166, 6594.123
458.6988, 6587.754
459.1809, 6568.411
459.6630, 6558.419
460.1451, 6561.101
460.6272, 6564.715
461.1093, 6568.398
461.5915, 6566.706
462.0736, 6552.671
462.5557, 6521.604
463.0378, 6480.192
463.5199, 6421.673
464.0020, 6350.407
464.4842, 6295.622
464.9663, 6283.231
465.4484, 6274.785
465.9305, 6249.556
466.4126, 6195.258
466.8947, 6143.776
467.3769, 6095.875
467.8590, 6050.644
468.3411, 6005.156
468.8232, 5955.724
469.3053, 5914.250
469.7874, 5886.269
470.2696, 5870.747
470.7517, 5847.516
471.2338, 5814.574
471.7159, 5780.316
472.1980, 5752.894
472.6801, 5732.025
473.1623, 5709.443
473.6444, 5682.483
474.1265, 5655.884
474.6086, 5636.100
475.0907, 5623.320
475.5728, 5618.766
476.0550, 5629.148
476.5371, 5646.104
477.0192, 5656.676
477.5013, 5660.485
477.9834, 5659.534
478.4655, 5650.636
478.9477, 5639.353
479.4298, 5633.473
479.9119, 5641.378
480.3940, 5647.434
480.8761, 5635.839
481.3582, 5614.872
481.8404, 5608.583
482.3225, 5645.038
482.8046, 5681.276
483.2867, 5695.001
483.7688, 5675.095
484.2509, 5664.771
484.7331, 5670.369
485.2152, 5685.837
485.6973, 5706.617
486.1794, 5737.853
486.6615, 5766.140
487.1436, 5792.436
487.6258, 5814.654
488.1079, 5821.442
488.5900, 5809.216
489.0721, 5791.228
489.5542, 5777.514
490.0363, 5768.218
490.5185, 5738.923
491.0006, 5684.405
491.4827, 5626.051
491.9648, 5598.903
492.4469, 5596.217
492.9290, 5580.408
493.4112, 5530.067
493.8933, 5467.583
494.3754, 5429.750
494.8575, 5413.274
495.3397, 5399.693
495.8218, 5376.320
496.3039, 5349.376
496.7860, 5325.792
497.2681, 5306.539
497.7502, 5289.429
498.2324, 5279.513
498.7145, 5269.186
499.1966, 5247.900
499.6787, 5187.883
500.1608, 5141.491
500.6429, 5134.455
501.1251, 5163.700
501.6072, 5176.010
502.0893, 5156.630
502.5714, 5129.500
503.0535, 5104.634
503.5356, 5080.026
504.0178, 5063.888
504.4999, 5062.746
504.9820, 5064.228
505.4641, 5047.357
505.9462, 5008.486
506.4283, 4970.064
506.9105, 4936.189
507.3926, 4908.440
507.8747, 4895.331
508.3568, 4897.397
508.8389, 4903.948
509.3210, 4908.774
509.8032, 4911.950
510.2853, 4914.539
510.7674, 4917.410
511.2495, 4916.506
511.7316, 4901.374
512.2137, 4879.657
512.6959, 4867.085
513.1780, 4888.208
513.6601, 4905.543
514.1422, 4883.429
514.6243, 4829.203
515.1064, 4793.976
515.5886, 4814.927
516.0707, 4849.053
516.5528, 4870.857
517.0349, 4875.566
517.5170, 4871.578
517.9991, 4851.965
518.4813, 4827.057
518.9634, 4809.600
519.4455, 4800.355
519.9276, 4797.914
520.4097, 4806.328
520.8918, 4822.304
521.3740, 4823.672
521.8561, 4807.545
522.3382, 4786.362
522.8203, 4763.322
523.3024, 4739.512
523.7845, 4734.086
524.2667, 4751.816
524.7488, 4773.778
525.2309, 4774.666
525.7130, 4759.965
526.1951, 4748.848
526.6772, 4749.780
527.1594, 4755.695
527.6415, 4761.245
528.1236, 4765.510
528.6057, 4764.441
529.0878, 4748.240
529.5699, 4730.715
530.0521, 4723.565
530.5342, 4730.635
531.0163, 4737.006
531.4984, 4736.121
531.9805, 4732.931
532.4626, 4732.707
532.9448, 4742.084
533.4269, 4747.115
533.9090, 4742.167
534.3911, 4731.293
534.8732, 4731.300
535.3553, 4747.837
535.8375, 4764.798
536.3196, 4775.466
536.8017, 4779.824
537.2838, 4780.733
537.7659, 4777.527
538.2480, 4773.095
538.7302, 4771.889
539.2123, 4772.936
539.6944, 4768.750
540.1765, 4755.482
540.6586, 4740.385
541.1407, 4731.294
541.6229, 4728.393
542.1050, 4732.055
542.5871, 4748.081
543.0692, 4767.099
543.5513, 4780.627
544.0334, 4788.122
544.5156, 4794.140
544.9977, 4800.844
545.4798, 4806.925
545.9619, 4811.696
546.4440, 4821.105
546.9261, 4820.153
547.4083, 4796.819
547.8904, 4763.702
548.3725, 4743.450
548.8546, 4737.905
549.3367, 4742.732
549.8188, 4762.918
550.3010, 4795.651
550.7831, 4804.615
551.2652, 4783.567
551.7473, 4759.513
552.2294, 4754.268
552.7115, 4765.446
553.1937, 4768.411
553.6758, 4759.878
554.1579, 4748.673
554.6400, 4745.530
555.1221, 4748.569
555.6042, 4752.512
556.0864, 4756.203
556.5685, 4759.278
557.0506, 4762.131
557.5327, 4764.270
558.0148, 4763.771
558.4969, 4763.980
558.9791, 4757.986
559.4612, 4735.752
559.9433, 4689.512
560.4254, 4663.061
560.9075, 4685.894
561.3896, 4719.911
561.8718, 4731.119
562.3539, 4701.161
562.8360, 4679.387
563.3181, 4670.301
563.8002, 4671.294
564.2823, 4678.717
564.7645, 4695.238
565.2466, 4705.367
565.7287, 4697.279
566.2108, 4677.296
566.6929, 4682.209
567.1750, 4713.169
567.6572, 4742.081
568.1393, 4740.031
568.6214, 4719.576
569.1035, 4704.858
569.5856, 4699.333
570.0677, 4700.634
570.5499, 4708.603
571.0320, 4721.697
571.5141, 4737.492
571.9962, 4761.480
572.4783, 4781.653
572.9604, 4792.789
573.4426, 4795.651
573.9247, 4794.746
574.4068, 4790.017
574.8889, 4782.083
575.3710, 4768.639
575.8531, 4746.145
576.3353, 4738.334
576.8174, 4750.270
577.2995, 4769.502
577.7816, 4785.847
578.2637, 4799.359
578.7458, 4808.085
579.2280, 4811.156
579.7101, 4810.399
580.1922, 4806.417
580.6743, 4800.385
581.1564, 4798.950
581.6385, 4808.149
582.1207, 4822.099
582.6028, 4831.616
583.0849, 4837.639
583.5670, 4848.123
584.0491, 4871.637
584.5313, 4898.991
585.0134, 4923.939
585.4955, 4946.422
585.9776, 4963.353
586.4597, 4976.598
586.9418, 4982.513
587.4240, 4975.941
587.9061, 4940.464
588.3882, 4918.906
588.8703, 4922.584
589.3524, 4941.273
589.8345, 4942.111
590.3167, 4918.972
590.7988, 4901.939
591.2809, 4910.390
591.7630, 4936.750
592.2451, 4936.536
592.7272, 4908.620
593.2094, 4881.680
593.6915, 4881.638
594.1736, 4899.127
594.6557, 4919.948
595.1378, 4944.739
595.6199, 4958.427
596.1021, 4936.917
596.5842, 4900.392
597.0663, 4877.547
597.5484, 4893.226
598.0305, 4908.295
598.5126, 4904.333
598.9948, 4887.865
599.4769, 4888.210
599.9590, 4927.523
600.4412, 4958.987
600.9233, 4964.484
601.4054, 4941.919
601.8875, 4928.252
602.3696, 4926.810
602.8517, 4926.330
603.3339, 4915.293
603.8160, 4894.791
604.2981, 4880.719
604.7802, 4875.565
605.2623, 4875.022
605.7444, 4874.948
606.2266, 4875.195
606.7087, 4875.561
607.1908, 4879.137
607.6729, 4879.528
608.1550, 4868.881
608.6371, 4850.373
609.1193, 4833.964
609.6014, 4817.858
610.0835, 4809.927
610.5656, 4820.057
611.0477, 4853.328
611.5298, 4866.747
612.0120, 4839.958
612.4941, 4811.941
612.9762, 4811.051
613.4583, 4847.818
613.9404, 4874.161
614.4225, 4888.387
614.9047, 4891.112
615.3868, 4877.648
615.8689, 4849.602
616.3510, 4830.559
616.8331, 4831.246
617.3152, 4839.399
617.7974, 4833.363
618.2795, 4817.460
618.7616, 4808.121
619.2437, 4824.664
619.7258, 4843.582
620.2079, 4844.633
620.6901, 4826.938
621.1722, 4812.777
621.6543, 4809.454
622.1364, 4812.473
622.6185, 4820.448
623.1006, 4841.176
623.5828, 4848.216
624.0649, 4832.589
624.5470, 4811.512
625.0291, 4807.484
625.5112, 4824.592
625.9933, 4836.741
626.4755, 4838.554
626.9576, 4833.696
627.4397, 4828.767
627.9218, 4823.729
628.4039, 4818.312
628.8860, 4810.853
629.3682, 4803.717
629.8503, 4800.039
630.3324, 4799.679
630.8145, 4801.717
631.2966, 4805.968
631.7787, 4812.156
632.2609, 4821.979
632.7430, 4838.696
633.2251, 4846.845
633.7072, 4836.915
634.1893, 4821.037
634.6714, 4808.123
635.1536, 4794.290
635.6357, 4793.919
636.1178, 4815.055
636.5999, 4842.747
637.0820, 4845.857
637.5641, 4823.160
638.0463, 4805.819
638.5284, 4807.091
639.0105, 4817.033
639.4926, 4814.813
639.9747, 4802.317
640.4568, 4790.604
640.9390, 4784.008
641.4211, 4782.717
641.9032, 4789.222
642.3853, 4803.622
642.8674, 4815.508
643.3495, 4824.587
643.8317, 4827.067
644.3138, 4818.854
644.7959, 4785.447
645.2780, 4769.442
645.7601, 4780.409
646.2422, 4800.374
646.7244, 4807.979
647.2065, 4800.795
647.6886, 4792.565
648.1707, 4783.628
648.6528, 4777.792
649.1349, 4787.859
649.6171, 4810.877
650.0992, 4826.334
650.5813, 4816.167
651.0634, 4798.490
651.5455, 4796.148
652.0276, 4806.859
652.5098, 4818.493
652.9919, 4827.346
653.4740, 4832.962
653.9561, 4833.354
654.4382, 4826.704
654.9203, 4825.145
655.4025, 4839.223
655.8846, 4851.464
656.3667, 4849.246
656.8488, 4827.021
657.3309, 4805.384
657.8130, 4782.038
658.2952, 4764.612
658.7773, 4766.615
659.2594, 4786.644
659.7415, 4808.203
660.2236, 4828.307
660.7057, 4845.829
661.1879, 4860.950
661.6700, 4872.267
662.1521, 4875.591
662.6342, 4858.012
663.1163, 4841.196
663.5984, 4841.085
664.0806, 4855.784
664.5627, 4867.302
665.0448, 4866.732
665.5269, 4866.112
666.0090, 4872.058
666.4911, 4886.520
666.9733, 4891.244
667.4554, 4881.349
667.9375, 4871.395
668.4196, 4875.143
668.9017, 4892.087
669.3839, 4907.002
669.8660, 4919.671
670.3481, 4924.736
670.8302, 4905.263
671.3123, 4874.280
671.7944, 4861.250
672.2766, 4884.854
672.7587, 4913.361
673.2408, 4927.478
673.7229, 4931.500
674.2050, 4934.163
674.6871, 4935.444
675.1693, 4938.214
675.6514, 4941.875
676.1335, 4947.266
676.6156, 4961.084
677.0977, 4990.768
677.5798, 5011.690
678.0620, 5009.199
678.5441, 4986.323
679.0262, 4972.633
679.5083, 4968.313
679.9904, 4968.346
680.4725, 4966.784
680.9547, 4967.339
681.4368, 4978.866
681.9189, 5003.465
682.4010, 5027.647
682.8831, 5045.935
683.3652, 5057.262
683.8474, 5059.840
684.3295, 5047.016
684.8116, 5035.360
685.2937, 5028.021
685.7758, 5022.771
686.2579, 5016.625
686.7401, 5008.254
687.2222, 5002.220
687.7043, 4998.045
688.1864, 4997.973
688.6685, 5013.329
689.1506, 5042.557
689.6328, 5060.195
690.1149, 5044.469
690.5970, 5017.411
691.0791, 5014.333
691.5612, 5031.028
692.0433, 5046.038
692.5255, 5045.794
693.0076, 5042.032
693.4897, 5042.963
693.9718, 5049.908
694.4539, 5052.640
694.9360, 5044.108
695.4182, 5036.288
695.9003, 5035.491
696.3824, 5042.807
696.8645, 5054.692
697.3466, 5074.471
697.8287, 5090.094
698.3109, 5083.358
698.7930, 5059.200
699.2751, 5045.434
699.7572, 5049.468
700.2393, 5055.638
700.7214, 5041.976
701.2036, 5020.435
701.6857, 5011.042
702.1678, 5028.601
702.6499, 5050.561
703.1320, 5073.720
703.6141, 5095.018
704.0963, 5106.764
704.5784, 5108.242
705.0605, 5101.020
705.5426, 5080.975
706.0247, 5052.736
706.5068, 5036.985
706.9890, 5034.066
707.4711, 5039.852
707.9532, 5057.969
708.4353, 5081.990
708.9174, 5093.899
709.3995, 5094.645
709.8817, 5092.807
710.3638, 5092.202
710.8459, 5092.956
711.3280, 5095.519
711.8101, 5100.140
712.2922, 5104.765
712.7744, 5107.636
713.2565, 5111.253
713.7386, 5117.379
714.2207, 5127.098
714.7028, 5137.797
715.1849, 5152.990
715.6671, 5163.198
716.1492, 5152.639
716.6313, 5123.812
717.1134, 5106.438
717.5955, 5107.170
718.0776, 5116.004
718.5598, 5124.271
719.0419, 5131.311
719.5240, 5135.457
720.0061, 5127.304
720.4882, 5126.935
720.9703, 5154.372
721.4525, 5195.635
721.9346, 5218.848
722.4167, 5199.311
722.8988, 5188.981
723.3809, 5202.592
723.8630, 5232.072
724.3452, 5244.966
724.8273, 5240.070
725.3094, 5227.237
725.7915, 5210.079
726.2736, 5188.648
726.7557, 5158.893
727.2379, 5122.557
727.7200, 5093.374
728.2021, 5084.282
728.6842, 5083.278
729.1663, 5082.003
729.6484, 5079.790
730.1306, 5075.043
730.6127, 5062.508
731.0948, 5051.384
731.5769, 5047.571
732.0590, 5054.184
732.5411, 5054.620
733.0233, 5047.591
733.5054, 5037.272
733.9875, 5026.202
734.4696, 5014.747
734.9517, 5005.564
735.4338, 4998.632
735.9160, 4995.509
736.3981, 5000.086
736.8802, 5008.770
737.3623, 5015.815
737.8444, 5016.874
738.3265, 5021.638
738.8087, 5043.746
739.2908, 5068.487
739.7729, 5073.417
740.2551, 5046.025
740.7372, 5020.636
741.2193, 5000.501
741.7014, 4984.952
742.1835, 4971.912
742.6656, 4961.425
743.1478, 4957.566
743.6299, 4963.727
744.1120, 4974.516
744.5941, 4982.104
745.0762, 4987.198
745.5583, 4992.247
746.0405, 5004.690
746.5226, 5011.528
747.0047, 4999.391
747.4868, 4972.735
747.9689, 4958.099
748.4510, 4967.564
748.9332, 4977.830
749.4153, 4980.588
749.8974, 4976.997
750.3795, 4983.202
750.8616, 5000.920
751.3438, 5014.983
751.8259, 5014.546
752.3080, 5003.635
752.7901, 4987.531
753.2722, 4967.183
753.7543, 4955.223
754.2365, 4969.228
754.7186, 4988.773
755.2007, 4997.523
755.6828, 4992.362
756.1649, 4984.128
756.6470, 4964.938
757.1292, 4951.686
757.6113, 4958.044
758.0934, 4992.329
758.5755, 5006.892
759.0576, 4998.137
759.5397, 4982.018
760.0219, 4971.722
760.5040, 4967.563
760.9861, 4974.222
761.4682, 4995.239
761.9503, 5011.016
762.4324, 4999.547
762.9146, 4976.860
763.3967, 4961.729
763.8788, 4960.832
764.3609, 4964.277
764.8430, 4976.235
765.3251, 4988.490
765.8073, 4990.681
766.2894, 4979.475
766.7715, 4971.001
767.2536, 4967.049
767.7357, 4967.622
768.2178, 4978.687
768.7000, 4995.795
769.1821, 4998.358
769.6642, 4968.640
770.1463, 4940.175
770.6284, 4949.507
771.1105, 4979.927
771.5927, 4999.131
772.0748, 4981.523
772.5569, 4969.992
773.0390, 4980.536
773.5211, 5002.929
774.0032, 5008.783
774.4854, 4991.281
774.9675, 4983.681
775.4496, 4999.858
775.9317, 5028.850
776.4138, 5045.269
776.8959, 5049.871
777.3781, 5047.536
777.8602, 5035.329
778.3423, 5021.637
778.8244, 5012.313
779.3065, 5007.278
779.7886, 5005.745
780.2708, 5013.279
780.7529, 5017.993
781.2350, 5013.394
781.7171, 5001.319
782.1992, 5001.305
782.6813, 5017.300
783.1635, 5029.525
783.6456, 5023.649
784.1277, 5006.864
784.6098, 5003.724
785.0919, 5013.155
785.5740, 5024.111
786.0562, 5031.384
786.5383, 5035.829
787.0204, 5036.443
787.5025, 5033.319
787.9846, 5033.604
788.4667, 5039.881
788.9489, 5049.395
789.4310, 5063.998
789.9131, 5084.621
790.3952, 5088.515
790.8773, 5072.752
791.3594, 5053.783
791.8416, 5042.016
792.3237, 5036.817
792.8058, 5037.906
793.2879, 5045.170
793.7700, 5053.436
794.2521, 5061.065
794.7343, 5066.871
795.2164, 5069.844
795.6985, 5069.872
796.1806, 5066.837
796.6627, 5057.541
797.1448, 5048.858
797.6270, 5044.434
798.1091, 5043.967
798.5912, 5054.195
799.0733, 5078.461
799.5554, 5095.922
800.0375, 5073.560
800.5197, 5033.329
801.0018, 5020.130
801.4839, 5042.768
801.9660, 5069.804
802.4481, 5089.374
802.9302, 5100.555
803.4124, 5100.913
803.8945, 5079.571
804.3766, 5072.078
804.8587, 5085.618
805.3408, 5103.533
805.8229, 5111.632
806.3051, 5109.942
806.7872, 5100.090
807.2693, 5080.476
807.7514, 5063.186
808.2335, 5062.201
808.7156, 5070.958
809.1978, 5080.202
809.6799, 5088.726
810.1620, 5095.214
810.6441, 5097.640
811.1262, 5098.597
811.6083, 5100.681
812.0905, 5104.994
812.5726, 5108.696
813.0547, 5113.110
813.5368, 5114.208
814.0189, 5103.758
814.5010, 5084.458
814.9832, 5071.937
815.4653, 5068.857
815.9474, 5072.425
816.4295, 5085.912
816.9116, 5102.048
817.3937, 5111.303
817.8759, 5106.769
818.3580, 5104.165
818.8401, 5108.760
819.3222, 5115.292
819.8043, 5117.798
820.2864, 5113.790
820.7686, 5118.216
821.2507, 5133.910
821.7328, 5153.560
822.2149, 5170.858
822.6970, 5184.233
823.1791, 5189.799
823.6613, 5186.315
824.1434, 5175.844
824.6255, 5149.768
825.1076, 5121.983
825.5897, 5108.368
826.0718, 5127.068
826.5540, 5137.698
827.0361, 5136.287
827.5182, 5131.333
828.0003, 5135.424
828.4824, 5148.322
828.9645, 5149.099
829.4467, 5131.621
829.9288, 5114.299
830.4109, 5123.084
830.8930, 5144.304
831.3751, 5156.335
831.8572, 5149.183
832.3394, 5142.365
832.8215, 5138.212
833.3036, 5140.440
833.7857, 5155.280
834.2678, 5194.724
834.7499, 5208.469
835.2321, 5186.601
835.7142, 5154.308
836.1963, 5142.954
836.6784, 5147.931
837.1605, 5154.046
837.6426, 5159.433
838.1248, 5160.748
838.6069, 5149.388
839.0890, 5135.378
839.5711, 5129.716
840.0532, 5134.729
840.5353, 5149.654
841.0175, 5184.948
841.4996, 5218.744
841.9817, 5223.816
842.4638, 5198.566
842.9459, 5187.248
843.4280, 5195.364
843.9102, 5210.651
844.3923, 5223.247
844.8744, 5232.837
845.3565, 5239.086
845.8386, 5242.475
846.3207, 5240.726
846.8029, 5224.060
847.2850, 5207.627
847.7671, 5205.436
848.2492, 5225.224
848.7313, 5239.096
849.2134, 5247.211
849.6956, 5248.710
850.1777, 5239.388
850.6598, 5222.532
851.1419, 5208.392
851.6240, 5197.775
852.1061, 5193.943
852.5883, 5204.569
853.0704, 5219.834
853.5525, 5232.733
854.0346, 5246.025
854.5167, 5241.280
854.9988, 5197.957
855.4810, 5162.254
855.9631, 5175.281
856.4452, 5238.225
856.9273, 5273.396
857.4094, 5277.878
857.8915, 5268.942
858.3737, 5247.856
858.8558, 5229.237
859.3379, 5236.108
859.8200, 5272.876
860.3021, 5307.109
860.7842, 5331.121
861.2664, 5344.080
861.7485, 5343.459
862.2306, 5327.241
862.7127, 5318.559
863.1948, 5318.712
863.6769, 5320.374
864.1591, 5319.111
864.6412, 5315.286
865.1233, 5307.829
865.6054, 5297.234
866.0875, 5290.531
866.5696, 5286.795
867.0518, 5292.512
867.5339, 5319.203
868.0160, 5368.954
868.4981, 5393.952
868.9802, 5387.297
869.4623, 5369.982
869.9445, 5345.949
870.4266, 5319.658
870.9087, 5314.347
871.3908, 5328.536
871.8729, 5346.802
872.3550, 5366.169
872.8372, 5380.545
873.3193, 5378.610
873.8014, 5364.651
874.2835, 5362.821
874.7656, 5397.637
875.2477, 5421.746
875.7299, 5418.012
876.2120, 5395.730
876.6941, 5393.147
877.1762, 5410.199
877.6583, 5425.992
878.1404, 5429.489
878.6226, 5428.865
879.1047, 5432.959
879.5868, 5441.636
880.0689, 5454.611
880.5510, 5480.580
881.0332, 5500.554
881.5153, 5503.338
881.9974, 5498.365
882.4796, 5506.267
882.9617, 5530.100
883.4438, 5548.896
883.9259, 5555.852
884.4080, 5559.034
884.8901, 5571.279
885.3723, 5589.712
885.8544, 5607.357
886.3365, 5618.355
886.8186, 5633.548
887.3007, 5662.634
887.7828, 5696.523
888.2650, 5722.132
888.7471, 5735.164
889.2292, 5749.372
889.7113, 5764.126
890.1934, 5784.378
890.6755, 5822.083
891.1577, 5870.826
891.6398, 5909.415
892.1219, 5930.801
892.6040, 5956.246
893.0861, 6011.106
893.5682, 6070.355
894.0504, 6109.091
894.5325, 6113.515
895.0146, 6122.328
895.4967, 6134.516
895.9788, 6152.879
896.4609, 6183.351
896.9431, 6223.198
897.4252, 6251.957
897.9073, 6268.396
898.3894, 6288.829
898.8715, 6335.947
899.3536, 6385.581
899.8358, 6414.818
900.3179, 6419.239
900.8000, 6430.706
901.2821, 6455.407
901.7642, 6483.019
902.2463, 6510.158
902.7285, 6536.273
903.2106, 6561.479
903.6927, 6585.540
904.1748, 6605.324
904.6569, 6608.541
905.1390, 6614.562
905.6212, 6652.732
906.1033, 6713.428
906.5854, 6756.065
907.0675, 6744.982
907.5496, 6743.480
908.0317, 6769.685
908.5139, 6814.257
908.9960, 6850.372
909.4781, 6877.839
909.9602, 6902.024
910.4423, 6923.738
910.9244, 6944.299
911.4066, 6961.912
911.8887, 6979.968
912.3708, 7005.043
912.8529, 7050.750
913.3350, 7088.730
913.8171, 7110.191
914.2993, 7124.170
914.7814, 7143.353
915.2635, 7168.641
915.7456, 7186.153
916.2277, 7192.781
916.7098, 7196.323
917.1920, 7204.073
917.6741, 7215.178
918.1562, 7227.782
918.6383, 7240.082
919.1204, 7258.699
919.6025, 7292.703
920.0847, 7328.027
920.5668, 7355.914
921.0489, 7376.154
921.5310, 7390.315
922.0131, 7398.101
922.4952, 7402.038
922.9774, 7405.444
923.4595, 7405.632
923.9416, 7395.334
924.4237, 7375.249
924.9058, 7360.278
925.3879, 7360.814
925.8701, 7363.430
926.3522, 7366.326
926.8343, 7367.493
927.3164, 7348.246
927.7985, 7306.436
928.2806, 7263.188
928.7628, 7227.764
929.2449, 7197.430
929.7270, 7166.545
930.2091, 7136.979
930.6912, 7112.906
931.1733, 7099.269
931.6555, 7088.059
932.1376, 7079.123
932.6197, 7070.306
933.1018, 7056.730
933.5839, 7036.940
934.0660, 7022.470
934.5482, 7015.324
935.0303, 7013.953
935.5124, 7023.383
935.9945, 7035.104
936.4766, 7033.322
936.9587, 7010.206
937.4409, 6985.173
937.9230, 6960.855
938.4051, 6939.566
938.8872, 6923.643
939.3693, 6914.053
939.8514, 6903.801
940.3336, 6893.117
940.8157, 6880.625
941.2978, 6865.620
941.7799, 6847.740
942.2620, 6818.305
942.7441, 6779.186
943.2263, 6763.725
943.7084, 6814.299
944.1905, 6860.668
944.6726, 6871.078
945.1547, 6852.531
945.6368, 6852.409
946.1190, 6872.388
946.6011, 6880.829
947.0832, 6849.622
947.5653, 6814.652
948.0474, 6834.807
948.5295, 6888.136
949.0117, 6923.584
949.4938, 6900.330
949.9759, 6887.147
950.4580, 6900.576
950.9401, 6927.722
951.4222, 6949.269
951.9044, 6965.158
952.3865, 6987.624
952.8686, 7022.207
953.3507, 7046.348
953.8328, 7020.998
954.3149, 6978.022
954.7971, 6957.219
955.2792, 6969.304
955.7613, 6994.055
956.2434, 7041.069
956.7255, 7083.780
957.2076, 7100.448
957.6898, 7092.513
958.1719, 7117.396
958.6540, 7174.620
959.1361, 7218.620
959.6182, 7196.474
960.1003, 7164.106
960.5825, 7181.338
961.0646, 7239.414
961.5467, 7275.797
962.0288, 7263.453
962.5109, 7251.465
962.9930, 7248.281
963.4752, 7254.948
963.9573, 7283.400
964.4394, 7327.950
964.9215, 7352.865
965.4036, 7336.899
965.8857, 7316.800
966.3679, 7318.494
966.8500, 7335.332
967.3321, 7359.411
967.8142, 7396.681
968.2963, 7427.806
968.7784, 7452.208
969.2606, 7470.973
969.7427, 7477.591
970.2248, 7478.992
970.7069, 7507.264
971.1890, 7564.257
971.6711, 7611.922
972.1533, 7616.205
972.6354, 7609.791
973.1175, 7614.169
973.5996, 7630.045
974.0817, 7642.061
974.5638, 7649.514
975.0460, 7655.477
975.5281, 7660.818
976.0102, 7665.947
976.4923, 7676.919
976.9744, 7688.823
977.4565, 7687.247
977.9387, 7648.978
978.4208, 7615.967
978.9029, 7604.948
979.3850, 7606.808
979.8671, 7613.263
980.3492, 7628.235
980.8314, 7623.604
981.3135, 7595.107
981.7956, 7551.705
982.2777, 7484.626
982.7598, 7416.918
983.2419, 7388.088
983.7241, 7409.411
984.2062, 7422.004
984.6883, 7406.872
985.1704, 7379.295
985.6525, 7337.705
986.1346, 7286.138
986.6168, 7279.529
987.0989, 7315.938
987.5810, 7334.667
988.0631, 7282.003
988.5452, 7211.355
989.0273, 7165.321
989.5095, 7141.868
989.9916, 7136.931
990.4737, 7169.392
990.9558, 7188.180
991.4379, 7181.705
991.9200, 7167.061
992.4022, 7171.109
992.8843, 7190.398
993.3664, 7212.937
993.8485, 7238.315
994.3306, 7253.984
994.8127, 7239.101
995.2949, 7218.897
995.7770, 7219.185
996.2591, 7246.167
996.7412, 7251.833
997.2233, 7228.839
997.7054, 7211.129
998.1876, 7223.022
998.6697, 7253.155
999.1518, 7283.965
999.6339, 7312.153
1000.116, 7325.244
1000.598, 7314.732
1001.080, 7291.173
1001.562, 7244.319
1002.044, 7193.139
1002.527, 7174.051
1003.009, 7189.513
1003.491, 7205.778
1003.973, 7218.618
1004.455, 7222.158
1004.937, 7194.413
1005.419, 7160.825
1005.901, 7161.847
1006.384, 7221.937
1006.866, 7237.738
1007.348, 7165.297
1007.830, 7097.588
1008.312, 7092.619
1008.794, 7138.239
1009.276, 7165.486
1009.758, 7175.426
1010.240, 7178.273
1010.723, 7181.466
1011.205, 7177.988
1011.687, 7157.048
1012.169, 7126.521
1012.651, 7107.277
1013.133, 7101.062
1013.615, 7103.431
1014.097, 7116.859
1014.580, 7130.310
1015.062, 7128.697
1015.544, 7115.944
1016.026, 7098.507
1016.508, 7077.109
1016.990, 7054.300
1017.472, 7034.225
1017.954, 7009.645
1018.436, 6973.472
1018.919, 6927.044
1019.401, 6895.689
1019.883, 6879.445
1020.365, 6864.400
1020.847, 6846.375
1021.329, 6822.538
1021.811, 6782.888
1022.293, 6735.787
1022.776, 6701.364
1023.258, 6696.038
1023.740, 6682.250
1024.222, 6654.063
1024.704, 6619.982
1025.186, 6589.713
1025.668, 6563.449
1026.150, 6547.875
1026.632, 6545.585
1027.115, 6528.956
1027.597, 6455.486
1028.079, 6384.017
1028.561, 6360.214
1029.043, 6381.477
1029.525, 6387.387
1030.007, 6377.607
1030.489, 6353.428
1030.972, 6302.991
1031.454, 6252.513
1031.936, 6246.625
1032.418, 6267.325
1032.900, 6276.091
1033.382, 6253.644
1033.864, 6227.380
1034.346, 6196.559
1034.828, 6168.241
1035.311, 6154.807
1035.793, 6152.761
1036.275, 6134.720
1036.757, 6098.213
1037.239, 6072.239
1037.721, 6084.417
1038.203, 6108.288
1038.685, 6132.113
1039.167, 6152.907
1039.650, 6150.588
1040.132, 6118.424
1040.614, 6093.111
1041.096, 6089.888
1041.578, 6095.643
1042.060, 6088.981
1042.542, 6076.302
1043.024, 6068.922
1043.507, 6066.733
1043.989, 6078.316
1044.471, 6118.286
1044.953, 6157.115
1045.435, 6169.664
1045.917, 6158.144
1046.399, 6151.417
1046.881, 6149.910
1047.364, 6150.405
1047.846, 6148.718
1048.328, 6150.144
1048.810, 6164.566
1049.292, 6185.923
1049.774, 6188.061
1050.256, 6163.978
1050.738, 6144.121
1051.220, 6133.456
1051.703, 6132.278
1052.185, 6146.991
1052.667, 6169.606
1053.149, 6185.809
1053.631, 6190.906
1054.113, 6198.811
1054.595, 6223.615
1055.077, 6239.705
1055.559, 6229.259
1056.042, 6197.783
1056.524, 6182.290
1057.006, 6181.684
1057.488, 6186.989
1057.970, 6202.611
1058.452, 6213.007
1058.934, 6203.570
1059.416, 6183.596
1059.899, 6170.396
1060.381, 6163.885
1060.863, 6167.192
1061.345, 6182.729
1061.827, 6198.984
1062.309, 6199.991
1062.791, 6196.265
1063.273, 6208.612
1063.755, 6238.004
1064.238, 6251.365
1064.720, 6218.569
1065.202, 6196.547
1065.684, 6206.079
1066.166, 6234.691
1066.648, 6246.453
1067.130, 6245.085
1067.612, 6250.883
1068.094, 6278.426
1068.577, 6294.801
1069.059, 6264.770
1069.541, 6224.490
1070.023, 6210.267
1070.505, 6228.078
1070.987, 6240.681
1071.469, 6248.494
1071.951, 6248.812
1072.434, 6228.722
1072.916, 6208.206
1073.398, 6216.963
1073.880, 6246.329
1074.362, 6264.667
1074.844, 6254.718
1075.326, 6252.133
1075.808, 6263.844
1076.291, 6279.854
1076.773, 6288.287
1077.255, 6289.448
1077.737, 6281.379
1078.219, 6263.303
1078.701, 6248.771
1079.183, 6247.788
1079.665, 6249.328
1080.147, 6247.544
1080.630, 6243.245
1081.112, 6239.210
1081.594, 6235.696
1082.076, 6242.380
1082.558, 6271.389
1083.040, 6295.629
1083.522, 6283.584
1084.004, 6255.291
1084.486, 6237.292
1084.969, 6232.646
1085.451, 6239.400
1085.933, 6262.075
1086.415, 6278.935
1086.897, 6268.358
1087.379, 6243.325
1087.861, 6226.188
1088.343, 6215.343
1088.826, 6201.699
1089.308, 6168.851
1089.790, 6151.991
1090.272, 6161.026
1090.754, 6183.768
1091.236, 6207.775
1091.718, 6229.796
1092.200, 6229.805
1092.682, 6202.948
1093.165, 6181.528
1093.647, 6191.421
1094.129, 6208.404
1094.611, 6221.075
1095.093, 6228.044
1095.575, 6216.116
1096.057, 6184.363
1096.539, 6156.542
1097.022, 6142.195
1097.504, 6134.892
1097.986, 6133.602
1098.468, 6133.027
1098.950, 6124.618
1099.432, 6099.137
1099.914, 6089.344
1100.396, 6100.126
1100.879, 6111.262
1101.361, 6105.985
1101.843, 6092.048
1102.325, 6082.133
1102.807, 6076.618
1103.289, 6076.394
1103.771, 6089.104
1104.253, 6097.241
1104.735, 6097.966
1105.218, 6093.119
1105.700, 6082.768
1106.182, 6068.652
1106.664, 6058.165
1107.146, 6051.966
1107.628, 6054.085
1108.110, 6086.302
1108.592, 6107.841
1109.074, 6088.681
1109.557, 6040.437
1110.039, 6007.935
1110.521, 5991.052
1111.003, 5980.796
1111.485, 5975.000
1111.967, 5973.871
1112.449, 5983.425
1112.931, 5994.487
1113.414, 5996.419
1113.896, 5986.464
1114.378, 5973.906
1114.860, 5955.618
1115.342, 5949.039
1115.824, 5976.441
1116.306, 6010.944
1116.788, 6005.685
1117.271, 5974.425
1117.753, 5947.697
1118.235, 5931.373
1118.717, 5927.604
1119.199, 5941.638
1119.681, 5957.760
1120.163, 5959.320
1120.645, 5950.624
1121.127, 5943.895
1121.609, 5939.493
1122.092, 5934.864
1122.574, 5923.045
1123.056, 5918.379
1123.538, 5928.832
1124.020, 5946.026
1124.502, 5956.751
1124.984, 5960.168
1125.466, 5945.229
1125.949, 5907.860
1126.431, 5872.665
1126.913, 5850.941
1127.395, 5843.211
1127.877, 5855.851
1128.359, 5884.831
1128.841, 5901.279
1129.323, 5904.587
1129.806, 5907.395
1130.288, 5916.354
1130.770, 5922.292
1131.252, 5911.526
1131.734, 5894.143
1132.216, 5884.829
1132.698, 5890.639
1133.180, 5880.780
1133.662, 5849.687
1134.145, 5826.761
1134.627, 5837.625
1135.109, 5863.478
1135.591, 5876.263
1136.073, 5879.771
1136.555, 5883.259
1137.037, 5892.548
1137.519, 5896.540
1138.001, 5893.024
1138.484, 5887.438
1138.966, 5882.969
1139.448, 5881.459
1139.930, 5891.353
1140.412, 5911.192
1140.894, 5923.854
1141.376, 5923.358
1141.858, 5912.177
1142.341, 5886.481
1142.823, 5856.135
1143.305, 5838.765
1143.787, 5832.521
1144.269, 5827.723
1144.751, 5822.204
1145.233, 5824.365
1145.715, 5851.117
1146.198, 5874.333
1146.680, 5875.601
1147.162, 5861.226
1147.644, 5862.299
1148.126, 5877.607
1148.608, 5891.439
1149.090, 5901.276
1149.572, 5902.102
1150.054, 5880.395
1150.536, 5854.787
1151.019, 5843.802
1151.501, 5848.854
1151.983, 5852.323
1152.465, 5854.190
1152.947, 5855.395
1153.429, 5858.064
1153.911, 5858.480
1154.393, 5844.806
1154.876, 5828.997
1155.358, 5835.292
1155.840, 5878.753
1156.322, 5898.460
1156.804, 5890.009
1157.286, 5875.936
1157.768, 5873.083
1158.250, 5875.967
1158.733, 5879.433
1159.215, 5882.757
1159.697, 5884.011
1160.179, 5881.529
1160.661, 5880.898
1161.143, 5884.314
1161.625, 5885.231
1162.107, 5871.820
1162.589, 5852.677
1163.072, 5843.151
1163.554, 5843.838
1164.036, 5843.740
1164.518, 5832.845
1165.000, 5835.522
1165.482, 5865.440
1165.964, 5899.238
1166.446, 5882.681
1166.928, 5839.648
1167.411, 5828.974
1167.893, 5867.853
1168.375, 5891.381
1168.857, 5860.386
1169.339, 5833.119
1169.821, 5834.282
1170.303, 5852.706
1170.785, 5854.786
1171.268, 5845.898
1171.750, 5843.918
1172.232, 5855.769
1172.714, 5871.738
1173.196, 5908.787
1173.678, 5926.344
1174.160, 5883.675
1174.642, 5797.159
1175.125, 5787.602
1175.607, 5842.734
1176.089, 5895.735
1176.571, 5918.953
1177.053, 5928.413
1177.535, 5929.146
1178.017, 5920.148
1178.499, 5894.254
1178.981, 5851.742
1179.464, 5839.051
1179.946, 5854.646
1180.428, 5867.672
1180.910, 5846.557
1181.392, 5830.915
1181.874, 5853.762
1182.356, 5889.589
1182.838, 5894.467
1183.320, 5866.675
1183.803, 5866.026
1184.285, 5898.046
1184.767, 5928.146
1185.249, 5935.589
1185.731, 5927.430
1186.213, 5892.943
1186.695, 5848.861
1187.177, 5844.996
1187.660, 5884.804
1188.142, 5908.982
1188.624, 5905.570
1189.106, 5903.391
1189.588, 5941.009
1190.070, 5979.458
1190.552, 5978.657
1191.034, 5945.308
1191.516, 5939.776
1191.999, 5966.154
1192.481, 5978.758
1192.963, 5962.107
1193.445, 5943.607
1193.927, 5961.849
1194.409, 5984.485
1194.891, 5970.736
1195.373, 5917.256
1195.855, 5899.791
1196.338, 5923.440
1196.820, 5936.119
1197.302, 5909.149
1197.784, 5880.415
1198.266, 5900.163
1198.748, 5938.170
1199.230, 5954.658
1199.712, 5941.116
1200.195, 5935.978
1200.677, 5940.468
1201.159, 5944.958
1201.641, 5946.089
1202.123, 5942.417
1202.605, 5923.773
1203.087, 5902.266
1203.569, 5899.358
1204.052, 5927.010
1204.534, 5941.479
1205.016, 5941.154
1205.498, 5937.942
1205.980, 5941.933
1206.462, 5946.007
1206.944, 5937.107
1207.426, 5922.687
1207.908, 5921.383
1208.391, 5940.696
1208.873, 5956.501
1209.355, 5969.083
1209.837, 5971.924
1210.319, 5949.284
1210.801, 5921.807
1211.283, 5918.581
1211.765, 5931.484
1212.247, 5927.180
1212.730, 5890.365
1213.212, 5879.838
1213.694, 5905.400
1214.176, 5940.021
1214.658, 5965.625
1215.140, 5980.500
1215.622, 5980.035
1216.104, 5966.060
1216.587, 5948.320
1217.069, 5921.128
1217.551, 5916.212
1218.033, 5943.855
1218.515, 5972.535
1218.997, 5957.125
1219.479, 5930.174
1219.961, 5931.513
1220.443, 5962.094
1220.926, 5984.734
1221.408, 5999.358
1221.890, 5997.320
1222.372, 5972.152
1222.854, 5945.309
1223.336, 5945.925
1223.818, 5957.074
1224.300, 5957.591
1224.782, 5944.744
1225.265, 5944.108
1225.747, 5958.196
1226.229, 5973.960
1226.711, 5989.832
1227.193, 5999.078
1227.675, 5988.754
1228.157, 5969.923
1228.639, 5952.982
1229.122, 5938.398
1229.604, 5944.490
1230.086, 5976.535
1230.568, 5992.683
1231.050, 5969.727
1231.532, 5938.986
1232.014, 5939.367
1232.496, 5951.481
1232.979, 5946.776
1233.461, 5918.621
1233.943, 5923.108
1234.425, 5964.067
1234.907, 5998.527
1235.389, 6002.639
1235.871, 5997.483
1236.353, 6002.841
1236.835, 6012.501
1237.318, 6018.189
1237.800, 6019.168
1238.282, 6021.527
1238.764, 6025.699
1239.246, 6021.233
1239.728, 5987.720
1240.210, 5961.820
1240.692, 5991.513
1241.175, 6038.758
1241.657, 6048.406
1242.139, 6010.672
1242.621, 5996.448
1243.103, 6005.792
1243.585, 6018.878
1244.067, 6028.424
1244.549, 6032.307
1245.031, 6019.368
1245.514, 6005.686
1245.996, 6016.042
1246.478, 6053.991
1246.960, 6073.354
1247.442, 6073.871
1247.924, 6064.848
1248.406, 6042.298
1248.888, 6022.941
1249.370, 6021.304
1249.853, 6025.159
1250.335, 6014.488
1250.817, 5990.443
1251.299, 5989.933
1251.781, 6013.206
1252.263, 6039.151
1252.745, 6060.884
1253.227, 6075.046
1253.710, 6078.449
1254.192, 6074.853
1254.674, 6067.400
1255.156, 6056.434
1255.638, 6041.116
1256.120, 6022.598
1256.602, 6013.848
1257.084, 6036.807
1257.567, 6051.087
1258.049, 6038.525
1258.531, 6018.290
1259.013, 6017.197
1259.495, 6031.079
1259.977, 6047.882
1260.459, 6065.734
1260.941, 6076.786
1261.423, 6075.951
1261.906, 6067.608
1262.388, 6046.828
1262.870, 6029.185
1263.352, 6043.290
1263.834, 6076.060
1264.316, 6099.838
1264.798, 6111.784
1265.280, 6114.271
1265.762, 6107.119
1266.245, 6088.412
1266.727, 6050.381
1267.209, 6017.591
1267.691, 6035.602
1268.173, 6076.115
1268.655, 6089.624
1269.137, 6073.713
1269.619, 6067.188
1270.102, 6077.202
1270.584, 6089.585
1271.066, 6102.208
1271.548, 6113.401
1272.030, 6123.972
1272.512, 6129.654
1272.994, 6120.269
1273.476, 6097.271
1273.958, 6090.290
1274.441, 6103.956
1274.923, 6114.658
1275.405, 6117.366
1275.887, 6114.975
1276.369, 6106.622
1276.851, 6097.641
1277.333, 6093.596
1277.815, 6093.996
1278.297, 6092.068
1278.780, 6087.206
1279.262, 6095.485
1279.744, 6122.669
1280.226, 6149.773
1280.708, 6166.199
1281.190, 6172.190
1281.672, 6165.853
1282.154, 6150.171
1282.637, 6128.324
1283.119, 6102.789
1283.601, 6102.142
1284.083, 6136.478
1284.565, 6164.957
1285.047, 6151.968
1285.529, 6139.523
1286.011, 6152.868
1286.494, 6178.081
1286.976, 6166.707
1287.458, 6133.190
1287.940, 6132.291
1288.422, 6180.655
1288.904, 6214.914
1289.386, 6204.685
1289.868, 6182.436
1290.350, 6149.800
1290.833, 6123.293
1291.315, 6151.856
1291.797, 6206.544
1292.279, 6226.125
1292.761, 6194.273
1293.243, 6176.023
1293.725, 6184.605
1294.207, 6192.318
1294.689, 6191.207
1295.172, 6182.435
1295.654, 6157.596
1296.136, 6131.755
1296.618, 6129.785
1297.100, 6158.094
1297.582, 6163.901
1298.064, 6143.592
1298.546, 6121.248
1299.029, 6099.169
1299.511, 6094.510
1299.993, 6147.295
1300.475, 6210.002
1300.957, 6232.481
1301.439, 6219.494
1301.921, 6206.330
1302.403, 6192.891
1302.885, 6175.864
1303.368, 6150.978
1303.850, 6136.619
1304.332, 6153.719
1304.814, 6178.652
1305.296, 6201.339
1305.778, 6217.349
1306.260, 6198.652
1306.742, 6158.333
1307.224, 6155.253
1307.707, 6213.414
1308.189, 6253.823
1308.671, 6222.936
1309.153, 6197.443
1309.635, 6209.448
1310.117, 6236.649
1310.599, 6224.368
1311.081, 6193.679
1311.564, 6194.154
1312.046, 6242.712
1312.528, 6250.526
1313.010, 6187.008
1313.492, 6156.651
1313.974, 6208.220
##END=



