##NAMES=Kalsilite
##RRUFFID=R060801
##IDEAL CHEMISTRY=KAlSiO_4_
##LOCALITY=Marino, Latium, Italy
##OWNER=RRUFF
##SOURCE=Smithsonian Institute
##DESCRIPTION=White anhedral blebs
##STATUS=The identification of this mineral is confirmed by single-crystal X-ray diffraction and chemical analysis.
##URL=rruff.info/R060801
##MEASURED CHEMISTRY=(K_0.90_Na_0.09_[box]_0.01_)_Î£=1_Al_0.99_Si_1.01_O_4_
93.08527, 0.0000000E+00
93.56738, 90.70779
94.04950, 90.85622
94.53162, 91.55431
95.01373, 91.67860
95.49585, 91.73495
95.97797, 91.92361
96.46008, 92.46898
96.94220, 93.72919
97.42432, 94.51260
97.90643, 94.59151
98.38855, 94.33739
98.87067, 93.91477
99.35278, 93.40440
99.83490, 92.85682
100.3170, 92.33268
100.7991, 91.48370
101.2813, 90.88382
101.7634, 90.60954
102.2455, 90.56048
102.7276, 90.62321
103.2097, 90.73875
103.6918, 90.90393
104.1740, 91.16496
104.6561, 91.61213
105.1382, 92.02390
105.6203, 92.37430
106.1024, 92.63724
106.5845, 92.71772
107.0667, 92.52190
107.5488, 92.05547
108.0309, 91.46323
108.5130, 90.46764
108.9951, 89.47379
109.4772, 88.99949
109.9594, 89.16118
110.4415, 89.50832
110.9236, 89.78627
111.4057, 90.00420
111.8878, 90.16915
112.3699, 90.26989
112.8521, 90.31267
113.3342, 90.35007
113.8163, 90.44234
114.2984, 90.45733
114.7805, 90.32896
115.2626, 90.07226
115.7448, 89.74834
116.2269, 89.41074
116.7090, 89.06130
117.1911, 88.69186
117.6732, 88.43142
118.1553, 88.06333
118.6375, 87.39919
119.1196, 86.43357
119.6017, 85.35517
120.0838, 84.48177
120.5659, 84.02843
121.0480, 83.46350
121.5302, 82.84964
122.0123, 82.10651
122.4944, 81.09863
122.9765, 79.75646
123.4586, 78.21639
123.9407, 76.84524
124.4228, 75.59862
124.9050, 74.51772
125.3871, 73.75246
125.8692, 73.20373
126.3513, 72.48726
126.8334, 71.26433
127.3155, 69.88707
127.7977, 69.05003
128.2798, 69.03465
128.7619, 69.14414
129.2440, 68.65643
129.7261, 67.46964
130.2083, 66.35113
130.6904, 65.73655
131.1725, 65.36284
131.6546, 65.00074
132.1367, 64.56099
132.6188, 64.09856
133.1010, 63.76022
133.5831, 63.64911
134.0652, 63.49894
134.5473, 63.10838
135.0294, 62.65651
135.5115, 62.40886
135.9937, 62.57457
136.4758, 63.11442
136.9579, 63.40410
137.4400, 63.25517
137.9221, 63.02545
138.4042, 62.76628
138.8864, 62.49431
139.3685, 62.21346
139.8506, 61.92719
140.3327, 61.63522
140.8148, 61.34033
141.2969, 61.04893
141.7791, 60.75192
142.2612, 60.40426
142.7433, 60.01777
143.2254, 59.69867
143.7075, 59.58382
144.1896, 59.71738
144.6718, 59.81094
145.1539, 59.79521
145.6360, 59.75476
146.1181, 59.80117
146.6002, 59.97050
147.0823, 60.16467
147.5645, 60.27959
148.0466, 60.32647
148.5287, 60.30537
149.0108, 60.18311
149.4929, 59.98639
149.9750, 59.79360
150.4572, 59.58828
150.9393, 59.43804
151.4214, 59.39849
151.9035, 59.46417
152.3856, 59.56071
152.8677, 59.65057
153.3499, 59.73683
153.8320, 59.76325
154.3141, 59.71921
154.7962, 59.60576
155.2783, 59.39847
155.7604, 59.10022
156.2425, 58.76012
156.7247, 58.40950
157.2068, 57.95090
157.6889, 57.73652
158.1710, 57.94591
158.6531, 58.26021
159.1352, 58.47575
159.6174, 58.52674
160.0995, 58.46453
160.5816, 58.38631
161.0637, 58.21976
161.5458, 58.14220
162.0279, 58.22749
162.5101, 58.37081
162.9922, 58.47618
163.4743, 58.50324
163.9564, 58.45517
164.4385, 58.33194
164.9206, 58.02383
165.4028, 57.78585
165.8849, 57.68408
166.3670, 57.67999
166.8491, 57.71476
167.3312, 57.77415
167.8133, 57.83460
168.2955, 57.82113
168.7776, 57.66960
169.2597, 57.54698
169.7418, 57.52547
170.2239, 57.59994
170.7060, 57.76146
171.1882, 58.10236
171.6703, 58.47189
172.1524, 58.58228
172.6345, 58.29331
173.1166, 57.93087
173.5987, 57.84412
174.0809, 58.07199
174.5630, 58.20551
175.0451, 57.85074
175.5272, 57.37219
176.0093, 57.13655
176.4914, 57.29334
176.9736, 57.65158
177.4557, 57.92451
177.9378, 58.12085
178.4199, 58.19757
178.9020, 58.07477
179.3841, 57.86792
179.8663, 57.67397
180.3484, 57.52472
180.8305, 57.44375
181.3126, 57.52981
181.7947, 58.01792
182.2768, 58.32928
182.7590, 58.17390
183.2411, 57.83686
183.7232, 57.68996
184.2053, 57.95845
184.6874, 58.56352
185.1695, 59.01067
185.6517, 59.29996
186.1338, 59.40676
186.6159, 59.15853
187.0980, 58.73729
187.5801, 58.43093
188.0622, 58.43364
188.5444, 58.72156
189.0265, 58.97994
189.5086, 59.27276
189.9907, 59.47800
190.4728, 59.49205
190.9549, 59.37696
191.4371, 59.30211
191.9192, 59.40322
192.4013, 59.65639
192.8834, 59.73916
193.3655, 59.50963
193.8476, 59.26684
194.3298, 59.13261
194.8119, 59.11273
195.2940, 59.21605
195.7761, 59.51673
196.2582, 59.95520
196.7403, 60.17526
197.2225, 59.99398
197.7046, 59.72484
198.1867, 59.57861
198.6688, 59.55885
199.1509, 59.65903
199.6330, 59.93565
200.1152, 60.32809
200.5973, 60.70202
201.0794, 61.06886
201.5615, 61.38509
202.0436, 61.58425
202.5257, 61.64865
203.0079, 61.66851
203.4900, 61.65109
203.9721, 61.63059
204.4542, 61.65666
204.9363, 61.75817
205.4184, 61.90656
205.9006, 62.04721
206.3827, 62.16942
206.8648, 62.30830
207.3469, 62.46009
207.8290, 62.63940
208.3111, 62.86452
208.7933, 63.13919
209.2754, 63.46962
209.7575, 63.88594
210.2396, 64.44092
210.7217, 65.00220
211.2038, 65.54465
211.6860, 66.06556
212.1681, 66.56916
212.6502, 67.05862
213.1323, 67.52733
213.6144, 67.93683
214.0965, 68.23544
214.5787, 68.53609
215.0608, 68.75735
215.5429, 69.01608
216.0250, 69.51336
216.5071, 70.39531
216.9892, 71.54784
217.4714, 72.33128
217.9535, 72.25780
218.4356, 72.30708
218.9177, 72.61526
219.3998, 73.13772
219.8819, 73.82951
220.3641, 74.68456
220.8462, 75.64963
221.3283, 76.35426
221.8104, 76.62563
222.2925, 76.84795
222.7746, 77.01113
223.2568, 77.18566
223.7389, 77.51168
224.2210, 78.09213
224.7031, 78.85563
225.1852, 79.38281
225.6673, 79.45596
226.1495, 79.59006
226.6316, 80.00384
227.1137, 80.58740
227.5958, 81.08951
228.0779, 81.35794
228.5600, 81.46761
229.0422, 81.70732
229.5243, 82.18069
230.0064, 82.62923
230.4885, 82.92073
230.9706, 83.10383
231.4527, 83.34264
231.9349, 83.76155
232.4170, 84.23493
232.8991, 84.45223
233.3812, 84.32900
233.8633, 84.14074
234.3454, 84.03361
234.8276, 83.98318
235.3097, 83.89773
235.7918, 83.77591
236.2739, 83.55335
236.7560, 83.11021
237.2381, 82.35419
237.7203, 81.66051
238.2024, 81.42447
238.6845, 81.55078
239.1666, 81.37369
239.6487, 80.54772
240.1308, 79.40652
240.6130, 78.34558
241.0951, 77.36220
241.5772, 76.51147
242.0593, 75.89517
242.5414, 75.49508
243.0235, 75.03393
243.5057, 74.41650
243.9878, 73.73495
244.4699, 73.07149
244.9520, 72.42496
245.4341, 71.77225
245.9162, 71.03661
246.3984, 70.21948
246.8805, 69.58906
247.3626, 69.36229
247.8447, 69.18806
248.3268, 68.82633
248.8089, 68.28609
249.2911, 67.74375
249.7732, 67.36059
250.2553, 67.14147
250.7374, 66.94096
251.2195, 66.75570
251.7016, 66.58515
252.1838, 66.46306
252.6659, 66.36744
253.1480, 66.21799
253.6301, 65.89953
254.1122, 65.39028
254.5943, 65.02790
255.0765, 64.92695
255.5586, 64.88145
256.0407, 64.82933
256.5228, 64.77031
257.0049, 64.72832
257.4870, 64.73531
257.9691, 64.79362
258.4513, 64.78745
258.9334, 64.65148
259.4155, 64.50534
259.8976, 64.37450
260.3797, 64.25882
260.8618, 64.14381
261.3440, 64.00906
261.8261, 63.85834
262.3082, 63.81089
262.7903, 64.12268
263.2724, 64.28124
263.7545, 63.96096
264.2367, 63.42411
264.7188, 63.15618
265.2009, 63.50847
265.6830, 64.37861
266.1651, 64.91521
266.6472, 64.77641
267.1294, 64.64908
267.6115, 64.62040
268.0936, 64.67650
268.5757, 64.79244
269.0578, 64.95784
269.5399, 65.15562
270.0221, 65.30888
270.5042, 65.40061
270.9863, 65.46237
271.4684, 65.52528
271.9505, 65.55167
272.4326, 65.43684
272.9148, 65.12772
273.3969, 64.76719
273.8790, 64.75255
274.3611, 65.58149
274.8432, 66.17667
275.3253, 66.36265
275.8075, 66.35682
276.2896, 66.39927
276.7717, 66.57620
277.2538, 66.80910
277.7359, 66.94366
278.2180, 66.75597
278.7002, 66.83365
279.1823, 67.38135
279.6644, 68.09077
280.1465, 68.74209
280.6286, 69.26151
281.1107, 69.58402
281.5929, 69.58388
282.0750, 69.03186
282.5571, 68.71713
283.0392, 68.74249
283.5213, 68.93477
284.0034, 69.17320
284.4856, 69.43228
284.9677, 69.71607
285.4498, 70.01234
285.9319, 70.30234
286.4140, 70.78139
286.8961, 71.69507
287.3783, 72.60500
287.8604, 73.10728
288.3425, 73.23576
288.8246, 73.43073
289.3067, 74.11491
289.7888, 75.30094
290.2710, 76.10571
290.7531, 76.19167
291.2352, 76.23634
291.7173, 76.64472
292.1994, 77.36703
292.6815, 78.10920
293.1637, 78.67787
293.6458, 79.10464
294.1279, 79.60190
294.6100, 80.12785
295.0921, 80.75207
295.5742, 81.57979
296.0564, 82.53783
296.5385, 83.40400
297.0206, 84.03352
297.5027, 84.55375
297.9848, 85.38974
298.4669, 86.77445
298.9491, 88.01138
299.4312, 88.64961
299.9133, 89.01967
300.3954, 89.82946
300.8775, 91.40092
301.3596, 93.30424
301.8418, 94.69341
302.3239, 95.49168
302.8060, 96.28226
303.2881, 97.13460
303.7702, 98.08099
304.2523, 99.18083
304.7345, 100.4508
305.2166, 101.8152
305.6987, 103.1697
306.1808, 104.5127
306.6629, 105.8805
307.1451, 107.3080
307.6272, 108.7478
308.1093, 110.0697
308.5914, 111.2603
309.0735, 112.6022
309.5556, 114.4397
310.0378, 116.7431
310.5199, 118.7746
311.0020, 120.1831
311.4841, 121.5396
311.9662, 123.3596
312.4483, 125.6154
312.9305, 127.8264
313.4126, 129.6742
313.8947, 131.2372
314.3768, 132.9854
314.8589, 134.8149
315.3410, 136.9122
315.8232, 139.5893
316.3053, 142.6748
316.7874, 145.4826
317.2695, 147.5777
317.7516, 149.3523
318.2337, 151.8086
318.7159, 155.1563
319.1980, 158.5662
319.6801, 161.7153
320.1622, 164.7157
320.6443, 167.7811
321.1264, 170.9668
321.6086, 174.2601
322.0907, 177.6223
322.5728, 181.0723
323.0549, 184.4933
323.5370, 187.6091
324.0191, 190.7955
324.5013, 194.6328
324.9834, 199.2714
325.4655, 203.9904
325.9476, 208.0475
326.4297, 211.4122
326.9118, 214.9398
327.3940, 218.6287
327.8761, 222.5301
328.3582, 226.8340
328.8403, 231.4832
329.3224, 235.9468
329.8045, 239.7698
330.2867, 243.0599
330.7688, 246.6801
331.2509, 250.7737
331.7330, 255.0259
332.2151, 259.4885
332.6972, 264.0263
333.1794, 268.2152
333.6615, 271.7934
334.1436, 274.9590
334.6257, 278.3195
335.1078, 282.1107
335.5899, 285.5853
336.0721, 288.4781
336.5542, 290.9368
337.0363, 293.1657
337.5184, 295.2427
338.0005, 297.1450
338.4826, 298.8861
338.9648, 300.5220
339.4469, 301.7314
339.9290, 302.4180
340.4111, 302.6945
340.8932, 302.5764
341.3753, 302.0892
341.8575, 301.5121
342.3396, 301.2082
342.8217, 301.2008
343.3038, 300.3599
343.7859, 298.4826
344.2680, 295.9965
344.7502, 293.0829
345.2323, 289.7684
345.7144, 286.0487
346.1965, 281.8790
346.6786, 277.3233
347.1607, 272.7290
347.6429, 268.3420
348.1250, 263.6521
348.6071, 258.3279
349.0892, 252.6347
349.5713, 247.0653
350.0534, 241.7933
350.5356, 236.6758
351.0177, 231.3036
351.4998, 225.3836
351.9819, 219.8380
352.4640, 215.0405
352.9461, 210.4407
353.4283, 205.4312
353.9104, 199.9174
354.3925, 194.3304
354.8746, 189.1356
355.3567, 184.3979
355.8388, 179.8189
356.3210, 175.4749
356.8031, 171.1756
357.2852, 166.7171
357.7673, 162.1882
358.2494, 157.8608
358.7315, 153.9570
359.2137, 150.4326
359.6958, 147.1026
360.1779, 143.9125
360.6600, 140.9603
361.1421, 138.4426
361.6242, 136.1163
362.1064, 133.6076
362.5885, 130.7690
363.0706, 127.7908
363.5527, 125.1340
364.0348, 123.1334
364.5169, 120.9435
364.9991, 118.2825
365.4812, 115.6484
365.9633, 113.4150
366.4454, 111.6384
366.9275, 110.1158
367.4096, 108.6183
367.8918, 107.1363
368.3739, 105.7575
368.8560, 104.6040
369.3381, 103.4259
369.8202, 102.1011
370.3023, 100.6673
370.7845, 99.22672
371.2666, 97.83672
371.7487, 96.49537
372.2308, 95.19114
372.7129, 93.87959
373.1950, 92.67300
373.6772, 91.54678
374.1593, 90.54744
374.6414, 89.77820
375.1235, 89.26600
375.6056, 88.85667
376.0877, 88.30273
376.5699, 87.58488
377.0520, 86.76274
377.5341, 85.69748
378.0162, 84.64919
378.4983, 83.76961
378.9804, 83.05988
379.4626, 82.41639
379.9447, 81.74792
380.4268, 81.05766
380.9089, 80.42251
381.3910, 79.95003
381.8731, 79.39246
382.3553, 78.58492
382.8374, 77.65451
383.3195, 76.80477
383.8016, 76.14481
384.2837, 75.60814
384.7658, 75.02702
385.2480, 74.35064
385.7301, 73.81040
386.2122, 73.72115
386.6943, 73.66659
387.1764, 73.26090
387.6585, 72.42942
388.1407, 71.55027
388.6228, 71.00657
389.1049, 70.77032
389.5870, 70.49360
390.0691, 70.17355
390.5512, 69.73078
391.0334, 68.96457
391.5155, 67.99879
391.9976, 67.29696
392.4797, 67.26743
392.9618, 67.58114
393.4439, 67.63414
393.9261, 67.38776
394.4082, 67.06154
394.8903, 66.76039
395.3724, 66.46364
395.8545, 66.12991
396.3366, 65.72984
396.8188, 65.33414
397.3009, 64.99657
397.7830, 64.70856
398.2651, 64.43330
398.7472, 64.17711
399.2293, 63.90133
399.7115, 63.50578
400.1936, 62.97575
400.6757, 62.58426
401.1578, 62.55012
401.6399, 62.63330
402.1220, 62.54579
402.6042, 62.25264
403.0863, 61.82215
403.5684, 61.23724
404.0505, 60.53856
404.5326, 60.10772
405.0147, 60.10180
405.4969, 60.19796
405.9790, 60.32778
406.4611, 60.43975
406.9432, 60.40043
407.4253, 60.13540
407.9074, 59.74542
408.3896, 59.45978
408.8717, 59.33598
409.3538, 59.20650
409.8359, 59.11623
410.3180, 58.98154
410.8001, 58.67754
411.2823, 58.21381
411.7644, 57.76200
412.2465, 57.50800
412.7286, 57.47789
413.2107, 57.34328
413.6928, 56.92878
414.1750, 56.61021
414.6571, 56.59729
415.1392, 56.75514
415.6213, 56.82459
416.1034, 56.66779
416.5855, 56.40225
417.0677, 56.36501
417.5498, 56.83441
418.0319, 57.04144
418.5140, 56.81479
418.9961, 56.43669
419.4782, 56.05675
419.9604, 55.72622
420.4425, 55.47530
420.9246, 55.34318
421.4067, 55.33351
421.8888, 55.36931
422.3709, 55.55805
422.8531, 55.66114
423.3352, 55.55015
423.8173, 55.31568
424.2994, 55.10006
424.7815, 54.96626
425.2636, 54.89180
425.7458, 54.82825
426.2279, 54.76118
426.7100, 54.77000
427.1921, 55.01487
427.6742, 55.24592
428.1563, 55.21488
428.6385, 54.91892
429.1206, 54.68216
429.6027, 54.77929
430.0848, 55.12848
430.5669, 55.44104
431.0490, 55.69147
431.5312, 55.91329
432.0133, 56.13975
432.4954, 56.35496
432.9775, 56.51202
433.4596, 56.52229
433.9417, 56.55946
434.4239, 56.79981
434.9060, 57.21833
435.3881, 57.67516
435.8702, 58.15729
436.3523, 58.59353
436.8344, 58.81353
437.3166, 58.77380
437.7987, 58.82715
438.2808, 59.22084
438.7629, 59.67279
439.2450, 59.78691
439.7271, 59.54029
440.2093, 59.31512
440.6914, 59.43456
441.1735, 59.88233
441.6556, 60.26572
442.1377, 60.55744
442.6198, 60.82447
443.1020, 61.09523
443.5841, 61.35630
444.0662, 61.58934
444.5483, 61.78936
445.0304, 61.94261
445.5125, 62.01572
445.9947, 61.91656
446.4768, 61.95330
446.9589, 62.25407
447.4410, 62.56030
447.9231, 62.67959
448.4052, 62.66088
448.8874, 62.71173
449.3695, 63.01217
449.8516, 63.48833
450.3337, 63.67107
450.8158, 63.31911
451.2979, 63.04081
451.7801, 63.09277
452.2622, 63.18510
452.7443, 63.10984
453.2264, 62.79775
453.7085, 62.17084
454.1906, 60.96529
454.6728, 59.15200
455.1549, 57.74860
455.6370, 57.08408
456.1191, 56.51615
456.6012, 55.67490
457.0833, 54.65554
457.5655, 53.65949
458.0476, 52.70039
458.5297, 51.88934
459.0118, 51.47929
459.4939, 51.48324
459.9760, 51.42294
460.4582, 51.08451
460.9403, 50.62857
461.4224, 50.26881
461.9045, 50.00694
462.3866, 49.81688
462.8687, 49.74688
463.3508, 49.71869
463.8329, 49.57191
464.3151, 49.28645
464.7972, 49.08897
465.2793, 49.22334
465.7614, 49.61554
466.2435, 49.67445
466.7256, 49.08520
467.2078, 48.54415
467.6899, 48.29924
468.1720, 48.26772
468.6541, 48.36437
469.1362, 48.55802
469.6183, 48.72325
470.1005, 48.65584
470.5826, 48.22467
471.0647, 47.99925
471.5468, 48.11637
472.0289, 48.27810
472.5110, 48.34792
472.9932, 48.34177
473.4753, 48.32767
473.9574, 48.34549
474.4395, 48.38477
474.9216, 48.42171
475.4037, 48.50024
475.8859, 48.48264
476.3680, 48.18935
476.8501, 47.92318
477.3322, 47.95453
477.8143, 48.26971
478.2964, 48.59740
478.7786, 48.69993
479.2607, 48.61007
479.7428, 48.51608
480.2249, 48.38202
480.7070, 48.32231
481.1891, 48.38038
481.6713, 48.54720
482.1534, 48.85693
482.6355, 49.36936
483.1176, 49.85114
483.5997, 50.07130
484.0818, 50.08960
484.5640, 50.15669
485.0461, 50.35171
485.5282, 50.52927
486.0103, 50.47829
486.4924, 50.23605
486.9745, 50.14734
487.4567, 50.33993
487.9388, 50.62744
488.4209, 50.91398
488.9030, 51.18919
489.3851, 51.45470
489.8672, 51.71746
490.3494, 51.94074
490.8315, 52.04761
491.3136, 51.95840
491.7957, 51.89588
492.2778, 51.76815
492.7599, 51.74004
493.2421, 51.99685
493.7242, 52.47756
494.2063, 52.95366
494.6884, 53.26936
495.1705, 53.43652
495.6526, 53.50655
496.1348, 53.32870
496.6169, 53.30153
497.0990, 53.55180
497.5811, 53.91089
498.0632, 54.28891
498.5453, 54.64814
499.0275, 54.91146
499.5096, 54.96479
499.9917, 54.83165
500.4738, 54.78519
500.9559, 54.93864
501.4380, 54.95066
501.9202, 54.53354
502.4023, 53.91091
502.8844, 53.38005
503.3665, 53.03128
503.8486, 52.71563
504.3307, 52.36481
504.8129, 51.95597
505.2950, 51.35802
505.7771, 50.48427
506.2592, 49.63128
506.7413, 49.12172
507.2234, 48.94295
507.7056, 48.74775
508.1877, 48.47583
508.6698, 48.21832
509.1519, 48.06857
509.6340, 47.97178
510.1161, 47.80531
510.5983, 47.51774
511.0804, 47.13628
511.5625, 46.68342
512.0446, 46.03180
512.5267, 45.65464
513.0089, 45.71717
513.4910, 45.86547
513.9731, 45.93592
514.4552, 45.93721
514.9373, 45.95298
515.4194, 46.04138
515.9016, 46.13601
516.3837, 46.02354
516.8658, 45.57123
517.3479, 45.27729
517.8300, 45.44109
518.3121, 45.61622
518.7943, 45.48135
519.2764, 45.07547
519.7585, 44.70945
520.2406, 44.59239
520.7227, 44.64292
521.2048, 44.71638
521.6870, 44.82468
522.1691, 44.85095
522.6512, 44.69514
523.1333, 44.45940
523.6154, 44.31289
524.0975, 44.26916
524.5797, 44.25159
525.0618, 44.22625
525.5439, 44.21373
526.0260, 44.24972
526.5081, 44.33393
526.9902, 44.42147
527.4724, 44.47892
527.9545, 44.51323
528.4366, 44.56531
528.9187, 44.75772
529.4008, 44.80793
529.8829, 44.61856
530.3651, 44.30677
530.8472, 43.91555
531.3293, 43.49237
531.8114, 43.17692
532.2935, 43.12084
532.7756, 43.31108
533.2578, 43.48144
533.7399, 43.67550
534.2220, 43.77628
534.7041, 43.66297
535.1862, 43.50053
535.6683, 43.49976
536.1505, 43.70385
536.6326, 43.87300
537.1147, 43.68987
537.5968, 43.25914
538.0789, 43.14559
538.5610, 43.52568
539.0432, 43.79418
539.5253, 43.38834
540.0074, 42.60763
540.4895, 42.14384
540.9716, 42.15586
541.4537, 42.31246
541.9359, 42.50621
542.4180, 42.71439
542.9001, 42.92613
543.3822, 43.13627
543.8643, 43.25068
544.3464, 43.15718
544.8286, 42.84772
545.3107, 42.61354
545.7928, 42.49369
546.2749, 42.38995
546.7570, 42.28679
547.2391, 42.18144
547.7213, 42.02600
548.2034, 41.82648
548.6855, 41.72348
549.1676, 41.94428
549.6497, 42.52215
550.1318, 42.87384
550.6140, 42.89222
551.0961, 42.82606
551.5782, 42.76915
552.0603, 42.69673
552.5424, 42.55088
553.0245, 42.29696
553.5067, 42.08803
553.9888, 42.11121
554.4709, 42.30275
554.9530, 42.41399
555.4351, 42.39466
555.9172, 42.34959
556.3994, 42.36556
556.8815, 42.42787
557.3636, 42.45344
557.8457, 42.43785
558.3278, 42.38770
558.8099, 42.23719
559.2921, 42.07859
559.7742, 42.07521
560.2563, 42.25441
560.7384, 42.47386
561.2205, 42.59171
561.7026, 42.60822
562.1848, 42.52277
562.6669, 42.20360
563.1490, 41.93133
563.6311, 41.70866
564.1132, 41.58547
564.5953, 41.66502
565.0775, 41.95363
565.5596, 42.25416
566.0417, 42.33452
566.5238, 42.21904
567.0059, 42.17469
567.4880, 42.25023
567.9702, 42.29554
568.4523, 42.16076
568.9344, 41.96962
569.4165, 41.90469
569.8986, 42.01978
570.3807, 42.15254
570.8629, 42.26080
571.3450, 42.30933
571.8271, 42.16811
572.3092, 41.83042
572.7913, 41.59359
573.2734, 41.72027
573.7556, 42.13960
574.2377, 42.34714
574.7198, 42.11431
575.2019, 41.98580
575.6840, 42.11329
576.1661, 42.31946
576.6483, 42.48260
577.1304, 42.56307
577.6125, 42.52522
578.0946, 42.31385
578.5767, 41.96931
579.0588, 41.71361
579.5410, 41.53507
580.0231, 41.47407
580.5052, 41.65548
580.9873, 41.88428
581.4694, 42.01484
581.9515, 42.03538
582.4337, 42.01192
582.9158, 41.97114
583.3979, 41.91445
583.8800, 41.81489
584.3621, 41.67772
584.8442, 41.62505
585.3264, 41.72508
585.8085, 41.92751
586.2906, 42.16107
586.7727, 42.49567
587.2548, 42.64462
587.7369, 42.49376
588.2191, 42.22604
588.7012, 41.83765
589.1833, 41.43922
589.6654, 41.29821
590.1475, 41.57018
590.6296, 42.04282
591.1118, 42.24548
591.5939, 42.08926
592.0760, 41.93821
592.5581, 41.78482
593.0402, 41.67282
593.5223, 41.64540
594.0045, 41.67276
594.4866, 41.68730
594.9687, 41.66077
595.4508, 41.61359
595.9329, 41.55415
596.4150, 41.48951
596.8972, 41.47228
597.3793, 41.52966
597.8614, 41.57883
598.3435, 41.51767
598.8256, 41.35207
599.3077, 41.28865
599.7899, 41.45939
600.2720, 41.58119
600.7541, 41.49221
601.2362, 41.31572
601.7183, 41.24083
602.2004, 41.30021
602.6826, 41.34804
603.1647, 41.20631
603.6468, 40.88527
604.1289, 40.76308
604.6110, 40.99331
605.0931, 41.17936
605.5753, 41.19897
606.0574, 41.14742
606.5395, 41.08027
607.0216, 41.01471
607.5037, 41.02671
607.9858, 41.26426
608.4680, 41.58514
608.9501, 41.64947
609.4322, 41.44476
609.9143, 41.33997
610.3964, 41.56178
610.8785, 41.92611
611.3607, 42.04948
611.8428, 41.87519
612.3249, 41.69230
612.8070, 41.51858
613.2891, 41.35746
613.7712, 41.19462
614.2534, 41.04640
614.7355, 40.95935
615.2176, 40.95782
615.6997, 40.99578
616.1818, 40.97047
616.6639, 40.84391
617.1461, 40.82854
617.6282, 41.02239
618.1103, 41.22768
618.5924, 41.39436
619.0745, 41.49994
619.5566, 41.49188
620.0388, 41.32123
620.5209, 41.14060
621.0030, 41.12503
621.4851, 41.19414
621.9672, 41.10686
622.4493, 40.81614
622.9315, 40.54292
623.4136, 40.45658
623.8957, 40.53261
624.3778, 40.62297
624.8599, 40.68262
625.3420, 40.81634
625.8242, 41.15370
626.3063, 41.48702
626.7884, 41.61039
627.2705, 41.54547
627.7526, 41.46537
628.2347, 41.49437
628.7169, 41.58766
629.1990, 41.60560
629.6811, 41.51981
630.1632, 41.49840
630.6453, 41.65335
631.1274, 41.80153
631.6096, 41.76011
632.0917, 41.57896
632.5738, 41.46939
633.0559, 41.53438
633.5380, 41.65462
634.0201, 41.76081
634.5023, 41.84989
634.9844, 41.91587
635.4665, 41.95751
635.9486, 41.96726
636.4307, 41.92741
636.9128, 41.83649
637.3950, 41.80914
637.8771, 41.95808
638.3592, 42.03181
638.8413, 41.93139
639.3234, 41.77850
639.8055, 41.66234
640.2877, 41.60757
640.7698, 41.62935
641.2519, 41.77485
641.7340, 41.98917
642.2161, 42.13385
642.6982, 42.20763
643.1804, 42.23871
643.6625, 42.23613
644.1446, 42.19628
644.6267, 42.08043
645.1088, 41.88523
645.5909, 41.78495
646.0731, 41.88029
646.5552, 41.99818
647.0373, 42.07672
647.5194, 42.09816
648.0015, 42.00639
648.4836, 41.79544
648.9658, 41.59051
649.4479, 41.56781
649.9300, 41.73140
650.4121, 41.74152
650.8942, 41.43090
651.3763, 41.25187
651.8585, 41.54646
652.3406, 41.90903
652.8227, 41.88816
653.3048, 41.44065
653.7869, 41.04075
654.2690, 41.02805
654.7512, 41.16363
655.2333, 41.10790
655.7154, 40.88725
656.1975, 40.74210
656.6796, 40.78783
657.1617, 40.88054
657.6439, 40.76546
658.1260, 40.31985
658.6081, 40.17498
659.0902, 40.62492
659.5723, 41.00118
660.0544, 41.07648
660.5366, 40.94098
661.0187, 40.67010
661.5008, 40.30467
661.9829, 39.99282
662.4650, 39.87241
662.9471, 39.92771
663.4293, 40.16512
663.9114, 40.63796
664.3935, 40.92533
664.8756, 40.73494
665.3577, 40.35265
665.8398, 40.29092
666.3220, 40.59496
666.8041, 40.83578
667.2862, 40.89521
667.7683, 40.91839
668.2504, 41.05273
668.7325, 41.21034
669.2147, 41.19569
669.6968, 40.94161
670.1789, 40.57172
670.6610, 40.19591
671.1431, 39.80245
671.6252, 39.73384
672.1074, 40.21814
672.5895, 40.59752
673.0716, 40.45805
673.5537, 40.16293
674.0358, 40.10701
674.5179, 40.33793
675.0001, 40.54221
675.4822, 40.59264
675.9643, 40.53970
676.4464, 40.34434
676.9285, 40.08012
677.4106, 40.03291
677.8928, 40.32992
678.3749, 40.71147
678.8570, 40.77325
679.3391, 40.43818
679.8212, 40.24819
680.3033, 40.28901
680.7855, 40.38061
681.2676, 40.51725
681.7497, 40.66149
682.2318, 40.79218
682.7139, 40.90067
683.1960, 40.93722
683.6782, 40.81323
684.1603, 40.61757
684.6424, 40.50255
685.1245, 40.46771
685.6066, 40.48103
686.0887, 40.54015
686.5709, 40.60982
687.0530, 40.64277
687.5351, 40.63902
688.0172, 40.59288
688.4993, 40.43228
688.9814, 40.31869
689.4636, 40.30247
689.9457, 40.36200
690.4278, 40.52776
690.9099, 40.77428
691.3920, 40.91847
691.8741, 40.74141
692.3563, 40.36863
692.8384, 40.15366
693.3205, 40.10300
693.8026, 40.10604
694.2847, 40.14676
694.7668, 40.19362
695.2490, 40.23274
695.7311, 40.26773
696.2132, 40.16240
696.6953, 39.66120
697.1774, 39.30782
697.6595, 39.43026
698.1417, 39.76161
698.6238, 40.00356
699.1059, 40.08506
699.5880, 40.06024
700.0701, 39.95135
700.5522, 39.79055
701.0344, 39.68758
701.5165, 39.64256
701.9986, 39.65495
702.4807, 39.75689
702.9628, 39.87500
703.4449, 39.95900
703.9271, 40.00486
704.4092, 39.96894
704.8913, 39.74474
705.3734, 39.55534
705.8555, 39.58737
706.3376, 39.66313
706.8198, 39.48310
707.3019, 39.06557
707.7840, 38.75390
708.2661, 38.82023
708.7482, 39.15425
709.2303, 39.42932
709.7125, 39.64812
710.1946, 39.79284
710.6767, 39.86279
711.1588, 39.85203
711.6409, 39.68040
712.1230, 39.43116
712.6052, 39.33551
713.0873, 39.54907
713.5694, 39.70206
714.0515, 39.50843
714.5336, 39.21755
715.0157, 39.15020
715.4979, 39.30909
715.9800, 39.50748
716.4621, 39.63087
716.9442, 39.72045
717.4263, 39.91169
717.9084, 40.29586
718.3906, 40.36575
718.8727, 39.80313
719.3548, 39.32514
719.8369, 39.41314
720.3190, 39.77088
720.8011, 39.94450
721.2833, 39.84757
721.7654, 39.65314
722.2475, 39.29280
722.7296, 38.98156
723.2117, 39.06957
723.6938, 39.44290
724.1760, 39.62598
724.6581, 39.39858
725.1402, 39.03166
725.6223, 38.97022
726.1044, 39.26417
726.5865, 39.44265
727.0687, 39.45675
727.5508, 39.43312
728.0329, 39.36868
728.5150, 39.31786
728.9971, 39.39022
729.4792, 39.58899
729.9614, 39.63771
730.4435, 39.18098
730.9256, 38.73071
731.4077, 38.88324
731.8898, 39.39789
732.3719, 39.64333
732.8541, 39.44676
733.3362, 39.15456
733.8183, 39.13927
734.3004, 39.36943
734.7825, 39.50335
735.2646, 39.52848
735.7468, 39.48191
736.2289, 39.24609
736.7110, 39.04643
737.1931, 39.10730
737.6752, 39.35571
738.1573, 39.47465
738.6395, 39.28758
739.1216, 39.05758
739.6037, 38.94555
740.0858, 38.91136
740.5679, 38.89210
741.0500, 38.88055
741.5322, 38.91207
742.0143, 39.01792
742.4964, 39.15960
742.9785, 39.21589
743.4606, 39.14816
743.9427, 39.14808
744.4249, 39.37186
744.9070, 39.47742
745.3891, 39.09999
745.8712, 38.55247
746.3533, 38.41038
746.8354, 38.86943
747.3176, 39.24973
747.7997, 39.15851
748.2818, 38.90348
748.7639, 38.75836
749.2460, 38.72817
749.7281, 38.77397
750.2103, 38.87745
750.6924, 38.97270
751.1745, 38.95727
751.6566, 38.83002
752.1387, 38.74263
752.6208, 38.69245
753.1030, 38.68901
753.5851, 38.72194
754.0672, 38.81708
754.5493, 39.06438
755.0314, 39.44835
755.5135, 39.65577
755.9957, 39.49383
756.4778, 39.26275
756.9599, 39.07504
757.4420, 38.95098
757.9241, 38.97200
758.4063, 39.11057
758.8884, 39.14373
759.3705, 38.85681
759.8526, 38.43316
760.3347, 38.45444
760.8168, 38.99089
761.2990, 39.33960
761.7811, 39.31841
762.2632, 39.22698
762.7453, 39.28510
763.2274, 39.44048
763.7095, 39.53936
764.1917, 39.61759
764.6738, 39.55547
765.1559, 39.14750
765.6380, 38.74555
766.1201, 38.63950
766.6022, 38.74998
767.0844, 38.85123
767.5665, 38.85548
768.0486, 38.89088
768.5307, 39.22024
769.0128, 39.73762
769.4949, 39.83219
769.9771, 39.44357
770.4592, 39.09290
770.9413, 38.97704
771.4234, 39.00188
771.9055, 39.08588
772.3876, 39.25440
772.8698, 39.21019
773.3519, 38.61289
773.8340, 38.23938
774.3161, 38.48725
774.7982, 38.92577
775.2803, 39.16618
775.7625, 39.17699
776.2446, 39.10284
776.7267, 38.99673
777.2088, 38.90658
777.6909, 38.92844
778.1730, 39.02562
778.6552, 39.04665
779.1373, 38.96587
779.6194, 38.87604
780.1015, 38.83613
780.5836, 38.83484
781.0657, 38.84141
781.5479, 38.86848
782.0300, 38.87427
782.5121, 38.78399
782.9942, 38.75601
783.4763, 38.94854
783.9584, 39.19316
784.4406, 39.22279
784.9227, 38.98806
785.4048, 38.79620
785.8869, 38.90310
786.3690, 39.08491
786.8511, 39.06208
787.3333, 38.90224
787.8154, 38.81511
788.2975, 38.86084
788.7796, 38.97064
789.2617, 39.08367
789.7438, 39.19505
790.2260, 39.26536
790.7081, 39.27828
791.1902, 39.30077
791.6723, 39.36395
792.1544, 39.41600
792.6365, 39.40673
793.1187, 39.35953
793.6008, 39.33543
794.0829, 39.35059
794.5650, 39.37075
795.0471, 39.41013
795.5292, 39.42765
796.0114, 39.34716
796.4935, 39.21889
796.9756, 39.18854
797.4577, 39.31053
797.9398, 39.43305
798.4219, 39.31821
798.9041, 39.02678
799.3862, 38.93521
799.8683, 39.06861
800.3504, 39.13238
800.8325, 38.99866
801.3146, 38.80831
801.7968, 38.71883
802.2789, 38.73195
802.7610, 38.76354
803.2431, 38.86839
803.7252, 38.91526
804.2073, 38.80204
804.6895, 38.68946
805.1716, 38.73922
805.6537, 38.89983
806.1358, 38.98433
806.6179, 38.88852
807.1000, 38.79995
807.5822, 38.95601
808.0643, 39.22428
808.5464, 39.31007
809.0285, 39.21700
809.5106, 39.15731
809.9927, 39.23076
810.4749, 39.39006
810.9570, 39.57872
811.4391, 39.80822
811.9212, 39.91700
812.4033, 39.85711
812.8854, 39.76721
813.3676, 39.61614
813.8497, 39.50777
814.3318, 39.60376
814.8139, 39.85530
815.2960, 39.93838
815.7781, 39.56270
816.2603, 39.27864
816.7424, 39.49180
817.2245, 39.81664
817.7066, 39.75739
818.1887, 39.39235
818.6708, 39.19416
819.1530, 39.42191
819.6351, 39.73071
820.1172, 39.51461
820.5993, 38.89626
821.0814, 38.73805
821.5635, 39.12536
822.0457, 39.43087
822.5278, 39.36945
823.0099, 39.13376
823.4920, 38.99415
823.9741, 38.96548
824.4562, 38.88832
824.9384, 38.58261
825.4205, 38.46730
825.9026, 38.78796
826.3847, 39.18418
826.8668, 39.38620
827.3489, 39.40251
827.8311, 39.34009
828.3132, 39.19427
828.7953, 39.09131
829.2774, 39.15937
829.7595, 39.31200
830.2416, 39.47464
830.7238, 39.60522
831.2059, 39.56081
831.6880, 39.27301
832.1701, 38.93496
832.6522, 38.82043
833.1343, 38.92400
833.6165, 39.12883
834.0985, 39.48011
834.5806, 39.75039
835.0627, 39.86063
835.5449, 39.87432
836.0270, 39.84996
836.5091, 39.78546
836.9912, 39.67521
837.4733, 39.52308
837.9554, 39.31991
838.4376, 38.90214
838.9197, 38.57764
839.4018, 38.62945
839.8839, 38.94645
840.3660, 39.28814
840.8481, 39.57951
841.3303, 39.72639
841.8124, 39.52995
842.2945, 39.19838
842.7766, 39.12564
843.2587, 39.25983
843.7408, 39.27514
844.2230, 39.06527
844.7051, 38.85017
845.1872, 38.88982
845.6693, 39.12781
846.1514, 39.15216
846.6335, 38.86610
847.1157, 38.71143
847.5978, 38.83440
848.0799, 38.99651
848.5620, 39.03367
849.0441, 38.98687
849.5262, 38.95638
850.0084, 38.95656
850.4905, 38.94072
850.9726, 38.87523
851.4547, 38.81673
851.9368, 38.75211
852.4189, 38.73671
852.9011, 38.91946
853.3832, 39.28586
853.8653, 39.52015
854.3474, 39.31466
854.8295, 38.93972
855.3116, 38.75770
855.7938, 38.74016
856.2759, 38.85230
856.7580, 39.07251
857.2401, 39.18976
857.7222, 39.03912
858.2043, 38.76783
858.6865, 38.77553
859.1686, 39.17363
859.6507, 39.24177
860.1328, 38.76322
860.6149, 38.38282
861.0970, 38.41380
861.5792, 38.63441
862.0613, 38.80809
862.5434, 38.93444
863.0255, 38.91938
863.5076, 38.57957
863.9897, 38.31914
864.4719, 38.36650
864.9540, 38.46925
865.4361, 38.35481
865.9182, 38.08744
866.4003, 37.93428
866.8824, 38.02375
867.3646, 38.13309
867.8467, 37.97561
868.3288, 37.73119
868.8109, 37.78892
869.2930, 38.08650
869.7751, 38.24027
870.2573, 38.11469
870.7394, 37.92191
871.2215, 37.90339
871.7036, 38.01781
872.1857, 37.93657
872.6678, 36.96495
873.1500, 37.36989
873.6321, 37.61435
874.1142, 37.70600
874.5963, 37.24311
875.0784, 37.45345
875.5605, 37.36780
876.0427, 37.25206
876.5248, 37.50369
877.0069, 37.02524
877.4890, 37.23334
877.9711, 37.14122
878.4532, 37.15925
878.9354, 36.87954
879.4175, 36.66735
879.8996, 37.02961
880.3817, 36.93140
880.8638, 36.83041
881.3459, 36.92281
881.8281, 37.09232
882.3102, 37.14972
882.7923, 37.08804
883.2744, 36.99430
883.7565, 36.91211
884.2386, 36.81673
884.7208, 36.66387
885.2029, 36.46165
885.6850, 36.26522
886.1671, 36.06988
886.6492, 35.94621
887.1313, 35.93290
887.6135, 35.94364
888.0956, 35.88659
888.5777, 35.77957
889.0598, 35.74048
889.5419, 35.80314
890.0240, 35.87494
890.5062, 36.01162
890.9883, 36.09137
891.4704, 36.03880
891.9525, 35.90703
892.4346, 35.74284
892.9167, 35.54790
893.3989, 35.45719
893.8810, 35.61178
894.3631, 35.77650
894.8452, 35.80185
895.3273, 35.76291
895.8094, 35.76978
896.2916, 35.81514
896.7737, 35.79274
897.2558, 35.63067
897.7379, 35.47133
898.2200, 35.52204
898.7021, 35.70054
899.1843, 35.81389
899.6664, 35.85203
900.1485, 35.82018
900.6306, 35.71732
901.1127, 35.64024
901.5948, 35.71085
902.0770, 35.89782
902.5591, 35.98179
903.0412, 35.91954
903.5233, 35.97503
904.0054, 36.30270
904.4875, 36.50731
904.9697, 36.20652
905.4518, 35.67803
905.9339, 35.58585
906.4160, 36.07954
906.8981, 36.48242
907.3802, 36.83230
907.8624, 37.02816
908.3445, 36.97433
908.8266, 36.79882
909.3087, 36.55022
909.7908, 36.28480
910.2729, 36.16460
910.7551, 36.27705
911.2372, 36.47165
911.7193, 36.73383
912.2014, 36.97259
912.6835, 37.04052
913.1656, 37.01126
913.6478, 37.08870
914.1299, 37.32683
914.6120, 37.55990
915.0941, 37.63317
915.5762, 37.59849
916.0583, 37.54891
916.5405, 37.48544
917.0226, 37.39484
917.5047, 37.27750
917.9868, 37.24476
918.4689, 37.38774
918.9510, 37.56633
919.4332, 37.48528
919.9153, 37.11938
920.3974, 36.76583
920.8795, 36.39706
921.3616, 36.13143
921.8438, 36.03814
922.3259, 36.01719
922.8080, 36.00295
923.2901, 35.98435
923.7722, 35.87730
924.2543, 35.59448
924.7365, 35.36650
925.2186, 35.19062
925.7007, 35.08469
926.1828, 35.11978
926.6649, 35.19619
927.1470, 35.20580
927.6292, 35.12798
928.1113, 34.93100
928.5934, 34.40541
929.0755, 33.98447
929.5576, 34.01864
930.0397, 34.23199
930.5219, 34.35851
931.0040, 34.35724
931.4861, 34.21525
931.9682, 33.92533
932.4503, 33.66314
932.9324, 33.65292
933.4146, 33.76525
933.8967, 33.73744
934.3788, 33.60440
934.8609, 33.51207
935.3430, 33.49516
935.8251, 33.52116
936.3073, 33.56908
936.7894, 33.62914
937.2715, 33.68465
937.7536, 33.73592
938.2357, 33.74718
938.7178, 33.70945
939.2000, 33.67884
939.6821, 33.69579
940.1642, 33.67673
940.6463, 33.48340
941.1284, 33.14325
941.6105, 33.05239
942.0927, 33.39012
942.5748, 33.61991
943.0569, 33.49233
943.5390, 33.49221
944.0211, 34.12495
944.5032, 34.90657
944.9854, 35.00939
945.4675, 34.31966
945.9496, 33.90265
946.4317, 34.19462
946.9138, 34.45477
947.3959, 34.31488
947.8781, 34.12132
948.3602, 34.19506
948.8423, 34.48253
949.3244, 34.77482
949.8065, 35.00932
950.2886, 35.22064
950.7708, 35.45884
951.2529, 35.65542
951.7350, 35.71015
952.2171, 35.68927
952.6992, 35.71735
953.1813, 35.80817
953.6635, 35.87059
954.1456, 35.82628
954.6277, 35.82501
955.1098, 36.09247
955.5919, 36.55880
956.0740, 37.10193
956.5562, 37.67830
957.0383, 38.04694
957.5204, 38.13008
958.0025, 38.25227
958.4846, 38.75532
958.9667, 39.52405
959.4489, 40.16895
959.9310, 40.68382
960.4131, 41.22518
960.8952, 41.80861
961.3773, 42.44714
961.8594, 43.19907
962.3416, 43.89104
962.8237, 44.21601
963.3058, 44.16499
963.7879, 44.52130
964.2700, 45.49070
964.7521, 46.41878
965.2343, 47.28397
965.7164, 47.99686
966.1985, 48.35343
966.6806, 48.57240
967.1627, 49.16265
967.6448, 50.26540
968.1270, 51.02500
968.6091, 51.06402
969.0912, 51.17030
969.5733, 51.66737
970.0554, 52.23787
970.5375, 52.57560
971.0197, 52.76292
971.5018, 53.08327
971.9839, 53.64082
972.4660, 54.16377
972.9481, 54.58736
973.4302, 54.88537
973.9124, 54.97419
974.3945, 54.96231
974.8766, 55.02773
975.3587, 55.14797
975.8408, 55.11255
976.3229, 54.78804
976.8051, 54.39994
977.2872, 54.12976
977.7693, 53.92224
978.2514, 53.69341
978.7335, 53.46328
979.2156, 53.31180
979.6978, 53.24672
980.1799, 53.16046
980.6620, 52.96189
981.1441, 52.72194
981.6262, 52.53737
982.1083, 52.41068
982.5905, 52.36725
983.0726, 52.39936
983.5547, 52.42320
984.0368, 52.40681
984.5189, 52.46020
985.0010, 52.73149
985.4832, 53.12636
985.9653, 53.25236
986.4474, 53.10574
986.9295, 53.17670
987.4116, 53.54757
987.8937, 53.93016
988.3759, 54.18905
988.8580, 54.37957
989.3401, 54.58023
989.8222, 54.78952
990.3043, 54.97411
990.7864, 55.14834
991.2686, 55.26110
991.7507, 55.34499
992.2328, 55.27872
992.7149, 54.92412
993.1970, 54.43565
993.6791, 54.09785
994.1613, 53.94527
994.6434, 53.67505
995.1255, 53.33361
995.6076, 52.80286
996.0897, 51.89708
996.5718, 50.96930
997.0540, 50.29258
997.5361, 49.72559
998.0182, 48.95555
998.5003, 47.90631
998.9824, 46.99633
999.4645, 46.48364
999.9467, 45.86224
1000.429, 44.76672
1000.911, 43.67439
1001.393, 43.04106
1001.875, 42.72584
1002.357, 42.32508
1002.839, 41.73647
1003.321, 41.14209
1003.804, 40.56578
1004.286, 40.05029
1004.768, 39.65363
1005.250, 39.30764
1005.732, 38.90729
1006.214, 38.48484
1006.696, 38.20277
1007.178, 38.15559
1007.661, 38.02227
1008.143, 37.46491
1008.625, 36.83562
1009.107, 36.51052
1009.589, 36.33675
1010.071, 36.01990
1010.553, 35.56278
1011.035, 35.18810
1011.517, 35.01684
1012.000, 34.93319
1012.482, 34.87622
1012.964, 34.79623
1013.446, 34.56309
1013.928, 34.25282
1014.410, 34.11949
1014.892, 34.16475
1015.374, 34.03893
1015.857, 33.49184
1016.339, 32.88822
1016.821, 32.80215
1017.303, 33.05311
1017.785, 33.22780
1018.267, 33.28884
1018.749, 33.10218
1019.231, 32.65371
1019.713, 32.17526
1020.196, 31.82693
1020.678, 31.61877
1021.160, 31.65898
1021.642, 31.88086
1022.124, 31.76167
1022.606, 31.31205
1023.088, 31.14495
1023.570, 31.45010
1024.052, 31.76188
1024.535, 31.69189
1025.017, 31.38688
1025.499, 31.19227
1025.981, 31.10950
1026.463, 31.07482
1026.945, 31.08875
1027.427, 31.14943
1027.909, 31.27873
1028.392, 31.34904
1028.874, 31.24914
1029.356, 31.00470
1029.838, 30.63309
1030.320, 30.03799
1030.802, 29.94458
1031.284, 30.55776
1031.766, 30.93512
1032.249, 30.70616
1032.731, 30.33264
1033.213, 30.23278
1033.695, 30.32334
1034.177, 30.29285
1034.659, 30.08188
1035.141, 29.95020
1035.623, 29.89073
1036.105, 29.94547
1036.588, 30.26429
1037.070, 30.49976
1037.552, 30.26764
1038.034, 29.70856
1038.516, 29.38540
1038.998, 29.40347
1039.480, 29.36628
1039.962, 29.17278
1040.444, 29.08674
1040.927, 29.31402
1041.409, 29.54672
1041.891, 29.48330
1042.373, 29.20012
1042.855, 28.98651
1043.337, 28.77885
1043.819, 28.79155
1044.301, 29.31543
1044.784, 29.67804
1045.266, 29.53103
1045.748, 29.29431
1046.230, 29.35855
1046.712, 29.61947
1047.194, 29.70931
1047.676, 29.50452
1048.158, 29.42797
1048.641, 29.68912
1049.123, 29.86273
1049.605, 29.74638
1050.087, 29.54970
1050.569, 29.45938
1051.051, 29.43585
1051.533, 29.32479
1052.015, 29.06103
1052.497, 28.89498
1052.979, 29.00983
1053.462, 29.05165
1053.944, 28.75287
1054.426, 28.45010
1054.908, 28.52158
1055.390, 28.81000
1055.872, 28.85654
1056.354, 28.53203
1056.836, 28.29610
1057.319, 28.30123
1057.801, 28.36977
1058.283, 28.48747
1058.765, 28.58884
1059.247, 28.59584
1059.729, 28.55066
1060.211, 28.55935
1060.693, 28.64731
1061.176, 28.72552
1061.658, 28.72793
1062.140, 28.76456
1062.622, 28.98298
1063.104, 29.16551
1063.586, 29.07855
1064.068, 28.82823
1064.550, 28.64332
1065.032, 28.56897
1065.515, 28.53594
1065.997, 28.54256
1066.479, 28.55395
1066.961, 28.60285
1067.443, 28.60556
1067.925, 28.39465
1068.407, 28.12539
1068.889, 28.11241
1069.371, 28.39975
1069.854, 28.64817
1070.336, 28.70131
1070.818, 28.71093
1071.300, 28.81526
1071.782, 28.83482
1072.264, 28.47984
1072.746, 28.00764
1073.228, 27.86389
1073.711, 28.09128
1074.193, 28.32598
1074.675, 28.45579
1075.157, 28.51048
1075.639, 28.44556
1076.121, 28.37017
1076.603, 28.38779
1077.085, 28.44080
1077.568, 28.42276
1078.050, 28.33755
1078.532, 28.30399
1079.014, 28.41683
1079.496, 28.46512
1079.978, 28.30192
1080.460, 28.08899
1080.942, 27.84748
1081.424, 27.68778
1081.906, 27.84557
1082.389, 28.22344
1082.871, 28.35853
1083.353, 28.01969
1083.835, 27.71360
1084.317, 27.67958
1084.799, 27.74838
1085.281, 27.86820
1085.763, 27.99071
1086.245, 28.08217
1086.728, 28.13166
1087.210, 28.11377
1087.692, 28.00831
1088.174, 27.93114
1088.656, 27.92895
1089.138, 27.97275
1089.620, 28.16463
1090.102, 28.29634
1090.585, 28.06791
1091.067, 27.63831
1091.549, 27.40482
1092.031, 27.45832
1092.513, 27.55035
1092.995, 27.65694
1093.477, 27.68756
1093.959, 27.50505
1094.442, 27.32211
1094.924, 27.36631
1095.406, 27.51224
1095.888, 27.48205
1096.370, 27.25057
1096.852, 27.15569
1097.334, 27.37190
1097.816, 27.64951
1098.298, 28.07202
1098.781, 28.34938
1099.263, 28.18838
1099.745, 27.82407
1100.227, 27.54642
1100.709, 27.38885
1101.191, 27.30062
1101.673, 27.28027
1102.155, 27.30605
1102.637, 27.42781
1103.120, 27.52859
1103.602, 27.52910
1104.084, 27.49226
1104.566, 27.46636
1105.048, 27.46439
1105.530, 27.53291
1106.012, 27.75070
1106.494, 27.79048
1106.977, 27.36855
1107.459, 27.04995
1107.941, 27.17258
1108.423, 27.35109
1108.905, 27.18478
1109.387, 26.85850
1109.869, 26.85893
1110.351, 27.29980
1110.833, 27.54775
1111.316, 27.39646
1111.798, 27.24903
1112.280, 27.18497
1112.762, 27.14713
1113.244, 27.05856
1113.726, 26.99771
1114.208, 27.16168
1114.690, 27.55900
1115.172, 27.64580
1115.655, 27.05152
1116.137, 26.72554
1116.619, 26.84992
1117.101, 27.06601
1117.583, 27.33859
1118.065, 27.54370
1118.547, 27.50927
1119.029, 27.28568
1119.512, 27.15629
1119.994, 27.22563
1120.476, 27.10413
1120.958, 26.57074
1121.440, 26.28814
1121.922, 26.61011
1122.404, 26.97051
1122.886, 26.89123
1123.369, 26.56114
1123.851, 26.45339
1124.333, 26.60286
1124.815, 26.68946
1125.297, 26.68999
1125.779, 26.70086
1126.261, 26.74021
1126.743, 26.79226
1127.225, 26.85956
1127.708, 26.90787
1128.190, 26.87070
1128.672, 26.76547
1129.154, 26.79080
1129.636, 26.97505
1130.118, 27.10277
1130.600, 27.16904
1131.082, 27.04886
1131.564, 26.65080
1132.047, 26.27880
1132.529, 26.25417
1133.011, 26.44937
1133.493, 26.45704
1133.975, 26.28757
1134.457, 26.36522
1134.939, 26.69777
1135.421, 26.81620
1135.904, 26.59716
1136.386, 26.44515
1136.868, 26.64587
1137.350, 26.95854
1137.832, 26.98467
1138.314, 26.79427
1138.796, 26.64968
1139.278, 26.55093
1139.760, 26.51248
1140.243, 26.52723
1140.725, 26.54096
1141.207, 26.52897
1141.689, 26.47538
1142.171, 26.34456
1142.653, 26.19715
1143.135, 26.10931
1143.617, 26.10290
1144.099, 26.33013
1144.582, 26.67867
1145.064, 26.71518
1145.546, 26.38793
1146.028, 26.13608
1146.510, 26.24573
1146.992, 26.46402
1147.474, 26.55170
1147.956, 26.57162
1148.439, 26.55889
1148.921, 26.56110
1149.403, 26.72534
1149.885, 26.97603
1150.367, 27.01295
1150.849, 26.72620
1151.331, 26.42139
1151.813, 26.26439
1152.296, 26.19654
1152.778, 26.16073
1153.260, 26.20507
1153.742, 26.44477
1154.224, 26.76238
1154.706, 26.93824
1155.188, 26.97999
1155.670, 26.48589
1156.152, 26.68372
1156.635, 26.60425
1157.117, 26.51341
1157.599, 26.80863
1158.081, 26.39247
1158.563, 26.68156
1159.045, 26.68913
1159.527, 26.82555
1160.009, 26.68296
1160.491, 26.62827
1160.974, 26.74636
1161.456, 26.63278
1161.938, 26.51114
1162.420, 26.39939
1162.902, 26.32150
1163.384, 26.28626
1163.866, 26.29581
1164.348, 26.38697
1164.831, 26.54647
1165.313, 26.53076
1165.795, 26.16601
1166.277, 26.11614
1166.759, 26.59682
1167.241, 26.89450
1167.723, 26.70823
1168.205, 26.42715
1168.688, 26.37897
1169.170, 26.47807
1169.652, 26.52051
1170.134, 26.50548
1170.616, 26.47880
1171.098, 26.43843
1171.580, 26.40835
1172.062, 26.38935
1172.544, 26.46939
1173.026, 26.70488
1173.509, 26.91312
1173.991, 26.85437
1174.473, 26.65412
1174.955, 26.70851
1175.437, 26.92406
1175.919, 26.86670
1176.401, 26.56407
1176.883, 26.29491
1177.366, 26.13519
1177.848, 26.01376
1178.330, 25.87742
1178.812, 25.84485
1179.294, 26.20835
1179.776, 26.63993
1180.258, 26.51258
1180.740, 26.16253
1181.223, 26.29614
1181.705, 26.77386
1182.187, 26.93141
1182.669, 26.59320
1183.151, 26.24567
1183.633, 26.17458
1184.115, 26.18163
1184.597, 26.11798
1185.079, 26.09720
1185.562, 26.28545
1186.044, 26.52899
1186.526, 26.59037
1187.008, 26.50484
1187.490, 26.50765
1187.972, 26.68515
1188.454, 26.79354
1188.936, 26.77291
1189.418, 26.67858
1189.901, 26.41003
1190.383, 26.19691
1190.865, 26.28943
1191.347, 26.47388
1191.829, 26.36551
1192.311, 25.99566
1192.793, 25.89536
1193.275, 26.22847
1193.758, 26.41933
1194.240, 26.42133
1194.722, 26.35128
1195.204, 26.20417
1195.686, 26.10357
1196.168, 26.15969
1196.650, 26.29032
1197.132, 26.32164
1197.615, 26.26478
1198.097, 26.28809
1198.579, 26.39006
1199.061, 26.45927
1199.543, 26.48122
1200.025, 26.47470
1200.507, 26.44725
1200.989, 26.40438
1201.471, 26.33999
1201.953, 26.30285
1202.436, 26.42726
1202.918, 26.61920
1203.400, 26.66320
1203.882, 26.59215
1204.364, 26.51292
1204.846, 26.43837
1205.328, 26.31932
1205.810, 26.13701
1206.293, 25.97243
1206.775, 25.88959
1207.257, 25.84360
1207.739, 25.81538
1208.221, 25.79079
1208.703, 25.72808
1209.185, 25.67587
1209.667, 25.73558
1210.150, 25.88594
1210.632, 25.97766
1211.114, 25.96473
1211.596, 25.92498
1212.078, 25.76841
1212.560, 25.73828
1213.042, 26.05923
1213.524, 26.37864
1214.006, 26.42580
1214.489, 26.34591
1214.971, 26.35855
1215.453, 26.44851
1215.935, 26.41098
1216.417, 26.16377
1216.899, 26.06589
1217.381, 26.16379
1217.863, 26.29041
1218.345, 26.41650
1218.828, 26.47150
1219.310, 26.38656
1219.792, 26.28262
1220.274, 26.39495
1220.756, 26.64871
1221.238, 26.67682
1221.720, 26.51716
1222.202, 26.36471
1222.685, 26.24261
1223.167, 26.14606
1223.649, 26.07148
1224.131, 25.99494
1224.613, 25.89228
1225.095, 25.83167
1225.577, 25.92995
1226.059, 26.07556
1226.542, 26.14933
1227.024, 26.16706
1227.506, 26.10737
1227.988, 26.03222
1228.470, 26.11219
1228.952, 26.36420
1229.434, 26.51288
1229.916, 26.39951
1230.398, 26.25804
1230.880, 26.14218
1231.363, 26.05078
1231.845, 25.91555
1232.327, 25.86528
1232.809, 26.10282
1233.291, 26.49467
1233.773, 26.74419
1234.255, 26.85660
1234.737, 26.70572
1235.220, 26.08162
1235.702, 25.85539
1236.184, 26.25073
1236.666, 26.52700
1237.148, 26.38318
1237.630, 26.16696
1238.112, 26.17967
1238.594, 26.30264
1239.077, 26.25666
1239.559, 26.10099
1240.041, 26.21845
1240.523, 26.53214
1241.005, 26.70306
1241.487, 26.68497
1241.969, 26.47305
1242.451, 26.09518
1242.933, 25.77756
1243.416, 25.67889
1243.898, 25.70823
1244.380, 25.80799
1244.862, 25.95532
1245.344, 26.17719
1245.826, 26.39630
1246.308, 26.61099
1246.790, 26.71113
1247.272, 26.27196
1247.755, 26.58803
1248.237, 26.76238
1248.719, 26.80261
1249.201, 26.30700
1249.683, 26.50331
1250.165, 26.42233
1250.647, 26.32998
1251.129, 26.62368
1251.612, 26.33317
1252.094, 26.42343
1252.576, 26.48028
1253.058, 26.50132
1253.540, 26.35405
1254.022, 25.99749
1254.504, 25.95149
1254.986, 26.27757
1255.469, 26.56339
1255.951, 26.67610
1256.433, 26.63164
1256.915, 26.42897
1257.397, 26.18315
1257.879, 26.01812
1258.361, 25.95574
1258.843, 26.11574
1259.325, 26.36883
1259.807, 26.46654
1260.290, 26.43498
1260.772, 26.42178
1261.254, 26.44306
1261.736, 26.35531
1262.218, 26.03826
1262.700, 25.82411
1263.182, 25.94650
1263.664, 26.10461
1264.147, 26.20205
1264.629, 26.23037
1265.111, 26.10174
1265.593, 25.95177
1266.075, 26.03531
1266.557, 26.31004
1267.039, 26.41773
1267.521, 26.27975
1268.004, 26.26063
1268.486, 26.40800
1268.968, 26.46065
1269.450, 26.15546
1269.932, 26.47588
1270.414, 26.65456
1270.896, 26.69912
1271.378, 26.20784
1271.860, 26.40848
1272.343, 26.33183
1272.825, 26.24381
1273.307, 26.54184
1273.789, 26.12850
1274.271, 26.42040
1274.753, 26.43079
1275.235, 26.57002
1275.717, 26.43024
1276.199, 26.37665
1276.682, 26.60213
1277.164, 26.67309
1277.646, 26.50120
1278.128, 26.64862
1278.610, 26.22553
1279.092, 26.30308
1279.574, 26.59662
1280.056, 26.43875
1280.539, 26.59127
1281.021, 26.62558
1281.503, 26.12267
1281.985, 26.55404
1282.467, 26.58136
1282.949, 26.19382
1283.431, 26.59318
1283.913, 26.26283
1284.396, 26.19293
1284.878, 26.31906
1285.360, 26.24085
1285.842, 26.48480
1286.324, 26.46458
1286.806, 26.55541
##END=



