##NAMES=Kapustinite
##RRUFFID=R060896
##IDEAL CHEMISTRY=Na_6_Zr^4+^Si_6_O_16_(OH)_2_
##LOCALITY=Palitra pegmatite, Kedykverpakhk Mountain, Lovozero Massif, Russia
##OWNER=RRUFF
##SOURCE=Michael Scott
##DESCRIPTION=Reddish brown vitreous massive fragment
##STATUS=The identification of this mineral has been confirmed only by single crystal X-ray diffraction.
##URL=rruff.info/R060896
142.7406, 3659.953
143.2227, 3842.387
143.7048, 4053.912
144.1869, 4282.723
144.6690, 4492.111
145.1511, 4666.357
145.6333, 4839.577
146.1154, 5020.343
146.5975, 5203.494
147.0796, 5385.327
147.5617, 5565.649
148.0438, 5738.359
148.5260, 5869.776
149.0081, 5945.082
149.4902, 6006.772
149.9723, 6065.354
150.4544, 6119.006
150.9365, 6164.403
151.4187, 6201.364
151.9008, 6226.918
152.3829, 6225.185
152.8650, 6176.832
153.3471, 6126.761
153.8292, 6097.002
154.3114, 6081.316
154.7935, 6057.518
155.2756, 6008.203
155.7577, 5941.556
156.2398, 5900.110
156.7219, 5893.446
157.2041, 5900.207
157.6862, 5912.150
158.1683, 5928.803
158.6504, 5948.418
159.1325, 5967.980
159.6146, 5990.555
160.0968, 6026.136
160.5789, 6078.629
161.0610, 6140.112
161.5431, 6206.558
162.0252, 6277.753
162.5073, 6353.463
162.9895, 6436.083
163.4716, 6523.313
163.9537, 6604.109
164.4358, 6675.858
164.9179, 6742.828
165.4000, 6806.571
165.8822, 6867.047
166.3643, 6929.434
166.8464, 7001.552
167.3285, 7078.045
167.8106, 7143.039
168.2927, 7191.094
168.7749, 7229.272
169.2570, 7264.163
169.7391, 7295.936
170.2212, 7322.172
170.7033, 7339.271
171.1854, 7349.655
171.6676, 7359.483
172.1497, 7371.797
172.6318, 7382.961
173.1139, 7390.332
173.5960, 7394.384
174.0781, 7391.321
174.5603, 7372.058
175.0424, 7344.197
175.5245, 7323.769
176.0066, 7316.804
176.4887, 7317.463
176.9708, 7320.234
177.4530, 7325.788
177.9351, 7329.488
178.4172, 7327.925
178.8993, 7322.297
179.3814, 7313.951
179.8635, 7296.052
180.3457, 7279.317
180.8278, 7278.380
181.3099, 7294.542
181.7920, 7320.256
182.2741, 7360.066
182.7562, 7405.256
183.2384, 7441.847
183.7205, 7465.142
184.2026, 7478.081
184.6847, 7480.822
185.1668, 7469.390
185.6489, 7463.668
186.1311, 7485.397
186.6132, 7519.302
187.0953, 7542.830
187.5774, 7538.544
188.0595, 7527.180
188.5416, 7544.285
189.0238, 7597.534
189.5059, 7649.699
189.9880, 7682.820
190.4701, 7701.244
190.9522, 7706.719
191.4343, 7690.704
191.9165, 7669.010
192.3986, 7668.999
192.8807, 7696.952
193.3628, 7722.292
193.8449, 7719.511
194.3270, 7706.210
194.8092, 7704.912
195.2913, 7725.152
195.7734, 7758.232
196.2555, 7795.217
196.7376, 7839.554
197.2197, 7873.925
197.7019, 7881.000
198.1840, 7875.044
198.6661, 7871.526
199.1482, 7875.955
199.6303, 7883.546
200.1124, 7885.048
200.5946, 7877.490
201.0767, 7877.754
201.5588, 7908.278
202.0409, 7946.948
202.5230, 7967.637
203.0051, 7955.017
203.4873, 7934.090
203.9694, 7939.510
204.4515, 7975.761
204.9336, 8012.992
205.4157, 8045.182
205.8978, 8068.213
206.3800, 8073.260
206.8621, 8051.422
207.3442, 8024.155
207.8263, 8018.291
208.3084, 8035.938
208.7905, 8056.135
209.2727, 8069.529
209.7548, 8081.679
210.2369, 8098.807
210.7190, 8122.965
211.2011, 8149.639
211.6832, 8176.319
212.1654, 8203.353
212.6475, 8222.887
213.1296, 8224.716
213.6117, 8221.600
214.0938, 8226.594
214.5760, 8242.180
215.0581, 8263.478
215.5402, 8289.332
216.0223, 8319.729
216.5044, 8343.961
216.9865, 8352.845
217.4687, 8358.418
217.9508, 8374.323
218.4329, 8403.262
218.9150, 8434.280
219.3971, 8460.294
219.8792, 8481.455
220.3614, 8496.609
220.8435, 8498.625
221.3256, 8501.053
221.8077, 8518.330
222.2898, 8551.982
222.7719, 8590.613
223.2541, 8634.116
223.7362, 8679.017
224.2183, 8703.278
224.7004, 8692.093
225.1825, 8669.271
225.6646, 8659.890
226.1468, 8663.881
226.6289, 8673.456
227.1110, 8687.241
227.5931, 8703.556
228.0752, 8716.847
228.5573, 8725.560
229.0395, 8731.452
229.5216, 8732.879
230.0037, 8730.349
230.4858, 8736.225
230.9679, 8761.446
231.4500, 8798.396
231.9322, 8829.774
232.4143, 8851.671
232.8964, 8871.486
233.3785, 8897.533
233.8606, 8928.559
234.3427, 8957.731
234.8249, 8983.827
235.3070, 9006.627
235.7891, 9023.690
236.2712, 9033.471
236.7533, 9044.803
237.2354, 9070.390
237.7176, 9106.070
238.1997, 9131.045
238.6818, 9126.292
239.1639, 9117.021
239.6460, 9138.232
240.1281, 9193.522
240.6103, 9244.402
241.0924, 9258.380
241.5745, 9241.996
242.0566, 9233.527
242.5387, 9239.842
243.0208, 9252.328
243.5030, 9267.369
243.9851, 9284.200
244.4672, 9295.453
244.9493, 9291.437
245.4314, 9278.875
245.9135, 9286.748
246.3957, 9342.466
246.8778, 9392.792
247.3599, 9397.173
247.8420, 9367.682
248.3241, 9351.335
248.8062, 9376.069
249.2884, 9427.982
249.7705, 9457.208
250.2526, 9444.346
250.7347, 9437.361
251.2168, 9458.258
251.6989, 9496.714
252.1811, 9532.635
252.6632, 9557.941
253.1453, 9574.660
253.6274, 9586.216
254.1095, 9582.775
254.5916, 9591.437
255.0738, 9627.508
255.5559, 9675.161
256.0380, 9714.018
256.5201, 9737.607
257.0022, 9750.727
257.4843, 9759.752
257.9665, 9754.555
258.4486, 9767.340
258.9307, 9815.560
259.4128, 9872.906
259.8949, 9918.219
260.3770, 9946.730
260.8592, 9961.547
261.3413, 9964.006
261.8234, 9944.748
262.3055, 9946.609
262.7876, 9983.246
263.2697, 10027.70
263.7519, 10071.22
264.2340, 10108.73
264.7161, 10129.22
265.1982, 10118.20
265.6803, 10069.24
266.1624, 10051.59
266.6446, 10092.69
267.1267, 10133.31
267.6088, 10146.72
268.0909, 10141.23
268.5730, 10140.45
269.0551, 10161.93
269.5373, 10202.91
270.0194, 10233.80
270.5015, 10248.81
270.9836, 10258.77
271.4657, 10258.00
271.9478, 10254.97
272.4300, 10261.22
272.9121, 10282.91
273.3942, 10316.22
273.8763, 10352.04
274.3584, 10401.33
274.8405, 10433.43
275.3227, 10429.28
275.8048, 10415.57
276.2869, 10416.79
276.7690, 10441.23
277.2511, 10478.94
277.7332, 10516.45
278.2154, 10556.81
278.6975, 10586.77
279.1796, 10594.74
279.6617, 10599.04
280.1438, 10609.47
280.6259, 10627.89
281.1081, 10652.06
281.5902, 10687.02
282.0723, 10734.83
282.5544, 10756.59
283.0365, 10720.30
283.5186, 10685.78
284.0008, 10681.65
284.4829, 10707.12
284.9650, 10752.27
285.4471, 10819.66
285.9292, 10903.48
286.4113, 10986.71
286.8935, 11094.24
287.3756, 11151.39
287.8577, 11076.10
288.3398, 10924.60
288.8219, 10808.95
289.3040, 10786.88
289.7862, 10815.41
290.2683, 10833.60
290.7504, 10840.68
291.2325, 10842.23
291.7146, 10838.79
292.1967, 10832.35
292.6789, 10825.97
293.1610, 10819.45
293.6431, 10814.08
294.1252, 10810.89
294.6073, 10809.78
295.0894, 10808.18
295.5716, 10799.68
296.0537, 10796.25
296.5358, 10822.01
297.0179, 10886.05
297.5000, 10947.10
297.9821, 10984.67
298.4643, 11008.23
298.9464, 11036.86
299.4285, 11076.44
299.9106, 11115.79
300.3927, 11136.83
300.8748, 11132.87
301.3570, 11142.88
301.8391, 11177.59
302.3212, 11223.53
302.8033, 11275.09
303.2854, 11329.58
303.7675, 11373.98
304.2497, 11395.03
304.7318, 11390.18
305.2139, 11392.59
305.6960, 11399.45
306.1781, 11415.14
306.6602, 11444.78
307.1424, 11485.12
307.6245, 11531.53
308.1066, 11583.21
308.5887, 11635.60
309.0708, 11662.40
309.5529, 11630.94
310.0351, 11610.45
310.5172, 11609.91
310.9993, 11624.06
311.4814, 11649.11
311.9635, 11683.27
312.4456, 11721.28
312.9278, 11754.32
313.4099, 11784.96
313.8920, 11804.15
314.3741, 11798.64
314.8562, 11792.83
315.3383, 11805.45
315.8205, 11837.24
316.3026, 11873.00
316.7847, 11895.70
317.2668, 11903.59
317.7489, 11917.65
318.2310, 11934.09
318.7132, 11962.13
319.1953, 12014.10
319.6774, 12080.99
320.1595, 12141.29
320.6416, 12179.68
321.1237, 12202.70
321.6059, 12227.26
322.0880, 12251.68
322.5701, 12282.08
323.0522, 12326.33
323.5343, 12376.59
324.0164, 12421.05
324.4986, 12449.67
324.9807, 12485.05
325.4628, 12563.93
325.9449, 12682.82
326.4270, 12774.36
326.9091, 12805.00
327.3913, 12805.71
327.8734, 12821.85
328.3555, 12854.07
328.8376, 12896.32
329.3197, 12959.12
329.8018, 13027.43
330.2840, 13069.87
330.7661, 13076.98
331.2482, 13076.41
331.7303, 13099.82
332.2124, 13150.16
332.6945, 13192.87
333.1767, 13230.13
333.6588, 13255.89
334.1409, 13253.59
334.6230, 13230.58
335.1051, 13223.82
335.5872, 13262.97
336.0694, 13342.19
336.5515, 13395.92
337.0336, 13404.13
337.5157, 13414.22
337.9979, 13436.65
338.4800, 13468.42
338.9621, 13507.06
339.4442, 13551.57
339.9263, 13596.15
340.4084, 13627.04
340.8906, 13630.27
341.3727, 13645.07
341.8548, 13680.09
342.3369, 13719.51
342.8190, 13749.08
343.3011, 13769.23
343.7833, 13793.87
344.2654, 13837.65
344.7475, 13901.44
345.2296, 13971.45
345.7117, 14067.71
346.1938, 14146.47
346.6760, 14182.47
347.1581, 14189.80
347.6402, 14195.77
348.1223, 14213.30
348.6044, 14239.42
349.0865, 14267.85
349.5687, 14298.27
350.0508, 14332.84
350.5329, 14377.55
351.0150, 14424.60
351.4971, 14465.50
351.9792, 14498.29
352.4614, 14527.10
352.9435, 14552.69
353.4256, 14576.28
353.9077, 14606.09
354.3898, 14649.59
354.8719, 14688.36
355.3541, 14693.25
355.8362, 14666.34
356.3183, 14642.46
356.8004, 14624.37
357.2825, 14616.16
357.7646, 14627.29
358.2468, 14656.51
358.7289, 14684.81
359.2110, 14696.21
359.6931, 14693.06
360.1752, 14707.74
360.6573, 14764.88
361.1395, 14809.40
361.6216, 14809.68
362.1037, 14789.06
362.5858, 14790.41
363.0679, 14832.00
363.5500, 14889.07
364.0322, 14907.67
364.5143, 14839.50
364.9964, 14817.94
365.4785, 14880.57
365.9606, 14955.32
366.4427, 14990.61
366.9249, 14986.00
367.4070, 14977.92
367.8891, 15003.75
368.3712, 15062.75
368.8533, 15100.80
369.3354, 15099.35
369.8176, 15100.89
370.2997, 15121.06
370.7818, 15153.89
371.2639, 15190.05
371.7460, 15226.42
372.2281, 15262.73
372.7103, 15299.28
373.1924, 15335.99
373.6745, 15372.44
374.1566, 15414.06
374.6387, 15450.20
375.1208, 15466.91
375.6030, 15461.25
376.0851, 15457.58
376.5672, 15475.41
377.0493, 15502.21
377.5314, 15511.37
378.0135, 15497.21
378.4957, 15479.15
378.9778, 15477.76
379.4599, 15492.60
379.9420, 15488.05
380.4241, 15436.28
380.9063, 15390.47
381.3884, 15388.60
381.8705, 15417.63
382.3526, 15441.00
382.8347, 15439.51
383.3168, 15423.40
383.7990, 15421.48
384.2811, 15465.53
384.7632, 15481.12
385.2453, 15451.23
385.7274, 15403.80
386.2095, 15353.97
386.6917, 15308.37
387.1738, 15275.60
387.6559, 15265.36
388.1380, 15278.31
388.6201, 15303.36
389.1022, 15354.86
389.5844, 15402.25
390.0665, 15438.98
390.5486, 15464.10
391.0307, 15474.93
391.5128, 15467.39
391.9949, 15450.89
392.4771, 15442.13
392.9592, 15442.56
393.4413, 15436.32
393.9234, 15404.55
394.4055, 15375.64
394.8876, 15386.00
395.3698, 15440.50
395.8519, 15487.02
396.3340, 15488.79
396.8161, 15468.08
397.2982, 15469.64
397.7803, 15501.13
398.2625, 15526.32
398.7446, 15512.53
399.2267, 15460.49
399.7088, 15418.30
400.1909, 15385.87
400.6730, 15362.58
401.1552, 15361.78
401.6373, 15368.14
402.1194, 15346.77
402.6015, 15281.86
403.0836, 15199.40
403.5657, 15154.57
404.0479, 15182.36
404.5300, 15184.69
405.0121, 15143.40
405.4942, 15095.28
405.9763, 15062.74
406.4584, 15045.98
406.9406, 15033.23
407.4227, 15012.74
407.9048, 14987.86
408.3869, 14984.24
408.8690, 15019.45
409.3511, 15043.88
409.8333, 15033.30
410.3154, 15006.16
410.7975, 14984.50
411.2796, 14975.93
411.7617, 14964.48
412.2438, 14923.32
412.7260, 14860.40
413.2081, 14828.22
413.6902, 14844.67
414.1723, 14881.20
414.6544, 14912.03
415.1365, 14937.57
415.6187, 14955.01
416.1008, 14965.14
416.5829, 14965.79
417.0650, 14948.93
417.5471, 14918.81
418.0292, 14894.53
418.5114, 14887.83
418.9935, 14893.11
419.4756, 14891.22
419.9577, 14883.11
420.4398, 14866.27
420.9219, 14831.02
421.4041, 14793.13
421.8862, 14769.37
422.3683, 14760.48
422.8504, 14751.92
423.3325, 14727.14
423.8146, 14685.66
424.2968, 14650.73
424.7789, 14620.07
425.2610, 14600.05
425.7431, 14609.32
426.2252, 14625.00
426.7073, 14609.66
427.1895, 14543.27
427.6716, 14462.96
428.1537, 14412.76
428.6358, 14391.77
429.1179, 14387.26
429.6000, 14407.34
430.0822, 14427.21
430.5643, 14413.99
431.0464, 14369.81
431.5285, 14332.73
432.0106, 14320.61
432.4927, 14314.93
432.9749, 14294.83
433.4570, 14262.42
433.9391, 14235.99
434.4212, 14227.13
434.9033, 14231.67
435.3854, 14233.45
435.8676, 14235.95
436.3497, 14231.10
436.8318, 14213.75
437.3139, 14191.70
437.7960, 14169.68
438.2781, 14149.74
438.7603, 14134.09
439.2424, 14125.82
439.7245, 14124.98
440.2066, 14124.97
440.6887, 14133.43
441.1708, 14131.33
441.6530, 14105.82
442.1351, 14068.87
442.6172, 14036.75
443.0993, 14014.40
443.5814, 13998.28
444.0635, 13989.00
444.5457, 13984.63
445.0278, 13968.53
445.5099, 13932.88
445.9920, 13892.45
446.4741, 13865.17
446.9562, 13849.62
447.4384, 13830.71
447.9205, 13806.53
448.4026, 13777.59
448.8847, 13740.39
449.3668, 13698.32
449.8489, 13662.32
450.3311, 13638.13
450.8132, 13622.59
451.2953, 13607.54
451.7774, 13601.01
452.2595, 13582.50
452.7416, 13537.22
453.2238, 13492.76
453.7059, 13476.35
454.1880, 13482.12
454.6701, 13474.90
455.1522, 13417.69
455.6343, 13326.75
456.1165, 13285.84
456.5986, 13317.26
457.0807, 13345.28
457.5628, 13335.17
458.0449, 13309.90
458.5270, 13291.19
459.0092, 13283.01
459.4913, 13275.53
459.9734, 13260.85
460.4555, 13242.33
460.9376, 13229.75
461.4197, 13225.44
461.9019, 13215.79
462.3840, 13186.39
462.8661, 13139.00
463.3482, 13105.64
463.8303, 13099.55
464.3124, 13091.59
464.7946, 13071.71
465.2767, 13044.16
465.7588, 13013.07
466.2409, 12980.26
466.7230, 12950.70
467.2051, 12933.72
467.6873, 12934.82
468.1694, 12921.98
468.6515, 12867.73
469.1336, 12828.23
469.6157, 12835.26
470.0978, 12869.36
470.5800, 12895.95
471.0621, 12903.88
471.5442, 12890.07
472.0263, 12838.96
472.5084, 12753.10
472.9905, 12684.65
473.4727, 12651.81
473.9548, 12633.73
474.4369, 12606.66
474.9190, 12571.09
475.4011, 12538.17
475.8832, 12517.08
476.3654, 12493.30
476.8475, 12442.99
477.3296, 12378.78
477.8117, 12343.76
478.2938, 12362.17
478.7759, 12410.46
479.2581, 12431.62
479.7402, 12413.17
480.2223, 12388.68
480.7044, 12350.77
481.1865, 12314.80
481.6686, 12292.34
482.1508, 12280.80
482.6329, 12268.26
483.1150, 12243.92
483.5971, 12215.76
484.0792, 12208.57
484.5613, 12228.19
485.0435, 12235.28
485.5256, 12205.34
486.0077, 12164.35
486.4898, 12146.42
486.9719, 12154.03
487.4540, 12162.65
487.9362, 12164.71
488.4183, 12161.87
488.9004, 12151.15
489.3825, 12134.84
489.8646, 12129.31
490.3467, 12148.17
490.8289, 12182.05
491.3110, 12192.06
491.7931, 12153.10
492.2752, 12122.16
492.7573, 12111.06
493.2394, 12101.65
493.7216, 12077.20
494.2037, 12038.21
494.6858, 11998.93
495.1679, 11970.34
495.6500, 11951.05
496.1321, 11936.36
496.6143, 11929.37
497.0964, 11917.65
497.5785, 11891.42
498.0606, 11860.46
498.5427, 11838.21
499.0248, 11827.92
499.5070, 11813.45
499.9891, 11777.80
500.4712, 11737.75
500.9533, 11719.02
501.4355, 11723.20
501.9176, 11735.23
502.3997, 11746.92
502.8818, 11756.23
503.3639, 11751.02
503.8460, 11706.87
504.3282, 11679.34
504.8103, 11682.91
505.2924, 11698.43
505.7745, 11713.10
506.2566, 11723.28
506.7387, 11727.40
507.2209, 11722.75
507.7030, 11710.91
508.1851, 11699.09
508.6672, 11686.38
509.1493, 11676.18
509.6314, 11664.85
510.1136, 11659.90
510.5957, 11675.78
511.0778, 11720.11
511.5599, 11753.14
512.0420, 11750.28
512.5241, 11728.75
513.0062, 11708.55
513.4883, 11692.39
513.9705, 11679.19
514.4526, 11668.27
514.9347, 11659.78
515.4168, 11654.90
515.8989, 11651.75
516.3810, 11655.24
516.8632, 11677.19
517.3453, 11697.60
517.8274, 11696.43
518.3095, 11675.08
518.7916, 11653.69
519.2737, 11649.73
519.7559, 11657.83
520.2380, 11659.65
520.7201, 11653.68
521.2022, 11648.96
521.6843, 11653.39
522.1664, 11657.80
522.6486, 11644.25
523.1307, 11605.94
523.6128, 11585.07
524.0949, 11608.40
524.5770, 11646.67
525.0591, 11674.00
525.5413, 11688.44
526.0234, 11696.54
526.5055, 11703.18
526.9876, 11704.24
527.4697, 11683.13
527.9518, 11609.66
528.4340, 11571.46
528.9161, 11592.41
529.3982, 11630.29
529.8803, 11669.27
530.3624, 11702.63
530.8445, 11716.79
531.3267, 11689.53
531.8088, 11651.40
532.2909, 11665.73
532.7730, 11731.55
533.2551, 11781.51
533.7372, 11788.09
534.2194, 11776.79
534.7015, 11784.30
535.1836, 11813.12
535.6657, 11837.69
536.1478, 11854.90
536.6299, 11867.37
537.1121, 11874.45
537.5942, 11878.02
538.0763, 11880.19
538.5584, 11881.77
539.0405, 11886.60
539.5226, 11903.76
540.0048, 11937.54
540.4869, 11964.99
540.9690, 11986.76
541.4511, 11999.51
541.9332, 11997.98
542.4153, 11987.30
542.8975, 11978.82
543.3796, 11978.33
543.8617, 11977.57
544.3438, 11961.75
544.8259, 11940.13
545.3080, 11941.68
545.7902, 11974.25
546.2723, 12016.83
546.7544, 12050.82
547.2365, 12076.61
547.7186, 12087.75
548.2007, 12080.66
548.6829, 12064.92
549.1650, 12034.23
549.6471, 12000.35
550.1292, 11978.07
550.6113, 11969.74
551.0934, 11962.49
551.5756, 11942.77
552.0577, 11912.56
552.5398, 11881.09
553.0219, 11845.74
553.5040, 11819.68
553.9861, 11813.71
554.4683, 11819.29
554.9504, 11818.98
555.4325, 11810.95
555.9146, 11802.76
556.3967, 11802.74
556.8788, 11799.65
557.3610, 11779.60
557.8431, 11744.80
558.3252, 11707.47
558.8073, 11674.45
559.2894, 11647.34
559.7715, 11633.64
560.2537, 11644.64
560.7358, 11641.12
561.2179, 11595.72
561.7000, 11553.97
562.1821, 11549.14
562.6642, 11571.04
563.1464, 11580.26
563.6285, 11549.72
564.1106, 11509.56
564.5927, 11496.09
565.0748, 11501.91
565.5569, 11498.21
566.0391, 11476.02
566.5212, 11444.54
567.0033, 11412.76
567.4854, 11379.08
567.9675, 11357.37
568.4496, 11366.91
568.9318, 11364.48
569.4139, 11326.28
569.8960, 11274.20
570.3781, 11232.18
570.8602, 11207.79
571.3423, 11200.21
571.8245, 11222.21
572.3066, 11263.53
572.7887, 11265.59
573.2708, 11215.54
573.7529, 11178.74
574.2350, 11201.13
574.7172, 11252.49
575.1993, 11262.19
575.6814, 11211.71
576.1635, 11172.83
576.6456, 11167.19
577.1277, 11175.09
577.6099, 11181.90
578.0920, 11187.00
578.5741, 11196.72
579.0562, 11215.71
579.5383, 11236.56
580.0204, 11240.86
580.5026, 11225.09
580.9847, 11207.63
581.4668, 11187.17
581.9489, 11169.65
582.4310, 11157.41
582.9132, 11150.69
583.3953, 11150.94
583.8774, 11163.33
584.3596, 11176.51
584.8417, 11188.33
585.3238, 11194.24
585.8059, 11178.69
586.2880, 11140.08
586.7701, 11106.38
587.2523, 11107.06
587.7344, 11139.92
588.2165, 11161.78
588.6986, 11179.41
589.1807, 11174.51
589.6628, 11118.40
590.1450, 11058.10
590.6271, 11039.71
591.1092, 11064.48
591.5913, 11087.98
592.0734, 11078.61
592.5555, 11054.26
593.0377, 11041.85
593.5198, 11039.97
594.0019, 11034.85
594.4840, 11020.12
594.9661, 11002.82
595.4482, 10992.09
595.9304, 10983.39
596.4125, 10999.50
596.8946, 11079.91
597.3767, 11138.75
597.8588, 11130.75
598.3409, 11085.74
598.8231, 11044.00
599.3052, 11018.50
599.7873, 11005.79
600.2694, 11006.02
600.7515, 11016.47
601.2336, 11026.61
601.7158, 11035.68
602.1979, 11046.74
602.6800, 11065.96
603.1621, 11085.60
603.6442, 11083.35
604.1263, 11049.90
604.6085, 11017.22
605.0906, 10979.85
605.5727, 10951.91
606.0548, 10949.74
606.5369, 10964.83
607.0190, 10974.28
607.5012, 10965.52
607.9833, 10950.79
608.4654, 10953.24
608.9475, 10972.49
609.4296, 10980.62
609.9117, 10972.09
610.3939, 10955.79
610.8760, 10932.29
611.3581, 10905.82
611.8402, 10893.18
612.3223, 10914.15
612.8044, 10920.81
613.2866, 10880.19
613.7687, 10831.22
614.2508, 10818.41
614.7329, 10839.91
615.2150, 10861.62
615.6971, 10859.53
616.1793, 10841.26
616.6614, 10827.08
617.1435, 10817.73
617.6256, 10809.55
618.1077, 10806.15
618.5898, 10798.30
619.0720, 10768.80
619.5541, 10725.21
620.0362, 10703.08
620.5183, 10720.89
621.0004, 10746.99
621.4825, 10770.93
621.9647, 10791.72
622.4468, 10809.58
622.9289, 10823.71
623.4110, 10829.87
623.8931, 10823.24
624.3752, 10806.11
624.8574, 10788.86
625.3395, 10767.96
625.8216, 10758.78
626.3037, 10777.45
626.7858, 10798.24
627.2679, 10795.76
627.7501, 10772.29
628.2322, 10751.10
628.7143, 10739.08
629.1964, 10730.31
629.6785, 10716.22
630.1606, 10703.99
630.6428, 10713.27
631.1249, 10746.31
631.6070, 10774.18
632.0891, 10762.93
632.5712, 10716.90
633.0533, 10688.66
633.5355, 10684.43
634.0176, 10682.96
634.4997, 10675.65
634.9818, 10670.21
635.4639, 10677.57
635.9460, 10697.17
636.4282, 10707.51
636.9103, 10695.04
637.3924, 10676.82
637.8745, 10664.20
638.3566, 10655.85
638.8387, 10647.45
639.3209, 10637.80
639.8030, 10630.51
640.2851, 10631.22
640.7672, 10639.45
641.2493, 10638.79
641.7314, 10622.12
642.2136, 10611.80
642.6957, 10627.35
643.1778, 10644.57
643.6599, 10631.90
644.1420, 10587.77
644.6241, 10564.60
645.1063, 10604.97
645.5884, 10650.07
646.0705, 10646.17
646.5526, 10613.11
647.0347, 10600.33
647.5168, 10622.92
647.9990, 10649.44
648.4811, 10638.15
648.9632, 10590.32
649.4453, 10569.85
649.9274, 10593.90
650.4095, 10605.37
650.8917, 10567.48
651.3738, 10518.72
651.8559, 10501.35
652.3380, 10517.39
652.8201, 10541.44
653.3022, 10583.39
653.7844, 10614.51
654.2665, 10600.15
654.7486, 10562.13
655.2307, 10545.80
655.7128, 10564.60
656.1949, 10595.49
656.6771, 10612.80
657.1592, 10617.38
657.6413, 10624.56
658.1234, 10639.28
658.6055, 10640.84
659.0876, 10608.27
659.5698, 10569.92
660.0519, 10565.10
660.5340, 10595.31
661.0161, 10616.26
661.4982, 10620.43
661.9803, 10611.43
662.4625, 10577.83
662.9446, 10537.22
663.4267, 10519.57
663.9088, 10531.53
664.3909, 10554.01
664.8730, 10570.70
665.3552, 10580.75
665.8373, 10577.39
666.3194, 10558.23
666.8015, 10537.80
667.2836, 10516.27
667.7657, 10501.06
668.2479, 10504.69
668.7300, 10527.50
669.2121, 10547.49
669.6942, 10567.75
670.1763, 10579.30
670.6584, 10572.19
671.1406, 10557.22
671.6227, 10547.87
672.1048, 10546.48
672.5869, 10546.18
673.0690, 10539.99
673.5511, 10531.33
674.0333, 10530.64
674.5154, 10538.04
674.9975, 10543.53
675.4796, 10543.62
675.9617, 10542.48
676.4438, 10545.53
676.9260, 10553.14
677.4081, 10554.52
677.8902, 10533.69
678.3723, 10527.60
678.8544, 10564.69
679.3365, 10606.30
679.8187, 10609.78
680.3008, 10577.91
680.7829, 10551.34
681.2650, 10560.31
681.7471, 10582.21
682.2292, 10581.19
682.7114, 10562.68
683.1935, 10555.30
683.6756, 10566.63
684.1577, 10576.08
684.6398, 10563.52
685.1219, 10532.20
685.6041, 10511.85
686.0862, 10505.47
686.5683, 10505.87
687.0504, 10514.44
687.5325, 10527.34
688.0146, 10546.77
688.4968, 10568.62
688.9789, 10581.90
689.4610, 10582.75
689.9431, 10573.54
690.4252, 10544.45
690.9073, 10510.57
691.3895, 10503.89
691.8716, 10526.04
692.3537, 10552.57
692.8358, 10567.02
693.3179, 10573.00
693.8000, 10583.09
694.2822, 10603.06
694.7643, 10604.78
695.2464, 10565.67
695.7285, 10533.98
696.2106, 10547.54
696.6927, 10585.07
697.1749, 10604.36
697.6570, 10592.35
698.1391, 10582.41
698.6212, 10597.49
699.1033, 10612.68
699.5854, 10595.57
700.0676, 10557.74
700.5497, 10537.38
701.0318, 10552.28
701.5139, 10580.91
701.9960, 10589.71
702.4781, 10580.71
702.9603, 10590.55
703.4424, 10628.24
703.9245, 10650.90
704.4066, 10631.97
704.8887, 10592.35
705.3708, 10569.33
705.8530, 10567.26
706.3351, 10565.40
706.8172, 10563.92
707.2993, 10561.52
707.7814, 10554.74
708.2635, 10548.02
708.7457, 10547.55
709.2278, 10554.46
709.7099, 10564.33
710.1920, 10577.93
710.6741, 10590.08
711.1563, 10588.90
711.6384, 10576.55
712.1205, 10563.76
712.6026, 10552.95
713.0847, 10552.55
713.5668, 10574.91
714.0490, 10619.08
714.5311, 10649.45
715.0132, 10663.66
715.4953, 10667.04
715.9774, 10654.17
716.4595, 10636.39
716.9417, 10617.86
717.4238, 10600.86
717.9059, 10593.35
718.3880, 10605.78
718.8701, 10617.87
719.3522, 10617.55
719.8344, 10608.79
720.3165, 10593.28
720.7986, 10573.99
721.2807, 10561.77
721.7628, 10565.07
722.2449, 10574.68
722.7271, 10565.62
723.2092, 10536.02
723.6913, 10527.98
724.1734, 10556.44
724.6555, 10577.92
725.1376, 10558.96
725.6198, 10515.30
726.1019, 10490.93
726.5840, 10487.94
727.0661, 10497.05
727.5482, 10529.65
728.0303, 10562.19
728.5125, 10587.29
728.9946, 10601.19
729.4767, 10595.11
729.9588, 10566.61
730.4409, 10539.76
730.9230, 10538.85
731.4052, 10551.31
731.8873, 10551.88
732.3694, 10542.86
732.8515, 10544.41
733.3336, 10564.50
733.8157, 10589.38
734.2979, 10602.07
734.7800, 10602.28
735.2621, 10600.97
735.7442, 10598.30
736.2263, 10593.31
736.7084, 10578.07
737.1906, 10566.54
737.6727, 10575.59
738.1548, 10601.07
738.6369, 10615.46
739.1190, 10608.74
739.6011, 10594.40
740.0833, 10571.73
740.5654, 10549.05
741.0475, 10535.84
741.5296, 10532.29
742.0117, 10533.68
742.4938, 10537.62
742.9760, 10543.38
743.4581, 10554.80
743.9402, 10568.87
744.4223, 10559.19
744.9044, 10519.38
745.3865, 10487.59
745.8687, 10486.57
746.3508, 10507.91
746.8329, 10533.82
747.3150, 10568.41
747.7971, 10595.76
748.2792, 10618.96
748.7614, 10631.18
749.2435, 10626.56
749.7256, 10611.42
750.2077, 10589.30
750.6898, 10561.00
751.1719, 10543.29
751.6541, 10554.81
752.1362, 10570.26
752.6183, 10562.22
753.1004, 10543.08
753.5825, 10541.95
754.0646, 10563.31
754.5468, 10582.98
755.0289, 10579.45
755.5110, 10557.51
755.9931, 10528.13
756.4752, 10490.52
756.9573, 10462.42
757.4395, 10447.69
757.9216, 10442.70
758.4037, 10447.89
758.8858, 10460.20
759.3679, 10464.77
759.8500, 10447.00
760.3322, 10443.06
760.8143, 10470.01
761.2964, 10493.93
761.7785, 10495.38
762.2606, 10481.22
762.7427, 10463.23
763.2249, 10443.10
763.7070, 10431.19
764.1891, 10434.04
764.6712, 10448.28
765.1533, 10481.79
765.6354, 10522.59
766.1176, 10535.77
766.5997, 10510.70
767.0818, 10473.84
767.5639, 10453.81
768.0460, 10448.07
768.5281, 10441.58
769.0103, 10433.34
769.4924, 10433.31
769.9745, 10447.31
770.4566, 10462.95
770.9387, 10465.12
771.4208, 10456.65
771.9030, 10467.46
772.3851, 10530.81
772.8672, 10565.46
773.3493, 10548.07
773.8314, 10516.47
774.3135, 10487.42
774.7957, 10464.13
775.2778, 10450.19
775.7599, 10448.88
776.2420, 10446.52
776.7241, 10434.34
777.2062, 10416.24
777.6884, 10389.00
778.1705, 10360.24
778.6526, 10353.95
779.1347, 10378.15
779.6168, 10408.13
780.0989, 10412.47
780.5811, 10396.77
781.0632, 10394.68
781.5453, 10408.24
782.0274, 10412.00
782.5095, 10395.57
782.9916, 10375.09
783.4738, 10364.01
783.9559, 10362.60
784.4380, 10375.01
784.9201, 10424.29
785.4022, 10453.02
785.8843, 10439.88
786.3665, 10422.08
786.8486, 10424.82
787.3307, 10439.52
787.8128, 10442.95
788.2949, 10425.14
788.7770, 10412.33
789.2592, 10425.97
789.7413, 10444.78
790.2234, 10451.21
790.7055, 10445.08
791.1876, 10425.81
791.6697, 10394.60
792.1519, 10365.45
792.6340, 10351.84
793.1161, 10352.01
793.5982, 10365.86
794.0803, 10392.29
794.5624, 10407.69
795.0446, 10405.54
795.5267, 10392.61
796.0088, 10371.38
796.4909, 10346.13
796.9730, 10343.97
797.4551, 10377.67
797.9373, 10406.16
798.4194, 10434.90
798.9015, 10446.88
799.3836, 10425.22
799.8657, 10383.51
800.3478, 10343.76
800.8300, 10303.98
801.3121, 10282.98
801.7942, 10299.61
802.2763, 10322.77
802.7584, 10334.49
803.2405, 10339.09
803.7227, 10344.58
804.2048, 10352.72
804.6869, 10360.65
805.1690, 10367.35
805.6511, 10371.66
806.1332, 10365.67
806.6154, 10356.31
807.0975, 10370.93
807.5796, 10411.79
808.0617, 10443.03
808.5438, 10437.89
809.0259, 10409.84
809.5081, 10392.58
809.9902, 10387.71
810.4723, 10375.67
810.9544, 10348.90
811.4365, 10333.93
811.9186, 10348.05
812.4008, 10377.75
812.8829, 10402.94
813.3650, 10425.55
813.8471, 10432.85
814.3292, 10417.21
814.8113, 10396.52
815.2935, 10367.50
815.7756, 10341.41
816.2577, 10327.30
816.7398, 10325.60
817.2219, 10333.27
817.7040, 10354.29
818.1862, 10376.17
818.6683, 10401.28
819.1504, 10416.55
819.6325, 10397.96
820.1146, 10355.35
820.5967, 10318.03
821.0789, 10299.32
821.5610, 10297.63
822.0431, 10320.20
822.5252, 10356.87
823.0073, 10376.19
823.4894, 10378.96
823.9716, 10380.95
824.4537, 10387.43
824.9358, 10391.53
825.4179, 10384.23
825.9000, 10368.60
826.3821, 10370.22
826.8643, 10398.54
827.3464, 10409.69
827.8285, 10384.46
828.3106, 10362.08
828.7927, 10377.09
829.2748, 10412.71
829.7570, 10418.44
830.2391, 10372.30
830.7212, 10355.07
831.2033, 10402.64
831.6854, 10446.17
832.1675, 10446.45
832.6497, 10430.82
833.1318, 10438.56
833.6139, 10472.03
834.0960, 10493.06
834.5781, 10468.23
835.0602, 10441.28
835.5424, 10451.24
836.0245, 10474.24
836.5066, 10474.37
836.9887, 10452.75
837.4708, 10434.69
837.9529, 10434.17
838.4351, 10439.58
838.9172, 10433.39
839.3993, 10420.66
839.8814, 10417.00
840.3635, 10423.07
840.8456, 10437.29
841.3278, 10459.89
841.8099, 10482.10
842.2920, 10492.53
842.7741, 10493.02
843.2562, 10503.81
843.7383, 10531.19
844.2205, 10541.59
844.7026, 10520.69
845.1847, 10496.02
845.6668, 10481.30
846.1489, 10479.62
846.6310, 10503.42
847.1132, 10579.51
847.5953, 10625.74
848.0774, 10627.06
848.5595, 10615.93
849.0416, 10590.05
849.5237, 10567.28
850.0059, 10574.91
850.4880, 10613.18
850.9701, 10639.59
851.4522, 10629.90
851.9343, 10615.99
852.4164, 10610.67
852.8986, 10613.08
853.3807, 10623.74
853.8628, 10641.19
854.3449, 10663.56
854.8270, 10691.20
855.3091, 10714.31
855.7913, 10721.03
856.2734, 10717.38
856.7555, 10709.22
857.2376, 10700.08
857.7197, 10704.74
858.2018, 10726.79
858.6840, 10742.80
859.1661, 10724.09
859.6482, 10686.99
860.1303, 10691.82
860.6124, 10738.20
861.0945, 10761.10
861.5767, 10745.54
862.0588, 10738.57
862.5409, 10775.31
863.0230, 10830.59
863.5051, 10845.26
863.9872, 10805.98
864.4694, 10789.71
864.9515, 10808.31
865.4336, 10828.24
865.9157, 10844.41
866.3978, 10852.40
866.8799, 10841.19
867.3621, 10813.82
867.8442, 10801.20
868.3263, 10813.06
868.8084, 10827.69
869.2905, 10840.48
869.7726, 10856.64
870.2548, 10886.85
870.7369, 10920.36
871.2190, 10934.99
871.7011, 10924.33
872.1832, 10916.32
872.6653, 10927.38
873.1475, 10941.53
873.6296, 10943.46
874.1117, 10943.00
874.5938, 10959.43
875.0759, 10990.20
875.5580, 11010.84
876.0402, 11005.88
876.5223, 10989.95
877.0044, 10969.71
877.4865, 10953.88
877.9686, 10964.39
878.4507, 10996.65
878.9329, 11026.76
879.4150, 11045.24
879.8971, 11056.52
880.3792, 11063.30
880.8613, 11068.13
881.3434, 11082.55
881.8256, 11105.70
882.3077, 11121.67
882.7898, 11126.96
883.2719, 11129.52
883.7540, 11133.85
884.2361, 11141.76
884.7183, 11160.30
885.2004, 11194.15
885.6825, 11210.19
886.1646, 11200.99
886.6467, 11194.71
887.1288, 11202.64
887.6110, 11215.59
888.0931, 11223.12
888.5752, 11225.59
889.0573, 11230.80
889.5394, 11245.22
890.0215, 11251.89
890.5037, 11242.57
890.9858, 11232.85
891.4679, 11234.37
891.9500, 11239.20
892.4321, 11232.36
892.9142, 11210.34
893.3964, 11192.86
893.8785, 11175.54
894.3606, 11173.88
894.8427, 11205.11
895.3248, 11247.19
895.8069, 11288.77
896.2891, 11321.08
896.7712, 11323.45
897.2533, 11279.71
897.7354, 11232.57
898.2175, 11200.64
898.6996, 11183.89
899.1818, 11192.13
899.6639, 11212.19
900.1460, 11218.47
900.6281, 11206.11
901.1102, 11192.25
901.5923, 11188.96
902.0745, 11191.26
902.5566, 11193.28
903.0387, 11195.86
903.5208, 11202.13
904.0029, 11211.16
904.4850, 11217.31
904.9672, 11217.83
905.4493, 11215.72
905.9314, 11215.50
906.4135, 11215.74
906.8956, 11207.67
907.3777, 11193.18
907.8599, 11192.91
908.3420, 11211.80
908.8241, 11226.68
909.3062, 11218.29
909.7883, 11198.32
910.2704, 11196.36
910.7526, 11213.16
911.2347, 11237.65
911.7168, 11275.69
912.1990, 11283.30
912.6811, 11234.73
913.1632, 11173.66
913.6453, 11149.91
914.1274, 11159.63
914.6096, 11161.13
915.0917, 11146.88
915.5738, 11146.85
916.0559, 11178.57
916.5380, 11200.12
917.0201, 11181.35
917.5023, 11143.84
917.9844, 11124.77
918.4665, 11126.10
918.9486, 11134.61
919.4307, 11159.29
919.9128, 11178.85
920.3950, 11183.26
920.8771, 11187.22
921.3592, 11210.92
921.8413, 11241.44
922.3234, 11240.00
922.8055, 11186.89
923.2877, 11149.30
923.7698, 11153.92
924.2519, 11160.86
924.7340, 11141.59
925.2161, 11121.60
925.6982, 11135.09
926.1804, 11178.45
926.6625, 11215.58
927.1446, 11232.61
927.6267, 11244.70
928.1088, 11255.93
928.5909, 11267.81
929.0731, 11284.65
929.5552, 11301.73
930.0373, 11309.72
930.5194, 11307.28
931.0015, 11304.04
931.4836, 11308.20
931.9658, 11310.73
932.4479, 11289.73
932.9300, 11271.47
933.4121, 11305.90
933.8942, 11375.86
934.3763, 11419.14
934.8585, 11411.98
935.3406, 11387.78
935.8227, 11373.70
936.3048, 11363.58
936.7869, 11348.06
937.2690, 11329.52
937.7512, 11310.02
938.2333, 11292.30
938.7154, 11287.22
939.1975, 11301.89
939.6796, 11323.97
940.1617, 11336.22
940.6439, 11342.97
941.1260, 11355.44
941.6081, 11373.32
942.0902, 11398.68
942.5723, 11430.46
943.0544, 11442.75
943.5366, 11410.49
944.0187, 11360.70
944.5008, 11356.88
944.9829, 11391.10
945.4650, 11406.84
945.9471, 11401.00
946.4293, 11392.44
946.9114, 11387.04
947.3935, 11397.62
947.8756, 11443.91
948.3577, 11510.61
948.8398, 11528.47
949.3220, 11495.36
949.8041, 11476.52
950.2862, 11479.87
950.7683, 11491.29
951.2504, 11504.01
951.7325, 11521.63
952.2147, 11552.51
952.6968, 11594.56
953.1789, 11609.67
953.6610, 11589.73
954.1431, 11584.24
954.6252, 11605.50
955.1074, 11628.86
955.5895, 11639.70
956.0716, 11642.92
956.5537, 11648.11
957.0358, 11656.04
957.5179, 11659.00
958.0001, 11653.88
958.4822, 11652.13
958.9643, 11655.44
959.4464, 11664.41
959.9285, 11680.03
960.4106, 11701.63
960.8928, 11730.43
961.3749, 11779.06
961.8570, 11787.78
962.3391, 11717.23
962.8212, 11674.29
963.3033, 11707.86
963.7855, 11757.47
964.2676, 11770.97
964.7497, 11756.39
965.2318, 11748.99
965.7139, 11746.90
966.1960, 11755.59
966.6782, 11774.45
967.1603, 11804.86
967.6424, 11877.00
968.1245, 11938.50
968.6066, 11920.53
969.0887, 11837.48
969.5709, 11794.89
970.0530, 11822.12
970.5351, 11850.23
971.0172, 11878.14
971.4993, 11902.16
971.9814, 11922.13
972.4636, 11936.36
972.9457, 11937.50
973.4278, 11927.46
973.9099, 11932.49
974.3920, 11973.50
974.8741, 12004.13
975.3563, 12008.53
975.8384, 12009.31
976.3205, 12022.47
976.8026, 12037.92
977.2847, 12033.62
977.7668, 12008.88
978.2490, 12009.11
978.7311, 12075.16
979.2132, 12123.43
979.6953, 12106.16
980.1774, 12088.56
980.6595, 12128.19
981.1417, 12192.32
981.6238, 12219.74
982.1059, 12201.23
982.5880, 12186.79
983.0701, 12189.40
983.5522, 12200.16
984.0344, 12222.19
984.5165, 12245.34
984.9986, 12263.40
985.4807, 12275.98
985.9628, 12284.14
986.4449, 12288.31
986.9271, 12283.39
987.4092, 12245.21
987.8913, 12225.89
988.3734, 12269.15
988.8555, 12323.97
989.3376, 12338.69
989.8198, 12329.80
990.3019, 12349.08
990.7840, 12412.33
991.2661, 12449.74
991.7482, 12395.33
992.2303, 12354.98
992.7125, 12399.46
993.1946, 12470.95
993.6767, 12518.52
994.1588, 12542.97
994.6409, 12559.02
995.1230, 12568.96
995.6052, 12586.09
996.0873, 12621.21
996.5694, 12659.09
997.0515, 12691.22
997.5336, 12721.66
998.0157, 12758.59
998.4979, 12797.22
998.9800, 12820.92
999.4621, 12821.59
999.9442, 12831.48
1000.426, 12878.53
1000.908, 12923.30
1001.391, 12939.27
1001.873, 12942.61
1002.355, 12945.51
1002.837, 12952.98
1003.319, 12975.18
1003.801, 13019.02
1004.283, 13052.32
1004.765, 13042.67
1005.247, 13038.97
1005.730, 13080.61
1006.212, 13137.47
1006.694, 13178.66
1007.176, 13203.90
1007.658, 13223.75
1008.140, 13239.68
1008.622, 13259.70
1009.104, 13295.42
1009.587, 13327.08
1010.069, 13335.42
1010.551, 13338.91
1011.033, 13356.62
1011.515, 13388.35
1011.997, 13427.54
1012.479, 13473.82
1012.961, 13518.01
1013.443, 13554.74
1013.926, 13589.83
1014.408, 13636.11
1014.890, 13675.09
1015.372, 13679.43
1015.854, 13659.33
1016.336, 13645.88
1016.818, 13642.27
1017.300, 13670.41
1017.783, 13779.64
1018.265, 13873.65
1018.747, 13881.19
1019.229, 13864.96
1019.711, 13889.65
1020.193, 13947.07
1020.675, 13998.13
1021.157, 14035.72
1021.639, 14057.61
1022.122, 14034.88
1022.604, 14030.94
1023.086, 14095.12
1023.568, 14174.77
1024.050, 14221.33
1024.532, 14240.89
1025.014, 14262.63
1025.496, 14294.41
1025.979, 14314.76
1026.461, 14290.00
1026.943, 14288.75
1027.425, 14361.40
1027.907, 14447.30
1028.389, 14493.92
1028.871, 14513.00
1029.353, 14542.55
1029.835, 14590.33
1030.318, 14633.53
1030.800, 14671.73
1031.282, 14700.02
1031.764, 14707.02
1032.246, 14712.84
1032.728, 14727.63
1033.210, 14753.90
1033.692, 14800.50
1034.174, 14875.06
1034.657, 14927.98
1035.139, 14927.80
1035.621, 14942.96
1036.103, 15008.88
1036.585, 15073.70
1037.067, 15094.65
1037.549, 15094.42
1038.031, 15118.42
1038.514, 15171.93
1038.996, 15219.65
1039.478, 15260.41
1039.960, 15296.54
1040.442, 15325.90
1040.924, 15353.19
1041.406, 15371.92
1041.888, 15396.14
1042.370, 15456.61
1042.853, 15557.38
1043.335, 15614.63
1043.817, 15592.60
1044.299, 15603.08
1044.781, 15679.26
1045.263, 15751.62
1045.745, 15778.69
1046.227, 15792.38
1046.709, 15840.74
1047.192, 15920.76
1047.674, 15975.42
1048.156, 15995.04
1048.638, 16019.62
1049.120, 16049.76
1049.602, 16096.51
1050.084, 16176.20
1050.566, 16248.26
1051.049, 16255.62
1051.531, 16217.07
1052.013, 16250.80
1052.495, 16373.61
1052.977, 16453.52
1053.459, 16473.37
1053.941, 16504.83
1054.423, 16577.19
1054.906, 16653.50
1055.388, 16695.19
1055.870, 16716.36
1056.352, 16762.53
1056.834, 16833.21
1057.316, 16911.77
1057.798, 16997.99
1058.280, 17060.34
1058.762, 17088.42
1059.245, 17121.99
1059.727, 17197.16
1060.209, 17280.48
1060.691, 17286.15
1061.173, 17237.40
1061.655, 17263.17
1062.137, 17357.20
1062.619, 17459.64
1063.101, 17554.42
1063.584, 17623.67
1064.066, 17654.89
1064.548, 17676.01
1065.030, 17726.76
1065.512, 17797.56
1065.994, 17874.26
1066.476, 17949.01
1066.958, 17988.72
1067.441, 17998.66
1067.923, 18031.91
1068.405, 18113.81
1068.887, 18204.20
1069.369, 18264.45
1069.851, 18307.57
1070.333, 18334.93
1070.815, 18366.60
1071.297, 18445.01
1071.780, 18559.62
1072.262, 18671.85
1072.744, 18767.87
1073.226, 18842.97
1073.708, 18878.90
1074.190, 18911.79
1074.672, 18971.83
1075.154, 19043.75
1075.636, 19117.28
1076.119, 19188.01
1076.601, 19254.45
1077.083, 19314.80
1077.565, 19359.33
1078.047, 19362.93
1078.529, 19389.04
1079.011, 19481.67
1079.494, 19590.35
1079.976, 19697.55
1080.458, 19789.27
1080.940, 19842.34
1081.422, 19863.24
1081.904, 19890.24
1082.386, 19923.26
1082.868, 19981.37
1083.350, 20098.79
1083.833, 20203.10
1084.315, 20243.30
1084.797, 20280.57
1085.279, 20389.43
1085.761, 20537.61
1086.243, 20617.13
1086.725, 20597.71
1087.207, 20631.77
1087.689, 20753.31
1088.172, 20867.90
1088.654, 20966.27
1089.136, 21038.24
1089.618, 21060.86
1090.100, 21072.42
1090.582, 21141.22
1091.064, 21266.16
1091.546, 21382.85
1092.029, 21491.11
1092.511, 21588.07
1092.993, 21669.71
1093.475, 21755.77
1093.957, 21852.49
1094.439, 21970.54
1094.921, 22132.36
1095.403, 22310.45
1095.885, 22394.49
1096.368, 22393.29
1096.850, 22411.58
1097.332, 22456.20
1097.814, 22522.21
1098.296, 22608.05
1098.778, 22708.59
1099.260, 22821.81
1099.742, 22937.48
1100.224, 23039.48
1100.707, 23130.31
1101.189, 23222.49
1101.671, 23307.17
1102.153, 23336.27
1102.635, 23322.71
1103.117, 23365.61
1103.599, 23513.83
1104.081, 23675.01
1104.564, 23759.22
1105.046, 23820.47
1105.528, 23908.93
1106.010, 24013.92
1106.492, 24125.60
1106.974, 24239.04
1107.456, 24349.04
1107.938, 24453.87
1108.421, 24552.71
1108.903, 24630.33
1109.385, 24723.03
1109.867, 24873.86
1110.349, 25016.81
1110.831, 25075.82
1111.313, 25118.32
1111.795, 25258.97
1112.277, 25482.24
1112.760, 25632.52
1113.242, 25622.36
1113.724, 25686.65
1114.206, 25930.03
1114.688, 26139.71
1115.170, 26239.81
1115.652, 26304.60
1116.134, 26377.41
1116.616, 26462.22
1117.099, 26572.05
1117.581, 26711.40
1118.063, 26827.62
1118.545, 26910.13
1119.027, 27012.21
1119.509, 27146.02
1119.991, 27287.56
1120.473, 27429.07
1120.956, 27559.25
1121.438, 27657.35
1121.920, 27740.08
1122.402, 27884.14
1122.884, 28080.63
1123.366, 28231.64
1123.848, 28333.44
1124.330, 28424.91
1124.813, 28519.25
1125.295, 28634.10
1125.777, 28785.33
1126.259, 28947.64
1126.741, 29088.90
1127.223, 29214.88
1127.705, 29323.16
1128.187, 29429.10
1128.669, 29578.96
1129.151, 29759.57
1129.634, 29901.74
1130.116, 29977.71
1130.598, 30048.59
1131.080, 30153.47
1131.562, 30269.50
1132.044, 30372.48
1132.526, 30488.00
1133.008, 30657.86
1133.491, 30848.54
1133.973, 31004.07
1134.455, 31119.67
1134.937, 31226.31
1135.419, 31314.27
1135.901, 31425.20
1136.383, 31594.75
1136.865, 31750.32
1137.348, 31825.98
1137.830, 31913.39
1138.312, 32112.31
1138.794, 32365.66
1139.276, 32515.38
1139.758, 32538.00
1140.240, 32649.58
1140.722, 32884.27
1141.204, 33058.61
1141.687, 33128.30
1142.169, 33204.50
1142.651, 33343.13
1143.133, 33515.40
1143.615, 33693.72
1144.097, 33871.14
1144.579, 34033.30
1145.061, 34177.64
1145.543, 34276.34
1146.026, 34341.39
1146.508, 34446.34
1146.990, 34604.13
1147.472, 34752.48
1147.954, 34851.51
1148.436, 34940.84
1148.918, 35059.12
1149.400, 35196.15
1149.883, 35342.21
1150.365, 35497.05
1150.847, 35674.63
1151.329, 35858.65
1151.811, 36000.34
1152.293, 36089.96
1152.775, 36193.91
1153.257, 36367.30
1153.740, 36520.49
1154.222, 36592.15
1154.704, 36669.91
1155.186, 36810.88
1155.668, 36982.48
1156.150, 37152.55
1156.632, 37316.82
1157.114, 37463.38
1157.596, 37583.46
1158.078, 37715.33
1158.561, 37855.80
1159.043, 38019.52
1159.525, 38224.02
1160.007, 38402.98
1160.489, 38511.70
1160.971, 38594.29
1161.453, 38711.33
1161.935, 38857.53
1162.418, 39027.92
1162.900, 39213.53
1163.382, 39338.20
1163.864, 39406.44
1164.346, 39488.09
1164.828, 39603.50
1165.310, 39733.62
1165.792, 39867.91
1166.275, 40000.39
1166.757, 40129.30
1167.239, 40248.88
1167.721, 40339.70
1168.203, 40424.64
1168.685, 40529.29
1169.167, 40659.73
1169.649, 40831.97
1170.131, 41045.76
1170.614, 41226.51
1171.096, 41327.65
1171.578, 41418.67
1172.060, 41511.50
1172.542, 41609.35
1173.024, 41715.20
1173.506, 41826.77
1173.988, 41933.46
1174.470, 42046.55
1174.953, 42209.70
1175.435, 42440.36
1175.917, 42605.07
1176.399, 42685.36
1176.881, 42781.18
1177.363, 42910.11
1177.845, 43051.29
1178.327, 43198.72
1178.810, 43316.75
1179.292, 43351.39
1179.774, 43353.83
1180.256, 43457.19
1180.738, 43629.64
1181.220, 43775.13
1181.702, 43897.05
1182.184, 44027.39
1182.667, 44170.82
1183.149, 44318.32
1183.631, 44467.17
1184.113, 44590.88
1184.595, 44638.97
1185.077, 44693.77
1185.559, 44809.39
1186.041, 44964.18
1186.523, 45166.57
1187.005, 45377.24
1187.488, 45530.65
1187.970, 45628.46
1188.452, 45746.89
1188.934, 45906.55
1189.416, 46062.11
1189.898, 46223.01
1190.380, 46356.04
1190.862, 46436.03
1191.345, 46524.36
1191.827, 46663.71
1192.309, 46825.55
1192.791, 46962.09
1193.273, 47083.10
1193.755, 47254.95
1194.237, 47464.29
1194.719, 47576.21
1195.202, 47596.83
1195.684, 47628.73
1196.166, 47704.64
1196.648, 47843.56
1197.130, 48066.06
1197.612, 48276.57
1198.094, 48354.93
1198.576, 48397.59
1199.058, 48486.17
1199.541, 48611.63
1200.023, 48773.32
1200.505, 48954.14
1200.987, 49133.75
1201.469, 49305.42
1201.951, 49441.27
1202.433, 49511.22
1202.915, 49591.52
1203.397, 49701.03
1203.880, 49808.25
1204.362, 49904.19
1204.844, 50000.61
1205.326, 50112.22
1205.808, 50218.70
1206.290, 50275.65
1206.772, 50297.34
1207.254, 50402.37
1207.737, 50585.23
1208.219, 50748.32
1208.701, 50881.37
1209.183, 50951.19
1209.665, 50960.30
1210.147, 51024.25
1210.629, 51222.78
1211.111, 51451.61
1211.594, 51599.47
1212.076, 51721.74
1212.558, 51872.29
1213.040, 52034.56
1213.522, 52186.71
1214.004, 52332.02
1214.486, 52481.43
1214.968, 52635.92
##END=



