##NAMES=Karchevskyite
##RRUFFID=R070103
##IDEAL CHEMISTRY=Mg_18_Al_9_(OH)_54_Sr_2_(CO_3_)_9_(H_2_O)_6_(H_3_O)_5_
##LOCALITY=Zheleznyi mine, Kovdor Massif, Kola Peninsula, Russia
##OWNER=RRUFF
##SOURCE=Michael Scott
##DESCRIPTION=Colorless hexagonal plates, co-type material, associated with phlogopite, dolomite, pyrite, and magnetite. We only observed the subcell.
##STATUS=The identification of this mineral has been confirmed only by single crystal X-ray diffraction.
##URL=rruff.info/R070103
127.5224, 1020.876
128.0046, 1071.844
128.4867, 1124.415
128.9688, 1178.525
129.4509, 1235.574
129.9330, 1296.677
130.4151, 1356.362
130.8973, 1406.571
131.3794, 1447.947
131.8615, 1483.949
132.3436, 1511.692
132.8257, 1533.183
133.3078, 1566.486
133.7900, 1616.172
134.2721, 1676.018
134.7542, 1730.661
135.2363, 1778.890
135.7184, 1825.521
136.2005, 1871.654
136.6827, 1916.836
137.1648, 1969.779
137.6469, 2037.893
138.1290, 2119.715
138.6111, 2180.936
139.0932, 2218.008
139.5753, 2240.707
140.0575, 2259.717
140.5396, 2272.313
141.0217, 2288.621
141.5038, 2311.837
141.9859, 2341.672
142.4680, 2378.531
142.9502, 2421.128
143.4323, 2471.060
143.9144, 2532.828
144.3965, 2615.011
144.8786, 2697.806
145.3607, 2770.903
145.8429, 2822.414
146.3250, 2882.942
146.8071, 2959.408
147.2892, 3051.615
147.7713, 3131.088
148.2534, 3185.477
148.7356, 3234.502
149.2177, 3294.183
149.6998, 3387.490
150.1819, 3468.863
150.6640, 3528.584
151.1461, 3561.717
151.6283, 3594.657
152.1104, 3631.621
152.5925, 3668.189
153.0746, 3697.202
153.5567, 3717.963
154.0388, 3731.059
154.5210, 3738.221
155.0031, 3748.526
155.4852, 3737.534
155.9673, 3684.707
156.4494, 3604.130
156.9315, 3539.696
157.4137, 3514.053
157.8958, 3500.380
158.3779, 3482.338
158.8600, 3454.384
159.3421, 3423.573
159.8242, 3390.553
160.3064, 3355.850
160.7885, 3321.116
161.2706, 3286.313
161.7527, 3252.040
162.2348, 3218.918
162.7169, 3188.601
163.1991, 3158.397
163.6812, 3125.312
164.1633, 3087.729
164.6454, 3055.022
165.1275, 3033.812
165.6096, 3020.382
166.0918, 3008.154
166.5739, 2998.583
167.0560, 2986.598
167.5381, 2966.709
168.0202, 2933.710
168.5023, 2901.443
168.9845, 2878.349
169.4666, 2863.618
169.9487, 2855.006
170.4308, 2863.188
170.9129, 2873.155
171.3950, 2865.797
171.8772, 2825.650
172.3593, 2775.771
172.8414, 2734.254
173.3235, 2701.036
173.8056, 2678.444
174.2877, 2680.334
174.7699, 2693.872
175.2520, 2695.275
175.7341, 2664.170
176.2162, 2619.556
176.6983, 2585.801
177.1804, 2563.257
177.6626, 2549.713
178.1447, 2549.972
178.6268, 2559.246
179.1089, 2561.373
179.5910, 2542.038
180.0731, 2510.470
180.5553, 2485.252
181.0374, 2468.472
181.5195, 2456.917
182.0016, 2448.903
182.4837, 2443.725
182.9658, 2435.194
183.4479, 2415.496
183.9301, 2388.365
184.4122, 2367.198
184.8943, 2355.766
185.3764, 2349.844
185.8585, 2342.966
186.3406, 2335.276
186.8228, 2322.555
187.3049, 2296.612
187.7870, 2260.217
188.2691, 2230.089
188.7512, 2214.444
189.2333, 2208.200
189.7155, 2192.826
190.1976, 2166.846
190.6797, 2140.295
191.1618, 2126.895
191.6439, 2126.203
192.1260, 2124.939
192.6082, 2116.857
193.0903, 2102.882
193.5724, 2092.315
194.0545, 2085.409
194.5366, 2080.873
195.0187, 2078.956
195.5009, 2080.298
195.9830, 2076.237
196.4651, 2057.571
196.9472, 2024.085
197.4293, 2003.112
197.9114, 1998.996
198.3936, 2004.726
198.8757, 2004.467
199.3578, 1997.403
199.8399, 1988.058
200.3220, 1978.313
200.8041, 1967.862
201.2863, 1960.623
201.7684, 1958.522
202.2505, 1959.694
202.7326, 1955.786
203.2147, 1945.033
203.6968, 1934.236
204.1790, 1930.924
204.6611, 1937.414
205.1432, 1938.351
205.6253, 1927.838
206.1074, 1907.416
206.5895, 1897.294
207.0716, 1900.875
207.5538, 1908.593
208.0359, 1909.211
208.5180, 1900.575
209.0001, 1892.361
209.4822, 1888.134
209.9643, 1888.432
210.4465, 1884.820
210.9286, 1876.222
211.4107, 1864.920
211.8928, 1854.186
212.3749, 1844.033
212.8570, 1834.688
213.3392, 1825.786
213.8213, 1816.693
214.3034, 1811.723
214.7855, 1813.563
215.2676, 1817.974
215.7497, 1814.245
216.2319, 1798.395
216.7140, 1782.534
217.1961, 1772.015
217.6782, 1767.089
218.1603, 1767.880
218.6424, 1777.282
219.1246, 1792.026
219.6067, 1801.108
220.0888, 1805.236
220.5709, 1802.554
221.0530, 1789.116
221.5351, 1755.576
222.0173, 1735.243
222.4994, 1736.567
222.9815, 1755.913
223.4636, 1763.916
223.9457, 1756.055
224.4278, 1742.766
224.9100, 1731.723
225.3921, 1723.221
225.8742, 1716.569
226.3563, 1712.030
226.8384, 1709.573
227.3205, 1707.417
227.8026, 1706.381
228.2848, 1704.807
228.7669, 1700.555
229.2490, 1690.843
229.7311, 1683.603
230.2132, 1681.248
230.6953, 1684.430
231.1775, 1686.807
231.6596, 1689.724
232.1417, 1690.788
232.6238, 1685.907
233.1059, 1669.786
233.5880, 1656.807
234.0702, 1651.718
234.5523, 1656.641
235.0344, 1660.815
235.5165, 1665.260
235.9986, 1668.380
236.4807, 1667.073
236.9629, 1658.781
237.4450, 1650.053
237.9271, 1644.048
238.4092, 1644.294
238.8913, 1636.615
239.3734, 1614.744
239.8556, 1586.901
240.3377, 1572.922
240.8198, 1580.591
241.3019, 1590.831
241.7840, 1595.955
242.2661, 1595.473
242.7483, 1590.304
243.2304, 1576.811
243.7125, 1558.987
244.1946, 1550.691
244.6767, 1558.165
245.1588, 1566.593
245.6410, 1567.162
246.1231, 1553.161
246.6052, 1546.571
247.0873, 1553.164
247.5694, 1568.969
248.0515, 1573.191
248.5337, 1561.515
249.0158, 1544.174
249.4979, 1525.898
249.9800, 1500.917
250.4621, 1488.116
250.9442, 1494.225
251.4263, 1516.061
251.9085, 1528.118
252.3906, 1528.167
252.8727, 1521.246
253.3548, 1509.656
253.8369, 1488.214
254.3190, 1473.609
254.8012, 1468.412
255.2833, 1472.387
255.7654, 1483.479
256.2475, 1510.014
256.7296, 1533.165
257.2118, 1533.399
257.6939, 1497.554
258.1760, 1469.856
258.6581, 1460.989
259.1402, 1470.631
259.6223, 1473.637
260.1045, 1466.037
260.5866, 1456.988
261.0687, 1457.352
261.5508, 1472.786
262.0329, 1482.481
262.5150, 1479.079
262.9971, 1462.146
263.4792, 1453.623
263.9614, 1456.874
264.4435, 1464.182
264.9256, 1466.522
265.4077, 1462.447
265.8898, 1457.648
266.3719, 1453.897
266.8541, 1451.323
267.3362, 1446.278
267.8183, 1437.019
268.3004, 1427.800
268.7825, 1425.334
269.2646, 1431.808
269.7468, 1437.586
270.2289, 1440.796
270.7110, 1441.672
271.1931, 1433.214
271.6752, 1410.152
272.1573, 1385.889
272.6395, 1382.779
273.1216, 1406.380
273.6037, 1427.316
274.0858, 1432.761
274.5679, 1421.827
275.0500, 1417.969
275.5322, 1423.300
276.0143, 1432.118
276.4964, 1435.469
276.9785, 1432.613
277.4606, 1428.865
277.9427, 1425.390
278.4249, 1422.111
278.9070, 1423.877
279.3891, 1432.824
279.8712, 1442.655
280.3533, 1440.182
280.8354, 1423.838
281.3176, 1412.436
281.7997, 1417.334
282.2818, 1437.719
282.7639, 1453.983
283.2460, 1465.974
283.7281, 1473.621
284.2103, 1475.991
284.6924, 1473.009
285.1745, 1467.932
285.6566, 1459.375
286.1387, 1448.617
286.6208, 1447.043
287.1030, 1456.809
287.5851, 1471.439
288.0672, 1480.636
288.5493, 1484.654
289.0314, 1489.698
289.5135, 1502.493
289.9957, 1519.960
290.4778, 1526.310
290.9599, 1517.919
291.4420, 1505.883
291.9241, 1508.436
292.4063, 1523.819
292.8884, 1537.812
293.3705, 1538.734
293.8526, 1532.029
294.3347, 1534.542
294.8168, 1549.291
295.2990, 1568.105
295.7811, 1581.063
296.2632, 1589.093
296.7453, 1596.719
297.2274, 1606.063
297.7095, 1616.919
298.1917, 1629.222
298.6738, 1643.352
299.1559, 1657.288
299.6380, 1669.563
300.1201, 1679.888
300.6022, 1686.783
301.0844, 1685.077
301.5665, 1680.845
302.0486, 1683.754
302.5307, 1695.703
303.0128, 1710.999
303.4949, 1727.658
303.9771, 1743.815
304.4592, 1753.965
304.9413, 1750.907
305.4234, 1742.325
305.9055, 1737.648
306.3876, 1739.029
306.8697, 1739.384
307.3518, 1730.661
307.8340, 1716.572
308.3161, 1705.291
308.7982, 1703.711
309.2803, 1704.918
309.7624, 1702.785
310.2445, 1696.002
310.7267, 1688.569
311.2088, 1684.119
311.6909, 1680.627
312.1730, 1674.533
312.6551, 1658.751
313.1372, 1643.667
313.6194, 1636.916
314.1015, 1641.105
314.5836, 1645.947
315.0657, 1647.671
315.5478, 1646.714
316.0299, 1643.726
316.5121, 1636.210
316.9942, 1628.823
317.4763, 1623.595
317.9584, 1620.692
318.4405, 1620.114
318.9226, 1625.572
319.4048, 1632.438
319.8869, 1634.557
320.3690, 1624.666
320.8511, 1614.800
321.3332, 1608.847
321.8153, 1607.257
322.2975, 1608.816
322.7796, 1619.115
323.2617, 1630.544
323.7438, 1634.247
324.2259, 1619.038
324.7080, 1605.628
325.1902, 1599.955
325.6723, 1603.912
326.1544, 1606.824
326.6365, 1607.709
327.1186, 1607.475
327.6007, 1607.096
328.0829, 1606.382
328.5650, 1605.700
329.0471, 1603.846
329.5292, 1600.029
330.0113, 1602.590
330.4934, 1617.220
330.9756, 1634.098
331.4577, 1643.609
331.9398, 1640.061
332.4219, 1638.844
332.9040, 1645.424
333.3861, 1659.865
333.8683, 1661.068
334.3504, 1638.714
334.8325, 1615.772
335.3146, 1617.178
335.7967, 1656.085
336.2788, 1680.440
336.7610, 1676.138
337.2431, 1647.578
337.7252, 1631.824
338.2073, 1631.422
338.6894, 1638.348
339.1715, 1647.572
339.6537, 1659.711
340.1358, 1669.413
340.6179, 1675.840
341.1000, 1679.117
341.5821, 1678.722
342.0642, 1674.094
342.5464, 1668.758
343.0285, 1665.806
343.5106, 1665.098
343.9927, 1662.679
344.4748, 1657.244
344.9569, 1650.605
345.4391, 1645.749
345.9212, 1642.717
346.4033, 1642.915
346.8854, 1651.239
347.3675, 1664.276
347.8496, 1668.827
348.3318, 1660.101
348.8139, 1648.315
349.2960, 1648.466
349.7781, 1659.255
350.2602, 1672.647
350.7423, 1687.310
351.2244, 1700.528
351.7065, 1705.733
352.1887, 1699.800
352.6708, 1693.730
353.1529, 1700.859
353.6350, 1717.173
354.1171, 1731.359
354.5992, 1736.128
355.0814, 1736.433
355.5635, 1736.961
356.0456, 1738.134
356.5277, 1739.708
357.0098, 1739.494
357.4919, 1739.773
357.9741, 1744.458
358.4562, 1761.855
358.9383, 1779.259
359.4204, 1786.797
359.9025, 1782.542
360.3846, 1781.962
360.8668, 1796.383
361.3489, 1816.611
361.8310, 1832.068
362.3131, 1830.788
362.7952, 1832.406
363.2773, 1847.379
363.7595, 1876.466
364.2416, 1898.948
364.7237, 1909.913
365.2058, 1912.659
365.6879, 1909.866
366.1700, 1898.196
366.6522, 1885.024
367.1343, 1871.796
367.6164, 1858.383
368.0985, 1842.795
368.5806, 1820.070
369.0627, 1798.914
369.5449, 1784.400
370.0270, 1781.713
370.5091, 1777.733
370.9912, 1771.601
371.4733, 1763.610
371.9554, 1754.302
372.4376, 1741.258
372.9197, 1730.477
373.4018, 1725.346
373.8839, 1727.471
374.3660, 1730.775
374.8481, 1736.715
375.3303, 1742.551
375.8124, 1740.376
376.2945, 1727.452
376.7766, 1716.845
377.2587, 1715.761
377.7408, 1724.560
378.2230, 1731.804
378.7051, 1737.009
379.1872, 1741.409
379.6693, 1747.333
380.1514, 1754.699
380.6335, 1760.933
381.1157, 1763.583
381.5978, 1764.065
382.0799, 1766.777
382.5620, 1771.438
383.0441, 1780.440
383.5262, 1801.357
384.0084, 1829.741
384.4905, 1850.150
384.9726, 1854.287
385.4547, 1849.455
385.9368, 1844.118
386.4189, 1838.422
386.9011, 1835.964
387.3832, 1839.407
387.8653, 1847.729
388.3474, 1859.847
388.8295, 1878.500
389.3116, 1896.970
389.7938, 1911.599
390.2759, 1922.185
390.7580, 1928.276
391.2401, 1922.585
391.7222, 1916.306
392.2043, 1918.512
392.6865, 1933.974
393.1686, 1952.190
393.6507, 1973.082
394.1328, 1993.737
394.6149, 2008.310
395.0970, 2003.793
395.5792, 2001.743
396.0613, 2014.024
396.5434, 2049.757
397.0255, 2075.208
397.5076, 2080.125
397.9897, 2074.338
398.4718, 2071.023
398.9539, 2072.016
399.4361, 2074.104
399.9182, 2079.131
400.4003, 2088.558
400.8824, 2085.968
401.3645, 2064.341
401.8466, 2037.319
402.3288, 2018.231
402.8109, 2012.417
403.2930, 2001.411
403.7751, 1981.220
404.2572, 1953.205
404.7393, 1925.717
405.2215, 1898.391
405.7036, 1872.180
406.1857, 1848.025
406.6678, 1826.023
407.1499, 1803.608
407.6320, 1779.878
408.1142, 1757.203
408.5963, 1740.808
409.0784, 1730.649
409.5605, 1724.621
410.0426, 1727.575
410.5247, 1734.279
411.0069, 1722.802
411.4890, 1688.320
411.9711, 1653.185
412.4532, 1647.990
412.9353, 1664.150
413.4174, 1676.258
413.8996, 1669.677
414.3817, 1654.516
414.8638, 1641.595
415.3459, 1631.176
415.8280, 1622.601
416.3102, 1613.083
416.7923, 1605.938
417.2744, 1605.357
417.7565, 1624.400
418.2386, 1639.055
418.7207, 1630.830
419.2029, 1604.771
419.6850, 1585.846
420.1671, 1587.182
420.6492, 1596.023
421.1313, 1604.936
421.6134, 1616.174
422.0956, 1621.607
422.5777, 1617.080
423.0598, 1605.865
423.5419, 1595.297
424.0240, 1579.924
424.5061, 1571.168
424.9883, 1574.002
425.4704, 1592.782
425.9525, 1607.239
426.4346, 1616.538
426.9167, 1622.273
427.3988, 1625.894
427.8810, 1626.249
428.3631, 1627.603
428.8452, 1632.318
429.3273, 1639.528
429.8094, 1638.890
430.2915, 1627.870
430.7737, 1616.167
431.2558, 1612.408
431.7379, 1616.565
432.2200, 1621.580
432.7021, 1626.880
433.1842, 1631.781
433.6664, 1633.465
434.1485, 1632.207
434.6306, 1633.662
435.1127, 1644.443
435.5948, 1660.163
436.0769, 1671.282
436.5591, 1677.052
437.0412, 1677.889
437.5233, 1670.750
438.0054, 1658.926
438.4875, 1649.694
438.9696, 1645.419
439.4518, 1645.799
439.9339, 1653.443
440.4160, 1667.976
440.8981, 1679.283
441.3802, 1677.043
441.8623, 1671.120
442.3444, 1670.998
442.8265, 1689.696
443.3087, 1702.817
443.7908, 1695.703
444.2729, 1675.289
444.7550, 1667.785
445.2371, 1693.664
445.7192, 1721.254
446.2014, 1736.178
446.6835, 1730.521
447.1656, 1726.668
447.6477, 1725.612
448.1298, 1725.922
448.6119, 1725.675
449.0941, 1725.784
449.5762, 1723.315
450.0583, 1714.623
450.5404, 1699.582
451.0225, 1700.548
451.5046, 1723.681
451.9868, 1748.479
452.4689, 1750.764
452.9510, 1728.727
453.4331, 1722.346
453.9152, 1743.899
454.3973, 1779.395
454.8795, 1793.165
455.3616, 1785.954
455.8437, 1779.327
456.3258, 1790.527
456.8079, 1812.001
457.2900, 1826.158
457.7722, 1830.736
458.2543, 1830.447
458.7364, 1824.772
459.2185, 1817.831
459.7006, 1818.345
460.1827, 1840.316
460.6649, 1863.854
461.1470, 1871.794
461.6291, 1864.723
462.1112, 1857.173
462.5933, 1855.671
463.0754, 1857.228
463.5576, 1859.526
464.0397, 1864.957
464.5218, 1867.337
465.0039, 1860.591
465.4860, 1849.150
465.9681, 1845.881
466.4503, 1860.240
466.9324, 1875.933
467.4145, 1886.644
467.8966, 1888.997
468.3787, 1899.074
468.8608, 1924.761
469.3430, 1951.495
469.8251, 1959.721
470.3072, 1941.698
470.7893, 1928.235
471.2714, 1926.397
471.7535, 1934.651
472.2357, 1946.776
472.7178, 1963.838
473.1999, 1979.137
473.6820, 1987.598
474.1641, 1989.725
474.6462, 1988.223
475.1284, 1982.300
475.6105, 1975.947
476.0926, 1975.203
476.5747, 1979.028
477.0568, 1983.383
477.5389, 1988.542
478.0211, 1991.999
478.5032, 1990.592
478.9853, 1984.230
479.4674, 1974.406
479.9495, 1957.905
480.4316, 1940.102
480.9138, 1926.906
481.3959, 1920.218
481.8780, 1918.507
482.3601, 1925.982
482.8422, 1938.923
483.3243, 1945.127
483.8065, 1934.080
484.2886, 1921.992
484.7707, 1915.755
485.2528, 1917.703
485.7349, 1920.783
486.2170, 1923.929
486.6991, 1928.809
487.1812, 1938.239
487.6634, 1956.122
488.1455, 1970.397
488.6276, 1979.239
489.1097, 1982.644
489.5918, 1979.485
490.0739, 1968.381
490.5561, 1955.607
491.0382, 1944.173
491.5203, 1934.234
492.0024, 1930.047
492.4845, 1933.163
492.9666, 1938.886
493.4488, 1941.757
493.9309, 1941.688
494.4130, 1938.452
494.8951, 1928.289
495.3772, 1916.636
495.8593, 1911.239
496.3415, 1911.935
496.8236, 1913.709
497.3057, 1912.442
497.7878, 1910.800
498.2699, 1912.122
498.7520, 1922.157
499.2342, 1927.887
499.7163, 1919.199
500.1984, 1902.343
500.6805, 1892.209
501.1626, 1898.539
501.6447, 1906.689
502.1269, 1911.519
502.6090, 1912.001
503.0911, 1912.544
503.5732, 1913.848
504.0553, 1914.627
504.5374, 1912.632
505.0196, 1904.121
505.5017, 1903.855
505.9838, 1918.841
506.4659, 1941.272
506.9480, 1944.580
507.4301, 1926.328
507.9123, 1905.031
508.3944, 1888.009
508.8765, 1875.887
509.3586, 1873.177
509.8407, 1880.914
510.3228, 1892.901
510.8050, 1905.032
511.2871, 1916.044
511.7692, 1922.225
512.2513, 1918.113
512.7334, 1912.892
513.2155, 1916.959
513.6976, 1928.352
514.1797, 1938.102
514.6619, 1939.867
515.1440, 1939.507
515.6261, 1941.949
516.1082, 1950.065
516.5903, 1953.958
517.0724, 1945.716
517.5546, 1933.534
518.0367, 1927.740
518.5188, 1930.829
519.0009, 1939.332
519.4830, 1955.881
519.9651, 1978.998
520.4473, 1994.777
520.9294, 2001.384
521.4115, 2003.803
521.8936, 2003.210
522.3757, 1998.524
522.8578, 1999.720
523.3400, 2008.031
523.8221, 2020.429
524.3042, 2033.840
524.7863, 2048.010
525.2684, 2059.269
525.7505, 2062.443
526.2327, 2064.200
526.7148, 2080.444
527.1969, 2109.268
527.6790, 2134.618
528.1611, 2142.666
528.6432, 2142.134
529.1254, 2140.752
529.6075, 2136.339
530.0896, 2142.693
530.5717, 2176.602
531.0538, 2223.609
531.5359, 2263.046
532.0181, 2283.364
532.5002, 2300.561
532.9823, 2317.684
533.4644, 2335.161
533.9465, 2354.538
534.4286, 2371.854
534.9108, 2395.308
535.3929, 2431.600
535.8750, 2489.531
536.3571, 2533.644
536.8392, 2557.885
537.3214, 2575.931
537.8035, 2609.723
538.2856, 2659.724
538.7677, 2714.666
539.2498, 2772.719
539.7319, 2832.961
540.2141, 2893.636
540.6962, 2955.206
541.1783, 3016.764
541.6604, 3071.571
542.1425, 3127.093
542.6246, 3197.194
543.1068, 3285.701
543.5889, 3379.163
544.0710, 3459.618
544.5531, 3540.002
545.0352, 3640.686
545.5173, 3790.638
545.9995, 3940.190
546.4816, 4064.325
546.9637, 4167.618
547.4458, 4288.489
547.9279, 4449.915
548.4100, 4615.782
548.8922, 4767.917
549.3743, 4898.291
549.8564, 5038.350
550.3385, 5191.534
550.8206, 5351.796
551.3027, 5514.104
551.7849, 5680.404
552.2670, 5835.728
552.7491, 5971.291
553.2312, 6097.434
553.7133, 6248.997
554.1954, 6424.523
554.6776, 6594.060
555.1597, 6744.651
555.6418, 6876.231
556.1239, 6991.080
556.6060, 7090.263
557.0881, 7163.342
557.5703, 7206.625
558.0524, 7216.634
558.5345, 7188.225
559.0166, 7122.614
559.4987, 7015.441
559.9808, 6862.534
560.4630, 6665.534
560.9451, 6432.570
561.4272, 6138.322
561.9093, 5833.191
562.3914, 5530.778
562.8735, 5225.239
563.3557, 4954.176
563.8378, 4731.205
564.3199, 4525.131
564.8020, 4301.715
565.2841, 4051.692
565.7662, 3830.400
566.2484, 3641.915
566.7305, 3482.799
567.2126, 3348.561
567.6947, 3237.341
568.1768, 3134.105
568.6589, 3029.157
569.1411, 2928.003
569.6232, 2835.060
570.1053, 2751.120
570.5874, 2675.568
571.0695, 2610.256
571.5516, 2552.848
572.0338, 2502.792
572.5159, 2461.596
572.9980, 2422.233
573.4801, 2382.454
573.9622, 2342.887
574.4443, 2305.503
574.9265, 2266.619
575.4086, 2234.083
575.8907, 2210.635
576.3728, 2195.214
576.8549, 2181.175
577.3370, 2170.899
577.8192, 2157.571
578.3013, 2135.162
578.7834, 2102.738
579.2655, 2078.898
579.7476, 2064.641
580.2297, 2055.375
580.7119, 2045.500
581.1940, 2035.813
581.6761, 2029.986
582.1582, 2030.822
582.6403, 2033.196
583.1224, 2032.875
583.6046, 2029.412
584.0867, 2021.486
584.5688, 2004.334
585.0509, 1985.573
585.5330, 1968.169
586.0151, 1952.121
586.4973, 1942.900
586.9794, 1947.283
587.4615, 1955.633
587.9436, 1961.134
588.4257, 1963.185
588.9078, 1962.918
589.3900, 1959.439
589.8721, 1954.283
590.3542, 1949.801
590.8363, 1945.868
591.3184, 1943.335
591.8005, 1943.264
592.2827, 1944.502
592.7648, 1942.896
593.2469, 1938.455
593.7290, 1932.562
594.2111, 1923.887
594.6932, 1915.003
595.1754, 1910.719
595.6575, 1911.731
596.1396, 1915.079
596.6217, 1922.576
597.1038, 1929.580
597.5859, 1930.412
598.0680, 1913.583
598.5501, 1901.898
599.0322, 1906.614
599.5143, 1921.554
599.9965, 1929.165
600.4786, 1921.629
600.9607, 1914.640
601.4428, 1912.885
601.9249, 1916.336
602.4070, 1918.060
602.8892, 1918.910
603.3713, 1915.810
603.8534, 1903.701
604.3355, 1883.506
604.8176, 1870.017
605.2997, 1865.552
605.7819, 1863.431
606.2640, 1852.621
606.7461, 1837.465
607.2282, 1829.050
607.7103, 1835.148
608.1924, 1845.679
608.6746, 1855.163
609.1567, 1862.742
609.6388, 1865.141
610.1209, 1852.988
610.6030, 1842.304
611.0851, 1841.883
611.5673, 1854.193
612.0494, 1865.151
612.5315, 1879.000
613.0136, 1886.741
613.4957, 1879.126
613.9778, 1847.181
614.4600, 1832.104
614.9421, 1841.570
615.4242, 1859.889
615.9063, 1858.280
616.3884, 1838.263
616.8705, 1825.701
617.3527, 1834.421
617.8348, 1850.285
618.3169, 1849.270
618.7990, 1833.697
619.2811, 1814.895
619.7632, 1790.909
620.2454, 1772.211
620.7275, 1771.574
621.2096, 1791.921
621.6917, 1805.541
622.1738, 1793.338
622.6559, 1776.307
623.1381, 1770.990
623.6202, 1793.165
624.1023, 1805.442
624.5844, 1802.915
625.0665, 1793.759
625.5486, 1792.266
626.0308, 1800.964
626.5129, 1805.605
626.9950, 1800.806
627.4771, 1790.304
627.9592, 1787.271
628.4413, 1791.029
628.9235, 1790.027
629.4056, 1768.109
629.8877, 1741.026
630.3698, 1734.515
630.8519, 1750.141
631.3340, 1766.359
631.8162, 1768.934
632.2983, 1766.020
632.7804, 1764.690
633.2625, 1765.777
633.7446, 1769.519
634.2267, 1781.234
634.7089, 1793.855
635.1910, 1796.623
635.6731, 1784.282
636.1552, 1771.768
636.6373, 1758.949
637.1194, 1748.743
637.6016, 1754.770
638.0837, 1779.069
638.5658, 1799.766
639.0479, 1803.057
639.5300, 1794.187
640.0121, 1787.280
640.4943, 1782.387
640.9764, 1780.244
641.4585, 1784.843
641.9406, 1790.944
642.4227, 1791.277
642.9048, 1781.393
643.3870, 1775.624
643.8691, 1785.135
644.3512, 1799.981
644.8333, 1808.263
645.3154, 1799.321
645.7975, 1795.449
646.2797, 1802.447
646.7618, 1814.956
647.2439, 1815.504
647.7260, 1799.524
648.2081, 1789.210
648.6902, 1796.143
649.1724, 1815.237
649.6545, 1824.770
650.1366, 1824.878
650.6187, 1820.187
651.1008, 1807.466
651.5829, 1794.742
652.0651, 1796.024
652.5472, 1814.285
653.0293, 1833.779
653.5114, 1847.833
653.9935, 1857.234
654.4756, 1862.702
654.9578, 1856.832
655.4399, 1857.167
655.9220, 1873.409
656.4041, 1894.556
656.8862, 1901.701
657.3683, 1888.136
657.8505, 1877.378
658.3326, 1876.179
658.8147, 1881.445
659.2968, 1880.377
659.7789, 1872.894
660.2610, 1868.561
660.7432, 1876.127
661.2253, 1889.615
661.7074, 1897.194
662.1895, 1898.745
662.6716, 1900.193
663.1537, 1905.036
663.6359, 1911.942
664.1180, 1920.498
664.6001, 1932.621
665.0822, 1940.795
665.5643, 1941.802
666.0464, 1938.544
666.5286, 1933.855
667.0107, 1924.589
667.4928, 1920.638
667.9749, 1924.542
668.4570, 1933.035
668.9391, 1939.085
669.4213, 1942.564
669.9034, 1946.702
670.3855, 1952.447
670.8676, 1959.859
671.3497, 1969.399
671.8318, 1980.807
672.3140, 1992.304
672.7961, 1999.184
673.2782, 2008.165
673.7603, 2028.738
674.2424, 2062.714
674.7245, 2087.560
675.2067, 2090.976
675.6888, 2086.980
676.1709, 2083.971
676.6530, 2077.383
677.1351, 2084.013
677.6172, 2110.022
678.0994, 2141.532
678.5815, 2160.897
679.0636, 2167.613
679.5457, 2173.733
680.0278, 2180.789
680.5099, 2189.470
680.9921, 2202.324
681.4742, 2217.980
681.9563, 2231.556
682.4384, 2234.534
682.9205, 2239.789
683.4026, 2260.982
683.8848, 2293.958
684.3669, 2321.866
684.8490, 2337.833
685.3311, 2348.255
685.8132, 2353.487
686.2953, 2352.964
686.7775, 2358.811
687.2596, 2372.786
687.7417, 2390.234
688.2238, 2408.158
688.7059, 2426.686
689.1880, 2447.703
689.6701, 2471.597
690.1522, 2495.905
690.6343, 2518.350
691.1165, 2538.655
691.5986, 2555.080
692.0807, 2565.149
692.5628, 2576.880
693.0449, 2602.121
693.5270, 2631.420
694.0092, 2649.802
694.4913, 2643.507
694.9734, 2637.270
695.4555, 2638.127
695.9376, 2642.879
696.4197, 2641.787
696.9019, 2632.263
697.3840, 2623.545
697.8661, 2620.327
698.3482, 2620.269
698.8303, 2613.357
699.3124, 2599.585
699.7946, 2578.454
700.2767, 2546.521
700.7588, 2508.303
701.2409, 2468.686
701.7230, 2428.327
702.2051, 2391.864
702.6873, 2364.774
703.1694, 2341.023
703.6515, 2316.280
704.1336, 2290.796
704.6157, 2261.783
705.0978, 2222.111
705.5800, 2184.374
706.0621, 2160.681
706.5442, 2154.307
707.0263, 2149.179
707.5084, 2145.412
707.9905, 2138.557
708.4727, 2117.505
708.9548, 2085.272
709.4369, 2058.107
709.9190, 2043.047
710.4011, 2033.452
710.8832, 2023.204
711.3654, 2013.026
711.8475, 2005.006
712.3296, 2003.338
712.8117, 2000.610
713.2938, 1991.999
713.7759, 1978.113
714.2581, 1969.944
714.7402, 1973.226
715.2223, 1972.833
715.7044, 1958.528
716.1865, 1930.965
716.6686, 1922.499
717.1508, 1934.818
717.6329, 1952.206
718.1150, 1967.907
718.5971, 1978.591
719.0792, 1973.907
719.5613, 1951.298
720.0435, 1930.954
720.5256, 1932.208
721.0077, 1940.485
721.4898, 1940.599
721.9719, 1919.941
722.4540, 1908.691
722.9362, 1918.037
723.4183, 1934.891
723.9004, 1944.911
724.3825, 1946.619
724.8646, 1946.030
725.3467, 1943.145
725.8289, 1939.669
726.3110, 1939.065
726.7931, 1940.928
727.2752, 1942.643
727.7573, 1941.984
728.2394, 1942.148
728.7216, 1950.139
729.2037, 1962.225
729.6858, 1967.616
730.1679, 1955.268
730.6500, 1941.681
731.1321, 1931.994
731.6143, 1926.831
732.0964, 1927.495
732.5785, 1937.212
733.0606, 1947.326
733.5427, 1955.236
734.0248, 1960.734
734.5070, 1958.772
734.9891, 1948.724
735.4712, 1939.483
735.9533, 1938.548
736.4354, 1942.918
736.9175, 1948.165
737.3997, 1954.002
737.8818, 1958.301
738.3639, 1956.040
738.8460, 1953.895
739.3281, 1958.784
739.8102, 1980.324
740.2924, 1989.763
740.7745, 1977.988
741.2566, 1960.534
741.7387, 1953.256
742.2208, 1958.002
742.7029, 1961.363
743.1851, 1961.525
743.6672, 1960.687
744.1493, 1962.940
744.6314, 1967.001
745.1135, 1968.210
745.5956, 1961.663
746.0778, 1957.658
746.5599, 1972.128
747.0420, 1994.033
747.5241, 2002.701
748.0062, 1974.269
748.4883, 1951.862
748.9705, 1948.319
749.4526, 1957.754
749.9347, 1963.977
750.4168, 1967.554
750.8989, 1965.536
751.3810, 1953.746
751.8632, 1937.113
752.3453, 1932.712
752.8274, 1939.335
753.3095, 1946.587
753.7916, 1949.663
754.2737, 1949.430
754.7559, 1944.526
755.2380, 1935.797
755.7201, 1930.979
756.2022, 1936.098
756.6843, 1943.209
757.1664, 1948.475
757.6486, 1951.695
758.1307, 1955.457
758.6128, 1962.763
759.0949, 1964.114
759.5770, 1947.590
760.0591, 1916.439
760.5413, 1899.297
761.0234, 1897.779
761.5055, 1903.906
761.9876, 1914.355
762.4697, 1926.566
762.9518, 1937.588
763.4340, 1947.096
763.9161, 1953.966
764.3982, 1956.576
764.8803, 1956.866
765.3624, 1956.617
765.8445, 1956.462
766.3267, 1954.412
766.8088, 1949.000
767.2909, 1943.747
767.7730, 1944.708
768.2551, 1951.214
768.7372, 1953.148
769.2194, 1947.764
769.7015, 1940.010
770.1836, 1932.251
770.6657, 1927.045
771.1478, 1929.503
771.6299, 1950.722
772.1121, 1967.694
772.5942, 1969.570
773.0763, 1961.769
773.5584, 1955.042
774.0405, 1951.295
774.5226, 1945.224
775.0048, 1933.325
775.4869, 1920.749
775.9690, 1923.991
776.4511, 1942.040
776.9332, 1953.445
777.4153, 1945.141
777.8974, 1930.897
778.3795, 1929.206
778.8616, 1937.209
779.3438, 1946.255
779.8259, 1954.813
780.3080, 1961.138
780.7901, 1962.166
781.2722, 1959.281
781.7543, 1962.700
782.2365, 1978.629
782.7186, 1988.749
783.2007, 1984.245
783.6828, 1969.000
784.1649, 1962.781
784.6470, 1965.403
785.1292, 1968.413
785.6113, 1962.336
786.0934, 1956.156
786.5755, 1963.457
787.0576, 1983.084
787.5397, 2001.944
788.0219, 2017.946
788.5040, 2028.623
788.9861, 2030.082
789.4682, 2021.543
789.9503, 2018.229
790.4324, 2021.154
790.9146, 2027.146
791.3967, 2035.537
791.8788, 2045.842
792.3609, 2053.855
792.8430, 2059.473
793.3251, 2064.705
793.8073, 2074.120
794.2894, 2082.234
794.7715, 2080.069
795.2536, 2065.423
795.7357, 2056.875
796.2178, 2067.124
796.7000, 2081.338
797.1821, 2089.355
797.6642, 2088.418
798.1463, 2092.846
798.6284, 2104.825
799.1105, 2116.451
799.5927, 2119.280
800.0748, 2115.283
800.5569, 2115.214
801.0390, 2120.733
801.5211, 2121.971
802.0032, 2098.160
802.4854, 2072.164
802.9675, 2071.484
803.4496, 2112.385
803.9317, 2145.365
804.4138, 2156.749
804.8959, 2157.663
805.3781, 2154.695
805.8602, 2145.976
806.3423, 2141.729
806.8244, 2142.808
807.3065, 2147.075
807.7886, 2152.536
808.2708, 2159.192
808.7529, 2168.554
809.2350, 2182.569
809.7171, 2191.481
810.1992, 2181.904
810.6813, 2166.527
811.1635, 2159.310
811.6456, 2171.418
812.1277, 2178.316
812.6098, 2176.680
813.0919, 2171.564
813.5740, 2168.384
814.0562, 2167.226
814.5383, 2167.512
815.0204, 2170.097
815.5025, 2144.658
815.9846, 2169.113
816.4667, 2182.318
816.9489, 2184.877
817.4310, 2144.908
817.9131, 2159.856
818.3952, 2152.795
818.8773, 2144.833
819.3594, 2167.510
819.8416, 2133.726
820.3237, 2155.917
820.8058, 2155.765
821.2879, 2165.839
821.7700, 2153.768
822.2521, 2148.537
822.7343, 2165.457
823.2164, 2170.112
823.6985, 2155.492
824.1806, 2166.216
824.6627, 2131.659
825.1448, 2146.977
825.6270, 2149.871
826.1091, 2151.839
826.5912, 2151.720
827.0733, 2150.270
827.5554, 2147.989
828.0375, 2144.167
828.5197, 2125.180
829.0018, 2147.298
829.4839, 2158.166
829.9660, 2158.389
830.4481, 2116.083
830.9302, 2128.694
831.4124, 2119.296
831.8945, 2108.997
832.3766, 2129.337
832.8587, 2093.217
833.3408, 2113.072
833.8229, 2110.583
834.3051, 2118.318
834.7872, 2103.911
835.2693, 2105.494
835.7514, 2101.603
836.2335, 2084.838
836.7156, 2075.434
837.1978, 2078.784
837.6799, 2086.054
838.1620, 2089.424
838.6441, 2088.604
839.1262, 2081.862
839.6083, 2057.522
840.0905, 2045.660
840.5726, 2071.737
841.0547, 2108.336
841.5368, 2119.231
842.0189, 2094.347
842.5010, 2073.362
842.9832, 2059.253
843.4653, 2052.821
843.9474, 2060.213
844.4295, 2076.857
844.9116, 2085.776
845.3937, 2079.705
845.8759, 2074.710
846.3580, 2092.456
846.8401, 2114.591
847.3222, 2118.637
847.8043, 2075.032
848.2864, 2048.552
848.7686, 2044.104
849.2507, 2053.659
849.7328, 2073.690
850.2149, 2104.424
850.6970, 2114.956
851.1791, 2097.532
851.6613, 2074.085
852.1434, 2068.148
852.6255, 2072.358
853.1076, 2075.232
853.5897, 2072.007
854.0718, 2072.402
854.5540, 2085.703
855.0361, 2100.253
855.5182, 2105.084
856.0003, 2097.063
856.4824, 2089.394
856.9645, 2082.332
857.4467, 2076.528
857.9288, 2070.450
858.4109, 2066.399
858.8930, 2074.428
859.3751, 2098.540
859.8572, 2116.131
860.3394, 2104.251
860.8215, 2083.317
861.3036, 2071.700
861.7857, 2077.621
862.2678, 2079.921
862.7499, 2077.105
863.2321, 2072.950
863.7142, 2068.433
864.1963, 2064.218
864.6784, 2070.120
865.1605, 2086.919
865.6426, 2107.727
866.1248, 2133.827
866.6069, 2156.359
867.0890, 2162.590
867.5710, 2148.329
868.0532, 2138.986
868.5353, 2146.281
869.0174, 2155.381
869.4995, 2159.027
869.9816, 2156.826
870.4637, 2154.048
870.9459, 2150.668
871.4280, 2146.939
871.9101, 2142.045
872.3922, 2137.394
872.8743, 2135.002
873.3564, 2134.995
873.8386, 2137.716
874.3207, 2146.310
874.8028, 2155.017
875.2849, 2159.336
875.7670, 2159.500
876.2491, 2165.907
876.7313, 2181.571
877.2134, 2193.870
877.6955, 2195.365
878.1776, 2188.824
878.6597, 2181.052
879.1418, 2172.428
879.6240, 2165.239
880.1061, 2153.881
880.5882, 2150.645
881.0703, 2172.017
881.5524, 2212.294
882.0345, 2232.392
882.5167, 2221.507
882.9988, 2207.512
883.4809, 2197.984
883.9630, 2191.301
884.4451, 2180.664
884.9272, 2167.093
885.4094, 2158.521
885.8915, 2160.761
886.3736, 2166.869
886.8557, 2173.461
887.3378, 2179.102
887.8199, 2180.435
888.3021, 2173.836
888.7842, 2165.770
889.2663, 2153.710
889.7484, 2143.377
890.2305, 2150.225
890.7126, 2174.083
891.1948, 2186.748
891.6769, 2177.500
892.1590, 2163.866
892.6411, 2169.136
893.1232, 2183.635
893.6053, 2191.976
894.0875, 2188.117
894.5696, 2179.878
895.0517, 2162.804
895.5338, 2146.202
896.0159, 2139.937
896.4980, 2145.406
896.9802, 2152.871
897.4623, 2162.233
897.9444, 2169.829
898.4265, 2171.526
898.9086, 2168.548
899.3907, 2161.398
899.8729, 2148.558
900.3550, 2140.117
900.8371, 2139.887
901.3192, 2146.045
901.8013, 2159.406
902.2834, 2184.144
902.7656, 2191.231
903.2477, 2177.741
903.7298, 2159.037
904.2119, 2142.184
904.6940, 2130.292
905.1761, 2133.322
905.6583, 2150.565
906.1404, 2167.372
906.6225, 2178.999
907.1046, 2185.178
907.5867, 2182.959
908.0688, 2173.298
908.5510, 2169.230
909.0331, 2172.183
909.5152, 2176.363
909.9973, 2178.948
910.4794, 2181.138
910.9615, 2188.153
911.4437, 2198.307
911.9258, 2203.793
912.4079, 2195.807
912.8900, 2187.009
913.3721, 2182.997
913.8542, 2183.630
914.3364, 2187.939
914.8185, 2197.530
915.3006, 2207.279
915.7827, 2217.710
916.2648, 2225.330
916.7469, 2219.688
917.2291, 2204.930
917.7112, 2195.516
918.1933, 2195.047
918.6754, 2202.693
919.1575, 2227.717
919.6396, 2256.292
920.1218, 2270.574
920.6039, 2262.685
921.0860, 2250.771
921.5681, 2229.586
922.0502, 2214.978
922.5323, 2230.906
923.0145, 2269.707
923.4966, 2296.765
923.9787, 2308.708
924.4608, 2312.085
924.9429, 2304.792
925.4250, 2295.829
925.9072, 2290.722
926.3893, 2289.200
926.8714, 2302.652
927.3535, 2342.416
927.8356, 2373.994
928.3177, 2370.026
928.7999, 2341.298
929.2820, 2343.060
929.7641, 2371.592
930.2462, 2395.757
930.7283, 2389.039
931.2104, 2377.443
931.6926, 2378.424
932.1747, 2390.375
932.6568, 2402.129
933.1389, 2413.557
933.6210, 2422.758
934.1031, 2427.785
934.5853, 2431.789
935.0674, 2443.679
935.5495, 2461.597
936.0316, 2476.452
936.5137, 2483.906
936.9958, 2489.731
937.4780, 2498.361
937.9601, 2507.758
938.4422, 2514.720
938.9243, 2518.971
939.4064, 2520.145
939.8885, 2516.049
940.3707, 2512.945
940.8528, 2518.702
941.3349, 2531.686
941.8170, 2545.825
942.2991, 2560.646
942.7813, 2572.928
943.2634, 2578.922
943.7455, 2582.283
944.2276, 2584.187
944.7097, 2583.641
945.1918, 2593.057
945.6740, 2617.930
946.1561, 2639.956
946.6382, 2647.412
947.1203, 2645.022
947.6024, 2650.582
948.0845, 2662.200
948.5667, 2669.378
949.0488, 2656.840
949.5309, 2647.563
950.0130, 2657.269
950.4951, 2680.930
950.9772, 2700.338
951.4594, 2716.956
951.9415, 2723.982
952.4236, 2718.298
952.9057, 2705.326
953.3878, 2688.817
953.8699, 2672.969
954.3521, 2671.323
954.8342, 2694.733
955.3163, 2714.583
955.7984, 2708.304
956.2805, 2695.584
956.7626, 2697.725
957.2447, 2721.299
957.7268, 2738.898
958.2089, 2750.093
958.6910, 2756.945
959.1732, 2759.882
959.6553, 2760.202
960.1374, 2761.532
960.6195, 2763.777
961.1016, 2762.164
961.5837, 2751.209
962.0659, 2738.807
962.5480, 2727.359
963.0301, 2717.516
963.5122, 2714.419
963.9943, 2719.563
964.4764, 2720.154
964.9586, 2706.364
965.4407, 2691.537
965.9228, 2701.141
966.4049, 2725.057
966.8870, 2741.110
967.3691, 2735.557
967.8513, 2728.015
968.3334, 2720.206
968.8155, 2714.432
969.2976, 2715.354
969.7797, 2723.694
970.2618, 2724.486
970.7440, 2715.257
971.2261, 2704.571
971.7082, 2700.311
972.1903, 2699.635
972.6724, 2700.309
973.1545, 2702.663
973.6367, 2700.051
974.1188, 2686.217
974.6009, 2673.639
975.0830, 2667.399
975.5651, 2667.160
976.0472, 2674.420
976.5294, 2688.039
977.0115, 2694.857
977.4936, 2681.442
977.9757, 2663.857
978.4578, 2651.203
978.9399, 2644.693
979.4221, 2648.220
979.9042, 2671.445
980.3863, 2687.249
980.8684, 2691.652
981.3505, 2688.512
981.8326, 2681.276
982.3148, 2671.342
982.7969, 2664.282
983.2790, 2662.011
983.7611, 2658.351
984.2432, 2642.724
984.7253, 2628.530
985.2075, 2630.950
985.6896, 2654.540
986.1717, 2660.393
986.6538, 2644.050
987.1359, 2626.206
987.6180, 2618.504
988.1002, 2618.732
988.5823, 2625.847
989.0644, 2637.547
989.5465, 2643.969
990.0286, 2631.841
990.5107, 2623.797
990.9929, 2632.067
991.4750, 2648.035
991.9571, 2655.286
992.4392, 2653.205
992.9213, 2648.394
993.4034, 2641.052
993.8856, 2635.212
994.3677, 2639.244
994.8498, 2646.107
995.3319, 2644.669
995.8140, 2628.014
996.2961, 2621.754
996.7783, 2638.333
997.2604, 2654.244
997.7425, 2652.928
998.2246, 2636.875
998.7067, 2633.645
999.1888, 2642.394
999.6710, 2652.679
1000.153, 2661.573
1000.635, 2666.390
1001.117, 2664.584
1001.599, 2656.970
1002.082, 2645.700
1002.564, 2624.084
1003.046, 2616.489
1003.528, 2630.761
1004.010, 2653.078
1004.492, 2659.814
1004.974, 2657.610
1005.456, 2665.853
1005.938, 2691.806
1006.421, 2712.531
1006.903, 2708.491
1007.385, 2702.256
1007.867, 2711.575
1008.349, 2738.017
1008.831, 2755.901
1009.313, 2765.057
1009.795, 2768.800
1010.278, 2764.611
1010.760, 2759.479
1011.242, 2762.776
1011.724, 2772.985
1012.206, 2785.159
1012.688, 2797.529
1013.170, 2812.438
1013.652, 2830.012
1014.134, 2850.541
1014.617, 2880.491
1015.099, 2916.470
1015.581, 2928.318
1016.063, 2907.384
1016.545, 2886.934
1017.027, 2893.086
1017.509, 2911.682
1017.991, 2935.418
1018.474, 2965.873
1018.956, 2973.729
1019.438, 2952.480
1019.920, 2930.240
1020.402, 2919.936
1020.884, 2920.090
1021.366, 2925.579
1021.848, 2938.468
1022.330, 2964.810
1022.813, 3030.939
1023.295, 3081.584
1023.777, 3096.096
1024.259, 3090.444
1024.741, 3078.329
1025.223, 3059.007
1025.705, 3059.789
1026.187, 3085.162
1026.669, 3114.710
1027.152, 3133.991
1027.634, 3144.688
1028.116, 3142.392
1028.598, 3126.066
1029.080, 3130.311
1029.562, 3167.487
1030.044, 3202.475
1030.526, 3220.122
1031.009, 3228.444
1031.491, 3248.756
1031.973, 3278.356
1032.455, 3308.671
1032.937, 3341.664
1033.419, 3366.696
1033.901, 3374.101
1034.383, 3373.533
1034.865, 3375.333
1035.348, 3379.906
1035.830, 3382.821
1036.312, 3383.125
1036.794, 3389.631
1037.276, 3418.911
1037.758, 3452.418
1038.240, 3461.771
1038.722, 3450.475
1039.204, 3456.710
1039.687, 3508.125
1040.169, 3545.283
1040.651, 3551.956
1041.133, 3540.735
1041.615, 3530.910
1042.097, 3525.725
1042.579, 3540.909
1043.061, 3587.381
1043.544, 3630.074
1044.026, 3640.306
1044.508, 3643.804
1044.990, 3662.247
1045.472, 3696.884
1045.954, 3738.125
1046.436, 3787.711
1046.918, 3829.201
1047.401, 3838.535
1047.883, 3844.097
1048.365, 3880.683
1048.847, 3943.908
1049.329, 4020.928
1049.811, 4112.928
1050.293, 4213.939
1050.775, 4327.247
1051.257, 4443.369
1051.740, 4541.948
1052.222, 4631.298
1052.704, 4745.317
1053.186, 4888.559
1053.668, 5050.441
1054.150, 5236.815
1054.632, 5426.171
1055.114, 5601.991
1055.596, 5767.080
1056.079, 5941.393
1056.561, 6124.040
1057.043, 6327.983
1057.525, 6570.078
1058.007, 6814.869
1058.489, 7024.468
1058.971, 7208.387
1059.453, 7382.016
1059.936, 7558.199
1060.418, 7705.304
1060.900, 7822.521
1061.382, 7909.232
1061.864, 7965.951
1062.346, 7990.879
1062.828, 7983.595
1063.310, 7940.324
1063.792, 7836.363
1064.275, 7648.376
1064.757, 7405.115
1065.239, 7107.522
1065.721, 6771.324
1066.203, 6414.130
1066.685, 6036.729
1067.167, 5682.104
1067.649, 5358.415
1068.131, 5048.658
1068.614, 4722.576
1069.096, 4404.609
1069.578, 4116.376
1070.060, 3859.167
1070.542, 3643.197
1071.024, 3473.873
1071.506, 3325.549
1071.988, 3185.857
1072.471, 3059.239
1072.953, 2954.586
1073.435, 2870.192
1073.917, 2800.899
1074.399, 2752.310
1074.881, 2707.641
1075.363, 2663.331
1075.845, 2620.909
1076.328, 2580.920
1076.810, 2543.979
1077.292, 2517.091
1077.774, 2500.178
1078.256, 2483.342
1078.738, 2455.745
1079.220, 2430.006
1079.702, 2418.747
1080.184, 2416.511
1080.667, 2403.260
1081.149, 2374.532
1081.631, 2353.026
1082.113, 2342.384
1082.595, 2340.564
1083.077, 2352.809
1083.559, 2368.497
1084.041, 2372.299
1084.523, 2361.387
1085.006, 2347.766
1085.488, 2330.242
1085.970, 2315.793
1086.452, 2306.671
1086.934, 2302.738
1087.416, 2306.689
1087.898, 2315.722
1088.380, 2320.332
1088.863, 2313.989
1089.345, 2309.069
1089.827, 2313.089
1090.309, 2319.323
1090.791, 2322.973
1091.273, 2324.157
1091.755, 2318.079
1092.237, 2304.856
1092.719, 2294.997
1093.202, 2297.554
1093.684, 2304.376
1094.166, 2311.099
1094.648, 2316.743
1095.130, 2319.273
1095.612, 2319.089
1096.094, 2313.893
1096.576, 2302.116
1097.058, 2290.357
1097.541, 2285.674
1098.023, 2285.939
1098.505, 2291.657
1098.987, 2302.231
1099.469, 2300.711
1099.951, 2268.601
1100.433, 2245.957
1100.915, 2245.686
1101.397, 2259.728
1101.880, 2274.240
1102.362, 2287.048
1102.844, 2288.700
1103.326, 2271.901
1103.808, 2262.015
1104.290, 2283.741
1104.772, 2305.365
1105.254, 2303.838
1105.737, 2280.744
1106.219, 2268.090
1106.701, 2265.098
1107.183, 2261.180
1107.665, 2247.363
1108.147, 2234.961
1108.629, 2237.026
1109.111, 2244.075
1109.594, 2239.520
1110.076, 2216.133
1110.558, 2206.401
1111.040, 2212.955
1111.522, 2222.789
1112.004, 2225.255
1112.486, 2224.809
1112.968, 2229.494
1113.450, 2237.129
1113.932, 2236.242
1114.415, 2217.647
1114.897, 2204.185
1115.379, 2200.838
1115.861, 2200.643
1116.343, 2191.219
1116.825, 2178.288
1117.307, 2174.975
1117.789, 2183.324
1118.272, 2193.143
1118.754, 2206.020
1119.236, 2212.376
1119.718, 2205.694
1120.200, 2191.989
1120.682, 2191.954
1121.164, 2202.568
1121.646, 2207.737
1122.129, 2200.685
1122.611, 2194.556
1123.093, 2200.958
1123.575, 2208.274
1124.057, 2207.301
1124.539, 2198.125
1125.021, 2187.070
1125.503, 2174.184
1125.985, 2164.548
1126.468, 2160.542
1126.950, 2161.141
1127.432, 2169.077
1127.914, 2179.757
1128.396, 2185.238
1128.878, 2183.154
1129.360, 2183.482
1129.842, 2186.995
1130.324, 2189.217
1130.807, 2181.957
1131.289, 2174.552
1131.771, 2183.596
1132.253, 2203.501
1132.735, 2212.887
1133.217, 2200.833
1133.699, 2191.424
1134.181, 2186.534
1134.664, 2187.193
1135.146, 2200.063
1135.628, 2217.380
1136.110, 2222.337
1136.592, 2214.011
1137.074, 2208.148
1137.556, 2211.638
1138.038, 2216.794
1138.521, 2221.955
1139.003, 2227.464
1139.485, 2234.471
1139.967, 2242.451
1140.449, 2250.781
1140.931, 2260.051
1141.413, 2264.402
1141.895, 2256.814
1142.377, 2247.381
1142.859, 2241.030
1143.342, 2237.458
1143.824, 2235.866
1144.306, 2236.147
1144.788, 2237.845
1145.270, 2241.750
1145.752, 2244.822
1146.234, 2242.015
1146.716, 2239.822
1147.199, 2245.113
1147.681, 2258.570
1148.163, 2265.509
1148.645, 2265.978
1149.127, 2268.956
1149.609, 2283.951
1150.091, 2298.725
1150.573, 2303.870
1151.056, 2302.307
1151.538, 2299.062
1152.020, 2294.579
1152.502, 2286.258
1152.984, 2272.615
1153.466, 2265.494
1153.948, 2283.152
1154.430, 2305.351
1154.912, 2306.472
1155.395, 2293.243
1155.877, 2291.805
1156.359, 2310.813
1156.841, 2323.096
1157.323, 2324.837
1157.805, 2322.790
1158.287, 2321.950
1158.769, 2323.260
1159.251, 2330.003
1159.734, 2341.430
1160.216, 2348.560
1160.698, 2351.387
1161.180, 2345.690
1161.662, 2326.914
1162.144, 2307.170
1162.626, 2304.948
1163.108, 2315.422
1163.591, 2332.840
1164.073, 2357.338
1164.555, 2370.820
1165.037, 2364.901
1165.519, 2351.534
1166.001, 2330.036
1166.483, 2308.672
1166.965, 2307.856
1167.448, 2322.550
1167.930, 2341.979
1168.412, 2367.835
1168.894, 2379.747
1169.376, 2357.520
1169.858, 2334.891
1170.340, 2327.760
1170.822, 2331.834
1171.304, 2331.226
1171.786, 2327.133
1172.269, 2324.447
1172.751, 2325.450
1173.233, 2326.888
1173.715, 2328.273
1174.197, 2328.861
1174.679, 2327.850
1175.161, 2325.476
1175.643, 2324.398
1176.126, 2324.221
1176.608, 2322.380
1177.090, 2313.437
1177.572, 2307.778
1178.054, 2315.356
1178.536, 2324.559
1179.018, 2324.290
1179.500, 2314.543
1179.983, 2301.210
1180.465, 2284.899
1180.947, 2272.267
1181.429, 2271.106
1181.911, 2270.517
1182.393, 2262.398
1182.875, 2252.333
1183.357, 2249.831
1183.839, 2255.268
1184.322, 2251.351
1184.804, 2237.140
1185.286, 2229.505
1185.768, 2245.549
1186.250, 2267.711
1186.732, 2293.857
1187.214, 2314.414
1187.696, 2304.453
1188.178, 2260.910
1188.661, 2239.560
1189.143, 2248.059
1189.625, 2264.557
1190.107, 2276.339
1190.589, 2284.222
1191.071, 2290.080
1191.553, 2292.487
1192.035, 2283.704
1192.517, 2262.156
1193.000, 2250.100
1193.482, 2252.535
1193.964, 2259.964
1194.446, 2268.510
1194.928, 2274.339
1195.410, 2271.416
1195.892, 2261.601
1196.374, 2260.370
1196.857, 2269.155
1197.339, 2268.880
1197.821, 2251.631
1198.303, 2235.957
1198.785, 2245.704
1199.267, 2262.213
1199.749, 2266.704
1200.231, 2258.603
1200.714, 2250.556
1201.196, 2241.411
1201.678, 2247.220
1202.160, 2280.572
1202.642, 2311.287
1203.124, 2304.505
1203.606, 2281.172
1204.088, 2261.989
1204.570, 2248.071
1205.052, 2247.248
1205.535, 2260.394
1206.017, 2278.336
1206.499, 2301.394
1206.981, 2319.433
1207.463, 2311.975
1207.945, 2298.254
1208.427, 2308.173
1208.909, 2349.310
1209.392, 2358.761
1209.874, 2333.941
1210.356, 2306.160
1210.838, 2285.524
1211.320, 2276.854
1211.802, 2293.688
1212.284, 2321.432
1212.766, 2338.941
1213.249, 2344.995
1213.731, 2342.022
1214.213, 2329.008
1214.695, 2318.692
1215.177, 2319.205
1215.659, 2325.428
1216.141, 2335.530
1216.623, 2346.926
1217.105, 2355.443
1217.588, 2360.370
1218.070, 2366.125
1218.552, 2373.070
1219.034, 2375.655
1219.516, 2362.917
1219.998, 2351.152
1220.480, 2359.264
1220.962, 2376.257
1221.444, 2380.789
1221.927, 2367.670
1222.409, 2368.131
1222.891, 2383.746
1223.373, 2400.195
1223.855, 2407.335
1224.337, 2411.323
1224.819, 2421.077
1225.301, 2429.222
1225.784, 2419.166
1226.266, 2385.823
1226.748, 2373.915
1227.230, 2386.285
1227.712, 2401.303
1228.194, 2399.407
1228.676, 2397.788
1229.158, 2416.384
1229.641, 2441.182
1230.123, 2441.848
1230.605, 2415.631
1231.087, 2398.589
1231.569, 2393.311
1232.051, 2352.445
1232.533, 2389.473
1233.015, 2413.003
1233.497, 2423.757
1233.979, 2383.478
1234.462, 2409.112
1234.944, 2408.322
1235.426, 2406.450
1235.908, 2441.345
1236.390, 2444.682
1236.872, 2458.530
1237.354, 2467.056
1237.836, 2450.715
1238.319, 2424.698
1238.801, 2414.556
1239.283, 2418.950
1239.765, 2419.891
1240.247, 2415.495
1240.729, 2411.044
1241.211, 2405.410
1241.693, 2406.091
1242.176, 2419.365
1242.658, 2438.181
1243.140, 2450.671
1243.622, 2457.615
1244.104, 2467.247
1244.586, 2480.198
1245.068, 2479.805
1245.550, 2436.494
1246.032, 2404.172
1246.515, 2406.005
1246.997, 2423.593
1247.479, 2425.566
1247.961, 2414.994
1248.443, 2397.835
1248.925, 2375.588
1249.407, 2369.464
1249.889, 2411.011
1250.371, 2441.372
1250.854, 2444.252
1251.336, 2429.472
1251.818, 2404.937
1252.300, 2378.162
1252.782, 2368.685
1253.264, 2378.404
1253.746, 2389.490
1254.228, 2397.247
1254.711, 2405.021
1255.193, 2414.851
1255.675, 2422.303
1256.157, 2416.819
1256.639, 2405.828
1257.121, 2404.272
1257.603, 2413.335
1258.085, 2414.498
1258.568, 2403.748
1259.050, 2387.659
1259.532, 2365.060
1260.014, 2345.091
1260.496, 2339.381
1260.978, 2343.680
1261.460, 2355.385
1261.942, 2373.355
1262.424, 2385.495
1262.906, 2391.907
1263.389, 2388.855
1263.871, 2373.308
1264.353, 2357.629
1264.835, 2356.635
1265.317, 2362.051
1265.799, 2365.777
1266.281, 2367.790
1266.763, 2374.891
1267.246, 2388.473
1267.728, 2389.676
1268.210, 2371.917
1268.692, 2358.301
1269.174, 2378.286
1269.656, 2403.899
1270.138, 2410.251
1270.620, 2403.138
1271.103, 2405.553
1271.585, 2416.812
1272.067, 2413.510
1272.549, 2389.199
1273.031, 2372.059
1273.513, 2392.090
1273.995, 2413.907
1274.477, 2416.514
1274.959, 2407.319
1275.442, 2403.847
1275.924, 2404.738
1276.406, 2400.558
1276.888, 2389.219
1277.370, 2388.105
1277.852, 2423.923
1278.334, 2447.934
1278.816, 2438.905
1279.298, 2415.549
1279.781, 2414.552
1280.263, 2427.586
1280.745, 2432.663
1281.227, 2426.898
1281.709, 2426.238
1282.191, 2437.204
1282.673, 2451.052
1283.155, 2467.697
1283.637, 2482.218
1284.120, 2483.627
1284.602, 2479.868
1285.084, 2486.265
1285.566, 2502.834
1286.048, 2507.217
1286.530, 2494.424
1287.012, 2479.417
1287.494, 2462.872
1287.977, 2454.532
1288.459, 2472.960
1288.941, 2499.163
1289.423, 2516.520
1289.905, 2522.894
1290.387, 2516.153
1290.869, 2493.491
1291.351, 2486.240
1291.833, 2500.873
1292.316, 2515.206
1292.798, 2507.813
1293.280, 2496.619
1293.762, 2492.002
1294.244, 2493.804
1294.726, 2504.779
1295.208, 2523.772
1295.690, 2536.351
1296.172, 2540.878
1296.655, 2541.841
1297.137, 2538.400
1297.619, 2536.073
1298.101, 2536.191
1298.583, 2539.008
1299.065, 2549.006
1299.547, 2561.421
1300.029, 2555.734
1300.512, 2533.642
1300.994, 2524.565
1301.476, 2555.517
1301.958, 2575.750
1302.440, 2575.406
1302.922, 2569.694
1303.404, 2577.874
1303.886, 2591.176
1304.369, 2597.172
1304.851, 2595.707
1305.333, 2587.512
1305.815, 2566.260
1306.297, 2563.268
1306.779, 2584.119
1307.261, 2605.354
1307.743, 2605.653
1308.225, 2597.901
1308.708, 2591.510
1309.190, 2586.334
1309.672, 2579.815
1310.154, 2571.116
1310.636, 2575.217
1311.118, 2592.265
1311.600, 2603.491
1312.082, 2588.678
1312.564, 2574.502
1313.047, 2577.464
1313.529, 2584.837
1314.011, 2584.956
1314.493, 2577.948
1314.975, 2559.247
1315.457, 2532.418
1315.939, 2514.715
1316.421, 2517.260
##END=



