##NAMES=Karchevskyite
##RRUFFID=R070103
##IDEAL CHEMISTRY=Mg_18_Al_9_(OH)_54_Sr_2_(CO_3_)_9_(H_2_O)_6_(H_3_O)_5_
##LOCALITY=Zheleznyi mine, Kovdor Massif, Kola Peninsula, Russia
##OWNER=RRUFF
##SOURCE=Michael Scott
##DESCRIPTION=Colorless hexagonal plates, co-type material, associated with phlogopite, dolomite, pyrite, and magnetite. We only observed the subcell.
##STATUS=The identification of this mineral has been confirmed only by single crystal X-ray diffraction.
##URL=rruff.info/R070103
142.0408, 1741.785
142.5229, 1771.771
143.0050, 1825.739
143.4871, 1901.862
143.9693, 1977.131
144.4514, 2049.406
144.9335, 2123.038
145.4156, 2203.397
145.8977, 2286.295
146.3798, 2362.738
146.8620, 2425.441
147.3441, 2474.883
147.8262, 2533.534
148.3083, 2613.136
148.7904, 2688.551
149.2725, 2746.049
149.7547, 2790.637
150.2368, 2840.005
150.7189, 2910.046
151.2010, 3000.317
151.6831, 3059.054
152.1652, 3068.544
152.6474, 3069.028
153.1295, 3078.847
153.6116, 3096.775
154.0937, 3113.546
154.5758, 3123.996
155.0579, 3126.917
155.5401, 3112.816
156.0222, 3070.069
156.5043, 3022.072
156.9864, 2979.248
157.4685, 2942.740
157.9506, 2913.247
158.4328, 2891.999
158.9149, 2879.637
159.3970, 2869.839
159.8791, 2865.147
160.3612, 2861.061
160.8433, 2853.483
161.3255, 2842.592
161.8076, 2832.922
162.2897, 2828.222
162.7718, 2828.419
163.2539, 2828.570
163.7360, 2828.795
164.2182, 2828.759
164.7003, 2827.152
165.1824, 2823.987
165.6645, 2823.342
166.1466, 2832.790
166.6287, 2848.395
167.1109, 2850.011
167.5930, 2818.036
168.0751, 2781.803
168.5572, 2774.412
169.0393, 2798.610
169.5214, 2823.125
170.0036, 2825.726
170.4857, 2809.801
170.9678, 2787.181
171.4499, 2750.380
171.9320, 2712.582
172.4141, 2691.573
172.8963, 2689.842
173.3784, 2686.917
173.8605, 2664.245
174.3426, 2629.587
174.8247, 2600.864
175.3068, 2587.848
175.7890, 2579.520
176.2711, 2559.961
176.7532, 2526.920
177.2353, 2495.943
177.7174, 2480.372
178.1995, 2473.751
178.6817, 2465.043
179.1638, 2449.988
179.6459, 2432.315
180.1280, 2417.214
180.6101, 2405.252
181.0923, 2393.188
181.5744, 2378.576
182.0565, 2362.668
182.5386, 2347.169
183.0207, 2332.164
183.5028, 2318.063
183.9850, 2306.131
184.4671, 2297.003
184.9492, 2287.302
185.4313, 2274.628
185.9134, 2260.391
186.3955, 2246.186
186.8777, 2233.261
187.3598, 2219.996
187.8419, 2203.191
188.3240, 2181.768
188.8061, 2161.657
189.2882, 2145.784
189.7704, 2132.978
190.2525, 2122.368
190.7346, 2114.097
191.2167, 2107.491
191.6988, 2102.556
192.1809, 2100.282
192.6631, 2095.440
193.1452, 2080.659
193.6273, 2063.865
194.1094, 2053.201
194.5915, 2051.398
195.0736, 2055.436
195.5558, 2062.998
196.0379, 2075.590
196.5200, 2084.773
197.0021, 2086.569
197.4842, 2083.448
197.9663, 2075.641
198.4485, 2061.742
198.9306, 2047.526
199.4127, 2041.278
199.8948, 2044.558
200.3769, 2047.442
200.8590, 2049.006
201.3412, 2047.292
201.8233, 2038.665
202.3054, 2021.239
202.7875, 2002.655
203.2696, 1992.717
203.7517, 1992.627
204.2339, 1992.809
204.7160, 1989.636
205.1981, 1986.284
205.6802, 1985.505
206.1623, 1987.969
206.6444, 1990.971
207.1266, 1993.104
207.6087, 1994.844
208.0908, 1990.538
208.5729, 1973.875
209.0550, 1953.735
209.5371, 1934.261
210.0193, 1916.071
210.5014, 1902.408
210.9835, 1898.448
211.4656, 1904.587
211.9477, 1908.937
212.4298, 1908.580
212.9120, 1906.422
213.3941, 1903.285
213.8762, 1899.508
214.3583, 1897.551
214.8404, 1900.380
215.3225, 1907.817
215.8047, 1914.617
216.2868, 1920.584
216.7689, 1925.150
217.2510, 1925.983
217.7331, 1924.125
218.2152, 1925.438
218.6974, 1938.748
219.1795, 1961.664
219.6616, 1972.750
220.1437, 1963.713
220.6258, 1950.408
221.1079, 1939.402
221.5901, 1931.862
222.0722, 1930.905
222.5543, 1943.839
223.0364, 1966.619
223.5185, 1979.100
224.0006, 1976.440
224.4828, 1970.247
224.9649, 1970.126
225.4470, 1972.173
225.9291, 1967.047
226.4112, 1944.314
226.8933, 1911.843
227.3755, 1890.734
227.8576, 1883.316
228.3397, 1883.296
228.8218, 1895.441
229.3039, 1911.050
229.7860, 1915.127
230.2682, 1896.498
230.7503, 1866.523
231.2324, 1845.349
231.7145, 1833.802
232.1966, 1828.730
232.6787, 1834.726
233.1609, 1844.510
233.6430, 1849.500
234.1251, 1846.716
234.6072, 1838.961
235.0893, 1827.915
235.5714, 1812.463
236.0536, 1800.974
236.5357, 1800.944
237.0178, 1804.911
237.4999, 1803.851
237.9820, 1794.035
238.4641, 1785.238
238.9463, 1791.419
239.4284, 1812.536
239.9105, 1823.168
240.3926, 1807.547
240.8747, 1782.970
241.3568, 1768.879
241.8390, 1767.413
242.3211, 1770.379
242.8032, 1773.444
243.2853, 1776.409
243.7674, 1778.054
244.2495, 1777.940
244.7317, 1776.423
245.2138, 1774.059
245.6959, 1770.872
246.1780, 1766.966
246.6601, 1762.431
247.1422, 1757.238
247.6244, 1750.972
248.1065, 1742.993
248.5886, 1735.141
249.0707, 1729.646
249.5528, 1726.112
250.0349, 1721.900
250.5171, 1714.498
250.9992, 1706.325
251.4813, 1702.002
251.9634, 1702.658
252.4455, 1703.524
252.9276, 1699.756
253.4098, 1692.573
253.8919, 1686.834
254.3740, 1683.863
254.8561, 1682.434
255.3382, 1681.134
255.8203, 1679.920
256.3025, 1679.997
256.7846, 1682.660
257.2667, 1687.365
257.7488, 1691.319
258.2309, 1693.650
258.7130, 1695.876
259.1952, 1698.659
259.6773, 1702.051
260.1594, 1706.884
260.6415, 1714.743
261.1236, 1723.390
261.6057, 1726.230
262.0879, 1719.802
262.5700, 1713.715
263.0521, 1712.967
263.5342, 1715.244
264.0163, 1715.060
264.4984, 1709.916
264.9806, 1702.766
265.4627, 1700.138
265.9448, 1704.669
266.4269, 1706.387
266.9090, 1699.847
267.3911, 1690.913
267.8733, 1687.550
268.3554, 1691.779
268.8375, 1698.487
269.3196, 1700.699
269.8017, 1695.243
270.2838, 1695.431
270.7660, 1707.912
271.2481, 1721.531
271.7302, 1725.806
272.2123, 1720.874
272.6944, 1716.441
273.1765, 1722.169
273.6587, 1739.711
274.1408, 1751.192
274.6229, 1756.945
275.1050, 1757.581
275.5871, 1749.531
276.0692, 1736.217
276.5514, 1725.857
277.0335, 1724.329
277.5156, 1730.453
277.9977, 1734.141
278.4798, 1731.442
278.9619, 1730.884
279.4441, 1734.999
279.9262, 1741.961
280.4083, 1749.627
280.8904, 1757.032
281.3725, 1763.746
281.8546, 1768.623
282.3368, 1772.597
282.8189, 1772.876
283.3010, 1763.081
283.7831, 1753.502
284.2652, 1754.787
284.7473, 1768.738
285.2295, 1786.528
285.7116, 1794.412
286.1937, 1786.170
286.6758, 1785.979
287.1579, 1803.361
287.6400, 1820.284
288.1222, 1826.913
288.6043, 1823.888
289.0864, 1818.533
289.5685, 1817.616
290.0506, 1821.174
290.5327, 1821.139
291.0149, 1812.349
291.4970, 1805.878
291.9791, 1806.158
292.4612, 1811.338
292.9433, 1818.221
293.4254, 1826.141
293.9076, 1833.490
294.3897, 1834.494
294.8718, 1824.731
295.3539, 1818.545
295.8360, 1828.349
296.3181, 1840.814
296.8003, 1839.378
297.2824, 1816.343
297.7645, 1789.799
298.2466, 1784.912
298.7287, 1803.611
299.2108, 1819.870
299.6930, 1826.807
300.1751, 1828.287
300.6572, 1826.544
301.1393, 1821.580
301.6214, 1817.863
302.1036, 1821.124
302.5857, 1828.641
303.0678, 1829.094
303.5499, 1817.948
304.0320, 1804.867
304.5142, 1800.004
304.9963, 1801.559
305.4784, 1800.978
305.9605, 1792.088
306.4426, 1781.200
306.9247, 1778.316
307.4069, 1784.353
307.8890, 1789.064
308.3711, 1784.711
308.8532, 1772.886
309.3353, 1762.885
309.8174, 1755.028
310.2996, 1748.906
310.7817, 1744.744
311.2638, 1742.187
311.7459, 1739.988
312.2280, 1737.405
312.7101, 1735.132
313.1923, 1735.917
313.6744, 1746.260
314.1565, 1747.404
314.6386, 1727.304
315.1207, 1699.443
315.6028, 1679.533
316.0850, 1671.594
316.5671, 1671.586
317.0492, 1674.662
317.5313, 1681.764
318.0134, 1689.432
318.4955, 1700.461
318.9777, 1709.787
319.4598, 1714.136
319.9419, 1713.774
320.4240, 1710.807
320.9061, 1706.817
321.3882, 1701.784
321.8704, 1695.169
322.3525, 1683.474
322.8346, 1674.080
323.3167, 1667.770
323.7988, 1664.825
324.2809, 1666.311
324.7631, 1672.863
325.2452, 1681.978
325.7273, 1688.012
326.2094, 1690.289
326.6915, 1690.710
327.1736, 1686.883
327.6558, 1683.303
328.1379, 1683.923
328.6200, 1689.021
329.1021, 1694.822
329.5842, 1696.926
330.0663, 1695.090
330.5485, 1694.948
331.0306, 1696.781
331.5127, 1700.513
331.9948, 1707.911
332.4769, 1717.191
332.9590, 1723.849
333.4412, 1725.078
333.9233, 1722.253
334.4054, 1715.907
334.8875, 1703.269
335.3696, 1698.341
335.8517, 1717.695
336.3339, 1745.852
336.8160, 1760.721
337.2981, 1754.614
337.7802, 1744.067
338.2623, 1742.372
338.7444, 1747.717
339.2266, 1750.810
339.7087, 1747.394
340.1908, 1742.968
340.6729, 1747.197
341.1550, 1760.978
341.6371, 1771.800
342.1193, 1776.402
342.6014, 1776.276
343.0835, 1771.194
343.5656, 1761.437
344.0477, 1753.007
344.5298, 1751.622
345.0120, 1757.497
345.4941, 1760.521
345.9762, 1756.064
346.4583, 1753.693
346.9404, 1760.130
347.4225, 1771.794
347.9047, 1780.124
348.3868, 1780.487
348.8689, 1776.492
349.3510, 1778.680
349.8331, 1796.159
350.3152, 1807.562
350.7974, 1811.051
351.2795, 1809.369
351.7616, 1801.347
352.2437, 1788.564
352.7258, 1779.207
353.2079, 1784.565
353.6901, 1808.313
354.1722, 1823.697
354.6543, 1822.848
355.1364, 1820.399
355.6185, 1819.686
356.1006, 1820.948
356.5828, 1824.069
357.0649, 1829.541
357.5470, 1836.122
358.0291, 1840.680
358.5112, 1843.184
358.9933, 1843.768
359.4755, 1839.342
359.9576, 1834.655
360.4397, 1834.528
360.9218, 1840.180
361.4039, 1846.864
361.8860, 1851.483
362.3682, 1853.888
362.8503, 1852.209
363.3324, 1843.237
363.8145, 1835.477
364.2966, 1841.917
364.7787, 1859.320
365.2609, 1867.489
365.7430, 1853.288
366.2251, 1832.109
366.7072, 1820.120
367.1893, 1817.417
367.6714, 1817.033
368.1536, 1815.730
368.6357, 1813.136
369.1178, 1807.634
369.5999, 1795.107
370.0820, 1785.371
370.5641, 1784.983
371.0463, 1787.599
371.5284, 1783.703
372.0105, 1770.554
372.4926, 1753.213
372.9747, 1737.920
373.4568, 1722.419
373.9390, 1717.065
374.4211, 1728.555
374.9032, 1742.390
375.3853, 1753.595
375.8674, 1760.811
376.3495, 1762.725
376.8317, 1757.908
377.3138, 1747.779
377.7959, 1739.268
378.2780, 1731.708
378.7601, 1727.234
379.2422, 1727.090
379.7244, 1729.287
380.2065, 1732.832
380.6886, 1737.382
381.1707, 1740.803
381.6528, 1737.983
382.1349, 1729.118
382.6171, 1730.341
383.0992, 1754.049
383.5813, 1774.120
384.0634, 1767.633
384.5455, 1741.761
385.0276, 1721.009
385.5098, 1719.462
385.9919, 1726.117
386.4740, 1726.069
386.9561, 1719.328
387.4382, 1713.755
387.9203, 1713.275
388.4025, 1716.646
388.8846, 1720.775
389.3667, 1727.083
389.8488, 1731.203
390.3309, 1728.410
390.8130, 1723.774
391.2952, 1724.854
391.7773, 1733.262
392.2594, 1745.205
392.7415, 1757.171
393.2236, 1769.946
393.7057, 1777.177
394.1879, 1777.906
394.6700, 1774.929
395.1521, 1764.505
395.6342, 1751.792
396.1163, 1746.811
396.5984, 1755.217
397.0806, 1772.277
397.5627, 1786.155
398.0448, 1798.509
398.5269, 1803.771
399.0090, 1795.621
399.4911, 1785.204
399.9733, 1780.095
400.4554, 1780.882
400.9375, 1783.492
401.4196, 1785.284
401.9017, 1786.143
402.3839, 1784.776
402.8660, 1779.786
403.3481, 1775.509
403.8302, 1777.354
404.3123, 1780.777
404.7944, 1777.930
405.2766, 1764.082
405.7587, 1748.665
406.2408, 1740.565
406.7229, 1738.015
407.2050, 1732.563
407.6871, 1720.405
408.1693, 1707.480
408.6514, 1703.423
409.1335, 1709.803
409.6156, 1712.162
410.0977, 1706.796
410.5798, 1698.266
411.0620, 1687.690
411.5441, 1676.599
412.0262, 1669.776
412.5083, 1670.819
412.9904, 1677.956
413.4725, 1682.271
413.9547, 1680.345
414.4368, 1679.713
414.9189, 1682.399
415.4010, 1685.696
415.8831, 1685.464
416.3652, 1681.722
416.8474, 1680.265
417.3295, 1689.748
417.8116, 1711.101
418.2937, 1724.300
418.7758, 1724.113
419.2579, 1722.138
419.7401, 1723.526
420.2222, 1726.547
420.7043, 1728.313
421.1864, 1727.914
421.6685, 1725.534
422.1506, 1719.308
422.6328, 1709.711
423.1149, 1705.872
423.5970, 1712.836
424.0791, 1723.218
424.5612, 1728.563
425.0433, 1729.099
425.5255, 1726.275
426.0076, 1718.959
426.4897, 1709.453
426.9718, 1698.022
427.4539, 1685.666
427.9360, 1677.110
428.4182, 1675.418
428.9003, 1679.734
429.3824, 1686.348
429.8645, 1701.974
430.3466, 1711.221
430.8287, 1706.929
431.3109, 1699.053
431.7930, 1697.317
432.2751, 1703.106
432.7572, 1711.000
433.2393, 1716.008
433.7214, 1718.168
434.2036, 1715.544
434.6857, 1702.559
435.1678, 1692.176
435.6499, 1688.144
436.1320, 1689.338
436.6141, 1695.378
437.0963, 1707.226
437.5784, 1718.995
438.0605, 1722.878
438.5426, 1719.517
439.0247, 1716.524
439.5068, 1715.413
439.9890, 1715.167
440.4711, 1715.243
440.9532, 1715.517
441.4353, 1714.766
441.9174, 1712.670
442.3995, 1709.499
442.8817, 1705.759
443.3638, 1701.198
443.8459, 1693.926
444.3280, 1682.262
444.8101, 1669.682
445.2922, 1664.570
445.7744, 1674.285
446.2565, 1680.054
446.7386, 1676.869
447.2207, 1673.666
447.7028, 1679.153
448.1849, 1691.498
448.6671, 1701.074
449.1492, 1700.143
449.6313, 1690.503
450.1134, 1681.187
450.5955, 1671.034
451.0776, 1663.717
451.5598, 1658.290
452.0419, 1657.097
452.5240, 1666.385
453.0061, 1687.137
453.4882, 1702.304
453.9703, 1693.619
454.4525, 1669.074
454.9346, 1652.957
455.4167, 1648.766
455.8988, 1646.782
456.3809, 1637.628
456.8630, 1625.054
457.3452, 1624.833
457.8273, 1651.957
458.3094, 1674.178
458.7915, 1674.043
459.2736, 1661.712
459.7557, 1651.941
460.2379, 1648.997
460.7200, 1650.349
461.2021, 1653.388
461.6842, 1658.670
462.1663, 1662.207
462.6484, 1665.815
463.1306, 1665.787
463.6127, 1655.693
464.0948, 1642.570
464.5769, 1638.546
465.0590, 1649.248
465.5411, 1664.634
466.0233, 1666.206
466.5054, 1651.945
466.9875, 1651.765
467.4696, 1682.446
467.9518, 1712.672
468.4339, 1714.182
468.9160, 1694.700
469.3981, 1682.400
469.8802, 1690.871
470.3623, 1707.398
470.8445, 1723.873
471.3266, 1738.890
471.8087, 1746.194
472.2908, 1742.431
472.7729, 1731.956
473.2550, 1721.589
473.7372, 1709.497
474.2193, 1702.843
474.7014, 1705.874
475.1835, 1710.764
475.6656, 1712.360
476.1477, 1711.619
476.6299, 1711.949
477.1120, 1715.254
477.5941, 1721.433
478.0762, 1732.328
478.5583, 1754.379
479.0404, 1763.666
479.5226, 1740.954
480.0047, 1716.006
480.4868, 1709.561
480.9689, 1719.532
481.4510, 1726.999
481.9331, 1714.450
482.4153, 1695.432
482.8974, 1695.426
483.3795, 1714.513
483.8616, 1734.307
484.3437, 1748.931
484.8258, 1757.224
485.3080, 1754.302
485.7901, 1735.414
486.2722, 1722.459
486.7543, 1719.382
487.2364, 1723.758
487.7185, 1738.109
488.2007, 1759.156
488.6828, 1776.332
489.1649, 1782.456
489.6470, 1778.858
490.1291, 1768.966
490.6112, 1739.843
491.0934, 1728.604
491.5755, 1755.150
492.0576, 1787.417
492.5397, 1803.301
493.0218, 1801.452
493.5039, 1793.449
493.9861, 1785.167
494.4682, 1777.137
494.9503, 1768.907
495.4324, 1759.645
495.9145, 1758.724
496.3966, 1775.943
496.8788, 1799.979
497.3609, 1809.808
497.8430, 1803.508
498.3251, 1791.826
498.8072, 1768.046
499.2893, 1746.595
499.7715, 1746.537
500.2536, 1764.938
500.7357, 1779.992
501.2178, 1776.199
501.6999, 1758.590
502.1820, 1748.730
502.6642, 1751.836
503.1463, 1754.299
503.6284, 1755.213
504.1105, 1754.847
504.5926, 1751.804
505.0747, 1747.089
505.5569, 1745.241
506.0390, 1752.281
506.5211, 1763.297
507.0032, 1765.865
507.4853, 1759.365
507.9674, 1748.914
508.4496, 1730.899
508.9317, 1714.951
509.4138, 1720.089
509.8959, 1751.808
510.3780, 1772.646
510.8601, 1763.669
511.3423, 1746.357
511.8244, 1739.211
512.3065, 1742.147
512.7886, 1747.861
513.2707, 1752.390
513.7528, 1755.429
514.2349, 1756.120
514.7170, 1754.465
515.1992, 1750.299
515.6813, 1741.841
516.1634, 1732.645
516.6455, 1723.354
517.1276, 1715.031
517.6097, 1709.930
518.0919, 1709.257
518.5740, 1712.697
519.0561, 1723.640
519.5382, 1742.145
520.0203, 1748.370
520.5024, 1730.083
520.9846, 1705.074
521.4667, 1698.732
521.9488, 1711.063
522.4309, 1725.688
522.9130, 1748.663
523.3951, 1765.651
523.8773, 1761.557
524.3594, 1743.830
524.8415, 1731.128
525.3236, 1731.854
525.8057, 1739.536
526.2878, 1741.871
526.7700, 1735.624
527.2521, 1734.089
527.7342, 1741.557
528.2163, 1749.801
528.6984, 1756.044
529.1805, 1760.617
529.6627, 1764.453
530.1448, 1767.631
530.6269, 1770.914
531.1090, 1772.544
531.5911, 1774.323
532.0732, 1785.833
532.5554, 1810.585
533.0375, 1839.381
533.5196, 1865.224
534.0017, 1887.859
534.4838, 1902.681
534.9659, 1899.777
535.4481, 1900.927
535.9302, 1915.370
536.4123, 1937.280
536.8944, 1959.154
537.3765, 1979.104
537.8586, 1999.752
538.3408, 2023.993
538.8229, 2051.788
539.3050, 2081.687
539.7871, 2113.894
540.2692, 2147.923
540.7513, 2184.153
541.2335, 2221.927
541.7156, 2260.534
542.1977, 2299.446
542.6798, 2341.250
543.1619, 2388.411
543.6440, 2438.781
544.1262, 2488.274
544.6083, 2536.811
545.0904, 2587.015
545.5725, 2639.784
546.0546, 2696.313
546.5367, 2761.431
547.0189, 2844.003
547.5010, 2922.502
547.9831, 2998.144
548.4652, 3068.043
548.9474, 3124.322
549.4295, 3172.507
549.9116, 3229.846
550.3937, 3308.254
550.8759, 3399.116
551.3580, 3485.690
551.8401, 3567.639
552.3222, 3656.887
552.8043, 3761.561
553.2864, 3867.731
553.7686, 3963.124
554.2507, 4048.521
554.7328, 4119.604
555.2149, 4164.913
555.6970, 4206.290
556.1791, 4267.042
556.6613, 4330.093
557.1434, 4360.416
557.6255, 4347.915
558.1076, 4317.415
558.5897, 4305.298
559.0718, 4316.807
559.5540, 4274.917
560.0361, 4152.374
560.5182, 4013.460
561.0003, 3875.543
561.4824, 3736.708
561.9645, 3591.366
562.4467, 3438.882
562.9288, 3287.222
563.4109, 3135.514
563.8930, 2991.478
564.3751, 2870.824
564.8572, 2773.993
565.3394, 2686.521
565.8215, 2599.816
566.3036, 2516.355
566.7857, 2443.531
567.2678, 2386.514
567.7499, 2332.399
568.2321, 2280.845
568.7142, 2232.492
569.1963, 2188.462
569.6784, 2147.888
570.1605, 2108.980
570.6426, 2070.472
571.1248, 2033.794
571.6069, 1999.978
572.0890, 1969.221
572.5711, 1946.335
573.0532, 1935.385
573.5353, 1926.488
574.0175, 1910.789
574.4996, 1889.410
574.9817, 1868.985
575.4638, 1847.783
575.9459, 1830.255
576.4280, 1822.255
576.9102, 1817.257
577.3923, 1803.360
577.8744, 1780.184
578.3565, 1762.529
578.8386, 1766.890
579.3207, 1789.022
579.8029, 1793.887
580.2850, 1772.706
580.7671, 1753.689
581.2492, 1745.636
581.7313, 1742.509
582.2134, 1742.563
582.6956, 1744.974
583.1777, 1740.902
583.6598, 1720.945
584.1419, 1696.895
584.6240, 1678.954
585.1061, 1667.313
585.5883, 1661.939
586.0704, 1663.243
586.5525, 1667.027
587.0346, 1666.436
587.5167, 1659.128
587.9988, 1658.925
588.4810, 1682.743
588.9631, 1694.689
589.4452, 1673.497
589.9273, 1639.543
590.4094, 1619.299
590.8915, 1619.798
591.3737, 1627.331
591.8558, 1633.717
592.3379, 1637.986
592.8200, 1637.876
593.3021, 1633.229
593.7842, 1623.708
594.2664, 1607.507
594.7485, 1588.383
595.2306, 1575.672
595.7127, 1573.625
596.1948, 1569.868
596.6769, 1558.751
597.1591, 1551.026
597.6412, 1556.185
598.1233, 1569.139
598.6054, 1579.081
599.0875, 1581.086
599.5696, 1578.008
600.0518, 1571.687
600.5339, 1562.720
601.0160, 1559.483
601.4981, 1565.081
601.9802, 1569.564
602.4623, 1566.152
602.9445, 1556.058
603.4266, 1544.713
603.9087, 1528.900
604.3908, 1517.186
604.8729, 1512.467
605.3550, 1512.094
605.8372, 1514.607
606.3193, 1519.325
606.8014, 1525.912
607.2835, 1534.654
607.7656, 1543.243
608.2477, 1546.663
608.7299, 1544.689
609.2120, 1537.931
609.6941, 1520.930
610.1762, 1507.092
610.6583, 1510.778
611.1404, 1526.180
611.6226, 1536.308
612.1047, 1538.366
612.5868, 1535.202
613.0689, 1521.524
613.5510, 1506.596
614.0331, 1506.603
614.5153, 1520.783
614.9974, 1530.288
615.4795, 1518.887
615.9616, 1493.500
616.4437, 1482.099
616.9258, 1489.184
617.4080, 1496.483
617.8901, 1501.304
618.3722, 1504.760
618.8543, 1508.696
619.3364, 1512.248
619.8185, 1511.609
620.3007, 1498.048
620.7828, 1488.617
621.2649, 1503.368
621.7470, 1527.340
622.2291, 1529.952
622.7112, 1506.883
623.1934, 1483.065
623.6755, 1481.346
624.1576, 1498.530
624.6397, 1512.109
625.1218, 1521.570
625.6039, 1528.476
626.0861, 1533.626
626.5682, 1535.849
627.0503, 1532.307
627.5324, 1524.382
628.0145, 1518.910
628.4966, 1519.108
628.9788, 1522.073
629.4609, 1526.309
629.9430, 1531.323
630.4251, 1535.230
630.9072, 1537.756
631.3893, 1542.737
631.8715, 1555.342
632.3536, 1574.010
632.8357, 1579.675
633.3178, 1561.657
633.7999, 1549.601
634.2820, 1557.369
634.7642, 1566.010
635.2463, 1557.765
635.7284, 1535.712
636.2105, 1521.295
636.6926, 1528.571
637.1747, 1542.851
637.6569, 1550.720
638.1390, 1554.924
638.6211, 1565.056
639.1032, 1583.067
639.5853, 1595.561
640.0674, 1587.321
640.5496, 1560.705
641.0317, 1547.469
641.5138, 1556.723
641.9959, 1563.959
642.4780, 1565.769
642.9601, 1563.625
643.4423, 1555.000
643.9244, 1542.265
644.4065, 1536.081
644.8886, 1545.730
645.3707, 1558.833
645.8528, 1566.319
646.3350, 1568.218
646.8171, 1561.617
647.2992, 1546.388
647.7813, 1534.829
648.2634, 1539.815
648.7455, 1558.617
649.2277, 1564.795
649.7098, 1547.002
650.1919, 1537.674
650.6740, 1551.138
651.1561, 1566.801
651.6382, 1569.233
652.1204, 1560.942
652.6025, 1556.078
653.0846, 1562.824
653.5667, 1571.220
654.0488, 1574.104
654.5309, 1572.396
655.0131, 1565.837
655.4952, 1555.148
655.9773, 1547.883
656.4594, 1551.505
656.9415, 1562.630
657.4236, 1562.735
657.9058, 1544.604
658.3879, 1532.068
658.8700, 1534.984
659.3521, 1538.547
659.8342, 1532.392
660.3163, 1519.527
660.7985, 1509.838
661.2806, 1505.837
661.7627, 1506.226
662.2448, 1514.946
662.7269, 1525.452
663.2090, 1525.488
663.6912, 1515.111
664.1733, 1506.631
664.6554, 1509.353
665.1375, 1518.468
665.6196, 1517.831
666.1017, 1502.452
666.5839, 1496.221
667.0660, 1509.032
667.5481, 1522.445
668.0302, 1525.101
668.5123, 1520.196
668.9944, 1514.219
669.4766, 1506.670
669.9587, 1501.607
670.4408, 1501.277
670.9229, 1504.101
671.4050, 1509.543
671.8871, 1516.654
672.3693, 1524.180
672.8514, 1531.758
673.3335, 1535.998
673.8156, 1527.073
674.2977, 1502.827
674.7798, 1491.951
675.2620, 1499.825
675.7441, 1513.426
676.2262, 1530.681
676.7083, 1547.046
677.1904, 1552.600
677.6725, 1542.731
678.1547, 1536.499
678.6368, 1539.990
679.1189, 1547.197
679.6010, 1556.468
680.0831, 1565.422
680.5652, 1568.790
681.0474, 1564.786
681.5295, 1560.739
682.0116, 1568.050
682.4937, 1584.275
682.9758, 1591.901
683.4579, 1589.183
683.9401, 1587.097
684.4222, 1590.152
684.9043, 1596.463
685.3864, 1603.626
685.8685, 1612.093
686.3506, 1619.040
686.8328, 1621.551
687.3149, 1625.779
687.7970, 1634.034
688.2791, 1645.378
688.7612, 1661.309
689.2433, 1680.593
689.7255, 1694.470
690.2076, 1692.899
690.6897, 1683.352
691.1718, 1679.877
691.6539, 1681.890
692.1360, 1684.401
692.6182, 1685.762
693.1003, 1688.564
693.5824, 1695.787
694.0645, 1707.307
694.5466, 1718.832
695.0287, 1737.121
695.5109, 1745.449
695.9930, 1729.737
696.4751, 1713.726
696.9572, 1720.531
697.4393, 1744.008
697.9214, 1756.991
698.4036, 1745.449
698.8857, 1724.554
699.3678, 1701.177
699.8499, 1679.935
700.3320, 1672.353
700.8141, 1678.594
701.2963, 1686.603
701.7784, 1688.648
702.2605, 1685.288
702.7426, 1677.368
703.2247, 1663.202
703.7068, 1651.028
704.1890, 1644.530
704.6711, 1635.643
705.1532, 1615.256
705.6353, 1590.933
706.1174, 1575.903
706.5995, 1573.444
707.0817, 1573.663
707.5638, 1576.007
708.0459, 1577.198
708.5280, 1574.043
709.0101, 1567.531
709.4922, 1559.573
709.9744, 1551.039
710.4565, 1543.761
710.9386, 1540.180
711.4207, 1539.950
711.9028, 1541.115
712.3849, 1543.933
712.8671, 1546.683
713.3492, 1550.063
713.8313, 1550.731
714.3134, 1541.649
714.7955, 1520.143
715.2776, 1512.686
715.7598, 1534.990
716.2419, 1551.151
716.7240, 1545.235
717.2061, 1532.954
717.6882, 1531.002
718.1703, 1539.336
718.6525, 1545.477
719.1346, 1540.970
719.6167, 1532.849
720.0988, 1528.739
720.5809, 1528.153
721.0630, 1531.360
721.5452, 1538.128
722.0273, 1541.019
722.5094, 1533.225
722.9915, 1519.523
723.4736, 1518.239
723.9557, 1537.892
724.4379, 1546.177
724.9200, 1534.416
725.4021, 1518.500
725.8842, 1502.786
726.3663, 1489.739
726.8484, 1484.987
727.3306, 1491.945
727.8127, 1497.060
728.2948, 1494.999
728.7769, 1489.177
729.2590, 1480.035
729.7411, 1469.982
730.2233, 1462.641
730.7054, 1459.511
731.1875, 1461.578
731.6696, 1473.891
732.1517, 1492.686
732.6339, 1497.668
733.1160, 1487.855
733.5981, 1477.815
734.0802, 1472.028
734.5623, 1468.315
735.0444, 1464.393
735.5266, 1460.243
736.0087, 1456.110
736.4908, 1449.581
736.9729, 1446.256
737.4550, 1450.528
737.9371, 1455.411
738.4193, 1453.390
738.9014, 1446.832
739.3835, 1445.807
739.8656, 1457.913
740.3477, 1468.941
740.8298, 1463.694
741.3120, 1450.449
741.7941, 1443.594
742.2762, 1443.979
742.7583, 1445.491
743.2404, 1444.790
743.7225, 1442.757
744.2047, 1441.167
744.6868, 1440.220
745.1689, 1437.612
745.6510, 1432.539
746.1331, 1427.749
746.6152, 1424.644
747.0974, 1422.304
747.5795, 1418.791
748.0616, 1413.727
748.5437, 1411.267
749.0258, 1416.340
749.5079, 1418.864
749.9901, 1412.625
750.4722, 1402.829
750.9543, 1394.529
751.4364, 1388.918
751.9185, 1385.964
752.4006, 1385.377
752.8828, 1387.824
753.3649, 1396.957
753.8470, 1409.854
754.3291, 1416.643
754.8112, 1415.760
755.2933, 1413.304
755.7755, 1413.912
756.2576, 1414.893
756.7397, 1406.899
757.2218, 1383.980
757.7039, 1373.391
758.1860, 1382.851
758.6682, 1394.722
759.1503, 1403.014
759.6324, 1407.602
760.1145, 1406.609
760.5966, 1398.455
761.0787, 1394.870
761.5609, 1402.128
762.0430, 1410.970
762.5251, 1420.102
763.0072, 1425.511
763.4893, 1418.953
763.9714, 1401.021
764.4536, 1384.676
764.9357, 1378.857
765.4178, 1381.392
765.8999, 1391.433
766.3820, 1407.186
766.8641, 1420.961
767.3463, 1431.437
767.8284, 1433.284
768.3105, 1420.322
768.7926, 1399.578
769.2747, 1395.432
769.7568, 1416.796
770.2390, 1428.988
770.7211, 1425.361
771.2032, 1419.598
771.6853, 1417.845
772.1674, 1418.038
772.6495, 1416.135
773.1317, 1410.693
773.6138, 1411.439
774.0959, 1428.916
774.5780, 1444.902
775.0601, 1447.021
775.5422, 1441.493
776.0244, 1435.864
776.5065, 1432.580
776.9886, 1433.497
777.4707, 1442.163
777.9528, 1452.829
778.4349, 1455.020
778.9171, 1450.814
779.3992, 1449.407
779.8813, 1452.379
780.3634, 1454.274
780.8455, 1450.797
781.3276, 1444.808
781.8098, 1443.993
782.2919, 1448.988
782.7740, 1457.754
783.2561, 1476.712
783.7382, 1488.950
784.2203, 1478.167
784.7025, 1460.817
785.1846, 1460.696
785.6667, 1480.240
786.1488, 1496.654
786.6309, 1507.652
787.1130, 1512.606
787.5952, 1507.924
788.0773, 1499.081
788.5594, 1490.961
789.0415, 1484.859
789.5236, 1480.918
790.0057, 1478.873
790.4879, 1479.819
790.9700, 1487.286
791.4521, 1498.286
791.9342, 1506.556
792.4163, 1511.026
792.8984, 1510.047
793.3806, 1502.191
793.8627, 1492.328
794.3448, 1490.945
794.8269, 1499.434
795.3090, 1498.241
795.7911, 1483.716
796.2733, 1469.840
796.7554, 1459.073
797.2375, 1454.250
797.7196, 1462.183
798.2017, 1483.709
798.6838, 1494.484
799.1660, 1489.603
799.6481, 1480.547
800.1302, 1464.826
800.6123, 1449.921
801.0944, 1438.540
801.5765, 1433.041
802.0587, 1439.911
802.5408, 1465.875
803.0229, 1487.596
803.5050, 1485.242
803.9871, 1472.042
804.4692, 1461.950
804.9514, 1456.135
805.4335, 1455.234
805.9156, 1459.053
806.3977, 1461.214
806.8798, 1453.169
807.3619, 1438.145
807.8441, 1428.962
808.3262, 1425.647
808.8083, 1421.079
809.2904, 1412.658
809.7725, 1407.300
810.2546, 1412.208
810.7368, 1424.322
811.2189, 1429.472
811.7010, 1425.744
812.1831, 1418.956
812.6652, 1401.383
813.1473, 1389.976
813.6295, 1397.119
814.1116, 1412.479
814.5937, 1420.737
815.0758, 1419.830
815.5579, 1419.467
816.0400, 1424.385
816.5222, 1428.168
817.0043, 1426.969
817.4864, 1422.845
817.9685, 1417.496
818.4506, 1411.825
818.9327, 1407.427
819.4149, 1405.416
819.8970, 1404.653
820.3791, 1403.012
820.8612, 1401.868
821.3433, 1406.946
821.8254, 1416.896
822.3076, 1419.277
822.7897, 1407.598
823.2718, 1392.381
823.7539, 1390.649
824.2360, 1401.556
824.7181, 1406.120
825.2003, 1403.529
825.6824, 1398.356
826.1645, 1389.738
826.6466, 1383.814
827.1287, 1387.774
827.6108, 1400.187
828.0930, 1409.045
828.5751, 1414.644
829.0572, 1416.023
829.5393, 1409.023
830.0214, 1402.284
830.5035, 1398.628
830.9857, 1398.680
831.4678, 1405.600
831.9499, 1421.524
832.4320, 1428.955
832.9141, 1414.611
833.3962, 1397.211
833.8784, 1386.042
834.3605, 1380.796
834.8426, 1382.401
835.3247, 1389.202
835.8068, 1394.404
836.2889, 1392.758
836.7711, 1390.203
837.2532, 1396.163
837.7353, 1406.358
838.2174, 1409.875
838.6995, 1406.640
839.1816, 1403.409
839.6638, 1403.335
840.1459, 1406.216
840.6280, 1412.835
841.1101, 1422.625
841.5922, 1427.551
842.0743, 1426.683
842.5565, 1428.656
843.0386, 1438.095
843.5207, 1444.334
844.0028, 1435.214
844.4849, 1415.121
844.9670, 1408.089
845.4492, 1426.290
845.9313, 1434.600
846.4134, 1423.413
846.8955, 1412.000
847.3776, 1407.617
847.8597, 1407.973
848.3419, 1410.138
848.8240, 1413.879
849.3061, 1418.984
849.7882, 1428.820
850.2703, 1435.951
850.7524, 1433.236
851.2346, 1428.753
851.7167, 1431.560
852.1988, 1440.813
852.6809, 1450.215
853.1630, 1457.426
853.6451, 1462.136
854.1273, 1463.815
854.6094, 1463.026
855.0915, 1460.336
855.5736, 1455.916
856.0557, 1448.606
856.5378, 1438.570
857.0200, 1431.839
857.5021, 1436.025
857.9842, 1446.170
858.4663, 1448.826
858.9484, 1444.521
859.4305, 1436.722
859.9127, 1425.527
860.3948, 1420.335
860.8769, 1428.629
861.3590, 1442.557
861.8411, 1443.659
862.3232, 1428.734
862.8054, 1422.200
863.2875, 1427.331
863.7696, 1432.267
864.2517, 1431.088
864.7338, 1430.867
865.2159, 1442.679
865.6981, 1464.950
866.1802, 1472.033
866.6623, 1448.385
867.1444, 1433.255
867.6265, 1438.824
868.1086, 1443.769
868.5908, 1431.165
869.0729, 1412.334
869.5550, 1407.465
870.0371, 1420.708
870.5192, 1433.517
871.0013, 1445.276
871.4835, 1448.296
871.9656, 1429.395
872.4477, 1405.016
872.9298, 1395.529
873.4119, 1400.167
873.8940, 1404.410
874.3762, 1400.669
874.8583, 1397.395
875.3404, 1408.784
875.8225, 1421.572
876.3046, 1409.935
876.7867, 1381.944
877.2689, 1366.004
877.7510, 1370.544
878.2332, 1382.093
878.7153, 1389.288
879.1974, 1392.850
879.6795, 1394.547
880.1616, 1394.193
880.6437, 1388.203
881.1259, 1376.128
881.6080, 1372.002
882.0901, 1385.296
882.5722, 1403.310
883.0543, 1401.644
883.5364, 1379.590
884.0186, 1368.956
884.5007, 1372.772
884.9828, 1375.431
885.4649, 1372.992
885.9470, 1367.361
886.4291, 1358.135
886.9113, 1347.493
887.3934, 1346.465
887.8755, 1365.566
888.3576, 1373.073
888.8397, 1357.768
889.3218, 1344.893
889.8040, 1349.250
890.2861, 1357.943
890.7682, 1354.618
891.2503, 1339.000
891.7324, 1326.260
892.2145, 1315.758
892.6967, 1311.935
893.1788, 1323.233
893.6609, 1334.953
894.1430, 1332.243
894.6251, 1322.481
895.1072, 1323.816
895.5894, 1341.784
896.0715, 1356.769
896.5536, 1358.448
897.0357, 1354.276
897.5178, 1346.185
897.9999, 1337.743
898.4821, 1333.503
898.9642, 1333.575
899.4463, 1334.727
899.9284, 1334.915
900.4105, 1337.244
900.8926, 1350.616
901.3748, 1364.708
901.8569, 1357.953
902.3390, 1337.421
902.8211, 1326.886
903.3032, 1333.072
903.7853, 1346.738
904.2675, 1362.355
904.7496, 1375.743
905.2317, 1375.769
905.7138, 1365.626
906.1959, 1359.781
906.6780, 1359.733
907.1602, 1359.965
907.6423, 1357.526
908.1244, 1357.787
908.6065, 1371.062
909.0886, 1394.226
909.5707, 1398.792
910.0529, 1382.945
910.5350, 1369.289
911.0171, 1361.858
911.4992, 1359.241
911.9813, 1360.450
912.4634, 1365.814
912.9456, 1377.676
913.4277, 1399.532
913.9098, 1408.287
914.3919, 1396.370
914.8740, 1389.417
915.3561, 1397.036
915.8383, 1409.464
916.3204, 1417.364
916.8025, 1422.010
917.2846, 1431.192
917.7667, 1456.545
918.2488, 1466.311
918.7310, 1444.308
919.2131, 1425.746
919.6952, 1427.262
920.1773, 1436.851
920.6594, 1441.432
921.1415, 1440.492
921.6237, 1437.286
922.1058, 1426.065
922.5879, 1421.340
923.0700, 1433.322
923.5521, 1445.861
924.0342, 1446.127
924.5164, 1440.119
924.9985, 1439.297
925.4806, 1445.795
925.9627, 1452.795
926.4448, 1456.357
926.9269, 1461.412
927.4091, 1474.819
927.8912, 1487.828
928.3733, 1489.809
928.8554, 1483.372
929.3375, 1476.682
929.8196, 1471.985
930.3018, 1473.511
930.7839, 1493.400
931.2660, 1512.006
931.7481, 1504.667
932.2302, 1486.085
932.7123, 1483.049
933.1945, 1495.891
933.6766, 1503.854
934.1587, 1494.769
934.6408, 1482.811
935.1229, 1484.708
935.6050, 1492.094
936.0872, 1489.331
936.5693, 1480.708
937.0514, 1481.858
937.5335, 1495.245
938.0156, 1506.523
938.4977, 1503.815
938.9799, 1496.337
939.4620, 1498.483
939.9441, 1507.967
940.4262, 1520.723
940.9083, 1534.773
941.3904, 1541.476
941.8726, 1537.883
942.3547, 1529.500
942.8368, 1520.291
943.3189, 1512.796
943.8010, 1516.966
944.2831, 1530.487
944.7653, 1535.477
945.2474, 1529.936
945.7295, 1520.447
946.2116, 1509.908
946.6937, 1498.585
947.1758, 1485.005
947.6580, 1471.497
948.1401, 1473.963
948.6222, 1492.984
949.1043, 1515.761
949.5864, 1542.254
950.0685, 1557.244
950.5507, 1550.090
951.0328, 1531.815
951.5149, 1520.990
951.9970, 1517.625
952.4791, 1513.315
952.9612, 1507.463
953.4434, 1503.572
953.9255, 1502.762
954.4076, 1502.791
954.8897, 1502.152
955.3718, 1501.232
955.8539, 1500.718
956.3361, 1500.313
956.8182, 1502.201
957.3003, 1506.599
957.7824, 1513.616
958.2645, 1528.255
958.7466, 1536.499
959.2288, 1522.004
959.7109, 1494.553
960.1930, 1486.841
960.6751, 1508.188
961.1572, 1520.623
961.6393, 1520.670
962.1215, 1517.806
962.6036, 1514.179
963.0857, 1509.202
963.5678, 1500.565
964.0499, 1489.915
964.5320, 1485.745
965.0142, 1495.027
965.4963, 1496.663
965.9784, 1478.818
966.4605, 1468.314
966.9426, 1479.801
967.4247, 1497.743
967.9069, 1507.627
968.3890, 1510.333
968.8711, 1512.797
969.3532, 1519.525
969.8353, 1518.719
970.3174, 1499.588
970.7996, 1484.627
971.2817, 1484.953
971.7638, 1493.021
972.2459, 1501.917
972.7280, 1510.870
973.2101, 1517.545
973.6923, 1521.868
974.1744, 1523.543
974.6565, 1520.726
975.1386, 1517.250
975.6207, 1513.510
976.1028, 1511.186
976.5850, 1514.547
977.0671, 1522.744
977.5492, 1524.363
978.0313, 1505.356
978.5134, 1496.519
978.9955, 1516.575
979.4777, 1536.666
979.9598, 1536.669
980.4419, 1527.163
980.9240, 1525.184
981.4061, 1531.984
981.8882, 1534.820
982.3704, 1525.555
982.8525, 1518.279
983.3346, 1515.310
983.8167, 1518.005
984.2988, 1532.910
984.7809, 1551.345
985.2631, 1559.606
985.7452, 1556.171
986.2273, 1552.691
986.7094, 1555.211
987.1915, 1555.480
987.6736, 1547.909
988.1558, 1539.341
988.6379, 1534.493
989.1200, 1532.588
989.6021, 1533.680
990.0842, 1537.117
990.5663, 1534.190
991.0485, 1507.618
991.5306, 1492.482
992.0127, 1517.182
992.4948, 1546.918
992.9769, 1548.800
993.4590, 1536.556
993.9412, 1541.247
994.4233, 1567.023
994.9054, 1580.980
995.3875, 1555.716
995.8696, 1533.393
996.3517, 1538.394
996.8339, 1550.274
997.3160, 1553.606
997.7981, 1550.240
998.2802, 1545.031
998.7623, 1539.269
999.2444, 1536.000
999.7266, 1537.990
1000.209, 1540.850
1000.691, 1542.997
1001.173, 1544.600
1001.655, 1544.436
1002.137, 1544.392
1002.619, 1548.638
1003.101, 1557.577
1003.583, 1564.803
1004.066, 1569.049
1004.548, 1568.949
1005.030, 1558.270
1005.512, 1548.082
1005.994, 1546.731
1006.476, 1553.204
1006.958, 1567.057
1007.440, 1587.106
1007.923, 1602.617
1008.405, 1610.044
1008.887, 1610.562
1009.369, 1598.531
1009.851, 1585.696
1010.333, 1583.340
1010.815, 1586.218
1011.297, 1583.040
1011.779, 1572.883
1012.262, 1568.205
1012.744, 1575.524
1013.226, 1586.844
1013.708, 1607.836
1014.190, 1622.634
1014.672, 1611.763
1015.154, 1590.212
1015.636, 1582.627
1016.119, 1591.333
1016.601, 1599.182
1017.083, 1598.134
1017.565, 1598.677
1018.047, 1607.565
1018.529, 1616.422
1019.011, 1618.016
1019.493, 1616.672
1019.975, 1621.112
1020.458, 1630.620
1020.940, 1631.766
1021.422, 1610.669
1021.904, 1598.380
1022.386, 1612.888
1022.868, 1630.037
1023.350, 1635.487
1023.832, 1635.117
1024.314, 1637.334
1024.797, 1642.321
1025.279, 1645.204
1025.761, 1644.636
1026.243, 1642.491
1026.725, 1630.469
1027.207, 1627.209
1027.689, 1652.724
1028.171, 1684.313
1028.654, 1694.079
1029.136, 1685.433
1029.618, 1683.892
1030.100, 1696.649
1030.582, 1709.007
1031.064, 1720.942
1031.546, 1729.101
1032.028, 1730.360
1032.510, 1728.735
1032.993, 1726.602
1033.475, 1724.862
1033.957, 1725.862
1034.439, 1729.184
1034.921, 1736.884
1035.403, 1755.739
1035.885, 1770.320
1036.367, 1772.833
1036.849, 1772.419
1037.332, 1775.255
1037.814, 1781.057
1038.296, 1789.503
1038.778, 1802.719
1039.260, 1810.794
1039.742, 1805.398
1040.224, 1808.106
1040.706, 1830.801
1041.189, 1853.479
1041.671, 1861.429
1042.153, 1860.849
1042.635, 1864.152
1043.117, 1871.627
1043.599, 1881.100
1044.081, 1893.215
1044.563, 1905.813
1045.046, 1917.465
1045.528, 1931.580
1046.010, 1950.224
1046.492, 1972.304
1046.974, 1996.723
1047.456, 2023.500
1047.938, 2047.077
1048.420, 2063.518
1048.902, 2091.651
1049.385, 2136.239
1049.867, 2184.738
1050.349, 2232.125
1050.831, 2277.508
1051.313, 2317.888
1051.795, 2355.842
1052.277, 2410.407
1052.759, 2483.992
1053.242, 2552.556
1053.724, 2612.825
1054.206, 2680.978
1054.688, 2764.502
1055.170, 2853.804
1055.652, 2940.318
1056.134, 3022.587
1056.616, 3092.647
1057.099, 3151.797
1057.581, 3228.969
1058.063, 3324.938
1058.545, 3425.892
1059.027, 3528.092
1059.509, 3618.961
1059.991, 3688.520
1060.473, 3743.041
1060.955, 3800.253
1061.438, 3852.377
1061.920, 3863.227
1062.402, 3836.692
1062.884, 3796.892
1063.366, 3748.884
1063.848, 3687.312
1064.330, 3610.033
1064.812, 3510.000
1065.294, 3369.727
1065.777, 3206.011
1066.259, 3049.923
1066.741, 2900.169
1067.223, 2750.519
1067.705, 2601.937
1068.187, 2456.118
1068.669, 2314.864
1069.151, 2190.416
1069.634, 2096.844
1070.116, 2021.591
1070.598, 1955.109
1071.080, 1893.579
1071.562, 1827.067
1072.044, 1761.361
1072.526, 1714.628
1073.008, 1688.850
1073.490, 1662.696
1073.973, 1618.866
1074.455, 1581.245
1074.937, 1574.322
1075.419, 1574.014
1075.901, 1557.803
1076.383, 1533.783
1076.865, 1514.119
1077.347, 1501.124
1077.829, 1494.529
1078.312, 1497.463
1078.794, 1497.235
1079.276, 1486.683
1079.758, 1474.536
1080.240, 1461.036
1080.722, 1451.650
1081.204, 1458.179
1081.686, 1472.256
1082.169, 1467.467
1082.651, 1434.442
1083.133, 1412.662
1083.615, 1411.421
1084.097, 1416.296
1084.579, 1432.612
1085.061, 1445.042
1085.543, 1441.818
1086.026, 1429.920
1086.508, 1419.988
1086.990, 1412.061
1087.472, 1404.418
1087.954, 1393.948
1088.436, 1392.073
1088.918, 1405.427
1089.400, 1414.370
1089.882, 1408.249
1090.365, 1398.979
1090.847, 1400.019
1091.329, 1408.455
1091.811, 1412.555
1092.293, 1412.637
1092.775, 1402.247
1093.257, 1378.460
1093.739, 1370.427
1094.221, 1387.598
1094.704, 1409.703
1095.186, 1422.924
1095.668, 1426.771
1096.150, 1416.253
1096.632, 1395.351
1097.114, 1388.504
1097.596, 1392.926
1098.078, 1388.754
1098.561, 1374.694
1099.043, 1368.876
1099.525, 1379.769
1100.007, 1393.487
1100.489, 1395.736
1100.971, 1391.422
1101.453, 1386.998
1101.935, 1382.967
1102.417, 1380.928
1102.900, 1380.096
1103.382, 1377.077
1103.864, 1371.764
1104.346, 1369.882
1104.828, 1376.117
1105.310, 1383.071
1105.792, 1385.473
1106.274, 1385.277
1106.756, 1382.167
1107.239, 1379.019
1107.721, 1381.340
1108.203, 1387.193
1108.685, 1387.995
1109.167, 1380.352
1109.649, 1373.693
1110.131, 1371.190
1110.613, 1370.460
1111.096, 1367.702
1111.578, 1369.203
1112.060, 1388.070
1112.542, 1410.778
1113.024, 1409.678
1113.506, 1381.941
1113.988, 1367.510
1114.470, 1378.755
1114.953, 1381.652
1115.435, 1365.092
1115.917, 1356.743
1116.399, 1372.020
1116.881, 1392.165
1117.363, 1399.622
1117.845, 1396.476
1118.327, 1386.760
1118.809, 1366.858
1119.292, 1373.546
1119.774, 1411.717
1120.256, 1432.617
1120.738, 1423.956
1121.220, 1412.347
1121.702, 1413.844
1122.184, 1419.891
1122.666, 1417.186
1123.148, 1410.034
1123.631, 1415.051
1124.113, 1428.311
1124.595, 1433.762
1125.077, 1431.109
1125.559, 1426.510
1126.041, 1422.824
1126.523, 1426.027
1127.005, 1443.336
1127.488, 1460.870
1127.970, 1461.598
1128.452, 1454.339
1128.934, 1446.479
1129.416, 1440.979
1129.898, 1443.304
1130.380, 1451.768
1130.862, 1458.732
1131.344, 1461.621
1131.827, 1463.010
1132.309, 1464.367
1132.791, 1464.193
1133.273, 1458.255
1133.755, 1454.014
1134.237, 1458.777
1134.719, 1468.336
1135.201, 1475.397
1135.683, 1479.586
1136.166, 1484.984
1136.648, 1495.442
1137.130, 1500.724
1137.612, 1497.041
1138.094, 1494.924
1138.576, 1500.089
1139.058, 1503.031
1139.540, 1493.255
1140.023, 1479.245
1140.505, 1482.660
1140.987, 1503.804
1141.469, 1512.731
1141.951, 1508.392
1142.433, 1512.125
1142.915, 1527.281
1143.397, 1539.247
1143.880, 1541.238
1144.362, 1539.002
1144.844, 1537.802
1145.326, 1537.849
1145.808, 1541.776
1146.290, 1546.365
1146.772, 1540.604
1147.254, 1529.084
1147.736, 1527.590
1148.219, 1536.715
1148.701, 1541.793
1149.183, 1535.236
1149.665, 1529.653
1150.147, 1539.274
1150.629, 1548.092
1151.111, 1542.590
1151.593, 1530.971
1152.075, 1517.930
1152.558, 1507.078
1153.040, 1505.429
1153.522, 1512.975
1154.004, 1515.411
1154.486, 1503.162
1154.968, 1496.834
1155.450, 1501.721
1155.932, 1509.679
1156.415, 1522.635
1156.897, 1531.893
1157.379, 1529.163
1157.861, 1518.890
1158.343, 1511.022
1158.825, 1505.588
1159.307, 1501.883
1159.789, 1500.018
1160.271, 1499.453
1160.754, 1500.361
1161.236, 1498.038
1161.718, 1490.111
1162.200, 1486.402
1162.682, 1498.114
1163.164, 1515.200
1163.646, 1519.981
1164.128, 1513.841
1164.610, 1492.828
1165.093, 1465.878
1165.575, 1459.174
1166.057, 1472.233
1166.539, 1484.376
1167.021, 1487.031
1167.503, 1485.892
1167.985, 1486.874
1168.467, 1483.106
1168.950, 1461.068
1169.432, 1440.926
1169.914, 1443.362
1170.396, 1457.685
1170.878, 1469.023
1171.360, 1475.631
1171.842, 1478.390
1172.324, 1474.239
1172.807, 1474.625
1173.289, 1487.933
1173.771, 1491.971
1174.253, 1475.411
1174.735, 1461.406
1175.217, 1466.005
1175.699, 1476.281
1176.181, 1472.828
1176.663, 1458.623
1177.146, 1450.198
1177.628, 1447.529
1178.110, 1451.088
1178.592, 1460.276
1179.074, 1465.413
1179.556, 1464.172
1180.038, 1461.953
1180.520, 1462.021
1181.002, 1463.802
1181.485, 1467.522
1181.967, 1471.724
1182.449, 1476.415
1182.931, 1478.810
1183.413, 1469.530
1183.895, 1456.312
1184.377, 1459.894
1184.859, 1481.131
1185.342, 1494.075
1185.824, 1485.971
1186.306, 1476.951
1186.788, 1469.917
1187.270, 1467.847
1187.752, 1478.637
1188.234, 1488.201
1188.716, 1480.714
1189.198, 1467.921
1189.681, 1471.759
1190.163, 1491.504
1190.645, 1502.818
1191.127, 1503.960
1191.609, 1506.157
1192.091, 1510.369
1192.573, 1514.360
1193.055, 1517.532
1193.537, 1518.125
1194.020, 1514.624
1194.502, 1509.763
1194.984, 1505.054
1195.466, 1503.657
1195.948, 1516.011
1196.430, 1535.412
1196.912, 1549.046
1197.394, 1556.297
1197.877, 1559.664
1198.359, 1560.084
1198.841, 1558.372
1199.323, 1554.258
1199.805, 1549.928
1200.287, 1544.608
1200.769, 1541.615
1201.251, 1542.290
1201.734, 1546.323
1202.216, 1557.960
1202.698, 1570.470
1203.180, 1569.001
1203.662, 1554.395
1204.144, 1551.684
1204.626, 1565.042
1205.108, 1574.467
1205.590, 1579.151
1206.073, 1576.974
1206.555, 1566.060
1207.037, 1563.109
1207.519, 1580.458
1208.001, 1601.234
1208.483, 1598.581
1208.965, 1584.347
1209.447, 1587.000
1209.929, 1598.007
1210.412, 1597.315
1210.894, 1589.191
1211.376, 1589.351
1211.858, 1599.780
1212.340, 1611.353
1212.822, 1621.361
1213.304, 1627.179
1213.786, 1624.550
1214.269, 1621.524
1214.751, 1621.844
1215.233, 1622.940
1215.715, 1620.811
1216.197, 1619.950
##END=



