##NAMES=Kasolite
##RRUFFID=R070155
##IDEAL CHEMISTRY=Pb^2+^(U^6+^O_2_)SiO_4_&#183;H_2_O
##LOCALITY=Katherine District, Northern Territory, Australia
##OWNER=RRUFF
##SOURCE=James Shigley
##DESCRIPTION=Radiating thin yellow laths
##STATUS=The identification of this mineral has been confirmed by single-crystal X-ray diffraction.
##URL=rruff.info/R070155
171.4499, 11575.73
171.9320, 11609.56
172.4141, 11663.16
172.8962, 11708.73
173.3783, 11733.74
173.8604, 11744.43
174.3426, 11750.95
174.8247, 11742.70
175.3068, 11754.13
175.7889, 11824.67
176.2710, 11939.15
176.7531, 12024.72
177.2353, 12040.40
177.7174, 12026.14
178.1995, 12048.78
178.6816, 12116.92
179.1637, 12191.95
179.6458, 12247.00
180.1280, 12286.63
180.6101, 12338.99
181.0922, 12421.92
181.5743, 12513.59
182.0564, 12584.19
182.5385, 12630.22
183.0207, 12672.92
183.5028, 12728.92
183.9849, 12795.56
184.4670, 12853.13
184.9491, 12891.74
185.4312, 12922.98
185.9134, 12958.38
186.3955, 12997.82
186.8776, 13043.54
187.3597, 13104.02
187.8418, 13175.60
188.3239, 13233.22
188.8061, 13264.90
189.2882, 13286.78
189.7703, 13315.43
190.2524, 13350.91
190.7345, 13384.24
191.2166, 13407.22
191.6988, 13421.52
192.1809, 13436.80
192.6630, 13448.09
193.1451, 13469.88
193.6272, 13519.78
194.1093, 13594.69
194.5915, 13661.94
195.0736, 13697.88
195.5557, 13705.99
196.0378, 13705.45
196.5199, 13679.68
197.0020, 13671.43
197.4842, 13723.38
197.9663, 13823.15
198.4484, 13908.87
198.9305, 13929.52
199.4126, 13898.08
199.8947, 13886.26
200.3769, 13906.83
200.8590, 13937.48
201.3411, 13965.54
201.8232, 13991.21
202.3053, 14014.99
202.7874, 14041.16
203.2696, 14066.75
203.7517, 14074.39
204.2338, 14045.91
204.7159, 14028.83
205.1980, 14061.40
205.6801, 14123.19
206.1623, 14169.41
206.6444, 14168.52
207.1265, 14134.26
207.6086, 14110.99
208.0907, 14098.80
208.5728, 14098.74
209.0549, 14123.00
209.5371, 14156.46
210.0192, 14172.66
210.5013, 14149.37
210.9834, 14106.55
211.4655, 14097.03
211.9476, 14136.01
212.4298, 14175.27
212.9119, 14186.91
213.3940, 14188.97
213.8761, 14205.71
214.3582, 14251.98
214.8403, 14310.34
215.3225, 14342.44
215.8046, 14334.49
216.2867, 14340.25
216.7688, 14393.97
217.2509, 14464.63
217.7330, 14521.19
218.2152, 14551.49
218.6973, 14571.73
219.1794, 14607.13
219.6615, 14661.88
220.1436, 14715.03
220.6257, 14755.77
221.1079, 14794.25
221.5900, 14840.56
222.0721, 14897.87
222.5542, 14954.58
223.0363, 14993.16
223.5184, 15010.33
224.0006, 15034.17
224.4827, 15082.04
224.9648, 15132.23
225.4469, 15172.76
225.9290, 15201.53
226.4111, 15218.51
226.8933, 15218.96
227.3754, 15202.24
227.8575, 15189.57
228.3396, 15190.03
228.8217, 15190.17
229.3038, 15181.70
229.7860, 15164.45
230.2681, 15142.18
230.7502, 15118.18
231.2323, 15092.14
231.7144, 15061.05
232.1965, 15027.97
232.6787, 14984.14
233.1608, 14923.01
233.6429, 14847.45
234.1250, 14767.45
234.6071, 14686.87
235.0892, 14606.13
235.5714, 14528.00
236.0535, 14454.55
236.5356, 14379.67
237.0177, 14300.72
237.4998, 14217.76
237.9819, 14129.72
238.4641, 14028.57
238.9462, 13924.98
239.4283, 13845.09
239.9104, 13796.26
240.3925, 13752.98
240.8746, 13704.01
241.3568, 13651.89
241.8389, 13599.97
242.3210, 13551.81
242.8031, 13501.91
243.2852, 13435.69
243.7673, 13347.10
244.2495, 13275.10
244.7316, 13254.33
245.2137, 13252.11
245.6958, 13233.03
246.1779, 13186.98
246.6600, 13132.02
247.1422, 13084.56
247.6243, 13044.56
248.1064, 13006.55
248.5885, 12964.07
249.0706, 12926.82
249.5527, 12907.80
250.0349, 12910.87
250.5170, 12911.60
250.9991, 12889.12
251.4812, 12847.61
251.9633, 12811.46
252.4454, 12788.16
252.9276, 12768.97
253.4097, 12742.79
253.8918, 12709.89
254.3739, 12681.75
254.8560, 12666.76
255.3382, 12660.39
255.8203, 12652.87
256.3024, 12644.08
256.7845, 12630.96
257.2666, 12607.49
257.7487, 12576.39
258.2308, 12547.36
258.7130, 12519.57
259.1951, 12497.03
259.6772, 12486.37
260.1593, 12488.67
260.6414, 12496.67
261.1235, 12508.34
261.6057, 12521.78
262.0878, 12531.01
262.5699, 12538.42
263.0520, 12538.92
263.5341, 12521.90
264.0162, 12489.77
264.4984, 12465.57
264.9805, 12462.28
265.4626, 12476.29
265.9447, 12494.81
266.4268, 12530.48
266.9089, 12552.09
267.3911, 12529.24
267.8732, 12478.62
268.3553, 12448.93
268.8374, 12463.19
269.3195, 12498.95
269.8016, 12508.17
270.2838, 12481.71
270.7659, 12464.25
271.2480, 12469.47
271.7301, 12489.75
272.2122, 12518.68
272.6943, 12555.69
273.1765, 12589.64
273.6586, 12604.88
274.1407, 12596.30
274.6228, 12590.32
275.1049, 12580.48
275.5870, 12578.79
276.0692, 12604.36
276.5513, 12654.84
277.0334, 12699.05
277.5155, 12707.14
277.9976, 12675.91
278.4797, 12663.02
278.9619, 12679.39
279.4440, 12701.01
279.9261, 12717.95
280.4082, 12730.93
280.8903, 12744.81
281.3724, 12763.49
281.8546, 12784.61
282.3367, 12793.92
282.8188, 12787.48
283.3009, 12774.60
283.7830, 12745.87
284.2651, 12714.91
284.7473, 12700.88
285.2294, 12711.57
285.7115, 12736.83
286.1936, 12756.71
286.6757, 12782.22
287.1578, 12782.79
287.6400, 12744.01
288.1221, 12691.92
288.6042, 12638.80
289.0863, 12590.49
289.5684, 12556.60
290.0505, 12552.75
290.5327, 12591.40
291.0148, 12607.49
291.4969, 12582.58
291.9790, 12554.13
292.4611, 12537.82
292.9432, 12531.98
293.4254, 12527.82
293.9075, 12520.10
294.3896, 12508.20
294.8717, 12485.47
295.3538, 12440.66
295.8359, 12398.58
296.3181, 12359.94
296.8002, 12329.12
297.2823, 12314.50
297.7644, 12321.40
298.2465, 12339.27
298.7286, 12344.34
299.2108, 12330.24
299.6929, 12319.99
300.1750, 12327.02
300.6571, 12334.48
301.1392, 12324.67
301.6213, 12294.67
302.1035, 12266.84
302.5856, 12271.24
303.0677, 12309.33
303.5498, 12332.41
304.0319, 12323.72
304.5140, 12309.14
304.9962, 12307.35
305.4783, 12315.86
305.9604, 12320.79
306.4425, 12312.82
306.9246, 12295.06
307.4067, 12275.69
307.8889, 12254.47
308.3710, 12233.18
308.8531, 12215.69
309.3352, 12198.76
309.8173, 12175.21
310.2994, 12132.28
310.7816, 12092.77
311.2637, 12083.02
311.7458, 12102.22
312.2279, 12133.10
312.7100, 12183.75
313.1921, 12229.48
313.6743, 12223.26
314.1564, 12143.91
314.6385, 12071.16
315.1206, 12046.74
315.6027, 12056.27
316.0848, 12070.33
316.5670, 12082.82
317.0491, 12091.90
317.5312, 12095.60
318.0133, 12094.44
318.4954, 12084.82
318.9775, 12059.95
319.4597, 12030.51
319.9418, 12004.82
320.4239, 11983.96
320.9060, 11966.98
321.3881, 11954.52
321.8702, 11946.26
322.3524, 11931.32
322.8345, 11903.88
323.3166, 11877.27
323.7987, 11859.01
324.2808, 11844.75
324.7629, 11824.67
325.2451, 11793.69
325.7272, 11757.51
326.2093, 11730.77
326.6914, 11719.17
327.1735, 11710.54
327.6556, 11715.33
328.1378, 11716.44
328.6199, 11695.62
329.1020, 11651.50
329.5841, 11600.82
330.0662, 11560.97
330.5483, 11530.61
331.0305, 11518.44
331.5126, 11542.89
331.9947, 11567.59
332.4768, 11583.54
332.9589, 11589.07
333.4410, 11583.37
333.9232, 11564.54
334.4053, 11535.44
334.8874, 11506.69
335.3695, 11476.97
335.8516, 11450.56
336.3337, 11417.48
336.8159, 11392.92
337.2980, 11399.60
337.7801, 11446.34
338.2622, 11497.80
338.7443, 11510.33
339.2264, 11482.53
339.7086, 11448.45
340.1907, 11399.75
340.6728, 11362.77
341.1549, 11365.26
341.6370, 11402.17
342.1191, 11431.85
342.6013, 11426.17
343.0834, 11399.25
343.5655, 11380.18
344.0476, 11370.93
344.5297, 11367.41
345.0118, 11371.89
345.4940, 11379.79
345.9761, 11378.49
346.4582, 11357.86
346.9403, 11336.82
347.4224, 11330.24
347.9045, 11334.80
348.3867, 11338.73
348.8688, 11337.58
349.3509, 11332.80
349.8330, 11326.55
350.3151, 11317.82
350.7972, 11310.75
351.2794, 11311.68
351.7615, 11311.56
352.2436, 11296.87
352.7257, 11267.17
353.2078, 11239.04
353.6899, 11229.97
354.1721, 11242.65
354.6542, 11246.35
355.1363, 11243.85
355.6184, 11231.54
356.1005, 11197.61
356.5826, 11154.20
357.0648, 11124.04
357.5469, 11119.34
358.0290, 11131.50
358.5111, 11137.05
358.9932, 11139.32
359.4753, 11127.89
359.9575, 11085.67
360.4396, 11042.53
360.9217, 11025.39
361.4038, 11035.81
361.8859, 11050.71
362.3680, 11043.88
362.8502, 11014.18
363.3322, 10993.71
363.8144, 10985.63
364.2965, 10983.89
364.7786, 10996.13
365.2607, 11011.07
365.7428, 11004.80
366.2249, 10955.32
366.7071, 10893.91
367.1892, 10878.17
367.6713, 10913.74
368.1534, 10941.98
368.6355, 10937.57
369.1176, 10917.90
369.5998, 10902.89
370.0819, 10892.80
370.5640, 10890.71
371.0461, 10906.36
371.5282, 10929.94
372.0103, 10939.38
372.4925, 10929.90
372.9746, 10913.60
373.4567, 10900.22
373.9388, 10889.83
374.4209, 10880.22
374.9030, 10874.00
375.3852, 10866.07
375.8673, 10846.55
376.3494, 10822.07
376.8315, 10813.75
377.3136, 10834.26
377.7957, 10870.69
378.2779, 10889.07
378.7600, 10869.90
379.2421, 10858.29
379.7242, 10863.86
380.2063, 10871.43
380.6884, 10864.41
381.1706, 10843.05
381.6527, 10824.46
382.1348, 10827.98
382.6169, 10855.38
383.0990, 10870.45
383.5811, 10859.81
384.0633, 10850.59
384.5454, 10855.93
385.0275, 10865.51
385.5096, 10860.06
385.9917, 10828.61
386.4738, 10792.21
386.9560, 10795.76
387.4381, 10851.81
387.9202, 10878.96
388.4023, 10825.29
388.8844, 10765.55
389.3665, 10762.33
389.8487, 10812.94
390.3308, 10857.27
390.8129, 10850.29
391.2950, 10814.78
391.7771, 10802.02
392.2592, 10818.16
392.7414, 10835.86
393.2235, 10834.79
393.7056, 10822.15
394.1877, 10821.00
394.6698, 10842.30
395.1519, 10861.89
395.6341, 10864.54
396.1162, 10856.67
396.5983, 10852.57
397.0804, 10857.05
397.5625, 10862.75
398.0446, 10857.17
398.5268, 10830.92
399.0089, 10825.94
399.4910, 10865.85
399.9731, 10905.59
400.4552, 10916.28
400.9373, 10902.90
401.4195, 10885.85
401.9016, 10878.06
402.3837, 10877.47
402.8658, 10874.47
403.3479, 10858.79
403.8300, 10857.88
404.3122, 10892.58
404.7943, 10930.39
405.2764, 10943.36
405.7585, 10927.19
406.2406, 10899.24
406.7227, 10869.67
407.2049, 10839.37
407.6870, 10834.37
408.1691, 10873.77
408.6512, 10908.69
409.1333, 10905.32
409.6154, 10881.06
410.0976, 10866.24
410.5797, 10871.80
411.0618, 10887.71
411.5439, 10907.94
412.0260, 10931.19
412.5081, 10947.87
412.9903, 10954.66
413.4724, 10954.08
413.9545, 10947.19
414.4366, 10933.26
414.9187, 10922.94
415.4008, 10923.32
415.8830, 10924.49
416.3651, 10918.41
416.8472, 10904.60
417.3293, 10883.92
417.8114, 10855.37
418.2935, 10821.88
418.7757, 10799.86
419.2578, 10800.52
419.7399, 10799.03
420.2220, 10800.40
420.7041, 10794.62
421.1862, 10762.89
421.6684, 10706.41
422.1505, 10656.21
422.6326, 10655.34
423.1147, 10709.14
423.5968, 10722.53
424.0789, 10662.86
424.5611, 10602.27
425.0432, 10565.66
425.5253, 10545.87
426.0074, 10532.89
426.4895, 10524.97
426.9716, 10516.65
427.4538, 10501.91
427.9359, 10480.70
428.4180, 10451.74
428.9001, 10406.24
429.3822, 10364.83
429.8643, 10355.83
430.3465, 10375.99
430.8286, 10387.40
431.3107, 10376.28
431.7928, 10354.60
432.2749, 10327.82
432.7570, 10298.89
433.2392, 10280.35
433.7213, 10279.76
434.2034, 10292.71
434.6855, 10306.37
435.1676, 10334.05
435.6497, 10342.53
436.1319, 10316.79
436.6140, 10280.08
437.0961, 10246.95
437.5782, 10221.89
438.0603, 10207.72
438.5424, 10208.80
439.0246, 10223.88
439.5067, 10235.25
439.9888, 10247.49
440.4709, 10248.19
440.9530, 10226.53
441.4352, 10197.04
441.9173, 10174.77
442.3994, 10163.89
442.8815, 10158.18
443.3636, 10152.30
443.8457, 10146.34
444.3279, 10141.82
444.8100, 10140.93
445.2921, 10136.96
445.7742, 10118.06
446.2563, 10091.10
446.7384, 10076.46
447.2206, 10091.46
447.7027, 10106.90
448.1848, 10095.52
448.6669, 10069.35
449.1490, 10063.52
449.6311, 10092.40
450.1133, 10130.60
450.5954, 10138.98
451.0775, 10104.33
451.5596, 10079.21
452.0417, 10067.08
452.5238, 10060.26
453.0060, 10058.31
453.4881, 10058.21
453.9702, 10053.69
454.4523, 10040.73
454.9344, 10024.18
455.4165, 10017.41
455.8987, 10025.07
456.3808, 10029.57
456.8629, 10023.17
457.3450, 10016.72
457.8271, 10020.61
458.3092, 10032.26
458.7914, 10036.11
459.2735, 10015.13
459.7556, 9982.842
460.2377, 9963.645
460.7198, 9957.886
461.2019, 9963.314
461.6841, 9985.124
462.1662, 10012.91
462.6483, 10026.36
463.1304, 10024.05
463.6125, 10013.60
464.0946, 9990.757
464.5768, 9964.590
465.0589, 9941.537
465.5410, 9923.879
466.0231, 9917.582
466.5052, 9929.254
466.9873, 9955.758
467.4695, 9971.184
467.9516, 9970.882
468.4337, 9964.499
468.9158, 9943.438
469.3979, 9922.625
469.8800, 9919.947
470.3622, 9936.127
470.8443, 9951.677
471.3264, 9942.793
471.8085, 9913.384
472.2906, 9902.777
472.7727, 9920.932
473.2549, 9935.833
473.7370, 9919.713
474.2191, 9894.366
474.7012, 9892.194
475.1833, 9928.419
475.6654, 9957.212
476.1476, 9938.930
476.6297, 9894.889
477.1118, 9869.471
477.5939, 9871.077
478.0760, 9879.542
478.5581, 9875.853
479.0403, 9860.299
479.5224, 9859.095
480.0045, 9882.958
480.4866, 9906.104
480.9687, 9925.952
481.4508, 9939.291
481.9330, 9939.199
482.4151, 9925.177
482.8972, 9909.131
483.3793, 9907.575
483.8614, 9922.500
484.3435, 9926.108
484.8257, 9911.302
485.3078, 9894.473
485.7899, 9876.313
486.2720, 9862.161
486.7541, 9861.128
487.2362, 9877.879
487.7183, 9900.313
488.2004, 9919.845
488.6826, 9936.313
489.1647, 9952.438
489.6468, 9971.577
490.1289, 9976.244
490.6110, 9942.763
491.0931, 9872.919
491.5753, 9829.859
492.0574, 9829.805
492.5395, 9837.803
493.0216, 9849.422
493.5037, 9857.301
493.9858, 9843.768
494.4680, 9806.084
494.9501, 9772.247
495.4322, 9784.137
495.9143, 9851.269
496.3964, 9883.623
496.8785, 9851.595
497.3607, 9817.645
497.8428, 9797.288
498.3249, 9788.216
498.8070, 9789.531
499.2891, 9802.838
499.7712, 9813.688
500.2534, 9801.702
500.7355, 9772.750
501.2176, 9756.550
501.6997, 9759.204
502.1818, 9769.385
502.6639, 9784.187
503.1461, 9800.025
503.6282, 9797.157
504.1103, 9753.290
504.5924, 9715.225
505.0745, 9704.348
505.5566, 9709.839
506.0388, 9717.527
506.5209, 9723.452
507.0030, 9730.087
507.4851, 9742.294
507.9672, 9761.288
508.4493, 9761.145
508.9315, 9715.098
509.4136, 9683.572
509.8957, 9691.902
510.3778, 9717.382
510.8599, 9737.413
511.3420, 9746.140
511.8242, 9739.669
512.3063, 9700.730
512.7884, 9641.744
513.2705, 9614.642
513.7526, 9629.209
514.2347, 9650.099
514.7169, 9651.492
515.1990, 9641.606
515.6811, 9652.125
516.1632, 9710.613
516.6453, 9746.266
517.1274, 9715.455
517.6096, 9662.163
518.0917, 9641.157
518.5738, 9656.810
519.0559, 9671.079
519.5380, 9648.232
520.0201, 9594.567
520.5023, 9568.722
520.9844, 9590.442
521.4665, 9607.695
521.9486, 9609.418
522.4307, 9603.877
522.9128, 9597.893
523.3950, 9592.256
523.8771, 9583.679
524.3592, 9564.518
524.8413, 9542.229
525.3234, 9533.912
525.8055, 9540.315
526.2877, 9551.211
526.7698, 9565.204
527.2519, 9577.481
527.7340, 9574.517
528.2161, 9548.894
528.6982, 9532.500
529.1804, 9538.954
529.6625, 9548.712
530.1446, 9542.044
530.6267, 9524.672
531.1088, 9520.917
531.5909, 9547.244
532.0731, 9584.852
532.5552, 9583.234
533.0373, 9527.161
533.5194, 9479.131
534.0015, 9435.719
534.4836, 9413.550
534.9658, 9436.179
535.4479, 9489.687
535.9300, 9529.503
536.4121, 9534.194
536.8942, 9521.591
537.3763, 9503.416
537.8585, 9482.601
538.3406, 9472.706
538.8227, 9478.821
539.3048, 9490.846
539.7869, 9495.224
540.2690, 9489.110
540.7512, 9499.167
541.2333, 9551.803
541.7154, 9589.212
542.1975, 9586.126
542.6796, 9557.743
543.1617, 9519.278
543.6439, 9477.364
544.1260, 9443.055
544.6081, 9433.516
545.0902, 9447.521
545.5723, 9453.793
546.0544, 9447.241
546.5366, 9443.662
547.0187, 9458.413
547.5008, 9478.374
547.9829, 9481.528
548.4650, 9458.569
548.9471, 9443.319
549.4293, 9463.076
549.9114, 9492.903
550.3935, 9500.010
550.8756, 9483.031
551.3577, 9458.697
551.8398, 9436.179
552.3220, 9418.600
552.8041, 9419.228
553.2862, 9461.192
553.7683, 9480.704
554.2504, 9460.122
554.7325, 9430.895
555.2147, 9409.992
555.6968, 9397.879
556.1789, 9389.080
556.6610, 9382.096
557.1431, 9374.830
557.6252, 9361.804
558.1074, 9343.903
558.5895, 9333.691
559.0716, 9337.096
559.5537, 9342.658
560.0358, 9336.072
560.5179, 9316.109
561.0001, 9305.202
561.4822, 9316.939
561.9643, 9322.940
562.4464, 9304.764
562.9285, 9276.402
563.4106, 9257.387
563.8928, 9253.148
564.3749, 9256.364
564.8570, 9260.531
565.3391, 9265.420
565.8212, 9265.382
566.3033, 9258.256
566.7855, 9250.810
567.2676, 9255.112
567.7497, 9255.523
568.2318, 9227.297
568.7139, 9163.300
569.1960, 9115.131
569.6782, 9115.295
570.1603, 9137.839
570.6424, 9159.878
571.1245, 9177.313
571.6066, 9182.410
572.0887, 9170.374
572.5709, 9146.828
573.0530, 9123.520
573.5351, 9096.438
574.0172, 9078.573
574.4993, 9072.771
574.9814, 9072.702
575.4636, 9082.373
575.9457, 9094.468
576.4278, 9095.255
576.9099, 9077.815
577.3920, 9054.043
577.8741, 9029.858
578.3563, 9009.239
578.8384, 9014.557
579.3205, 9053.880
579.8026, 9086.275
580.2847, 9076.955
580.7668, 9033.604
581.2490, 9006.064
581.7311, 9010.610
582.2132, 9006.610
582.6953, 8976.347
583.1774, 8943.711
583.6595, 8932.853
584.1417, 8941.198
584.6238, 8946.955
585.1059, 8934.556
585.5880, 8910.518
586.0701, 8888.953
586.5522, 8869.414
587.0344, 8856.836
587.5165, 8857.137
587.9986, 8858.349
588.4807, 8845.981
588.9628, 8822.969
589.4449, 8806.119
589.9271, 8802.802
590.4092, 8801.283
590.8913, 8798.072
591.3734, 8791.713
591.8555, 8776.586
592.3376, 8753.040
592.8198, 8734.266
593.3019, 8736.252
593.7840, 8756.172
594.2661, 8757.156
594.7482, 8726.182
595.2303, 8702.870
595.7125, 8706.957
596.1946, 8717.542
596.6767, 8717.470
597.1588, 8706.173
597.6409, 8695.155
598.1230, 8685.268
598.6052, 8681.192
599.0873, 8696.271
599.5694, 8722.232
600.0515, 8727.029
600.5336, 8697.984
601.0157, 8663.957
601.4979, 8667.960
601.9800, 8719.568
602.4621, 8741.351
602.9442, 8705.570
603.4263, 8672.228
603.9084, 8658.665
604.3906, 8653.219
604.8727, 8641.268
605.3548, 8620.146
605.8369, 8601.499
606.3190, 8594.268
606.8011, 8594.495
607.2833, 8597.373
607.7654, 8602.063
608.2475, 8601.048
608.7296, 8589.723
609.2117, 8574.500
609.6938, 8567.431
610.1760, 8573.563
610.6581, 8571.462
611.1402, 8550.889
611.6223, 8534.054
612.1044, 8535.723
612.5865, 8544.561
613.0687, 8541.332
613.5508, 8520.467
614.0329, 8499.362
614.5150, 8498.125
614.9971, 8510.493
615.4792, 8516.231
615.9614, 8514.234
616.4435, 8506.065
616.9256, 8489.061
617.4077, 8470.188
617.8898, 8465.609
618.3719, 8483.723
618.8541, 8493.677
619.3362, 8495.438
619.8183, 8487.737
620.3004, 8459.479
620.7825, 8423.859
621.2646, 8407.124
621.7468, 8419.214
622.2289, 8435.366
622.7110, 8418.422
623.1931, 8375.732
623.6752, 8359.884
624.1573, 8379.543
624.6395, 8397.863
625.1216, 8391.366
625.6037, 8372.782
626.0858, 8374.030
626.5679, 8404.430
627.0500, 8424.247
627.5322, 8422.880
628.0143, 8413.871
628.4964, 8399.928
628.9785, 8386.394
629.4606, 8385.583
629.9427, 8402.808
630.4249, 8420.639
630.9070, 8411.881
631.3891, 8378.625
631.8712, 8351.166
632.3533, 8332.059
632.8354, 8315.331
633.3176, 8297.050
633.7997, 8279.507
634.2818, 8267.050
634.7639, 8259.441
635.2460, 8257.306
635.7281, 8265.811
636.2103, 8275.358
636.6924, 8282.125
637.1745, 8284.015
637.6566, 8274.226
638.1387, 8249.883
638.6208, 8227.456
639.1030, 8237.695
639.5851, 8278.881
640.0672, 8295.273
640.5493, 8279.459
641.0314, 8253.836
641.5135, 8219.757
641.9957, 8188.590
642.4778, 8186.574
642.9599, 8226.439
643.4420, 8247.841
643.9241, 8220.936
644.4063, 8187.421
644.8884, 8178.276
645.3705, 8185.481
645.8526, 8185.392
646.3347, 8168.858
646.8168, 8153.053
647.2990, 8168.776
647.7811, 8212.981
648.2632, 8226.642
648.7453, 8200.224
649.2274, 8171.405
649.7095, 8154.879
650.1917, 8148.157
650.6738, 8147.744
651.1559, 8155.260
651.6380, 8160.446
652.1201, 8160.688
652.6022, 8159.040
653.0844, 8153.184
653.5665, 8148.004
654.0486, 8157.605
654.5307, 8184.949
655.0128, 8204.985
655.4949, 8178.653
655.9771, 8114.657
656.4592, 8081.583
656.9413, 8085.057
657.4234, 8091.396
657.9055, 8086.359
658.3876, 8077.991
658.8698, 8078.047
659.3519, 8086.451
659.8340, 8100.799
660.3161, 8139.618
660.7982, 8164.062
661.2803, 8145.880
661.7625, 8106.012
662.2446, 8071.330
662.7267, 8049.785
663.2088, 8037.934
663.6909, 8034.091
664.1730, 8036.961
664.6552, 8041.807
665.1373, 8048.425
665.6194, 8061.442
666.1015, 8085.709
666.5836, 8110.669
667.0657, 8124.827
667.5479, 8127.510
668.0300, 8121.491
668.5121, 8093.728
668.9942, 8073.493
669.4763, 8078.256
669.9584, 8089.200
670.4406, 8084.234
670.9227, 8062.860
671.4048, 8042.767
671.8868, 8036.492
672.3690, 8038.507
672.8511, 8039.581
673.3332, 8039.746
673.8153, 8039.549
674.2974, 8039.316
674.7795, 8037.547
675.2617, 8031.854
675.7438, 8022.941
676.2259, 8019.285
676.7080, 8021.996
677.1901, 8028.551
677.6722, 8040.677
678.1544, 8055.017
678.6365, 8075.068
679.1186, 8095.272
679.6007, 8100.153
680.0828, 8078.387
680.5649, 8048.511
681.0471, 8031.947
681.5292, 8023.235
682.0113, 8002.899
682.4934, 7968.809
682.9755, 7947.602
683.4576, 7960.457
683.9398, 7994.248
684.4219, 8004.978
684.9040, 7958.015
685.3861, 8072.392
685.8682, 8034.269
686.3503, 8008.696
686.8325, 7995.860
687.3146, 7985.443
687.7967, 8009.009
688.2788, 8041.637
688.7609, 8090.165
689.2430, 8006.477
689.7252, 8051.474
690.2073, 8065.717
690.6894, 8051.642
691.1715, 8032.574
691.6536, 8018.827
692.1357, 8008.696
692.6179, 7997.349
693.1000, 7982.845
693.5821, 7990.301
694.0642, 8032.350
694.5463, 8072.010
695.0284, 8098.530
695.5106, 8113.183
695.9927, 8115.298
696.4748, 8104.577
696.9569, 8091.631
697.4390, 8073.031
697.9211, 8059.506
698.4033, 8057.932
698.8854, 8065.915
699.3675, 8080.150
699.8496, 8099.452
700.3317, 8124.013
700.8138, 8157.730
701.2960, 8193.867
701.7781, 8206.399
702.2602, 8193.250
702.7423, 8184.009
703.2244, 8186.883
703.7065, 8193.087
704.1887, 8195.259
704.6708, 8193.542
705.1529, 8190.375
705.6350, 8179.492
706.1171, 8175.799
706.5992, 8184.767
707.0814, 8199.318
707.5635, 8213.634
708.0456, 8228.512
708.5277, 8251.352
709.0098, 8289.980
709.4919, 8319.942
709.9741, 8296.402
710.4562, 8242.876
710.9383, 8236.695
711.4204, 8284.154
711.9025, 8325.442
712.3846, 8324.401
712.8668, 8301.838
713.3489, 8303.517
713.8310, 8334.270
714.3131, 8374.293
714.7952, 8446.600
715.2773, 8500.485
715.7595, 8501.579
716.2416, 8484.167
716.7237, 8492.274
717.2058, 8532.664
717.6879, 8573.016
718.1700, 8591.549
718.6522, 8609.545
719.1343, 8650.631
719.6164, 8705.237
720.0985, 8754.573
720.5806, 8792.299
721.0627, 8813.258
721.5449, 8803.898
722.0270, 8778.258
722.5091, 8812.790
722.9912, 8922.498
723.4733, 9008.803
723.9554, 9041.492
724.4376, 9058.470
724.9197, 9092.765
725.4018, 9141.366
725.8839, 9181.430
726.3660, 9204.458
726.8481, 9230.090
727.3303, 9254.824
727.8124, 9289.523
728.2945, 9348.087
728.7766, 9423.446
729.2587, 9497.105
729.7408, 9560.591
730.2230, 9621.145
730.7051, 9687.411
731.1872, 9756.648
731.6693, 9816.167
732.1514, 9867.098
732.6335, 9936.528
733.1157, 10039.43
733.5978, 10159.87
734.0799, 10272.57
734.5620, 10377.83
735.0441, 10472.85
735.5262, 10549.36
736.0084, 10627.86
736.4905, 10700.13
736.9726, 10786.91
737.4547, 10921.00
737.9368, 11098.97
738.4189, 11255.76
738.9011, 11337.94
739.3832, 11429.04
739.8653, 11593.94
740.3474, 11792.64
740.8295, 11967.40
741.3116, 12112.14
741.7938, 12254.16
742.2759, 12408.21
742.7580, 12581.64
743.2401, 12799.09
743.7222, 13058.00
744.2043, 13299.09
744.6865, 13511.85
745.1686, 13725.72
745.6507, 13959.64
746.1328, 14209.53
746.6149, 14461.23
747.0970, 14707.23
747.5792, 14977.43
748.0613, 15291.15
748.5434, 15606.87
749.0255, 15912.65
749.5076, 16210.18
749.9897, 16489.59
750.4719, 16751.08
750.9540, 17048.45
751.4361, 17447.47
751.9182, 17866.32
752.4003, 18214.66
752.8824, 18514.38
753.3646, 18813.53
753.8467, 19126.11
754.3288, 19457.18
754.8109, 19818.39
755.2930, 20191.02
755.7751, 20498.42
756.2573, 20728.87
756.7394, 20991.76
757.2215, 21330.52
757.7036, 21651.87
758.1857, 21885.00
758.6678, 22051.60
759.1500, 22232.73
759.6321, 22455.18
760.1142, 22635.88
760.5963, 22757.49
761.0784, 22847.68
761.5605, 22928.58
762.0427, 22985.82
762.5248, 22992.94
763.0069, 22943.84
763.4890, 22865.69
763.9711, 22778.85
764.4532, 22672.38
764.9354, 22532.84
765.4175, 22361.00
765.8996, 22152.27
766.3817, 21908.82
766.8638, 21660.05
767.3459, 21439.13
767.8281, 21232.84
768.3102, 20975.71
768.7923, 20661.77
769.2744, 20334.10
769.7565, 20000.99
770.2386, 19656.24
770.7208, 19285.34
771.2029, 18900.24
771.6850, 18534.76
772.1671, 18204.11
772.6492, 17862.22
773.1313, 17489.03
773.6135, 17120.85
774.0956, 16779.01
774.5777, 16452.76
775.0598, 16122.43
775.5419, 15783.18
776.0240, 15455.56
776.5062, 15163.01
776.9883, 14881.04
777.4704, 14570.95
777.9525, 14245.96
778.4346, 13942.89
778.9167, 13672.68
779.3989, 13427.61
779.8810, 13206.97
780.3631, 13002.96
780.8452, 12783.96
781.3273, 12546.24
781.8094, 12326.38
782.2916, 12130.02
782.7737, 11949.12
783.2558, 11779.88
783.7379, 11622.04
784.2200, 11476.00
784.7021, 11350.64
785.1843, 11212.99
785.6664, 11033.31
786.1485, 10873.43
786.6306, 10774.65
787.1127, 10701.88
787.5948, 10607.04
788.0770, 10484.59
788.5591, 10369.99
789.0412, 10282.56
789.5233, 10210.55
790.0054, 10155.93
790.4875, 10103.65
790.9697, 10017.82
791.4518, 9898.847
791.9339, 9781.491
792.4160, 9687.806
792.8981, 9616.197
793.3802, 9569.990
793.8624, 9548.228
794.3445, 9512.300
794.8266, 9457.117
795.3087, 9400.147
795.7908, 9350.835
796.2729, 9303.327
796.7551, 9248.209
797.2372, 9184.662
797.7193, 9117.849
798.2014, 9043.249
798.6835, 8971.509
799.1656, 8900.813
799.6478, 8837.170
800.1299, 8787.357
800.6120, 8749.773
801.0941, 8714.634
801.5762, 8685.143
802.0583, 8647.944
802.5405, 8585.710
803.0226, 8519.390
803.5047, 8471.886
803.9868, 8440.932
804.4689, 8413.052
804.9510, 8382.429
805.4332, 8351.814
805.9153, 8327.390
806.3974, 8304.893
806.8795, 8266.228
807.3616, 8213.804
807.8438, 8181.558
808.3259, 8182.514
808.8080, 8185.695
809.2901, 8156.781
809.7722, 8101.014
810.2543, 8060.492
810.7365, 8039.921
811.2186, 8020.921
811.7007, 8003.272
812.1828, 7983.646
812.6649, 7958.234
813.1470, 7929.621
813.6292, 7902.785
814.1113, 7874.929
814.5934, 7857.812
815.0755, 7865.151
815.5576, 7870.369
816.0397, 7861.201
816.5219, 7841.530
817.0040, 7811.944
817.4861, 7775.652
817.9682, 7750.182
818.4503, 7757.658
818.9324, 7765.979
819.4146, 7732.950
819.8967, 7683.093
820.3788, 7665.384
820.8609, 7680.286
821.3430, 7693.201
821.8251, 7684.161
822.3073, 7661.915
822.7894, 7637.975
823.2715, 7613.017
823.7536, 7591.417
824.2357, 7573.042
824.7178, 7563.365
825.2000, 7567.274
825.6821, 7571.922
826.1642, 7560.644
826.6463, 7533.775
827.1284, 7510.891
827.6105, 7494.016
828.0927, 7477.303
828.5748, 7458.981
829.0569, 7441.466
829.5390, 7427.545
830.0211, 7415.251
830.5032, 7399.317
830.9854, 7376.839
831.4675, 7357.762
831.9496, 7344.341
832.4317, 7335.090
832.9138, 7330.897
833.3959, 7329.326
833.8781, 7327.858
834.3602, 7325.624
834.8423, 7321.541
835.3244, 7316.104
835.8065, 7307.069
836.2886, 7287.177
836.7708, 7263.705
837.2529, 7251.554
837.7350, 7251.226
838.2171, 7254.793
838.6992, 7258.290
839.1813, 7257.692
839.6635, 7244.014
840.1456, 7219.404
840.6277, 7197.382
841.1098, 7177.779
841.5919, 7174.391
842.0740, 7196.464
842.5562, 7218.549
843.0383, 7211.090
843.5204, 7177.277
844.0025, 7152.928
844.4846, 7143.032
844.9667, 7130.468
845.4489, 7107.188
845.9310, 7088.396
846.4131, 7086.745
846.8952, 7094.728
847.3773, 7099.571
847.8594, 7101.679
848.3416, 7097.409
848.8237, 7076.154
849.3058, 7060.299
849.7879, 7060.709
850.2700, 7070.676
850.7521, 7089.028
851.2343, 7110.771
851.7164, 7117.764
852.1985, 7097.011
852.6806, 7068.997
853.1627, 7036.642
853.6448, 7013.529
854.1270, 7025.990
854.6091, 7062.990
855.0912, 7092.360
855.5733, 7100.898
856.0554, 7090.708
856.5375, 7049.965
857.0197, 6997.631
857.5018, 6983.195
857.9839, 7001.899
858.4660, 7032.035
858.9481, 7068.411
859.4302, 7092.913
859.9124, 7090.392
860.3945, 7070.597
860.8766, 7058.416
861.3587, 7053.983
861.8408, 7057.651
862.3229, 7072.546
862.8051, 7085.332
863.2872, 7089.905
863.7693, 7090.662
864.2514, 7095.386
864.7335, 7104.799
865.2156, 7098.233
865.6978, 7056.788
866.1799, 7028.356
866.6620, 7026.213
867.1441, 7030.494
867.6262, 7026.894
868.1083, 7021.333
868.5905, 7028.737
869.0726, 7054.728
869.5547, 7078.526
870.0368, 7096.269
870.5189, 7108.416
871.0010, 7113.682
871.4832, 7114.390
871.9653, 7110.438
872.4474, 7103.980
872.9295, 7103.388
873.4116, 7114.369
873.8937, 7129.222
874.3759, 7151.119
874.8580, 7167.314
875.3401, 7153.530
875.8222, 7118.395
876.3043, 7089.992
876.7864, 7078.938
877.2686, 7078.364
877.7507, 7081.903
878.2328, 7090.391
878.7149, 7112.366
879.1970, 7142.198
879.6791, 7149.955
880.1613, 7130.840
880.6434, 7110.642
881.1255, 7106.076
881.6076, 7114.804
882.0897, 7135.420
882.5718, 7168.277
883.0540, 7192.951
883.5361, 7207.395
884.0182, 7224.445
884.5003, 7251.862
884.9824, 7273.362
885.4645, 7264.322
885.9467, 7232.373
886.4288, 7247.162
886.9109, 7341.776
887.3930, 7407.474
887.8751, 7419.791
888.3572, 7424.283
888.8394, 7442.915
889.3215, 7468.701
889.8036, 7488.039
890.2857, 7498.475
890.7678, 7521.199
891.2499, 7567.013
891.7321, 7612.791
892.2142, 7654.200
892.6963, 7691.534
893.1784, 7722.083
893.6605, 7749.417
894.1426, 7785.323
894.6248, 7838.707
895.1069, 7876.727
895.5890, 7872.366
896.0711, 7861.143
896.5532, 7858.706
897.0353, 7870.854
897.5175, 7909.135
897.9996, 7970.279
898.4817, 8032.398
898.9638, 8088.241
899.4459, 8129.844
899.9280, 8141.888
900.4102, 8139.809
900.8923, 8149.986
901.3744, 8167.012
901.8565, 8164.248
902.3386, 8133.767
902.8207, 8101.340
903.3029, 8096.472
903.7850, 8102.729
904.2671, 8084.842
904.7492, 8048.389
905.2313, 8014.041
905.7134, 7985.072
906.1956, 7958.639
906.6777, 7933.576
907.1598, 7906.543
907.6419, 7866.775
908.1240, 7817.363
908.6061, 7798.125
909.0883, 7811.455
909.5704, 7803.908
910.0525, 7759.152
910.5346, 7701.566
911.0167, 7649.774
911.4988, 7603.479
911.9810, 7561.141
912.4631, 7521.488
912.9452, 7493.371
913.4273, 7483.127
913.9094, 7467.017
914.3915, 7432.508
914.8737, 7392.989
915.3558, 7363.947
915.8379, 7344.657
916.3200, 7323.518
916.8021, 7298.856
917.2842, 7275.186
917.7664, 7252.521
918.2484, 7231.269
918.7305, 7213.908
919.2126, 7197.060
919.6948, 7174.546
920.1769, 7145.401
920.6590, 7120.404
921.1411, 7099.285
921.6232, 7084.205
922.1053, 7071.683
922.5875, 7069.099
923.0696, 7092.328
923.5517, 7127.310
924.0338, 7142.507
924.5159, 7130.036
924.9980, 7109.840
925.4802, 7075.920
925.9623, 7050.377
926.4444, 7051.915
926.9265, 7063.804
927.4086, 7065.857
927.8907, 7059.569
928.3729, 7061.175
928.8550, 7080.501
929.3371, 7095.301
929.8192, 7088.480
930.3013, 7073.673
930.7834, 7058.712
931.2656, 7047.419
931.7477, 7047.713
932.2298, 7058.477
932.7119, 7065.315
933.1940, 7057.097
933.6761, 7047.623
934.1583, 7056.930
934.6404, 7070.877
935.1225, 7062.254
935.6046, 7038.373
936.0867, 7030.489
936.5688, 7045.836
937.0510, 7051.773
937.5331, 7011.164
938.0152, 6956.858
938.4973, 6952.333
938.9794, 6977.748
939.4615, 6978.878
939.9437, 6952.251
940.4258, 6917.626
940.9079, 6883.898
941.3900, 6851.039
941.8721, 6815.690
942.3542, 6783.174
942.8364, 6778.262
943.3185, 6795.221
943.8006, 6794.881
944.2827, 6770.953
944.7648, 6730.728
945.2469, 6676.346
945.7291, 6626.086
946.2112, 6618.513
946.6933, 6645.915
947.1754, 6627.955
947.6575, 6562.551
948.1396, 6520.377
948.6218, 6520.756
949.1039, 6513.936
949.5860, 6459.913
950.0681, 6386.741
950.5502, 6361.675
951.0323, 6389.553
951.5145, 6405.293
951.9966, 6408.445
952.4787, 6400.523
952.9608, 6379.242
953.4429, 6355.542
953.9250, 6339.334
954.4072, 6327.619
954.8893, 6309.555
955.3714, 6282.880
955.8535, 6257.587
956.3356, 6229.109
956.8177, 6216.380
957.2999, 6237.074
957.7820, 6256.955
958.2641, 6235.779
958.7462, 6183.698
959.2283, 6160.390
959.7104, 6180.753
960.1926, 6195.890
960.6747, 6213.673
961.1568, 6210.111
961.6389, 6161.039
962.1210, 6100.269
962.6031, 6066.310
963.0853, 6057.761
963.5674, 6052.118
964.0495, 6043.721
964.5316, 6048.147
965.0137, 6087.235
965.4958, 6113.624
965.9780, 6097.863
966.4601, 6063.930
966.9422, 6040.633
967.4243, 6028.005
967.9064, 6016.406
968.3885, 6001.875
968.8707, 5993.727
969.3528, 6001.957
969.8349, 6006.925
970.3170, 5989.117
970.7991, 5966.621
971.2813, 5972.654
971.7634, 6010.147
972.2455, 6023.542
972.7276, 5981.238
973.2097, 5949.848
973.6918, 5950.925
974.1740, 5958.556
974.6561, 5956.249
975.1382, 5949.487
975.6203, 5953.020
976.1024, 5969.597
976.5845, 5966.201
977.0667, 5917.068
977.5488, 5873.203
978.0309, 5844.695
978.5130, 5831.433
978.9951, 5847.651
979.4772, 5873.568
979.9594, 5868.912
980.4415, 5825.209
980.9236, 5792.701
981.4057, 5795.613
981.8878, 5798.548
982.3699, 5782.371
982.8521, 5766.068
983.3342, 5770.019
983.8163, 5784.742
984.2984, 5785.514
984.7805, 5765.917
985.2626, 5757.015
985.7448, 5782.311
986.2269, 5804.387
986.7090, 5805.804
987.1911, 5797.254
987.6732, 5786.148
988.1553, 5773.819
988.6375, 5759.756
989.1196, 5743.362
989.6017, 5731.479
990.0838, 5730.175
990.5659, 5729.763
991.0480, 5725.575
991.5302, 5719.695
992.0123, 5712.998
992.4944, 5706.667
992.9765, 5704.692
993.4586, 5709.066
993.9407, 5705.588
994.4229, 5675.292
994.9050, 5651.027
995.3871, 5661.340
995.8692, 5678.429
996.3513, 5669.046
996.8334, 5643.290
997.3156, 5633.473
997.7977, 5649.429
998.2798, 5666.855
998.7619, 5679.192
999.2440, 5684.740
999.7261, 5683.575
1000.208, 5674.227
1000.690, 5641.313
1001.172, 5601.775
1001.655, 5603.866
1002.137, 5665.394
1002.619, 5704.158
1003.101, 5666.249
1003.583, 5614.632
1004.065, 5573.214
1004.547, 5545.230
1005.029, 5534.455
1005.512, 5538.585
1005.994, 5556.567
1006.476, 5589.829
1006.958, 5610.991
1007.440, 5597.341
1007.922, 5580.708
1008.404, 5580.097
1008.886, 5583.892
1009.368, 5577.605
1009.851, 5566.479
1010.333, 5568.891
1010.815, 5590.665
1011.297, 5599.659
1011.779, 5567.561
1012.261, 5537.285
1012.743, 5534.484
1013.225, 5540.511
1013.708, 5538.276
1014.190, 5530.287
1014.672, 5526.968
1015.154, 5530.985
1015.636, 5529.731
1016.118, 5507.266
1016.600, 5492.712
1017.082, 5514.115
1017.564, 5535.760
1018.047, 5519.006
1018.529, 5481.541
1019.011, 5463.277
1019.493, 5472.121
1019.975, 5480.375
1020.457, 5479.457
1020.939, 5475.434
1021.421, 5468.427
1021.904, 5461.334
1022.386, 5454.060
1022.868, 5449.201
1023.350, 5454.537
1023.832, 5470.888
1024.314, 5475.095
1024.796, 5441.597
1025.278, 5422.099
1025.760, 5448.815
1026.243, 5477.421
1026.725, 5472.305
1027.207, 5452.264
1027.689, 5449.897
1028.171, 5467.920
1028.653, 5480.045
1029.135, 5485.376
1029.617, 5478.068
1030.099, 5440.451
1030.582, 5407.983
1031.064, 5407.817
1031.546, 5420.182
1032.028, 5417.980
1032.510, 5400.496
1032.992, 5383.983
1033.474, 5363.622
1033.956, 5354.622
1034.439, 5373.811
1034.921, 5386.771
1035.403, 5368.126
1035.885, 5342.261
1036.367, 5337.504
1036.849, 5352.233
1037.331, 5367.944
1037.813, 5393.125
1038.296, 5403.492
1038.778, 5389.748
1039.260, 5373.384
1039.742, 5361.238
1040.224, 5349.229
1040.706, 5328.977
1041.188, 5305.358
1041.670, 5301.605
1042.152, 5331.048
1042.635, 5345.782
1043.117, 5336.970
1043.599, 5329.109
1044.081, 5325.597
1044.563, 5330.904
1045.045, 5355.936
1045.527, 5388.602
1046.009, 5392.476
1046.491, 5360.424
1046.974, 5333.591
1047.456, 5307.671
1047.938, 5301.233
1048.420, 5327.106
1048.902, 5352.660
1049.384, 5355.274
1049.866, 5343.075
1050.348, 5331.889
1050.830, 5321.699
1051.313, 5312.142
1051.795, 5301.830
1052.277, 5302.284
1052.759, 5319.347
1053.241, 5327.176
1053.723, 5308.895
1054.205, 5281.300
1054.687, 5269.370
1055.170, 5271.550
1055.652, 5277.277
1056.134, 5286.625
1056.616, 5295.454
1057.098, 5303.640
1057.580, 5296.205
1058.062, 5264.639
1058.544, 5237.670
1059.026, 5252.872
1059.509, 5290.037
1059.991, 5278.332
1060.473, 5229.093
1060.955, 5218.842
1061.437, 5248.934
1061.919, 5270.292
1062.401, 5266.496
1062.883, 5253.934
1063.365, 5244.510
1063.848, 5240.808
1064.330, 5254.538
1064.812, 5275.330
1065.294, 5269.406
1065.776, 5244.640
1066.258, 5236.356
1066.740, 5250.421
1067.222, 5265.339
1067.705, 5268.523
1068.187, 5264.262
1068.669, 5252.969
1069.151, 5240.824
1069.633, 5240.942
1070.115, 5245.646
1070.597, 5237.145
1071.079, 5216.863
1071.562, 5200.880
1072.044, 5196.167
1072.526, 5193.472
1073.008, 5185.758
1073.490, 5177.076
1073.972, 5166.877
1074.454, 5160.824
1074.936, 5168.552
1075.418, 5185.411
1075.901, 5200.629
1076.383, 5211.242
1076.865, 5217.229
1077.347, 5211.877
1077.829, 5210.933
1078.311, 5231.389
1078.793, 5249.715
1079.275, 5242.625
1079.757, 5224.093
1080.240, 5218.313
1080.722, 5226.014
1081.204, 5226.216
1081.686, 5211.755
1082.168, 5194.131
1082.650, 5165.842
1083.132, 5146.620
1083.614, 5153.743
1084.097, 5167.443
1084.579, 5165.842
1085.061, 5153.057
1085.543, 5149.852
1086.025, 5162.756
1086.507, 5166.449
1086.989, 5157.677
1087.471, 5144.563
1087.953, 5121.167
1088.436, 5106.521
1088.918, 5116.768
1089.400, 5141.137
1089.882, 5160.035
1090.364, 5173.683
1090.846, 5172.682
1091.328, 5152.989
1091.810, 5137.350
1092.292, 5128.555
1092.775, 5126.817
1093.257, 5133.395
1093.739, 5142.881
1094.221, 5150.335
1094.703, 5153.183
1095.185, 5135.298
1095.667, 5099.550
1096.149, 5091.651
1096.632, 5112.422
1097.114, 5117.503
1097.596, 5094.006
1098.078, 5083.613
1098.560, 5123.027
1099.042, 5173.164
1099.524, 5161.943
1100.006, 5115.372
1100.489, 5092.931
1100.971, 5091.685
1101.453, 5100.804
1101.935, 5115.417
1102.417, 5128.325
1102.899, 5136.279
1103.381, 5135.457
1103.863, 5114.833
1104.345, 5091.326
1104.828, 5085.241
1105.310, 5085.676
1105.792, 5074.060
1106.274, 5057.571
1106.756, 5059.026
1107.238, 5081.789
1107.720, 5099.058
1108.202, 5095.579
1108.684, 5088.486
1109.167, 5081.141
1109.649, 5077.807
1110.131, 5091.151
1110.613, 5103.504
1111.095, 5085.160
1111.577, 5043.495
1112.059, 5023.076
1112.541, 5037.993
1113.024, 5051.846
1113.506, 5068.997
1113.988, 5073.087
1114.470, 5048.004
1114.952, 5023.102
1115.434, 5019.087
1115.916, 5027.640
1116.398, 5032.281
1116.880, 5032.571
1117.363, 5044.353
1117.845, 5076.308
1118.327, 5082.512
1118.809, 5048.830
1119.291, 5028.227
1119.773, 5047.044
1120.255, 5073.910
1120.737, 5075.316
1121.219, 5057.930
1121.702, 5039.171
1122.184, 5019.801
1122.666, 5005.042
1123.148, 4996.467
1123.630, 5011.565
1124.112, 5051.130
1124.594, 5077.900
1125.076, 5067.614
1125.559, 5045.010
1126.041, 5037.505
1126.523, 5040.863
1127.005, 5053.936
1127.487, 5069.365
1127.969, 5074.165
1128.451, 5067.829
1128.933, 5051.060
1129.416, 5025.609
1129.898, 5006.936
1130.380, 5005.637
1130.862, 5011.340
1131.344, 5023.166
1131.826, 5033.296
1132.308, 5036.541
1132.790, 5033.365
1133.272, 5021.711
1133.755, 5004.470
1134.237, 4992.835
1134.719, 4989.815
1135.201, 4989.642
1135.683, 4990.104
1136.165, 4995.095
1136.647, 5014.655
1137.129, 5029.189
1137.611, 5026.417
1138.094, 5011.022
1138.576, 4985.560
1139.058, 4951.087
1139.540, 4952.801
1140.022, 5003.769
1140.504, 5032.278
1140.986, 5030.860
1141.468, 5011.596
1141.951, 4975.192
1142.433, 4945.997
1142.915, 4946.607
1143.397, 4964.783
1143.879, 4980.009
1144.361, 4989.480
1144.843, 4972.532
1145.325, 4936.970
1145.807, 4921.521
1146.290, 4929.418
1146.772, 4936.353
1147.254, 4931.700
1147.736, 4930.497
1148.218, 4953.322
1148.700, 4976.567
1149.182, 4971.830
1149.664, 4954.087
1150.146, 4937.505
1150.629, 4924.564
1151.111, 4918.076
1151.593, 4916.921
1152.075, 4912.750
1152.557, 4898.708
1153.039, 4894.645
1153.521, 4917.871
1154.003, 4938.821
1154.486, 4946.661
1154.968, 4945.941
1155.450, 4936.554
1155.932, 4923.139
1156.414, 4913.835
1156.896, 4908.610
1157.378, 4908.903
1157.860, 4920.999
1158.343, 4918.583
1158.825, 4893.952
1159.307, 4874.381
1159.789, 4870.689
1160.271, 4870.518
1160.753, 4861.882
1161.235, 4852.633
1161.717, 4864.380
1162.199, 4892.241
1162.682, 4903.902
1163.164, 4902.439
1163.646, 4907.553
1164.128, 4919.866
1164.610, 4920.924
1165.092, 4903.862
1165.574, 4887.865
1166.056, 4891.083
1166.538, 4899.685
1167.021, 4897.427
1167.503, 4893.389
1167.985, 4899.253
1168.467, 4910.249
1168.949, 4920.125
1169.431, 4926.357
1169.913, 4923.864
1170.395, 4908.536
1170.878, 4897.707
1171.360, 4910.378
1171.842, 4908.467
1172.324, 4857.292
1172.806, 4813.525
1173.288, 4817.746
1173.770, 4844.753
1174.252, 4865.353
1174.734, 4878.796
1175.217, 4876.497
1175.699, 4851.253
1176.181, 4850.425
1176.663, 4880.711
1177.145, 4893.098
1177.627, 4873.217
1178.109, 4858.703
1178.591, 4875.028
1179.073, 4896.651
1179.556, 4883.657
1180.038, 4852.694
1180.520, 4848.222
1181.002, 4858.198
1181.484, 4847.732
1181.966, 4824.727
1182.448, 4824.109
1182.930, 4851.244
1183.413, 4880.904
1183.895, 4903.068
1184.377, 4914.358
1184.859, 4905.058
1185.341, 4893.174
1185.823, 4897.740
1186.305, 4898.579
1186.787, 4862.216
1187.270, 4812.806
1187.752, 4805.849
1188.234, 4847.365
1188.716, 4874.868
1189.198, 4887.486
1189.680, 4883.368
1190.162, 4850.651
1190.644, 4832.030
1191.126, 4843.928
1191.609, 4864.973
1192.091, 4881.359
1192.573, 4888.142
1193.055, 4871.213
1193.537, 4837.755
1194.019, 4823.056
1194.501, 4825.159
1194.983, 4842.042
1195.465, 4867.451
1195.948, 4874.919
1196.430, 4858.305
1196.912, 4838.465
1197.394, 4826.959
1197.876, 4823.557
1198.358, 4830.364
1198.840, 4842.812
1199.322, 4870.616
1199.805, 4890.619
1200.287, 4865.432
1200.769, 4816.069
1201.251, 4794.176
1201.733, 4807.142
1202.215, 4814.980
1202.697, 4803.547
1203.179, 4803.890
1203.661, 4826.114
1204.144, 4841.686
1204.626, 4838.715
1205.108, 4834.346
1205.590, 4842.846
1206.072, 4855.356
1206.554, 4854.155
1207.036, 4842.245
1207.518, 4837.811
1208.000, 4839.005
1208.483, 4834.548
1208.965, 4824.121
1209.447, 4810.326
1209.929, 4795.408
1210.411, 4789.985
1210.893, 4802.502
1211.375, 4815.995
1211.857, 4812.139
1212.340, 4807.136
1212.822, 4814.335
1213.304, 4827.827
1213.786, 4849.063
1214.268, 4867.872
1214.750, 4859.889
1215.232, 4824.954
1215.714, 4812.822
1216.197, 4852.754
1216.679, 4864.820
1217.161, 4831.277
1217.643, 4811.189
1218.125, 4823.600
1218.607, 4839.258
1219.089, 4840.236
1219.571, 4832.282
1220.053, 4822.375
1220.536, 4812.002
1221.018, 4806.658
1221.500, 4804.973
1221.982, 4800.288
1222.464, 4794.344
1222.946, 4795.095
1223.428, 4803.240
1223.910, 4813.502
1224.392, 4823.791
1224.875, 4831.296
1225.357, 4834.955
##END=



