##NAMES=Katayamalite
##RRUFFID=R070147
##IDEAL CHEMISTRY=KLi_3_Ca_7_Ti^4+^_2_(SiO_3_)_12_(OH)_2_
##LOCALITY=Dara-i-Pioz, Hait, Alayskiy (Alay; Alai) Range, South Tien-Shan Mts., Tajikistan
##OWNER=RRUFF
##SOURCE=Michael Scott
##DESCRIPTION=Light tan colored platy massive
##STATUS=The identification of this mineral is confirmed by single-crystal X-ray diffraction and chemical analysis.
##URL=rruff.info/R070147
##MEASURED CHEMISTRY=(K_0.90_Na_0.07_)Li_3.08_(Ca_6.89_Mn_0.02_Ba_0.02_)(Ti_1.67_Zr_0.17_Sn_0.13_Fe_0.06_Al_0.01_)(SiO_3_)_12_(OH_1.05_F_0.95_)
194.5915, 7428.452
195.0736, 7460.811
195.5557, 7494.289
196.0378, 7515.824
196.5199, 7513.240
197.0020, 7516.999
197.4842, 7542.973
197.9663, 7584.702
198.4484, 7628.826
198.9305, 7667.355
199.4126, 7702.295
199.8947, 7743.688
200.3769, 7797.072
200.8590, 7848.120
201.3411, 7884.885
201.8232, 7916.660
202.3053, 7959.386
202.7874, 8026.217
203.2696, 8107.245
203.7517, 8171.474
204.2338, 8215.418
204.7159, 8246.918
205.1980, 8260.728
205.6801, 8268.353
206.1623, 8285.812
206.6444, 8322.371
207.1265, 8370.420
207.6086, 8410.918
208.0907, 8439.889
208.5728, 8469.285
209.0549, 8496.280
209.5371, 8527.959
210.0192, 8574.400
210.5013, 8641.565
210.9834, 8718.556
211.4655, 8784.291
211.9476, 8835.607
212.4298, 8882.282
212.9119, 8922.178
213.3940, 8961.303
213.8761, 9006.553
214.3582, 9060.705
214.8403, 9115.041
215.3225, 9152.839
215.8046, 9166.945
216.2867, 9187.405
216.7688, 9237.454
217.2509, 9285.629
217.7330, 9310.691
218.2152, 9307.414
218.6973, 9281.851
219.1794, 9241.167
219.6615, 9185.938
220.1436, 9112.688
220.6257, 8999.569
221.1079, 8883.078
221.5900, 8783.759
222.0721, 8704.242
222.5542, 8631.604
223.0363, 8552.138
223.5184, 8464.131
224.0006, 8381.349
224.4827, 8306.246
224.9648, 8235.477
225.4469, 8166.847
225.9290, 8100.898
226.4111, 8038.633
226.8933, 7981.084
227.3754, 7928.227
227.8575, 7882.600
228.3396, 7855.082
228.8217, 7823.188
229.3038, 7763.386
229.7860, 7687.996
230.2681, 7632.891
230.7502, 7636.854
231.2323, 7689.607
231.7144, 7706.950
232.1965, 7664.424
232.6787, 7617.980
233.1608, 7590.935
233.6429, 7578.021
234.1250, 7568.069
234.6071, 7553.621
235.0892, 7538.085
235.5714, 7534.073
236.0535, 7547.732
236.5356, 7561.515
237.0177, 7565.534
237.4998, 7566.348
237.9819, 7572.732
238.4641, 7589.025
238.9462, 7611.633
239.4283, 7633.112
239.9104, 7651.115
240.3925, 7674.909
240.8746, 7719.758
241.3568, 7766.223
241.8389, 7792.416
242.3210, 7788.334
242.8031, 7777.834
243.2852, 7794.044
243.7673, 7841.414
244.2495, 7888.322
244.7316, 7922.656
245.2137, 7955.307
245.6958, 7999.073
246.1779, 8056.688
246.6600, 8107.110
247.1422, 8122.346
247.6243, 8102.964
248.1064, 8101.579
248.5885, 8141.017
249.0706, 8189.850
249.5527, 8223.245
250.0349, 8241.271
250.5170, 8258.180
250.9991, 8284.386
251.4812, 8318.055
251.9633, 8348.065
252.4454, 8367.678
252.9276, 8392.900
253.4097, 8440.190
253.8918, 8503.785
254.3739, 8562.521
254.8560, 8606.937
255.3382, 8639.441
255.8203, 8663.444
256.3024, 8676.315
256.7845, 8688.602
257.2666, 8707.389
257.7487, 8730.616
258.2308, 8755.803
258.7130, 8791.790
259.1951, 8822.989
259.6772, 8827.223
260.1593, 8802.709
260.6414, 8769.051
261.1235, 8732.224
261.6057, 8694.051
262.0878, 8657.650
262.5699, 8626.030
263.0520, 8592.583
263.5341, 8555.787
264.0162, 8514.563
264.4984, 8455.405
264.9805, 8359.298
265.4626, 8255.764
265.9447, 8196.702
266.4268, 8194.333
266.9089, 8192.170
267.3911, 8159.949
267.8732, 8107.143
268.3553, 8057.538
268.8374, 8018.000
269.3195, 7982.250
269.8016, 7939.363
270.2838, 7888.952
270.7659, 7844.524
271.2480, 7810.766
271.7301, 7784.511
272.2122, 7759.548
272.6943, 7734.371
273.1765, 7718.471
273.6586, 7726.842
274.1407, 7760.217
274.6228, 7774.377
275.1049, 7751.018
275.5870, 7719.721
276.0692, 7700.756
276.5513, 7694.922
277.0334, 7697.225
277.5155, 7705.811
277.9976, 7719.891
278.4797, 7731.389
278.9619, 7739.003
279.4440, 7745.777
279.9261, 7751.374
280.4082, 7757.060
280.8903, 7765.560
281.3724, 7778.357
281.8546, 7794.418
282.3367, 7810.906
282.8188, 7832.124
283.3009, 7847.763
283.7830, 7850.982
284.2651, 7850.270
284.7473, 7857.526
285.2294, 7875.889
285.7115, 7895.564
286.1936, 7899.499
286.6757, 7868.930
287.1578, 7868.146
287.6400, 7924.688
288.1221, 7987.662
288.6042, 8021.233
289.0863, 8024.631
289.5684, 8020.723
290.0505, 8031.096
290.5327, 8056.880
291.0148, 8086.233
291.4969, 8123.509
291.9790, 8159.839
292.4611, 8194.396
292.9432, 8225.530
293.4254, 8250.109
293.9075, 8265.256
294.3896, 8273.751
294.8717, 8289.903
295.3538, 8326.572
295.8359, 8353.276
296.3181, 8363.625
296.8002, 8363.037
297.2823, 8355.899
297.7644, 8343.907
298.2465, 8328.909
298.7286, 8315.033
299.2108, 8305.220
299.6929, 8287.854
300.1750, 8251.588
300.6571, 8215.236
301.1392, 8191.645
301.6213, 8181.117
302.1035, 8173.994
302.5856, 8165.602
303.0677, 8156.264
303.5498, 8126.602
304.0319, 8055.558
304.5140, 7988.455
304.9962, 7951.730
305.4783, 7936.598
305.9604, 7920.061
306.4425, 7885.614
306.9246, 7842.754
307.4067, 7819.136
307.8889, 7824.469
308.3710, 7821.362
308.8531, 7776.798
309.3352, 7718.094
309.8173, 7677.688
310.2994, 7666.666
310.7816, 7668.446
311.2637, 7671.625
311.7458, 7675.608
312.2279, 7667.649
312.7100, 7636.129
313.1921, 7597.681
313.6743, 7575.228
314.1564, 7570.688
314.6385, 7566.319
315.1206, 7549.764
315.6027, 7528.031
316.0848, 7517.092
316.5670, 7521.361
317.0491, 7529.357
317.5312, 7529.102
318.0133, 7521.186
318.4954, 7515.324
318.9775, 7518.716
319.4597, 7520.365
319.9418, 7505.597
320.4239, 7477.198
320.9060, 7457.058
321.3881, 7462.255
321.8702, 7487.073
322.3524, 7497.878
322.8345, 7486.001
323.3166, 7472.619
323.7987, 7462.000
324.2808, 7454.410
324.7629, 7448.735
325.2451, 7444.368
325.7272, 7445.385
326.2093, 7460.823
326.6914, 7512.697
327.1735, 7537.959
327.6556, 7519.519
328.1378, 7487.654
328.6199, 7462.526
329.1020, 7447.134
329.5841, 7434.064
330.0662, 7414.375
330.5483, 7386.045
331.0305, 7375.743
331.5126, 7395.290
331.9947, 7420.492
332.4768, 7453.898
332.9589, 7486.724
333.4410, 7503.949
333.9232, 7495.591
334.4053, 7472.210
334.8874, 7466.565
335.3695, 7494.248
335.8516, 7508.006
336.3337, 7489.868
336.8159, 7462.017
337.2980, 7440.331
337.7801, 7428.700
338.2622, 7424.699
338.7443, 7425.251
339.2264, 7430.244
339.7086, 7445.364
340.1907, 7484.185
340.6728, 7517.548
341.1549, 7525.451
341.6370, 7513.166
342.1191, 7498.636
342.6013, 7486.031
343.0834, 7478.724
343.5655, 7486.000
344.0476, 7510.356
344.5297, 7536.087
345.0118, 7553.516
345.4940, 7567.314
345.9761, 7586.628
346.4582, 7617.298
346.9403, 7644.676
347.4224, 7651.317
347.9045, 7645.095
348.3867, 7653.967
348.8688, 7689.171
349.3509, 7736.847
349.8330, 7778.387
350.3151, 7814.149
350.7972, 7844.488
351.2794, 7858.117
351.7615, 7873.230
352.2436, 7909.257
352.7257, 7966.944
353.2078, 8033.645
353.6899, 8101.225
354.1721, 8169.219
354.6542, 8227.962
355.1363, 8266.392
355.6184, 8309.860
356.1005, 8370.732
356.5826, 8440.848
357.0648, 8506.297
357.5469, 8561.292
358.0290, 8610.176
358.5111, 8661.155
358.9932, 8711.138
359.4753, 8770.043
359.9575, 8839.329
360.4396, 8915.111
360.9217, 8996.326
361.4038, 9081.780
361.8859, 9168.488
362.3680, 9252.253
362.8502, 9333.312
363.3322, 9425.425
363.8144, 9536.974
364.2965, 9648.564
364.7786, 9758.473
365.2607, 9862.330
365.7428, 9950.832
366.2249, 10014.49
366.7071, 10075.87
367.1892, 10177.16
367.6713, 10324.66
368.1534, 10448.10
368.6355, 10521.53
369.1176, 10568.76
369.5998, 10611.16
370.0819, 10649.24
370.5640, 10688.43
371.0461, 10732.52
371.5282, 10779.66
372.0103, 10827.64
372.4925, 10877.09
372.9746, 10920.76
373.4567, 10948.39
373.9388, 10964.28
374.4209, 10993.22
374.9030, 11045.17
375.3852, 11101.77
375.8673, 11158.25
376.3494, 11211.67
376.8315, 11252.75
377.3136, 11276.18
377.7957, 11292.18
378.2779, 11321.86
378.7600, 11383.32
379.2421, 11423.80
379.7242, 11443.51
380.2063, 11441.12
380.6884, 11413.23
381.1706, 11361.01
381.6527, 11291.10
382.1348, 11209.58
382.6169, 11116.39
383.0990, 11001.08
383.5811, 10839.95
384.0633, 10683.18
384.5454, 10545.26
385.0275, 10415.69
385.5096, 10276.56
385.9917, 10120.86
386.4738, 9969.152
386.9560, 9855.172
387.4381, 9785.912
387.9202, 9718.612
388.4023, 9651.380
388.8844, 9581.397
389.3665, 9501.798
389.8487, 9416.075
390.3308, 9340.217
390.8129, 9281.453
391.2950, 9238.855
391.7771, 9215.094
392.2592, 9213.643
392.7414, 9208.296
393.2235, 9183.774
393.7056, 9146.248
394.1877, 9108.334
394.6698, 9064.640
395.1519, 9031.756
395.6341, 9025.006
396.1162, 9033.875
396.5983, 9038.568
397.0804, 9034.231
397.5625, 9024.348
398.0446, 9013.640
398.5268, 9003.188
399.0089, 8982.560
399.4910, 8936.279
399.9731, 8894.760
400.4552, 8886.654
400.9373, 8896.944
401.4195, 8886.222
401.9016, 8831.063
402.3837, 8747.432
402.8658, 8682.461
403.3479, 8650.549
403.8300, 8615.305
404.3122, 8569.858
404.7943, 8523.813
405.2764, 8483.238
405.7585, 8449.082
406.2406, 8419.703
406.7227, 8394.699
407.2049, 8373.671
407.6870, 8351.568
408.1691, 8327.885
408.6512, 8303.767
409.1333, 8276.354
409.6154, 8249.881
410.0976, 8230.804
410.5797, 8222.549
411.0618, 8218.113
411.5439, 8209.370
412.0260, 8197.619
412.5081, 8192.994
412.9903, 8201.974
413.4724, 8211.537
413.9545, 8200.520
414.4366, 8170.367
414.9187, 8152.240
415.4008, 8160.771
415.8830, 8176.914
416.3651, 8186.387
416.8472, 8188.878
417.3293, 8187.694
417.8114, 8184.576
418.2935, 8179.444
418.7757, 8172.048
419.2578, 8167.173
419.7399, 8153.440
420.2220, 8125.314
420.7041, 8091.326
421.1862, 8054.750
421.6684, 8018.484
422.1505, 7989.635
422.6326, 7975.867
423.1147, 7977.125
423.5968, 7982.295
424.0789, 7999.782
424.5611, 8009.565
425.0432, 7996.471
425.5253, 7976.423
426.0074, 7971.214
426.4895, 7989.423
426.9716, 8014.762
427.4538, 8030.462
427.9359, 8036.666
428.4180, 8032.559
428.9001, 8009.039
429.3822, 7989.183
429.8643, 8002.332
430.3465, 8040.357
430.8286, 8063.689
431.3107, 8042.736
431.7928, 8017.124
432.2749, 8027.051
432.7570, 8066.890
433.2392, 8104.598
433.7213, 8124.231
434.2034, 8135.727
434.6855, 8163.349
435.1676, 8228.511
435.6497, 8267.702
436.1319, 8247.037
436.6140, 8221.455
437.0961, 8235.695
437.5782, 8289.052
438.0603, 8354.206
438.5424, 8410.538
439.0246, 8458.898
439.5067, 8505.083
439.9888, 8552.486
440.4709, 8591.455
440.9530, 8614.639
441.4352, 8632.944
441.9173, 8653.717
442.3994, 8679.178
442.8815, 8714.556
443.3636, 8770.514
443.8457, 8843.150
444.3279, 8907.267
444.8100, 8961.268
445.2921, 9007.034
445.7742, 9035.279
446.2563, 9057.246
446.7384, 9098.812
447.2206, 9180.793
447.7027, 9260.438
448.1848, 9301.452
448.6669, 9318.943
449.1490, 9352.571
449.6311, 9416.090
450.1133, 9483.038
450.5954, 9518.563
451.0775, 9513.076
451.5596, 9518.421
452.0417, 9546.669
452.5238, 9572.921
453.0060, 9579.729
453.4881, 9576.183
453.9702, 9582.923
454.4523, 9610.475
454.9344, 9647.379
455.4165, 9671.363
455.8987, 9685.651
456.3808, 9677.376
456.8629, 9624.204
457.3450, 9565.226
457.8271, 9516.778
458.3092, 9479.593
458.7914, 9450.741
459.2735, 9433.763
459.7556, 9420.478
460.2377, 9395.172
460.7198, 9357.521
461.2019, 9315.736
461.6841, 9269.280
462.1662, 9224.355
462.6483, 9192.475
463.1304, 9177.279
463.6125, 9156.032
464.0946, 9118.469
464.5768, 9074.371
465.0589, 9034.025
465.5410, 8997.631
466.0231, 8957.294
466.5052, 8905.467
466.9873, 8847.481
467.4695, 8811.257
467.9516, 8826.429
468.4337, 8824.325
468.9158, 8785.885
469.3979, 8738.637
469.8800, 8705.226
470.3622, 8688.088
470.8443, 8676.810
471.3264, 8663.329
471.8085, 8647.671
472.2906, 8626.920
472.7727, 8593.397
473.2549, 8573.035
473.7370, 8591.674
474.2191, 8623.524
474.7012, 8640.320
475.1833, 8635.649
475.6654, 8628.255
476.1476, 8627.563
476.6297, 8632.673
477.1118, 8642.051
477.5939, 8655.486
478.0760, 8672.479
478.5581, 8691.967
479.0403, 8714.493
479.5224, 8746.435
480.0045, 8791.299
480.4866, 8839.355
480.9687, 8884.776
481.4508, 8934.211
481.9330, 8997.232
482.4151, 9075.159
482.8972, 9158.399
483.3793, 9239.033
483.8614, 9316.730
484.3435, 9386.031
484.8257, 9440.049
485.3078, 9494.931
485.7899, 9559.313
486.2720, 9626.351
486.7541, 9690.198
487.2362, 9750.837
487.7183, 9796.994
488.2004, 9812.149
488.6826, 9804.077
489.1647, 9802.498
489.6468, 9814.049
490.1289, 9820.747
490.6110, 9810.531
491.0931, 9782.092
491.5753, 9738.575
492.0574, 9654.930
492.5395, 9585.097
493.0216, 9559.591
493.5037, 9555.230
493.9858, 9541.578
494.4680, 9510.749
494.9501, 9472.110
495.4322, 9436.348
495.9143, 9403.979
496.3964, 9368.375
496.8785, 9331.729
497.3607, 9288.894
497.8428, 9237.142
498.3249, 9179.445
498.8070, 9117.025
499.2891, 9050.036
499.7712, 8986.782
500.2534, 8938.233
500.7355, 8901.163
501.2176, 8861.691
501.6997, 8819.313
502.1818, 8769.894
502.6639, 8707.838
503.1461, 8635.559
503.6282, 8564.276
504.1103, 8483.423
504.5924, 8417.555
505.0745, 8389.372
505.5566, 8376.422
506.0388, 8343.671
506.5209, 8286.232
507.0030, 8232.147
507.4851, 8211.160
507.9672, 8223.263
508.4493, 8228.729
508.9315, 8225.354
509.4136, 8217.665
509.8957, 8209.043
510.3778, 8195.488
510.8599, 8170.352
511.3420, 8132.869
511.8242, 8094.165
512.3063, 8061.745
512.7884, 8036.151
513.2705, 8020.897
513.7526, 8017.735
514.2347, 8017.207
514.7169, 8013.286
515.1990, 8008.400
515.6811, 8010.451
516.1632, 8029.706
516.6453, 8035.050
517.1274, 7997.480
517.6096, 7952.407
518.0917, 7944.015
518.5738, 7972.663
519.0559, 8004.764
519.5380, 8014.947
520.0201, 8005.091
520.5023, 7985.434
520.9844, 7943.384
521.4665, 7913.546
521.9486, 7904.223
522.4307, 7904.881
522.9128, 7907.273
523.3950, 7911.051
523.8771, 7921.368
524.3592, 7949.836
524.8413, 7984.599
525.3234, 8000.597
525.8055, 7997.503
526.2877, 7984.627
526.7698, 7959.555
527.2519, 7933.835
527.7340, 7932.574
528.2161, 7961.409
528.6982, 7984.675
529.1804, 7994.561
529.6625, 7999.744
530.1446, 8005.117
530.6267, 8011.218
531.1088, 8017.348
531.5909, 8023.067
532.0731, 8029.272
532.5552, 8038.122
533.0373, 8050.344
533.5194, 8063.113
534.0015, 8083.167
534.4836, 8096.559
534.9658, 8088.157
535.4479, 8067.615
535.9300, 8060.303
536.4121, 8080.991
536.8942, 8110.702
537.3763, 8134.284
537.8585, 8151.046
538.3406, 8154.424
538.8227, 8140.516
539.3048, 8126.082
539.7869, 8130.413
540.2690, 8155.364
540.7512, 8172.034
541.2333, 8172.464
541.7154, 8174.880
542.1975, 8185.767
542.6796, 8201.554
543.1617, 8216.833
543.6439, 8230.502
544.1260, 8247.028
544.6081, 8275.019
545.0902, 8312.844
545.5723, 8330.954
546.0544, 8310.240
546.5366, 8314.675
547.0187, 8406.172
547.5008, 8524.109
547.9829, 8588.401
548.4650, 8581.149
548.9471, 8574.687
549.4293, 8599.570
549.9114, 8644.298
550.3935, 8694.739
550.8756, 8750.669
551.3577, 8820.576
551.8398, 8911.631
552.3220, 9016.283
552.8041, 9111.539
553.2862, 9178.065
553.7683, 9270.952
554.2504, 9410.962
554.7325, 9556.321
555.2147, 9677.236
555.6968, 9783.379
556.1789, 9906.021
556.6610, 10062.98
557.1431, 10240.13
557.6252, 10417.90
558.1074, 10597.49
558.5895, 10784.82
559.0716, 10981.94
559.5537, 11186.12
560.0358, 11394.54
560.5179, 11609.17
561.0001, 11834.59
561.4822, 12079.76
561.9643, 12326.48
562.4464, 12564.65
562.9285, 12802.70
563.4106, 13050.79
563.8928, 13311.45
564.3749, 13586.48
564.8570, 13892.46
565.3391, 14220.45
565.8212, 14468.71
566.3033, 14609.62
566.7855, 14729.44
567.2676, 14885.35
567.7497, 15017.48
568.2318, 15064.82
568.7139, 15020.52
569.1960, 14928.33
569.6782, 14802.85
570.1603, 14643.20
570.6424, 14454.54
571.1245, 14231.71
571.6066, 13940.18
572.0887, 13558.52
572.5709, 13134.09
573.0530, 12764.37
573.5351, 12467.75
574.0172, 12169.36
574.4993, 11856.42
574.9814, 11553.17
575.4636, 11266.67
575.9457, 10997.17
576.4278, 10741.37
576.9099, 10496.99
577.3920, 10279.28
577.8741, 10116.01
578.3563, 9994.427
578.8384, 9864.896
579.3205, 9720.895
579.8026, 9572.767
580.2847, 9418.683
580.7668, 9267.683
581.2490, 9163.722
581.7311, 9146.851
582.2132, 9109.904
582.6953, 9022.129
583.1774, 8921.729
583.6595, 8831.761
584.1417, 8758.043
584.6238, 8704.966
585.1059, 8680.622
585.5880, 8665.724
586.0701, 8609.053
586.5522, 8503.213
587.0344, 8420.959
587.5165, 8383.994
587.9986, 8362.547
588.4807, 8335.879
588.9628, 8303.783
589.4449, 8263.514
589.9271, 8201.204
590.4092, 8145.547
590.8913, 8119.231
591.3734, 8104.950
591.8555, 8073.791
592.3376, 8021.716
592.8198, 7969.084
593.3019, 7934.338
593.7840, 7916.214
594.2661, 7904.575
594.7482, 7899.526
595.2303, 7900.890
595.7125, 7921.778
596.1946, 7939.519
596.6767, 7934.429
597.1588, 7907.633
597.6409, 7878.475
598.1230, 7853.310
598.6052, 7831.220
599.0873, 7811.480
599.5694, 7794.124
600.0515, 7780.150
600.5336, 7770.027
601.0157, 7759.327
601.4979, 7740.478
601.9800, 7711.164
602.4621, 7700.252
602.9442, 7729.010
603.4263, 7750.338
603.9084, 7749.466
604.3906, 7739.682
604.8727, 7736.084
605.3548, 7740.584
605.8369, 7741.672
606.3190, 7726.571
606.8011, 7704.996
607.2833, 7693.085
607.7654, 7690.914
608.2475, 7696.124
608.7296, 7709.383
609.2117, 7725.000
609.6938, 7735.135
610.1760, 7741.559
610.6581, 7734.219
611.1402, 7691.702
611.6223, 7660.811
612.1044, 7668.157
612.5865, 7693.479
613.0687, 7709.059
613.5508, 7707.478
614.0329, 7700.643
614.5150, 7702.414
614.9971, 7707.834
615.4792, 7696.488
615.9614, 7666.094
616.4435, 7644.599
616.9256, 7647.445
617.4077, 7663.252
617.8898, 7672.224
618.3719, 7674.905
618.8541, 7668.566
619.3362, 7642.067
619.8183, 7617.698
620.3004, 7603.949
620.7825, 7601.362
621.2646, 7615.348
621.7468, 7646.764
622.2289, 7672.524
622.7110, 7654.234
623.1931, 7602.303
623.6752, 7589.294
624.1573, 7626.509
624.6395, 7658.578
625.1216, 7656.762
625.6037, 7634.577
626.0858, 7616.900
626.5679, 7601.627
627.0500, 7596.715
627.5322, 7612.353
628.0143, 7630.129
628.4964, 7638.917
628.9785, 7640.931
629.4606, 7641.962
629.9427, 7644.284
630.4249, 7645.833
630.9070, 7644.169
631.3891, 7639.342
631.8712, 7629.345
632.3533, 7609.547
632.8354, 7600.559
633.3176, 7619.392
633.7997, 7651.184
634.2818, 7667.218
634.7639, 7663.577
635.2460, 7661.488
635.7281, 7671.825
636.2103, 7678.826
636.6924, 7667.750
637.1745, 7645.659
637.6566, 7628.186
638.1387, 7621.384
638.6208, 7619.697
639.1030, 7615.499
639.5851, 7608.995
640.0672, 7607.080
640.5493, 7611.412
641.0314, 7615.262
641.5135, 7613.182
641.9957, 7610.277
642.4778, 7616.720
642.9599, 7635.380
643.4420, 7648.511
643.9241, 7649.756
644.4063, 7646.888
644.8884, 7643.734
645.3705, 7640.750
645.8526, 7638.109
646.3347, 7635.836
646.8168, 7633.315
647.2990, 7630.581
647.7811, 7627.397
648.2632, 7617.709
648.7453, 7597.145
649.2274, 7585.551
649.7095, 7592.417
650.1917, 7612.249
650.6738, 7639.690
651.1559, 7676.939
651.6380, 7704.269
652.1201, 7714.502
652.6022, 7718.126
653.0844, 7714.700
653.5665, 7711.239
654.0486, 7723.226
654.5307, 7753.370
655.0128, 7779.934
655.4949, 7774.223
655.9771, 7743.031
656.4592, 7727.505
656.9413, 7728.378
657.4234, 7742.528
657.9055, 7776.093
658.3876, 7814.385
658.8698, 7834.373
659.3519, 7834.994
659.8340, 7844.638
660.3161, 7876.500
660.7982, 7906.219
661.2803, 7918.500
661.7625, 7924.220
662.2446, 7940.761
662.7267, 7970.118
663.2088, 7997.018
663.6909, 8007.818
664.1730, 8006.191
664.6552, 7998.754
665.1373, 7984.286
665.6194, 7987.605
666.1015, 8022.428
666.5836, 8064.355
667.0657, 8087.829
667.5479, 8091.949
668.0300, 8093.895
668.5121, 8103.645
668.9942, 8098.787
669.4763, 8054.607
669.9584, 8005.363
670.4406, 7990.811
670.9227, 8008.282
671.4048, 8020.568
671.8868, 8001.463
672.3690, 7965.931
672.8511, 7939.479
673.3332, 7920.993
673.8153, 7900.146
674.2974, 7874.704
674.7795, 7846.263
675.2617, 7814.292
675.7438, 7780.404
676.2259, 7756.533
676.7080, 7752.920
677.1901, 7744.967
677.6722, 7729.066
678.1544, 7710.147
678.6365, 7689.491
679.1186, 7668.923
679.6007, 7649.392
680.0828, 7627.686
680.5649, 7619.594
681.0471, 7662.430
681.5292, 7729.508
682.0113, 7738.558
682.4934, 7681.463
682.9755, 7631.179
683.4576, 7635.908
683.9398, 7674.368
684.4219, 7690.172
684.9040, 7672.491
685.3861, 7656.334
685.8682, 7634.560
686.3503, 7621.962
686.8325, 7628.865
687.3146, 7647.037
687.7967, 7664.441
688.2788, 7678.424
688.7609, 7691.119
689.2430, 7707.140
689.7252, 7720.497
690.2073, 7722.808
690.6894, 7715.127
691.1715, 7699.552
691.6536, 7676.670
692.1357, 7659.834
692.6179, 7672.217
693.1000, 7716.252
693.5821, 7743.376
694.0642, 7749.396
694.5463, 7746.896
695.0284, 7731.799
695.5106, 7715.671
695.9927, 7710.587
696.4748, 7716.714
696.9569, 7725.255
697.4390, 7744.008
697.9211, 7753.827
698.4033, 7735.063
698.8854, 7703.328
699.3675, 7682.480
699.8496, 7676.615
700.3317, 7673.190
700.8138, 7661.316
701.2960, 7644.473
701.7781, 7634.070
702.2602, 7630.674
702.7423, 7623.864
703.2244, 7608.021
703.7065, 7596.553
704.1887, 7605.770
704.6708, 7630.833
705.1529, 7638.432
705.6350, 7627.096
706.1171, 7601.322
706.5992, 7539.868
707.0814, 7482.758
707.5635, 7459.934
708.0456, 7467.084
708.5277, 7490.500
709.0098, 7527.704
709.4919, 7558.472
709.9741, 7553.128
710.4562, 7524.134
710.9383, 7509.194
711.4204, 7510.874
711.9025, 7506.662
712.3846, 7482.200
712.8668, 7452.869
713.3489, 7451.111
713.8310, 7489.147
714.3131, 7507.619
714.7952, 7483.271
715.2773, 7467.560
715.7595, 7487.037
716.2416, 7516.293
716.7237, 7524.391
717.2058, 7508.075
717.6879, 7492.750
718.1700, 7492.750
718.6522, 7496.120
719.1343, 7494.682
719.6164, 7488.214
720.0985, 7473.040
720.5806, 7450.099
721.0627, 7433.286
721.5449, 7436.581
722.0270, 7455.046
722.5091, 7474.083
722.9912, 7498.741
723.4733, 7488.729
723.9554, 7410.493
724.4376, 7340.210
724.9197, 7350.913
725.4018, 7425.087
725.8839, 7471.462
726.3660, 7484.959
726.8481, 7477.295
727.3303, 7429.449
727.8124, 7379.493
728.2945, 7355.097
728.7766, 7351.991
729.2587, 7356.129
729.7408, 7362.259
730.2230, 7368.475
730.7051, 7376.464
731.1872, 7382.226
731.6693, 7369.488
732.1514, 7339.578
732.6335, 7323.771
733.1157, 7337.546
733.5978, 7363.773
734.0799, 7377.237
734.5620, 7376.953
735.0441, 7372.309
735.5262, 7359.566
736.0084, 7348.114
736.4905, 7340.997
736.9726, 7335.532
737.4547, 7323.521
737.9368, 7307.951
738.4189, 7312.372
738.9011, 7377.573
739.3832, 7427.790
739.8653, 7400.237
740.3474, 7340.364
740.8295, 7306.881
741.3116, 7306.001
741.7938, 7315.180
742.2759, 7320.124
742.7580, 7325.511
743.2401, 7346.187
743.7222, 7380.370
744.2043, 7389.329
744.6865, 7363.677
745.1686, 7339.430
745.6507, 7340.694
746.1328, 7353.248
746.6149, 7344.210
747.0970, 7300.815
747.5792, 7270.320
748.0613, 7256.670
748.5434, 7250.512
749.0255, 7249.582
749.5076, 7253.569
749.9897, 7266.846
750.4719, 7288.279
750.9540, 7299.921
751.4361, 7283.021
751.9182, 7259.094
752.4003, 7249.167
752.8824, 7249.138
753.3646, 7247.917
753.8467, 7244.114
754.3288, 7249.910
754.8109, 7278.678
755.2930, 7316.908
755.7751, 7318.258
756.2573, 7276.621
756.7394, 7246.062
757.2215, 7234.690
757.7036, 7232.229
758.1857, 7235.198
758.6678, 7241.255
759.1500, 7243.050
759.6321, 7236.023
760.1142, 7236.702
760.5963, 7259.957
761.0784, 7276.708
761.5605, 7266.461
762.0427, 7243.250
762.5248, 7226.083
763.0069, 7219.606
763.4890, 7220.584
763.9711, 7236.539
764.4532, 7251.718
764.9354, 7237.353
765.4175, 7205.479
765.8996, 7194.788
766.3817, 7213.165
766.8638, 7232.541
767.3459, 7226.990
767.8281, 7205.767
768.3102, 7205.845
768.7923, 7233.527
769.2744, 7248.619
769.7565, 7242.275
770.2386, 7228.983
770.7208, 7207.788
771.2029, 7189.202
771.6850, 7205.850
772.1671, 7285.565
772.6492, 7323.129
773.1313, 7263.016
773.6135, 7204.700
774.0956, 7205.792
774.5777, 7237.339
775.0598, 7258.502
775.5419, 7259.697
776.0240, 7248.453
776.5062, 7219.719
776.9883, 7188.846
777.4704, 7178.631
777.9525, 7181.737
778.4346, 7176.969
778.9167, 7160.874
779.3989, 7148.149
779.8810, 7150.780
780.3631, 7164.738
780.8452, 7181.765
781.3273, 7204.393
781.8094, 7207.362
782.2916, 7177.019
782.7737, 7153.620
783.2558, 7163.640
783.7379, 7193.516
784.2200, 7215.903
784.7021, 7231.666
785.1843, 7237.213
785.6664, 7222.729
786.1485, 7209.303
786.6306, 7208.128
787.1127, 7210.468
787.5948, 7205.458
788.0770, 7192.376
788.5591, 7178.480
789.0412, 7159.890
789.5233, 7151.052
790.0054, 7174.063
790.4875, 7212.723
790.9697, 7241.866
791.4518, 7256.447
791.9339, 7254.786
792.4160, 7234.300
792.8981, 7207.165
793.3802, 7198.277
793.8624, 7206.794
794.3445, 7206.350
794.8266, 7194.005
795.3087, 7181.332
795.7908, 7172.743
796.2729, 7167.581
796.7551, 7165.241
797.2372, 7165.989
797.7193, 7167.297
798.2014, 7169.062
798.6835, 7171.540
799.1656, 7180.994
799.6478, 7186.057
800.1299, 7166.702
800.6120, 7133.986
801.0941, 7130.033
801.5762, 7186.212
802.0583, 7234.177
802.5405, 7235.257
803.0226, 7212.816
803.5047, 7180.430
803.9868, 7147.148
804.4689, 7130.786
804.9510, 7137.636
805.4332, 7147.179
805.9153, 7129.554
806.3974, 7098.832
806.8795, 7099.509
807.3616, 7128.556
807.8438, 7154.505
808.3259, 7168.571
808.8080, 7175.809
809.2901, 7180.719
809.7722, 7183.119
810.2543, 7181.875
810.7365, 7176.316
811.2186, 7169.119
811.7007, 7160.671
812.1828, 7150.313
812.6649, 7132.744
813.1470, 7114.722
813.6292, 7111.962
814.1113, 7131.795
814.5934, 7138.234
815.0755, 7107.204
815.5576, 7083.256
816.0397, 7089.766
816.5219, 7112.784
817.0040, 7142.970
817.4861, 7173.757
817.9682, 7185.895
818.4503, 7161.058
818.9324, 7125.979
819.4146, 7098.325
819.8967, 7081.030
820.3788, 7084.426
820.8609, 7104.931
821.3430, 7123.668
821.8251, 7130.750
822.3073, 7131.989
822.7894, 7136.916
823.2715, 7144.461
823.7536, 7144.919
824.2357, 7137.657
824.7178, 7131.256
825.2000, 7130.251
825.6821, 7124.746
826.1642, 7100.236
826.6463, 7059.801
827.1284, 7043.080
827.6105, 7060.193
828.0927, 7081.500
828.5748, 7119.178
829.0569, 7144.100
829.5390, 7133.376
830.0211, 7101.269
830.5032, 7073.400
830.9854, 7050.635
831.4675, 7038.589
831.9496, 7045.353
832.4317, 7055.714
832.9138, 7063.537
833.3959, 7068.672
833.8781, 7071.640
834.3602, 7072.542
834.8423, 7070.834
835.3244, 7063.689
835.8065, 7057.903
836.2886, 7063.672
836.7708, 7074.504
837.2529, 7077.027
837.7350, 7071.767
838.2171, 7070.400
838.6992, 7079.039
839.1813, 7087.347
839.6635, 7073.691
840.1456, 7043.838
840.6277, 7046.024
841.1098, 7082.580
841.5919, 7101.912
842.0740, 7084.499
842.5562, 7063.882
843.0383, 7077.120
843.5204, 7114.774
844.0025, 7113.822
844.4846, 7047.877
844.9667, 7007.002
845.4489, 7008.564
845.9310, 7021.810
846.4131, 7037.239
846.8952, 7051.614
847.3773, 7061.023
847.8594, 7066.290
848.3416, 7060.664
848.8237, 7025.101
849.3058, 7000.593
849.7879, 7007.492
850.2700, 7029.733
850.7521, 7060.792
851.2343, 7092.314
851.7164, 7101.050
852.1985, 7068.832
852.6806, 7035.670
853.1627, 7035.846
853.6448, 7046.803
854.1270, 7038.911
854.6091, 7018.048
855.0912, 7004.655
855.5733, 7005.773
856.0554, 7014.964
856.5375, 7029.008
857.0197, 7044.358
857.5018, 7051.761
857.9839, 7052.754
858.4660, 7054.915
858.9481, 7059.752
859.4302, 7067.594
859.9124, 7078.861
860.3945, 7092.577
860.8766, 7109.248
861.3587, 7130.850
861.8408, 7132.374
862.3229, 7105.568
862.8051, 7086.540
863.2872, 7092.189
863.7693, 7104.979
864.2514, 7105.110
864.7335, 7093.003
865.2156, 7080.376
865.6978, 7054.991
866.1799, 7048.675
866.6620, 7084.229
867.1441, 7117.429
867.6262, 7112.717
868.1083, 7093.792
868.5905, 7110.875
869.0726, 7178.913
869.5547, 7217.882
870.0368, 7179.457
870.5189, 7138.408
871.0010, 7136.486
871.4832, 7148.694
871.9653, 7143.100
872.4474, 7121.571
872.9295, 7110.263
873.4116, 7124.957
873.8937, 7140.500
874.3759, 7136.880
874.8580, 7122.832
875.3401, 7105.088
875.8222, 7087.519
876.3043, 7074.426
876.7864, 7068.268
877.2686, 7078.445
877.7507, 7122.606
878.2328, 7179.059
878.7149, 7201.968
879.1970, 7197.130
879.6791, 7185.261
880.1613, 7170.685
880.6434, 7165.394
881.1255, 7177.260
881.6076, 7197.152
882.0897, 7211.266
882.5718, 7219.488
883.0540, 7211.357
883.5361, 7182.534
884.0182, 7164.802
884.5003, 7168.767
884.9824, 7183.180
885.4645, 7198.875
885.9467, 7215.637
886.4288, 7233.012
886.9109, 7254.049
887.3930, 7268.379
887.8751, 7272.297
888.3572, 7274.180
888.8394, 7269.475
889.3215, 7269.804
889.8036, 7295.387
890.2857, 7347.529
890.7678, 7387.823
891.2499, 7418.014
891.7321, 7429.786
892.2142, 7395.170
892.6963, 7365.621
893.1784, 7389.460
893.6605, 7443.819
894.1426, 7472.373
894.6248, 7457.477
895.1069, 7453.861
895.5890, 7499.428
896.0711, 7547.060
896.5532, 7558.274
897.0353, 7557.075
897.5175, 7579.643
897.9996, 7624.772
898.4817, 7663.168
898.9638, 7678.145
899.4459, 7688.695
899.9280, 7705.873
900.4102, 7732.718
900.8923, 7780.794
901.3744, 7841.674
901.8565, 7896.339
902.3386, 7937.608
902.8207, 7957.895
903.3029, 7941.550
903.7850, 7913.938
904.2671, 7932.792
904.7492, 7981.392
905.2313, 7994.244
905.7134, 7967.339
906.1956, 7944.135
906.6777, 7946.570
907.1598, 7957.967
907.6419, 7953.547
908.1240, 7936.945
908.6061, 7933.101
909.0883, 7942.346
909.5704, 7958.162
910.0525, 7980.810
910.5346, 7999.364
911.0167, 8005.724
911.4988, 8002.933
911.9810, 7996.174
912.4631, 7981.851
912.9452, 7988.521
913.4273, 8031.805
913.9094, 8051.661
914.3915, 8022.149
914.8737, 7973.217
915.3558, 7929.451
915.8379, 7891.514
916.3200, 7865.115
916.8021, 7868.384
917.2842, 7848.486
917.7664, 7786.220
918.2484, 7723.389
918.7305, 7674.414
919.2126, 7635.627
919.6948, 7605.160
920.1769, 7582.829
920.6590, 7557.646
921.1411, 7527.894
921.6232, 7496.394
922.1053, 7454.250
922.5875, 7419.958
923.0696, 7413.236
923.5517, 7419.515
924.0338, 7410.644
924.5159, 7380.922
924.9980, 7354.512
925.4802, 7329.350
925.9623, 7321.174
926.4444, 7347.231
926.9265, 7386.703
927.4086, 7425.525
927.8907, 7458.125
928.3729, 7474.862
928.8550, 7470.260
929.3371, 7466.726
929.8192, 7474.252
930.3013, 7492.208
930.7834, 7528.420
931.2656, 7570.429
931.7477, 7598.646
932.2298, 7612.292
932.7119, 7621.838
933.1940, 7630.241
933.6761, 7647.703
934.1583, 7699.396
934.6404, 7756.425
935.1225, 7764.724
935.6046, 7742.866
936.0867, 7744.620
936.5688, 7782.189
937.0510, 7831.888
937.5331, 7878.141
938.0152, 7920.159
938.4973, 7954.443
938.9794, 7984.117
939.4615, 8018.697
939.9437, 8057.320
940.4258, 8087.671
940.9079, 8106.028
941.3900, 8131.266
941.8721, 8184.266
942.3542, 8255.581
942.8364, 8320.911
943.3185, 8381.167
943.8006, 8441.346
944.2827, 8501.698
944.7648, 8562.304
945.2469, 8623.119
945.7291, 8678.417
946.2112, 8716.440
946.6933, 8742.743
947.1754, 8793.391
947.6575, 8868.889
948.1396, 8940.627
948.6218, 9005.149
949.1039, 9048.831
949.5860, 9058.143
950.0681, 9061.233
950.5502, 9113.360
951.0323, 9214.532
951.5145, 9278.634
951.9966, 9295.568
952.4787, 9334.496
952.9608, 9418.914
953.4429, 9498.349
953.9250, 9534.843
954.4072, 9544.202
954.8893, 9564.607
955.3714, 9599.180
955.8535, 9624.957
956.3356, 9640.002
956.8177, 9650.876
957.2999, 9657.324
957.7820, 9663.909
958.2641, 9676.534
958.7462, 9691.283
959.2283, 9694.555
959.7104, 9681.918
960.1926, 9671.859
960.6747, 9673.148
961.1568, 9660.150
961.6389, 9607.064
962.1210, 9556.955
962.6031, 9561.463
963.0853, 9605.145
963.5674, 9608.393
964.0495, 9536.962
964.5316, 9491.792
965.0137, 9491.466
965.4958, 9493.255
965.9780, 9487.518
966.4601, 9473.725
966.9422, 9442.822
967.4243, 9399.638
967.9064, 9381.226
968.3885, 9418.871
968.8707, 9432.253
969.3528, 9388.197
969.8349, 9353.237
970.3170, 9362.321
970.7991, 9390.515
971.2813, 9415.434
971.7634, 9434.344
972.2455, 9433.930
972.7276, 9385.215
973.2097, 9358.188
973.6918, 9379.805
974.1740, 9406.624
974.6561, 9427.286
975.1382, 9433.107
975.6203, 9400.712
976.1024, 9333.627
976.5845, 9302.346
977.0667, 9362.812
977.5488, 9400.121
978.0309, 9378.550
978.5130, 9335.422
978.9951, 9283.610
979.4772, 9230.562
979.9594, 9184.603
980.4415, 9146.384
980.9236, 9111.161
981.4057, 9086.618
981.8878, 9052.408
982.3699, 8987.802
982.8521, 8925.634
983.3342, 8900.887
983.8163, 8888.810
984.2984, 8845.045
984.7805, 8764.433
985.2626, 8686.066
985.7448, 8611.715
986.2269, 8557.949
986.7090, 8553.354
987.1911, 8550.239
987.6732, 8506.690
988.1553, 8439.839
988.6375, 8383.047
989.1196, 8342.241
989.6017, 8303.776
990.0838, 8269.646
990.5659, 8227.134
991.0480, 8166.668
991.5302, 8099.118
992.0123, 8022.971
992.4944, 7950.652
992.9765, 7907.667
993.4586, 7897.563
993.9407, 7880.857
994.4229, 7838.141
994.9050, 7788.994
995.3871, 7742.737
995.8692, 7694.567
996.3513, 7638.577
996.8334, 7578.375
997.3156, 7516.475
997.7977, 7454.596
998.2798, 7412.204
998.7619, 7413.454
999.2440, 7416.178
999.7261, 7398.027
1000.208, 7373.264
1000.690, 7356.444
1001.172, 7342.361
1001.655, 7313.664
1002.137, 7268.411
1002.619, 7240.921
1003.101, 7265.381
1003.583, 7286.899
1004.065, 7265.764
1004.547, 7240.959
1005.029, 7253.428
1005.512, 7286.247
1005.994, 7302.215
1006.476, 7294.711
1006.958, 7289.285
1007.440, 7311.853
1007.922, 7319.821
1008.404, 7264.025
1008.886, 7211.536
1009.368, 7231.213
1009.851, 7291.882
1010.333, 7331.574
1010.815, 7339.675
1011.297, 7349.686
1011.779, 7377.993
1012.261, 7407.563
1012.743, 7430.154
1013.225, 7451.809
1013.708, 7483.698
1014.190, 7515.115
1014.672, 7522.208
1015.154, 7504.337
1015.636, 7500.528
1016.118, 7537.851
1016.600, 7573.415
1017.082, 7590.171
1017.564, 7599.373
1018.047, 7608.950
1018.529, 7616.700
1019.011, 7625.443
1019.493, 7631.783
1019.975, 7606.063
1020.457, 7510.947
1020.939, 7427.483
1021.421, 7382.747
1021.904, 7358.835
1022.386, 7360.744
1022.868, 7366.222
1023.350, 7344.401
1023.832, 7295.585
1024.314, 7247.881
1024.796, 7201.447
1025.278, 7169.430
1025.760, 7168.162
1026.243, 7167.657
1026.725, 7149.568
1027.207, 7124.386
1027.689, 7106.588
1028.171, 7095.249
1028.653, 7076.384
1029.135, 7035.385
1029.617, 7011.882
1030.099, 7032.144
1030.582, 7048.256
1031.064, 7030.480
1031.546, 7004.593
1032.028, 6998.993
1032.510, 7010.199
1032.992, 7016.916
1033.474, 7018.801
1033.956, 7011.841
1034.439, 6984.975
1034.921, 6962.908
1035.403, 6956.405
1035.885, 6956.117
1036.367, 6959.670
1036.849, 6962.547
1037.331, 6946.804
1037.813, 6893.643
1038.296, 6874.715
1038.778, 6924.423
1039.260, 6959.679
1039.742, 6954.904
1040.224, 6937.825
1040.706, 6927.369
1041.188, 6919.505
1041.670, 6902.846
1042.152, 6872.655
1042.635, 6857.479
1043.117, 6862.105
1043.599, 6872.539
1044.081, 6887.019
1044.563, 6906.932
1045.045, 6943.293
1045.527, 6975.572
1046.009, 6960.256
1046.491, 6893.396
1046.974, 6863.752
1047.456, 6886.182
1047.938, 6902.003
1048.420, 6903.929
1048.902, 6895.806
1049.384, 6876.717
1049.866, 6853.798
1050.348, 6836.049
1050.830, 6823.790
1051.313, 6818.869
1051.795, 6819.295
1052.277, 6845.720
1052.759, 6908.751
1053.241, 6947.702
1053.723, 6932.125
1054.205, 6903.785
1054.687, 6911.691
1055.170, 6941.584
1055.652, 6932.404
1056.134, 6884.298
1056.616, 6872.323
1057.098, 6902.170
1057.580, 6917.857
1058.062, 6900.485
1058.544, 6876.813
1059.026, 6868.461
1059.509, 6873.021
1059.991, 6892.535
1060.473, 6921.101
1060.955, 6917.313
1061.437, 6886.819
1061.919, 6888.305
1062.401, 6932.211
1062.883, 6963.854
1063.365, 6947.167
1063.848, 6911.768
1064.330, 6895.589
1064.812, 6895.728
1065.294, 6916.862
1065.776, 6946.620
1066.258, 6938.967
1066.740, 6896.533
1067.222, 6869.967
1067.705, 6882.653
1068.187, 6907.654
1068.669, 6925.950
1069.151, 6933.507
1069.633, 6916.208
1070.115, 6889.087
1070.597, 6877.242
1071.079, 6879.604
1071.562, 6884.043
1072.044, 6886.911
1072.526, 6893.957
1073.008, 6913.223
1073.490, 6931.399
1073.972, 6940.834
1074.454, 6941.093
1074.936, 6920.694
1075.418, 6895.982
1075.901, 6901.663
1076.383, 6936.387
1076.865, 6952.320
1077.347, 6916.483
1077.829, 6893.368
1078.311, 6923.013
1078.793, 6963.057
1079.275, 6999.826
1079.757, 7022.518
1080.240, 7009.068
1080.722, 6971.680
1081.204, 6956.827
1081.686, 6979.742
1082.168, 7000.100
1082.650, 7011.187
1083.132, 7017.467
1083.614, 7011.382
1084.097, 7009.604
1084.579, 7029.330
1085.061, 7060.805
1085.543, 7083.724
1086.025, 7097.925
1086.507, 7103.659
1086.989, 7097.216
1087.471, 7089.189
1087.953, 7079.559
1088.436, 7070.443
1088.918, 7061.642
1089.400, 7055.423
1089.882, 7053.886
1090.364, 7057.653
1090.846, 7073.591
1091.328, 7105.979
1091.810, 7127.140
1092.292, 7134.064
1092.775, 7134.512
1093.257, 7128.210
1093.739, 7132.770
1094.221, 7166.678
1094.703, 7213.847
1095.185, 7233.895
1095.667, 7229.951
1096.149, 7234.884
1096.632, 7248.407
1097.114, 7261.294
1097.596, 7271.972
1098.078, 7288.417
1098.560, 7315.515
1099.042, 7344.449
1099.524, 7368.520
1100.006, 7382.980
1100.489, 7367.408
1100.971, 7337.277
1101.453, 7331.586
1101.935, 7349.374
1102.417, 7371.552
1102.899, 7390.846
1103.381, 7405.256
1103.863, 7408.498
1104.345, 7415.705
1104.828, 7444.522
1105.310, 7482.629
1105.792, 7522.233
1106.274, 7557.147
1106.756, 7575.070
1107.238, 7578.886
1107.720, 7588.784
1108.202, 7614.203
1108.684, 7638.813
1109.167, 7651.426
1109.649, 7666.042
1110.131, 7705.445
1110.613, 7736.959
1111.095, 7713.222
1111.577, 7661.750
1112.059, 7654.447
1112.541, 7705.378
1113.024, 7740.669
1113.506, 7733.610
1113.988, 7740.141
1114.470, 7784.853
1114.952, 7820.219
1115.434, 7817.831
1115.916, 7801.829
1116.398, 7800.928
1116.880, 7812.544
1117.363, 7820.992
1117.845, 7826.373
1118.327, 7827.909
1118.809, 7825.520
1119.291, 7818.935
1119.773, 7807.293
1120.255, 7795.098
1120.737, 7785.189
1121.219, 7778.563
1121.702, 7774.264
1122.184, 7774.798
1122.666, 7805.599
1123.148, 7859.544
1123.630, 7885.236
1124.112, 7878.144
1124.594, 7866.246
1125.076, 7861.913
1125.559, 7863.576
1126.041, 7870.966
1126.523, 7881.277
1127.005, 7900.073
1127.487, 7912.680
1127.969, 7882.283
1128.451, 7829.351
1128.933, 7799.729
1129.416, 7801.686
1129.898, 7820.690
1130.380, 7852.541
1130.862, 7888.837
1131.344, 7929.361
1131.826, 7966.664
1132.308, 7998.892
1132.790, 8022.968
1133.272, 8031.422
1133.755, 8031.136
1134.237, 8034.680
1134.719, 8043.284
1135.201, 8067.438
1135.683, 8140.459
1136.165, 8180.682
1136.647, 8144.649
1137.129, 8113.798
1137.611, 8122.960
1138.094, 8149.081
1138.576, 8170.312
1139.058, 8187.811
1139.540, 8209.236
1140.022, 8241.123
1140.504, 8235.154
1140.986, 8182.394
1141.468, 8147.242
1141.951, 8146.628
1142.433, 8140.867
1142.915, 8106.003
1143.397, 8055.380
1143.879, 8000.159
1144.361, 7950.875
1144.843, 7958.200
1145.325, 7998.649
1145.807, 7977.439
1146.290, 7899.551
1146.772, 7818.850
1147.254, 7754.561
1147.736, 7717.990
1148.218, 7722.273
1148.700, 7732.630
1149.182, 7713.540
1149.664, 7684.592
1150.146, 7664.706
1150.629, 7649.897
1151.111, 7637.248
1151.593, 7622.923
1152.075, 7595.051
1152.557, 7549.988
1153.039, 7520.848
1153.521, 7540.895
1154.003, 7545.924
1154.486, 7498.593
1154.968, 7453.706
1155.450, 7445.414
1155.932, 7453.222
1156.414, 7453.381
1156.896, 7448.129
1157.378, 7448.676
1157.860, 7460.012
1158.343, 7455.631
1158.825, 7430.421
1159.307, 7406.797
1159.789, 7387.396
1160.271, 7383.457
1160.753, 7404.955
1161.235, 7427.463
1161.717, 7415.342
1162.199, 7380.054
1162.682, 7356.321
1163.164, 7343.335
1163.646, 7342.203
1164.128, 7348.531
1164.610, 7340.101
1165.092, 7314.731
1165.574, 7298.319
1166.056, 7306.826
1166.538, 7325.872
1167.021, 7354.954
1167.503, 7374.489
1167.985, 7351.584
1168.467, 7318.562
1168.949, 7320.374
1169.431, 7343.531
1169.913, 7351.182
1170.395, 7336.870
1170.878, 7317.093
1171.360, 7283.792
1171.842, 7265.216
1172.324, 7275.668
1172.806, 7289.493
1173.288, 7298.773
1173.770, 7305.583
1174.252, 7315.494
1174.734, 7321.019
1175.217, 7300.316
1175.699, 7251.408
1176.181, 7230.351
1176.663, 7239.888
1177.145, 7255.827
1177.627, 7276.033
1178.109, 7281.170
1178.591, 7262.700
1179.073, 7252.005
1179.556, 7282.351
1180.038, 7320.360
1180.520, 7294.591
1181.002, 7239.787
1181.484, 7231.525
1181.966, 7254.026
1182.448, 7264.199
1182.930, 7262.150
1183.413, 7279.667
1183.895, 7326.942
1184.377, 7359.527
1184.859, 7348.071
1185.341, 7320.440
1185.823, 7270.691
1186.305, 7231.417
1186.787, 7232.815
1187.270, 7251.123
1187.752, 7255.238
1188.234, 7249.160
1188.716, 7258.764
1189.198, 7290.596
1189.680, 7309.969
1190.162, 7314.032
1190.644, 7313.093
1191.126, 7306.916
1191.609, 7301.760
1192.091, 7299.739
1192.573, 7305.295
1193.055, 7326.338
1193.537, 7351.289
1194.019, 7344.639
1194.501, 7316.972
1194.983, 7308.664
1195.465, 7317.093
1195.948, 7328.885
1196.430, 7340.417
1196.912, 7348.661
1197.394, 7352.518
1197.876, 7360.499
1198.358, 7394.421
1198.840, 7413.519
1199.322, 7362.130
1199.805, 7311.736
1200.287, 7338.922
1200.769, 7391.639
1201.251, 7394.730
1201.733, 7354.644
1202.215, 7325.412
1202.697, 7312.698
1203.179, 7308.626
1203.661, 7312.719
1204.144, 7328.649
1204.626, 7366.000
1205.108, 7389.419
1205.590, 7380.245
1206.072, 7357.164
1206.554, 7337.420
1207.036, 7324.822
1207.518, 7334.422
1208.000, 7359.941
1208.483, 7371.771
1208.965, 7371.344
1209.447, 7363.921
1209.929, 7353.181
1210.411, 7347.295
1210.893, 7349.766
1211.375, 7364.379
1211.857, 7406.351
1212.340, 7439.001
1212.822, 7427.239
1213.304, 7406.004
1213.786, 7403.538
1214.268, 7406.276
1214.750, 7395.388
1215.232, 7374.586
1215.714, 7358.061
1216.197, 7345.930
1216.679, 7345.600
1217.161, 7364.726
1217.643, 7375.296
1218.125, 7371.972
1218.607, 7368.334
1219.089, 7367.672
1219.571, 7379.890
1220.053, 7417.253
1220.536, 7456.846
1221.018, 7446.462
1221.500, 7406.874
1221.982, 7407.711
1222.464, 7433.695
1222.946, 7445.842
1223.428, 7443.308
1223.910, 7442.187
1224.392, 7445.468
1224.875, 7437.987
1225.357, 7403.490
1225.839, 7382.876
1226.321, 7417.165
1226.803, 7445.618
1227.285, 7431.233
1227.767, 7403.230
1228.249, 7376.917
1228.732, 7359.818
1229.214, 7368.693
1229.696, 7398.604
1230.178, 7394.075
1230.660, 7343.081
1231.142, 7328.195
1231.624, 7355.518
1232.106, 7375.945
1232.589, 7378.026
1233.071, 7376.717
1233.553, 7380.275
1234.035, 7385.014
1234.517, 7385.289
1234.999, 7386.951
1235.481, 7405.942
1235.963, 7426.090
1236.445, 7422.330
1236.927, 7404.049
1237.410, 7385.373
1237.892, 7370.816
1238.374, 7367.711
1238.856, 7380.357
1239.338, 7382.516
1239.820, 7356.212
1240.302, 7338.392
1240.784, 7336.022
1241.267, 7340.382
1241.749, 7351.223
1242.231, 7361.498
1242.713, 7364.708
1243.195, 7363.887
1243.677, 7365.004
##END=



