##NAMES=Katayamalite
##RRUFFID=R070147
##IDEAL CHEMISTRY=KLi_3_Ca_7_Ti^4+^_2_(SiO_3_)_12_(OH)_2_
##LOCALITY=Dara-i-Pioz, Hait, Alayskiy (Alay; Alai) Range, South Tien-Shan Mts., Tajikistan
##OWNER=RRUFF
##SOURCE=Michael Scott
##DESCRIPTION=Light tan colored platy massive
##STATUS=The identification of this mineral is confirmed by single-crystal X-ray diffraction and chemical analysis.
##URL=rruff.info/R070147
##MEASURED CHEMISTRY=(K_0.90_Na_0.07_)Li_3.08_(Ca_6.89_Mn_0.02_Ba_0.02_)(Ti_1.67_Zr_0.17_Sn_0.13_Fe_0.06_Al_0.01_)(SiO_3_)_12_(OH_1.05_F_0.95_)
193.5722, 10227.49
194.0543, 10264.63
194.5364, 10312.63
195.0185, 10352.01
195.5007, 10369.78
195.9828, 10366.64
196.4649, 10367.81
196.9470, 10372.72
197.4291, 10383.55
197.9112, 10408.00
198.3934, 10448.51
198.8755, 10485.37
199.3576, 10504.55
199.8397, 10504.49
200.3218, 10516.19
200.8039, 10542.48
201.2861, 10579.54
201.7682, 10619.05
202.2503, 10660.65
202.7324, 10706.23
203.2145, 10756.65
203.6966, 10811.86
204.1788, 10873.33
204.6609, 10942.69
205.1430, 11016.94
205.6251, 11086.73
206.1072, 11152.01
206.5893, 11212.92
207.0715, 11269.71
207.5536, 11321.82
208.0357, 11368.79
208.5178, 11406.58
208.9999, 11439.51
209.4820, 11488.01
209.9642, 11554.36
210.4463, 11631.43
210.9284, 11717.00
211.4105, 11814.12
211.8926, 11906.06
212.3748, 11991.22
212.8569, 12068.94
213.3390, 12140.57
213.8211, 12206.33
214.3032, 12264.37
214.7853, 12310.08
215.2675, 12335.64
215.7496, 12371.63
216.2317, 12433.25
216.7138, 12517.03
217.1959, 12559.01
217.6780, 12547.03
218.1602, 12510.33
218.6423, 12480.18
219.1244, 12470.58
219.6065, 12432.17
220.0886, 12345.96
220.5707, 12208.89
221.0529, 12093.78
221.5350, 12003.55
222.0171, 11929.54
222.4992, 11861.96
222.9813, 11802.62
223.4634, 11746.90
223.9456, 11692.90
224.4277, 11638.99
224.9098, 11598.85
225.3919, 11578.75
225.8740, 11565.76
226.3561, 11542.63
226.8383, 11501.13
227.3204, 11465.55
227.8025, 11443.42
228.2846, 11436.73
228.7667, 11431.02
229.2488, 11431.46
229.7310, 11428.94
230.2131, 11410.02
230.6952, 11366.94
231.1773, 11321.53
231.6594, 11280.61
232.1415, 11247.37
232.6237, 11202.50
233.1058, 11136.10
233.5879, 11064.76
234.0700, 11015.81
234.5521, 11006.95
235.0342, 10990.22
235.5164, 10943.87
235.9985, 10850.13
236.4806, 10798.66
236.9627, 10805.84
237.4448, 10845.68
237.9269, 10876.34
238.4091, 10890.36
238.8912, 10906.88
239.3733, 10934.68
239.8554, 10981.62
240.3375, 11011.72
240.8196, 11012.30
241.3018, 11002.64
241.7839, 11017.97
242.2660, 11068.64
242.7481, 11127.72
243.2302, 11187.15
243.7124, 11248.07
244.1945, 11305.12
244.6766, 11354.27
245.1587, 11401.40
245.6408, 11461.61
246.1229, 11550.49
246.6051, 11626.86
247.0872, 11669.65
247.5693, 11657.30
248.0514, 11676.07
248.5335, 11736.05
249.0156, 11823.12
249.4978, 11908.31
249.9799, 11995.02
250.4620, 12073.48
250.9441, 12135.70
251.4262, 12167.67
251.9083, 12225.90
252.3905, 12324.58
252.8726, 12442.76
253.3547, 12530.57
253.8368, 12573.07
254.3189, 12612.95
254.8010, 12669.41
255.2832, 12752.48
255.7653, 12822.44
256.2474, 12873.77
256.7295, 12914.37
257.2116, 12963.08
257.6937, 13030.08
258.1758, 13085.10
258.6580, 13111.59
259.1401, 13098.48
259.6222, 13095.26
260.1043, 13110.71
260.5865, 13130.93
261.0686, 13123.87
261.5507, 13081.73
262.0328, 13029.59
262.5149, 12979.16
262.9970, 12935.44
263.4792, 12873.31
263.9613, 12785.85
264.4434, 12684.14
264.9255, 12586.81
265.4076, 12487.62
265.8897, 12408.92
266.3719, 12369.47
266.8540, 12386.04
267.3361, 12365.36
267.8182, 12294.64
268.3003, 12198.01
268.7824, 12120.19
269.2646, 12062.58
269.7467, 12021.09
270.2288, 11999.57
270.7109, 12004.43
271.1930, 11988.34
271.6751, 11942.34
272.1573, 11885.04
272.6394, 11855.11
273.1215, 11860.01
273.6036, 11862.30
274.0857, 11840.46
274.5678, 11790.42
275.0500, 11760.78
275.5321, 11755.94
276.0142, 11764.83
276.4963, 11767.00
276.9784, 11760.42
277.4605, 11758.68
277.9427, 11772.37
278.4248, 11802.01
278.9069, 11816.00
279.3890, 11810.35
279.8711, 11796.29
280.3532, 11791.00
280.8354, 11794.99
281.3175, 11802.30
281.7996, 11812.40
282.2817, 11824.91
282.7638, 11830.47
283.2459, 11826.18
283.7281, 11822.68
284.2102, 11837.03
284.6923, 11869.39
285.1744, 11904.42
285.6565, 11930.60
286.1386, 11951.61
286.6208, 11996.36
287.1029, 12070.39
287.5850, 12148.19
288.0671, 12192.54
288.5492, 12206.37
289.0313, 12226.94
289.5135, 12274.84
289.9956, 12342.12
290.4777, 12399.59
290.9598, 12447.03
291.4419, 12488.13
291.9240, 12522.32
292.4062, 12551.82
292.8883, 12588.83
293.3704, 12649.27
293.8525, 12718.40
294.3346, 12756.91
294.8167, 12762.65
295.2989, 12761.87
295.7810, 12790.07
296.2631, 12835.54
296.7452, 12859.40
297.2273, 12834.54
297.7094, 12785.43
298.1916, 12751.46
298.6737, 12732.88
299.1558, 12721.63
299.6379, 12714.47
300.1200, 12709.54
300.6021, 12703.52
301.0843, 12706.61
301.5664, 12699.58
302.0485, 12649.47
302.5306, 12558.96
303.0127, 12465.31
303.4948, 12395.37
303.9770, 12340.58
304.4591, 12284.48
304.9412, 12211.56
305.4233, 12147.12
305.9054, 12127.67
306.3875, 12145.42
306.8697, 12154.61
307.3518, 12111.86
307.8339, 12048.24
308.3160, 12002.07
308.7981, 11991.57
309.2802, 11989.93
309.7624, 11981.02
310.2445, 11965.41
310.7266, 11945.46
311.2087, 11913.54
311.6908, 11882.12
312.1729, 11862.87
312.6551, 11862.12
313.1372, 11866.75
313.6193, 11872.56
314.1014, 11878.54
314.5835, 11881.90
315.0656, 11873.97
315.5478, 11867.89
316.0299, 11875.13
316.5120, 11907.63
316.9941, 11930.98
317.4762, 11923.59
317.9583, 11898.40
318.4405, 11880.40
318.9226, 11888.86
319.4047, 11897.71
319.8868, 11892.45
320.3690, 11864.67
320.8511, 11842.80
321.3332, 11837.45
321.8153, 11841.30
322.2974, 11843.05
322.7795, 11837.28
323.2617, 11832.12
323.7438, 11829.65
324.2259, 11829.68
324.7080, 11833.81
325.1901, 11852.56
325.6722, 11872.01
326.1544, 11875.73
326.6365, 11841.91
327.1186, 11813.84
327.6007, 11799.47
328.0828, 11799.70
328.5649, 11807.61
329.0471, 11831.50
329.5292, 11858.02
330.0113, 11876.15
330.4934, 11891.43
330.9755, 11889.53
331.4576, 11857.09
331.9398, 11796.01
332.4219, 11767.62
332.9040, 11788.92
333.3861, 11824.02
333.8682, 11846.09
334.3503, 11849.57
334.8325, 11854.64
335.3146, 11868.18
335.7967, 11885.55
336.2788, 11878.51
336.7609, 11833.64
337.2430, 11792.58
337.7252, 11784.47
338.2073, 11814.21
338.6894, 11852.12
339.1715, 11902.58
339.6536, 11955.00
340.1357, 11975.32
340.6179, 11957.02
341.1000, 11939.67
341.5821, 11948.70
342.0642, 11983.63
342.5463, 12010.38
343.0284, 12025.63
343.5106, 12034.79
343.9927, 12041.28
344.4748, 12045.27
344.9569, 12062.60
345.4390, 12109.62
345.9211, 12178.33
346.4033, 12233.50
346.8854, 12273.37
347.3675, 12305.58
347.8496, 12331.43
348.3317, 12354.32
348.8138, 12390.01
349.2960, 12454.86
349.7781, 12532.85
350.2602, 12595.09
350.7423, 12641.00
351.2244, 12684.55
351.7065, 12728.28
352.1887, 12779.29
352.6708, 12852.77
353.1529, 12975.27
353.6350, 13103.27
354.1171, 13184.21
354.5992, 13225.41
355.0814, 13270.55
355.5635, 13348.54
356.0456, 13446.51
356.5277, 13551.72
357.0098, 13669.92
357.4919, 13780.80
357.9741, 13855.71
358.4562, 13910.18
358.9383, 13992.08
359.4204, 14142.04
359.9025, 14315.70
360.3846, 14483.96
360.8668, 14642.79
361.3489, 14794.25
361.8310, 14921.48
362.3131, 15042.77
362.7952, 15190.11
363.2773, 15396.12
363.7595, 15608.13
364.2416, 15805.43
364.7237, 15983.83
365.2058, 16159.07
365.6879, 16326.13
366.1700, 16492.69
366.6522, 16666.69
367.1343, 16884.85
367.6164, 17072.95
368.0985, 17204.46
368.5806, 17275.14
369.0627, 17370.60
369.5449, 17508.50
370.0270, 17657.70
370.5091, 17799.77
370.9912, 17943.52
371.4733, 18063.53
371.9554, 18141.88
372.4376, 18190.80
372.9197, 18278.18
373.4018, 18421.58
373.8839, 18572.02
374.3660, 18704.11
374.8481, 18815.26
375.3303, 18911.22
375.8124, 18985.10
376.2945, 19050.31
376.7766, 19150.05
377.2587, 19296.00
377.7408, 19412.47
378.2230, 19456.51
378.7051, 19430.00
379.1872, 19404.73
379.6693, 19385.78
380.1514, 19353.94
380.6335, 19282.85
381.1157, 19173.52
381.5978, 19045.79
382.0799, 18914.56
382.5620, 18768.12
383.0442, 18570.63
383.5263, 18319.62
384.0084, 18049.38
384.4905, 17762.91
384.9726, 17476.86
385.4547, 17236.79
385.9369, 17062.56
386.4190, 16923.13
386.9011, 16790.34
387.3832, 16661.74
387.8653, 16531.25
388.3474, 16387.25
388.8296, 16241.92
389.3117, 16106.59
389.7938, 15978.00
390.2759, 15877.44
390.7580, 15844.78
391.2401, 15849.49
391.7223, 15827.15
392.2044, 15715.69
392.6865, 15596.25
393.1686, 15516.41
393.6507, 15489.22
394.1328, 15460.38
394.6150, 15398.75
395.0971, 15331.63
395.5792, 15288.99
396.0613, 15309.23
396.5434, 15321.67
397.0255, 15302.00
397.5077, 15249.88
397.9898, 15213.00
398.4719, 15224.43
398.9540, 15231.86
399.4361, 15202.22
399.9182, 15095.51
400.4004, 15011.52
400.8825, 14962.53
401.3646, 14939.56
401.8467, 14911.80
402.3288, 14871.71
402.8109, 14839.99
403.2931, 14831.99
403.7752, 14859.94
404.2573, 14855.83
404.7394, 14808.39
405.2215, 14743.35
405.7036, 14703.27
406.1858, 14691.73
406.6679, 14679.37
407.1500, 14652.17
407.6321, 14614.75
408.1142, 14597.81
408.5963, 14603.41
409.0785, 14617.18
409.5606, 14624.60
410.0427, 14627.58
410.5248, 14638.40
411.0069, 14666.06
411.4890, 14695.36
411.9712, 14694.59
412.4533, 14668.08
412.9354, 14643.99
413.4175, 14646.93
413.8996, 14662.75
414.3817, 14673.25
414.8639, 14677.50
415.3460, 14669.40
415.8281, 14637.21
416.3102, 14589.24
416.7923, 14541.53
417.2744, 14489.24
417.7566, 14449.87
418.2387, 14446.56
418.7208, 14481.72
419.2029, 14500.62
419.6850, 14471.36
420.1671, 14419.10
420.6493, 14366.80
421.1314, 14314.66
421.6135, 14269.63
422.0956, 14229.75
422.5777, 14196.80
423.0598, 14177.98
423.5420, 14195.23
424.0241, 14210.33
424.5062, 14202.65
424.9883, 14135.54
425.4704, 14116.05
425.9525, 14168.71
426.4347, 14257.94
426.9168, 14323.92
427.3989, 14362.85
427.8810, 14386.41
428.3631, 14392.97
428.8452, 14381.94
429.3274, 14386.26
429.8095, 14411.11
430.2916, 14439.80
430.7737, 14451.87
431.2558, 14445.61
431.7379, 14454.60
432.2201, 14490.23
432.7022, 14540.86
433.1843, 14569.00
433.6664, 14574.82
434.1485, 14598.62
434.6306, 14688.55
435.1128, 14816.83
435.5949, 14903.04
436.0770, 14934.09
436.5591, 14947.56
437.0412, 14971.45
437.5233, 15008.93
438.0055, 15067.79
438.4876, 15167.50
438.9697, 15280.41
439.4518, 15379.18
439.9339, 15464.55
440.4160, 15549.46
440.8982, 15644.74
441.3803, 15741.45
441.8624, 15831.55
442.3445, 15902.20
442.8266, 15980.30
443.3088, 16075.71
443.7909, 16186.32
444.2730, 16303.92
444.7551, 16443.27
445.2372, 16576.12
445.7194, 16687.53
446.2015, 16761.43
446.6836, 16857.86
447.1657, 16989.90
447.6478, 17139.00
448.1299, 17287.27
448.6121, 17444.65
449.0942, 17581.31
449.5763, 17686.36
450.0584, 17763.60
450.5405, 17840.62
451.0226, 17920.08
451.5048, 17994.57
451.9869, 18058.08
452.4690, 18109.84
452.9511, 18165.11
453.4332, 18228.50
453.9153, 18289.56
454.3975, 18331.45
454.8796, 18354.43
455.3617, 18357.32
455.8438, 18331.68
456.3259, 18286.63
456.8080, 18243.88
457.2902, 18204.31
457.7723, 18162.95
458.2544, 18114.16
458.7365, 18061.16
459.2186, 18011.84
459.7007, 17974.50
460.1829, 17932.06
460.6650, 17864.72
461.1471, 17779.38
461.6292, 17697.98
462.1113, 17633.24
462.5934, 17573.44
463.0756, 17510.49
463.5577, 17441.13
464.0398, 17375.19
464.5219, 17323.26
465.0040, 17273.50
465.4861, 17212.01
465.9683, 17130.94
466.4504, 17044.56
466.9325, 16950.60
467.4146, 16850.65
467.8967, 16758.18
468.3788, 16669.57
468.8610, 16592.65
469.3431, 16533.00
469.8252, 16495.48
470.3073, 16461.90
470.7894, 16434.95
471.2715, 16408.36
471.7537, 16366.21
472.2358, 16304.81
472.7179, 16255.38
473.2000, 16229.36
473.6821, 16224.47
474.1642, 16229.67
474.6464, 16244.67
475.1285, 16273.71
475.6106, 16327.39
476.0927, 16398.85
476.5748, 16468.32
477.0569, 16534.04
477.5391, 16592.70
478.0212, 16623.19
478.5033, 16640.71
478.9854, 16689.11
479.4675, 16817.45
479.9496, 16967.82
480.4318, 17090.90
480.9139, 17179.85
481.3960, 17278.50
481.8781, 17415.04
482.3602, 17567.25
482.8423, 17712.34
483.3245, 17840.10
483.8066, 17967.51
484.2887, 18104.04
484.7708, 18244.32
485.2529, 18368.08
485.7350, 18478.35
486.2172, 18569.75
486.6993, 18639.94
487.1814, 18686.80
487.6635, 18719.28
488.1456, 18739.52
488.6277, 18742.71
489.1099, 18722.16
489.5920, 18675.72
490.0741, 18614.35
490.5562, 18534.01
491.0383, 18443.19
491.5204, 18377.69
492.0026, 18338.30
492.4847, 18287.90
492.9668, 18181.21
493.4489, 18044.90
493.9310, 17960.29
494.4131, 17941.54
494.8953, 17932.67
495.3774, 17875.04
495.8595, 17785.23
496.3416, 17699.26
496.8237, 17633.81
497.3058, 17573.24
497.7880, 17511.88
498.2701, 17447.75
498.7522, 17367.30
499.2343, 17241.85
499.7164, 17114.79
500.1985, 17014.06
500.6807, 16957.86
501.1628, 16899.25
501.6449, 16834.84
502.1270, 16761.82
502.6091, 16675.05
503.0912, 16542.21
503.5734, 16438.25
504.0555, 16387.68
504.5376, 16384.40
505.0197, 16355.92
505.5019, 16291.22
505.9840, 16224.00
506.4661, 16174.84
506.9482, 16144.25
507.4303, 16121.20
507.9124, 16105.25
508.3946, 16096.27
508.8767, 16101.32
509.3588, 16117.30
509.8409, 16119.13
510.3230, 16085.75
510.8051, 16039.44
511.2873, 16022.13
511.7694, 16031.52
512.2515, 16045.74
512.7336, 16043.35
513.2157, 16040.44
513.6978, 16060.08
514.1799, 16116.25
514.6620, 16162.68
515.1442, 16162.36
515.6263, 16139.08
516.1084, 16128.21
516.5905, 16156.50
517.0726, 16181.88
517.5547, 16190.20
518.0369, 16181.89
518.5190, 16172.87
519.0011, 16153.28
519.4832, 16143.12
519.9653, 16155.44
520.4474, 16206.37
520.9296, 16235.79
521.4117, 16233.62
521.8938, 16221.79
522.3759, 16232.40
522.8580, 16267.19
523.3401, 16315.87
523.8223, 16388.99
524.3044, 16467.85
524.7865, 16485.82
525.2686, 16443.64
525.7507, 16396.59
526.2328, 16383.44
526.7150, 16393.59
527.1971, 16405.96
527.6792, 16417.91
528.1613, 16433.77
528.6434, 16464.69
529.1255, 16500.63
529.6077, 16526.42
530.0898, 16527.04
530.5719, 16524.72
531.0540, 16538.43
531.5361, 16561.92
532.0182, 16562.61
532.5004, 16503.81
532.9825, 16442.83
533.4646, 16407.07
533.9467, 16401.86
534.4288, 16410.14
534.9109, 16433.50
535.3931, 16469.32
535.8752, 16519.68
536.3574, 16596.80
536.8395, 16650.06
537.3216, 16665.89
537.8037, 16655.08
538.2858, 16652.06
538.7679, 16657.58
539.2501, 16662.04
539.7322, 16649.56
540.2143, 16630.93
540.6964, 16646.94
541.1785, 16700.25
541.6606, 16766.34
542.1428, 16826.81
542.6249, 16882.56
543.1070, 16935.56
543.5891, 16988.94
544.0712, 17035.73
544.5533, 17067.38
545.0355, 17088.64
545.5176, 17111.13
545.9997, 17136.31
546.4818, 17166.13
546.9639, 17197.20
547.4460, 17227.19
547.9282, 17279.93
548.4103, 17368.16
548.8924, 17471.28
549.3745, 17577.20
549.8566, 17687.67
550.3387, 17794.77
550.8209, 17889.75
551.3030, 17989.01
551.7851, 18125.06
552.2672, 18301.20
552.7493, 18490.31
553.2314, 18681.77
553.7136, 18879.11
554.1957, 19093.04
554.6778, 19323.57
555.1599, 19572.56
555.6420, 19835.17
556.1241, 20116.54
556.6063, 20429.25
557.0884, 20776.75
557.5705, 21133.27
558.0526, 21461.28
558.5347, 21790.07
559.0168, 22164.65
559.4990, 22630.77
559.9811, 23104.14
560.4632, 23555.69
560.9453, 23988.77
561.4274, 24424.68
561.9095, 24876.70
562.3917, 25316.62
562.8738, 25733.35
563.3559, 26113.38
563.8380, 26504.59
564.3201, 26922.47
564.8022, 27329.42
565.2844, 27696.40
565.7665, 28024.63
566.2486, 28318.96
566.7307, 28598.56
567.2128, 28820.95
567.6949, 28907.30
568.1771, 28863.70
568.6592, 28727.21
569.1413, 28503.14
569.6234, 28203.37
570.1055, 27829.22
570.5876, 27384.18
571.0698, 26898.64
571.5519, 26382.90
572.0340, 25839.70
572.5161, 25269.41
572.9982, 24649.46
573.4803, 24060.66
573.9625, 23536.40
574.4446, 23054.98
574.9267, 22602.38
575.4088, 22166.00
575.8909, 21766.37
576.3730, 21408.79
576.8552, 21093.70
577.3373, 20819.04
577.8194, 20595.35
578.3015, 20389.93
578.7836, 20181.23
579.2657, 19972.54
579.7479, 19792.70
580.2300, 19645.92
580.7121, 19504.79
581.1942, 19333.01
581.6763, 19145.53
582.1584, 18985.43
582.6406, 18870.59
583.1227, 18772.41
583.6048, 18664.02
584.0869, 18553.20
584.5690, 18456.88
585.0511, 18392.78
585.5333, 18335.70
586.0154, 18268.73
586.4975, 18192.54
586.9796, 18134.41
587.4617, 18123.62
587.9438, 18111.79
588.4260, 18073.38
588.9081, 17996.63
589.3902, 17925.78
589.8723, 17861.74
590.3544, 17803.26
590.8365, 17747.74
591.3187, 17693.66
591.8008, 17657.62
592.2829, 17650.55
592.7650, 17653.28
593.2471, 17613.51
593.7292, 17538.94
594.2114, 17488.07
594.6935, 17520.43
595.1756, 17579.11
595.6577, 17583.06
596.1398, 17533.99
596.6219, 17492.07
597.1041, 17507.23
597.5862, 17536.95
598.0683, 17545.31
598.5504, 17516.43
599.0325, 17487.79
599.5146, 17459.50
599.9968, 17439.20
600.4789, 17438.07
600.9610, 17476.57
601.4431, 17499.16
601.9252, 17490.72
602.4073, 17462.13
602.8895, 17453.50
603.3716, 17469.94
603.8537, 17480.89
604.3358, 17465.23
604.8179, 17430.80
605.3000, 17416.05
605.7822, 17421.63
606.2643, 17430.98
606.7464, 17432.49
607.2285, 17427.83
607.7106, 17419.50
608.1927, 17407.99
608.6749, 17393.06
609.1570, 17361.43
609.6391, 17329.75
610.1212, 17322.65
610.6033, 17377.96
611.0854, 17424.47
611.5676, 17437.29
612.0497, 17424.38
612.5318, 17423.63
613.0139, 17446.01
613.4960, 17463.41
613.9781, 17461.64
614.4603, 17440.82
614.9424, 17436.52
615.4245, 17452.16
615.9066, 17470.86
616.3887, 17481.70
616.8708, 17484.09
617.3530, 17468.67
617.8351, 17427.81
618.3172, 17398.27
618.7993, 17440.76
619.2814, 17519.77
619.7635, 17568.59
620.2457, 17531.88
620.7278, 17490.91
621.2099, 17495.41
621.6920, 17531.32
622.1741, 17555.67
622.6563, 17544.02
623.1384, 17532.16
623.6205, 17533.43
624.1026, 17548.58
624.5847, 17562.54
625.0668, 17581.74
625.5490, 17589.22
626.0311, 17560.94
626.5132, 17491.88
626.9953, 17474.93
627.4774, 17522.36
627.9595, 17594.47
628.4417, 17659.17
628.9238, 17710.06
629.4059, 17719.78
629.8880, 17661.40
630.3701, 17591.68
630.8522, 17565.35
631.3344, 17571.94
631.8165, 17585.48
632.2986, 17593.37
632.7807, 17607.13
633.2628, 17642.67
633.7449, 17698.41
634.2271, 17723.55
634.7092, 17678.48
635.1913, 17637.03
635.6734, 17636.35
636.1555, 17688.81
636.6376, 17720.96
637.1198, 17726.43
637.6019, 17725.21
638.0840, 17739.69
638.5661, 17768.27
639.0482, 17793.71
639.5303, 17814.49
640.0125, 17826.61
640.4946, 17815.47
640.9767, 17790.96
641.4588, 17776.99
641.9409, 17795.43
642.4230, 17818.09
642.9052, 17825.52
643.3873, 17821.29
643.8694, 17819.29
644.3515, 17819.30
644.8336, 17826.44
645.3157, 17845.28
645.7979, 17876.75
646.2800, 17905.44
646.7621, 17929.68
647.2442, 17953.30
647.7263, 17981.00
648.2084, 18014.22
648.6906, 18033.88
649.1727, 18036.19
649.6548, 18034.25
650.1369, 18047.00
650.6190, 18069.16
651.1011, 18083.59
651.5833, 18080.32
652.0654, 18076.31
652.5475, 18084.79
653.0296, 18104.56
653.5117, 18133.02
653.9938, 18183.94
654.4760, 18228.90
654.9581, 18257.67
655.4402, 18269.96
655.9223, 18267.61
656.4044, 18231.71
656.8865, 18206.01
657.3687, 18210.64
657.8508, 18247.85
658.3329, 18287.74
658.8150, 18331.34
659.2971, 18373.93
659.7793, 18405.85
660.2614, 18431.99
660.7435, 18482.66
661.2256, 18571.41
661.7078, 18641.08
662.1899, 18594.75
662.6720, 18497.33
663.1541, 18457.62
663.6362, 18566.31
664.1183, 18675.12
664.6005, 18709.22
665.0826, 18695.46
665.5647, 18696.07
666.0468, 18745.76
666.5289, 18782.15
667.0110, 18789.21
667.4932, 18770.61
667.9753, 18757.32
668.4574, 18753.79
668.9395, 18740.55
669.4216, 18693.86
669.9037, 18623.95
670.3859, 18597.03
670.8680, 18615.03
671.3501, 18637.93
671.8322, 18628.43
672.3143, 18602.87
672.7964, 18586.19
673.2786, 18587.04
673.7607, 18579.42
674.2428, 18543.25
674.7249, 18493.85
675.2070, 18448.12
675.6891, 18403.37
676.1713, 18370.71
676.6534, 18346.05
677.1355, 18335.33
677.6176, 18359.66
678.0997, 18437.36
678.5818, 18478.52
679.0640, 18442.55
679.5461, 18361.41
680.0282, 18330.64
680.5103, 18347.23
680.9924, 18377.64
681.4745, 18414.05
681.9567, 18446.44
682.4388, 18455.43
682.9209, 18442.47
683.4030, 18435.79
683.8851, 18461.80
684.3672, 18491.40
684.8494, 18502.73
685.3315, 18484.93
685.8136, 18475.86
686.2957, 18472.46
686.7778, 18482.88
687.2599, 18520.45
687.7421, 18597.26
688.2242, 18645.08
688.7063, 18652.50
689.1884, 18642.33
689.6705, 18646.16
690.1526, 18662.07
690.6348, 18681.80
691.1169, 18708.85
691.5990, 18729.17
692.0811, 18711.53
692.5632, 18675.13
693.0453, 18665.46
693.5275, 18748.18
694.0096, 18816.03
694.4917, 18803.83
694.9738, 18722.62
695.4559, 18685.25
695.9380, 18728.45
696.4202, 18769.38
696.9023, 18770.66
697.3844, 18732.47
697.8665, 18737.90
698.3486, 18797.09
698.8307, 18846.31
699.3129, 18815.10
699.7950, 18734.90
700.2771, 18704.57
700.7592, 18736.68
701.2413, 18766.89
701.7234, 18724.16
702.2056, 18658.25
702.6877, 18629.22
703.1698, 18677.37
703.6519, 18710.93
704.1340, 18692.09
704.6161, 18650.31
705.0983, 18623.25
705.5804, 18605.28
706.0625, 18618.25
706.5446, 18682.16
707.0267, 18762.51
707.5089, 18781.56
707.9910, 18739.58
708.4731, 18685.14
708.9552, 18623.17
709.4373, 18571.76
709.9194, 18569.45
710.4016, 18607.13
710.8837, 18647.83
711.3658, 18692.47
711.8479, 18717.05
712.3300, 18692.70
712.8121, 18621.76
713.2943, 18570.36
713.7764, 18557.02
714.2585, 18561.89
714.7406, 18580.90
715.2227, 18616.43
715.7048, 18645.34
716.1870, 18667.70
716.6691, 18682.46
717.1512, 18685.93
717.6333, 18680.21
718.1154, 18675.83
718.5975, 18674.38
719.0797, 18669.90
719.5618, 18640.02
720.0439, 18610.07
720.5260, 18620.18
721.0081, 18717.88
721.4902, 18781.10
721.9724, 18732.65
722.4545, 18637.46
722.9366, 18587.38
723.4187, 18607.40
723.9008, 18633.28
724.3829, 18660.07
724.8651, 18687.10
725.3472, 18716.93
725.8293, 18750.35
726.3114, 18767.90
726.7935, 18759.37
727.2756, 18735.49
727.7578, 18703.93
728.2399, 18670.13
728.7220, 18653.42
729.2041, 18678.21
729.6862, 18710.86
730.1683, 18735.79
730.6505, 18751.63
731.1326, 18753.26
731.6147, 18716.42
732.0968, 18689.50
732.5789, 18693.73
733.0610, 18730.15
733.5432, 18752.13
734.0253, 18757.25
734.5074, 18756.11
734.9895, 18748.82
735.4716, 18741.15
735.9537, 18759.00
736.4359, 18804.95
736.9180, 18850.26
737.4001, 18869.68
737.8822, 18876.37
738.3643, 18883.92
738.8464, 18895.76
739.3286, 18905.71
739.8107, 18910.38
740.2928, 18913.20
740.7749, 18916.93
741.2570, 18920.00
741.7391, 18929.81
742.2213, 18951.91
742.7034, 18972.71
743.1855, 18968.64
743.6676, 18942.51
744.1497, 18917.10
744.6318, 18896.66
745.1140, 18882.22
745.5961, 18878.25
746.0782, 18880.70
746.5603, 18881.66
747.0424, 18870.53
747.5245, 18865.25
748.0067, 18875.59
748.4888, 18897.41
748.9709, 18917.29
749.4530, 18938.52
749.9351, 18951.16
750.4172, 18949.51
750.8994, 18938.13
751.3815, 18933.35
751.8636, 18935.10
752.3457, 18946.25
752.8278, 18973.54
753.3099, 19008.94
753.7921, 19045.80
754.2742, 19081.71
754.7563, 19100.25
755.2384, 19074.97
755.7205, 19044.51
756.2026, 19028.67
756.6848, 19029.61
757.1669, 19047.82
757.6490, 19105.27
758.1311, 19150.31
758.6132, 19150.24
759.0953, 19101.51
759.5775, 19076.88
760.0596, 19078.63
760.5417, 19087.79
761.0238, 19086.90
761.5059, 19081.63
761.9880, 19083.64
762.4702, 19094.45
762.9523, 19109.13
763.4344, 19137.64
763.9165, 19160.85
764.3986, 19157.02
764.8807, 19094.37
765.3629, 19069.21
765.8450, 19112.46
766.3271, 19169.70
766.8092, 19185.99
767.2913, 19155.89
767.7734, 19124.84
768.2556, 19094.33
768.7377, 19075.29
769.2198, 19089.31
769.7019, 19125.98
770.1840, 19161.02
770.6661, 19192.72
771.1483, 19210.25
771.6304, 19188.63
772.1125, 19153.48
772.5946, 19141.98
773.0767, 19181.32
773.5588, 19221.53
774.0410, 19264.85
774.5231, 19301.94
775.0052, 19309.93
775.4873, 19283.59
775.9694, 19266.31
776.4515, 19271.40
776.9337, 19287.32
777.4158, 19294.70
777.8979, 19295.34
778.3800, 19295.07
778.8621, 19300.28
779.3442, 19301.95
779.8264, 19283.55
780.3085, 19255.98
780.7906, 19252.77
781.2727, 19320.19
781.7548, 19364.98
782.2369, 19358.54
782.7191, 19314.51
783.2012, 19293.40
783.6833, 19297.61
784.1655, 19305.94
784.6476, 19307.38
785.1297, 19307.53
785.6118, 19321.70
786.0939, 19346.74
786.5760, 19367.09
787.0582, 19369.24
787.5403, 19367.26
788.0224, 19363.16
788.5045, 19358.63
788.9866, 19378.01
789.4688, 19458.85
789.9509, 19516.08
790.4330, 19503.87
790.9151, 19428.21
791.3972, 19409.06
791.8793, 19450.88
792.3615, 19494.45
792.8436, 19490.71
793.3257, 19465.05
793.8078, 19467.96
794.2899, 19499.24
794.7720, 19525.81
795.2542, 19524.78
795.7363, 19516.52
796.2184, 19516.42
796.7005, 19528.95
797.1826, 19525.43
797.6647, 19487.24
798.1469, 19460.31
798.6290, 19483.76
799.1111, 19557.28
799.5932, 19587.21
800.0753, 19570.81
800.5574, 19548.23
801.0396, 19552.72
801.5217, 19573.27
802.0038, 19600.51
802.4859, 19634.83
802.9680, 19651.04
803.4501, 19612.00
803.9323, 19568.34
804.4144, 19562.69
804.8965, 19613.17
805.3786, 19634.68
805.8607, 19612.46
806.3428, 19588.77
806.8250, 19605.26
807.3071, 19655.89
807.7892, 19697.19
808.2713, 19726.33
808.7534, 19740.32
809.2355, 19726.73
809.7177, 19701.04
810.1998, 19680.12
810.6819, 19664.84
811.1640, 19661.66
811.6461, 19680.42
812.1282, 19706.82
812.6104, 19730.94
813.0925, 19756.20
813.5746, 19767.21
814.0567, 19761.83
814.5388, 19747.50
815.0209, 19723.56
815.5031, 19696.79
815.9852, 19695.22
816.4673, 19727.67
816.9494, 19755.88
817.4315, 19733.39
817.9136, 19699.78
818.3958, 19698.88
818.8779, 19769.71
819.3600, 19809.97
819.8421, 19796.08
820.3242, 19765.79
820.8063, 19754.24
821.2885, 19762.75
821.7706, 19778.90
822.2527, 19803.71
822.7348, 19827.26
823.2169, 19838.13
823.6990, 19839.89
824.1812, 19837.57
824.6633, 19829.09
825.1454, 19827.07
825.6275, 19839.95
826.1096, 19861.14
826.5917, 19885.32
827.0739, 19924.28
827.5560, 19939.06
828.0381, 19919.27
828.5202, 19891.33
829.0023, 19886.28
829.4844, 19901.90
829.9666, 19925.63
830.4487, 19958.26
830.9308, 19984.31
831.4129, 19987.50
831.8950, 19975.13
832.3771, 19953.50
832.8593, 19911.09
833.3414, 19888.49
833.8235, 19909.87
834.3056, 19944.84
834.7877, 19965.76
835.2698, 19966.86
835.7520, 19983.97
836.2341, 20023.98
836.7162, 20066.09
837.1983, 20091.40
837.6804, 20099.76
838.1625, 20086.22
838.6447, 20042.86
839.1268, 20006.38
839.6089, 20000.54
840.0910, 20012.83
840.5731, 20031.78
841.0552, 20067.80
841.5374, 20088.15
842.0195, 20090.13
842.5016, 20080.27
842.9837, 20058.35
843.4658, 20026.39
843.9479, 20018.74
844.4301, 20042.91
844.9122, 20067.61
845.3943, 20048.03
845.8764, 20016.70
846.3585, 20019.87
846.8406, 20083.21
847.3228, 20131.77
847.8049, 20132.83
848.2870, 20119.15
848.7691, 20115.02
849.2512, 20121.85
849.7333, 20131.98
850.2155, 20144.88
850.6976, 20162.38
851.1797, 20188.28
851.6618, 20219.96
852.1439, 20256.38
852.6260, 20299.99
853.1082, 20325.10
853.5903, 20301.69
854.0724, 20261.98
854.5545, 20229.59
855.0366, 20198.89
855.5187, 20206.41
856.0009, 20274.15
856.4830, 20340.91
856.9651, 20350.89
857.4472, 20311.27
857.9293, 20284.05
858.4114, 20272.36
858.8936, 20273.03
859.3757, 20289.00
859.8578, 20312.38
860.3399, 20338.44
860.8220, 20367.91
861.3041, 20386.42
861.7863, 20369.54
862.2684, 20360.78
862.7505, 20392.03
863.2326, 20468.11
863.7147, 20485.32
864.1968, 20436.44
864.6790, 20383.70
865.1611, 20371.78
865.6432, 20388.35
866.1253, 20417.34
866.6074, 20457.14
867.0895, 20497.03
867.5717, 20552.02
868.0538, 20589.11
868.5359, 20572.89
869.0180, 20503.30
869.5001, 20486.86
869.9822, 20539.38
870.4644, 20597.46
870.9465, 20628.85
871.4286, 20637.75
871.9107, 20627.11
872.3928, 20601.03
872.8749, 20589.99
873.3571, 20621.27
873.8392, 20666.88
874.3213, 20717.42
874.8034, 20769.57
875.2855, 20792.08
875.7676, 20754.96
876.2498, 20738.29
876.7319, 20777.67
877.2140, 20853.72
877.6961, 20887.52
878.1782, 20881.46
878.6603, 20866.45
879.1425, 20849.34
879.6246, 20837.95
880.1067, 20838.16
880.5888, 20850.25
881.0709, 20874.90
881.5530, 20927.04
882.0352, 20973.81
882.5173, 21003.73
882.9994, 21025.83
883.4815, 21065.94
883.9636, 21125.42
884.4457, 21180.77
884.9279, 21227.09
885.4100, 21262.29
885.8921, 21274.15
886.3742, 21273.43
886.8563, 21282.08
887.3384, 21327.66
887.8206, 21360.69
888.3027, 21339.76
888.7848, 21310.06
889.2669, 21339.37
889.7490, 21440.68
890.2311, 21550.87
890.7133, 21669.70
891.1954, 21769.43
891.6775, 21791.19
892.1596, 21766.05
892.6417, 21763.63
893.1238, 21800.09
893.6060, 21863.50
894.0881, 21973.27
894.5702, 22093.31
895.0523, 22183.87
895.5344, 22226.29
896.0165, 22285.06
896.4987, 22365.20
896.9808, 22451.09
897.4629, 22529.19
897.9450, 22600.09
898.4271, 22666.28
898.9092, 22727.23
899.3914, 22787.23
899.8735, 22830.96
900.3556, 22887.43
900.8377, 22986.25
901.3198, 23144.56
901.8019, 23276.71
902.2841, 23383.68
902.7662, 23460.53
903.2483, 23485.29
903.7304, 23471.72
904.2125, 23515.79
904.6946, 23613.37
905.1768, 23709.70
905.6589, 23764.91
906.1410, 23808.04
906.6232, 23863.38
907.1053, 23930.04
907.5874, 23990.52
908.0695, 24048.99
908.5516, 24089.34
909.0338, 24096.82
909.5159, 24086.79
909.9980, 24122.80
910.4801, 24200.78
910.9622, 24273.02
911.4443, 24320.27
911.9265, 24349.26
912.4086, 24360.67
912.8907, 24359.69
913.3728, 24357.85
913.8549, 24366.25
914.3370, 24363.92
914.8192, 24354.32
915.3013, 24327.72
915.7834, 24262.19
916.2655, 24159.17
916.7476, 24045.19
917.2297, 23925.04
917.7119, 23798.21
918.1940, 23646.11
918.6761, 23492.21
919.1582, 23370.77
919.6403, 23311.71
920.1224, 23245.54
920.6046, 23169.14
921.0867, 23076.32
921.5688, 22948.40
922.0509, 22783.55
922.5330, 22668.56
923.0151, 22610.37
923.4973, 22577.30
923.9794, 22547.74
924.4615, 22522.11
924.9436, 22497.01
925.4257, 22471.11
925.9078, 22463.67
926.3900, 22492.39
926.8721, 22529.18
927.3542, 22558.48
927.8363, 22582.10
928.3184, 22641.21
928.8005, 22737.87
929.2827, 22821.89
929.7648, 22844.70
930.2469, 22850.98
930.7290, 22888.91
931.2111, 22958.02
931.6932, 23052.30
932.1754, 23218.68
932.6575, 23350.39
933.1396, 23403.27
933.6217, 23412.34
934.1038, 23478.71
934.5859, 23604.10
935.0681, 23721.97
935.5502, 23806.06
936.0323, 23888.48
936.5144, 24021.47
936.9965, 24176.94
937.4786, 24309.94
937.9608, 24378.83
938.4429, 24464.53
938.9250, 24576.50
939.4071, 24713.92
939.8892, 24888.32
940.3713, 25104.22
940.8535, 25274.19
941.3356, 25384.82
941.8177, 25497.04
942.2998, 25680.36
942.7819, 25890.94
943.2640, 26069.70
943.7462, 26202.17
944.2283, 26359.01
944.7104, 26582.00
945.1925, 26804.87
945.6746, 26992.26
946.1567, 27147.41
946.6389, 27343.24
947.1210, 27581.02
947.6031, 27809.29
948.0852, 28000.12
948.5673, 28162.79
949.0494, 28297.78
949.5316, 28410.67
950.0137, 28526.24
950.4958, 28657.77
950.9779, 28783.36
951.4600, 28895.55
951.9421, 29001.47
952.4243, 29121.55
952.9064, 29254.04
953.3885, 29375.88
953.8706, 29480.33
954.3527, 29569.29
954.8348, 29641.36
955.3170, 29699.67
955.7991, 29748.13
956.2812, 29765.45
956.7633, 29816.05
957.2454, 29924.17
957.7275, 30032.96
958.2097, 30076.26
958.6918, 30065.45
959.1739, 30094.10
959.6560, 30168.75
960.1381, 30237.06
960.6202, 30258.17
961.1024, 30254.61
961.5845, 30233.32
962.0666, 30194.49
962.5487, 30191.84
963.0308, 30241.03
963.5129, 30300.53
963.9951, 30368.14
964.4772, 30427.36
964.9593, 30395.56
965.4414, 30294.49
965.9235, 30228.93
966.4056, 30283.77
966.8878, 30354.55
967.3699, 30374.35
967.8520, 30369.48
968.3341, 30400.28
968.8162, 30497.10
969.2983, 30549.11
969.7805, 30524.61
970.2626, 30494.94
970.7447, 30574.97
971.2268, 30727.06
971.7089, 30855.26
972.1910, 30940.34
972.6732, 31010.57
973.1553, 31082.36
973.6374, 31143.77
974.1195, 31186.74
974.6016, 31212.19
975.0837, 31213.79
975.5659, 31189.97
976.0480, 31149.26
976.5301, 31102.40
977.0122, 31039.20
977.4943, 30936.63
977.9764, 30799.90
978.4586, 30650.24
978.9407, 30468.70
979.4228, 30311.07
979.9049, 30225.61
980.3870, 30165.99
980.8691, 30002.23
981.3513, 29727.10
981.8334, 29496.84
982.3155, 29364.64
982.7976, 29252.96
983.2797, 29068.46
983.7618, 28846.76
984.2440, 28639.16
984.7261, 28465.40
985.2082, 28289.40
985.6903, 28107.34
986.1724, 27921.24
986.6545, 27724.99
987.1367, 27522.54
987.6188, 27354.64
988.1009, 27221.58
988.5830, 27090.35
989.0651, 26947.11
989.5472, 26787.62
990.0294, 26604.26
990.5115, 26397.98
990.9936, 26187.46
991.4757, 25966.40
991.9578, 25762.02
992.4399, 25588.79
992.9221, 25429.26
993.4042, 25225.45
993.8863, 24999.40
994.3684, 24829.18
994.8505, 24775.34
995.3326, 24714.39
995.8148, 24559.34
996.2969, 24375.28
996.7790, 24241.06
997.2611, 24178.89
997.7432, 24091.57
998.2253, 23970.40
998.7075, 23849.77
999.1896, 23755.76
999.6717, 23681.90
1000.154, 23620.44
1000.636, 23569.98
1001.118, 23527.55
1001.600, 23502.86
1002.082, 23473.13
1002.564, 23428.89
1003.047, 23373.01
1003.529, 23316.52
1004.011, 23259.16
1004.493, 23210.45
1004.975, 23172.22
1005.457, 23145.89
1005.939, 23142.39
1006.421, 23147.98
1006.903, 23141.60
1007.386, 23093.46
1007.868, 23072.67
1008.350, 23089.23
1008.832, 23117.31
1009.314, 23128.93
1009.796, 23129.52
1010.278, 23140.44
1010.760, 23163.26
1011.242, 23197.85
1011.725, 23267.63
1012.207, 23328.83
1012.689, 23340.10
1013.171, 23310.48
1013.653, 23317.80
1014.135, 23371.06
1014.617, 23421.21
1015.099, 23452.89
1015.582, 23469.30
1016.064, 23468.02
1016.546, 23456.71
1017.028, 23452.32
1017.510, 23481.33
1017.992, 23483.18
1018.474, 23430.32
1018.956, 23359.46
1019.438, 23304.13
1019.921, 23264.33
1020.403, 23210.89
1020.885, 23142.49
1021.367, 23076.42
1021.849, 23021.53
1022.331, 22979.06
1022.813, 22955.92
1023.295, 22950.30
1023.778, 22936.82
1024.260, 22921.08
1024.742, 22878.33
1025.224, 22786.98
1025.706, 22683.90
1026.188, 22659.86
1026.670, 22689.80
1027.152, 22700.49
1027.635, 22655.66
1028.117, 22614.10
1028.599, 22615.71
1029.081, 22621.88
1029.563, 22589.59
1030.045, 22505.21
1030.527, 22473.07
1031.009, 22497.55
1031.491, 22535.50
1031.974, 22560.85
1032.456, 22574.28
1032.938, 22574.88
1033.420, 22563.35
1033.902, 22543.61
1034.384, 22507.48
1034.866, 22476.62
1035.348, 22453.61
1035.830, 22440.71
1036.313, 22450.86
1036.795, 22475.98
1037.277, 22480.93
1037.759, 22450.66
1038.241, 22418.60
1038.723, 22389.04
1039.205, 22379.77
1039.687, 22416.33
1040.170, 22512.76
1040.652, 22549.48
1041.134, 22518.39
1041.616, 22480.85
1042.098, 22488.58
1042.580, 22508.23
1043.062, 22476.67
1043.544, 22412.77
1044.026, 22383.48
1044.509, 22448.15
1044.991, 22501.22
1045.473, 22526.61
1045.955, 22530.81
1046.437, 22518.50
1046.919, 22493.18
1047.401, 22474.13
1047.883, 22464.67
1048.365, 22460.79
1048.848, 22460.49
1049.330, 22463.98
1049.812, 22470.36
1050.294, 22479.13
1050.776, 22504.48
1051.258, 22552.14
1051.740, 22583.74
1052.222, 22572.59
1052.705, 22542.78
1053.187, 22525.01
1053.669, 22518.46
1054.151, 22521.08
1054.633, 22548.54
1055.115, 22560.11
1055.597, 22538.74
1056.079, 22516.66
1056.562, 22543.78
1057.044, 22607.49
1057.526, 22612.34
1058.008, 22551.19
1058.490, 22500.50
1058.972, 22516.79
1059.454, 22555.75
1059.936, 22594.63
1060.418, 22631.44
1060.901, 22664.37
1061.383, 22695.35
1061.865, 22707.12
1062.347, 22686.79
1062.829, 22662.08
1063.311, 22688.47
1063.793, 22730.63
1064.275, 22725.59
1064.757, 22618.68
1065.240, 22565.32
1065.722, 22595.02
1066.204, 22652.49
1066.686, 22704.35
1067.168, 22751.90
1067.650, 22810.34
1068.132, 22875.31
1068.614, 22910.79
1069.097, 22881.55
1069.579, 22835.71
1070.061, 22777.10
1070.543, 22724.77
1071.025, 22724.78
1071.507, 22786.45
1071.989, 22814.68
1072.471, 22789.69
1072.953, 22761.80
1073.436, 22787.83
1073.918, 22835.38
1074.400, 22875.98
1074.882, 22907.08
1075.364, 22898.93
1075.846, 22815.90
1076.328, 22771.50
1076.810, 22825.80
1077.292, 22935.00
1077.775, 23006.15
1078.257, 23044.24
1078.739, 23064.53
1079.221, 23071.59
1079.703, 23063.73
1080.185, 23010.63
1080.667, 22966.08
1081.149, 22987.00
1081.632, 23075.55
1082.114, 23109.74
1082.596, 23087.61
1083.078, 23071.05
1083.560, 23112.51
1084.042, 23170.67
1084.524, 23227.59
1085.006, 23274.99
1085.489, 23285.53
1085.971, 23243.98
1086.453, 23216.13
1086.935, 23214.10
1087.417, 23229.66
1087.899, 23265.84
1088.381, 23306.49
1088.863, 23322.16
1089.345, 23303.17
1089.828, 23295.44
1090.310, 23316.98
1090.792, 23337.85
1091.274, 23339.22
1091.756, 23332.50
1092.238, 23370.85
1092.720, 23441.38
1093.202, 23488.38
1093.685, 23474.09
1094.167, 23451.99
1094.649, 23435.85
1095.131, 23432.29
1095.613, 23449.09
1096.095, 23487.96
1096.577, 23537.36
1097.059, 23597.63
1097.542, 23644.92
1098.024, 23638.38
1098.506, 23628.53
1098.988, 23660.82
1099.470, 23730.54
1099.952, 23810.54
1100.434, 23914.92
1100.916, 23981.14
1101.398, 23990.77
1101.880, 23980.42
1102.363, 23987.51
1102.845, 24014.68
1103.327, 24067.81
1103.809, 24149.07
1104.291, 24247.01
1104.773, 24381.12
1105.255, 24500.24
1105.737, 24582.10
1106.220, 24632.85
1106.702, 24662.37
1107.184, 24674.57
1107.666, 24682.57
1108.148, 24679.21
1108.630, 24694.95
1109.112, 24763.04
1109.594, 24843.93
1110.077, 24901.86
1110.559, 24934.48
1111.041, 24963.66
1111.523, 24989.61
1112.005, 25018.78
1112.487, 25065.57
1112.969, 25108.54
1113.451, 25125.47
1113.933, 25124.48
1114.416, 25132.96
1114.898, 25159.45
1115.380, 25168.15
1115.862, 25151.34
1116.344, 25128.20
1116.826, 25123.11
1117.308, 25124.87
1117.790, 25116.69
1118.272, 25096.68
1118.755, 25082.27
1119.237, 25082.67
1119.719, 25077.09
1120.201, 25056.22
1120.683, 25029.06
1121.165, 25022.05
1121.647, 25023.65
1122.129, 24998.03
1122.612, 24918.07
1123.094, 24862.72
1123.576, 24892.91
1124.058, 24925.07
1124.540, 24900.50
1125.022, 24829.95
1125.504, 24814.47
1125.986, 24848.91
1126.469, 24893.00
1126.951, 24941.58
1127.433, 24975.61
1127.915, 24966.12
1128.397, 24944.48
1128.879, 24954.05
1129.361, 24997.01
1129.843, 25067.64
1130.325, 25169.22
1130.807, 25250.50
1131.290, 25227.19
1131.772, 25197.66
1132.254, 25262.89
1132.736, 25407.29
1133.218, 25530.50
1133.700, 25630.82
1134.182, 25699.59
1134.664, 25730.03
1135.147, 25747.59
1135.629, 25781.75
1136.111, 25825.26
1136.593, 25868.32
1137.075, 25909.01
1137.557, 25951.97
1138.039, 26004.25
1138.521, 26045.68
1139.004, 26063.97
1139.486, 26072.39
1139.968, 26122.35
1140.450, 26183.73
1140.932, 26180.25
1141.414, 26063.11
1141.896, 25940.14
1142.378, 25826.99
1142.860, 25734.97
1143.343, 25691.30
1143.825, 25679.49
1144.307, 25579.35
1144.789, 25408.77
1145.271, 25260.08
1145.753, 25215.40
1146.235, 25164.68
1146.717, 25037.47
1147.199, 24895.79
1147.682, 24815.24
1148.164, 24795.61
1148.646, 24745.77
1149.128, 24661.13
1149.610, 24586.17
1150.092, 24550.26
1150.574, 24537.62
1151.056, 24564.42
1151.539, 24602.78
1152.021, 24565.11
1152.503, 24437.78
1152.985, 24348.56
1153.467, 24322.97
1153.949, 24320.20
1154.431, 24314.19
1154.913, 24301.48
1155.396, 24277.97
1155.878, 24242.64
1156.360, 24199.99
1156.842, 24145.22
1157.324, 24103.19
1157.806, 24083.84
1158.288, 24075.51
1158.770, 24055.56
1159.252, 24039.10
1159.734, 24054.08
1160.217, 24124.30
1160.699, 24152.91
1161.181, 24123.84
1161.663, 24090.82
1162.145, 24089.14
1162.627, 24096.48
1163.109, 24059.28
1163.591, 23996.74
1164.074, 23952.91
1164.556, 23959.16
1165.038, 23959.97
1165.520, 23949.83
1166.002, 23936.25
1166.484, 23927.16
1166.966, 23919.22
1167.448, 23893.45
1167.931, 23856.76
1168.413, 23842.25
1168.895, 23882.28
1169.377, 23922.55
1169.859, 23954.19
1170.341, 23977.09
1170.823, 23989.44
1171.305, 23992.61
1171.787, 23987.69
1172.270, 23975.86
1172.752, 23976.71
1173.234, 24031.65
1173.716, 24062.84
1174.198, 24030.65
1174.680, 23966.55
1175.162, 23934.50
1175.644, 23931.74
1176.126, 23944.03
1176.609, 23971.91
1177.091, 23985.57
1177.573, 23939.44
1178.055, 23900.20
1178.537, 23915.74
1179.019, 23969.32
1179.501, 23980.08
1179.983, 23952.46
1180.466, 23940.38
1180.948, 23964.01
1181.430, 23995.35
1181.912, 24019.85
1182.394, 24038.94
1182.876, 24055.09
1183.358, 24068.35
1183.840, 24064.77
1184.323, 24044.71
1184.805, 24028.97
1185.287, 24034.92
1185.769, 24037.45
1186.251, 23994.40
1186.733, 23949.99
1187.215, 23966.29
1187.697, 24060.91
1188.179, 24111.96
1188.661, 24118.15
1189.144, 24109.83
1189.626, 24095.01
1190.108, 24085.84
1190.590, 24099.95
1191.072, 24124.83
1191.554, 24134.74
1192.036, 24125.91
1192.518, 24116.09
1193.001, 24106.19
1193.483, 24095.36
1193.965, 24078.59
1194.447, 24064.00
1194.929, 24057.62
1195.411, 24060.31
1195.893, 24075.14
1196.375, 24109.16
1196.858, 24123.48
1197.340, 24109.84
1197.822, 24092.55
1198.304, 24102.68
1198.786, 24117.60
1199.268, 24104.27
1199.750, 24066.52
1200.232, 24064.41
1200.714, 24108.27
1201.197, 24157.85
1201.679, 24209.76
1202.161, 24244.61
1202.643, 24220.59
1203.125, 24177.08
1203.607, 24162.60
1204.089, 24185.34
1204.571, 24198.84
1205.053, 24200.94
1205.536, 24195.92
1206.018, 24179.16
1206.500, 24169.90
1206.982, 24210.36
1207.464, 24267.72
1207.946, 24291.10
1208.428, 24259.45
1208.910, 24264.45
1209.393, 24321.51
1209.875, 24358.97
1210.357, 24338.24
1210.839, 24289.71
1211.321, 24240.55
1211.803, 24201.14
1212.285, 24186.87
1212.767, 24206.41
1213.250, 24246.91
1213.732, 24319.84
1214.214, 24371.77
1214.696, 24356.63
1215.178, 24313.13
1215.660, 24292.78
1216.142, 24289.15
1216.624, 24289.46
1217.106, 24286.98
1217.589, 24297.76
1218.071, 24323.63
1218.553, 24355.75
1219.035, 24398.71
1219.517, 24436.32
1219.999, 24445.41
1220.481, 24430.86
1220.963, 24404.93
1221.446, 24356.69
1221.928, 24328.05
1222.410, 24321.96
1222.892, 24334.94
1223.374, 24381.71
1223.856, 24433.30
1224.338, 24453.00
1224.820, 24443.30
1225.302, 24415.29
1225.785, 24343.42
1226.267, 24339.03
1226.749, 24429.55
1227.231, 24525.37
1227.713, 24517.51
1228.195, 24470.68
1228.677, 24459.49
1229.159, 24485.99
1229.641, 24523.24
1230.124, 24574.85
1230.606, 24614.82
1231.088, 24638.83
1231.570, 24649.39
1232.052, 24648.45
1232.534, 24636.22
1233.016, 24607.83
1233.498, 24564.91
1233.981, 24529.43
1234.463, 24497.79
1234.945, 24497.67
1235.427, 24544.27
1235.909, 24593.32
1236.391, 24585.66
1236.873, 24556.33
1237.355, 24537.81
1237.838, 24534.81
1238.320, 24563.67
1238.802, 24632.79
1239.284, 24677.03
1239.766, 24670.34
1240.248, 24651.17
1240.730, 24657.16
1241.212, 24676.55
1241.694, 24703.23
1242.177, 24736.19
1242.659, 24738.92
1243.141, 24708.47
1243.623, 24680.70
1244.105, 24667.31
1244.587, 24666.36
1245.069, 24676.69
1245.551, 24698.53
1246.033, 24740.88
1246.516, 24803.83
1246.998, 24823.06
1247.480, 24797.36
1247.962, 24783.75
1248.444, 24818.35
1248.926, 24851.44
1249.408, 24843.51
1249.890, 24812.12
1250.373, 24766.62
1250.855, 24706.00
1251.337, 24716.37
1251.819, 24792.67
1252.301, 24850.85
1252.783, 24837.06
1253.265, 24811.06
1253.747, 24793.87
1254.229, 24796.42
1254.712, 24839.63
1255.194, 24923.62
1255.676, 24930.25
1256.158, 24869.20
1256.640, 24821.50
1257.122, 24827.25
1257.604, 24859.76
1258.086, 24938.40
1258.568, 25013.10
1259.051, 25034.64
1259.533, 25008.40
1260.015, 24980.09
1260.497, 24953.82
1260.979, 24952.29
1261.461, 25031.74
1261.943, 25077.11
1262.425, 25033.71
1262.908, 24968.39
1263.390, 24942.18
1263.872, 24947.90
1264.354, 24958.35
1264.836, 24973.13
1265.318, 24994.11
1265.800, 25043.35
1266.282, 25065.93
1266.765, 25044.98
1267.247, 25012.16
1267.729, 25000.17
1268.211, 25001.38
1268.693, 24997.99
1269.175, 24989.77
1269.657, 24979.93
1270.139, 24952.06
1270.621, 24953.20
1271.104, 24995.30
1271.586, 25047.31
1272.068, 25084.86
1272.550, 25105.85
1273.032, 25094.40
1273.514, 25060.68
1273.996, 25055.00
1274.478, 25099.64
1274.960, 25134.82
1275.443, 25154.90
1275.925, 25161.31
1276.407, 25137.78
1276.889, 25114.80
1277.371, 25146.32
1277.853, 25212.70
1278.335, 25215.74
1278.817, 25130.86
1279.300, 25079.73
1279.782, 25077.33
1280.264, 25109.12
1280.746, 25203.43
1281.228, 25289.47
1281.710, 25288.58
1282.192, 25229.42
1282.674, 25210.04
1283.156, 25232.67
1283.639, 25255.14
1284.121, 25272.88
1284.603, 25271.62
1285.085, 25203.84
1285.567, 25152.03
1286.049, 25193.55
1286.531, 25273.80
1287.013, 25271.25
1287.495, 25199.01
1287.978, 25178.31
1288.460, 25224.92
1288.942, 25278.69
1289.424, 25317.91
1289.906, 25339.34
1290.388, 25334.27
1290.870, 25322.38
1291.352, 25357.81
1291.835, 25414.61
1292.317, 25395.78
1292.799, 25291.22
1293.281, 25228.95
1293.763, 25300.88
1294.245, 25358.78
1294.727, 25363.52
1295.209, 25354.82
1295.692, 25413.81
1296.174, 25492.48
1296.656, 25494.92
1297.138, 25413.64
1297.620, 25360.42
1298.102, 25347.16
1298.584, 25367.38
1299.066, 25431.93
1299.548, 25485.89
1300.031, 25436.42
1300.513, 25357.07
1300.995, 25324.63
1301.477, 25347.58
1301.959, 25408.66
1302.441, 25520.09
1302.923, 25560.69
1303.405, 25493.73
1303.887, 25422.31
1304.370, 25457.00
1304.852, 25511.14
1305.334, 25509.51
1305.816, 25469.90
1306.298, 25446.88
1306.780, 25438.93
1307.262, 25420.67
1307.744, 25384.51
1308.227, 25369.49
1308.709, 25418.22
1309.191, 25474.80
1309.673, 25517.48
1310.155, 25545.36
1310.637, 25554.57
1311.119, 25547.62
1311.601, 25526.13
1312.083, 25489.13
1312.566, 25473.46
1313.048, 25508.93
1313.530, 25542.57
1314.012, 25561.66
1314.494, 25571.82
1314.976, 25583.65
1315.458, 25591.46
1315.940, 25581.74
1316.422, 25553.37
1316.905, 25536.36
##END=



