##NAMES=Kellyite
##RRUFFID=R060903
##IDEAL CHEMISTRY=(Mn^2+^,Mg,Al)_3_(Si,Al)_2_O_5_(OH)_4_
##LOCALITY=Near Bald Knob, Alleghany County, North Carolina, USA
##OWNER=RRUFF
##SOURCE=Michael Scott
##DESCRIPTION=Light-yellow irregular to platy tablets
##STATUS=The identification of this mineral has been confirmed by X-ray diffraction and chemical analysis
##URL=rruff.info/R060903
##MEASURED CHEMISTRY=(Mn^2+^_1.77_Al_0.96_Mg_0.19_Fe^2+^_0.08_)_Σ=3_(Si_1.04_Al_0.96_)_Σ=2_O_5_(OH)_4_ ; trace amounts of F; the lighter fragment  up-right is kutnohorite: (Ca_0.81_Mn_0.19_)_Σ=1_(Mn_0.99_Mg_0.01_)_Σ=1_(CO_3_)_2_; C not measured but estimated by difference
142.2584, 991.5678
142.7406, 998.7211
143.2227, 1009.552
143.7048, 1018.266
144.1869, 1022.898
144.6690, 1032.876
145.1511, 1051.521
145.6333, 1072.521
146.1154, 1093.622
146.5975, 1114.182
147.0796, 1134.400
147.5617, 1155.557
148.0438, 1181.900
148.5260, 1197.877
149.0081, 1198.405
149.4902, 1194.395
149.9723, 1192.311
150.4544, 1193.455
150.9365, 1195.198
151.4187, 1193.367
151.9008, 1184.383
152.3829, 1178.730
152.8650, 1181.392
153.3471, 1183.719
153.8292, 1177.157
154.3114, 1160.369
154.7935, 1140.890
155.2756, 1131.242
155.7577, 1134.217
156.2398, 1144.398
156.7219, 1171.055
157.2041, 1199.296
157.6862, 1214.150
158.1683, 1211.518
158.6504, 1201.096
159.1325, 1200.773
159.6146, 1216.808
160.0968, 1235.849
160.5789, 1259.909
161.0610, 1285.834
161.5431, 1309.230
162.0252, 1328.660
162.5073, 1348.152
162.9895, 1376.217
163.4716, 1425.302
163.9537, 1466.625
164.4358, 1494.430
164.9179, 1515.914
165.4000, 1539.201
165.8822, 1567.310
166.3643, 1597.826
166.8464, 1625.605
167.3285, 1649.984
167.8106, 1672.436
168.2927, 1695.288
168.7749, 1715.552
169.2570, 1729.085
169.7391, 1734.061
170.2212, 1732.725
170.7033, 1730.177
171.1854, 1730.553
171.6676, 1723.773
172.1497, 1704.479
172.6318, 1678.042
173.1139, 1651.791
173.5960, 1628.368
174.0781, 1606.921
174.5603, 1585.731
175.0424, 1566.785
175.5245, 1544.820
176.0066, 1516.277
176.4887, 1484.365
176.9708, 1454.271
177.4530, 1427.771
177.9351, 1404.289
178.4172, 1382.958
178.8993, 1365.333
179.3814, 1346.240
179.8635, 1323.000
180.3457, 1297.622
180.8278, 1272.772
181.3099, 1249.082
181.7920, 1227.717
182.2741, 1212.938
182.7562, 1207.330
183.2384, 1201.165
183.7205, 1189.995
184.2026, 1176.592
184.6847, 1165.986
185.1668, 1160.197
185.6489, 1158.107
186.1311, 1157.798
186.6132, 1159.530
187.0953, 1161.791
187.5774, 1165.151
188.0595, 1168.664
188.5416, 1170.083
189.0238, 1168.163
189.5059, 1164.730
189.9880, 1163.881
190.4701, 1166.809
190.9522, 1168.609
191.4343, 1166.519
191.9165, 1162.350
192.3986, 1159.404
192.8807, 1158.564
193.3628, 1159.940
193.8449, 1165.211
194.3270, 1177.075
194.8092, 1184.154
195.2913, 1179.781
195.7734, 1168.492
196.2555, 1159.122
196.7376, 1154.535
197.2197, 1152.565
197.7019, 1149.545
198.1840, 1145.249
198.6661, 1141.120
199.1482, 1135.778
199.6303, 1131.121
200.1124, 1131.464
200.5946, 1138.924
201.0767, 1149.297
201.5588, 1156.077
202.0409, 1159.666
202.5230, 1160.389
203.0051, 1155.284
203.4873, 1147.951
203.9694, 1145.227
204.4515, 1149.749
204.9336, 1156.416
205.4157, 1156.823
205.8978, 1150.152
206.3800, 1145.470
206.8621, 1146.320
207.3442, 1150.144
207.8263, 1153.089
208.3084, 1154.235
208.7905, 1154.666
209.2727, 1155.739
209.7548, 1157.460
210.2369, 1159.335
210.7190, 1160.494
211.2011, 1162.018
211.6832, 1165.185
212.1654, 1170.197
212.6475, 1177.084
213.1296, 1186.149
213.6117, 1197.429
214.0938, 1209.842
214.5760, 1227.027
215.0581, 1243.514
215.5402, 1251.287
216.0223, 1248.691
216.5044, 1244.844
216.9865, 1248.847
217.4687, 1261.073
217.9508, 1276.217
218.4329, 1298.620
218.9150, 1320.976
219.3971, 1335.898
219.8792, 1342.655
220.3614, 1345.728
220.8435, 1349.385
221.3256, 1353.500
221.8077, 1352.915
222.2898, 1341.460
222.7719, 1329.327
223.2541, 1326.861
223.7362, 1333.838
224.2183, 1339.719
224.7004, 1335.905
225.1825, 1321.921
225.6646, 1308.818
226.1468, 1295.905
226.6289, 1284.310
227.1110, 1275.957
227.5931, 1270.165
228.0752, 1262.954
228.5573, 1250.654
229.0395, 1234.135
229.5216, 1223.456
230.0037, 1220.113
230.4858, 1220.461
230.9679, 1226.024
231.4500, 1234.570
231.9322, 1238.623
232.4143, 1232.512
232.8964, 1218.665
233.3785, 1212.194
233.8606, 1218.711
234.3427, 1225.087
234.8249, 1223.694
235.3070, 1218.789
235.7891, 1220.616
236.2712, 1235.256
236.7533, 1258.611
237.2354, 1275.121
237.7176, 1281.301
238.1997, 1286.084
238.6818, 1289.320
239.1639, 1292.664
239.6460, 1299.835
240.1281, 1312.824
240.6103, 1327.745
241.0924, 1335.004
241.5745, 1326.308
242.0566, 1321.611
242.5387, 1324.033
243.0208, 1330.530
243.5030, 1338.194
243.9851, 1346.041
244.4672, 1354.099
244.9493, 1362.555
245.4314, 1374.365
245.9135, 1380.907
246.3957, 1378.043
246.8778, 1372.566
247.3599, 1369.834
247.8420, 1371.046
248.3241, 1374.425
248.8062, 1377.371
249.2884, 1377.871
249.7705, 1384.225
250.2526, 1398.291
250.7347, 1415.832
251.2168, 1436.454
251.6989, 1458.845
252.1811, 1478.533
252.6632, 1489.349
253.1453, 1486.989
253.6274, 1501.621
254.1095, 1543.370
254.5916, 1590.086
255.0738, 1636.461
255.5559, 1680.381
256.0380, 1719.340
256.5201, 1750.026
257.0022, 1772.583
257.4843, 1804.593
257.9665, 1864.555
258.4486, 1915.016
258.9307, 1937.568
259.4128, 1945.468
259.8949, 1948.853
260.3770, 1901.503
260.8592, 1964.843
261.3413, 2005.952
261.8234, 2026.028
262.3055, 1962.072
262.7876, 2006.625
263.2697, 2007.693
263.7519, 2006.980
264.2340, 2066.806
264.7161, 2015.072
265.1982, 2073.938
265.6803, 2088.654
266.1624, 2081.597
266.6446, 2071.916
267.1267, 2057.593
267.6088, 2041.411
268.0909, 2024.161
268.5730, 2007.620
269.0551, 1995.383
269.5373, 1989.235
270.0194, 1979.018
270.5015, 1956.296
270.9836, 1933.721
271.4657, 1921.038
271.9478, 1918.166
272.4300, 1913.414
272.9121, 1893.439
273.3942, 1858.913
273.8763, 1829.804
274.3584, 1808.896
274.8405, 1793.587
275.3227, 1782.826
275.8048, 1776.023
276.2869, 1770.896
276.7690, 1765.295
277.2511, 1760.266
277.7332, 1760.415
278.2154, 1768.748
278.6975, 1775.949
279.1796, 1775.299
279.6617, 1769.214
280.1438, 1762.235
280.6259, 1755.805
281.1081, 1749.428
281.5902, 1742.289
282.0723, 1734.283
282.5544, 1725.957
283.0365, 1715.885
283.5186, 1706.274
284.0008, 1700.883
284.4829, 1698.810
284.9650, 1702.792
285.4471, 1720.848
285.9292, 1749.899
286.4113, 1768.949
286.8935, 1765.370
287.3756, 1750.569
287.8577, 1748.235
288.3398, 1761.956
288.8219, 1777.706
289.3040, 1791.628
289.7862, 1803.401
290.2683, 1811.431
290.7504, 1814.379
291.2325, 1816.794
291.7146, 1827.105
292.1967, 1848.960
292.6789, 1863.399
293.1610, 1863.224
293.6431, 1856.919
294.1252, 1853.202
294.6073, 1853.265
295.0894, 1852.296
295.5716, 1845.008
296.0537, 1829.976
296.5358, 1817.440
297.0179, 1804.847
297.5000, 1796.587
297.9821, 1800.755
298.4643, 1812.597
298.9464, 1816.744
299.4285, 1800.907
299.9106, 1767.413
300.3927, 1744.009
300.8748, 1734.100
301.3570, 1729.998
301.8391, 1733.848
302.3212, 1741.615
302.8033, 1748.885
303.2854, 1753.687
303.7675, 1755.062
304.2497, 1749.565
304.7318, 1726.341
305.2139, 1714.496
305.6960, 1722.782
306.1781, 1737.722
306.6602, 1749.193
307.1424, 1754.476
307.6245, 1756.340
308.1066, 1758.622
308.5887, 1762.291
309.0708, 1762.426
309.5529, 1756.388
310.0351, 1748.666
310.5172, 1741.924
310.9993, 1735.533
311.4814, 1726.514
311.9635, 1710.502
312.4456, 1688.945
312.9278, 1674.083
313.4099, 1672.054
313.8920, 1667.055
314.3741, 1651.446
314.8562, 1628.408
315.3383, 1602.768
315.8205, 1574.566
316.3026, 1546.920
316.7847, 1524.832
317.2668, 1508.766
317.7489, 1495.991
318.2310, 1490.616
318.7132, 1485.180
319.1953, 1469.008
319.6774, 1437.858
320.1595, 1404.456
320.6416, 1376.329
321.1237, 1353.329
321.6059, 1336.266
322.0880, 1327.005
322.5701, 1320.771
323.0522, 1310.122
323.5343, 1294.612
324.0164, 1281.171
324.4986, 1270.156
324.9807, 1262.898
325.4628, 1263.655
325.9449, 1272.989
326.4270, 1281.081
326.9091, 1276.940
327.3913, 1259.311
327.8734, 1253.968
328.3555, 1274.304
328.8376, 1294.265
329.3197, 1295.215
329.8018, 1282.906
330.2840, 1276.086
330.7661, 1286.581
331.2482, 1310.695
331.7303, 1331.160
332.2124, 1346.800
332.6945, 1360.222
333.1767, 1370.310
333.6588, 1378.919
334.1409, 1388.642
334.6230, 1400.207
335.1051, 1411.573
335.5872, 1419.467
336.0694, 1422.705
336.5515, 1424.886
337.0336, 1425.851
337.5157, 1426.084
337.9979, 1428.625
338.4800, 1431.619
338.9621, 1427.931
339.4442, 1408.105
339.9263, 1373.365
340.4084, 1349.841
340.8906, 1341.442
341.3727, 1339.640
341.8548, 1345.778
342.3369, 1354.619
342.8190, 1357.369
343.3011, 1348.694
343.7833, 1334.609
344.2654, 1323.949
344.7475, 1316.462
345.2296, 1314.051
345.7117, 1319.752
346.1938, 1329.702
346.6760, 1339.721
347.1581, 1349.423
347.6402, 1359.634
348.1223, 1370.486
348.6044, 1382.271
349.0865, 1396.333
349.5687, 1413.606
350.0508, 1431.589
350.5329, 1446.601
351.0150, 1458.927
351.4971, 1474.338
351.9792, 1495.222
352.4614, 1518.630
352.9435, 1546.251
353.4256, 1576.130
353.9077, 1595.559
354.3898, 1592.758
354.8719, 1571.754
355.3541, 1566.022
355.8362, 1585.870
356.3183, 1605.667
356.8004, 1620.468
357.2825, 1630.444
357.7646, 1634.676
358.2468, 1632.917
358.7289, 1628.923
359.2110, 1629.935
359.6931, 1640.719
360.1752, 1647.223
360.6573, 1647.357
361.1395, 1645.561
361.6216, 1644.205
362.1037, 1643.578
362.5858, 1643.158
363.0679, 1643.368
363.5500, 1643.936
364.0322, 1638.049
364.5143, 1616.758
364.9964, 1601.263
365.4785, 1600.717
365.9606, 1609.095
366.4427, 1617.777
366.9249, 1623.184
367.4070, 1627.786
367.8891, 1636.406
368.3712, 1649.792
368.8533, 1659.600
369.3354, 1661.200
369.8176, 1659.846
370.2997, 1660.284
370.7818, 1662.594
371.2639, 1667.832
371.7460, 1678.440
372.2281, 1691.954
372.7103, 1703.260
373.1924, 1711.246
373.6745, 1719.242
374.1566, 1730.841
374.6387, 1745.638
375.1208, 1757.505
375.6030, 1759.031
376.0851, 1764.061
376.5672, 1781.641
377.0493, 1809.556
377.5314, 1840.894
378.0135, 1872.136
378.4957, 1904.947
378.9778, 1943.944
379.4599, 1983.930
379.9420, 2037.819
380.4241, 2116.654
380.9063, 2202.821
381.3884, 2283.269
381.8705, 2354.665
382.3526, 2418.765
382.8347, 2477.028
383.3168, 2529.887
383.7990, 2574.990
384.2811, 2618.149
384.7632, 2646.408
385.2453, 2653.181
385.7274, 2642.826
386.2095, 2621.663
386.6917, 2591.256
387.1738, 2555.177
387.6559, 2517.911
388.1380, 2477.209
388.6201, 2446.257
389.1022, 2424.165
389.5844, 2418.315
390.0665, 2438.766
390.5486, 2487.252
391.0307, 2541.866
391.5128, 2590.738
391.9949, 2636.002
392.4771, 2685.960
392.9592, 2743.644
393.4413, 2793.856
393.9234, 2823.116
394.4055, 2831.891
394.8876, 2836.294
395.3698, 2846.715
395.8519, 2843.647
396.3340, 2812.696
396.8161, 2759.350
397.2982, 2695.278
397.7803, 2624.641
398.2625, 2551.875
398.7446, 2486.781
399.2267, 2443.447
399.7088, 2385.630
400.1909, 2301.340
400.6730, 2211.961
401.1552, 2131.050
401.6373, 2060.783
402.1194, 1995.504
402.6015, 1929.706
403.0836, 1863.705
403.5657, 1810.176
404.0479, 1774.215
404.5300, 1744.086
405.0121, 1719.009
405.4942, 1695.979
405.9763, 1670.211
406.4584, 1638.934
406.9406, 1609.012
407.4227, 1591.507
407.9048, 1586.237
408.3869, 1575.168
408.8690, 1549.342
409.3511, 1523.107
409.8333, 1512.794
410.3154, 1516.875
410.7975, 1518.370
411.2796, 1508.877
411.7617, 1495.321
412.2438, 1486.631
412.7260, 1482.720
413.2081, 1475.933
413.6902, 1459.784
414.1723, 1437.762
414.6544, 1426.954
415.1365, 1435.781
415.6187, 1442.967
416.1008, 1443.362
416.5829, 1440.503
417.0650, 1437.683
417.5471, 1435.980
418.0292, 1435.962
418.5114, 1438.593
418.9935, 1444.453
419.4756, 1449.627
419.9577, 1454.479
420.4398, 1458.282
420.9219, 1458.591
421.4041, 1458.035
421.8862, 1461.904
422.3683, 1473.865
422.8504, 1488.556
423.3325, 1494.598
423.8146, 1490.073
424.2968, 1489.142
424.7789, 1499.672
425.2610, 1511.588
425.7431, 1514.088
426.2252, 1506.974
426.7073, 1502.381
427.1895, 1509.807
427.6716, 1521.986
428.1537, 1525.095
428.6358, 1517.958
429.1179, 1514.327
429.6000, 1524.148
430.0822, 1545.274
430.5643, 1564.964
431.0464, 1577.903
431.5285, 1595.904
432.0106, 1623.257
432.4927, 1657.129
432.9749, 1694.609
433.4570, 1734.484
433.9391, 1776.628
434.4212, 1820.630
434.9033, 1866.089
435.3854, 1915.427
435.8676, 1965.058
436.3497, 2022.369
436.8318, 2097.976
437.3139, 2181.955
437.7960, 2256.911
438.2781, 2313.334
438.7603, 2359.122
439.2424, 2411.807
439.7245, 2474.570
440.2066, 2519.494
440.6887, 2533.829
441.1708, 2531.609
441.6530, 2528.733
442.1351, 2525.068
442.6172, 2509.889
443.0993, 2472.514
443.5814, 2423.899
444.0635, 2377.717
444.5457, 2334.802
445.0278, 2292.487
445.5099, 2249.476
445.9920, 2205.779
446.4741, 2162.660
446.9562, 2118.474
447.4384, 2076.774
447.9205, 2038.581
448.4026, 2002.671
448.8847, 1968.112
449.3668, 1934.618
449.8489, 1903.132
450.3311, 1874.727
450.8132, 1849.704
451.2953, 1824.269
451.7774, 1798.934
452.2595, 1772.476
452.7416, 1745.397
453.2238, 1716.904
453.7059, 1684.889
454.1880, 1648.250
454.6701, 1610.990
455.1522, 1576.652
455.6343, 1545.386
456.1165, 1520.180
456.5986, 1504.044
457.0807, 1489.718
457.5628, 1468.076
458.0449, 1440.814
458.5270, 1418.307
459.0092, 1403.249
459.4913, 1393.097
459.9734, 1387.168
460.4555, 1384.678
460.9376, 1384.068
461.4197, 1384.968
461.9019, 1385.718
462.3840, 1382.185
462.8661, 1366.323
463.3482, 1361.621
463.8303, 1378.241
464.3124, 1396.638
464.7946, 1402.896
465.2767, 1399.424
465.7588, 1397.927
466.2409, 1407.047
466.7230, 1423.438
467.2051, 1435.581
467.6873, 1441.814
468.1694, 1448.825
468.6515, 1460.062
469.1336, 1472.043
469.6157, 1483.096
470.0978, 1493.096
470.5800, 1498.032
471.0621, 1493.703
471.5442, 1483.521
472.0263, 1472.009
472.5084, 1459.596
472.9905, 1449.534
473.4727, 1445.667
473.9548, 1445.769
474.4369, 1437.229
474.9190, 1412.336
475.4011, 1390.243
475.8832, 1376.492
476.3654, 1366.195
476.8475, 1354.559
477.3296, 1340.519
477.8117, 1324.902
478.2938, 1307.716
478.7759, 1288.958
479.2581, 1276.912
479.7402, 1280.424
480.2223, 1277.766
480.7044, 1256.926
481.1865, 1229.063
481.6686, 1207.710
482.1508, 1196.903
482.6329, 1190.702
483.1150, 1184.657
483.5971, 1178.949
484.0792, 1174.622
484.5613, 1172.354
485.0435, 1169.379
485.5256, 1162.348
486.0077, 1151.814
486.4898, 1144.839
486.9719, 1144.901
487.4540, 1144.773
487.9362, 1140.113
488.4183, 1133.599
488.9004, 1129.477
489.3825, 1129.086
489.8646, 1131.026
490.3467, 1133.489
490.8289, 1136.363
491.3110, 1140.318
491.7931, 1148.856
492.2752, 1154.695
492.7573, 1153.663
493.2394, 1148.875
493.7216, 1145.135
494.2037, 1144.000
494.6858, 1145.478
495.1679, 1149.242
495.6500, 1155.442
496.1321, 1167.381
496.6143, 1189.741
497.0964, 1208.553
497.5785, 1204.897
498.0606, 1181.557
498.5427, 1170.098
499.0248, 1182.483
499.5070, 1198.531
499.9891, 1206.619
500.4712, 1210.269
500.9533, 1217.802
501.4355, 1232.288
501.9176, 1248.516
502.3997, 1257.345
502.8818, 1254.882
503.3639, 1259.683
503.8460, 1278.538
504.3282, 1298.103
504.8103, 1312.740
505.2924, 1324.864
505.7745, 1339.328
506.2566, 1358.508
506.7387, 1379.664
507.2209, 1399.246
507.7030, 1417.469
508.1851, 1437.750
508.6672, 1461.958
509.1493, 1485.952
509.6314, 1504.529
510.1136, 1518.234
510.5957, 1534.529
511.0778, 1556.944
511.5599, 1579.316
512.0420, 1595.759
512.5241, 1610.244
513.0062, 1632.506
513.4883, 1665.778
513.9705, 1700.468
514.4526, 1720.905
514.9347, 1723.571
515.4168, 1727.581
515.8989, 1736.888
516.3810, 1743.211
516.8632, 1742.043
517.3453, 1736.235
517.8274, 1730.397
518.3095, 1725.927
518.7916, 1722.895
519.2737, 1724.457
519.7559, 1728.513
520.2380, 1722.904
520.7201, 1703.134
521.2022, 1680.983
521.6843, 1667.932
522.1664, 1663.992
522.6486, 1655.221
523.1307, 1639.278
523.6128, 1621.146
524.0949, 1598.978
524.5770, 1577.083
525.0591, 1564.061
525.5413, 1561.398
526.0234, 1558.111
526.5055, 1538.740
526.9876, 1501.671
527.4697, 1472.824
527.9518, 1455.343
528.4340, 1442.086
528.9161, 1435.342
529.3982, 1428.809
529.8803, 1412.314
530.3624, 1381.179
530.8445, 1350.554
531.3267, 1330.335
531.8088, 1318.814
532.2909, 1313.589
532.7730, 1314.450
533.2551, 1315.839
533.7372, 1314.046
534.2194, 1309.013
534.7015, 1300.161
535.1836, 1283.187
535.6657, 1268.235
536.1478, 1255.132
536.6299, 1245.759
537.1121, 1245.342
537.5942, 1252.356
538.0763, 1255.934
538.5584, 1244.974
539.0405, 1222.739
539.5226, 1204.452
540.0048, 1189.516
540.4869, 1180.840
540.9690, 1185.492
541.4511, 1193.192
541.9332, 1189.745
542.4153, 1172.920
542.8975, 1158.565
543.3796, 1156.207
543.8617, 1156.769
544.3438, 1149.734
544.8259, 1136.061
545.3080, 1123.496
545.7902, 1116.355
546.2723, 1113.498
546.7544, 1112.245
547.2365, 1114.942
547.7186, 1114.564
548.2007, 1110.125
548.6829, 1103.571
549.1650, 1094.760
549.6471, 1084.667
550.1292, 1075.599
550.6113, 1069.305
551.0934, 1063.611
551.5756, 1055.059
552.0577, 1044.028
552.5398, 1033.622
553.0219, 1025.047
553.5040, 1016.384
553.9861, 1004.608
554.4683, 989.2384
554.9504, 978.4929
555.4325, 980.4636
555.9146, 978.3355
556.3967, 959.9747
556.8788, 934.9841
557.3610, 917.1392
557.8431, 910.7290
558.3252, 910.5143
558.8073, 911.6951
559.2894, 914.3160
559.7715, 912.6849
560.2537, 904.4617
560.7358, 896.4377
561.2179, 893.9792
561.7000, 892.7925
562.1821, 885.8756
562.6642, 869.7248
563.1464, 857.9119
563.6285, 862.9612
564.1106, 873.3438
564.5927, 871.5137
565.0748, 857.6121
565.5569, 846.0767
566.0391, 847.2213
566.5212, 856.7845
567.0033, 858.6384
567.4854, 847.5475
567.9675, 838.0430
568.4496, 830.4512
568.9318, 825.0901
569.4139, 822.3991
569.8960, 822.1599
570.3781, 824.0087
570.8602, 829.8234
571.3423, 835.0768
571.8245, 831.6175
572.3066, 820.8804
572.7887, 813.2852
573.2708, 812.2936
573.7529, 813.3522
574.2350, 810.7848
574.7172, 803.8714
575.1993, 801.0102
575.6814, 804.9579
576.1635, 809.5563
576.6456, 814.0641
577.1277, 817.3016
577.6099, 817.5482
578.0920, 814.5054
578.5741, 810.2480
579.0562, 806.6635
579.5383, 803.7488
580.0204, 801.0481
580.5026, 797.7272
580.9847, 797.5416
581.4668, 804.4022
581.9489, 814.3597
582.4310, 820.5772
582.9132, 822.8085
583.3953, 822.3354
583.8774, 817.9639
584.3596, 812.2344
584.8417, 806.6085
585.3238, 801.5919
585.8059, 797.9531
586.2880, 796.1490
586.7701, 795.7809
587.2523, 796.3530
587.7344, 798.4404
588.2165, 799.0823
588.6986, 796.8821
589.1807, 794.5262
589.6628, 793.2996
590.1450, 793.0376
590.6271, 793.2869
591.1092, 793.6999
591.5913, 795.0287
592.0734, 798.9590
592.5555, 803.8414
593.0377, 806.2773
593.5198, 805.8008
594.0019, 804.8528
594.4840, 805.4302
594.9661, 807.3967
595.4482, 809.7276
595.9304, 813.1181
596.4125, 815.7653
596.8946, 816.5841
597.3767, 817.3354
597.8588, 819.6134
598.3409, 823.2241
598.8231, 826.5804
599.3052, 830.3630
599.7873, 832.1379
600.2694, 825.2952
600.7515, 812.3413
601.2336, 807.1636
601.7158, 814.8255
602.1979, 828.2380
602.6800, 839.1913
603.1621, 847.3615
603.6442, 855.3959
604.1263, 864.7370
604.6085, 872.2519
605.0906, 876.7366
605.5727, 879.1105
606.0548, 879.7974
606.5369, 879.1251
607.0190, 878.8018
607.5012, 879.7217
607.9833, 882.1896
608.4654, 887.4539
608.9475, 895.6176
609.4296, 904.1945
609.9117, 911.6680
610.3939, 919.5506
610.8760, 930.8039
611.3581, 947.1001
611.8402, 961.6339
612.3223, 974.5883
612.8044, 985.4006
613.2866, 991.2388
613.7687, 995.4661
614.2508, 1003.869
614.7329, 1018.571
615.2150, 1035.623
615.6971, 1051.364
616.1793, 1065.517
616.6614, 1075.365
617.1435, 1078.950
617.6256, 1085.848
618.1077, 1101.776
618.5898, 1124.398
619.0720, 1148.487
619.5541, 1176.498
620.0362, 1199.899
620.5183, 1214.951
621.0004, 1226.970
621.4825, 1237.514
621.9647, 1248.298
622.4468, 1262.662
622.9289, 1282.454
623.4110, 1304.357
623.8931, 1324.345
624.3752, 1342.366
624.8574, 1354.674
625.3395, 1359.185
625.8216, 1362.120
626.3037, 1367.486
626.7858, 1374.361
627.2679, 1380.491
627.7501, 1390.682
628.2322, 1391.237
628.7143, 1370.006
629.1964, 1343.844
629.6785, 1327.094
630.1606, 1320.083
630.6428, 1318.182
631.1249, 1319.703
631.6070, 1319.887
632.0891, 1305.912
632.5712, 1276.065
633.0533, 1254.792
633.5355, 1247.989
634.0176, 1245.366
634.4997, 1237.926
634.9818, 1228.600
635.4639, 1227.235
635.9460, 1242.160
636.4282, 1253.607
636.9103, 1247.012
637.3924, 1239.054
637.8745, 1249.371
638.3566, 1276.579
638.8387, 1304.702
639.3209, 1322.675
639.8030, 1336.118
640.2851, 1358.532
640.7672, 1390.743
641.2493, 1425.849
641.7314, 1465.969
642.2136, 1504.122
642.6957, 1532.279
643.1778, 1553.537
643.6599, 1579.415
644.1420, 1611.257
644.6241, 1647.323
645.1063, 1693.782
645.5884, 1739.979
646.0705, 1772.928
646.5526, 1793.367
647.0347, 1812.735
647.5168, 1840.467
647.9990, 1868.622
648.4811, 1876.212
648.9632, 1861.653
649.4453, 1843.214
649.9274, 1823.696
650.4095, 1801.659
650.8917, 1776.538
651.3738, 1747.946
651.8559, 1714.503
652.3380, 1677.425
652.8201, 1633.918
653.3022, 1577.359
653.7844, 1517.981
654.2665, 1461.976
654.7486, 1412.497
655.2307, 1376.393
655.7128, 1360.623
656.1949, 1355.086
656.6771, 1335.333
657.1592, 1300.496
657.6413, 1277.019
658.1234, 1273.365
658.6055, 1273.478
659.0876, 1264.584
659.5698, 1247.833
660.0519, 1232.781
660.5340, 1219.599
661.0161, 1207.789
661.4982, 1196.336
661.9803, 1186.932
662.4625, 1182.446
662.9446, 1181.742
663.4267, 1179.902
663.9088, 1172.815
664.3909, 1166.379
664.8730, 1171.806
665.3552, 1188.278
665.8373, 1205.722
666.3194, 1222.306
666.8015, 1240.260
667.2836, 1260.859
667.7657, 1284.198
668.2479, 1310.953
668.7300, 1341.089
669.2121, 1374.412
669.6942, 1412.407
670.1763, 1452.291
670.6584, 1493.216
671.1406, 1534.132
671.6227, 1572.805
672.1048, 1607.832
672.5869, 1641.413
673.0690, 1678.222
673.5511, 1716.059
674.0333, 1745.758
674.5154, 1766.044
674.9975, 1781.333
675.4796, 1796.678
675.9617, 1807.226
676.4438, 1795.785
676.9260, 1741.246
677.4081, 1699.590
677.8902, 1683.619
678.3723, 1666.983
678.8544, 1636.658
679.3365, 1595.437
679.8187, 1549.512
680.3008, 1499.669
680.7829, 1451.407
681.2650, 1410.240
681.7471, 1373.529
682.2292, 1337.114
682.7114, 1300.772
683.1935, 1265.389
683.6756, 1231.696
684.1577, 1199.136
684.6398, 1165.948
685.1219, 1129.564
685.6041, 1101.113
686.0862, 1090.500
686.5683, 1075.463
687.0504, 1039.592
687.5325, 997.2465
688.0146, 970.5320
688.4968, 965.1397
688.9789, 960.3000
689.4610, 943.9711
689.9431, 925.3660
690.4252, 914.4101
690.9073, 909.3497
691.3895, 903.6298
691.8716, 894.6132
692.3537, 884.3042
692.8358, 875.5582
693.3179, 868.4018
693.8000, 860.8118
694.2822, 853.0833
694.7643, 844.0080
695.2464, 831.2896
695.7285, 818.4561
696.2106, 811.0438
696.6927, 809.5035
697.1749, 806.7164
697.6570, 799.9361
698.1391, 793.3995
698.6212, 791.3573
699.1033, 789.9879
699.5854, 781.1331
700.0676, 764.6776
700.5497, 752.8675
701.0318, 760.1289
701.5139, 777.6296
701.9960, 781.9131
702.4781, 773.1379
702.9603, 759.2720
703.4424, 740.0673
703.9245, 724.6984
704.4066, 724.8764
704.8887, 740.3216
705.3708, 745.0346
705.8530, 725.3506
706.3351, 713.4205
706.8172, 720.4570
707.2993, 731.2482
707.7814, 734.0685
708.2635, 729.2103
708.7457, 722.8289
709.2278, 717.2840
709.7099, 712.1210
710.1920, 704.6700
710.6741, 697.7218
711.1563, 700.0210
711.6384, 711.8008
712.1205, 720.6168
712.6026, 716.6987
713.0847, 705.9163
713.5668, 700.2515
714.0490, 667.5734
714.5311, 688.3434
715.0132, 700.7246
715.4953, 705.1680
715.9774, 677.8984
716.4595, 691.5794
716.9417, 688.8498
717.4238, 685.4468
717.9059, 704.8915
718.3880, 682.2345
718.8701, 701.4087
719.3522, 700.3463
719.8344, 697.7309
720.3165, 698.5063
720.7986, 704.5193
721.2807, 711.0309
721.7628, 711.9210
722.2449, 708.0549
722.7271, 705.0292
723.2092, 703.3298
723.6913, 697.3209
724.1734, 681.6993
724.6555, 666.5990
725.1376, 668.3181
725.6198, 690.7623
726.1019, 704.5008
726.5840, 705.3362
727.0661, 703.5084
727.5482, 699.8898
728.0303, 695.9161
728.5125, 692.6471
728.9946, 690.2963
729.4767, 688.8799
729.9588, 689.0059
730.4409, 689.4678
730.9230, 689.3085
731.4052, 688.4615
731.8873, 686.1127
732.3694, 682.3627
732.8515, 679.6666
733.3336, 679.9204
733.8157, 682.7689
734.2979, 688.0212
734.7800, 697.5272
735.2621, 701.1423
735.7442, 694.3209
736.2263, 686.3887
736.7084, 681.6782
737.1906, 680.6037
737.6727, 685.6060
738.1548, 703.4214
738.6369, 711.8807
739.1190, 694.0921
739.6011, 676.0385
740.0833, 679.1532
740.5654, 695.5665
741.0475, 707.6478
741.5296, 709.1186
742.0117, 705.6630
742.4938, 700.0776
742.9760, 694.5812
743.4581, 697.3738
743.9402, 707.5962
744.4223, 711.1785
744.9044, 701.8430
745.3865, 689.6340
745.8687, 688.3411
746.3508, 698.5357
746.8329, 702.3847
747.3150, 692.8923
747.7971, 688.6485
748.2792, 698.6088
748.7614, 711.2849
749.2435, 717.8903
749.7256, 719.1182
750.2077, 720.6389
750.6898, 725.4427
751.1719, 728.9797
751.6541, 725.6644
752.1362, 721.9142
752.6183, 727.4147
753.1004, 740.5056
753.5825, 751.2424
754.0646, 753.9188
754.5468, 751.6887
755.0289, 747.9453
755.5110, 743.2937
755.9931, 742.4273
756.4752, 746.0582
756.9573, 750.8077
757.4395, 755.9314
757.9216, 759.2413
758.4037, 755.5292
758.8858, 740.8297
759.3679, 733.3644
759.8500, 737.1978
760.3322, 743.7189
760.8143, 753.0817
761.2964, 762.5233
761.7785, 769.3173
762.2606, 773.1638
762.7427, 775.5428
763.2249, 775.1721
763.7070, 775.4492
764.1891, 778.9236
764.6712, 784.6332
765.1533, 793.4804
765.6354, 803.8895
766.1176, 807.9123
766.5997, 798.5233
767.0818, 782.0948
767.5639, 771.0916
768.0460, 765.5410
768.5281, 765.7440
769.0103, 772.2430
769.4924, 782.3705
769.9745, 796.0603
770.4566, 810.4653
770.9387, 817.2793
771.4208, 811.1795
771.9030, 810.0804
772.3851, 819.3190
772.8672, 827.3582
773.3493, 827.0888
773.8314, 824.8467
774.3135, 830.7406
774.7957, 846.2902
775.2778, 856.9968
775.7599, 854.3632
776.2420, 846.8195
776.7241, 834.7462
777.2062, 824.5604
777.6884, 829.6788
778.1705, 850.4078
778.6526, 871.3939
779.1347, 880.3662
779.6168, 881.9592
780.0989, 885.1707
780.5811, 890.0312
781.0632, 896.3282
781.5453, 903.7734
782.0274, 914.8972
782.5095, 932.0725
782.9916, 953.3748
783.4738, 973.6875
783.9559, 994.3430
784.4380, 1010.626
784.9201, 1019.763
785.4022, 1027.549
785.8843, 1030.357
786.3665, 1035.885
786.8486, 1057.864
787.3307, 1098.877
787.8128, 1131.805
788.2949, 1141.863
788.7770, 1147.221
789.2592, 1156.877
789.7413, 1170.375
790.2234, 1189.907
790.7055, 1213.245
791.1876, 1228.675
791.6697, 1226.175
792.1519, 1215.020
792.6340, 1210.348
793.1161, 1210.541
793.5982, 1209.099
794.0803, 1205.036
794.5624, 1198.554
795.0446, 1189.662
795.5267, 1178.796
796.0088, 1167.632
796.4909, 1157.802
796.9730, 1140.120
797.4551, 1109.543
797.9373, 1079.944
798.4194, 1056.287
798.9015, 1037.252
799.3836, 1022.403
799.8657, 1012.193
800.3478, 999.0530
800.8300, 979.4019
801.3121, 959.9042
801.7942, 942.7443
802.2763, 927.2956
802.7584, 912.6176
803.2405, 899.0086
803.7227, 888.0345
804.2048, 881.7645
804.6869, 875.6266
805.1690, 864.1384
805.6511, 850.1813
806.1332, 838.1870
806.6154, 828.8000
807.0975, 822.6613
807.5796, 820.2281
808.0617, 818.1844
808.5438, 810.6454
809.0259, 798.0200
809.5081, 788.2281
809.9902, 781.3141
810.4723, 777.6133
810.9544, 779.0635
811.4365, 779.6528
811.9186, 771.0549
812.4008, 753.6735
812.8829, 743.9926
813.3650, 747.6424
813.8471, 750.8039
814.3292, 753.4349
814.8113, 754.0144
815.2935, 751.0406
815.7756, 745.3786
816.2577, 738.1365
816.7398, 727.3632
817.2219, 722.3213
817.7040, 733.5802
818.1862, 746.0310
818.6683, 746.2801
819.1504, 738.6877
819.6325, 732.4579
820.1146, 730.2820
820.5967, 729.8627
821.0789, 729.5324
821.5610, 729.4859
822.0431, 731.6948
822.5252, 734.6841
823.0073, 731.2009
823.4894, 720.0674
823.9716, 709.5302
824.4537, 706.1735
824.9358, 706.9627
825.4179, 703.2639
825.9000, 694.3156
826.3821, 686.2770
826.8643, 679.1231
827.3464, 674.1245
827.8285, 672.6860
828.3106, 673.0242
828.7927, 672.0549
829.2748, 669.2449
829.7570, 667.9587
830.2391, 668.7298
830.7212, 670.2651
831.2033, 676.6236
831.6854, 680.2290
832.1675, 671.6299
832.6497, 653.6323
833.1318, 639.3309
833.6139, 631.2332
834.0960, 630.1995
834.5781, 643.3002
835.0602, 658.4759
835.5424, 663.0004
836.0245, 659.0942
836.5066, 655.0194
836.9887, 653.8494
837.4708, 652.5723
837.9529, 647.6079
838.4351, 640.7263
838.9172, 634.1132
839.3993, 628.6209
839.8814, 629.6868
840.3635, 638.4078
840.8456, 645.2693
841.3278, 641.3154
841.8099, 630.3000
842.2920, 624.4344
842.7741, 624.1815
843.2562, 625.0416
843.7383, 626.6244
844.2205, 629.4535
844.7026, 635.3091
845.1847, 640.9435
845.6668, 639.4901
846.1489, 628.3851
846.6310, 621.2812
847.1132, 620.2352
847.5953, 620.6198
848.0774, 622.3981
848.5595, 624.4449
849.0416, 624.2803
849.5237, 623.0596
850.0059, 626.9802
850.4880, 642.4486
850.9701, 655.1260
851.4522, 659.9346
851.9343, 659.7601
852.4164, 655.0108
852.8986, 647.7042
853.3807, 640.2064
853.8628, 633.3079
854.3449, 630.5121
854.8270, 636.4081
855.3091, 646.4966
855.7913, 658.1436
856.2734, 668.6130
856.7555, 669.1828
857.2376, 659.6848
857.7197, 652.3863
858.2018, 656.8018
858.6840, 667.7105
859.1661, 677.0136
859.6482, 683.8621
860.1303, 678.1722
860.6124, 658.2672
861.0945, 644.9802
861.5767, 649.0325
862.0588, 662.1880
862.5409, 673.4783
863.0230, 683.0770
863.5051, 681.6176
863.9872, 661.3535
864.4694, 651.9788
864.9515, 667.1654
865.4336, 685.4250
865.9157, 688.5212
866.3978, 679.6233
866.8799, 672.9653
867.3621, 666.1885
867.8442, 665.7761
868.3263, 676.3036
868.8084, 688.4561
869.2905, 701.4512
869.7726, 711.7909
870.2548, 713.2560
870.7369, 705.5215
871.2190, 688.2506
871.7011, 707.2161
872.1832, 717.9318
872.6653, 720.8409
873.1475, 692.5620
873.6296, 704.5560
874.1117, 700.4104
874.5938, 695.6031
875.0759, 713.2653
875.5580, 689.5226
876.0402, 706.8286
876.5223, 714.0563
877.0044, 712.2064
877.4865, 700.1901
877.9686, 696.9882
878.4507, 707.0499
878.9329, 717.7263
879.4150, 717.9214
879.8971, 711.5630
880.3792, 706.4255
880.8613, 702.5725
881.3434, 700.9411
881.8256, 701.6379
882.3077, 701.7323
882.7898, 699.4758
883.2719, 696.6559
883.7540, 697.0356
884.2361, 700.7393
884.7183, 698.0442
885.2004, 687.0915
885.6825, 677.4375
886.1646, 671.9232
886.6467, 667.8416
887.1288, 662.8740
887.6110, 657.2961
888.0931, 652.5715
888.5752, 649.4137
889.0573, 645.6498
889.5394, 638.3707
890.0215, 634.0076
890.5037, 638.7131
890.9858, 645.6098
891.4679, 644.8833
891.9500, 636.0068
892.4321, 630.6154
892.9142, 634.8451
893.3964, 636.6942
893.8785, 631.7751
894.3606, 624.0652
894.8427, 613.7150
895.3248, 603.7742
895.8069, 601.2457
896.2891, 609.3817
896.7712, 616.7488
897.2533, 615.7666
897.7354, 613.7282
898.2175, 619.2642
898.6996, 626.1516
899.1818, 622.0970
899.6639, 607.7697
900.1460, 597.7977
900.6281, 602.1528
901.1102, 610.5994
901.5923, 615.7611
902.0745, 616.0798
902.5566, 603.3206
903.0387, 582.9889
903.5208, 576.4133
904.0029, 590.7682
904.4850, 608.2745
904.9672, 609.3890
905.4493, 600.9398
905.9314, 599.0489
906.4135, 602.7414
906.8956, 608.6263
907.3777, 615.7689
907.8599, 618.0831
908.3420, 611.0962
908.8241, 601.2571
909.3062, 601.3918
909.7883, 611.3295
910.2704, 617.4768
910.7526, 619.5089
911.2347, 620.7098
911.7168, 622.4128
912.1990, 621.7309
912.6811, 614.5266
913.1632, 603.7051
913.6453, 603.2784
914.1274, 618.0298
914.6096, 625.8604
915.0917, 621.5308
915.5738, 619.1130
916.0559, 625.4147
916.5380, 636.4765
917.0201, 648.9438
917.5023, 663.4728
917.9844, 665.9519
918.4665, 642.1116
918.9486, 628.3602
919.4307, 637.6343
919.9128, 649.2827
920.3950, 650.6501
920.8771, 646.3738
921.3592, 645.9133
921.8413, 650.6447
922.3234, 655.6191
922.8055, 657.5827
923.2877, 662.8978
923.7698, 678.5460
924.2519, 694.9075
924.7340, 684.7374
925.2161, 702.0803
925.6982, 713.9275
926.1804, 720.5767
926.6625, 706.4503
927.1446, 719.1494
927.6267, 721.0982
928.1088, 722.6062
928.5909, 739.0801
929.0731, 727.9768
929.5552, 744.2133
930.0373, 749.5359
930.5194, 742.4894
931.0015, 739.3914
931.4836, 734.0570
931.9658, 728.9122
932.4479, 728.3747
932.9300, 730.1737
933.4121, 727.1456
933.8942, 717.4849
934.3763, 709.9930
934.8585, 714.7492
935.3406, 722.6747
935.8227, 721.0604
936.3048, 714.7863
936.7869, 714.6812
937.2690, 720.1672
937.7512, 721.3707
938.2333, 713.2634
938.7154, 703.5491
939.1975, 701.2643
939.6796, 704.1606
940.1617, 708.5919
940.6439, 713.7179
941.1260, 715.9107
941.6081, 714.7839
942.0902, 714.1362
942.5723, 716.3524
943.0544, 721.8102
943.5366, 733.3688
944.0187, 749.1097
944.5008, 757.6133
944.9829, 759.1357
945.4650, 763.5414
945.9471, 774.0494
946.4293, 785.8275
946.9114, 794.8124
947.3935, 800.9721
947.8756, 803.3619
948.3577, 802.0051
948.8398, 803.3942
949.3220, 808.3837
949.8041, 811.8707
950.2862, 811.2803
950.7683, 810.4940
951.2504, 815.2291
951.7325, 823.9158
952.2147, 824.1266
952.6968, 814.5545
953.1789, 803.8358
953.6610, 792.3247
954.1431, 782.0727
954.6252, 773.7136
955.1074, 768.3694
955.5895, 768.8315
956.0716, 775.4345
956.5537, 777.7319
957.0358, 774.8999
957.5179, 769.3098
958.0001, 756.9429
958.4822, 751.4291
958.9643, 766.4144
959.4464, 790.8030
959.9285, 799.0308
960.4106, 787.1923
960.8928, 778.1519
961.3749, 773.1962
961.8570, 768.5464
962.3391, 762.3177
962.8212, 757.3320
963.3033, 755.4786
963.7855, 756.6872
964.2676, 761.0767
964.7497, 770.5172
965.2318, 778.3063
965.7139, 783.4108
966.1960, 788.2359
966.6782, 794.0997
967.1603, 799.4738
967.6424, 802.5161
968.1245, 803.7276
968.6066, 805.7803
969.0887, 810.2360
969.5709, 812.7624
970.0530, 809.2725
970.5351, 808.4923
971.0172, 819.8398
971.4993, 831.3989
971.9814, 827.9629
972.4636, 811.0413
972.9457, 798.3813
973.4278, 791.6626
973.9099, 789.9308
974.3920, 801.6460
974.8741, 808.7936
975.3563, 797.6158
975.8384, 779.2244
976.3205, 768.7980
976.8026, 767.0323
977.2847, 762.8975
977.7668, 752.8723
978.2490, 742.2602
978.7311, 730.0836
979.2132, 719.8557
979.6953, 719.0582
980.1774, 719.1022
980.6595, 702.1846
981.1417, 666.8237
981.6238, 645.7970
982.1059, 659.9677
982.5880, 673.4426
983.0701, 673.8660
983.5522, 669.6341
984.0344, 664.6097
984.5165, 660.5368
984.9986, 660.8942
985.4807, 666.3768
985.9628, 667.5277
986.4449, 656.0189
986.9271, 646.2784
987.4092, 646.1129
987.8913, 648.6072
988.3734, 647.1915
988.8555, 643.9293
989.3376, 645.0848
989.8198, 652.4039
990.3019, 656.5072
990.7840, 651.7990
991.2661, 645.5354
991.7482, 638.0978
992.2303, 633.4587
992.7125, 636.8382
993.1946, 645.6810
993.6767, 653.0572
994.1588, 656.8856
994.6409, 663.8257
995.1230, 678.8154
995.6052, 695.1652
996.0873, 713.9115
996.5694, 728.2781
997.0515, 726.1179
997.5336, 714.7520
998.0157, 713.8853
998.4979, 729.6713
998.9800, 749.9626
999.4621, 774.5429
999.9442, 795.8817
1000.426, 808.4298
1000.908, 816.4125
1001.391, 824.3552
1001.873, 831.9470
1002.355, 835.5258
1002.837, 832.7977
1003.319, 834.7695
1003.801, 851.2343
1004.283, 868.4027
1004.765, 880.9415
1005.247, 887.6773
1005.730, 886.1145
1006.212, 878.2146
1006.694, 869.0006
1007.176, 859.4675
1007.658, 851.4600
1008.140, 849.5005
1008.622, 845.1216
1009.104, 831.5552
1009.587, 814.1343
1010.069, 797.9202
1010.551, 783.3884
1011.033, 769.3507
1011.515, 755.2772
1011.997, 742.7845
1012.479, 735.9163
1012.961, 727.0887
1013.443, 707.1097
1013.926, 686.5232
1014.408, 678.7792
1014.890, 680.5829
1015.372, 678.4537
1015.854, 662.9235
1016.336, 664.0345
1016.818, 662.4520
1017.300, 658.3207
1017.783, 643.9962
1018.265, 642.8311
1018.747, 636.3967
1019.229, 629.7463
1019.711, 630.4319
1020.193, 617.5993
1020.675, 618.1686
1021.157, 613.3882
1021.639, 611.0562
1022.122, 600.1910
1022.604, 592.1709
1023.086, 586.0554
1023.568, 581.8101
1024.050, 578.6931
1024.532, 576.8489
1025.014, 574.8400
1025.496, 573.0804
1025.979, 570.0787
1026.461, 561.4081
1026.943, 554.5192
1027.425, 559.2480
1027.907, 570.5530
1028.389, 573.4727
1028.871, 562.7538
1029.353, 559.1791
1029.835, 576.4843
1030.318, 588.8475
1030.800, 580.6395
1031.282, 570.8032
1031.764, 581.0082
1032.246, 599.6675
1032.728, 594.5798
1033.210, 554.6910
1033.692, 534.1103
1034.174, 555.3598
1034.657, 574.0838
1035.139, 580.0843
1035.621, 579.3461
1036.103, 570.8278
1036.585, 560.1857
1037.067, 560.7110
1037.549, 576.1542
1038.031, 583.2519
1038.514, 570.4426
1038.996, 565.2203
1039.478, 580.2741
1039.960, 594.1826
1040.442, 593.4815
1040.924, 584.2120
1041.406, 576.0968
1041.888, 568.8983
1042.370, 565.3939
1042.853, 566.6091
1043.335, 569.8372
1043.817, 578.0176
1044.299, 582.6521
1044.781, 576.0605
1045.263, 566.5460
1045.745, 567.5089
1046.227, 578.8656
1046.709, 586.1979
1047.192, 588.6689
1047.674, 589.5442
1048.156, 589.6412
1048.638, 586.4319
1049.120, 576.5497
1049.602, 567.0179
1050.084, 568.2181
1050.566, 578.1708
1051.049, 578.0768
1051.531, 564.6107
1052.013, 560.1401
1052.495, 569.1010
1052.977, 574.6620
1053.459, 569.0710
1053.941, 561.2529
1054.423, 561.3273
1054.906, 566.6733
1055.388, 565.9978
1055.870, 558.9887
1056.352, 557.5151
1056.834, 562.6700
1057.316, 565.1447
1057.798, 561.6190
1058.280, 557.0871
1058.762, 556.3050
1059.245, 556.7018
1059.727, 549.7096
1060.209, 537.4864
1060.691, 537.5869
1061.173, 549.2370
1061.655, 559.2849
1062.137, 564.0781
1062.619, 561.6411
1063.101, 549.4688
1063.584, 536.0344
1064.066, 536.0298
1064.548, 545.1822
1065.030, 553.7810
1065.512, 560.4500
1065.994, 559.8142
1066.476, 552.2671
1066.958, 545.6362
1067.441, 544.2393
1067.923, 545.3102
1068.405, 547.4643
1068.887, 548.8420
1069.369, 544.0980
1069.851, 537.3477
1070.333, 537.6250
1070.815, 544.2526
1071.297, 551.3641
1071.780, 556.5709
1072.262, 557.8878
1072.744, 550.6702
1073.226, 542.2101
1073.708, 538.8843
1074.190, 538.5276
1074.672, 538.8879
1075.154, 539.6986
1075.636, 541.9006
1076.119, 545.4169
1076.601, 546.4180
1077.083, 538.1265
1077.565, 533.7235
1078.047, 548.2927
1078.529, 561.4467
1079.011, 551.5399
1079.494, 532.0072
1079.976, 524.7676
1080.458, 531.1234
1080.940, 536.5635
1081.422, 536.2051
1081.904, 536.7520
1082.386, 542.8184
1082.868, 546.5786
1083.350, 541.1320
1083.833, 533.9753
1084.315, 533.3699
1084.797, 538.2839
1085.279, 542.5459
1085.761, 545.9460
1086.243, 548.5037
1086.725, 550.6790
1087.207, 551.2736
1087.689, 549.3123
1088.172, 546.4835
1088.654, 543.0886
1089.136, 540.3764
1089.618, 541.9600
1090.100, 548.8843
1090.582, 548.7212
1091.064, 537.9569
1091.546, 532.8860
1092.029, 537.1927
1092.511, 544.4841
1092.993, 552.5510
1093.475, 557.8196
1093.957, 553.9726
1094.439, 543.3175
1094.921, 540.5467
1095.403, 545.5991
1095.885, 548.8742
1096.368, 549.4394
1096.850, 548.4442
1097.332, 546.3004
1097.814, 543.7631
1098.296, 541.2589
1098.778, 539.5704
1099.260, 538.7657
1099.742, 540.4418
1100.224, 553.8085
1100.707, 574.6486
1101.189, 584.5469
1101.671, 580.5653
1102.153, 574.0345
1102.635, 571.6119
1103.117, 570.3468
1103.599, 569.0159
1104.081, 565.3216
1104.564, 550.9166
1105.046, 534.9280
1105.528, 535.5912
1106.010, 549.4007
1106.492, 558.8354
1106.974, 557.7393
1107.456, 555.0715
1107.938, 554.1363
1108.421, 555.5974
1108.903, 563.4705
1109.385, 570.5635
1109.867, 568.5955
1110.349, 562.0056
1110.831, 559.7593
1111.313, 562.6602
1111.795, 563.0830
1112.277, 554.2434
1112.760, 550.5613
1113.242, 559.2285
1113.724, 567.6695
1114.206, 571.1727
1114.688, 570.8786
1115.170, 565.0638
1115.652, 556.7327
1116.134, 558.9433
1116.616, 578.1027
1117.099, 584.7155
1117.581, 573.2350
1118.063, 564.0657
1118.545, 562.1728
1119.027, 562.5665
1119.509, 562.4630
1119.991, 561.4749
1120.473, 558.4949
1120.956, 553.9310
1121.438, 551.5096
1121.920, 551.2553
1122.402, 557.0847
1122.884, 569.1790
1123.366, 577.5239
1123.848, 577.9120
1124.330, 573.5988
1124.813, 566.6755
1125.295, 559.7283
1125.777, 557.7974
1126.259, 559.4924
1126.741, 562.2230
1127.223, 565.3277
1127.705, 567.2997
1128.187, 568.1657
1128.669, 570.4594
1129.151, 576.1093
1129.634, 579.4150
1130.116, 571.9035
1130.598, 563.7213
1131.080, 565.9827
1131.562, 571.5756
1132.044, 571.0367
1132.526, 566.1525
1133.008, 563.4996
1133.491, 564.5832
1133.973, 566.6984
1134.455, 569.8762
1134.937, 572.6705
1135.419, 576.8127
1135.901, 578.0500
1136.383, 568.9722
1136.865, 558.9993
1137.348, 563.8606
1137.830, 579.6266
1138.312, 581.9859
1138.794, 562.5393
1139.276, 553.2155
1139.758, 557.4460
1140.240, 563.2933
1140.722, 568.7032
1141.204, 572.1621
1141.687, 572.2316
1142.169, 570.7733
1142.651, 571.6616
1143.133, 574.1432
1143.615, 571.2231
1144.097, 563.4490
1144.579, 558.1891
1145.061, 556.2288
1145.543, 554.5667
1146.026, 552.1542
1146.508, 552.6060
1146.990, 560.1608
1147.472, 569.5067
1147.954, 574.0915
1148.436, 574.2883
1148.918, 565.5269
1149.400, 554.9350
1149.883, 559.8961
1150.365, 578.6581
1150.847, 592.9142
1151.329, 595.1814
1151.811, 593.4481
1152.293, 590.2967
1152.775, 586.9084
1153.257, 582.8657
1153.740, 579.9172
1154.222, 579.7744
1154.704, 581.6465
1155.186, 584.8938
1155.668, 589.3464
1156.150, 590.5886
1156.632, 583.2745
1157.114, 581.8303
1157.596, 594.2024
1158.078, 597.4206
1158.561, 576.2539
1159.043, 558.6135
1159.525, 570.7546
1160.007, 598.5893
1160.489, 608.7954
1160.971, 601.6470
1161.453, 597.9318
1161.935, 597.6161
1162.418, 592.9116
1162.900, 583.0922
1163.382, 580.4656
1163.864, 590.4158
1164.346, 601.8177
1164.828, 604.0198
1165.310, 600.9777
1165.792, 597.7986
1166.275, 594.7228
1166.757, 590.5403
1167.239, 587.4102
1167.721, 592.4965
1168.203, 603.8701
1168.685, 608.7982
1169.167, 601.4604
1169.649, 592.6702
1170.131, 583.0947
1170.614, 580.3257
1171.096, 594.8660
1171.578, 611.4250
1172.060, 619.8036
1172.542, 620.5721
1173.024, 613.2684
1173.506, 598.4171
1173.988, 591.4323
1174.470, 597.2967
1174.953, 599.9614
1175.435, 596.8456
1175.917, 596.5530
1176.399, 602.6671
1176.881, 609.0004
1177.363, 610.8644
1177.845, 610.3583
1178.327, 611.4564
1178.810, 613.7556
1179.292, 616.3418
1179.774, 618.1028
1180.256, 607.7218
1180.738, 587.7000
1181.220, 580.6617
1181.702, 593.2800
1182.184, 608.3181
1182.667, 613.8925
1183.149, 614.1606
1183.631, 608.8990
1184.113, 604.8692
1184.595, 613.5407
1185.077, 625.3428
1185.559, 624.9315
1186.041, 615.5406
1186.523, 611.0444
1187.005, 614.7762
1187.488, 619.2327
1187.970, 624.1400
1188.452, 627.2485
1188.934, 626.1156
1189.416, 625.6944
1189.898, 629.4631
1190.380, 633.1030
1190.862, 631.9360
1191.345, 627.3323
1191.827, 623.1769
1192.309, 619.1904
1192.791, 621.7800
1193.273, 631.4549
1193.755, 629.7975
1194.237, 614.1285
1194.719, 607.9850
1195.202, 622.3590
1195.684, 638.9115
1196.166, 638.6509
1196.648, 631.2246
1197.130, 630.5078
1197.612, 633.0293
1198.094, 634.3539
1198.576, 634.0457
1199.058, 630.3445
1199.541, 624.8959
1200.023, 624.7551
1200.505, 633.1534
1200.987, 638.9437
1201.469, 637.2716
1201.951, 633.0241
1202.433, 624.8004
1202.915, 617.9032
1203.397, 616.3512
1203.880, 617.3042
1204.362, 618.0008
1204.844, 618.4453
1205.326, 619.1697
1205.808, 621.1779
1206.290, 615.7990
1206.772, 601.5950
1207.254, 595.5047
1207.737, 600.9573
1208.219, 611.1435
1208.701, 622.7145
1209.183, 633.6664
1209.665, 642.8121
1210.147, 648.1296
1210.629, 642.8599
1211.111, 633.7164
1211.594, 632.9877
1212.076, 637.3040
1212.558, 638.6015
1213.040, 636.2838
1213.522, 633.2929
1214.004, 629.7805
1214.486, 632.2071
1214.968, 653.6925
1215.450, 666.3080
1215.932, 653.7406
1216.415, 637.5433
1216.897, 624.2769
1217.379, 619.4799
1217.861, 633.1796
1218.343, 658.7447
1218.825, 671.1009
1219.307, 669.3574
1219.789, 659.3224
1220.272, 640.1763
1220.754, 639.7112
1221.236, 661.9155
1221.718, 677.2864
1222.200, 672.6002
1222.682, 661.0587
1223.164, 652.9874
1223.646, 649.7073
1224.129, 656.7547
1224.611, 666.4731
1225.093, 667.3800
1225.575, 664.4894
1226.057, 668.1880
1226.539, 676.2411
1227.021, 676.8052
1227.503, 666.2739
1227.985, 660.9031
1228.468, 672.3619
1228.950, 676.8856
1229.432, 663.8998
1229.914, 653.9270
1230.396, 654.6296
1230.878, 660.9366
1231.360, 669.3450
1231.842, 678.8403
1232.324, 688.5873
1232.807, 697.4658
1233.289, 691.4573
1233.771, 673.6985
1234.253, 666.7045
1234.735, 670.4727
1235.217, 667.1726
1235.699, 652.7484
1236.181, 644.8105
1236.664, 657.3430
1237.146, 669.0096
1237.628, 657.3229
1238.110, 643.7031
1238.592, 644.3140
1239.074, 651.5043
1239.556, 660.4265
1240.038, 668.1799
1240.521, 668.6691
1241.003, 661.9814
1241.485, 663.0992
1241.967, 675.1782
1242.449, 687.4796
1242.931, 702.1204
1243.413, 706.3087
1243.895, 695.1840
1244.377, 686.3109
1244.859, 690.2171
1245.342, 698.2695
1245.824, 700.3581
1246.306, 698.7126
1246.788, 697.1537
1247.270, 695.5599
1247.752, 693.0474
1248.234, 690.6251
1248.716, 690.4026
1249.199, 692.3646
1249.681, 695.6658
1250.163, 700.3483
1250.645, 702.7161
1251.127, 696.0052
1251.609, 695.1434
1252.091, 712.4750
1252.573, 724.5666
1253.056, 719.4048
1253.538, 709.4987
1254.020, 705.4191
1254.502, 705.0591
1254.984, 703.7827
1255.466, 701.7401
1255.948, 700.5486
1256.430, 699.9454
1256.912, 696.6915
1257.395, 691.9725
##END=



