##NAMES=Kermesite
##RRUFFID=R060742
##IDEAL CHEMISTRY=Sb^3+^_2_OS^2-^_2_
##LOCALITY=Pezinok, Czechoslovakia
##OWNER=RRUFF
##SOURCE=Michael Scott
##DESCRIPTION=Dark red elongated bladed crystals associated with quartz and blue tanished gudmundite, R060741
##STATUS=The identification of this mineral is confirmed by single-crystal X-ray diffraction and chemical analysis.
##URL=rruff.info/R060742
##MEASURED CHEMISTRY=Sb_2_O_1.11_S_1.9_
117.666, 6742.888
118.148, 7130.234
118.630, 7528.461
119.112, 7942.630
119.594, 8363.959
120.076, 8786.146
120.559, 9208.118
121.041, 9627.918
121.523, 10058.110
122.005, 10493.660
122.487, 10907.280
122.969, 11289.630
123.451, 11641.970
123.933, 11965.750
124.415, 12251.510
124.898, 12515.080
125.380, 12780.370
125.862, 13048.230
126.344, 13293.880
126.826, 13497.170
127.308, 13659.550
127.790, 13781.850
128.272, 13886.260
128.755, 13948.570
129.237, 13899.790
129.719, 13721.670
130.201, 13482.130
130.683, 13247.660
131.165, 13022.860
131.647, 12842.760
132.129, 12728.990
132.611, 12679.200
133.094, 12682.900
133.576, 12734.530
134.058, 12842.930
134.540, 13043.510
135.022, 13347.780
135.504, 13684.670
135.986, 13995.680
136.468, 14274.070
136.951, 14582.510
137.433, 14941.590
137.915, 15343.650
138.397, 15749.130
138.879, 16167.050
139.361, 16575.740
139.843, 16968.189
140.325, 17355.561
140.807, 17697.311
141.290, 17986.061
141.772, 18219.311
142.254, 18405.410
142.736, 18554.971
143.218, 18649.279
143.700, 18645.510
144.182, 18506.561
144.664, 18324.689
145.146, 18139.740
145.629, 17968.260
146.111, 17755.891
146.593, 17492.199
147.075, 17181.461
147.557, 16865.461
148.039, 16530.131
148.521, 16196.290
149.003, 15870.940
149.486, 15545.830
149.968, 15244.210
150.450, 14969.500
150.932, 14722.870
151.414, 14488.320
151.896, 14251.450
152.378, 14031.450
152.860, 13843.740
153.342, 13691.530
153.824, 13568.250
154.307, 13482.710
154.789, 13443.800
155.271, 13393.730
155.753, 13305.080
156.235, 13206.170
156.717, 13133.750
157.199, 13115.310
157.682, 13106.890
158.164, 13088.380
158.646, 13046.630
159.128, 13019.660
159.610, 13018.610
160.092, 13038.620
160.574, 13070.670
161.056, 13132.740
161.538, 13191.460
162.020, 13226.330
162.503, 13227.650
162.985, 13210.980
163.467, 13173.020
163.949, 13118.930
164.431, 13069.830
164.913, 13025.740
165.395, 12995.610
165.877, 12987.840
166.360, 13030.140
166.842, 13075.310
167.324, 13090.120
167.806, 13077.270
168.288, 13071.510
168.770, 13099.570
169.252, 13146.510
169.734, 13192.590
170.217, 13230.840
170.699, 13264.500
171.181, 13293.940
171.663, 13318.480
172.145, 13346.000
172.627, 13391.540
173.109, 13444.450
173.591, 13484.100
174.073, 13492.420
174.555, 13484.960
175.038, 13482.830
175.520, 13490.440
176.002, 13491.740
176.484, 13466.500
176.966, 13420.230
177.448, 13371.170
177.930, 13322.640
178.413, 13279.800
178.895, 13252.970
179.377, 13248.150
179.859, 13250.980
180.341, 13238.100
180.823, 13212.290
181.305, 13195.210
181.787, 13206.970
182.269, 13239.490
182.751, 13270.830
183.234, 13293.370
183.716, 13314.710
184.198, 13347.870
184.680, 13392.740
185.162, 13445.120
185.644, 13514.470
186.126, 13592.760
186.608, 13646.430
187.091, 13662.400
187.573, 13647.770
188.055, 13623.020
188.537, 13589.230
189.019, 13536.420
189.501, 13443.170
189.983, 13312.820
190.465, 13190.190
190.947, 13086.790
191.430, 13002.610
191.912, 12945.880
192.394, 12920.720
192.876, 12910.310
193.358, 12892.880
193.840, 12868.470
194.322, 12850.510
194.804, 12847.640
195.286, 12859.060
195.769, 12866.240
196.251, 12865.680
196.733, 12868.070
197.215, 12894.990
197.697, 12949.030
198.179, 13005.870
198.661, 13056.210
199.143, 13100.750
199.626, 13132.020
200.108, 13144.290
200.590, 13149.010
201.072, 13172.010
201.554, 13214.890
202.036, 13267.880
202.518, 13326.750
203.000, 13391.690
203.482, 13458.680
203.965, 13530.390
204.447, 13601.900
204.929, 13654.210
205.411, 13683.100
205.893, 13705.050
206.375, 13731.310
206.857, 13762.950
207.339, 13792.320
207.822, 13817.240
208.304, 13839.340
208.786, 13865.560
209.268, 13895.510
209.750, 13932.020
210.232, 13980.360
210.714, 14045.040
211.196, 14104.820
211.678, 14152.300
212.161, 14189.990
212.643, 14245.930
213.125, 14325.480
213.607, 14416.140
214.089, 14507.490
214.571, 14599.130
215.053, 14692.150
215.535, 14783.250
216.018, 14872.200
216.500, 14975.280
216.982, 15092.500
217.464, 15219.240
217.946, 15351.550
218.428, 15491.570
218.910, 15627.240
219.392, 15756.090
219.874, 15876.870
220.357, 15989.790
220.839, 16088.060
221.321, 16183.760
221.803, 16296.830
222.285, 16436.680
222.767, 16573.750
223.249, 16694.211
223.731, 16791.881
224.214, 16913.881
224.696, 17080.641
225.178, 17258.869
225.660, 17396.881
226.142, 17470.990
226.624, 17545.061
227.106, 17642.430
227.588, 17775.939
228.070, 17893.670
228.553, 18000.551
229.035, 18089.131
229.517, 18144.301
229.999, 18146.510
230.481, 18146.539
230.963, 18164.061
231.445, 18205.779
231.927, 18249.990
232.410, 18306.150
232.892, 18362.029
233.374, 18386.260
233.856, 18366.520
234.338, 18334.100
234.820, 18303.480
235.302, 18285.020
235.784, 18245.230
236.266, 18172.340
236.749, 18079.400
237.231, 18010.770
237.713, 17980.070
238.195, 17954.051
238.677, 17916.631
239.159, 17862.391
239.641, 17808.961
240.123, 17756.750
240.605, 17705.430
241.088, 17652.029
241.570, 17585.721
242.052, 17531.180
242.534, 17504.160
243.016, 17521.631
243.498, 17530.199
243.980, 17523.539
244.462, 17504.670
244.945, 17488.910
245.427, 17479.051
245.909, 17467.340
246.391, 17446.480
246.873, 17402.150
247.355, 17378.529
247.837, 17387.920
248.319, 17422.311
248.801, 17441.980
249.284, 17458.619
249.766, 17445.221
250.248, 17382.141
250.730, 17253.359
251.212, 17112.869
251.694, 16968.189
252.176, 16818.471
252.658, 16639.439
253.141, 16405.141
253.623, 16181.710
254.105, 16018.880
254.587, 15946.310
255.069, 15868.240
255.551, 15767.710
256.033, 15651.420
256.515, 15556.220
256.997, 15472.340
257.480, 15422.680
257.962, 15430.770
258.444, 15528.060
258.926, 15601.520
259.408, 15627.600
259.890, 15614.190
260.372, 15622.730
260.854, 15651.730
261.336, 15704.330
261.819, 15794.370
262.301, 15950.470
262.783, 16059.630
263.265, 16087.750
263.747, 16050.080
264.229, 16068.450
264.711, 16163.670
265.193, 16279.230
265.676, 16368.350
266.158, 16423.641
266.640, 16480.529
267.122, 16544.990
267.604, 16616.061
268.086, 16682.340
268.568, 16745.119
269.050, 16803.039
269.532, 16854.160
270.015, 16898.830
270.497, 16940.279
270.979, 16980.029
271.461, 17017.680
271.943, 17044.711
272.425, 17055.789
272.907, 17070.131
273.389, 17107.721
273.871, 17174.381
274.354, 17229.891
274.836, 17268.430
275.318, 17290.760
275.800, 17301.811
276.282, 17301.141
276.764, 17289.711
277.246, 17261.920
277.728, 17214.859
278.211, 17181.619
278.693, 17171.199
279.175, 17177.100
279.657, 17174.131
280.139, 17160.311
280.621, 17145.131
281.103, 17138.580
281.585, 17140.939
282.068, 17135.699
282.550, 17119.330
283.032, 17093.820
283.514, 17066.439
283.996, 17038.109
284.478, 17002.910
284.960, 16954.631
285.442, 16893.350
285.924, 16827.131
286.406, 16748.520
286.889, 16672.820
287.371, 16646.660
287.853, 16672.641
288.335, 16705.289
288.817, 16709.039
289.299, 16687.590
289.781, 16667.410
290.263, 16651.010
290.746, 16640.131
291.228, 16647.570
291.710, 16672.730
292.192, 16683.910
292.674, 16641.609
293.156, 16562.211
293.638, 16511.801
294.120, 16509.221
294.603, 16528.471
295.085, 16509.990
295.567, 16461.199
296.049, 16453.561
296.531, 16396.002
297.013, 16468.129
297.495, 16508.777
297.977, 16519.637
298.459, 16411.488
298.942, 16457.014
299.424, 16440.953
299.906, 16422.367
300.388, 16489.521
300.870, 16455.840
301.352, 16444.051
301.834, 16499.580
302.316, 16571.369
302.798, 16592.580
303.281, 16579.131
303.763, 16588.490
304.245, 16672.131
304.727, 16791.211
305.209, 16896.750
305.691, 16982.900
306.173, 17051.551
306.655, 17087.949
307.138, 17106.869
307.620, 17145.439
308.102, 17213.730
308.584, 17316.850
309.066, 17469.199
309.548, 17680.801
310.030, 17900.590
310.512, 18102.711
310.994, 18288.930
311.477, 18458.141
311.959, 18618.270
312.441, 18756.410
312.923, 18875.949
313.405, 18985.891
313.887, 19018.391
314.369, 18959.141
314.851, 18797.480
315.333, 18518.990
315.816, 18088.000
316.298, 17565.789
316.780, 16952.490
317.262, 16239.820
317.744, 15536.770
318.226, 14854.030
318.708, 14207.980
319.190, 13616.590
319.672, 13070.800
320.155, 12593.360
320.637, 12199.320
321.119, 11888.700
321.601, 11626.250
322.083, 11424.330
322.565, 11253.840
323.047, 11089.680
323.530, 10901.990
324.012, 10746.330
324.494, 10645.490
324.976, 10597.820
325.458, 10547.210
325.940, 10482.000
326.422, 10415.530
326.904, 10356.840
327.386, 10304.880
327.868, 10262.390
328.351, 10239.040
328.833, 10230.560
329.315, 10201.670
329.797, 10129.410
330.279, 10057.130
330.761, 10009.540
331.243, 10013.750
331.725, 10000.250
332.208, 9966.724
332.690, 9913.750
333.172, 9842.532
333.654, 9751.492
334.136, 9645.755
334.618, 9524.127
335.100, 9379.409
335.582, 9240.837
336.065, 9107.502
336.547, 8981.461
337.029, 8864.742
337.511, 8757.481
337.993, 8657.425
338.475, 8560.089
338.957, 8464.586
339.439, 8381.962
339.921, 8312.309
340.404, 8255.122
340.886, 8213.027
341.368, 8189.639
341.850, 8160.079
342.332, 8111.810
342.814, 8046.187
343.296, 7987.916
343.778, 7936.702
344.260, 7893.096
344.743, 7856.876
345.225, 7828.414
345.707, 7807.954
346.189, 7796.851
346.671, 7793.704
347.153, 7797.258
347.635, 7808.297
348.117, 7815.404
348.599, 7803.738
349.082, 7777.516
349.564, 7754.002
350.046, 7741.192
350.528, 7730.475
351.010, 7701.834
351.492, 7657.447
351.974, 7620.907
352.457, 7623.386
352.939, 7644.450
353.421, 7646.388
353.903, 7613.466
354.385, 7570.492
354.867, 7540.605
355.349, 7521.960
355.831, 7507.107
356.313, 7496.083
356.796, 7484.886
357.278, 7467.775
357.760, 7440.461
358.242, 7417.317
358.724, 7412.666
359.206, 7418.864
359.688, 7420.200
360.170, 7404.016
360.652, 7384.843
361.135, 7371.539
361.617, 7366.003
362.099, 7361.749
362.581, 7357.157
363.063, 7352.043
363.545, 7346.212
364.027, 7334.891
364.509, 7327.068
364.991, 7328.138
365.474, 7339.424
365.956, 7346.522
366.438, 7343.432
366.920, 7337.176
367.402, 7333.770
367.884, 7349.889
368.366, 7351.492
368.848, 7321.863
369.331, 7264.112
369.813, 7233.001
370.295, 7249.633
370.777, 7273.487
371.259, 7280.527
371.741, 7259.505
372.223, 7241.120
372.705, 7224.027
373.188, 7210.663
373.670, 7212.420
374.152, 7239.138
374.634, 7261.972
375.116, 7266.086
375.598, 7247.656
376.080, 7225.163
376.562, 7195.816
377.044, 7166.200
377.526, 7151.001
378.009, 7153.017
378.491, 7153.145
378.973, 7141.768
379.455, 7120.216
379.937, 7107.185
380.419, 7104.479
380.901, 7103.900
381.384, 7091.458
381.866, 7069.350
382.348, 7059.273
382.830, 7075.146
383.312, 7104.127
383.794, 7113.865
384.276, 7104.566
384.758, 7091.874
385.240, 7092.241
385.723, 7098.770
386.205, 7094.898
386.687, 7072.720
387.169, 7044.293
387.651, 7021.277
388.133, 7003.455
388.615, 6990.063
389.097, 6983.933
389.579, 6980.534
390.062, 6974.494
390.544, 6963.778
391.026, 6954.534
391.508, 6951.606
391.990, 6953.090
392.472, 6955.434
392.954, 6959.030
393.436, 6962.081
393.918, 6966.668
394.401, 6974.461
394.883, 6970.585
395.365, 6934.917
395.847, 6891.567
396.329, 6864.643
396.811, 6878.505
397.293, 6889.016
397.775, 6881.912
398.258, 6858.129
398.740, 6842.793
399.222, 6846.737
399.704, 6852.884
400.186, 6851.519
400.668, 6833.716
401.150, 6822.199
401.632, 6823.166
402.114, 6830.419
402.597, 6824.183
403.079, 6794.315
403.561, 6768.420
404.043, 6759.514
404.525, 6772.038
405.007, 6782.042
405.489, 6791.303
405.971, 6795.648
406.453, 6787.125
406.936, 6763.788
407.418, 6740.181
407.900, 6716.928
408.382, 6696.768
408.864, 6698.454
409.346, 6724.715
409.828, 6755.741
410.310, 6774.290
410.793, 6781.684
411.275, 6785.813
411.757, 6789.054
412.239, 6789.208
412.721, 6778.797
413.203, 6759.499
413.685, 6744.618
414.167, 6744.790
414.650, 6753.825
415.132, 6764.910
415.614, 6779.708
416.096, 6786.318
416.578, 6762.052
417.060, 6722.260
417.542, 6699.556
418.024, 6729.403
418.506, 6764.949
418.988, 6772.440
419.471, 6748.711
419.953, 6725.965
420.435, 6722.409
420.917, 6724.868
421.399, 6721.135
421.881, 6696.940
422.363, 6678.529
422.845, 6675.947
423.328, 6686.337
423.810, 6692.813
424.292, 6692.866
424.774, 6689.109
425.256, 6682.564
425.738, 6670.971
426.220, 6660.689
426.702, 6651.299
427.185, 6643.267
427.667, 6637.621
428.149, 6634.344
428.631, 6633.193
429.113, 6634.159
429.595, 6637.189
430.077, 6641.609
430.559, 6647.633
431.041, 6654.353
431.524, 6660.218
432.006, 6665.002
432.488, 6673.188
432.970, 6688.923
433.452, 6706.287
433.934, 6703.065
434.416, 6679.071
434.898, 6663.039
435.380, 6687.014
435.863, 6735.271
436.345, 6760.228
436.827, 6753.421
437.309, 6733.935
437.791, 6712.451
438.273, 6694.194
438.755, 6693.028
439.237, 6730.324
439.720, 6778.688
440.202, 6811.990
440.684, 6829.425
441.166, 6843.053
441.648, 6860.355
442.130, 6877.204
442.612, 6889.407
443.094, 6895.248
443.576, 6896.733
444.059, 6889.750
444.541, 6877.922
445.023, 6874.016
445.505, 6892.076
445.987, 6910.256
446.469, 6917.025
446.951, 6902.013
447.433, 6898.292
447.915, 6922.017
448.398, 6950.991
448.880, 6954.130
449.362, 6916.118
449.844, 6878.276
450.326, 6850.031
450.808, 6830.633
451.290, 6807.659
451.772, 6778.103
452.254, 6751.589
452.737, 6737.506
453.219, 6737.254
453.701, 6734.817
454.183, 6728.891
454.665, 6718.963
455.147, 6700.544
455.629, 6674.213
456.112, 6652.359
456.594, 6644.788
457.076, 6646.667
457.558, 6645.904
458.040, 6642.222
458.522, 6635.926
459.004, 6625.432
459.486, 6612.761
459.968, 6601.533
460.451, 6593.839
460.933, 6587.386
461.415, 6577.608
461.897, 6566.566
462.379, 6562.842
462.861, 6580.517
463.343, 6601.001
463.825, 6610.312
464.307, 6602.610
464.790, 6593.308
465.272, 6586.961
465.754, 6581.818
466.236, 6575.440
466.718, 6556.379
467.200, 6547.357
467.682, 6561.344
468.164, 6599.093
468.647, 6615.250
469.129, 6592.826
469.611, 6565.843
470.093, 6558.736
470.575, 6581.543
471.057, 6594.702
471.539, 6593.464
472.021, 6582.164
472.503, 6570.003
472.986, 6556.825
473.468, 6543.289
473.950, 6528.005
474.432, 6512.020
474.914, 6504.464
475.396, 6506.738
475.878, 6508.082
476.360, 6491.722
476.842, 6464.775
477.325, 6451.215
477.807, 6464.810
478.289, 6484.374
478.771, 6482.821
479.253, 6464.728
479.735, 6447.369
480.217, 6436.945
480.699, 6433.862
481.181, 6441.817
481.664, 6464.026
482.146, 6480.432
482.628, 6477.434
483.110, 6464.333
483.592, 6451.998
484.074, 6434.038
484.556, 6426.037
485.039, 6438.833
485.521, 6469.398
486.003, 6488.519
486.485, 6482.827
486.967, 6477.310
487.449, 6487.252
487.931, 6533.139
488.413, 6541.269
488.895, 6493.755
489.378, 6425.670
489.860, 6392.140
490.342, 6400.255
490.824, 6411.643
491.306, 6417.013
491.788, 6416.757
492.270, 6409.489
492.752, 6394.292
493.234, 6382.929
493.717, 6392.420
494.199, 6413.877
494.681, 6417.290
495.163, 6394.712
495.645, 6363.688
496.127, 6338.913
496.609, 6321.316
497.091, 6313.363
497.573, 6322.081
498.056, 6336.694
498.538, 6352.989
499.020, 6370.332
499.502, 6377.443
499.984, 6364.061
500.466, 6341.314
500.948, 6317.568
501.430, 6285.529
501.913, 6265.229
502.395, 6269.409
502.877, 6287.089
503.359, 6293.948
503.841, 6279.288
504.323, 6265.947
504.805, 6260.771
505.287, 6264.165
505.770, 6264.443
506.252, 6259.745
506.734, 6254.782
507.216, 6253.059
507.698, 6254.533
508.180, 6260.762
508.662, 6274.365
509.144, 6289.225
509.626, 6292.526
510.108, 6285.019
510.591, 6275.494
511.073, 6270.364
511.555, 6265.843
512.037, 6250.301
512.519, 6223.921
513.001, 6203.523
513.483, 6208.131
513.966, 6224.648
514.448, 6235.532
514.930, 6232.003
515.412, 6229.107
515.894, 6241.913
516.376, 6261.128
516.858, 6266.634
517.340, 6233.733
517.822, 6202.554
518.305, 6191.117
518.787, 6203.615
519.269, 6209.999
519.751, 6204.958
520.233, 6196.280
520.715, 6188.995
521.197, 6181.176
521.679, 6179.827
522.161, 6189.097
522.644, 6202.744
523.126, 6205.755
523.608, 6196.822
524.090, 6185.423
524.572, 6174.852
525.054, 6165.112
525.536, 6153.543
526.018, 6139.537
526.500, 6132.528
526.983, 6145.061
527.465, 6170.675
527.947, 6197.706
528.429, 6228.383
528.911, 6246.937
529.393, 6231.850
529.875, 6193.420
530.357, 6153.323
530.839, 6110.016
531.322, 6077.681
531.804, 6069.501
532.286, 6085.615
532.768, 6100.034
533.250, 6106.043
533.732, 6108.269
534.214, 6109.792
534.696, 6112.273
535.179, 6111.976
535.661, 6107.093
536.143, 6100.443
536.625, 6096.581
537.107, 6095.616
537.589, 6097.671
538.071, 6105.192
538.553, 6116.247
539.036, 6114.997
539.518, 6099.748
540.000, 6084.023
540.482, 6080.119
540.964, 6084.713
541.446, 6084.180
541.928, 6075.337
542.410, 6068.057
542.892, 6076.882
543.375, 6095.398
543.857, 6109.399
544.339, 6107.590
544.821, 6103.822
545.303, 6110.364
545.785, 6124.489
546.267, 6132.399
546.749, 6119.824
547.231, 6106.153
547.714, 6104.069
548.196, 6121.938
548.678, 6131.213
549.160, 6125.647
549.642, 6112.706
550.124, 6098.727
550.606, 6079.680
551.088, 6068.419
551.570, 6069.296
552.053, 6078.376
552.535, 6082.244
553.017, 6079.888
553.499, 6078.108
553.981, 6080.169
554.463, 6085.744
554.945, 6095.605
555.427, 6110.671
555.909, 6120.790
556.392, 6114.112
556.874, 6096.407
557.356, 6077.408
557.838, 6055.707
558.320, 6041.167
558.802, 6047.963
559.284, 6067.754
559.766, 6082.333
560.249, 6074.858
560.731, 6069.555
561.213, 6078.980
561.695, 6103.923
562.177, 6127.210
562.659, 6150.100
563.141, 6167.813
563.623, 6176.837
564.106, 6172.717
564.588, 6170.639
565.070, 6175.170
565.552, 6176.890
566.034, 6153.871
566.516, 6100.459
566.998, 6069.639
567.480, 6084.643
567.963, 6127.081
568.445, 6147.758
568.927, 6147.705
569.409, 6144.647
569.891, 6149.942
570.373, 6159.861
570.855, 6163.665
571.337, 6158.760
571.819, 6169.380
572.302, 6137.123
572.784, 6177.952
573.266, 6201.040
573.748, 6207.340
574.230, 6146.572
574.712, 6172.409
575.194, 6163.539
575.676, 6153.245
576.158, 6191.271
576.641, 6140.258
577.123, 6177.518
577.605, 6179.541
578.087, 6197.691
578.569, 6180.919
579.051, 6174.934
579.533, 6203.881
580.015, 6213.486
580.497, 6192.694
580.980, 6175.251
581.462, 6171.771
581.944, 6178.697
582.426, 6191.455
582.908, 6192.753
583.390, 6168.301
583.872, 6137.908
584.354, 6123.244
584.836, 6120.695
585.319, 6117.045
585.801, 6107.077
586.283, 6092.719
586.765, 6072.444
587.247, 6044.289
587.729, 6023.976
588.211, 6024.205
588.693, 6027.417
589.176, 6019.256
589.658, 5987.647
590.140, 5968.093
590.622, 5966.385
591.104, 5974.539
591.586, 5977.589
592.068, 5974.836
592.550, 5971.871
593.032, 5969.688
593.515, 5969.051
593.997, 5975.378
594.479, 5988.087
594.961, 5995.607
595.443, 5985.758
595.925, 5967.481
596.407, 5954.732
596.890, 5949.834
597.372, 5942.863
597.854, 5918.293
598.336, 5891.806
598.818, 5880.889
599.300, 5907.550
599.782, 5929.402
600.264, 5933.953
600.746, 5927.392
601.229, 5925.770
601.711, 5934.225
602.193, 5940.226
602.675, 5939.448
603.157, 5932.561
603.639, 5928.854
604.121, 5929.159
604.603, 5929.532
605.085, 5926.032
605.568, 5919.641
606.050, 5917.490
606.532, 5920.662
607.014, 5924.306
607.496, 5923.943
607.978, 5920.199
608.460, 5914.053
608.942, 5904.009
609.424, 5894.222
609.907, 5887.044
610.389, 5882.179
610.871, 5878.603
611.353, 5874.056
611.835, 5872.736
612.317, 5881.745
612.799, 5901.425
613.281, 5900.760
613.763, 5862.010
614.246, 5825.672
614.728, 5815.455
615.210, 5836.403
615.692, 5856.998
616.174, 5877.816
616.656, 5897.100
617.138, 5914.801
617.620, 5929.918
618.103, 5935.861
618.585, 5928.392
619.067, 5915.732
619.549, 5907.392
620.031, 5902.043
620.513, 5896.195
620.995, 5887.185
621.477, 5877.764
621.959, 5867.824
622.442, 5857.888
622.924, 5853.743
623.406, 5861.350
623.888, 5871.442
624.370, 5878.422
624.852, 5879.156
625.334, 5888.188
625.816, 5911.523
626.299, 5935.599
626.781, 5948.880
627.263, 5951.673
627.745, 5937.644
628.227, 5899.640
628.709, 5856.888
629.191, 5845.898
629.673, 5861.042
630.156, 5874.938
630.638, 5876.235
631.120, 5870.615
631.602, 5860.219
632.084, 5846.913
632.566, 5839.066
633.048, 5849.377
633.530, 5859.827
634.012, 5857.481
634.495, 5838.136
634.977, 5824.222
635.459, 5822.441
635.941, 5823.335
636.423, 5819.785
636.905, 5807.793
637.387, 5804.036
637.869, 5813.441
638.351, 5824.647
638.834, 5815.804
639.316, 5788.278
639.798, 5769.441
640.280, 5767.811
640.762, 5778.637
641.244, 5806.279
641.726, 5843.081
642.208, 5859.126
642.690, 5814.188
643.173, 5761.227
643.655, 5742.528
644.137, 5758.909
644.619, 5773.625
645.101, 5775.100
645.583, 5771.164
646.065, 5765.764
646.547, 5757.874
647.029, 5750.846
647.512, 5740.708
647.994, 5735.651
648.476, 5748.990
648.958, 5784.059
649.440, 5802.792
649.922, 5795.202
650.404, 5777.070
650.886, 5779.823
651.369, 5796.831
651.851, 5799.635
652.333, 5761.768
652.815, 5715.782
653.297, 5698.217
653.779, 5702.366
654.261, 5703.230
654.743, 5681.628
655.226, 5660.878
655.708, 5654.218
656.190, 5664.960
656.672, 5672.459
657.154, 5672.447
657.636, 5672.357
658.118, 5677.986
658.600, 5692.480
659.083, 5697.497
659.565, 5690.115
660.047, 5679.348
660.529, 5679.115
661.011, 5686.760
661.493, 5685.894
661.975, 5670.426
662.457, 5650.268
662.939, 5630.407
663.422, 5614.997
663.904, 5613.212
664.386, 5646.700
664.868, 5678.267
665.350, 5692.582
665.832, 5689.907
666.314, 5674.329
666.796, 5624.904
667.278, 5583.743
667.761, 5564.444
668.243, 5567.635
668.725, 5583.643
669.207, 5617.736
669.689, 5649.356
670.171, 5661.502
670.653, 5656.260
671.135, 5649.134
671.617, 5640.761
672.100, 5633.994
672.582, 5634.528
673.064, 5638.290
673.546, 5637.875
674.028, 5628.544
674.510, 5620.523
674.992, 5620.799
675.474, 5626.124
675.956, 5630.712
676.439, 5635.321
676.921, 5637.122
677.403, 5635.077
677.885, 5629.933
678.367, 5623.254
678.849, 5612.356
679.331, 5607.835
679.813, 5617.283
680.296, 5636.915
680.778, 5647.711
681.260, 5649.670
681.742, 5644.971
682.224, 5624.512
682.706, 5602.746
683.188, 5605.402
683.670, 5637.361
684.153, 5663.286
684.635, 5655.093
685.117, 5636.725
685.599, 5629.690
686.081, 5653.750
686.563, 5661.795
687.045, 5642.237
687.527, 5611.858
688.010, 5592.800
688.492, 5588.489
688.974, 5580.807
689.456, 5563.860
689.938, 5545.944
690.420, 5546.874
690.902, 5564.059
691.384, 5579.580
691.866, 5582.072
692.349, 5581.440
692.831, 5591.642
693.313, 5609.377
693.795, 5621.789
694.277, 5619.616
694.759, 5613.117
695.241, 5605.277
695.723, 5596.035
696.205, 5594.318
696.688, 5609.613
697.170, 5621.408
697.652, 5616.195
698.134, 5590.128
698.616, 5578.847
699.098, 5585.320
699.580, 5595.885
700.062, 5596.365
700.544, 5589.612
701.027, 5584.694
701.509, 5583.416
701.991, 5582.683
702.473, 5581.276
702.955, 5578.119
703.437, 5571.470
703.919, 5549.023
704.401, 5537.545
704.883, 5555.520
705.366, 5587.585
705.848, 5600.961
706.330, 5584.505
706.812, 5569.156
707.294, 5560.477
707.776, 5557.769
708.258, 5561.314
708.740, 5571.549
709.222, 5578.024
709.705, 5571.047
710.187, 5559.018
710.669, 5564.015
711.151, 5582.431
711.633, 5588.964
712.115, 5550.338
712.597, 5507.321
713.080, 5490.171
713.562, 5503.802
714.044, 5521.355
714.526, 5543.520
715.008, 5563.271
715.490, 5576.265
715.972, 5580.702
716.454, 5585.208
716.936, 5590.120
717.419, 5594.184
717.901, 5598.332
718.383, 5601.240
718.865, 5594.025
719.347, 5573.381
719.829, 5550.498
720.311, 5533.529
720.793, 5523.151
721.276, 5521.240
721.758, 5539.909
722.240, 5552.129
722.722, 5540.326
723.204, 5516.600
723.686, 5506.477
724.168, 5520.031
724.650, 5531.685
725.132, 5537.329
725.615, 5537.486
726.097, 5532.231
726.579, 5521.341
727.061, 5511.470
727.543, 5504.543
728.025, 5501.338
728.507, 5508.142
728.989, 5522.255
729.471, 5528.217
729.954, 5507.746
730.436, 5483.164
730.918, 5467.617
731.400, 5462.149
731.882, 5465.950
732.364, 5491.852
732.846, 5515.267
733.328, 5523.802
733.810, 5514.451
734.293, 5509.958
734.775, 5511.162
735.257, 5513.924
735.739, 5517.526
736.221, 5519.966
736.703, 5510.365
737.185, 5485.702
737.667, 5463.970
738.149, 5467.607
738.632, 5481.008
739.114, 5484.509
739.596, 5465.966
740.078, 5452.690
740.560, 5455.096
741.042, 5465.906
741.524, 5475.037
742.006, 5477.996
742.489, 5492.125
742.971, 5526.981
743.453, 5563.303
743.935, 5559.074
744.417, 5517.852
744.899, 5483.401
745.381, 5470.586
745.863, 5469.535
746.346, 5470.453
746.828, 5473.239
747.310, 5477.805
747.792, 5482.849
748.274, 5490.972
748.756, 5473.235
749.238, 5498.928
749.720, 5514.079
750.203, 5519.254
750.685, 5484.575
751.167, 5501.359
751.649, 5497.519
752.131, 5492.833
752.613, 5516.861
753.095, 5487.978
753.577, 5511.550
754.059, 5514.184
754.542, 5526.400
755.024, 5517.865
755.506, 5515.739
755.988, 5534.373
756.470, 5541.511
756.952, 5520.037
757.434, 5513.301
757.916, 5500.819
758.398, 5473.167
758.881, 5450.288
759.363, 5446.510
759.845, 5464.754
760.327, 5479.011
760.809, 5489.725
761.291, 5495.213
761.773, 5491.415
762.255, 5481.929
762.737, 5474.140
763.220, 5469.525
763.702, 5465.054
764.184, 5454.404
764.666, 5444.988
765.148, 5444.736
765.630, 5460.771
766.112, 5475.848
766.594, 5490.670
767.076, 5502.324
767.559, 5507.378
768.041, 5505.146
768.523, 5497.873
769.005, 5483.684
769.487, 5470.003
769.969, 5468.838
770.451, 5476.782
770.933, 5484.552
771.416, 5489.688
771.898, 5493.194
772.380, 5496.987
772.862, 5499.465
773.344, 5497.899
773.826, 5491.367
774.308, 5480.999
774.790, 5464.186
775.273, 5445.286
775.755, 5435.322
776.237, 5436.387
776.719, 5432.432
777.201, 5414.613
777.683, 5394.726
778.165, 5395.302
778.647, 5413.201
779.130, 5437.357
779.612, 5479.458
780.094, 5510.267
780.576, 5505.679
781.058, 5473.160
781.540, 5439.217
782.022, 5390.863
782.504, 5363.613
782.986, 5373.200
783.468, 5411.528
783.951, 5437.203
784.433, 5449.008
784.915, 5454.722
785.397, 5457.329
785.879, 5456.822
786.361, 5450.208
786.843, 5439.212
787.325, 5433.256
787.807, 5447.056
788.290, 5460.036
788.772, 5453.722
789.254, 5428.493
789.736, 5417.113
790.218, 5432.341
790.700, 5449.694
791.182, 5461.257
791.664, 5466.750
792.146, 5462.355
792.629, 5446.579
793.111, 5435.390
793.593, 5447.959
794.075, 5469.960
794.557, 5470.421
795.039, 5449.623
795.521, 5434.094
796.003, 5443.765
796.486, 5460.312
796.968, 5474.546
797.450, 5486.937
797.932, 5485.385
798.414, 5460.266
798.896, 5435.470
799.378, 5425.986
799.860, 5431.921
800.343, 5440.051
800.825, 5450.961
801.307, 5455.995
801.789, 5435.846
802.271, 5409.990
802.753, 5412.585
803.235, 5449.583
803.717, 5478.701
804.200, 5475.476
804.682, 5460.119
805.164, 5446.330
805.646, 5435.408
806.128, 5422.253
806.610, 5401.559
807.092, 5389.087
807.574, 5408.570
808.056, 5452.726
808.539, 5460.792
809.021, 5426.291
809.503, 5390.248
809.985, 5396.287
810.467, 5418.298
810.949, 5423.860
811.431, 5401.909
811.913, 5387.834
812.395, 5397.467
812.878, 5414.702
813.360, 5428.909
813.842, 5441.522
814.324, 5445.513
814.806, 5439.503
815.288, 5428.821
815.770, 5414.303
816.252, 5399.595
816.734, 5399.386
817.217, 5417.531
817.699, 5433.979
818.181, 5430.243
818.663, 5418.655
819.145, 5410.020
819.627, 5403.288
820.109, 5408.131
820.591, 5435.731
821.073, 5463.717
821.556, 5470.010
822.038, 5452.117
822.520, 5441.740
823.002, 5441.699
823.484, 5444.694
823.966, 5441.596
824.448, 5436.339
824.930, 5437.200
825.413, 5447.608
825.895, 5455.062
826.377, 5450.338
826.859, 5441.263
827.341, 5434.992
827.823, 5432.238
828.305, 5431.044
828.787, 5431.133
829.269, 5433.246
829.752, 5440.145
830.234, 5450.612
830.716, 5455.738
831.198, 5454.019
831.680, 5451.142
832.162, 5455.279
832.644, 5459.868
833.127, 5455.660
833.609, 5436.190
834.091, 5422.177
834.573, 5421.054
835.055, 5425.316
835.537, 5430.527
836.019, 5437.362
836.501, 5441.834
836.983, 5443.813
837.466, 5443.478
837.948, 5438.314
838.430, 5431.504
838.912, 5430.483
839.394, 5436.875
839.876, 5445.360
840.358, 5443.126
840.840, 5424.964
841.322, 5447.024
841.805, 5459.320
842.287, 5462.377
842.769, 5428.525
843.251, 5442.334
843.733, 5437.042
844.215, 5430.968
844.697, 5451.485
845.179, 5423.001
845.661, 5443.096
846.144, 5443.800
846.626, 5453.378
847.108, 5443.738
847.590, 5440.035
848.072, 5455.556
848.554, 5460.432
849.036, 5448.579
849.518, 5458.722
850.000, 5429.566
850.483, 5434.896
850.965, 5455.104
851.447, 5437.610
851.929, 5443.968
852.411, 5459.247
852.893, 5460.878
853.375, 5447.372
853.857, 5435.996
854.340, 5436.188
854.822, 5443.022
855.304, 5457.300
855.786, 5483.127
856.268, 5486.701
856.750, 5455.181
857.232, 5427.075
857.714, 5430.047
858.196, 5459.032
858.679, 5476.322
859.161, 5482.014
859.643, 5486.604
860.125, 5497.895
860.607, 5511.141
861.089, 5523.625
861.571, 5534.797
862.054, 5540.438
862.536, 5535.542
863.018, 5528.720
863.500, 5522.596
863.982, 5517.153
864.464, 5511.498
864.946, 5505.438
865.428, 5501.706
865.910, 5501.855
866.393, 5505.417
866.875, 5514.502
867.357, 5527.489
867.839, 5535.604
868.321, 5536.160
868.803, 5530.113
869.285, 5512.566
869.767, 5487.738
870.249, 5473.114
870.732, 5468.883
871.214, 5476.654
871.696, 5505.967
872.178, 5540.198
872.660, 5530.145
873.142, 5487.221
873.624, 5455.287
874.106, 5461.470
874.588, 5480.692
875.071, 5507.139
875.553, 5535.123
876.035, 5547.330
876.517, 5531.060
876.999, 5522.463
877.481, 5533.284
877.963, 5550.410
878.445, 5539.140
878.927, 5504.020
879.410, 5480.330
879.892, 5482.292
880.374, 5493.809
880.856, 5504.771
881.338, 5513.957
881.820, 5519.370
882.302, 5507.326
882.784, 5510.771
883.266, 5544.511
883.749, 5584.054
884.231, 5593.645
884.713, 5572.461
885.195, 5547.226
885.677, 5519.381
886.159, 5500.278
886.641, 5508.644
887.123, 5532.408
887.606, 5556.591
888.088, 5584.403
888.570, 5594.215
889.052, 5555.594
889.534, 5514.015
890.016, 5510.293
890.498, 5556.879
890.980, 5574.142
891.463, 5555.027
891.945, 5533.604
892.427, 5547.834
892.909, 5580.939
893.391, 5601.133
893.873, 5604.108
894.355, 5607.210
894.837, 5623.815
895.320, 5639.129
895.802, 5641.938
896.284, 5631.163
896.766, 5625.096
897.248, 5625.120
897.730, 5625.630
898.212, 5624.322
898.694, 5620.867
899.176, 5614.489
899.659, 5605.208
900.141, 5592.549
900.623, 5573.267
901.105, 5553.402
901.587, 5532.421
902.069, 5512.746
902.551, 5508.926
903.033, 5527.320
903.515, 5547.241
903.998, 5563.703
904.480, 5576.060
904.962, 5584.501
905.444, 5587.973
905.926, 5581.429
906.408, 5548.650
906.890, 5521.028
907.372, 5525.716
907.854, 5549.902
908.337, 5567.124
908.819, 5573.059
909.301, 5573.089
909.783, 5563.477
910.265, 5554.313
910.747, 5568.138
911.229, 5599.345
911.711, 5614.691
912.193, 5603.109
912.676, 5586.794
913.158, 5583.700
913.640, 5586.787
914.122, 5587.720
914.604, 5580.094
915.086, 5581.339
915.568, 5596.980
916.050, 5614.452
916.533, 5624.259
917.015, 5626.522
917.497, 5618.509
917.979, 5599.726
918.461, 5587.116
918.943, 5597.161
919.425, 5618.256
919.907, 5642.161
920.390, 5668.121
920.872, 5689.115
921.354, 5711.590
921.836, 5718.051
922.318, 5693.470
922.800, 5645.035
923.282, 5622.049
923.764, 5623.900
924.247, 5638.755
924.729, 5673.173
925.211, 5706.546
925.693, 5721.354
926.175, 5718.794
926.657, 5703.999
927.139, 5658.320
927.621, 5625.877
928.103, 5616.186
928.586, 5623.419
929.068, 5642.668
929.550, 5672.190
930.032, 5682.279
930.514, 5658.167
930.996, 5629.358
931.478, 5626.844
931.960, 5638.952
932.442, 5649.095
932.925, 5651.331
933.407, 5654.768
933.889, 5661.589
934.371, 5667.970
934.853, 5671.268
935.335, 5671.350
935.817, 5660.504
936.299, 5637.014
936.781, 5620.884
937.264, 5639.225
937.746, 5667.171
938.228, 5678.895
938.710, 5670.758
939.192, 5660.068
939.674, 5643.022
940.156, 5633.335
940.638, 5639.529
941.120, 5658.561
941.603, 5675.015
942.085, 5688.153
942.567, 5687.442
943.049, 5648.713
943.531, 5608.884
944.013, 5607.127
944.495, 5631.667
944.977, 5647.713
945.460, 5636.433
945.942, 5633.053
946.424, 5647.915
946.906, 5667.902
947.388, 5665.256
947.870, 5643.402
948.352, 5626.738
948.834, 5619.970
949.317, 5623.390
949.799, 5646.159
950.281, 5675.094
950.763, 5694.640
951.245, 5700.292
951.727, 5697.806
952.209, 5679.931
952.691, 5666.102
953.173, 5681.648
953.656, 5718.598
954.138, 5716.185
954.620, 5674.111
955.102, 5639.001
955.584, 5650.927
956.066, 5676.182
956.548, 5692.940
957.030, 5699.804
957.513, 5701.836
957.995, 5696.819
958.477, 5693.131
958.959, 5693.834
959.441, 5697.532
959.923, 5702.311
960.405, 5707.111
960.887, 5707.762
961.369, 5698.903
961.852, 5690.078
962.334, 5681.188
962.816, 5677.733
963.298, 5691.521
963.780, 5739.088
964.262, 5754.995
964.744, 5725.232
965.226, 5687.950
965.708, 5693.845
966.191, 5725.779
966.673, 5744.201
967.155, 5743.293
967.637, 5737.745
968.119, 5733.761
968.601, 5729.208
969.083, 5718.799
969.565, 5702.286
970.047, 5711.056
970.530, 5751.227
971.012, 5780.925
971.494, 5765.460
971.976, 5732.247
972.458, 5731.662
972.940, 5754.934
973.422, 5774.147
973.904, 5773.101
974.386, 5771.765
974.869, 5777.736
975.351, 5785.836
975.833, 5787.013
976.315, 5780.894
976.797, 5771.288
977.279, 5758.346
977.761, 5743.937
978.244, 5723.319
978.726, 5705.749
979.208, 5707.222
979.690, 5739.417
980.172, 5755.797
980.654, 5731.977
981.136, 5712.036
981.618, 5728.987
982.100, 5777.875
982.583, 5791.778
983.065, 5772.223
983.547, 5744.862
984.029, 5717.598
984.511, 5697.535
984.993, 5693.609
985.475, 5702.623
985.957, 5711.102
986.440, 5717.897
986.922, 5724.105
987.404, 5731.746
987.886, 5736.215
988.368, 5725.415
988.850, 5703.833
989.332, 5685.879
989.814, 5673.841
990.296, 5670.334
990.779, 5686.270
991.261, 5705.583
991.743, 5712.334
992.225, 5703.221
992.707, 5693.613
993.189, 5679.914
993.671, 5681.038
994.153, 5730.438
994.635, 5795.964
995.118, 5808.897
995.600, 5776.525
996.082, 5745.954
996.564, 5737.695
997.046, 5734.141
997.528, 5726.685
998.010, 5720.432
998.492, 5731.210
998.974, 5759.621
999.457, 5784.454
999.939, 5801.306
1000.421, 5810.930
1000.903, 5812.795
1001.385, 5808.748
1001.867, 5799.516
1002.349, 5777.970
1002.831, 5772.131
1003.314, 5792.574
1003.796, 5814.311
1004.278, 5817.822
1004.760, 5806.408
1005.242, 5805.938
1005.724, 5815.122
1006.206, 5818.257
1006.688, 5791.865
1007.170, 5769.154
1007.653, 5777.859
1008.135, 5808.841
1008.617, 5823.043
1009.099, 5816.638
1009.581, 5802.040
1010.063, 5776.592
1010.545, 5755.353
1011.027, 5769.320
1011.510, 5802.348
1011.992, 5819.210
1012.474, 5805.479
1012.956, 5797.877
1013.438, 5823.469
1013.920, 5847.544
1014.402, 5844.963
1014.884, 5815.279
1015.366, 5794.180
1015.849, 5781.895
1016.331, 5774.681
1016.813, 5772.689
1017.295, 5772.612
1017.777, 5766.875
1018.259, 5759.865
1018.741, 5767.256
1019.223, 5811.534
1019.706, 5836.596
1020.188, 5829.661
1020.670, 5806.637
1021.152, 5789.847
1021.634, 5779.118
1022.116, 5774.385
1022.598, 5776.488
1023.080, 5778.686
1023.562, 5770.130
1024.045, 5765.133
1024.527, 5777.566
1025.009, 5808.351
1025.491, 5829.848
1025.973, 5841.590
1026.455, 5847.115
1026.937, 5843.465
1027.419, 5838.500
1027.901, 5852.377
1028.384, 5874.988
1028.866, 5879.646
1029.348, 5824.771
1029.830, 5798.049
1030.312, 5825.552
1030.794, 5870.599
1031.276, 5884.780
1031.758, 5871.526
1032.240, 5856.658
1032.723, 5842.429
1033.205, 5840.235
1033.687, 5812.640
1034.169, 5858.892
1034.651, 5887.219
1035.133, 5898.583
1035.615, 5842.179
1036.097, 5873.284
1036.580, 5869.329
1037.062, 5882.727
1037.544, 5869.169
1038.026, 5849.433
1038.508, 5830.768
1038.990, 5830.218
1039.472, 5871.046
1039.954, 5902.876
1040.437, 5915.953
1040.919, 5915.592
1041.401, 5899.321
1041.883, 5868.130
1042.365, 5867.007
1042.847, 5897.813
1043.329, 5920.167
1043.811, 5890.141
1044.293, 5851.654
1044.776, 5839.199
1045.258, 5850.813
1045.740, 5862.228
1046.222, 5872.565
1046.704, 5882.126
1047.186, 5890.998
1047.668, 5898.734
1048.150, 5908.239
1048.632, 5915.405
1049.115, 5908.436
1049.597, 5877.516
1050.079, 5858.415
1050.561, 5876.372
1051.043, 5898.102
1051.525, 5903.351
1052.007, 5893.305
1052.489, 5890.271
1052.972, 5893.997
1053.454, 5900.656
1053.936, 5912.851
1054.418, 5922.245
1054.900, 5918.021
1055.382, 5906.581
1055.864, 5903.134
1056.346, 5911.941
1056.828, 5918.800
1057.311, 5922.323
1057.793, 5923.643
1058.275, 5923.629
1058.757, 5922.628
1059.239, 5922.349
1059.721, 5923.111
1060.203, 5919.362
1060.685, 5901.862
1061.167, 5888.251
1061.650, 5887.256
1062.132, 5894.591
1062.614, 5891.263
1063.096, 5879.509
1063.578, 5878.943
1064.060, 5903.413
1064.542, 5925.443
1065.024, 5914.570
1065.507, 5895.044
1065.989, 5899.832
1066.471, 5942.333
1066.953, 5957.852
1067.435, 5941.816
1067.917, 5920.012
1068.399, 5910.334
1068.881, 5907.442
1069.364, 5903.285
1069.846, 5898.240
1070.328, 5894.636
1070.810, 5892.450
1071.292, 5892.635
1071.774, 5895.102
1072.256, 5899.858
1072.738, 5905.545
1073.220, 5913.222
1073.703, 5932.346
1074.185, 5966.327
1074.667, 5988.026
1075.149, 5970.538
1075.631, 5943.160
1076.113, 5922.158
1076.595, 5908.385
1077.077, 5914.246
1077.559, 5942.514
1078.042, 5955.294
1078.524, 5930.562
1079.006, 5897.138
1079.488, 5881.809
1079.970, 5883.433
1080.452, 5902.354
1080.934, 5967.161
1081.416, 5987.218
1081.898, 5942.826
1082.381, 5898.159
1082.863, 5911.969
1083.345, 5962.828
1083.827, 5997.974
1084.309, 6016.459
1084.791, 6021.707
1085.273, 5996.276
1085.755, 5980.809
1086.238, 5995.219
1086.720, 6020.304
1087.202, 6023.806
1087.684, 6007.124
1088.166, 5988.224
1088.648, 5969.355
1089.130, 5955.045
1089.612, 5944.952
1090.094, 5944.312
1090.577, 5963.852
1091.059, 6002.001
1091.541, 6022.789
1092.023, 6024.002
1092.505, 6018.244
1092.987, 6007.472
1093.469, 5996.341
1093.951, 5987.032
1094.433, 5983.231
1094.916, 5993.598
1095.398, 6037.790
1095.880, 6049.949
1096.362, 6008.399
1096.844, 5968.636
1097.326, 5974.776
1097.808, 6012.324
1098.290, 6032.381
1098.773, 6036.879
1099.255, 6034.318
1099.737, 6020.221
1100.219, 6010.630
1100.701, 6016.321
1101.183, 6025.537
1101.665, 6020.031
1102.147, 6000.351
1102.630, 5993.606
1103.112, 6002.541
1103.594, 6015.862
1104.076, 6029.756
1104.558, 6040.041
1105.040, 6039.730
1105.522, 6031.427
1106.004, 6033.522
1106.486, 6048.792
1106.969, 6060.315
1107.451, 6064.363
1107.933, 6061.511
1108.415, 6048.822
1108.897, 6031.482
1109.379, 6015.890
1109.861, 6002.629
1110.343, 5995.701
1110.825, 5997.969
1111.308, 6000.369
1111.790, 5997.765
1112.272, 5992.705
1112.754, 5987.862
1113.236, 5985.747
1113.718, 5993.712
1114.200, 6023.997
1114.682, 6050.316
1115.165, 6067.773
1115.647, 6077.928
1116.129, 6075.607
1116.611, 6063.668
1117.093, 6082.105
1117.575, 6128.205
1118.057, 6159.111
1118.539, 6140.320
1119.021, 6107.372
1119.504, 6065.484
1119.986, 6028.026
1120.468, 6025.710
1120.950, 6063.671
1121.432, 6079.165
1121.914, 6061.709
1122.396, 6041.903
1122.878, 6051.854
1123.360, 6070.215
1123.843, 6077.753
1124.325, 6072.956
1124.807, 6067.249
1125.289, 6059.727
1125.771, 6054.665
1126.253, 6051.833
1126.735, 6055.011
1127.217, 6079.922
1127.700, 6110.490
1128.182, 6118.377
1128.664, 6087.633
1129.146, 6072.583
1129.628, 6083.634
1130.110, 6098.692
1130.592, 6108.651
1131.074, 6112.519
1131.557, 6100.957
1132.039, 6080.799
1132.521, 6073.432
1133.003, 6100.263
1133.485, 6120.060
1133.967, 6118.988
1134.449, 6113.331
1134.931, 6117.900
1135.413, 6131.199
1135.896, 6137.164
1136.378, 6136.497
1136.860, 6136.925
1137.342, 6153.629
1137.824, 6160.811
1138.306, 6133.682
1138.788, 6094.694
1139.270, 6076.393
1139.752, 6079.007
1140.235, 6094.914
1140.717, 6123.937
1141.199, 6149.110
1141.681, 6160.087
1142.163, 6158.274
1142.645, 6138.257
1143.127, 6104.381
1143.609, 6080.028
1144.092, 6064.624
1144.574, 6063.840
1145.056, 6082.898
1145.538, 6103.336
1146.020, 6101.041
1146.502, 6090.662
1146.984, 6089.093
1147.466, 6099.842
1147.948, 6108.672
1148.431, 6112.334
1148.913, 6125.885
1149.395, 6162.752
1149.877, 6201.676
1150.359, 6204.592
1150.841, 6185.076
1151.323, 6165.964
1151.805, 6151.101
1152.287, 6140.691
1152.770, 6133.391
1153.252, 6132.295
1153.734, 6144.064
1154.216, 6161.423
1154.698, 6157.469
1155.180, 6141.871
1155.662, 6143.296
1156.144, 6203.576
1156.626, 6236.433
1157.109, 6214.890
1157.591, 6186.321
1158.073, 6205.855
1158.555, 6257.758
1159.037, 6275.049
1159.519, 6259.203
1160.001, 6237.129
1160.483, 6212.884
1160.966, 6196.873
1161.448, 6195.250
1161.930, 6200.536
1162.412, 6206.481
1162.894, 6211.181
1163.376, 6193.710
1163.858, 6151.878
1164.340, 6120.451
1164.823, 6124.021
1165.305, 6142.209
1165.787, 6170.998
1166.269, 6203.707
1166.751, 6224.109
1167.233, 6232.595
1167.715, 6229.938
1168.197, 6214.837
1168.679, 6197.933
1169.161, 6186.380
1169.644, 6177.210
1170.126, 6163.864
1170.608, 6148.890
1171.090, 6162.007
1171.572, 6204.313
1172.054, 6228.442
1172.536, 6211.231
1173.018, 6190.309
1173.501, 6205.391
1173.983, 6231.922
1174.465, 6242.206
1174.947, 6233.371
1175.429, 6228.261
1175.911, 6226.528
1176.393, 6234.607
1176.875, 6267.112
1177.358, 6294.724
1177.840, 6274.920
1178.322, 6233.079
1178.804, 6207.790
1179.286, 6205.419
1179.768, 6213.743
1180.250, 6234.998
1180.732, 6253.316
1181.214, 6251.116
1181.697, 6244.971
1182.179, 6256.464
1182.661, 6279.767
1183.143, 6302.708
1183.625, 6333.485
1184.107, 6336.738
1184.589, 6304.956
1185.071, 6269.814
1185.553, 6257.280
1186.036, 6259.632
1186.518, 6270.886
1187.000, 6288.140
1187.482, 6301.305
1187.964, 6308.660
1188.446, 6313.339
1188.928, 6317.409
1189.410, 6314.164
1189.893, 6285.144
1190.375, 6249.508
1190.857, 6242.683
1191.339, 6263.018
1191.821, 6275.691
1192.303, 6262.174
1192.785, 6265.001
1193.267, 6297.630
1193.750, 6336.216
1194.232, 6344.044
1194.714, 6334.883
1195.196, 6334.231
1195.678, 6345.120
1196.160, 6348.741
1196.642, 6330.882
1197.124, 6325.412
1197.606, 6346.163
1198.089, 6375.243
1198.571, 6380.508
1199.053, 6370.673
1199.535, 6363.014
1200.017, 6361.856
1200.499, 6353.587
1200.981, 6327.156
1201.463, 6308.353
1201.945, 6308.208
1202.428, 6320.201
1202.910, 6338.279
1203.392, 6356.202
1203.874, 6358.772
1204.356, 6336.643
1204.838, 6319.350
1205.320, 6309.136
1205.802, 6309.933
1206.285, 6327.426
1206.767, 6354.012
1207.249, 6369.250
1207.731, 6377.617
1208.213, 6391.517
1208.695, 6425.874
1209.177, 6436.733
1209.659, 6403.160
1210.141, 6373.248
1210.624, 6379.678
1211.106, 6410.512
1211.588, 6440.618
1212.070, 6466.319
1212.552, 6477.885
1213.034, 6461.851
1213.516, 6445.720
1213.998, 6426.630
1214.480, 6419.132
1214.963, 6451.353
1215.445, 6499.897
1215.927, 6482.916
1216.409, 6418.724
1216.891, 6367.595
1217.373, 6352.459
1217.855, 6355.661
1218.337, 6381.621
1218.820, 6410.968
1219.302, 6420.778
1219.784, 6421.872
1220.266, 6453.046
1220.748, 6504.252
1221.230, 6529.670
1221.712, 6487.875
1222.194, 6452.181
1222.677, 6430.635
1223.159, 6420.342
1223.641, 6422.701
1224.123, 6432.277
1224.605, 6433.969
1225.087, 6429.964
1225.569, 6435.947
1226.051, 6473.194
1226.533, 6496.684
1227.016, 6496.061
1227.498, 6489.132
1227.980, 6501.071
1228.462, 6520.824
1228.944, 6524.047
1229.426, 6511.692
1229.908, 6505.604
1230.390, 6518.753
1230.872, 6525.688
1231.355, 6518.781
1231.837, 6512.907
1232.319, 6534.365
1232.801, 6567.087
1233.283, 6584.807
1233.765, 6585.499
1234.247, 6576.557
1234.729, 6547.808
1235.212, 6536.608
1235.694, 6553.297
1236.176, 6582.500
1236.658, 6613.340
1237.140, 6637.107
1237.622, 6635.967
1238.104, 6608.649
1238.586, 6586.421
1239.068, 6569.020
1239.551, 6567.810
1240.033, 6589.372
1240.515, 6618.003
1240.997, 6638.333
1241.479, 6650.192
1241.961, 6652.440
1242.443, 6644.723
1242.925, 6632.125
1243.407, 6612.159
1243.890, 6598.396
1244.372, 6594.410
1244.854, 6598.697
1245.336, 6615.792
1245.818, 6635.800
1246.300, 6644.255
1246.782, 6638.717
1247.264, 6645.941
1247.746, 6666.897
1248.229, 6695.316
1248.711, 6732.922
1249.193, 6765.829
1249.675, 6782.272
1250.157, 6785.007
1250.639, 6774.574
1251.121, 6752.061
1251.603, 6727.102
1252.086, 6699.789
1252.568, 6672.355
1253.050, 6643.969
1253.532, 6621.769
1254.014, 6610.206
1254.496, 6610.298
1254.978, 6626.846
1255.460, 6657.416
1255.943, 6681.843
1256.425, 6699.708
1256.907, 6709.896
1257.389, 6711.378
1257.871, 6706.323
1258.353, 6692.205
1258.835, 6675.065
1259.317, 6654.995
1259.799, 6635.093
1260.281, 6653.384
1260.764, 6703.183
1261.246, 6731.366
1261.728, 6709.599
1262.210, 6688.313
1262.692, 6705.737
1263.174, 6722.097
1263.656, 6707.320
1264.138, 6670.940
1264.621, 6662.201
1265.103, 6674.994
1265.585, 6683.350
1266.067, 6674.372
1266.549, 6669.867
1267.031, 6676.268
1267.513, 6691.200
1267.995, 6717.386
1268.478, 6749.072
1268.960, 6766.689
1269.442, 6774.910
1269.924, 6788.228
1270.406, 6818.995
1270.888, 6831.992
1271.370, 6810.696
1271.852, 6796.129
1272.334, 6818.573
1272.817, 6856.373
1273.299, 6859.417
1273.781, 6842.502
1274.263, 6837.325
1274.745, 6863.547
1275.227, 6869.212
1275.709, 6846.783
1276.191, 6824.753
1276.673, 6819.384
1277.156, 6822.646
1277.638, 6824.033
1278.120, 6825.125
1278.602, 6828.355
1279.084, 6833.949
1279.566, 6844.829
1280.048, 6862.808
1280.530, 6872.588
1281.013, 6859.633
1281.495, 6844.439
1281.977, 6854.624
1282.459, 6870.681
1282.941, 6862.913
1283.423, 6827.213
1283.905, 6819.664
1284.387, 6839.593
1284.870, 6850.357
1285.352, 6823.178
1285.834, 6799.635
1286.316, 6813.768
1286.798, 6839.687
1287.280, 6854.900
1287.762, 6859.328
1288.244, 6843.634
1288.726, 6813.844
1289.208, 6805.136
1289.691, 6845.962
1290.173, 6885.579
1290.655, 6906.397
1291.137, 6915.885
1291.619, 6915.083
1292.101, 6905.213
##END=



