##NAMES=Kernite
##RRUFFID=R050661
##IDEAL CHEMISTRY=Na_2_B_4_O_6_(OH)_2_&#183;3H_2_O
##LOCALITY=Boron, Kern County, California, USA
##OWNER=RRUFF
##SOURCE=Marcus Origlieri
##DESCRIPTION=Colorless cleavage fragment
##STATUS=The identification of this mineral has been confirmed by X-ray diffraction.
##URL=rruff.info/R050661
92.02539, 220.9835
92.50751, 218.3163
92.98962, 218.6554
93.47174, 220.3867
93.95386, 223.4776
94.43597, 226.3406
94.91809, 228.6159
95.40021, 230.6586
95.88232, 232.7124
96.36444, 233.8381
96.84656, 236.2898
97.32867, 240.2900
97.81078, 245.9432
98.29290, 253.3509
98.77502, 262.4286
99.25713, 272.6908
99.73925, 284.6001
100.2214, 299.1552
100.7035, 314.2360
101.1856, 330.0207
101.6677, 345.9831
102.1498, 360.2479
102.6320, 370.5226
103.1141, 375.6721
103.5962, 378.6366
104.0783, 378.5377
104.5604, 376.6390
105.0425, 374.5869
105.5247, 373.0733
106.0068, 370.6992
106.4889, 365.1892
106.9710, 357.1360
107.4531, 345.9300
107.9352, 329.6604
108.4173, 309.2223
108.8995, 289.2480
109.3816, 270.1618
109.8637, 253.3725
110.3458, 240.3125
110.8279, 231.4390
111.3100, 224.9116
111.7922, 219.0052
112.2743, 214.2480
112.7564, 208.4291
113.2385, 200.7168
113.7206, 191.8811
114.2027, 182.1575
114.6849, 171.5308
115.1670, 160.5773
115.6491, 151.5259
116.1312, 145.0420
116.6133, 139.9314
117.0954, 136.2668
117.5776, 133.7299
118.0597, 131.8745
118.5418, 130.3701
119.0239, 129.2073
119.5060, 129.0790
119.9881, 130.3808
120.4703, 132.0958
120.9524, 134.0272
121.4345, 136.0645
121.9166, 138.0535
122.3987, 139.9717
122.8808, 141.8150
123.3630, 142.5466
123.8451, 141.8682
124.3272, 140.2355
124.8093, 137.9784
125.2914, 135.0991
125.7735, 131.8483
126.2557, 128.2179
126.7378, 124.3148
127.2199, 120.8263
127.7020, 118.3268
128.1841, 116.5068
128.6662, 114.3958
129.1483, 111.6403
129.6305, 108.7867
130.1126, 106.1907
130.5947, 103.8501
131.0768, 101.7213
131.5589, 99.73206
132.0410, 97.86031
132.5232, 96.31897
133.0053, 95.26189
133.4874, 94.46094
133.9695, 93.84435
134.4516, 93.39001
134.9337, 93.09953
135.4159, 92.97122
135.8980, 93.00919
136.3801, 93.23832
136.8622, 93.63559
137.3443, 94.19616
137.8264, 94.91367
138.3086, 95.78505
138.7907, 96.81580
139.2728, 98.00459
139.7549, 99.66736
140.2370, 101.1347
140.7191, 102.2402
141.2013, 103.1420
141.6834, 104.1530
142.1655, 105.4941
142.6476, 106.9591
143.1297, 107.6060
143.6118, 107.2865
144.0939, 106.5272
144.5761, 105.3562
145.0582, 103.8484
145.5403, 102.3331
146.0224, 100.9893
146.5045, 99.79660
146.9866, 98.62500
147.4688, 97.38095
147.9509, 96.23544
148.4330, 95.36204
148.9151, 94.77798
149.3972, 94.35381
149.8793, 93.95176
150.3615, 93.67067
150.8436, 93.68095
151.3257, 94.06960
151.8078, 94.77454
152.2899, 95.70133
152.7720, 97.04652
153.2542, 98.27673
153.7363, 99.13295
154.2184, 99.76385
154.7005, 100.3860
155.1826, 101.0890
155.6647, 101.8868
156.1469, 102.9266
156.6290, 104.5693
157.1111, 106.1075
157.5932, 107.2931
158.0753, 108.2223
158.5574, 109.1250
159.0396, 110.2213
159.5217, 111.5646
160.0038, 112.5897
160.4859, 113.3234
160.9680, 113.7752
161.4501, 113.7001
161.9323, 113.2427
162.4144, 112.9084
162.8965, 113.2485
163.3786, 114.4895
163.8607, 115.4951
164.3428, 116.0498
164.8250, 116.5368
165.3071, 117.2133
165.7892, 118.1235
166.2713, 119.1628
166.7534, 120.1740
167.2355, 121.1151
167.7177, 122.4017
168.1998, 124.1080
168.6819, 126.1817
169.1640, 128.7013
169.6461, 131.8022
170.1282, 134.8922
170.6104, 136.9798
171.0925, 138.1876
171.5746, 139.7292
172.0567, 142.3867
172.5388, 145.7716
173.0209, 148.7410
173.5031, 151.0119
173.9852, 152.8822
174.4673, 154.7886
174.9494, 156.6941
175.4315, 158.2582
175.9136, 159.3344
176.3958, 159.9198
176.8779, 159.7800
177.3600, 158.5585
177.8421, 156.7795
178.3242, 154.7286
178.8063, 152.4196
179.2885, 149.7925
179.7706, 146.7629
180.2527, 143.3015
180.7348, 139.5131
181.2169, 135.2891
181.6990, 130.8314
182.1812, 126.1444
182.6633, 121.2601
183.1454, 116.3814
183.6275, 111.7461
184.1096, 107.2778
184.5917, 103.2838
185.0738, 99.83094
185.5560, 96.69659
186.0381, 93.75898
186.5202, 90.97968
187.0023, 88.38253
187.4844, 86.02089
187.9665, 83.86993
188.4487, 82.05281
188.9308, 80.63583
189.4129, 79.51193
189.8950, 78.61768
190.3771, 77.93359
190.8592, 77.41448
191.3414, 76.99741
191.8235, 76.79372
192.3056, 76.48241
192.7877, 75.76568
193.2698, 74.99702
193.7519, 74.74963
194.2341, 75.29832
194.7162, 76.17709
195.1983, 76.35059
195.6804, 75.64528
196.1625, 75.06470
196.6446, 75.03439
197.1268, 75.34840
197.6089, 75.48299
198.0910, 75.13993
198.5731, 74.75216
199.0552, 75.04150
199.5373, 76.09563
200.0195, 77.20589
200.5016, 77.98825
200.9837, 78.49949
201.4658, 78.99759
201.9479, 79.45454
202.4300, 80.05480
202.9122, 80.93053
203.3943, 82.09158
203.8764, 83.49968
204.3585, 85.24058
204.8406, 87.31499
205.3227, 89.23765
205.8048, 90.51109
206.2870, 91.88988
206.7691, 93.99984
207.2512, 96.89779
207.7333, 100.0035
208.2154, 102.6263
208.6975, 104.6416
209.1797, 106.9152
209.6618, 109.7523
210.1439, 112.7927
210.6260, 115.8891
211.1081, 119.0024
211.5902, 122.1117
212.0724, 125.2625
212.5545, 128.5833
213.0366, 131.4698
213.5187, 133.5428
214.0008, 135.4434
214.4829, 137.6232
214.9651, 140.1362
215.4472, 142.6862
215.9293, 144.8245
216.4114, 146.3758
216.8935, 147.8427
217.3756, 149.2025
217.8578, 150.5201
218.3399, 151.8028
218.8220, 153.0662
219.3041, 154.3914
219.7862, 155.8780
220.2683, 157.4587
220.7505, 159.3933
221.2326, 161.7121
221.7147, 164.3257
222.1968, 167.2540
222.6789, 170.4728
223.1610, 173.8116
223.6432, 177.0266
224.1253, 180.0903
224.6074, 183.0456
225.0895, 186.0720
225.5716, 188.9005
226.0537, 191.4276
226.5358, 193.6136
227.0180, 195.1530
227.5001, 195.5562
227.9822, 194.5595
228.4643, 193.0664
228.9464, 191.0266
229.4285, 188.5572
229.9107, 185.7819
230.3928, 182.7314
230.8749, 179.4050
231.3570, 175.7655
231.8391, 171.8021
232.3212, 167.7457
232.8034, 163.4104
233.2855, 159.0979
233.7676, 155.1205
234.2497, 151.5084
234.7318, 148.3854
235.2139, 146.0063
235.6961, 144.2859
236.1782, 142.9287
236.6603, 141.9369
237.1424, 141.2454
237.6245, 140.7975
238.1066, 140.6329
238.5888, 140.5476
239.0709, 140.5030
239.5530, 140.4321
240.0351, 140.0032
240.5172, 138.6345
240.9993, 136.9243
241.4815, 136.1170
241.9636, 136.5373
242.4457, 137.2063
242.9278, 137.4598
243.4099, 137.4235
243.8920, 137.3226
244.3742, 137.1496
244.8563, 136.9906
245.3384, 137.0728
245.8205, 137.4841
246.3026, 137.9446
246.7847, 138.2108
247.2668, 138.4246
247.7490, 138.8161
248.2311, 139.4597
248.7132, 140.3601
249.1953, 141.5710
249.6774, 143.1771
250.1595, 144.9397
250.6417, 146.6189
251.1238, 148.3976
251.6059, 150.5285
252.0880, 153.1549
252.5701, 156.1682
253.0522, 159.3920
253.5344, 163.0012
254.0165, 166.4381
254.4986, 169.4393
254.9807, 172.2432
255.4628, 175.1819
255.9449, 178.4242
256.4271, 181.7302
256.9092, 184.6482
257.3913, 187.4610
257.8734, 189.2062
258.3555, 189.6541
258.8376, 189.2040
259.3198, 188.2596
259.8019, 186.9806
260.2840, 185.1501
260.7661, 182.2805
261.2482, 178.0730
261.7303, 173.2737
262.2125, 167.9180
262.6946, 162.1339
263.1767, 155.9303
263.6588, 149.3088
264.1409, 142.5475
264.6230, 136.0572
265.1052, 129.8204
265.5873, 123.9323
266.0694, 118.3539
266.5515, 113.0936
267.0336, 108.1989
267.5157, 103.6803
267.9979, 99.48506
268.4800, 95.51462
268.9621, 91.61192
269.4442, 88.38914
269.9263, 86.08236
270.4084, 84.13613
270.8906, 82.29604
271.3727, 80.48006
271.8548, 78.66319
272.3369, 76.79523
272.8190, 74.81831
273.3011, 73.03889
273.7833, 71.36494
274.2654, 69.91892
274.7475, 68.82053
275.2296, 68.04142
275.7117, 67.46095
276.1938, 66.98734
276.6760, 66.66561
277.1581, 66.15734
277.6402, 65.10445
278.1223, 64.23338
278.6044, 64.01383
279.0865, 64.31422
279.5686, 64.64161
280.0508, 64.59859
280.5329, 64.17764
281.0150, 63.76094
281.4971, 63.23101
281.9792, 62.81820
282.4613, 62.64247
282.9435, 62.65468
283.4256, 62.72882
283.9077, 62.78112
284.3898, 62.82505
284.8719, 62.98536
285.3540, 63.27353
285.8362, 63.64272
286.3183, 64.12074
286.8004, 64.66792
287.2825, 65.19727
287.7646, 65.65401
288.2467, 66.09502
288.7289, 66.73940
289.2110, 67.74564
289.6931, 68.73866
290.1752, 69.66109
290.6573, 70.53404
291.1394, 71.38661
291.6216, 72.23253
292.1037, 73.04528
292.5858, 73.78593
293.0679, 74.51353
293.5500, 75.04671
294.0321, 75.32589
294.5143, 75.41960
294.9964, 75.38095
295.4785, 75.22494
295.9606, 74.98837
296.4427, 74.71113
296.9248, 74.36523
297.4070, 74.06691
297.8891, 73.88451
298.3712, 73.71265
298.8533, 73.44972
299.3354, 73.08423
299.8175, 72.68060
300.2997, 72.30261
300.7818, 71.95610
301.2639, 71.59375
301.7460, 71.07446
302.2281, 70.65065
302.7102, 70.54832
303.1924, 70.74310
303.6745, 71.00172
304.1566, 71.19216
304.6387, 71.29053
305.1208, 71.12173
305.6029, 70.58849
306.0851, 69.91364
306.5672, 69.16805
307.0493, 68.36577
307.5314, 67.54472
308.0135, 66.74421
308.4956, 65.92520
308.9778, 64.92704
309.4599, 63.58562
309.9420, 62.30107
310.4241, 61.14440
310.9062, 60.13810
311.3883, 59.32705
311.8705, 58.72202
312.3526, 58.35408
312.8347, 58.36760
313.3168, 58.93071
313.7989, 59.40671
314.2810, 59.41847
314.7632, 59.36084
315.2453, 59.84832
315.7274, 61.06627
316.2095, 62.53748
316.6916, 63.64419
317.1737, 64.33585
317.6559, 64.85664
318.1380, 65.07183
318.6201, 65.21435
319.1022, 65.59914
319.5843, 66.24172
320.0664, 66.74307
320.5485, 66.74233
321.0306, 66.18093
321.5128, 65.37814
321.9949, 64.17533
322.4770, 62.87020
322.9591, 61.68828
323.4412, 60.59868
323.9233, 59.35667
324.4055, 57.76126
324.8876, 55.87963
325.3697, 54.28878
325.8518, 53.01654
326.3339, 51.94316
326.8160, 51.01586
327.2982, 50.25208
327.7803, 49.73298
328.2624, 49.53923
328.7445, 49.50710
329.2266, 49.16985
329.7087, 48.29384
330.1909, 47.57809
330.6730, 47.21447
331.1551, 47.06170
331.6372, 46.92516
332.1193, 46.74713
332.6014, 46.62901
333.0836, 46.72966
333.5657, 47.13411
334.0478, 47.52962
334.5299, 47.93516
335.0120, 48.30773
335.4941, 48.59287
335.9763, 48.79128
336.4584, 48.97437
336.9405, 49.19817
337.4226, 49.46518
337.9047, 49.80555
338.3868, 50.19333
338.8690, 50.67065
339.3511, 51.34883
339.8332, 52.15242
340.3153, 52.84768
340.7974, 53.27189
341.2795, 53.47679
341.7617, 53.78765
342.2438, 54.17575
342.7259, 54.68281
343.2080, 55.52594
343.6901, 56.44605
344.1722, 57.03174
344.6544, 57.10815
345.1365, 56.85470
345.6186, 56.63609
346.1007, 56.46380
346.5828, 56.31512
347.0649, 56.33582
347.5471, 56.29629
348.0292, 55.98411
348.5113, 55.36726
348.9934, 54.55904
349.4755, 53.70269
349.9576, 52.81192
350.4398, 51.77533
350.9219, 50.18554
351.4040, 48.83409
351.8861, 48.30170
352.3682, 48.42074
352.8503, 48.59947
353.3325, 48.39232
353.8146, 47.82655
354.2967, 47.31921
354.7788, 46.83199
355.2609, 46.44667
355.7430, 46.30221
356.2252, 46.23975
356.7073, 45.98188
357.1894, 45.39244
357.6715, 44.67849
358.1536, 44.36768
358.6357, 44.79673
359.1179, 45.14188
359.5999, 45.39665
360.0821, 45.54952
360.5642, 45.50496
361.0463, 45.28741
361.5284, 45.12068
362.0105, 45.32177
362.4926, 46.03723
362.9748, 46.55377
363.4569, 46.73182
363.9390, 46.85568
364.4211, 47.06443
364.9032, 47.32748
365.3853, 47.53028
365.8675, 47.58759
366.3496, 47.50721
366.8317, 47.35260
367.3138, 46.93870
367.7959, 46.69562
368.2780, 46.85149
368.7602, 47.17448
369.2423, 47.33546
369.7244, 47.18213
370.2065, 46.94478
370.6886, 47.12706
371.1707, 47.95594
371.6529, 48.63204
372.1350, 49.02262
372.6171, 49.25218
373.0992, 49.30390
373.5813, 49.21881
374.0634, 49.21613
374.5456, 49.54915
375.0277, 50.23142
375.5098, 50.92454
375.9919, 51.54127
376.4740, 52.26870
376.9561, 53.21519
377.4383, 54.33320
377.9204, 55.49938
378.4025, 56.64901
378.8846, 57.80267
379.3667, 58.98702
379.8488, 60.12255
380.3310, 61.50286
380.8131, 63.31184
381.2952, 65.39028
381.7773, 67.55845
382.2594, 69.73282
382.7415, 72.17404
383.2237, 75.27148
383.7058, 79.02615
384.1879, 82.73624
384.6700, 86.31532
385.1521, 89.69772
385.6342, 92.85158
386.1164, 95.76857
386.5985, 98.60339
387.0806, 101.7492
387.5627, 104.8167
388.0448, 106.9356
388.5269, 108.0414
389.0091, 108.1570
389.4912, 107.0536
389.9733, 104.9547
390.4554, 102.1810
390.9375, 98.62441
391.4196, 94.57143
391.9018, 90.04778
392.3839, 85.11073
392.8660, 80.46188
393.3481, 76.44338
393.8302, 72.86755
394.3123, 69.30618
394.7945, 65.68686
395.2766, 62.28918
395.7587, 59.12324
396.2408, 56.28035
396.7229, 54.00932
397.2050, 52.36871
397.6872, 51.08486
398.1693, 49.89826
398.6514, 48.82114
399.1335, 47.73024
399.6156, 46.53259
400.0977, 45.37891
400.5798, 44.37770
401.0620, 43.51863
401.5441, 42.72041
402.0262, 41.92237
402.5083, 41.15304
402.9904, 40.58598
403.4725, 40.31480
403.9547, 40.09483
404.4368, 39.91406
404.9189, 39.74683
405.4010, 39.53650
405.8831, 39.27154
406.3652, 39.04285
406.8474, 39.00894
407.3295, 39.32263
407.8116, 39.37392
408.2937, 38.81688
408.7758, 38.33361
409.2579, 38.37809
409.7401, 38.85862
410.2222, 39.37648
410.7043, 39.63636
411.1864, 39.67624
411.6685, 39.84597
412.1506, 40.38908
412.6328, 40.75839
413.1149, 40.64033
413.5970, 40.41498
414.0791, 40.49839
414.5612, 41.03190
415.0433, 41.85256
415.5255, 42.76107
416.0076, 43.83944
416.4897, 44.73421
416.9718, 45.17696
417.4539, 45.63752
417.9360, 46.28911
418.4182, 47.15295
418.9003, 48.19741
419.3824, 49.42356
419.8645, 50.81168
420.3466, 52.30781
420.8287, 53.92255
421.3109, 55.61141
421.7930, 57.31337
422.2751, 59.08039
422.7572, 60.99385
423.2393, 63.09771
423.7214, 65.23312
424.2036, 67.30285
424.6857, 69.29475
425.1678, 71.01713
425.6499, 72.47231
426.1320, 73.55630
426.6141, 74.23626
427.0963, 74.52482
427.5784, 74.46928
428.0605, 74.20144
428.5426, 73.55598
429.0247, 72.23281
429.5068, 70.19261
429.9890, 67.73366
430.4711, 64.83294
430.9532, 61.70001
431.4353, 59.01834
431.9174, 57.05065
432.3995, 55.14183
432.8817, 52.87784
433.3638, 50.45448
433.8459, 48.25618
434.3280, 46.40925
434.8101, 44.83620
435.2922, 43.44592
435.7744, 42.25518
436.2565, 41.24531
436.7386, 40.53547
437.2207, 39.91028
437.7028, 39.21389
438.1849, 38.46080
438.6671, 37.74736
439.1492, 37.12915
439.6313, 36.61393
440.1134, 36.26588
440.5955, 36.21195
441.0776, 36.17194
441.5598, 36.13772
442.0418, 36.09330
442.5240, 35.99533
443.0061, 35.84572
443.4882, 35.72959
443.9703, 35.76740
444.4524, 35.99386
444.9345, 36.21330
445.4167, 36.36998
445.8988, 36.57499
446.3809, 36.81346
446.8630, 37.13448
447.3451, 37.65138
447.8272, 38.45644
448.3094, 39.41783
448.7915, 40.17243
449.2736, 40.60432
449.7557, 41.15939
450.2378, 41.95097
450.7199, 42.90793
451.2021, 44.02430
451.6842, 45.28924
452.1663, 46.61846
452.6484, 47.88224
453.1305, 49.14006
453.6126, 50.69652
454.0948, 52.72919
454.5769, 54.65979
455.0590, 56.14246
455.5411, 57.24737
456.0232, 58.02118
456.5053, 58.42011
456.9875, 58.55939
457.4696, 58.47965
457.9517, 58.20728
458.4338, 57.86501
458.9159, 57.50025
459.3980, 57.06665
459.8802, 56.48809
460.3623, 55.77584
460.8444, 54.93593
461.3265, 53.96511
461.8086, 52.87127
462.2907, 51.60577
462.7729, 50.19832
463.2550, 48.79551
463.7371, 47.47480
464.2192, 46.24753
464.7013, 45.14092
465.1834, 44.17665
465.6656, 43.29533
466.1477, 42.53529
466.6298, 41.82294
467.1119, 41.04212
467.5940, 40.18096
468.0761, 39.38911
468.5583, 38.85637
469.0404, 38.61665
469.5225, 38.39339
470.0046, 38.29545
470.4867, 38.09888
470.9688, 37.54962
471.4510, 36.89492
471.9331, 36.53473
472.4152, 36.66469
472.8973, 37.13214
473.3794, 37.77108
473.8615, 38.73232
474.3437, 39.20995
474.8258, 38.46990
475.3079, 37.66741
475.7900, 37.52094
476.2721, 37.99789
476.7542, 38.65545
477.2364, 39.31220
477.7185, 39.94176
478.2006, 40.46861
478.6827, 40.87036
479.1648, 41.28727
479.6469, 41.75897
480.1291, 42.31248
480.6112, 42.97431
481.0933, 43.74434
481.5754, 44.62318
482.0575, 45.67505
482.5396, 46.82185
483.0217, 47.87376
483.5038, 48.78382
483.9860, 49.79911
484.4681, 51.21343
484.9502, 53.04284
485.4323, 54.65480
485.9144, 55.64230
486.3965, 56.85171
486.8787, 58.62717
487.3608, 60.88830
487.8429, 63.52083
488.3250, 66.48534
488.8071, 69.61754
489.2892, 72.54184
489.7714, 74.86178
490.2535, 78.04866
490.7356, 82.35926
491.2177, 87.13271
491.6998, 92.12837
492.1819, 97.29192
492.6641, 102.5859
493.1462, 107.9591
493.6283, 113.4584
494.1104, 119.3790
494.5925, 126.1512
495.0746, 132.1320
495.5568, 137.0250
496.0389, 140.8697
496.5210, 143.6748
497.0031, 145.4204
497.4852, 145.9879
497.9673, 145.3664
498.4495, 143.4906
498.9316, 139.9825
499.4137, 134.6205
499.8958, 128.5641
500.3779, 122.1736
500.8600, 115.5388
501.3422, 108.8442
501.8243, 101.8885
502.3064, 95.29050
502.7885, 89.33347
503.2706, 83.90611
503.7527, 78.71084
504.2349, 73.69751
504.7170, 69.00239
505.1991, 64.74625
505.6812, 60.91467
506.1633, 57.66582
506.6454, 55.23610
507.1276, 53.05460
507.6097, 50.95929
508.0918, 48.95955
508.5739, 47.11859
509.0560, 45.45583
509.5381, 43.91061
510.0203, 42.37533
510.5024, 40.77007
510.9845, 39.44545
511.4666, 38.54414
511.9487, 37.78715
512.4308, 37.12114
512.9130, 36.51162
513.3951, 35.92099
513.8772, 35.33525
514.3593, 34.74025
514.8414, 34.06973
515.3235, 33.29091
515.8057, 32.68105
516.2878, 32.45356
516.7699, 32.26234
517.2520, 31.76189
517.7341, 31.00092
518.2162, 30.34615
518.6984, 29.98992
519.1805, 29.79885
519.6626, 29.61942
520.1447, 29.44840
520.6268, 29.30240
521.1089, 29.20590
521.5911, 29.11950
522.0732, 28.93344
522.5553, 28.58020
523.0374, 28.33617
523.5195, 28.33649
524.0016, 28.40332
524.4838, 28.38796
524.9659, 28.28357
525.4480, 28.15877
525.9301, 28.06728
526.4122, 27.99167
526.8943, 27.83553
527.3765, 27.54518
527.8586, 27.24771
528.3407, 26.87866
528.8228, 26.55754
529.3049, 26.39947
529.7870, 26.40396
530.2692, 26.47226
530.7513, 26.53876
531.2334, 26.59707
531.7155, 26.58319
532.1976, 26.41799
532.6797, 26.36672
533.1619, 26.77558
533.6440, 27.24043
534.1261, 27.27972
534.6082, 26.76854
535.0903, 26.27237
535.5724, 26.18427
536.0546, 26.36701
536.5367, 26.54739
537.0188, 26.69454
537.5009, 26.81146
537.9830, 26.89327
538.4651, 26.94533
538.9473, 27.00081
539.4294, 27.13699
539.9115, 27.18009
540.3936, 26.98201
540.8757, 26.71100
541.3578, 26.58684
541.8400, 26.64521
542.3221, 26.75259
542.8042, 26.76315
543.2863, 26.67340
543.7684, 26.70279
544.2505, 26.89887
544.7326, 27.16718
545.2147, 27.62353
545.6968, 28.07581
546.1790, 28.26108
546.6611, 28.13103
547.1432, 27.96858
547.6253, 28.07177
548.1074, 28.42500
548.5895, 28.84324
549.0717, 29.31273
549.5538, 29.85872
550.0359, 30.52103
550.5180, 31.26378
551.0001, 32.05559
551.4822, 32.90552
551.9644, 33.76214
552.4465, 34.54388
552.9286, 35.32175
553.4107, 36.28526
553.8928, 37.47511
554.3749, 38.69406
554.8571, 39.81704
555.3392, 40.83681
555.8213, 41.45070
556.3034, 41.54211
556.7855, 41.43770
557.2676, 41.28808
557.7498, 40.95676
558.2319, 40.21637
558.7140, 39.04561
559.1961, 37.70510
559.6782, 36.42581
560.1603, 35.21198
560.6425, 34.26194
561.1246, 33.77023
561.6067, 33.27629
562.0888, 32.50987
562.5709, 31.72523
563.0530, 31.21713
563.5352, 31.06145
564.0173, 31.06914
564.4994, 31.14457
564.9815, 31.25680
565.4636, 31.30638
565.9457, 31.28332
566.4279, 31.19091
566.9100, 30.95033
567.3921, 30.65806
567.8742, 30.64071
568.3563, 31.11267
568.8384, 31.50001
569.3206, 31.45656
569.8027, 31.29869
570.2848, 31.46032
570.7669, 31.97421
571.2490, 32.51965
571.7311, 32.80048
572.2133, 32.85363
572.6954, 33.07744
573.1775, 33.69056
573.6596, 34.17579
574.1417, 34.44363
574.6238, 34.58098
575.1060, 34.59555
575.5881, 34.52931
576.0702, 34.54684
576.5523, 34.82784
577.0344, 35.29854
577.5165, 35.69624
577.9987, 36.02107
578.4808, 36.27160
578.9629, 36.44346
579.4450, 36.53396
579.9271, 36.54346
580.4092, 36.46609
580.8914, 36.34941
581.3735, 36.21740
581.8556, 36.05127
582.3377, 35.85044
582.8198, 35.60299
583.3019, 35.22114
583.7841, 34.62231
584.2662, 33.93393
584.7483, 33.51123
585.2304, 33.59670
585.7125, 33.55380
586.1946, 33.38591
586.6768, 33.09580
587.1589, 32.58817
587.6410, 31.95889
588.1231, 31.45985
588.6052, 31.27190
589.0873, 31.19009
589.5695, 30.69430
590.0516, 29.68241
590.5337, 29.02285
591.0158, 29.14050
591.4979, 29.35311
591.9800, 29.05407
592.4622, 28.36086
592.9443, 27.75102
593.4264, 27.27488
593.9085, 27.02141
594.3906, 27.25663
594.8727, 27.78144
595.3549, 28.01906
595.8370, 27.77700
596.3191, 27.33235
596.8012, 27.00671
597.2833, 26.80906
597.7654, 26.67138
598.2476, 26.68847
598.7297, 26.64723
599.2118, 26.42301
599.6939, 26.12749
600.1760, 25.88273
600.6581, 25.73119
601.1403, 25.68313
601.6224, 25.81291
602.1045, 26.10674
602.5866, 26.21045
603.0687, 26.04132
603.5508, 25.86284
604.0330, 25.78820
604.5151, 25.78578
604.9972, 25.84822
605.4793, 26.00262
605.9614, 26.08459
606.4435, 25.93232
606.9257, 25.69769
607.4078, 25.60630
607.8899, 25.66592
608.3720, 25.74289
608.8541, 25.75480
609.3362, 25.72057
609.8184, 25.69716
610.3005, 25.59344
610.7826, 25.64771
611.2647, 25.95880
611.7468, 26.33495
612.2289, 26.64760
612.7111, 26.91885
613.1932, 27.25339
613.6753, 27.72671
614.1574, 28.24488
614.6395, 28.65599
615.1216, 28.96417
615.6038, 29.10949
616.0859, 28.96694
616.5680, 28.82364
617.0501, 29.02501
617.5322, 29.44337
618.0143, 29.62843
618.4965, 29.30855
618.9786, 28.93516
619.4607, 28.78996
619.9428, 28.77698
620.4249, 28.75191
620.9070, 28.67217
621.3892, 28.47167
621.8713, 28.05057
622.3534, 27.41330
622.8355, 27.00097
623.3176, 27.04643
623.7997, 27.02372
624.2819, 26.74340
624.7640, 26.43739
625.2461, 26.34593
625.7282, 26.47799
626.2103, 26.62605
626.6924, 26.60766
627.1745, 26.50065
627.6566, 26.53118
628.1387, 26.71538
628.6208, 26.79638
629.1030, 26.61867
629.5851, 26.36229
630.0672, 26.31736
630.5493, 26.49236
631.0314, 26.62311
631.5135, 26.55618
631.9957, 26.54317
632.4778, 26.82008
632.9599, 27.25984
633.4420, 27.60891
633.9241, 27.76794
634.4063, 27.78222
634.8884, 27.67562
635.3705, 27.41143
635.8526, 27.34183
636.3347, 27.64134
636.8168, 27.89279
637.2990, 27.95912
637.7811, 27.90034
638.2632, 27.78928
638.7453, 27.64209
639.2274, 27.41977
639.7095, 26.99869
640.1917, 26.52213
640.6738, 26.25179
641.1559, 26.20208
641.6380, 26.25296
642.1201, 26.36678
642.6022, 26.49594
643.0844, 26.53159
643.5665, 26.43514
644.0486, 26.31637
644.5307, 26.10916
645.0128, 25.94377
645.4949, 25.92776
645.9771, 26.00160
646.4592, 26.05858
646.9413, 26.05367
647.4234, 25.96754
647.9055, 25.72125
648.3876, 25.32033
648.8698, 25.06369
649.3519, 25.03399
649.8340, 25.01383
650.3161, 24.80866
650.7982, 24.53921
651.2803, 24.46784
651.7625, 24.69840
652.2446, 24.90305
652.7267, 24.94398
653.2088, 24.90069
653.6909, 24.85874
654.1730, 24.82062
654.6552, 24.73156
655.1373, 24.54919
655.6194, 24.33792
656.1015, 24.24666
656.5836, 24.23136
657.0657, 24.27208
657.5479, 24.51665
658.0300, 24.65117
658.5121, 24.68154
658.9942, 24.29583
659.4763, 24.44740
659.9584, 24.38365
660.4406, 24.31108
660.9227, 24.53827
661.4048, 24.21307
661.8869, 24.43551
662.3690, 24.43934
662.8511, 24.54323
663.3333, 24.43046
663.8154, 24.38461
664.2975, 24.55548
664.7796, 24.60635
665.2617, 24.60229
665.7438, 24.43792
666.2260, 24.20489
666.7081, 24.14145
667.1902, 24.21651
667.6723, 24.28135
668.1544, 24.25544
668.6365, 24.20165
669.1187, 24.23609
669.6008, 24.35279
670.0829, 24.40433
670.5650, 24.34902
671.0471, 24.28201
671.5292, 24.26522
672.0114, 24.29385
672.4935, 24.33897
672.9756, 24.36398
673.4577, 24.46811
673.9398, 24.81304
674.4219, 25.15826
674.9041, 25.24843
675.3862, 25.10240
675.8683, 24.88772
676.3504, 24.69656
676.8325, 24.55596
677.3146, 24.53688
677.7968, 24.65696
678.2789, 24.82103
678.7610, 25.09717
679.2431, 25.31650
679.7252, 25.32166
680.2073, 25.21259
680.6895, 25.19189
681.1716, 25.31414
681.6537, 25.49452
682.1358, 25.78337
682.6179, 26.05338
683.1000, 26.04691
683.5822, 25.78884
684.0643, 25.61281
684.5464, 25.74125
685.0285, 26.07983
685.5106, 26.37690
685.9927, 26.68460
686.4749, 26.82670
686.9570, 26.54656
687.4391, 26.34873
687.9212, 26.53992
688.4033, 26.95052
688.8854, 27.25614
689.3676, 27.34188
689.8497, 27.35960
690.3318, 27.42006
690.8139, 27.50908
691.2960, 27.59933
691.7781, 27.68799
692.2603, 27.77265
692.7424, 27.85295
693.2245, 27.92717
693.7066, 27.98657
694.1887, 27.97311
694.6708, 28.06672
695.1530, 28.33244
695.6351, 28.62848
696.1172, 28.89605
696.5993, 29.14478
697.0814, 29.39087
697.5635, 29.63848
698.0457, 29.91560
698.5278, 30.26871
699.0099, 30.67404
699.4920, 31.04942
699.9741, 31.38313
700.4562, 31.76384
700.9384, 32.26186
701.4205, 32.80384
701.9026, 33.22261
702.3847, 33.44336
702.8668, 33.73862
703.3489, 34.13526
703.8311, 34.58297
704.3132, 35.06157
704.7953, 35.57263
705.2774, 36.18877
705.7595, 36.91165
706.2416, 37.51200
706.7238, 37.64333
707.2059, 37.42455
707.6880, 37.35011
708.1701, 37.41904
708.6522, 37.72854
709.1343, 38.43984
709.6164, 39.27238
710.0985, 39.76577
710.5806, 39.87038
711.0627, 40.02711
711.5449, 40.34777
712.0270, 40.63805
712.5091, 40.69563
712.9912, 40.71316
713.4733, 40.98364
713.9554, 41.56192
714.4376, 42.23505
714.9197, 42.80832
715.4018, 43.31291
715.8839, 43.87872
716.3660, 44.50550
716.8481, 45.16919
717.3303, 45.83921
717.8124, 46.56551
718.2945, 47.38883
718.7766, 48.30791
719.2587, 49.40409
719.7408, 50.88800
720.2230, 52.30622
720.7051, 53.26313
721.1872, 54.17903
721.6693, 55.61901
722.1514, 57.59634
722.6335, 59.65110
723.1157, 61.40034
723.5978, 63.04898
724.0799, 65.09437
724.5620, 67.54987
725.0441, 70.42396
725.5262, 73.85958
726.0084, 77.44416
726.4905, 80.77082
726.9726, 83.96322
727.4547, 87.35948
727.9368, 90.75571
728.4189, 94.73161
728.9011, 99.78195
729.3832, 105.2585
729.8653, 110.3817
730.3474, 115.2878
730.8295, 120.7214
731.3116, 127.1287
731.7938, 133.9640
732.2759, 140.1019
732.7580, 145.5080
733.2401, 152.0276
733.7222, 160.0184
734.2043, 168.5979
734.6865, 177.5426
735.1686, 186.6274
735.6507, 195.5300
736.1328, 204.4753
736.6149, 212.3269
737.0970, 219.2615
737.5792, 224.6841
738.0613, 228.7677
738.5434, 230.9258
739.0255, 229.9911
739.5076, 225.6062
739.9897, 218.8792
740.4719, 210.8707
740.9540, 201.6412
741.4361, 191.2910
741.9182, 179.6585
742.4003, 167.8567
742.8824, 156.0357
743.3646, 144.5926
743.8467, 134.0370
744.3288, 124.3343
744.8109, 115.4502
745.2930, 107.2863
745.7751, 100.0554
746.2573, 94.12138
746.7394, 89.01219
747.2215, 84.19066
747.7036, 79.59448
748.1857, 75.41980
748.6678, 71.84743
749.1500, 68.79536
749.6321, 66.18913
750.1142, 64.02438
750.5963, 61.87548
751.0784, 59.60918
751.5605, 57.49564
752.0427, 55.75243
752.5248, 54.34208
753.0069, 52.99965
753.4890, 51.64165
753.9711, 50.47560
754.4532, 49.73232
754.9354, 49.00247
755.4175, 47.92847
755.8996, 46.63574
756.3817, 45.41218
756.8638, 44.36603
757.3459, 43.54687
757.8281, 43.16180
758.3102, 43.06122
758.7923, 42.63039
759.2744, 41.81388
759.7565, 41.02618
760.2386, 40.45478
760.7208, 40.04397
761.2029, 39.71131
761.6850, 39.48585
762.1671, 39.21708
762.6492, 38.99942
763.1313, 38.63118
763.6135, 37.83999
764.0956, 36.99188
764.5777, 36.47374
765.0598, 36.33759
765.5419, 36.39864
766.0240, 36.71722
766.5062, 37.00478
766.9883, 36.71416
767.4704, 36.00419
767.9525, 35.57460
768.4346, 35.59852
768.9167, 35.72663
769.3989, 35.64896
769.8810, 35.40800
770.3631, 35.28236
770.8452, 35.48027
771.3273, 35.40910
771.8094, 34.69365
772.2916, 34.03749
772.7737, 33.90846
773.2558, 34.10387
773.7379, 34.18108
774.2200, 34.01357
774.7021, 33.73783
775.1843, 33.33794
775.6664, 32.94468
776.1485, 32.77398
776.6306, 32.79053
777.1127, 32.79768
777.5948, 32.70791
778.0770, 32.56206
778.5591, 32.40373
779.0412, 32.22662
779.5233, 32.17538
780.0054, 32.31726
780.4875, 32.44588
780.9697, 32.54102
781.4518, 32.55540
781.9339, 32.37211
782.4160, 32.01911
782.8981, 31.83138
783.3802, 32.04753
783.8624, 32.26577
784.3445, 32.21484
784.8266, 32.08402
785.3087, 32.19481
785.7908, 32.51320
786.2729, 32.65544
786.7551, 32.33422
787.2372, 31.82279
787.7193, 31.69624
788.2014, 31.95041
788.6835, 32.19817
789.1656, 32.41085
789.6478, 32.55764
790.1299, 32.54804
790.6120, 32.50193
791.0941, 32.72603
791.5762, 33.31466
792.0583, 33.87683
792.5404, 34.46405
793.0225, 34.94203
793.5046, 35.26920
793.9868, 35.44123
794.4689, 35.38475
794.9510, 35.12264
795.4331, 34.93026
795.9152, 35.01855
796.3973, 35.30109
796.8795, 35.64832
797.3616, 36.06455
797.8437, 36.59631
798.3258, 37.26354
798.8079, 37.88604
799.2900, 38.30006
799.7722, 38.53698
800.2543, 38.75804
800.7364, 38.96797
801.2185, 39.15346
801.7006, 39.34398
802.1827, 39.47700
802.6649, 39.46453
803.1470, 39.38844
803.6291, 39.41527
804.1112, 39.60541
804.5933, 39.74984
805.0754, 39.72847
805.5576, 39.62389
806.0397, 39.55738
806.5218, 39.47313
807.0039, 39.18605
807.4860, 38.64762
807.9681, 38.05954
808.4503, 37.65144
808.9324, 37.38697
809.4145, 37.08936
809.8966, 36.76445
810.3787, 36.34292
810.8608, 35.74096
811.3430, 35.16835
811.8251, 34.91557
812.3072, 34.89082
812.7893, 34.46782
813.2714, 33.13398
813.7535, 32.17445
814.2357, 32.11218
814.7178, 32.16711
815.1999, 31.75579
815.6820, 31.05639
816.1641, 30.51867
816.6462, 30.30138
817.1284, 30.19613
817.6105, 30.04674
818.0926, 29.86910
818.5747, 29.67755
819.0568, 29.48132
819.5389, 29.34024
820.0211, 29.27866
820.5032, 29.22243
820.9853, 29.07770
821.4674, 28.85415
821.9495, 28.71048
822.4316, 28.68826
822.9138, 28.65271
823.3959, 28.57113
823.8780, 28.47929
824.3601, 28.42444
824.8422, 28.37663
825.3243, 28.24796
825.8065, 27.98058
826.2886, 27.73932
826.7707, 27.51478
827.2528, 27.40291
827.7349, 27.60906
828.2170, 27.97540
828.6992, 28.12949
829.1813, 27.95170
829.6634, 27.70040
830.1455, 27.62679
830.6276, 27.70793
831.1097, 27.91665
831.5919, 28.24814
832.0740, 28.45263
832.5561, 28.42557
833.0382, 28.39053
833.5203, 28.56559
834.0024, 28.92359
834.4846, 29.27062
834.9667, 29.60434
835.4488, 29.92586
835.9309, 30.29075
836.4130, 30.58467
836.8951, 30.63045
837.3773, 30.60327
837.8594, 30.84475
838.3415, 31.45976
838.8236, 32.07296
839.3057, 32.50828
839.7878, 32.84111
840.2700, 33.00818
840.7521, 33.16261
841.2342, 33.71501
841.7163, 34.71572
842.1984, 35.66386
842.6805, 36.06605
843.1627, 36.10479
843.6448, 36.32649
844.1269, 36.73620
844.6090, 37.12002
845.0911, 37.46089
845.5732, 37.68240
846.0554, 37.66259
846.5375, 37.52684
847.0196, 37.64549
847.5017, 38.17114
847.9838, 38.60450
848.4659, 38.97453
848.9481, 39.22371
849.4302, 39.33845
849.9123, 39.31654
850.3944, 39.13090
850.8765, 38.79058
851.3586, 38.40135
851.8408, 37.99271
852.3229, 37.57709
852.8050, 37.19081
853.2871, 36.79138
853.7692, 36.27372
854.2513, 35.65296
854.7335, 35.06754
855.2156, 34.61393
855.6977, 34.21727
856.1798, 33.73774
856.6619, 33.17798
857.1440, 32.62590
857.6262, 32.07012
858.1083, 31.63064
858.5904, 31.42083
859.0725, 31.25568
859.5546, 30.84291
860.0367, 30.14582
860.5189, 29.64643
861.0010, 29.56942
861.4831, 29.37754
861.9652, 28.83133
862.4473, 28.27408
862.9294, 27.95832
863.4116, 27.85134
863.8937, 27.81507
864.3758, 27.82208
864.8579, 27.83896
865.3400, 27.88868
865.8221, 27.90501
866.3043, 27.75263
866.7864, 27.50679
867.2685, 27.38694
867.7506, 27.45990
868.2327, 27.58861
868.7148, 27.64528
869.1970, 27.63535
869.6791, 27.56219
870.1612, 27.42572
870.6433, 27.29516
871.1254, 27.17876
871.6075, 27.10259
872.0897, 27.10783
872.5718, 27.15099
873.0539, 27.07471
873.5360, 26.71415
874.0181, 26.61283
874.5002, 27.07264
874.9823, 27.44553
875.4644, 27.45496
875.9465, 27.30908
876.4286, 27.22237
876.9108, 27.21884
877.3929, 27.28358
877.8750, 27.49236
878.3571, 27.67456
878.8392, 27.73164
879.3214, 27.71214
879.8035, 27.67155
880.2856, 27.61313
880.7677, 27.49493
881.2498, 27.28768
881.7319, 27.10905
882.2141, 27.13268
882.6962, 27.29831
883.1783, 27.43565
883.6604, 27.53758
884.1425, 27.63179
884.6246, 27.73599
885.1068, 27.73385
885.5889, 27.45149
886.0710, 26.95766
886.5531, 26.84846
887.0352, 27.34537
887.5173, 27.56772
887.9995, 27.24535
888.4816, 26.85379
888.9637, 26.69341
889.4458, 26.66201
889.9279, 26.50962
890.4100, 26.13175
890.8922, 26.04850
891.3743, 26.66919
891.8564, 27.20867
892.3385, 27.26481
892.8206, 27.07751
893.3027, 26.90824
893.7849, 26.79098
894.2670, 26.63564
894.7491, 26.32241
895.2312, 26.11918
895.7133, 26.37914
896.1954, 26.85881
896.6776, 27.16491
897.1597, 27.29512
897.6418, 27.42641
898.1239, 27.63381
898.6060, 27.85434
899.0881, 28.00428
899.5703, 28.09908
900.0524, 28.22546
900.5345, 28.38502
901.0166, 28.49595
901.4987, 28.47513
901.9808, 28.69428
902.4630, 29.58158
902.9451, 30.84611
903.4272, 31.43349
903.9093, 30.94559
904.3914, 30.70969
904.8735, 30.87685
905.3557, 31.11144
905.8378, 31.29903
906.3199, 31.49139
906.8020, 31.70978
907.2841, 31.96538
907.7662, 32.38281
908.2484, 33.11380
908.7305, 33.85411
909.2126, 34.47632
909.6947, 35.05153
910.1768, 35.59613
910.6589, 36.16130
911.1411, 36.84059
911.6232, 37.66681
912.1053, 38.62391
912.5874, 39.74931
913.0695, 40.97095
913.5516, 42.15459
914.0338, 43.33180
914.5159, 44.56972
914.9980, 45.90624
915.4801, 47.52503
915.9622, 49.61914
916.4443, 51.96925
916.9265, 54.01009
917.4086, 55.74759
917.8907, 57.84790
918.3728, 60.40173
918.8549, 63.14946
919.3370, 65.95516
919.8192, 68.98130
920.3013, 72.44859
920.7834, 76.38693
921.2655, 80.59025
921.7476, 85.07710
922.2297, 89.79739
922.7119, 94.81273
923.1940, 99.99671
923.6761, 105.0622
924.1582, 110.2762
924.6403, 116.1901
925.1224, 122.8946
925.6046, 130.0899
926.0867, 138.0475
926.5688, 146.0707
927.0509, 153.9529
927.5330, 161.5538
928.0151, 168.9610
928.4973, 175.9764
928.9794, 181.9315
929.4615, 186.4518
929.9436, 189.8759
930.4257, 192.9560
930.9078, 194.8896
931.3900, 194.3910
931.8721, 191.6702
932.3542, 187.5114
932.8363, 182.2525
933.3184, 176.1465
933.8005, 169.3809
934.2827, 162.0758
934.7648, 154.4507
935.2469, 146.5543
935.7290, 138.6090
936.2111, 130.6813
936.6932, 123.0760
937.1754, 115.9834
937.6575, 109.3078
938.1396, 102.8647
938.6217, 96.62883
939.1038, 90.78886
939.5859, 85.20459
940.0681, 80.37520
940.5502, 76.65329
941.0323, 73.34041
941.5144, 69.80231
941.9965, 66.17723
942.4786, 63.05816
942.9608, 60.78876
943.4429, 58.27366
943.9250, 54.94920
944.4071, 51.98372
944.8892, 50.02492
945.3713, 48.55756
945.8535, 47.03567
946.3356, 45.41539
946.8177, 43.90026
947.2998, 42.56059
947.7819, 41.32036
948.2640, 40.11716
948.7462, 39.03354
949.2283, 38.22860
949.7104, 37.58733
950.1925, 36.82757
950.6746, 35.87835
951.1567, 35.00438
951.6389, 34.48434
952.1210, 34.08092
952.6031, 33.50735
953.0852, 32.80502
953.5673, 31.86956
954.0494, 30.83362
954.5316, 30.50213
955.0137, 31.34094
955.4958, 32.32601
955.9779, 31.80228
956.4600, 30.11149
956.9421, 28.90255
957.4242, 28.16631
957.9063, 27.73675
958.3884, 27.58988
958.8705, 27.50474
959.3527, 27.30408
959.8348, 27.03404
960.3169, 26.85831
960.7990, 26.82612
961.2811, 26.58239
961.7632, 25.99333
962.2454, 25.55726
962.7275, 25.50172
963.2096, 25.62243
963.6917, 25.74676
964.1738, 25.86158
964.6559, 25.81476
965.1381, 25.43308
965.6202, 25.17112
966.1023, 25.04247
966.5844, 25.03207
967.0665, 25.18692
967.5486, 25.42735
968.0308, 25.63930
968.5129, 25.81675
968.9950, 26.06519
969.4771, 26.50767
969.9592, 26.89042
970.4413, 27.04939
970.9235, 27.18461
971.4056, 27.43243
971.8877, 27.78901
972.3698, 28.22941
972.8519, 28.74652
973.3340, 29.27861
973.8162, 29.78052
974.2983, 30.29369
974.7804, 30.87552
975.2625, 31.47321
975.7446, 32.03428
976.2267, 32.53606
976.7089, 32.96632
977.1910, 33.32097
977.6731, 33.53926
978.1552, 33.47997
978.6373, 33.28810
979.1194, 33.26806
979.6016, 33.33347
980.0837, 33.20241
980.5658, 32.81846
981.0479, 32.27842
981.5300, 31.64182
982.0121, 30.93671
982.4943, 30.15828
982.9764, 29.35328
983.4585, 28.83521
983.9406, 28.60334
984.4227, 28.26764
984.9048, 27.69424
985.3870, 27.16331
985.8691, 26.95070
986.3512, 26.94045
986.8333, 26.73446
987.3154, 26.29961
987.7975, 25.92626
988.2797, 25.60796
988.7618, 25.46247
989.2439, 25.63616
989.7260, 25.78270
990.2081, 25.43290
990.6902, 24.67105
991.1724, 24.29976
991.6545, 24.46644
992.1366, 24.69309
992.6187, 25.06146
993.1008, 25.31895
993.5829, 25.29383
994.0651, 25.13311
994.5472, 24.99736
995.0293, 24.88453
995.5114, 24.92235
995.9935, 25.31238
996.4756, 25.56112
996.9578, 25.40090
997.4399, 25.29838
997.9220, 25.61362
998.4041, 26.11137
998.8862, 26.40600
999.3683, 26.45032
999.8505, 26.49210
1000.333, 26.49483
1000.815, 26.63225
1001.297, 27.00323
1001.779, 27.50322
1002.261, 28.18883
1002.743, 28.88985
1003.225, 29.23775
1003.707, 29.13662
1004.190, 29.10704
1004.672, 29.44738
1005.154, 29.89964
1005.636, 30.37171
1006.118, 30.80634
1006.600, 31.11337
1007.082, 31.33210
1007.564, 31.60062
1008.046, 31.97163
1008.529, 32.29786
1009.011, 32.36990
1009.493, 32.42064
1009.975, 32.76712
1010.457, 33.25237
1010.939, 33.62196
1011.421, 33.83435
1011.903, 33.94486
1012.385, 33.98067
1012.868, 33.89076
1013.350, 33.55634
1013.832, 33.09307
1014.314, 32.66552
1014.796, 32.30093
1015.278, 32.16048
1015.760, 32.20766
1016.242, 32.03287
1016.725, 31.38359
1017.207, 30.54737
1017.689, 29.96170
1018.171, 29.53230
1018.653, 28.80254
1019.135, 27.86737
1019.617, 27.46428
1020.099, 27.73802
1020.581, 28.07099
1021.064, 28.04185
1021.546, 27.81930
1022.028, 27.69994
1022.510, 27.67803
1022.992, 27.67846
1023.474, 27.70056
1023.956, 27.77413
1024.438, 27.90821
1024.921, 28.08583
1025.403, 28.30353
1025.885, 28.53208
1026.367, 28.68927
1026.849, 28.76618
1027.331, 28.91370
1027.813, 29.14597
1028.295, 29.38076
1028.777, 29.61224
1029.260, 29.78466
1029.742, 29.84976
1030.224, 29.82556
1030.706, 29.75793
1031.188, 29.64165
1031.670, 29.52743
1032.152, 29.48154
1032.634, 29.22873
1033.116, 28.61254
1033.599, 27.90903
1034.081, 27.30221
1034.563, 26.81157
1035.045, 26.51449
1035.527, 26.50017
1036.009, 26.36845
1036.491, 26.09528
1036.973, 25.74572
1037.456, 25.27996
1037.938, 24.82063
1038.420, 24.48505
1038.902, 24.23572
1039.384, 23.93833
1039.866, 23.55958
1040.348, 23.23277
1040.830, 23.02753
1041.313, 22.77598
1041.795, 22.32101
1042.277, 21.90674
1042.759, 21.77262
1043.241, 21.83567
1043.723, 21.84583
1044.205, 21.80512
1044.687, 21.69402
1045.169, 21.49486
1045.651, 21.24711
1046.134, 20.87978
1046.616, 20.54010
1047.098, 20.35599
1047.580, 20.29782
1048.062, 20.26962
1048.544, 20.26715
1049.026, 20.28158
1049.508, 20.44231
1049.991, 20.45084
1050.473, 20.03610
1050.955, 19.58071
1051.437, 19.41484
1051.919, 19.46792
1052.401, 19.49511
1052.883, 19.44190
1053.365, 19.45716
1053.848, 19.61829
1054.330, 19.79471
1054.812, 20.02889
1055.294, 20.17730
1055.776, 20.02913
1056.258, 19.71481
1056.740, 19.55057
1057.222, 19.59558
1057.704, 19.76787
1058.187, 20.20134
1058.669, 20.55731
1059.151, 20.65938
1059.633, 20.64958
1060.115, 20.65856
1060.597, 20.65862
1061.079, 20.50805
1061.561, 20.14840
1062.043, 20.01206
1062.526, 20.48912
1063.008, 20.91044
1063.490, 20.87684
1063.972, 20.74697
1064.454, 20.77295
1064.936, 20.97653
1065.418, 21.42214
1065.900, 22.12870
1066.383, 22.58730
1066.865, 22.41483
1067.347, 22.19156
1067.829, 22.15401
1068.311, 22.21094
1068.793, 22.28317
1069.275, 22.38664
1069.757, 22.57945
1070.240, 22.86868
1070.722, 23.16024
1071.204, 23.36092
1071.686, 23.62645
1072.168, 24.15434
1072.650, 24.65969
1073.132, 24.79036
1073.614, 24.78391
1074.096, 25.15607
1074.578, 25.93450
1075.061, 26.47528
1075.543, 26.23168
1076.025, 26.14866
1076.507, 26.99071
1076.989, 27.86481
1077.471, 27.97177
1077.953, 27.68326
1078.435, 27.57054
1078.918, 27.73456
1079.400, 28.10184
1079.882, 28.79545
1080.364, 29.36894
1080.846, 29.44092
1081.328, 29.49504
1081.810, 29.94979
1082.292, 30.56848
1082.774, 31.05240
1083.257, 31.35488
1083.739, 31.49361
1084.221, 31.37369
1084.703, 31.40262
1085.185, 31.99667
1085.667, 32.54592
1086.149, 32.62522
1086.631, 32.45064
1087.114, 32.19382
1087.596, 31.94503
1088.078, 31.88851
1088.560, 32.12799
1089.042, 32.30793
1089.524, 32.32528
1090.006, 32.18992
1090.488, 31.78437
1090.970, 31.32815
1091.453, 31.06886
1091.935, 30.94207
1092.417, 30.73065
1092.899, 30.37256
1093.381, 30.04955
1093.863, 29.99711
1094.345, 29.77855
1094.827, 28.97529
1095.309, 28.12163
1095.792, 27.70326
1096.274, 27.57130
1096.756, 27.43280
1097.238, 27.23404
1097.720, 26.82310
1098.202, 25.85190
1098.684, 25.08005
1099.166, 24.92785
1099.649, 24.88635
1100.131, 24.63922
1100.613, 24.25130
1101.095, 23.85071
1101.577, 23.44833
1102.059, 22.97829
1102.541, 22.30121
1103.023, 21.76063
1103.505, 21.48525
1103.988, 21.30789
1104.470, 21.19230
1104.952, 21.09009
1105.434, 20.94428
1105.916, 20.76331
1106.398, 20.59825
1106.880, 20.39866
1107.362, 20.35505
1107.844, 20.73194
1108.327, 20.96919
1108.809, 20.80868
1109.291, 20.46268
1109.773, 20.01812
1110.255, 19.55904
1110.737, 19.33637
1111.219, 19.47531
1111.701, 19.42780
1112.184, 18.83816
1112.666, 18.50315
1113.148, 18.90397
1113.630, 19.29803
1114.112, 19.10895
1114.594, 18.61795
1115.076, 18.33435
1115.558, 18.27234
1116.041, 18.28437
1116.523, 18.37628
1117.005, 18.53899
1117.487, 18.91126
1117.969, 19.15277
1118.451, 19.02062
1118.933, 18.74752
1119.415, 18.63173
1119.897, 18.65707
1120.380, 18.63797
1120.862, 18.55663
1121.344, 18.46906
1121.826, 18.34565
1122.308, 18.28508
1122.790, 18.33479
1123.272, 18.43709
1123.754, 18.53788
1124.236, 18.64786
1124.719, 18.82031
1125.201, 19.09735
1125.683, 19.20262
1126.165, 19.08836
1126.647, 18.99417
1127.129, 18.99847
1127.611, 18.94083
1128.093, 18.66372
1128.576, 18.36862
1129.058, 18.45700
1129.540, 18.90798
1130.022, 19.32023
1130.504, 19.70774
1130.986, 19.84083
1131.468, 19.66965
1131.950, 19.35604
1132.432, 18.94208
1132.915, 18.67287
1133.397, 18.89567
1133.879, 19.43606
1134.361, 19.66064
1134.843, 19.59685
1135.325, 19.51053
1135.807, 19.43200
1136.289, 19.54474
1136.771, 19.90251
1137.254, 20.21363
1137.736, 20.23250
1138.218, 20.11178
1138.700, 20.11374
1139.182, 20.21032
1139.664, 20.35310
1140.146, 20.50556
1140.628, 20.49692
1141.111, 20.32068
1141.593, 20.17617
1142.075, 20.16930
1142.557, 20.13685
1143.039, 19.79486
1143.521, 19.38723
1144.003, 19.42895
1144.485, 19.67278
1144.968, 19.54334
1145.450, 19.12719
1145.932, 18.88394
1146.414, 18.95971
1146.896, 19.22904
1147.378, 19.74933
1147.860, 20.12387
1148.342, 19.86083
1148.824, 19.33212
1149.307, 18.85242
1149.789, 18.49394
1150.271, 18.42131
1150.753, 18.55404
1151.235, 18.47153
1151.717, 17.95127
1152.199, 17.44599
1152.681, 17.12499
1153.163, 17.00785
1153.646, 17.30750
1154.128, 17.65524
1154.610, 17.60229
1155.092, 17.29973
1155.574, 17.20730
1156.056, 17.42107
1156.538, 17.45675
1157.020, 16.86779
1157.503, 16.52431
1157.985, 16.96483
1158.467, 17.40149
1158.949, 17.24433
1159.431, 16.88372
1159.913, 16.93026
1160.395, 17.32415
1160.877, 17.36361
1161.359, 16.74564
1161.842, 16.30417
1162.324, 16.13945
1162.806, 16.01010
1163.288, 15.85365
1163.770, 15.70757
1164.252, 15.56115
1164.734, 15.47523
1165.216, 15.61698
1165.698, 16.01616
1166.181, 16.22416
1166.663, 16.16435
1167.145, 16.22266
1167.627, 16.51999
1168.109, 16.66669
1168.591, 16.43355
1169.073, 16.12011
1169.555, 16.06837
1170.037, 16.22670
1170.520, 16.46869
1171.002, 16.78490
1171.484, 16.72911
1171.966, 16.29704
1172.448, 16.12826
1172.930, 16.38771
1173.412, 16.63451
1173.894, 16.57205
1174.377, 16.35267
1174.859, 16.15581
1175.341, 16.00042
1175.823, 15.97448
1176.305, 16.02700
1176.787, 16.00831
1177.269, 15.90810
1177.751, 15.73426
1178.234, 15.51133
1178.716, 15.44628
1179.198, 15.74670
1179.680, 16.16954
1180.162, 16.55800
1180.644, 16.82435
1181.126, 16.82924
1181.608, 16.64403
1182.090, 16.34204
1182.573, 15.98661
1183.055, 15.70568
1183.537, 15.54648
1184.019, 15.47474
1184.501, 15.47066
1184.983, 15.55294
1185.465, 15.79977
1185.947, 16.07314
1186.429, 16.28274
1186.912, 16.42107
1187.394, 16.40698
1187.876, 16.25788
1188.358, 16.42567
1188.840, 17.59527
1189.322, 18.10567
1189.804, 17.15998
1190.286, 16.35461
1190.769, 16.32342
1191.251, 16.56160
1191.733, 16.72100
1192.215, 16.79259
1192.697, 16.72249
1193.179, 16.46886
1193.661, 16.47470
1194.143, 16.87349
1194.625, 17.00279
1195.108, 16.70156
1195.590, 16.39577
1196.072, 16.29570
1196.554, 16.24371
1197.036, 16.04003
1197.518, 15.77924
1198.000, 15.77216
1198.482, 15.99483
1198.964, 16.27957
1199.447, 16.59486
1199.929, 16.76744
1200.411, 16.75981
1200.893, 16.60124
1201.375, 16.30227
1201.857, 16.03818
1202.339, 16.09377
1202.821, 16.23666
1203.304, 15.99552
1203.786, 15.61814
1204.268, 15.56571
1204.750, 15.76869
1205.232, 15.98346
1205.714, 16.12398
1206.196, 16.12496
1206.678, 15.92376
1207.161, 15.67138
1207.643, 15.27989
1208.125, 15.07957
1208.607, 15.52128
1209.089, 16.08824
1209.571, 16.20929
1210.053, 16.00991
1210.535, 15.89844
1211.017, 15.94020
1211.500, 15.91215
1211.982, 15.77038
1212.464, 15.57230
1212.946, 15.18968
1213.428, 14.93312
1213.910, 14.96059
1214.392, 15.11895
1214.874, 15.32694
1215.356, 15.51176
1215.839, 15.40829
1216.321, 14.95475
1216.803, 14.85292
1217.285, 15.17755
1217.767, 15.34132
1218.249, 15.23123
1218.731, 15.08993
1219.213, 15.02744
1219.696, 15.04786
1220.178, 15.18072
1220.660, 15.33956
1221.142, 15.29522
1221.624, 15.11285
1222.106, 15.00436
1222.588, 14.96138
1223.070, 14.91337
1223.552, 14.84944
1224.035, 14.79473
1224.517, 14.76083
1224.999, 14.75567
1225.481, 14.78980
1225.963, 14.85114
1226.445, 14.94234
1226.927, 15.04211
1227.409, 15.12958
1227.891, 15.20761
1228.374, 15.33542
1228.856, 15.47423
1229.338, 15.39982
1229.820, 14.95862
1230.302, 14.62749
1230.784, 14.47776
1231.266, 14.50593
1231.748, 14.93053
1232.231, 15.28863
1232.713, 15.25083
1233.195, 15.01858
1233.677, 14.85553
1234.159, 14.75998
1234.641, 14.70997
1235.123, 14.69020
1235.605, 14.81339
1236.088, 15.11800
1236.570, 15.36641
1237.052, 15.50640
1237.534, 15.46940
1238.016, 15.18828
1238.498, 14.88606
1238.980, 14.89463
1239.462, 15.10281
1239.944, 15.28867
1240.427, 15.40040
1240.909, 15.18386
1241.391, 14.76047
1241.873, 14.58630
1242.355, 14.73164
1242.837, 14.88398
1243.319, 14.87241
1243.801, 14.88220
1244.283, 15.20787
1244.766, 15.42838
1245.248, 14.99977
1245.730, 14.51043
1246.212, 14.61899
1246.694, 15.06257
1247.176, 15.33673
1247.658, 15.39387
1248.140, 15.45306
1248.622, 15.69124
1249.105, 15.61464
1249.587, 14.77705
1250.069, 14.31161
1250.551, 14.54964
1251.033, 15.13634
1251.515, 16.08252
1251.997, 16.84202
1252.479, 16.49597
1252.962, 15.29221
1253.444, 14.62155
1253.926, 14.47483
1254.408, 14.52296
1254.890, 14.73207
1255.372, 14.93142
1255.854, 15.07237
1256.336, 15.10761
1256.818, 15.00427
1257.301, 14.97202
1257.783, 15.36310
1258.265, 15.81475
1258.747, 15.80073
1259.229, 15.55632
1259.711, 15.30145
1260.193, 15.12504
1260.675, 15.17895
1261.157, 15.42323
1261.640, 15.60721
1262.122, 15.65940
1262.604, 15.62448
1263.086, 15.41702
1263.568, 15.26535
1264.050, 15.30787
1264.532, 15.35140
1265.014, 15.26656
1265.497, 15.13405
1265.979, 15.00592
1266.461, 14.92264
1266.943, 15.10874
1267.425, 15.64916
1267.907, 15.77512
1268.389, 15.44607
1268.871, 15.09096
1269.354, 14.78101
1269.836, 14.77914
1270.318, 15.21024
1270.800, 15.64885
1271.282, 15.67748
1271.764, 15.48436
1272.246, 15.25515
1272.728, 15.09552
1273.210, 15.26835
1273.693, 15.61201
1274.175, 15.82205
1274.657, 15.89970
1275.139, 15.97770
1275.621, 16.09788
1276.103, 16.30276
1276.585, 16.81787
1277.067, 17.07672
1277.549, 16.72627
1278.032, 16.28887
1278.514, 15.80460
1278.996, 15.55642
1279.478, 15.98893
1279.960, 16.66662
1280.442, 16.69439
1280.924, 16.09972
1281.406, 15.77236
1281.889, 15.74026
1282.371, 15.76749
1282.853, 15.83572
1283.335, 16.05471
1283.817, 16.45417
1284.299, 16.74739
1284.781, 16.74358
1285.263, 16.65180
1285.745, 16.68383
1286.228, 16.83995
##END=



