##NAMES=Keyite
##RRUFFID=R090039
##IDEAL CHEMISTRY=([box]_0.5_Cu^2+^_0.5_)Cu^2+^Cd^2+^Zn^2+^_2_(As^5+^O_4_)_3_&#183;H_2_O
##LOCALITY=Tsumeb, Namibia
##OWNER=RRUFF
##SOURCE=William W. Pinch
##DESCRIPTION=Blue crystals associated with green zincolivenite on matrix of tennantite.
##STATUS=The identification of this mineral has been confirmed by single-crystal X-ray diffraction.
##URL=rruff.info/R090039
92.06543, 436.5586
92.54755, 431.5104
93.02966, 432.3850
93.51178, 441.9576
93.99390, 446.6472
94.47601, 442.3587
94.95813, 432.6459
95.44025, 424.3981
95.92236, 423.4538
96.40448, 430.3885
96.88660, 433.5503
97.36871, 431.7544
97.85082, 428.4055
98.33294, 426.0350
98.81506, 424.7737
99.29717, 422.1731
99.77929, 416.3740
100.2614, 407.8232
100.7435, 401.3280
101.2256, 399.7536
101.7078, 400.8968
102.1899, 399.4789
102.6720, 392.7862
103.1541, 385.4912
103.6362, 381.8270
104.1183, 381.6863
104.6005, 382.8551
105.0826, 383.5947
105.5647, 383.7867
106.0468, 384.3793
106.5289, 385.7626
107.0110, 387.3398
107.4931, 388.5331
107.9753, 389.2009
108.4574, 390.0282
108.9395, 392.7035
109.4216, 400.2011
109.9037, 404.6740
110.3858, 404.5300
110.8680, 401.6115
111.3501, 397.4258
111.8322, 392.6932
112.3143, 387.7185
112.7964, 384.4801
113.2785, 383.9145
113.7607, 383.8768
114.2428, 383.6961
114.7249, 383.5799
115.2070, 384.3856
115.6891, 387.1745
116.1712, 391.7223
116.6534, 393.4635
117.1355, 390.0435
117.6176, 385.6203
118.0997, 383.5727
118.5818, 384.2701
119.0639, 385.3923
119.5461, 383.3358
120.0282, 379.5805
120.5103, 379.3437
120.9924, 387.9106
121.4745, 400.9488
121.9566, 408.0727
122.4388, 406.1222
122.9209, 401.1452
123.4030, 396.2497
123.8851, 391.8706
124.3672, 389.5404
124.8493, 392.2823
125.3315, 400.7545
125.8136, 404.7082
126.2957, 396.5543
126.7778, 388.7001
127.2599, 387.4866
127.7420, 392.9701
128.2242, 399.9604
128.7063, 400.9352
129.1884, 390.9828
129.6705, 385.0850
130.1526, 385.9199
130.6347, 388.5328
131.1169, 389.3817
131.5990, 387.2632
132.0811, 383.2138
132.5632, 379.4855
133.0453, 375.7934
133.5274, 372.8040
134.0096, 370.5371
134.4917, 369.0066
134.9738, 368.4897
135.4559, 369.2960
135.9380, 370.8124
136.4201, 370.9179
136.9023, 369.3024
137.3844, 367.0905
137.8665, 364.1981
138.3486, 360.8832
138.8307, 358.3745
139.3128, 357.6818
139.7950, 358.2242
140.2771, 358.3961
140.7592, 357.5560
141.2413, 356.8893
141.7234, 357.7494
142.2055, 360.3599
142.6877, 363.3329
143.1698, 367.2776
143.6519, 370.8020
144.1340, 371.9279
144.6161, 369.1997
145.0982, 363.9742
145.5803, 359.7451
146.0625, 356.8571
146.5446, 354.5464
147.0267, 351.6803
147.5088, 349.1731
147.9909, 348.6323
148.4730, 351.6600
148.9552, 357.9794
149.4373, 361.8204
149.9194, 361.5968
150.4015, 360.1029
150.8836, 356.8726
151.3657, 352.7648
151.8479, 349.4083
152.3300, 348.4281
152.8121, 350.3820
153.2942, 351.2192
153.7763, 350.5143
154.2584, 349.3510
154.7406, 348.1817
155.2227, 347.0810
155.7048, 345.9275
156.1869, 344.5850
156.6690, 342.9997
157.1511, 341.3685
157.6333, 339.1810
158.1154, 337.2218
158.5975, 336.3208
159.0796, 336.6696
159.5617, 337.5985
160.0438, 338.2676
160.5260, 338.6469
161.0081, 339.2494
161.4902, 340.4258
161.9723, 341.8695
162.4544, 343.0495
162.9365, 343.8609
163.4187, 344.3194
163.9008, 344.6775
164.3829, 344.9595
164.8650, 344.4238
165.3471, 341.5257
165.8292, 336.8628
166.3113, 334.6219
166.7935, 337.3421
167.2756, 341.3232
167.7577, 343.8710
168.2398, 344.8605
168.7219, 345.1049
169.2040, 345.5363
169.6862, 346.3509
170.1683, 345.9924
170.6504, 342.1172
171.1325, 338.3828
171.6146, 337.0151
172.0967, 338.3798
172.5789, 340.9717
173.0610, 342.9714
173.5431, 345.1265
174.0252, 344.6942
174.5073, 337.7913
174.9894, 330.9424
175.4716, 329.8013
175.9537, 335.9083
176.4358, 345.5849
176.9179, 351.3605
177.4000, 349.9976
177.8821, 348.7607
178.3643, 348.1037
178.8464, 347.5664
179.3285, 346.2978
179.8106, 343.9468
180.2927, 341.4530
180.7748, 341.4761
181.2570, 347.7183
181.7391, 351.8860
182.2212, 351.7028
182.7033, 349.1331
183.1854, 347.1522
183.6675, 347.1796
184.1497, 348.5092
184.6318, 348.8466
185.1139, 347.4281
185.5960, 346.4141
186.0781, 347.0887
186.5602, 348.8477
187.0423, 349.8022
187.5245, 348.6339
188.0066, 346.5085
188.4887, 346.3193
188.9708, 349.2663
189.4529, 352.0120
189.9350, 351.8465
190.4172, 349.0716
190.8993, 347.0836
191.3814, 348.2711
191.8635, 350.6409
192.3456, 351.2139
192.8277, 349.1273
193.3099, 346.3565
193.7920, 344.9351
194.2741, 345.0510
194.7562, 345.0995
195.2383, 343.8204
195.7204, 342.4362
196.2026, 342.0530
196.6847, 343.0529
197.1668, 344.8503
197.6489, 346.9489
198.1310, 350.0181
198.6131, 351.3723
199.0953, 348.5966
199.5774, 344.7010
200.0595, 342.2659
200.5416, 342.2736
201.0237, 344.0548
201.5058, 346.4003
201.9880, 350.4494
202.4701, 352.8885
202.9522, 352.6147
203.4343, 350.9420
203.9164, 348.8559
204.3985, 346.7710
204.8807, 345.0241
205.3628, 344.7241
205.8449, 347.4973
206.3270, 349.6751
206.8091, 350.9756
207.2912, 351.4574
207.7733, 350.8795
208.2555, 349.0764
208.7376, 346.6836
209.2197, 346.0821
209.7018, 350.4597
210.1839, 353.0892
210.6660, 351.4897
211.1482, 348.1118
211.6303, 346.6986
212.1124, 349.3312
212.5945, 354.6633
213.0766, 357.1649
213.5587, 354.3738
214.0409, 351.9283
214.5230, 351.2863
215.0051, 351.7095
215.4872, 351.7834
215.9693, 350.7281
216.4514, 348.9422
216.9336, 347.9596
217.4157, 347.4863
217.8978, 347.9077
218.3799, 349.9178
218.8620, 352.9736
219.3441, 355.8451
219.8263, 358.1039
220.3084, 359.5684
220.7905, 359.8044
221.2726, 358.1069
221.7547, 356.5532
222.2368, 356.5661
222.7190, 357.7213
223.2011, 358.2331
223.6832, 357.1205
224.1653, 355.0732
224.6474, 353.3648
225.1295, 351.7371
225.6117, 351.0093
226.0938, 352.3232
226.5759, 355.4069
227.0580, 357.9410
227.5401, 358.9706
228.0222, 359.0314
228.5043, 358.7944
228.9865, 358.1796
229.4686, 357.7114
229.9507, 357.8774
230.4328, 358.6724
230.9149, 359.6546
231.3970, 361.2933
231.8792, 362.5880
232.3613, 362.3480
232.8434, 360.3186
233.3255, 358.3156
233.8076, 358.4191
234.2897, 360.8532
234.7719, 362.7801
235.2540, 363.4900
235.7361, 363.4852
236.2182, 362.9081
236.7003, 361.7991
237.1824, 360.4334
237.6646, 358.7579
238.1467, 356.4719
238.6288, 355.5545
239.1109, 357.9562
239.5930, 360.6478
240.0751, 361.8747
240.5573, 361.5155
241.0394, 360.8542
241.5215, 361.7091
242.0036, 364.8416
242.4857, 366.3524
242.9678, 364.4412
243.4500, 362.1414
243.9321, 360.6371
244.4142, 360.1965
244.8963, 360.6966
245.3784, 362.3587
245.8605, 365.9231
246.3427, 367.8752
246.8248, 365.9352
247.3069, 364.3939
247.7890, 366.0659
248.2711, 370.6037
248.7532, 375.3080
249.2354, 377.4563
249.7175, 376.7917
250.1996, 374.4082
250.6817, 367.1196
251.1638, 361.1108
251.6459, 360.4896
252.1281, 364.4199
252.6102, 368.5594
253.0923, 368.4046
253.5744, 362.7926
254.0565, 360.1514
254.5386, 362.0916
255.0208, 364.9078
255.5029, 367.6669
255.9850, 369.9363
256.4671, 371.1224
256.9492, 370.5513
257.4313, 367.9890
257.9135, 366.4149
258.3956, 365.8931
258.8777, 366.0316
259.3598, 366.8206
259.8419, 368.1565
260.3240, 369.8716
260.8062, 371.9059
261.2883, 374.2580
261.7704, 376.1715
262.2525, 378.3325
262.7346, 379.5338
263.2167, 378.5946
263.6989, 376.1994
264.1810, 374.1708
264.6631, 373.7129
265.1452, 374.6382
265.6273, 375.2462
266.1094, 375.0836
266.5916, 375.1522
267.0737, 375.9936
267.5558, 377.3509
268.0379, 378.6337
268.5200, 379.5418
269.0021, 380.1116
269.4843, 380.4978
269.9664, 380.9921
270.4485, 381.0169
270.9306, 379.7305
271.4127, 377.8445
271.8948, 377.1049
272.3770, 378.5616
272.8591, 381.0890
273.3412, 381.6044
273.8233, 379.3774
274.3054, 377.2027
274.7875, 375.2505
275.2697, 374.0002
275.7518, 374.8466
276.2339, 378.7524
276.7160, 383.7048
277.1981, 385.6435
277.6802, 384.3581
278.1623, 382.6369
278.6444, 380.6725
279.1266, 378.8917
279.6087, 378.1834
280.0908, 378.9200
280.5729, 380.2179
281.0550, 380.8152
281.5371, 380.7065
282.0193, 380.8871
282.5014, 382.4271
282.9835, 384.1353
283.4656, 383.7466
283.9477, 380.5119
284.4298, 377.3009
284.9120, 378.1276
285.3941, 382.3173
285.8762, 384.6146
286.3583, 382.0022
286.8404, 377.8276
287.3225, 376.5746
287.8047, 378.9154
288.2868, 381.5231
288.7689, 381.6053
289.2510, 379.7220
289.7331, 377.8658
290.2152, 375.9898
290.6974, 374.4989
291.1795, 374.0126
291.6616, 374.5682
292.1437, 375.2050
292.6258, 375.1792
293.1079, 374.8633
293.5901, 375.0986
294.0722, 375.8973
294.5543, 377.3502
295.0364, 380.2560
295.5185, 384.4813
296.0006, 387.3089
296.4828, 386.8404
296.9649, 384.4967
297.4470, 383.0277
297.9291, 382.8472
298.4112, 382.7563
298.8933, 381.4508
299.3755, 379.2661
299.8576, 378.4415
300.3397, 380.6034
300.8218, 383.5065
301.3039, 383.9216
301.7860, 381.5229
302.2682, 379.1546
302.7503, 378.2348
303.2324, 378.5805
303.7145, 379.7646
304.1966, 382.3096
304.6787, 384.6267
305.1609, 384.7246
305.6430, 382.8745
306.1251, 381.2524
306.6072, 380.9100
307.0893, 381.4433
307.5714, 382.0200
308.0536, 382.5644
308.5357, 383.1117
309.0178, 383.6078
309.4999, 384.1097
309.9820, 384.8223
310.4641, 386.2387
310.9463, 387.7337
311.4284, 388.2767
311.9105, 387.7237
312.3926, 386.8695
312.8747, 385.5028
313.3568, 384.3236
313.8390, 384.8714
314.3211, 389.1006
314.8032, 393.4336
315.2853, 393.4952
315.7674, 389.1935
316.2495, 385.4131
316.7317, 384.8931
317.2138, 385.9090
317.6959, 385.6188
318.1780, 383.2684
318.6601, 381.0668
319.1422, 380.7386
319.6243, 382.0880
320.1064, 383.9276
320.5886, 386.4967
321.0707, 388.6888
321.5528, 389.1729
322.0349, 387.8873
322.5170, 386.1249
322.9991, 383.9323
323.4813, 381.7562
323.9634, 380.9827
324.4455, 382.1752
324.9276, 384.1615
325.4097, 386.1457
325.8918, 388.0650
326.3740, 389.2731
326.8561, 389.2150
327.3382, 388.4279
327.8203, 387.6012
328.3024, 386.6969
328.7845, 386.1961
329.2667, 386.4662
329.7488, 387.4334
330.2309, 389.0262
330.7130, 392.3985
331.1951, 395.5560
331.6772, 396.1473
332.1594, 394.2099
332.6415, 392.0846
333.1236, 390.6142
333.6057, 389.9801
334.0878, 390.4162
334.5699, 392.5389
335.0521, 394.6091
335.5342, 395.3539
336.0163, 395.0450
336.4984, 395.0237
336.9805, 396.1278
337.4626, 397.1602
337.9448, 395.5138
338.4269, 390.4565
338.9090, 387.7194
339.3911, 391.8196
339.8732, 399.3819
340.3553, 403.7164
340.8375, 403.0985
341.3196, 400.8151
341.8017, 400.4947
342.2838, 401.9203
342.7659, 402.7706
343.2480, 401.8335
343.7302, 400.5469
344.2123, 400.9204
344.6944, 403.0630
345.1765, 404.4107
345.6586, 402.0839
346.1407, 397.1955
346.6229, 396.3281
347.1050, 404.5109
347.5871, 412.2628
348.0692, 413.0627
348.5513, 408.3106
349.0334, 403.2874
349.5156, 400.3064
349.9977, 399.0655
350.4798, 398.8194
350.9619, 399.6587
351.4440, 401.0369
351.9261, 403.3044
352.4083, 405.8809
352.8904, 407.8491
353.3725, 408.9272
353.8546, 409.3317
354.3367, 409.3074
354.8188, 408.8119
355.3010, 408.0468
355.7831, 405.6249
356.2652, 403.8121
356.7473, 406.0468
357.2294, 412.2018
357.7115, 416.9508
358.1937, 414.9760
358.6758, 405.8970
359.1579, 400.7598
359.6400, 402.3809
360.1221, 404.7606
360.6042, 404.7851
361.0863, 403.1530
361.5685, 402.0612
362.0506, 402.7304
362.5327, 404.8862
363.0148, 407.4714
363.4969, 412.4791
363.9790, 415.4149
364.4612, 414.1309
364.9433, 411.0107
365.4254, 409.0818
365.9075, 409.3119
366.3896, 410.2889
366.8717, 409.6181
367.3539, 405.6331
367.8360, 403.9076
368.3181, 406.1305
368.8002, 409.1415
369.2823, 411.0608
369.7644, 411.6567
370.2466, 411.4689
370.7287, 410.8568
371.2108, 409.7523
371.6929, 409.4650
372.1750, 410.7926
372.6571, 412.0178
373.1393, 412.5398
373.6214, 412.6247
374.1035, 412.9231
374.5856, 413.8350
375.0677, 414.9295
375.5498, 414.6885
376.0320, 411.1901
376.5141, 409.2515
376.9962, 409.8531
377.4783, 411.7098
377.9604, 414.1255
378.4425, 416.7641
378.9247, 419.0075
379.4068, 420.0804
379.8889, 419.9594
380.3710, 418.7027
380.8531, 413.5951
381.3352, 409.7896
381.8174, 410.4496
382.2995, 414.5801
382.7816, 418.8617
383.2637, 420.7137
383.7458, 420.5487
384.2279, 421.2347
384.7101, 423.5577
385.1922, 425.5420
385.6743, 426.6958
386.1564, 427.1924
386.6385, 427.1333
387.1206, 426.4820
387.6028, 425.6689
388.0849, 425.3981
388.5670, 425.7676
389.0491, 426.2161
389.5312, 426.6608
390.0133, 427.1205
390.4955, 427.3861
390.9776, 427.5172
391.4597, 428.2071
391.9418, 430.6099
392.4239, 434.2852
392.9060, 436.4697
393.3882, 436.4512
393.8703, 435.8149
394.3524, 435.3262
394.8345, 435.0314
395.3166, 435.0639
395.7987, 435.4732
396.2809, 436.2357
396.7630, 437.6170
397.2451, 439.7110
397.7272, 441.1369
398.2093, 441.2215
398.6914, 440.2428
399.1736, 438.5068
399.6557, 435.5389
400.1378, 433.3687
400.6199, 433.7495
401.1020, 435.8596
401.5841, 437.7532
402.0662, 439.2513
402.5483, 439.5942
403.0305, 436.3172
403.5126, 429.7015
403.9947, 426.9907
404.4768, 433.3876
404.9589, 441.6418
405.4410, 444.4747
405.9232, 441.9277
406.4053, 438.7909
406.8874, 437.9160
407.3695, 439.0909
407.8516, 440.9890
408.3337, 445.0861
408.8159, 448.0980
409.2980, 448.7956
409.7801, 447.8140
410.2622, 445.7674
410.7443, 442.8056
411.2264, 439.9321
411.7086, 438.7464
412.1907, 439.8621
412.6728, 441.4073
413.1549, 444.3905
413.6370, 446.9966
414.1191, 447.7867
414.6013, 446.9300
415.0834, 445.5502
415.5655, 444.4380
416.0476, 443.6192
416.5297, 443.6348
417.0118, 446.2566
417.4940, 447.6786
417.9761, 446.5028
418.4582, 444.0485
418.9403, 441.6166
419.4224, 439.7478
419.9045, 438.8811
420.3867, 440.2020
420.8688, 445.2719
421.3509, 448.3136
421.8330, 447.2325
422.3151, 445.7572
422.7972, 445.8650
423.2794, 447.4460
423.7615, 449.2738
424.2436, 450.4492
424.7257, 451.0456
425.2078, 451.5258
425.6899, 451.6750
426.1721, 452.0970
426.6542, 453.8610
427.1363, 455.6566
427.6184, 455.7082
428.1005, 453.2694
428.5826, 449.9505
429.0648, 447.3350
429.5469, 445.3968
430.0290, 444.8045
430.5111, 446.2789
430.9932, 448.5887
431.4753, 451.0797
431.9575, 453.6040
432.4396, 454.9678
432.9217, 453.6945
433.4038, 451.2062
433.8859, 449.7390
434.3680, 449.3966
434.8502, 450.1972
435.3323, 452.7591
435.8144, 456.3929
436.2965, 459.1892
436.7786, 461.3418
437.2607, 462.2676
437.7429, 460.5546
438.2250, 457.4243
438.7071, 455.8825
439.1892, 456.9940
439.6713, 459.1539
440.1534, 460.1200
440.6356, 459.5412
441.1177, 459.3362
441.5998, 459.7951
442.0819, 460.5059
442.5640, 461.4514
443.0461, 462.4444
443.5282, 462.9095
444.0103, 462.4038
444.4925, 461.1102
444.9746, 460.0446
445.4567, 458.2659
445.9388, 457.9227
446.4209, 460.3388
446.9030, 463.7331
447.3852, 466.4178
447.8673, 467.9189
448.3494, 468.8060
448.8315, 469.8908
449.3136, 471.4271
449.7957, 471.8622
450.2779, 470.3865
450.7600, 468.5712
451.2421, 465.6372
451.7242, 462.8999
452.2063, 463.2025
452.6884, 468.7452
453.1706, 476.4393
453.6527, 478.2843
454.1348, 472.0401
454.6169, 467.0186
455.0990, 466.0143
455.5811, 466.7845
456.0633, 468.4510
456.5454, 470.7727
457.0275, 472.7657
457.5096, 473.3068
457.9917, 472.8997
458.4738, 473.5806
458.9560, 475.9538
459.4381, 478.0496
459.9202, 478.1037
460.4023, 477.0122
460.8844, 476.4356
461.3665, 477.0381
461.8487, 477.6657
462.3308, 476.6334
462.8129, 474.7497
463.2950, 475.3539
463.7771, 480.1752
464.2592, 486.0912
464.7414, 488.4797
465.2235, 486.9032
465.7056, 485.3251
466.1877, 484.0225
466.6698, 482.9879
467.1519, 481.9427
467.6341, 481.0746
468.1162, 481.3912
468.5983, 483.7971
469.0804, 487.5305
469.5625, 488.9698
470.0446, 484.5462
470.5268, 482.3638
471.0089, 484.4984
471.4910, 488.2935
471.9731, 491.7150
472.4552, 494.1408
472.9373, 495.4313
473.4195, 495.1314
473.9016, 493.0247
474.3837, 492.2591
474.8658, 494.0496
475.3479, 495.9149
475.8300, 497.4054
476.3122, 498.4605
476.7943, 499.0392
477.2764, 499.0974
477.7585, 498.8022
478.2406, 498.1562
478.7227, 497.0236
479.2049, 496.8746
479.6870, 499.0949
480.1691, 501.2172
480.6512, 501.0202
481.1333, 498.9961
481.6154, 497.5744
482.0976, 498.3615
482.5797, 500.2512
483.0618, 502.0758
483.5439, 503.8707
484.0260, 503.5311
484.5081, 498.3433
484.9902, 491.5694
485.4724, 490.4311
485.9545, 496.9155
486.4366, 502.7212
486.9187, 504.3393
487.4008, 503.9660
487.8829, 504.5892
488.3651, 506.6418
488.8472, 508.5704
489.3293, 508.7203
489.8114, 507.1204
490.2935, 507.9958
490.7756, 515.5104
491.2578, 520.1885
491.7399, 516.5371
492.2220, 509.5410
492.7041, 506.0963
493.1862, 508.4455
493.6683, 513.3726
494.1505, 516.3929
494.6326, 517.2984
495.1147, 517.1035
495.5968, 514.2723
496.0789, 511.8335
496.5610, 510.5598
497.0432, 510.5436
497.5253, 512.1559
498.0074, 516.0427
498.4895, 520.3091
498.9716, 521.1477
499.4537, 518.0619
499.9359, 514.5516
500.4180, 509.9712
500.9001, 506.6199
501.3822, 507.1022
501.8643, 511.0171
502.3464, 514.3514
502.8286, 514.6350
503.3107, 513.4808
503.7928, 513.5359
504.2749, 514.8834
504.7570, 515.6350
505.2391, 514.4223
505.7213, 512.2106
506.2034, 511.5821
506.6855, 512.9426
507.1676, 514.6713
507.6497, 517.4595
508.1318, 519.7973
508.6140, 519.3694
509.0961, 516.1688
509.5782, 512.7642
510.0603, 511.4276
510.5424, 512.0417
511.0245, 512.2737
511.5067, 510.5386
511.9888, 510.3531
512.4709, 514.1222
512.9530, 518.8258
513.4351, 520.7400
513.9172, 519.1104
514.3994, 516.7697
514.8815, 517.6261
515.3636, 522.1050
515.8457, 524.0463
516.3278, 522.0758
516.8099, 519.2772
517.2921, 515.8896
517.7742, 512.8683
518.2563, 511.8240
518.7384, 513.5763
519.2205, 516.4336
519.7026, 518.9290
520.1848, 521.0172
520.6669, 522.2722
521.1490, 522.4115
521.6311, 522.0842
522.1132, 522.0956
522.5953, 522.3008
523.0775, 521.6939
523.5596, 518.6143
524.0417, 516.0026
524.5238, 516.3226
525.0059, 518.8365
525.4880, 521.6326
525.9702, 524.0274
526.4523, 525.6555
526.9344, 525.7659
527.4165, 523.3981
527.8986, 522.0193
528.3807, 522.2079
528.8629, 522.7621
529.3450, 523.2221
529.8271, 523.5026
530.3092, 523.5804
530.7913, 523.4369
531.2734, 523.1223
531.7556, 522.6588
532.2377, 521.7894
532.7198, 521.5099
533.2019, 522.1209
533.6840, 523.2502
534.1661, 525.3835
534.6483, 528.0498
535.1304, 529.5334
535.6125, 528.4224
536.0946, 525.8085
536.5767, 523.2989
537.0588, 520.8487
537.5410, 519.4485
538.0231, 519.6912
538.5052, 521.0287
538.9873, 522.4468
539.4694, 523.8030
539.9515, 526.1476
540.4337, 532.2416
540.9158, 537.8190
541.3979, 537.5331
541.8800, 532.1144
542.3621, 526.8680
542.8442, 525.0162
543.3264, 525.7870
543.8085, 526.5532
544.2906, 526.6904
544.7726, 527.7429
545.2548, 531.0733
545.7369, 534.2786
546.2190, 535.2899
546.7011, 534.3585
547.1832, 533.1713
547.6653, 532.9157
548.1475, 533.4850
548.6296, 534.8190
549.1117, 537.8979
549.5938, 539.1555
550.0759, 533.8614
550.5580, 528.7906
551.0402, 530.8411
551.5223, 539.9886
552.0044, 546.8586
552.4865, 543.4044
552.9686, 535.1168
553.4507, 532.0179
553.9329, 534.5389
554.4150, 537.7644
554.8971, 539.3038
555.3792, 539.7170
555.8613, 540.4124
556.3434, 541.6028
556.8256, 542.4929
557.3077, 542.3525
557.7898, 542.2496
558.2719, 543.7712
558.7540, 546.5042
559.2361, 547.9641
559.7183, 546.1363
560.2004, 542.2621
560.6825, 541.8025
561.1646, 547.9803
561.6467, 552.0799
562.1288, 551.8666
562.6110, 550.6722
563.0931, 551.1990
563.5752, 553.2245
564.0573, 554.3133
564.5394, 552.0550
565.0215, 548.0406
565.5037, 546.6609
565.9858, 548.3432
566.4679, 549.8369
566.9500, 549.8303
567.4321, 549.1398
567.9142, 548.7857
568.3964, 548.7621
568.8785, 549.0968
569.3606, 550.0597
569.8427, 551.2054
570.3248, 551.9385
570.8069, 552.3649
571.2891, 553.2265
571.7712, 554.9859
572.2533, 557.2224
572.7354, 558.8942
573.2175, 560.0107
573.6996, 560.4674
574.1818, 559.3197
574.6639, 558.3876
575.1460, 558.8877
575.6281, 560.5585
576.1102, 562.6729
576.5923, 564.9991
577.0745, 566.8657
577.5566, 566.0267
578.0387, 561.5024
578.5208, 559.8342
579.0029, 565.1560
579.4850, 570.6918
579.9672, 570.5660
580.4493, 566.0324
580.9314, 562.6368
581.4135, 563.2761
581.8956, 565.1869
582.3777, 565.6146
582.8599, 564.9821
583.3420, 564.8648
583.8241, 565.7766
584.3062, 567.5894
584.7883, 570.5998
585.2704, 575.7015
585.7526, 577.0999
586.2347, 571.3036
586.7168, 565.8014
587.1989, 563.5328
587.6810, 563.7841
588.1631, 565.6511
588.6453, 568.6771
589.1274, 571.5790
589.6095, 572.1469
590.0916, 570.0114
590.5737, 569.0524
591.0558, 570.0421
591.5380, 571.1639
592.0201, 571.4504
592.5022, 571.3519
592.9843, 571.6703
593.4664, 572.8115
593.9485, 573.5775
594.4307, 571.9491
594.9128, 569.4153
595.3949, 570.0873
595.8770, 574.7362
596.3591, 579.4888
596.8412, 581.4313
597.3234, 580.9050
597.8055, 580.3124
598.2876, 580.3427
598.7697, 579.4238
599.2518, 575.8809
599.7339, 572.1873
600.2161, 570.5797
600.6982, 571.3026
601.1803, 573.5775
601.6624, 577.1524
602.1445, 581.4455
602.6266, 583.6256
603.1088, 583.1160
603.5909, 581.9406
604.0730, 579.0112
604.5551, 576.7839
605.0372, 577.5922
605.5193, 581.2262
606.0015, 584.9407
606.4836, 587.7581
606.9657, 589.7647
607.4478, 590.7650
607.9299, 590.9219
608.4120, 591.2597
608.8942, 592.2773
609.3763, 593.3451
609.8584, 593.5046
610.3405, 592.5685
610.8226, 591.2949
611.3047, 587.5717
611.7869, 585.7295
612.2690, 590.1218
612.7511, 597.0961
613.2332, 600.2078
613.7153, 597.1081
614.1974, 591.8697
614.6796, 589.9948
615.1617, 591.6317
615.6438, 593.6054
616.1259, 596.4221
616.6080, 598.5621
617.0901, 598.4220
617.5723, 597.4205
618.0544, 597.8043
618.5365, 600.4090
619.0186, 602.6219
619.5007, 602.4232
619.9828, 601.0657
620.4650, 600.7072
620.9471, 601.4990
621.4292, 601.9329
621.9113, 600.8034
622.3934, 598.7676
622.8755, 598.4022
623.3577, 602.2746
623.8398, 604.1130
624.3219, 602.0642
624.8040, 599.5170
625.2861, 598.6406
625.7682, 599.2775
626.2504, 600.1893
626.7325, 600.6212
627.2145, 601.0521
627.6967, 602.9428
628.1788, 606.4413
628.6609, 607.5264
629.1430, 603.7902
629.6251, 600.0157
630.1072, 601.3734
630.5894, 606.4872
631.0715, 610.5424
631.5536, 612.6134
632.0357, 613.7167
632.5178, 613.2217
632.9999, 612.4982
633.4821, 614.4882
633.9642, 619.4819
634.4463, 624.0612
634.9284, 624.8417
635.4105, 622.0898
635.8926, 619.6442
636.3748, 617.3873
636.8569, 615.6829
637.3390, 614.3526
637.8211, 613.7025
638.3032, 614.3779
638.7853, 616.1720
639.2675, 617.6915
639.7496, 617.6699
640.2317, 617.0882
640.7138, 617.5687
641.1959, 619.0505
641.6780, 620.8889
642.1602, 623.1180
642.6423, 624.9614
643.1244, 625.2977
643.6065, 623.8292
644.0886, 622.4777
644.5707, 620.3741
645.0529, 619.3447
645.5350, 620.8615
646.0171, 623.6230
646.4992, 625.8507
646.9813, 627.0349
647.4634, 627.8245
647.9456, 629.0410
648.4277, 630.5811
648.9098, 630.9979
649.3919, 629.5959
649.8740, 628.8889
650.3561, 630.6254
650.8383, 633.0637
651.3204, 634.6423
651.8025, 635.3234
652.2846, 634.1979
652.7667, 627.6194
653.2488, 621.5762
653.7310, 623.3187
654.2131, 630.9619
654.6952, 637.6981
655.1773, 640.6937
655.6594, 641.3762
656.1415, 641.9806
656.6237, 642.7276
657.1058, 642.3635
657.5879, 638.0795
658.0700, 635.8308
658.5521, 639.3615
659.0342, 644.8517
659.5164, 647.1967
659.9985, 645.2236
660.4806, 642.6260
660.9627, 642.1701
661.4448, 643.3393
661.9269, 645.6251
662.4091, 649.0048
662.8912, 650.5316
663.3733, 648.2856
663.8554, 644.0820
664.3375, 641.3214
664.8196, 639.9528
665.3018, 640.3809
665.7839, 644.4745
666.2660, 648.5089
666.7481, 650.6297
667.2302, 651.2610
667.7123, 651.2526
668.1945, 650.9421
668.6766, 650.4656
669.1587, 649.3849
669.6408, 647.8865
670.1229, 649.4814
670.6050, 655.6915
671.0872, 660.6918
671.5693, 660.9610
672.0514, 658.5029
672.5335, 656.6708
673.0156, 655.4929
673.4977, 654.9831
673.9799, 655.0157
674.4620, 655.8300
674.9441, 658.7764
675.4262, 662.6650
675.9083, 664.1469
676.3904, 661.7337
676.8726, 657.5897
677.3547, 654.9205
677.8368, 653.6713
678.3189, 654.4031
678.8010, 658.5623
679.2831, 662.6501
679.7653, 666.1278
680.2474, 668.3893
680.7295, 667.9853
681.2116, 664.4200
681.6937, 661.7349
682.1758, 663.3000
682.6580, 666.3179
683.1401, 666.9304
683.6222, 665.4028
684.1043, 664.0634
684.5864, 663.9183
685.0685, 664.9747
685.5507, 667.6351
686.0328, 673.1414
686.5149, 675.2429
686.9970, 669.4720
687.4791, 665.2777
687.9612, 667.3557
688.4434, 671.6240
688.9255, 672.4513
689.4076, 668.6181
689.8897, 664.8204
690.3718, 665.6273
690.8539, 668.6377
691.3361, 668.5214
691.8182, 665.3505
692.3003, 663.5576
692.7824, 665.1566
693.2645, 668.8192
693.7466, 672.7480
694.2288, 677.4629
694.7109, 680.1451
695.1930, 678.5605
695.6751, 677.6726
696.1572, 680.3587
696.6393, 684.1950
697.1215, 685.8785
697.6036, 684.7528
698.0857, 682.9476
698.5678, 682.0500
699.0499, 681.9710
699.5320, 682.8922
700.0142, 684.8992
700.4963, 685.5893
700.9784, 683.5568
701.4605, 680.7432
701.9426, 679.8263
702.4247, 681.0949
702.9069, 682.2390
703.3890, 683.0530
703.8711, 683.9473
704.3532, 684.9290
704.8353, 686.1615
705.3174, 687.8884
705.7996, 690.1139
706.2817, 692.6627
706.7638, 695.6215
707.2459, 698.6156
707.7280, 700.3589
708.2101, 700.7486
708.6923, 700.8491
709.1743, 701.0919
709.6564, 700.9326
710.1385, 699.2027
710.6207, 696.1301
711.1028, 694.7403
711.5849, 696.3378
712.0670, 698.3220
712.5491, 699.3942
713.0313, 700.4993
713.5134, 703.1152
713.9955, 707.1312
714.4776, 710.8939
714.9597, 713.2270
715.4418, 714.3554
715.9240, 714.6209
716.4061, 713.8442
716.8882, 713.9025
717.3703, 715.8562
717.8524, 717.5919
718.3345, 716.9056
718.8167, 714.5232
719.2988, 712.8780
719.7809, 711.6651
720.2630, 711.9948
720.7451, 716.0917
721.2272, 720.6512
721.7094, 722.0110
722.1915, 720.4725
722.6736, 718.6998
723.1557, 718.2555
723.6378, 718.6275
724.1199, 718.9636
724.6021, 719.3105
725.0842, 718.8312
725.5663, 716.6349
726.0484, 715.2302
726.5305, 716.6798
727.0126, 719.8360
727.4948, 722.4119
727.9769, 724.2801
728.4590, 725.6773
728.9411, 726.0148
729.4232, 726.4539
729.9053, 728.5975
730.3875, 731.6057
730.8696, 732.8957
731.3517, 731.4170
731.8338, 729.6357
732.3159, 731.6785
732.7980, 737.5328
733.2802, 740.6944
733.7623, 740.1215
734.2444, 739.9066
734.7265, 742.9816
735.2086, 746.4152
735.6907, 745.6251
736.1729, 740.2531
736.6550, 735.9426
737.1371, 733.9813
737.6192, 733.2263
738.1013, 732.4684
738.5834, 732.6334
739.0656, 736.5670
739.5477, 744.2250
740.0298, 750.2361
740.5119, 748.6907
740.9940, 741.7262
741.4761, 738.3968
741.9583, 739.1908
742.4404, 741.0073
742.9225, 743.7225
743.4046, 746.2801
743.8867, 747.2238
744.3688, 746.9288
744.8510, 747.5760
745.3331, 750.8265
745.8152, 753.1863
746.2973, 752.9989
746.7794, 751.7295
747.2615, 750.5830
747.7437, 749.8309
748.2258, 749.3830
748.7079, 749.1186
749.1900, 749.4630
749.6721, 751.7504
750.1542, 755.9326
750.6364, 758.5594
751.1185, 759.0354
751.6006, 758.5110
752.0827, 757.0222
752.5648, 755.2943
753.0469, 755.4647
753.5291, 758.3888
754.0112, 760.7148
754.4933, 761.5339
754.9754, 762.1084
755.4575, 762.9426
755.9396, 764.1729
756.4218, 766.3972
756.9039, 769.6902
757.3860, 772.1121
757.8681, 770.1791
758.3502, 765.7362
758.8323, 766.4082
759.3145, 772.5124
759.7966, 776.4901
760.2787, 775.0619
760.7608, 771.4409
761.2429, 769.3903
761.7250, 768.9504
762.2072, 769.8447
762.6893, 773.2505
763.1714, 776.3701
763.6535, 778.5741
764.1356, 780.1946
764.6177, 781.4500
765.0999, 782.4290
765.5820, 783.3202
766.0641, 784.4033
766.5462, 785.1135
767.0283, 784.2232
767.5104, 782.2711
767.9926, 781.3403
768.4747, 781.7803
768.9568, 782.8502
769.4389, 784.0280
769.9210, 785.4315
770.4031, 787.4828
770.8853, 791.0021
771.3674, 793.5714
771.8495, 794.7568
772.3316, 795.5134
772.8137, 796.0209
773.2958, 796.4322
773.7780, 797.0162
774.2601, 797.8577
774.7422, 798.4413
775.2243, 797.9865
775.7064, 797.3984
776.1885, 797.9867
776.6707, 799.5045
777.1528, 800.8170
777.6349, 801.5333
778.1170, 802.3541
778.5991, 804.0692
779.0812, 806.6671
779.5634, 810.0887
780.0455, 815.1351
780.5276, 819.1970
781.0097, 821.6530
781.4918, 822.8594
781.9739, 822.6696
782.4561, 821.3967
782.9382, 820.2377
783.4203, 818.6216
783.9024, 818.4223
784.3845, 821.7697
784.8666, 826.2361
785.3488, 829.2582
785.8309, 830.6141
786.3130, 830.6149
786.7951, 829.3044
787.2772, 828.2715
787.7593, 831.2097
788.2415, 837.9492
788.7236, 840.9069
789.2057, 838.6156
789.6878, 836.6824
790.1699, 837.7867
790.6520, 840.8040
791.1342, 844.0145
791.6162, 847.4996
792.0983, 850.7172
792.5804, 855.0557
793.0626, 857.4614
793.5447, 854.3302
794.0268, 850.0480
794.5089, 850.4283
794.9910, 855.5243
795.4731, 859.9702
795.9553, 859.7958
796.4374, 857.6220
796.9195, 857.3080
797.4016, 858.5028
797.8837, 859.6624
798.3658, 860.5002
798.8480, 861.5715
799.3301, 863.5728
799.8122, 865.7182
800.2943, 865.0966
800.7764, 859.0544
801.2585, 855.9475
801.7407, 858.3557
802.2228, 861.0457
802.7049, 862.1966
803.1870, 862.3914
803.6691, 862.4929
804.1512, 862.6553
804.6334, 862.6212
805.1155, 862.1403
805.5976, 861.5199
806.0797, 860.5262
806.5618, 859.7335
807.0439, 860.5823
807.5261, 863.3222
808.0082, 866.6031
808.4903, 869.4114
808.9724, 871.4404
809.4545, 870.9757
809.9366, 867.4512
810.4188, 865.4474
810.9009, 866.5977
811.3830, 867.7601
811.8651, 866.0190
812.3472, 862.4850
812.8293, 861.1646
813.3115, 862.8065
813.7936, 865.0126
814.2757, 868.4212
814.7578, 871.3344
815.2399, 872.6315
815.7220, 872.7010
816.2042, 871.9432
816.6863, 870.5818
817.1684, 869.7703
817.6505, 870.5596
818.1326, 872.5420
818.6147, 875.3867
819.0969, 878.8505
819.5790, 881.9427
820.0611, 884.4298
820.5432, 885.2509
821.0253, 882.9030
821.5074, 878.1950
821.9896, 876.6393
822.4717, 879.5000
822.9538, 882.6506
823.4359, 887.1291
823.9180, 890.1690
824.4001, 888.2855
824.8823, 884.4532
825.3644, 884.8461
825.8465, 891.5499
826.3286, 897.7207
826.8107, 900.6004
827.2928, 902.1100
827.7750, 903.4494
828.2571, 904.7210
828.7392, 905.4675
829.2213, 905.7595
829.7034, 907.1864
830.1855, 911.9926
830.6677, 918.5338
831.1498, 921.7485
831.6319, 921.7225
832.1140, 921.9207
832.5961, 922.9625
833.0782, 925.0795
833.5604, 928.6288
834.0425, 933.3266
834.5246, 938.1682
835.0067, 944.6611
835.4888, 948.5829
835.9709, 947.3859
836.4531, 946.5466
836.9352, 949.5078
837.4173, 953.8806
837.8994, 955.4797
838.3815, 953.4791
838.8636, 952.8297
839.3458, 957.3062
839.8279, 963.0892
840.3100, 966.9074
840.7921, 969.3550
841.2742, 971.9356
841.7563, 974.8615
842.2385, 976.9958
842.7206, 977.2595
843.2027, 976.4534
843.6848, 976.4295
844.1669, 977.1842
844.6490, 978.9598
845.1312, 982.0261
845.6133, 985.2425
846.0954, 988.1272
846.5775, 990.5251
847.0596, 992.0742
847.5417, 992.6302
848.0239, 992.6912
848.5060, 992.3342
848.9881, 991.4012
849.4702, 988.1884
849.9523, 985.4478
850.4344, 987.2423
850.9166, 992.9705
851.3987, 996.6931
851.8808, 994.6332
852.3629, 991.0443
852.8450, 989.5226
853.3271, 988.8007
853.8093, 986.7531
854.2914, 983.3422
854.7735, 979.2695
855.2556, 974.8371
855.7377, 971.7145
856.2198, 974.1354
856.7020, 981.7108
857.1841, 983.6121
857.6662, 978.4960
858.1483, 974.2774
858.6304, 974.3407
859.1125, 975.6160
859.5947, 973.9128
860.0768, 975.1799
860.5589, 976.8996
861.0410, 975.2344
861.5231, 979.5099
862.0052, 977.5323
862.4874, 974.3917
862.9695, 973.7522
863.4516, 974.6055
863.9337, 973.5779
864.4158, 969.0223
864.8979, 966.7102
865.3801, 972.6400
865.8622, 980.6743
866.3443, 984.3255
866.8264, 984.5020
867.3085, 983.8607
867.7906, 983.3317
868.2728, 983.0903
868.7549, 983.4199
869.2370, 984.0155
869.7191, 983.8552
870.2012, 982.9484
870.6833, 982.3952
871.1655, 982.3744
871.6476, 982.7751
872.1297, 983.6852
872.6118, 984.7883
873.0939, 985.3851
873.5760, 985.8607
874.0581, 984.6761
874.5402, 978.4630
875.0223, 974.6788
875.5045, 976.9700
875.9866, 981.5545
876.4687, 985.0926
876.9508, 987.2713
877.4329, 988.6526
877.9150, 990.6766
878.3972, 990.2998
878.8793, 982.9069
879.3614, 974.3181
879.8435, 971.3549
880.3256, 973.3630
880.8077, 976.0214
881.2899, 977.3959
881.7720, 979.1780
882.2541, 985.3834
882.7362, 993.1887
883.2183, 993.1484
883.7004, 985.8854
884.1826, 978.7673
884.6647, 973.9594
885.1468, 971.3691
885.6289, 971.1362
886.1110, 972.8876
886.5931, 974.6443
887.0753, 976.2426
887.5574, 978.4805
888.0395, 982.7042
888.5216, 985.6906
889.0037, 984.3159
889.4858, 981.1722
889.9680, 981.1744
890.4501, 985.3440
890.9322, 986.7216
891.4143, 980.3323
891.8964, 975.7784
892.3785, 978.8333
892.8607, 984.4940
893.3428, 987.9378
893.8249, 988.7127
894.3070, 987.9775
894.7891, 985.7599
895.2712, 983.7570
895.7534, 983.9230
896.2355, 985.0548
896.7176, 985.2042
897.1997, 984.4950
897.6818, 983.7952
898.1639, 983.4847
898.6461, 984.1975
899.1282, 987.2560
899.6103, 991.6458
900.0924, 992.5282
900.5745, 989.7161
901.0566, 987.5735
901.5388, 987.0311
902.0209, 986.8721
902.5030, 985.9295
902.9851, 985.0214
903.4672, 986.7853
903.9493, 993.4453
904.4315, 996.4335
904.9136, 991.9302
905.3957, 988.6461
905.8778, 990.1917
906.3599, 993.4362
906.8420, 995.5975
907.3242, 996.5526
907.8063, 996.9362
908.2884, 996.2659
908.7705, 995.8998
909.2526, 996.4696
909.7347, 997.4710
910.2169, 998.2497
910.6990, 999.1482
911.1811, 1001.370
911.6632, 1005.273
912.1453, 1008.637
912.6274, 1009.521
913.1096, 1008.816
913.5917, 1006.797
914.0738, 1004.421
914.5559, 1005.060
915.0380, 1009.008
915.5201, 1012.225
916.0023, 1011.680
916.4844, 1009.189
916.9665, 1008.758
917.4486, 1010.364
917.9307, 1011.569
918.4128, 1012.197
918.8950, 1012.790
919.3771, 1013.501
919.8592, 1014.455
920.3413, 1015.989
920.8234, 1018.073
921.3055, 1018.918
921.7877, 1017.644
922.2698, 1016.698
922.7519, 1015.895
923.2340, 1015.960
923.7161, 1018.082
924.1982, 1021.060
924.6804, 1022.624
925.1625, 1022.307
925.6446, 1022.225
926.1267, 1023.370
926.6088, 1024.306
927.0909, 1023.506
927.5731, 1022.654
928.0552, 1024.490
928.5373, 1028.235
929.0194, 1029.727
929.5015, 1026.106
929.9836, 1023.260
930.4658, 1028.045
930.9479, 1035.548
931.4300, 1038.548
931.9121, 1037.901
932.3942, 1037.358
932.8763, 1038.156
933.3585, 1039.702
933.8406, 1041.818
934.3227, 1043.720
934.8048, 1043.049
935.2869, 1040.116
935.7690, 1037.277
936.2512, 1034.788
936.7333, 1034.612
937.2154, 1038.350
937.6975, 1042.968
938.1796, 1042.917
938.6617, 1037.840
939.1439, 1036.316
939.6260, 1039.346
940.1081, 1043.354
940.5902, 1048.954
941.0723, 1053.285
941.5544, 1052.790
942.0366, 1049.384
942.5187, 1050.036
943.0008, 1057.500
943.4829, 1062.185
943.9650, 1062.749
944.4471, 1061.659
944.9293, 1058.168
945.4114, 1054.636
945.8935, 1053.538
946.3756, 1054.844
946.8577, 1057.011
947.3398, 1060.699
947.8220, 1063.138
948.3041, 1061.217
948.7862, 1059.004
949.2683, 1060.858
949.7504, 1065.087
950.2325, 1068.039
950.7147, 1068.700
951.1968, 1068.214
951.6789, 1066.841
952.1610, 1065.420
952.6431, 1064.547
953.1252, 1064.567
953.6074, 1067.219
954.0895, 1071.865
954.5716, 1074.494
955.0537, 1073.072
955.5358, 1069.821
956.0179, 1066.619
956.5000, 1064.216
956.9821, 1067.300
957.4642, 1075.584
957.9464, 1081.631
958.4285, 1083.606
958.9106, 1084.138
959.3927, 1085.066
959.8748, 1086.302
960.3569, 1087.791
960.8391, 1089.855
961.3212, 1090.122
961.8033, 1087.383
962.2854, 1086.446
962.7675, 1089.839
963.2496, 1094.405
963.7318, 1097.194
964.2139, 1098.319
964.6960, 1098.580
965.1781, 1096.195
965.6602, 1095.892
966.1423, 1099.184
966.6245, 1102.788
967.1066, 1106.721
967.5887, 1109.437
968.0708, 1107.856
968.5529, 1102.178
969.0350, 1099.360
969.5172, 1103.660
969.9993, 1107.206
970.4814, 1106.639
970.9635, 1105.165
971.4456, 1104.824
971.9277, 1105.632
972.4099, 1107.644
972.8920, 1110.807
973.3741, 1112.898
973.8562, 1111.696
974.3383, 1109.988
974.8204, 1109.083
975.3026, 1109.602
975.7847, 1113.830
976.2668, 1120.300
976.7489, 1124.011
977.2310, 1122.700
977.7131, 1119.698
978.1953, 1118.271
978.6774, 1117.422
979.1595, 1113.951
979.6416, 1109.683
980.1237, 1111.370
980.6058, 1119.508
981.0880, 1127.377
981.5701, 1130.692
982.0522, 1131.019
982.5343, 1130.419
983.0164, 1129.054
983.4985, 1127.722
983.9807, 1126.459
984.4628, 1125.399
984.9449, 1124.546
985.4270, 1124.482
985.9091, 1125.787
986.3912, 1128.099
986.8734, 1130.406
987.3555, 1132.732
987.8376, 1135.280
988.3197, 1138.794
988.8018, 1139.031
989.2839, 1132.606
989.7661, 1126.266
990.2482, 1127.970
990.7303, 1136.422
991.2124, 1142.027
991.6945, 1143.121
992.1766, 1145.459
992.6588, 1151.859
993.1409, 1155.529
993.6230, 1150.647
994.1051, 1143.573
994.5872, 1143.405
995.0693, 1150.013
995.5515, 1153.818
996.0336, 1151.818
996.5157, 1151.266
996.9978, 1154.146
997.4799, 1157.397
997.9620, 1159.914
998.4442, 1161.506
998.9263, 1161.401
999.4084, 1159.564
999.8905, 1159.303
1000.373, 1162.158
1000.855, 1165.761
1001.337, 1170.882
1001.819, 1174.956
1002.301, 1174.957
1002.783, 1172.674
1003.265, 1171.837
1003.747, 1173.296
1004.230, 1174.422
1004.712, 1172.703
1005.194, 1171.615
1005.676, 1173.801
1006.158, 1177.608
1006.640, 1182.405
1007.122, 1186.867
1007.604, 1187.587
1008.086, 1183.412
1008.569, 1180.221
1009.051, 1184.324
1009.533, 1190.102
1010.015, 1191.264
1010.497, 1189.799
1010.979, 1188.997
1011.461, 1189.245
1011.943, 1189.539
1012.426, 1189.411
1012.908, 1189.762
1013.390, 1192.227
1013.872, 1195.441
1014.354, 1197.135
1014.836, 1197.396
1015.318, 1195.498
1015.800, 1192.030
1016.282, 1191.220
1016.765, 1195.583
1017.247, 1201.556
1017.729, 1203.703
1018.211, 1203.357
1018.693, 1205.170
1019.175, 1208.944
1019.657, 1214.385
1020.139, 1221.185
1020.622, 1224.227
1021.104, 1219.773
1021.586, 1212.053
1022.068, 1208.303
1022.550, 1208.301
1023.032, 1209.615
1023.514, 1212.260
1023.996, 1216.302
1024.478, 1221.959
1024.961, 1227.102
1025.443, 1230.349
1025.925, 1231.665
1026.407, 1230.328
1026.889, 1226.098
1027.371, 1224.458
1027.853, 1225.590
1028.335, 1228.700
1028.818, 1234.445
1029.300, 1239.049
1029.782, 1239.399
1030.264, 1236.706
1030.746, 1233.794
1031.228, 1230.197
1031.710, 1229.615
1032.192, 1233.876
1032.674, 1235.252
1033.156, 1229.302
1033.639, 1224.842
1034.121, 1230.614
1034.603, 1242.105
1035.085, 1245.630
1035.567, 1237.917
1036.049, 1234.703
1036.531, 1237.697
1037.013, 1242.020
1037.496, 1247.656
1037.978, 1252.579
1038.460, 1254.849
1038.942, 1255.186
1039.424, 1255.657
1039.906, 1255.593
1040.388, 1257.757
1040.870, 1265.780
1041.353, 1270.738
1041.835, 1268.090
1042.317, 1263.782
1042.799, 1262.010
1043.281, 1262.254
1043.763, 1263.186
1044.245, 1265.218
1044.727, 1266.621
1045.209, 1266.568
1045.692, 1266.896
1046.174, 1268.833
1046.656, 1270.680
1047.138, 1270.655
1047.620, 1269.525
1048.102, 1269.418
1048.584, 1270.610
1049.066, 1272.425
1049.548, 1275.601
1050.031, 1278.302
1050.513, 1280.188
1050.995, 1281.148
1051.477, 1280.102
1051.959, 1278.260
1052.441, 1278.784
1052.923, 1282.651
1053.405, 1286.043
1053.888, 1288.350
1054.370, 1289.796
1054.852, 1289.433
1055.334, 1289.156
1055.816, 1290.893
1056.298, 1293.890
1056.780, 1295.973
1057.262, 1296.514
1057.745, 1298.167
1058.227, 1303.838
1058.709, 1307.999
1059.191, 1308.069
1059.673, 1305.947
1060.155, 1301.254
1060.637, 1296.307
1061.119, 1296.109
1061.601, 1301.960
1062.083, 1307.095
1062.566, 1308.983
1063.048, 1309.984
1063.530, 1311.365
1064.012, 1312.102
1064.494, 1309.540
1064.976, 1306.224
1065.458, 1308.004
1065.940, 1316.016
1066.423, 1322.420
1066.905, 1323.470
1067.387, 1323.188
1067.869, 1322.059
1068.351, 1321.612
1068.833, 1324.106
1069.315, 1327.840
1069.797, 1329.384
1070.280, 1328.237
1070.762, 1327.547
1071.244, 1328.880
1071.726, 1330.607
1072.208, 1331.543
1072.690, 1332.988
1073.172, 1337.691
1073.654, 1342.891
1074.136, 1343.010
1074.619, 1337.902
1075.101, 1334.716
1075.583, 1337.573
1076.065, 1340.785
1076.547, 1341.355
1077.029, 1341.487
1077.511, 1343.393
1077.993, 1345.749
1078.475, 1346.107
1078.958, 1344.512
1079.440, 1343.423
1079.922, 1343.814
1080.404, 1344.697
1080.886, 1345.202
1081.368, 1346.450
1081.850, 1349.676
1082.332, 1353.875
1082.814, 1358.628
1083.297, 1363.116
1083.779, 1364.577
1084.261, 1360.952
1084.743, 1358.043
1085.225, 1358.452
1085.707, 1360.500
1086.189, 1365.372
1086.671, 1369.635
1087.154, 1368.025
1087.636, 1362.311
1088.118, 1359.396
1088.600, 1361.554
1089.082, 1364.748
1089.564, 1368.656
1090.046, 1371.546
1090.528, 1371.002
1091.010, 1370.139
1091.493, 1372.867
1091.975, 1377.736
1092.457, 1380.510
1092.939, 1380.118
1093.421, 1379.353
1093.903, 1378.258
1094.385, 1378.276
1094.867, 1381.388
1095.349, 1384.657
1095.832, 1385.125
1096.314, 1384.087
1096.796, 1384.398
1097.278, 1386.501
1097.760, 1388.115
1098.242, 1388.046
1098.724, 1388.072
1099.206, 1388.533
1099.689, 1389.558
1100.171, 1390.749
1100.653, 1392.837
1101.135, 1398.372
1101.617, 1406.737
1102.099, 1410.427
1102.581, 1403.973
1103.063, 1399.094
1103.546, 1398.907
1104.028, 1400.508
1104.510, 1403.384
1104.992, 1406.516
1105.474, 1409.227
1105.956, 1411.274
1106.438, 1411.667
1106.920, 1408.514
1107.402, 1408.092
1107.885, 1414.265
1108.367, 1419.571
1108.849, 1421.029
1109.331, 1420.760
1109.813, 1420.343
1110.295, 1419.787
1110.777, 1418.389
1111.259, 1415.026
1111.741, 1415.424
1112.224, 1425.128
1112.706, 1431.417
1113.188, 1429.759
1113.670, 1425.935
1114.152, 1421.723
1114.634, 1418.624
1115.116, 1419.716
1115.598, 1425.406
1116.081, 1430.404
1116.563, 1434.975
1117.045, 1438.395
1117.527, 1440.975
1118.009, 1441.722
1118.491, 1438.178
1118.973, 1434.452
1119.455, 1436.012
1119.938, 1442.262
1120.420, 1448.054
1120.902, 1454.912
1121.384, 1456.956
1121.866, 1450.917
1122.348, 1446.754
1122.830, 1447.983
1123.312, 1452.193
1123.794, 1458.367
1124.276, 1464.877
1124.759, 1466.026
1125.241, 1460.356
1125.723, 1457.850
1126.205, 1459.160
1126.687, 1461.314
1127.169, 1463.884
1127.651, 1466.354
1128.133, 1468.357
1128.616, 1470.167
1129.098, 1472.655
1129.580, 1475.596
1130.062, 1473.926
1130.544, 1466.851
1131.026, 1465.933
1131.508, 1473.528
1131.990, 1479.181
1132.473, 1477.699
1132.955, 1474.360
1133.437, 1475.512
1133.919, 1475.038
1134.401, 1476.157
1134.883, 1478.758
1135.365, 1480.795
1135.847, 1486.719
1136.329, 1490.689
1136.812, 1490.925
1137.294, 1490.787
1137.776, 1492.984
1138.258, 1493.138
1138.740, 1496.660
1139.222, 1496.002
1139.704, 1497.748
1140.186, 1501.393
1140.668, 1504.627
1141.151, 1506.993
1141.633, 1508.770
1142.115, 1510.113
1142.597, 1511.038
1143.079, 1511.271
1143.561, 1511.355
1144.043, 1512.007
1144.525, 1513.274
1145.008, 1515.765
1145.490, 1518.918
1145.972, 1520.942
1146.454, 1521.384
1146.936, 1521.412
1147.418, 1521.479
1147.900, 1522.245
1148.382, 1525.709
1148.865, 1529.070
1149.347, 1527.055
1149.829, 1523.527
1150.311, 1527.162
1150.793, 1536.817
1151.275, 1542.061
1151.757, 1538.053
1152.239, 1533.079
1152.721, 1529.750
1153.203, 1529.460
1153.686, 1536.517
1154.168, 1544.255
1154.650, 1544.890
1155.132, 1540.940
1155.614, 1538.769
1156.096, 1539.555
1156.578, 1542.325
1157.060, 1549.939
1157.543, 1554.927
1158.025, 1552.274
1158.507, 1549.750
1158.989, 1553.246
1159.471, 1558.532
1159.953, 1559.417
1160.435, 1556.575
1160.917, 1556.389
1161.400, 1559.969
1161.882, 1564.672
1162.364, 1573.946
1162.846, 1578.836
1163.328, 1574.303
1163.810, 1568.290
1164.292, 1566.236
1164.774, 1566.769
1165.256, 1566.788
1165.739, 1569.479
1166.221, 1569.221
1166.703, 1577.584
1167.185, 1584.993
1167.667, 1591.139
1168.149, 1594.454
1168.631, 1593.774
1169.113, 1591.521
1169.595, 1590.327
1170.078, 1589.872
1170.560, 1588.737
1171.042, 1588.821
1171.524, 1589.237
1172.006, 1589.465
1172.488, 1591.475
1172.970, 1592.703
1173.452, 1595.059
1173.934, 1599.928
1174.417, 1605.000
1174.899, 1606.693
1175.381, 1606.163
1175.863, 1605.699
1176.345, 1605.844
1176.827, 1609.522
1177.309, 1615.628
1177.791, 1617.785
1178.274, 1614.325
1178.756, 1611.688
1179.238, 1615.212
1179.720, 1620.332
1180.202, 1622.394
1180.684, 1622.985
1181.166, 1623.880
1181.648, 1624.895
1182.130, 1625.653
1182.613, 1625.964
1183.095, 1624.962
1183.577, 1621.916
1184.059, 1621.421
1184.541, 1629.287
1185.023, 1635.979
1185.505, 1634.429
1185.987, 1631.347
1186.469, 1631.869
1186.952, 1635.173
1187.434, 1640.075
1187.916, 1646.117
1188.398, 1649.666
1188.880, 1648.192
1189.362, 1647.570
1189.844, 1649.027
1190.326, 1650.566
1190.809, 1651.254
1191.291, 1652.121
1191.773, 1654.624
1192.255, 1657.488
1192.737, 1657.006
1193.219, 1660.389
1193.701, 1663.710
1194.183, 1664.017
1194.666, 1666.649
1195.148, 1670.227
1195.630, 1669.646
1196.112, 1671.254
1196.594, 1673.153
1197.076, 1673.174
1197.558, 1672.098
1198.040, 1672.015
1198.522, 1672.920
1199.005, 1675.050
1199.487, 1678.205
1199.969, 1681.108
1200.451, 1683.342
1200.933, 1683.182
1201.415, 1679.600
1201.897, 1677.696
1202.379, 1685.491
1202.861, 1696.009
1203.344, 1697.218
1203.826, 1693.714
1204.308, 1693.492
1204.790, 1695.646
1205.272, 1695.665
1205.754, 1692.992
1206.236, 1691.028
1206.718, 1691.340
1207.201, 1692.954
1207.683, 1696.553
1208.165, 1699.759
1208.647, 1699.124
1209.129, 1698.895
1209.611, 1705.560
1210.093, 1715.369
1210.575, 1719.502
1211.057, 1716.658
1211.540, 1713.513
1212.022, 1708.633
1212.504, 1707.351
1212.986, 1714.579
1213.468, 1719.702
1213.950, 1717.682
1214.432, 1713.645
1214.914, 1710.869
1215.396, 1710.552
1215.879, 1716.994
1216.361, 1731.174
1216.843, 1738.643
1217.325, 1738.480
1217.807, 1737.607
1218.289, 1737.032
1218.771, 1735.418
1219.253, 1731.875
1219.736, 1730.546
1220.218, 1736.433
1220.700, 1745.422
1221.182, 1747.831
1221.664, 1751.625
1222.146, 1753.657
1222.628, 1753.000
1223.110, 1753.489
1223.593, 1749.576
1224.075, 1747.477
1224.557, 1749.915
1225.039, 1753.055
1225.521, 1754.254
1226.003, 1754.218
1226.485, 1752.579
1226.967, 1750.927
1227.449, 1750.918
1227.932, 1752.036
1228.414, 1753.351
1228.896, 1754.767
1229.378, 1756.691
1229.860, 1759.365
1230.342, 1761.858
1230.824, 1761.401
1231.306, 1764.310
1231.788, 1777.802
1232.271, 1788.937
1232.753, 1788.678
1233.235, 1783.405
1233.717, 1781.000
1234.199, 1781.176
1234.681, 1781.887
1235.163, 1782.785
1235.645, 1786.527
1236.128, 1793.902
1236.610, 1799.311
1237.092, 1801.270
1237.574, 1803.274
1238.056, 1807.616
1238.538, 1811.041
1239.020, 1808.588
1239.502, 1802.981
1239.984, 1800.920
1240.467, 1801.456
1240.949, 1801.414
1241.431, 1801.416
1241.913, 1805.410
1242.395, 1813.002
1242.877, 1817.627
1243.359, 1815.809
1243.841, 1812.968
1244.323, 1813.047
1244.806, 1813.712
1245.288, 1812.104
1245.770, 1811.365
1246.252, 1815.809
1246.734, 1822.511
1247.216, 1826.438
1247.698, 1827.470
1248.180, 1829.149
1248.662, 1833.198
1249.145, 1834.880
1249.627, 1831.798
1250.109, 1830.015
1250.591, 1831.804
1251.073, 1832.969
1251.555, 1830.085
1252.037, 1827.233
1252.519, 1830.476
1253.002, 1838.151
1253.484, 1842.379
1253.966, 1843.248
1254.448, 1844.859
1254.930, 1847.274
1255.412, 1848.801
1255.894, 1849.135
1256.376, 1849.124
1256.859, 1849.215
1257.341, 1850.755
1257.823, 1855.944
1258.305, 1862.183
1258.787, 1866.688
1259.269, 1869.538
1259.751, 1870.302
1260.233, 1869.801
1260.715, 1868.701
1261.198, 1867.724
1261.680, 1868.657
1262.162, 1872.169
1262.644, 1876.469
1263.126, 1883.012
1263.608, 1887.361
1264.090, 1886.492
1264.572, 1885.107
1265.054, 1885.102
1265.537, 1886.447
1266.019, 1889.706
1266.501, 1893.991
1266.983, 1896.218
1267.465, 1896.199
1267.947, 1895.718
1268.429, 1894.563
1268.911, 1896.037
1269.394, 1900.684
1269.876, 1904.489
1270.358, 1905.809
1270.840, 1905.535
1271.322, 1904.035
1271.804, 1903.147
1272.286, 1907.132
1272.768, 1906.230
1273.250, 1912.396
1273.733, 1909.998
1274.215, 1911.498
1274.697, 1916.751
1275.179, 1924.036
1275.661, 1932.392
1276.143, 1936.889
1276.625, 1932.926
1277.107, 1930.207
1277.589, 1932.467
1278.072, 1935.890
1278.554, 1940.929
1279.036, 1944.227
1279.518, 1942.348
1280.000, 1937.689
1280.482, 1933.395
1280.964, 1929.990
1281.446, 1934.338
1281.929, 1947.955
1282.411, 1955.189
1282.893, 1955.134
1283.375, 1951.382
1283.857, 1944.949
1284.339, 1941.583
1284.821, 1944.816
1285.303, 1950.705
1285.786, 1955.750
1286.268, 1959.602
##END=



