##NAMES=Keyite
##RRUFFID=R050585
##IDEAL CHEMISTRY=([box]_0.5_Cu^2+^_0.5_)Cu^2+^Cd^2+^Zn^2+^_2_(As^5+^O_4_)_3_&#183;H_2_O
##LOCALITY=Tsumeb mine, Tsumeb, Otavi District, Oshikoto, Namibia
##OWNER=RRUFF
##SOURCE=University of Arizona Mineral Museum
##DESCRIPTION=Microscopic blue prismatic crystals embedded in green zincolivenite, R050583, and associated with schultenite, R050584
##STATUS=The identification of this mineral is confirmed by single-crystal X-ray diffraction and chemical analysis.
##URL=rruff.info/R050585
##MEASURED CHEMISTRY=(Cu^2+^_2.67_Fe_0.33_)_Σ=3_Zn_4.00_(Cd_1.65_Fe_0.14_Pb_0.11_Mn_0.06_Ca_0.04_)_Σ=2_(As_1.00_O_4_)_6_·2H_2_O ; = lighter phase. The darker phase: Zn_1.00_(Cu_0.91_Fe_0.09_)_Σ=1_(As_1.00_O_4_)(OH)  is zincolivenite
150.9828, 2990.208
151.4649, 3001.211
151.9470, 3032.612
152.4291, 3056.184
152.9112, 3059.323
153.3933, 3060.371
153.8755, 3072.332
154.3576, 3113.366
154.8397, 3148.707
155.3218, 3169.928
155.8039, 3175.263
156.2860, 3177.683
156.7682, 3172.560
157.2503, 3167.446
157.7324, 3171.845
158.2145, 3203.598
158.6966, 3233.079
159.1787, 3246.405
159.6609, 3234.310
160.1430, 3223.342
160.6251, 3230.121
161.1072, 3244.793
161.5893, 3244.245
162.0714, 3199.874
162.5536, 3148.979
163.0357, 3117.577
163.5178, 3130.355
163.9999, 3143.153
164.4820, 3133.654
164.9641, 3104.906
165.4463, 3075.909
165.9284, 3055.029
166.4105, 3039.147
166.8926, 3024.895
167.3747, 3011.975
167.8568, 2999.538
168.3390, 2988.440
168.8211, 2979.180
169.3032, 2965.888
169.7853, 2940.490
170.2674, 2908.667
170.7495, 2880.377
171.2317, 2855.474
171.7138, 2838.519
172.1959, 2837.318
172.6780, 2856.542
173.1601, 2878.001
173.6422, 2883.468
174.1244, 2877.470
174.6065, 2874.525
175.0886, 2886.794
175.5707, 2906.624
176.0528, 2922.642
176.5349, 2931.089
177.0171, 2936.771
177.4992, 2945.217
177.9813, 2956.057
178.4634, 2967.070
178.9455, 2971.371
179.4276, 2974.197
179.9098, 2988.379
180.3919, 3025.913
180.8740, 3072.707
181.3561, 3106.423
181.8382, 3126.401
182.3203, 3140.238
182.8025, 3150.661
183.2846, 3159.620
183.7667, 3175.479
184.2488, 3203.962
184.7309, 3242.370
185.2130, 3282.170
185.6951, 3324.193
186.1773, 3366.386
186.6594, 3404.588
187.1415, 3439.455
187.6236, 3478.943
188.1057, 3536.048
188.5878, 3604.260
189.0700, 3653.657
189.5521, 3677.950
190.0342, 3686.489
190.5163, 3693.389
190.9984, 3698.377
191.4805, 3704.562
191.9627, 3717.760
192.4448, 3736.630
192.9269, 3746.023
193.4090, 3743.953
193.8911, 3730.389
194.3732, 3702.876
194.8554, 3659.652
195.3375, 3611.290
195.8196, 3569.166
196.3017, 3533.668
196.7838, 3490.944
197.2659, 3435.936
197.7481, 3370.492
198.2302, 3303.038
198.7123, 3230.335
199.1944, 3165.028
199.6765, 3125.262
200.1586, 3113.339
200.6408, 3106.613
201.1229, 3098.907
201.6050, 3090.307
202.0871, 3077.897
202.5692, 3059.900
203.0513, 3040.680
203.5335, 3026.820
204.0156, 3018.151
204.4977, 3015.164
204.9798, 3019.968
205.4619, 3033.961
205.9440, 3045.008
206.4262, 3052.916
206.9083, 3057.418
207.3904, 3057.175
207.8725, 3050.861
208.3546, 3043.242
208.8367, 3035.385
209.3189, 3025.199
209.8010, 3024.829
210.2831, 3040.155
210.7652, 3065.562
211.2473, 3073.309
211.7294, 3054.938
212.2116, 3035.709
212.6937, 3037.890
213.1758, 3070.875
213.6579, 3094.306
214.1400, 3098.313
214.6221, 3084.979
215.1043, 3084.605
215.5864, 3101.777
216.0685, 3125.467
216.5506, 3145.213
217.0327, 3161.162
217.5148, 3173.135
217.9970, 3179.119
218.4791, 3178.239
218.9612, 3186.024
219.4433, 3208.365
219.9254, 3233.110
220.4075, 3243.179
220.8897, 3231.721
221.3718, 3219.036
221.8539, 3210.187
222.3360, 3204.390
222.8181, 3206.298
223.3002, 3221.539
223.7824, 3240.869
224.2645, 3246.101
224.7466, 3229.017
225.2287, 3212.156
225.7108, 3204.786
226.1929, 3211.528
226.6750, 3215.446
227.1572, 3217.592
227.6393, 3216.685
228.1214, 3207.715
228.6035, 3183.240
229.0856, 3161.958
229.5677, 3154.819
230.0499, 3172.132
230.5320, 3180.123
231.0141, 3176.440
231.4962, 3162.363
231.9783, 3141.917
232.4604, 3111.226
232.9426, 3079.393
233.4247, 3050.971
233.9068, 3025.770
234.3889, 3005.818
234.8710, 2994.521
235.3531, 2990.132
235.8353, 2976.542
236.3174, 2946.778
236.7995, 2915.815
237.2816, 2895.053
237.7637, 2888.395
238.2458, 2884.879
238.7280, 2885.908
239.2101, 2891.282
239.6922, 2885.905
240.1743, 2865.294
240.6564, 2838.370
241.1385, 2813.003
241.6207, 2788.320
242.1028, 2766.292
242.5849, 2748.655
243.0670, 2736.180
243.5491, 2717.254
244.0313, 2686.185
244.5134, 2653.412
244.9955, 2631.336
245.4776, 2624.277
245.9597, 2620.505
246.4418, 2617.728
246.9240, 2616.223
247.4061, 2614.149
247.8882, 2611.226
248.3703, 2607.994
248.8524, 2605.259
249.3345, 2603.261
249.8167, 2601.307
250.2988, 2598.669
250.7809, 2594.302
251.2630, 2593.290
251.7451, 2595.729
252.2272, 2601.399
252.7094, 2610.624
253.1915, 2626.363
253.6736, 2640.526
254.1557, 2648.305
254.6378, 2643.913
255.1199, 2652.215
255.6021, 2678.248
256.0842, 2714.440
256.5663, 2745.459
257.0484, 2774.169
257.5305, 2792.821
258.0126, 2794.088
258.4948, 2764.867
258.9769, 2756.397
259.4590, 2776.050
259.9411, 2814.275
260.4232, 2846.067
260.9053, 2870.396
261.3875, 2890.354
261.8696, 2905.851
262.3517, 2912.284
262.8338, 2928.909
263.3159, 2960.635
263.7980, 3002.228
264.2802, 3033.080
264.7623, 3047.137
265.2444, 3062.967
265.7265, 3094.638
266.2086, 3148.175
266.6907, 3192.873
267.1729, 3224.177
267.6550, 3244.611
268.1371, 3263.732
268.6192, 3280.354
269.1013, 3297.763
269.5834, 3323.123
270.0656, 3362.916
270.5477, 3377.445
271.0298, 3353.740
271.5119, 3302.385
271.9940, 3268.335
272.4761, 3255.530
272.9583, 3250.824
273.4404, 3245.178
273.9225, 3238.426
274.4046, 3231.921
274.8867, 3225.466
275.3688, 3219.496
275.8510, 3217.741
276.3331, 3222.890
276.8152, 3224.258
277.2973, 3209.450
277.7794, 3176.104
278.2615, 3149.403
278.7437, 3135.372
279.2258, 3131.467
279.7079, 3126.236
280.1900, 3119.222
280.6721, 3112.712
281.1542, 3106.341
281.6364, 3099.728
282.1185, 3103.993
282.6006, 3126.196
283.0827, 3160.256
283.5648, 3181.797
284.0469, 3190.060
284.5291, 3189.960
285.0112, 3182.401
285.4933, 3167.737
285.9754, 3158.010
286.4575, 3156.941
286.9396, 3162.829
287.4217, 3170.168
287.9038, 3178.796
288.3860, 3189.550
288.8681, 3203.985
289.3502, 3221.604
289.8323, 3240.274
290.3144, 3262.998
290.7965, 3284.888
291.2787, 3287.597
291.7608, 3269.447
292.2429, 3250.554
292.7250, 3252.177
293.2071, 3270.847
293.6892, 3289.239
294.1714, 3300.852
294.6535, 3308.994
295.1356, 3324.243
295.6177, 3347.315
296.0998, 3364.654
296.5819, 3358.547
297.0641, 3335.287
297.5462, 3315.867
298.0283, 3309.278
298.5104, 3309.709
298.9925, 3304.936
299.4746, 3294.854
299.9568, 3290.962
300.4389, 3314.289
300.9210, 3351.776
301.4031, 3373.335
301.8852, 3354.909
302.3673, 3322.231
302.8495, 3310.283
303.3316, 3318.710
303.8137, 3328.475
304.2958, 3323.643
304.7779, 3309.308
305.2600, 3294.688
305.7422, 3286.319
306.2243, 3277.183
306.7064, 3257.102
307.1885, 3226.616
307.6706, 3199.863
308.1527, 3195.792
308.6349, 3199.627
309.1170, 3191.013
309.5991, 3149.345
310.0812, 3102.038
310.5633, 3072.351
311.0454, 3058.829
311.5276, 3040.181
312.0097, 2995.262
312.4918, 2941.262
312.9739, 2896.797
313.4560, 2877.503
313.9381, 2862.384
314.4203, 2838.981
314.9024, 2807.799
315.3845, 2780.049
315.8666, 2766.880
316.3487, 2757.065
316.8308, 2739.992
317.3130, 2699.931
317.7951, 2663.515
318.2772, 2645.779
318.7593, 2644.760
319.2414, 2638.908
319.7235, 2612.458
320.2057, 2582.715
320.6878, 2563.396
321.1699, 2570.654
321.6520, 2575.414
322.1341, 2564.170
322.6162, 2539.555
323.0984, 2529.291
323.5805, 2555.742
324.0626, 2588.350
324.5447, 2606.510
325.0268, 2593.958
325.5089, 2581.821
325.9911, 2573.641
326.4732, 2569.385
326.9553, 2567.303
327.4374, 2564.078
327.9195, 2565.096
328.4016, 2573.341
328.8838, 2591.083
329.3659, 2613.229
329.8480, 2644.010
330.3301, 2680.734
330.8122, 2707.443
331.2943, 2719.947
331.7765, 2726.763
332.2586, 2731.420
332.7407, 2726.320
333.2228, 2733.319
333.7049, 2757.933
334.1870, 2795.892
334.6692, 2828.898
335.1513, 2852.212
335.6334, 2878.817
336.1155, 2917.922
336.5976, 2977.052
337.0797, 3025.091
337.5619, 3056.639
338.0440, 3077.438
338.5261, 3102.072
339.0082, 3129.917
339.4903, 3162.983
339.9724, 3202.879
340.4546, 3250.604
340.9367, 3299.721
341.4188, 3351.749
341.9009, 3403.480
342.3830, 3446.463
342.8651, 3479.351
343.3473, 3515.102
343.8294, 3564.109
344.3115, 3625.190
344.7936, 3672.616
345.2757, 3700.523
345.7578, 3726.895
346.2400, 3788.266
346.7221, 3881.634
347.2042, 3968.168
347.6863, 4026.867
348.1684, 4063.353
348.6505, 4093.219
349.1327, 4115.102
349.6148, 4140.641
350.0969, 4190.598
350.5790, 4258.411
351.0611, 4319.023
351.5432, 4357.550
352.0254, 4382.038
352.5075, 4408.481
352.9896, 4438.463
353.4717, 4457.015
353.9538, 4443.835
354.4359, 4409.474
354.9181, 4374.878
355.4002, 4360.895
355.8823, 4343.647
356.3644, 4295.602
356.8465, 4216.252
357.3286, 4136.260
357.8108, 4086.349
358.2929, 4044.405
358.7750, 3980.500
359.2571, 3853.521
359.7392, 3726.996
360.2213, 3640.231
360.7035, 3591.054
361.1856, 3542.488
361.6677, 3476.906
362.1498, 3405.428
362.6319, 3336.957
363.1140, 3274.508
363.5962, 3214.633
364.0783, 3153.618
364.5604, 3092.795
365.0425, 3041.650
365.5246, 3016.221
366.0067, 2992.223
366.4889, 2954.805
366.9710, 2875.569
367.4531, 2813.604
367.9352, 2783.551
368.4173, 2777.817
368.8994, 2762.640
369.3815, 2729.100
369.8636, 2693.376
370.3458, 2662.410
370.8279, 2634.977
371.3100, 2614.139
371.7921, 2601.997
372.2742, 2595.844
372.7563, 2590.300
373.2385, 2590.832
373.7206, 2582.797
374.2027, 2553.965
374.6848, 2491.324
375.1669, 2465.648
375.6490, 2491.818
376.1312, 2539.445
376.6133, 2557.523
377.0954, 2540.088
377.5775, 2517.064
378.0596, 2499.063
378.5417, 2486.164
379.0239, 2468.395
379.5060, 2443.836
379.9881, 2420.653
380.4702, 2408.420
380.9523, 2406.965
381.4344, 2414.558
381.9166, 2435.886
382.3987, 2464.724
382.8808, 2484.635
383.3629, 2495.430
383.8450, 2497.164
384.3271, 2482.828
384.8093, 2458.174
385.2914, 2442.058
385.7735, 2445.412
386.2556, 2454.994
386.7377, 2447.635
387.2198, 2426.301
387.7020, 2413.570
388.1841, 2434.114
388.6662, 2470.490
389.1483, 2500.372
389.6304, 2519.352
390.1125, 2528.619
390.5947, 2522.701
391.0768, 2506.633
391.5589, 2496.222
392.0410, 2506.690
392.5231, 2521.369
393.0052, 2526.314
393.4874, 2512.576
393.9695, 2505.400
394.4516, 2521.767
394.9337, 2550.556
395.4158, 2571.427
395.8979, 2569.068
396.3801, 2565.834
396.8622, 2570.843
397.3443, 2586.816
397.8264, 2603.765
398.3085, 2620.861
398.7906, 2637.922
399.2728, 2654.618
399.7549, 2668.121
400.2370, 2684.583
400.7191, 2708.653
401.2012, 2741.744
401.6833, 2760.602
402.1655, 2754.728
402.6476, 2744.918
403.1297, 2750.240
403.6118, 2778.763
404.0939, 2802.856
404.5760, 2817.316
405.0582, 2823.963
405.5403, 2832.456
406.0224, 2843.704
406.5045, 2853.879
406.9866, 2859.888
407.4688, 2861.505
407.9509, 2862.871
408.4330, 2864.781
408.9151, 2866.100
409.3972, 2863.699
409.8793, 2857.563
410.3615, 2851.588
410.8436, 2847.701
411.3257, 2845.685
411.8078, 2845.827
412.2899, 2848.904
412.7720, 2850.753
413.2542, 2846.449
413.7363, 2836.913
414.2184, 2824.636
414.7005, 2807.004
415.1826, 2789.291
415.6647, 2778.877
416.1469, 2776.124
416.6290, 2773.994
417.1111, 2770.204
417.5932, 2763.182
418.0753, 2751.094
418.5574, 2729.493
419.0396, 2705.849
419.5217, 2682.385
420.0038, 2659.568
420.4859, 2639.017
420.9680, 2623.268
421.4501, 2609.006
421.9323, 2594.368
422.4144, 2577.979
422.8965, 2562.395
423.3786, 2548.938
423.8607, 2536.760
424.3428, 2523.192
424.8250, 2503.490
425.3071, 2486.398
425.7892, 2475.628
426.2713, 2474.015
426.7534, 2470.705
427.2355, 2464.515
427.7177, 2457.311
428.1998, 2452.248
428.6819, 2450.908
429.1640, 2447.673
429.6461, 2438.799
430.1282, 2424.615
430.6104, 2420.782
431.0925, 2430.146
431.5746, 2442.268
432.0567, 2446.534
432.5388, 2442.714
433.0209, 2438.010
433.5031, 2434.332
433.9852, 2430.387
434.4673, 2420.541
434.9494, 2376.416
435.4315, 2406.128
435.9136, 2420.449
436.3958, 2420.213
436.8779, 2361.359
437.3600, 2378.556
437.8421, 2365.493
438.3242, 2351.339
438.8063, 2379.685
439.2885, 2330.156
439.7706, 2358.142
440.2527, 2355.404
440.7348, 2366.953
441.2169, 2348.056
441.6990, 2338.766
442.1812, 2360.244
442.6633, 2364.928
443.1454, 2343.130
443.6275, 2356.512
444.1096, 2307.471
444.5917, 2313.500
445.0739, 2343.375
445.5560, 2323.894
446.0381, 2338.614
446.5202, 2340.522
447.0023, 2283.660
447.4844, 2329.433
447.9666, 2331.042
448.4487, 2287.301
448.9308, 2330.029
449.4129, 2292.873
449.8950, 2284.441
450.3771, 2297.666
450.8593, 2288.633
451.3413, 2315.093
451.8235, 2307.665
452.3056, 2295.903
452.7877, 2293.933
453.2698, 2297.313
453.7519, 2306.971
454.2340, 2310.306
454.7162, 2299.112
455.1983, 2279.755
455.6804, 2276.898
456.1625, 2291.336
456.6446, 2308.401
457.1267, 2317.044
457.6089, 2318.586
458.0910, 2316.612
458.5731, 2310.560
459.0552, 2303.660
459.5373, 2298.852
460.0194, 2296.269
460.5016, 2296.296
460.9837, 2298.144
461.4658, 2303.341
461.9479, 2316.501
462.4300, 2340.958
462.9121, 2357.396
463.3943, 2346.169
463.8764, 2323.770
464.3585, 2311.663
464.8406, 2327.109
465.3227, 2343.153
465.8048, 2348.782
466.2870, 2343.833
466.7691, 2345.769
467.2512, 2362.726
467.7333, 2382.903
468.2154, 2399.582
468.6975, 2416.708
469.1797, 2422.966
469.6618, 2410.260
470.1439, 2388.305
470.6260, 2384.441
471.1081, 2405.787
471.5902, 2427.925
472.0724, 2439.295
472.5545, 2439.005
473.0366, 2445.643
473.5187, 2461.079
474.0008, 2477.989
474.4829, 2487.096
474.9651, 2488.917
475.4472, 2489.145
475.9293, 2487.490
476.4114, 2486.780
476.8935, 2494.428
477.3756, 2509.824
477.8578, 2525.712
478.3399, 2537.848
478.8220, 2546.834
479.3041, 2551.891
479.7862, 2549.399
480.2683, 2551.859
480.7505, 2577.447
481.2326, 2614.808
481.7147, 2640.150
482.1968, 2629.949
482.6789, 2616.606
483.1610, 2616.486
483.6432, 2631.753
484.1253, 2651.631
484.6074, 2684.044
485.0895, 2714.252
485.5716, 2729.698
486.0537, 2706.237
486.5359, 2695.433
487.0180, 2705.554
487.5001, 2732.387
487.9822, 2757.218
488.4643, 2781.155
488.9464, 2800.937
489.4286, 2813.766
489.9107, 2817.537
490.3928, 2825.105
490.8749, 2836.722
491.3570, 2852.029
491.8391, 2874.235
492.3213, 2903.152
492.8034, 2923.744
493.2855, 2922.635
493.7676, 2912.548
494.2497, 2931.447
494.7318, 2978.570
495.2140, 3024.332
495.6961, 3042.387
496.1782, 3042.997
496.6603, 3043.161
497.1424, 3047.020
497.6245, 3050.046
498.1067, 3041.779
498.5888, 3029.659
499.0709, 3030.855
499.5530, 3073.998
500.0351, 3115.249
500.5172, 3128.054
500.9994, 3106.137
501.4815, 3085.090
501.9636, 3076.795
502.4457, 3070.779
502.9278, 3057.602
503.4099, 3027.431
503.8921, 3001.385
504.3742, 2981.159
504.8563, 2966.458
505.3384, 2957.723
505.8205, 2961.795
506.3026, 2959.212
506.7848, 2937.307
507.2669, 2891.903
507.7490, 2858.591
508.2311, 2840.334
508.7132, 2827.455
509.1953, 2804.720
509.6775, 2773.461
510.1596, 2748.165
510.6417, 2735.987
511.1238, 2731.206
511.6059, 2723.806
512.0880, 2713.709
512.5701, 2701.464
513.0522, 2682.943
513.5344, 2664.030
514.0165, 2654.432
514.4986, 2660.481
514.9807, 2662.023
515.4628, 2640.188
515.9449, 2606.287
516.4271, 2579.876
516.9092, 2574.913
517.3913, 2571.408
517.8734, 2559.292
518.3555, 2537.645
518.8376, 2525.401
519.3198, 2538.712
519.8019, 2552.132
520.2840, 2548.800
520.7661, 2512.551
521.2482, 2492.842
521.7303, 2500.514
522.2125, 2520.910
522.6946, 2518.696
523.1767, 2488.226
523.6588, 2458.974
524.1409, 2443.269
524.6230, 2439.585
525.1052, 2435.813
525.5873, 2432.289
526.0694, 2425.977
526.5515, 2409.788
527.0336, 2388.150
527.5157, 2374.921
527.9979, 2377.184
528.4800, 2382.846
528.9621, 2380.136
529.4442, 2370.448
529.9263, 2357.792
530.4084, 2337.236
530.8906, 2319.538
531.3727, 2315.027
531.8548, 2326.399
532.3369, 2334.027
532.8190, 2332.716
533.3011, 2323.993
533.7833, 2309.286
534.2654, 2284.798
534.7475, 2258.527
535.2296, 2223.406
535.7117, 2186.448
536.1938, 2145.623
536.6760, 2179.367
537.1581, 2197.565
537.6402, 2201.050
538.1223, 2145.761
538.6044, 2166.368
539.0865, 2156.558
539.5687, 2145.501
540.0508, 2176.790
540.5329, 2130.049
541.0150, 2160.666
541.4971, 2160.403
541.9792, 2174.273
542.4614, 2157.539
542.9435, 2150.258
543.4256, 2173.590
543.9077, 2179.972
544.3898, 2159.716
544.8719, 2174.484
545.3541, 2126.674
545.8362, 2133.777
546.3183, 2164.573
546.8004, 2145.855
547.2825, 2161.183
547.7646, 2163.544
548.2468, 2106.979
548.7289, 2152.893
549.2110, 2154.488
549.6931, 2110.577
550.1752, 2152.980
550.6573, 2115.343
551.1395, 2106.274
551.6216, 2118.707
552.1037, 2108.726
552.5858, 2134.082
553.0679, 2125.396
553.5500, 2123.083
554.0322, 2144.104
554.5143, 2158.156
554.9964, 2159.025
555.4785, 2153.199
555.9606, 2151.115
556.4427, 2152.534
556.9249, 2156.257
557.4070, 2163.406
557.8891, 2171.510
558.3712, 2178.917
558.8533, 2185.790
559.3354, 2187.929
559.8176, 2172.861
560.2997, 2156.248
560.7818, 2154.166
561.2639, 2187.679
561.7460, 2216.958
562.2281, 2233.807
562.7103, 2240.023
563.1924, 2242.729
563.6745, 2237.697
564.1566, 2235.063
564.6387, 2240.274
565.1208, 2255.070
565.6030, 2258.662
566.0851, 2245.739
566.5672, 2233.933
567.0493, 2245.840
567.5314, 2279.883
568.0135, 2304.210
568.4957, 2310.910
568.9778, 2308.513
569.4599, 2307.640
569.9420, 2308.805
570.4241, 2314.173
570.9063, 2326.010
571.3884, 2341.929
571.8705, 2360.543
572.3526, 2381.587
572.8347, 2403.530
573.3168, 2428.769
573.7990, 2452.610
574.2811, 2470.444
574.7632, 2474.989
575.2453, 2482.875
575.7274, 2496.802
576.2095, 2515.818
576.6917, 2538.500
577.1738, 2570.793
577.6559, 2596.620
578.1380, 2608.761
578.6201, 2608.454
579.1022, 2617.139
579.5844, 2636.725
580.0665, 2658.139
580.5486, 2673.094
581.0307, 2683.032
581.5128, 2698.827
581.9949, 2723.557
582.4771, 2747.673
582.9592, 2755.793
583.4413, 2753.899
583.9234, 2756.777
584.4055, 2780.005
584.8876, 2803.010
585.3698, 2806.661
585.8519, 2794.631
586.3340, 2787.110
586.8161, 2797.772
587.2982, 2811.453
587.7803, 2820.484
588.2625, 2825.051
588.7446, 2821.937
589.2267, 2805.712
589.7088, 2785.538
590.1909, 2772.050
590.6730, 2769.763
591.1552, 2761.383
591.6373, 2741.041
592.1194, 2714.581
592.6015, 2701.792
593.0836, 2703.595
593.5657, 2702.824
594.0479, 2688.176
594.5300, 2663.951
595.0121, 2642.078
595.4942, 2622.798
595.9763, 2603.122
596.4584, 2576.754
596.9406, 2549.863
597.4227, 2530.665
597.9048, 2524.912
598.3869, 2520.681
598.8690, 2516.505
599.3511, 2509.509
599.8333, 2494.058
600.3154, 2465.593
600.7975, 2431.774
601.2796, 2387.403
601.7617, 2333.223
602.2438, 2307.622
602.7260, 2326.275
603.2081, 2346.525
603.6902, 2337.895
604.1723, 2297.359
604.6544, 2268.600
605.1365, 2255.390
605.6187, 2249.494
606.1008, 2242.571
606.5829, 2234.314
607.0650, 2222.966
607.5471, 2204.613
608.0292, 2186.508
608.5114, 2179.524
608.9935, 2180.736
609.4756, 2179.670
609.9577, 2164.433
610.4398, 2150.182
610.9219, 2149.733
611.4041, 2167.245
611.8862, 2174.973
612.3683, 2153.466
612.8504, 2129.154
613.3325, 2123.663
613.8146, 2156.557
614.2968, 2167.935
614.7789, 2146.047
615.2610, 2108.937
615.7431, 2093.210
616.2252, 2100.823
616.7073, 2110.630
617.1895, 2117.417
617.6716, 2120.039
618.1537, 2111.476
618.6358, 2092.777
619.1179, 2078.279
619.6000, 2084.676
620.0822, 2098.079
620.5643, 2100.251
621.0464, 2087.147
621.5285, 2073.520
622.0106, 2067.734
622.4927, 2065.612
622.9749, 2062.726
623.4570, 2057.099
623.9391, 2051.852
624.4212, 2045.053
624.9033, 2039.103
625.3854, 2042.314
625.8676, 2062.944
626.3497, 2073.908
626.8318, 2060.644
627.3139, 2027.041
627.7960, 2012.854
628.2781, 2019.707
628.7603, 2032.385
629.2424, 2040.335
629.7245, 2044.391
630.2066, 2047.165
630.6887, 2049.256
631.1708, 2048.817
631.6530, 2041.940
632.1351, 2032.008
632.6172, 2024.108
633.0993, 2017.712
633.5814, 2016.265
634.0635, 2026.416
634.5457, 2043.737
635.0278, 2051.110
635.5099, 2036.800
635.9920, 2023.588
636.4741, 2018.693
636.9562, 2022.601
637.4384, 2026.749
637.9205, 2031.841
638.4026, 2035.383
638.8847, 2032.548
639.3668, 2024.659
639.8489, 2025.807
640.3311, 2039.189
640.8132, 2055.460
641.2953, 2067.241
641.7774, 2073.399
642.2595, 2071.444
642.7416, 2051.259
643.2238, 2031.988
643.7059, 2026.826
644.1880, 2032.860
644.6701, 2040.009
645.1522, 2047.964
645.6343, 2053.801
646.1165, 2057.038
646.5986, 2058.219
647.0807, 2051.658
647.5628, 2031.025
648.0449, 2011.831
648.5270, 2006.508
649.0092, 2016.092
649.4913, 2027.066
649.9734, 2039.508
650.4555, 2050.453
650.9376, 2054.824
651.4197, 2054.129
651.9019, 2053.450
652.3840, 2054.238
652.8661, 2056.071
653.3482, 2058.836
653.8303, 2062.324
654.3124, 2065.936
654.7946, 2071.503
655.2767, 2075.268
655.7588, 2075.041
656.2409, 2070.366
656.7230, 2064.789
657.2051, 2056.934
657.6872, 2049.897
658.1693, 2046.479
658.6514, 2048.663
659.1335, 2044.419
659.6157, 2030.954
660.0978, 2016.914
660.5799, 2016.149
661.0620, 2026.154
661.5441, 2032.479
662.0262, 2030.329
662.5084, 2024.560
662.9905, 2019.000
663.4726, 2014.387
663.9547, 2012.706
664.4368, 2013.494
664.9189, 2018.674
665.4011, 2032.535
665.8832, 2054.526
666.3653, 2070.034
666.8474, 2072.937
667.3295, 2071.845
667.8116, 2070.323
668.2938, 2068.827
668.7759, 2064.131
669.2580, 2054.894
669.7401, 2045.377
670.2222, 2038.604
670.7043, 2034.959
671.1865, 2040.606
671.6686, 2061.100
672.1507, 2080.101
672.6328, 2070.719
673.1149, 2043.822
673.5970, 2025.412
674.0792, 2034.868
674.5613, 2048.439
675.0434, 2050.815
675.5255, 2044.652
676.0076, 2044.958
676.4897, 2071.145
676.9719, 2088.287
677.4540, 2077.843
677.9361, 2034.234
678.4182, 2020.016
678.9003, 2046.813
679.3824, 2077.331
679.8646, 2076.009
680.3467, 2046.451
680.8288, 2033.781
681.3109, 2044.647
681.7930, 2062.057
682.2751, 2067.951
682.7573, 2065.846
683.2394, 2062.925
683.7215, 2062.126
684.2036, 2060.516
684.6857, 2054.373
685.1678, 2046.288
685.6500, 2042.047
686.1321, 2042.606
686.6142, 2048.217
687.0963, 2064.308
687.5784, 2088.103
688.0605, 2090.075
688.5427, 2059.874
689.0248, 2034.494
689.5069, 2040.837
689.9890, 2074.746
690.4711, 2087.472
690.9532, 2077.135
691.4354, 2061.573
691.9175, 2054.335
692.3996, 2053.656
692.8817, 2057.803
693.3638, 2068.485
693.8459, 2077.672
694.3281, 2079.596
694.8102, 2077.731
695.2923, 2076.676
695.7744, 2079.912
696.2565, 2080.653
696.7386, 2074.388
697.2208, 2065.949
697.7029, 2069.735
698.1850, 2090.028
698.6671, 2107.372
699.1492, 2114.101
699.6313, 2112.829
700.1135, 2111.350
700.5956, 2109.740
701.0777, 2109.555
701.5598, 2114.327
702.0419, 2119.821
702.5240, 2119.676
703.0062, 2113.089
703.4883, 2107.835
703.9704, 2110.215
704.4525, 2113.858
704.9346, 2113.625
705.4167, 2104.396
705.8989, 2099.145
706.3810, 2098.812
706.8631, 2101.782
707.3452, 2106.455
707.8273, 2113.076
708.3094, 2120.315
708.7916, 2128.566
709.2737, 2136.406
709.7558, 2139.794
710.2379, 2140.039
710.7200, 2142.637
711.2021, 2158.895
711.6843, 2171.784
712.1664, 2155.955
712.6485, 2120.453
713.1306, 2104.230
713.6127, 2149.307
714.0948, 2192.308
714.5770, 2197.489
715.0591, 2161.176
715.5412, 2147.484
716.0233, 2167.103
716.5054, 2190.471
716.9875, 2196.509
717.4697, 2185.323
717.9518, 2179.192
718.4339, 2179.376
718.9160, 2182.869
719.3981, 2185.888
719.8802, 2190.129
720.3624, 2199.899
720.8445, 2219.788
721.3266, 2237.084
721.8087, 2239.271
722.2908, 2235.248
722.7729, 2237.762
723.2551, 2260.922
723.7372, 2276.396
724.2193, 2273.692
724.7014, 2262.115
725.1835, 2270.779
725.6656, 2306.459
726.1478, 2333.757
726.6299, 2336.573
727.1120, 2323.264
727.5941, 2317.019
728.0762, 2317.600
728.5583, 2323.560
729.0405, 2339.719
729.5226, 2357.038
730.0047, 2365.741
730.4868, 2365.164
730.9689, 2365.262
731.4510, 2371.980
731.9332, 2379.211
732.4153, 2381.981
732.8974, 2375.940
733.3795, 2379.907
733.8616, 2400.566
734.3438, 2421.000
734.8259, 2421.876
735.3080, 2403.683
735.7901, 2388.559
736.2722, 2379.589
736.7543, 2374.052
737.2365, 2372.808
737.7186, 2372.013
738.2007, 2363.193
738.6828, 2333.368
739.1649, 2307.686
739.6470, 2303.261
740.1292, 2312.253
740.6113, 2316.776
741.0934, 2310.809
741.5755, 2303.617
742.0576, 2296.625
742.5397, 2289.769
743.0219, 2281.273
743.5040, 2269.838
743.9861, 2264.965
744.4682, 2278.618
744.9503, 2300.940
745.4324, 2300.835
745.9146, 2280.515
746.3967, 2262.169
746.8788, 2265.268
747.3609, 2274.038
747.8430, 2273.695
748.3251, 2260.863
748.8073, 2253.802
749.2894, 2263.673
749.7715, 2275.332
750.2536, 2278.695
750.7357, 2269.427
751.2178, 2266.235
751.7000, 2271.036
752.1821, 2277.420
752.6642, 2276.525
753.1463, 2270.173
753.6284, 2268.371
754.1105, 2274.328
754.5927, 2280.677
755.0748, 2278.348
755.5569, 2271.969
756.0390, 2268.819
756.5211, 2274.980
757.0032, 2280.727
757.4854, 2280.813
757.9675, 2279.047
758.4496, 2284.910
758.9317, 2305.261
759.4138, 2317.610
759.8959, 2312.805
760.3781, 2298.777
760.8602, 2304.513
761.3423, 2328.365
761.8244, 2344.774
762.3065, 2328.885
762.7886, 2304.372
763.2708, 2301.831
763.7529, 2319.092
764.2350, 2340.018
764.7171, 2360.697
765.1992, 2379.896
765.6813, 2397.468
766.1635, 2413.646
766.6456, 2423.328
767.1277, 2421.324
767.6098, 2421.163
768.0919, 2434.712
768.5740, 2461.724
769.0562, 2471.564
769.5383, 2461.696
770.0204, 2453.793
770.5025, 2470.531
770.9846, 2501.923
771.4667, 2533.269
771.9489, 2563.862
772.4310, 2588.482
772.9131, 2599.939
773.3952, 2606.472
773.8773, 2616.388
774.3594, 2632.452
774.8416, 2649.366
775.3237, 2668.434
775.8058, 2686.903
776.2879, 2695.945
776.7700, 2695.383
777.2521, 2718.616
777.7343, 2780.022
778.2164, 2851.545
778.6985, 2892.604
779.1806, 2913.289
779.6627, 2937.572
780.1448, 2975.503
780.6270, 3018.667
781.1091, 3068.818
781.5912, 3121.813
782.0733, 3163.120
782.5554, 3176.006
783.0375, 3203.899
783.5197, 3259.977
784.0018, 3336.735
784.4839, 3409.052
784.9660, 3477.070
785.4481, 3542.663
785.9302, 3601.985
786.4124, 3663.006
786.8945, 3737.199
787.3766, 3823.944
787.8587, 3918.015
788.3408, 4019.672
788.8229, 4124.581
789.3051, 4229.433
789.7872, 4334.500
790.2693, 4440.973
790.7514, 4545.375
791.2335, 4653.575
791.7156, 4763.489
792.1978, 4876.412
792.6799, 5017.479
793.1620, 5187.909
793.6441, 5360.529
794.1262, 5514.393
794.6083, 5653.062
795.0905, 5775.469
795.5726, 5880.019
796.0547, 5995.297
796.5368, 6148.026
797.0189, 6309.157
797.5010, 6453.823
797.9832, 6576.006
798.4653, 6692.966
798.9474, 6802.919
799.4295, 6909.818
799.9116, 7023.540
800.3937, 7142.005
800.8759, 7241.777
801.3580, 7319.509
801.8401, 7380.725
802.3222, 7430.826
802.8043, 7468.620
803.2864, 7492.545
803.7686, 7504.045
804.2507, 7498.588
804.7328, 7480.200
805.2149, 7440.718
805.6970, 7367.677
806.1791, 7243.289
806.6613, 7133.571
807.1434, 7053.319
807.6255, 6979.898
808.1076, 6875.069
808.5897, 6741.214
809.0718, 6590.559
809.5540, 6420.114
810.0361, 6248.579
810.5182, 6096.660
811.0003, 5957.070
811.4824, 5815.644
811.9645, 5645.480
812.4467, 5499.688
812.9288, 5410.286
813.4109, 5350.153
813.8930, 5248.965
814.3751, 5092.096
814.8572, 4951.723
815.3394, 4850.510
815.8215, 4776.304
816.3036, 4705.515
816.7857, 4637.647
817.2678, 4573.752
817.7499, 4508.149
818.2321, 4450.470
818.7142, 4407.432
819.1963, 4377.950
819.6784, 4357.708
820.1605, 4353.741
820.6426, 4349.287
821.1248, 4339.514
821.6068, 4325.570
822.0889, 4313.281
822.5710, 4302.205
823.0532, 4298.455
823.5353, 4309.405
824.0174, 4328.140
824.4995, 4339.889
824.9816, 4346.518
825.4637, 4360.755
825.9459, 4394.920
826.4280, 4433.532
826.9101, 4466.606
827.3922, 4493.189
827.8743, 4528.975
828.3564, 4572.477
828.8386, 4627.978
829.3207, 4703.126
829.8028, 4793.913
830.2849, 4870.939
830.7670, 4933.896
831.2491, 5004.213
831.7313, 5104.473
832.2134, 5215.225
832.6955, 5310.817
833.1776, 5389.947
833.6597, 5481.980
834.1418, 5599.313
834.6240, 5731.959
835.1061, 5874.461
835.5882, 6028.395
836.0703, 6189.535
836.5524, 6357.349
837.0345, 6528.627
837.5167, 6702.736
837.9988, 6879.273
838.4809, 7054.178
838.9630, 7227.570
839.4451, 7418.525
839.9272, 7647.832
840.4094, 7894.816
840.8915, 8146.516
841.3736, 8404.296
841.8557, 8650.162
842.3378, 8869.876
842.8199, 9094.563
843.3021, 9345.694
843.7842, 9624.895
844.2663, 9909.717
844.7484, 10202.70
845.2305, 10481.25
845.7126, 10711.02
846.1948, 10920.25
846.6769, 11153.94
847.1590, 11423.48
847.6411, 11674.40
848.1232, 11888.70
848.6053, 12075.66
849.0875, 12242.42
849.5696, 12388.29
850.0517, 12521.14
850.5338, 12643.98
851.0159, 12747.03
851.4980, 12825.59
851.9802, 12876.58
852.4623, 12887.47
852.9444, 12856.29
853.4265, 12797.18
853.9086, 12697.94
854.3907, 12590.20
854.8729, 12509.36
855.3550, 12486.13
855.8371, 12408.77
856.3192, 12250.66
856.8013, 12063.07
857.2834, 11890.25
857.7656, 11732.31
858.2477, 11533.98
858.7298, 11289.47
859.2119, 11040.03
859.6940, 10835.20
860.1761, 10645.31
860.6583, 10430.48
861.1404, 10184.28
861.6225, 9925.253
862.1046, 9653.092
862.5867, 9377.022
863.0688, 9107.459
863.5510, 8835.869
864.0331, 8592.207
864.5152, 8378.325
864.9973, 8179.269
865.4794, 7977.223
865.9615, 7776.854
866.4437, 7587.327
866.9258, 7409.259
867.4079, 7247.199
867.8900, 7100.987
868.3721, 6972.257
868.8542, 6865.178
869.3364, 6790.028
869.8185, 6704.666
870.3006, 6604.300
870.7827, 6503.413
871.2648, 6414.428
871.7469, 6337.092
872.2291, 6263.384
872.7112, 6193.126
873.1933, 6129.748
873.6754, 6077.855
874.1575, 6033.718
874.6396, 5992.937
875.1218, 5955.631
875.6039, 5918.676
876.0860, 5879.302
876.5681, 5841.686
877.0502, 5808.294
877.5323, 5779.366
878.0145, 5751.801
878.4966, 5725.645
878.9787, 5699.907
879.4608, 5676.388
879.9429, 5651.676
880.4250, 5621.316
880.9072, 5584.944
881.3893, 5539.213
881.8714, 5477.456
882.3535, 5410.457
882.8356, 5346.223
883.3177, 5286.538
883.7999, 5214.940
884.2820, 5127.077
884.7641, 5040.106
885.2462, 4971.966
885.7283, 4913.102
886.2104, 4827.109
886.6926, 4714.720
887.1747, 4605.711
887.6568, 4516.503
888.1389, 4440.146
888.6210, 4376.012
889.1031, 4326.253
889.5853, 4259.616
890.0674, 4164.639
890.5495, 4074.875
891.0316, 4010.817
891.5137, 3966.899
891.9958, 3906.501
892.4780, 3830.471
892.9601, 3759.947
893.4422, 3716.779
893.9243, 3679.205
894.4064, 3627.062
894.8885, 3561.333
895.3707, 3497.799
895.8528, 3433.146
896.3349, 3380.385
896.8170, 3348.614
897.2991, 3332.946
897.7813, 3304.098
898.2634, 3262.250
898.7455, 3218.597
899.2276, 3173.951
899.7097, 3134.810
900.1918, 3116.675
900.6740, 3113.088
901.1561, 3099.817
901.6382, 3059.891
902.1203, 3018.151
902.6024, 2980.302
903.0845, 2946.711
903.5667, 2921.164
904.0488, 2904.651
904.5309, 2887.529
905.0130, 2866.177
905.4951, 2842.586
905.9772, 2818.483
906.4594, 2794.441
906.9415, 2771.849
907.4236, 2751.057
907.9057, 2731.612
908.3878, 2715.024
908.8699, 2699.007
909.3521, 2678.187
909.8342, 2650.000
910.3163, 2627.392
910.7984, 2614.948
911.2805, 2605.555
911.7626, 2583.920
912.2448, 2556.358
912.7269, 2538.870
913.2090, 2545.583
913.6911, 2549.090
914.1732, 2530.062
914.6553, 2502.761
915.1375, 2487.741
915.6196, 2490.925
916.1017, 2492.432
916.5838, 2491.994
917.0659, 2486.385
917.5480, 2465.541
918.0302, 2435.996
918.5123, 2418.722
918.9944, 2420.774
919.4765, 2423.353
919.9586, 2415.356
920.4407, 2401.645
920.9229, 2385.816
921.4050, 2363.910
921.8871, 2352.281
922.3692, 2354.253
922.8513, 2359.427
923.3334, 2359.874
923.8156, 2355.593
924.2977, 2345.242
924.7798, 2328.616
925.2619, 2311.048
925.7440, 2292.188
926.2261, 2277.141
926.7083, 2272.426
927.1904, 2281.360
927.6725, 2281.396
928.1546, 2267.581
928.6367, 2254.510
929.1188, 2252.738
929.6010, 2259.201
930.0831, 2256.447
930.5652, 2245.474
931.0473, 2236.335
931.5294, 2238.361
932.0115, 2242.324
932.4937, 2242.234
932.9758, 2237.925
933.4579, 2230.902
933.9400, 2217.701
934.4221, 2208.557
934.9042, 2207.154
935.3864, 2211.512
935.8685, 2216.720
936.3506, 2222.406
936.8327, 2226.789
937.3148, 2230.672
937.7969, 2231.147
938.2791, 2225.028
938.7612, 2214.047
939.2433, 2201.796
939.7254, 2184.944
940.2075, 2173.832
940.6896, 2170.467
941.1718, 2172.730
941.6539, 2179.159
942.1360, 2188.469
942.6181, 2193.405
943.1002, 2191.349
943.5823, 2186.532
944.0645, 2179.648
944.5466, 2173.066
945.0287, 2169.772
945.5108, 2173.746
945.9929, 2174.624
946.4750, 2170.132
946.9572, 2166.237
947.4393, 2172.639
947.9214, 2186.069
948.4035, 2187.006
948.8856, 2172.713
949.3677, 2158.469
949.8499, 2157.128
950.3320, 2159.885
950.8141, 2158.882
951.2962, 2151.896
951.7783, 2149.465
952.2604, 2154.943
952.7426, 2158.567
953.2247, 2153.228
953.7068, 2141.206
954.1889, 2133.043
954.6710, 2128.412
955.1531, 2124.425
955.6353, 2115.939
956.1174, 2110.424
956.5995, 2116.254
957.0816, 2131.142
957.5637, 2138.435
958.0458, 2136.195
958.5280, 2129.422
959.0101, 2117.287
959.4922, 2103.854
959.9743, 2101.188
960.4564, 2106.332
960.9385, 2108.126
961.4207, 2095.964
961.9028, 2087.515
962.3849, 2094.104
962.8670, 2110.408
963.3491, 2128.160
963.8312, 2153.272
964.3134, 2162.306
964.7955, 2149.664
965.2776, 2128.679
965.7597, 2113.200
966.2418, 2103.797
966.7239, 2103.706
967.2061, 2115.815
967.6882, 2124.943
968.1703, 2121.695
968.6524, 2112.699
969.1345, 2100.924
969.6166, 2082.931
970.0988, 2085.117
970.5809, 2113.231
971.0630, 2137.259
971.5451, 2128.515
972.0272, 2102.373
972.5093, 2086.116
972.9915, 2080.655
973.4736, 2082.833
973.9557, 2099.804
974.4378, 2115.363
974.9199, 2122.460
975.4020, 2122.206
975.8842, 2117.758
976.3663, 2108.382
976.8484, 2102.684
977.3305, 2106.624
977.8126, 2112.596
978.2947, 2105.635
978.7769, 2092.359
979.2590, 2087.704
979.7411, 2108.907
980.2232, 2123.586
980.7053, 2124.101
981.1874, 2116.705
981.6696, 2108.826
982.1517, 2100.407
982.6338, 2092.475
983.1159, 2085.169
983.5980, 2078.553
984.0801, 2071.770
984.5623, 2066.225
985.0444, 2063.005
985.5265, 2061.553
986.0085, 2066.284
986.4907, 2081.677
986.9728, 2097.033
987.4549, 2107.783
987.9370, 2113.471
988.4191, 2104.590
988.9012, 2082.348
989.3834, 2064.999
989.8655, 2070.226
990.3476, 2080.195
990.8297, 2079.878
991.3118, 2071.363
991.7939, 2071.360
992.2761, 2086.357
992.7582, 2097.161
993.2403, 2097.265
993.7224, 2092.143
994.2045, 2093.737
994.6866, 2100.270
995.1688, 2106.373
995.6509, 2112.128
996.1330, 2113.401
996.6151, 2101.661
997.0972, 2087.378
997.5793, 2084.744
998.0615, 2099.507
998.5436, 2104.920
999.0257, 2097.733
999.5078, 2089.758
999.9899, 2093.923
1000.472, 2105.245
1000.954, 2117.047
1001.436, 2128.458
1001.918, 2134.273
1002.401, 2127.091
1002.883, 2118.893
1003.365, 2116.647
1003.847, 2119.042
1004.329, 2110.813
1004.811, 2091.544
1005.293, 2078.496
1005.775, 2085.435
1006.257, 2097.961
1006.740, 2100.957
1007.222, 2097.265
1007.704, 2093.842
1008.186, 2092.976
1008.668, 2091.882
1009.150, 2089.787
1009.632, 2087.950
1010.114, 2091.166
1010.596, 2097.231
1011.079, 2090.329
1011.561, 2063.773
1012.043, 2045.210
1012.525, 2067.195
1013.007, 2099.605
1013.489, 2113.485
1013.971, 2102.024
1014.453, 2098.335
1014.936, 2104.885
1015.418, 2111.236
1015.900, 2111.035
1016.382, 2105.498
1016.864, 2094.115
1017.346, 2078.836
1017.828, 2069.373
1018.310, 2072.809
1018.792, 2080.385
1019.275, 2091.077
1019.757, 2102.802
1020.239, 2109.917
1020.721, 2112.215
1021.203, 2115.050
1021.685, 2119.557
1022.167, 2125.493
1022.649, 2138.347
1023.132, 2150.152
1023.614, 2148.250
1024.096, 2118.721
1024.578, 2102.802
1025.060, 2111.878
1025.542, 2121.229
1026.024, 2104.786
1026.506, 2069.497
1026.989, 2065.588
1027.471, 2091.843
1027.953, 2115.348
1028.435, 2108.412
1028.917, 2097.870
1029.399, 2106.398
1029.881, 2128.210
1030.363, 2125.468
1030.845, 2088.020
1031.328, 2065.770
1031.810, 2077.622
1032.292, 2101.507
1032.774, 2098.649
1033.256, 2081.705
1033.738, 2077.024
1034.220, 2103.415
1034.702, 2121.968
1035.184, 2117.832
1035.667, 2108.135
1036.149, 2108.346
1036.631, 2118.559
1037.113, 2114.229
1037.595, 2094.082
1038.077, 2080.117
1038.559, 2099.625
1039.041, 2124.583
1039.524, 2130.265
1040.006, 2116.653
1040.488, 2106.743
1040.970, 2103.250
1041.452, 2099.777
1041.934, 2093.375
1042.416, 2087.241
1042.898, 2089.197
1043.380, 2096.642
1043.863, 2102.114
1044.345, 2099.658
1044.827, 2101.251
1045.309, 2119.049
1045.791, 2137.711
1046.273, 2141.982
1046.755, 2130.253
1047.237, 2120.591
1047.719, 2113.635
1048.202, 2107.785
1048.684, 2099.184
1049.166, 2092.772
1049.648, 2096.330
1050.130, 2109.172
1050.612, 2116.537
1051.094, 2113.955
1051.576, 2111.677
1052.059, 2112.531
1052.541, 2115.490
1053.023, 2121.260
1053.505, 2127.277
1053.987, 2124.224
1054.469, 2102.021
1054.951, 2084.561
1055.433, 2084.910
1055.916, 2094.478
1056.398, 2105.258
1056.880, 2117.890
1057.362, 2128.805
1057.844, 2138.279
1058.326, 2142.934
1058.808, 2134.521
1059.290, 2123.614
1059.772, 2125.729
1060.255, 2138.969
1060.737, 2139.616
1061.219, 2113.978
1061.701, 2094.125
1062.183, 2087.846
1062.665, 2091.625
1063.147, 2103.105
1063.629, 2118.595
1064.111, 2125.299
1064.594, 2116.247
1065.076, 2106.868
1065.558, 2103.157
1066.040, 2104.012
1066.522, 2108.895
1067.004, 2118.733
1067.486, 2126.016
1067.968, 2130.695
1068.450, 2134.592
1068.933, 2140.252
1069.415, 2144.970
1069.897, 2145.719
1070.379, 2142.916
1070.861, 2138.381
1071.343, 2130.392
1071.825, 2124.982
1072.307, 2124.202
1072.790, 2124.883
1073.272, 2119.881
1073.754, 2112.027
1074.236, 2109.266
1074.718, 2113.779
1075.200, 2121.373
1075.682, 2136.601
1076.164, 2148.136
1076.646, 2147.535
1077.129, 2134.797
1077.611, 2124.682
1078.093, 2117.091
1078.575, 2114.107
1079.057, 2120.308
1079.539, 2128.721
1080.021, 2133.872
1080.503, 2136.394
1080.985, 2138.295
1081.468, 2141.593
1081.950, 2139.469
1082.432, 2129.242
1082.914, 2118.612
1083.396, 2118.766
1083.878, 2125.146
1084.360, 2128.441
1084.842, 2127.097
1085.325, 2127.110
1085.807, 2133.367
1086.289, 2138.679
1086.771, 2140.270
1087.253, 2138.381
1087.735, 2131.395
1088.217, 2120.556
1088.699, 2116.550
1089.182, 2129.955
1089.664, 2143.165
1090.146, 2142.845
1090.628, 2135.498
1091.110, 2128.896
1091.592, 2119.158
1092.074, 2129.331
1092.556, 2164.289
1093.038, 2196.784
1093.521, 2201.367
1094.003, 2188.998
1094.485, 2167.581
1094.967, 2139.706
1095.449, 2123.509
1095.931, 2130.719
1096.413, 2137.314
1096.895, 2136.418
1097.377, 2132.983
1097.860, 2139.164
1098.342, 2151.914
1098.824, 2162.151
1099.306, 2168.857
1099.788, 2168.491
1100.270, 2150.065
1100.752, 2131.642
1101.234, 2128.180
1101.717, 2140.134
1102.199, 2139.553
1102.681, 2126.719
1103.163, 2121.951
1103.645, 2150.077
1104.127, 2180.839
1104.609, 2189.759
1105.091, 2181.678
1105.573, 2169.471
1106.056, 2150.098
1106.538, 2139.682
1107.020, 2141.232
1107.502, 2148.662
1107.984, 2159.989
1108.466, 2169.986
1108.948, 2166.832
1109.430, 2148.197
1109.912, 2140.068
1110.395, 2157.517
1110.877, 2172.901
1111.359, 2175.667
1111.841, 2169.961
1112.323, 2166.370
1112.805, 2165.090
1113.287, 2167.708
1113.769, 2179.884
1114.252, 2186.488
1114.734, 2173.694
1115.216, 2157.467
1115.698, 2152.819
1116.180, 2160.662
1116.662, 2168.133
1117.144, 2175.129
1117.626, 2182.829
1118.109, 2199.067
1118.591, 2210.210
1119.073, 2197.868
1119.555, 2170.440
1120.037, 2161.619
1120.519, 2178.513
1121.001, 2189.829
1121.483, 2189.280
1121.965, 2184.944
1122.448, 2186.444
1122.930, 2190.896
1123.412, 2195.392
1123.894, 2200.248
1124.376, 2197.398
1124.858, 2177.924
1125.340, 2166.576
1125.822, 2178.116
1126.304, 2202.167
1126.787, 2211.542
1127.269, 2208.745
1127.751, 2200.344
1128.233, 2179.028
1128.715, 2168.327
1129.197, 2185.843
1129.679, 2207.292
1130.161, 2210.803
1130.644, 2197.409
1131.126, 2184.978
1131.608, 2174.352
1132.090, 2170.156
1132.572, 2182.791
1133.054, 2195.595
1133.536, 2194.944
1134.018, 2186.976
1134.500, 2190.928
1134.983, 2209.283
1135.465, 2215.027
1135.947, 2201.357
1136.429, 2184.420
1136.911, 2180.551
1137.393, 2182.622
1137.875, 2182.753
1138.357, 2179.417
1138.839, 2183.537
1139.322, 2198.564
1139.804, 2209.114
1140.286, 2207.375
1140.768, 2199.134
1141.250, 2188.935
1141.732, 2180.895
1142.214, 2183.816
1142.696, 2218.820
1143.179, 2228.969
1143.661, 2199.715
1144.143, 2165.644
1144.625, 2153.087
1145.107, 2158.266
1145.589, 2175.238
1146.071, 2200.416
1146.553, 2214.913
1147.036, 2197.000
1147.518, 2183.429
1148.000, 2187.070
1148.482, 2198.470
1148.964, 2199.651
1149.446, 2193.301
1149.928, 2199.780
1150.410, 2223.202
1150.892, 2241.967
1151.375, 2235.898
1151.857, 2226.081
1152.339, 2228.296
1152.821, 2238.962
1153.303, 2235.512
1153.785, 2218.178
1154.267, 2204.974
1154.749, 2201.132
1155.231, 2205.093
1155.714, 2224.789
1156.196, 2246.230
1156.678, 2250.812
1157.160, 2233.971
1157.642, 2225.782
1158.124, 2227.058
1158.606, 2230.600
1159.088, 2234.405
1159.571, 2235.912
1160.053, 2227.876
1160.535, 2215.698
1161.017, 2213.799
1161.499, 2234.417
1161.981, 2239.789
1162.463, 2222.908
1162.945, 2204.764
1163.427, 2212.513
1163.910, 2231.250
1164.392, 2238.268
1164.874, 2232.796
1165.356, 2224.735
1165.838, 2211.200
1166.320, 2204.279
1166.802, 2207.765
1167.284, 2217.167
1167.766, 2227.516
1168.249, 2237.079
1168.731, 2241.362
1169.213, 2238.480
1169.695, 2236.207
1170.177, 2237.977
1170.659, 2239.961
1171.141, 2241.727
1171.623, 2241.935
1172.106, 2232.319
1172.588, 2216.235
1173.070, 2206.494
1173.552, 2211.364
1174.034, 2217.792
1174.516, 2218.864
1174.998, 2221.090
1175.480, 2231.770
1175.963, 2250.097
1176.445, 2257.203
1176.927, 2254.049
1177.409, 2252.072
1177.891, 2265.667
1178.373, 2273.947
1178.855, 2256.900
1179.337, 2232.625
1179.819, 2232.130
1180.302, 2256.322
1180.784, 2260.641
1181.266, 2239.678
1181.748, 2219.543
1182.230, 2223.599
1182.712, 2233.238
1183.194, 2233.941
1183.676, 2228.481
1184.158, 2230.275
1184.641, 2239.968
1185.123, 2249.464
1185.605, 2257.247
1186.087, 2262.193
1186.569, 2258.822
1187.051, 2254.947
1187.533, 2260.391
1188.015, 2276.316
1188.498, 2283.477
1188.980, 2280.188
1189.462, 2280.678
1189.944, 2294.262
1190.426, 2309.020
1190.908, 2312.811
1191.390, 2307.833
1191.872, 2295.742
1192.354, 2271.071
1192.837, 2258.830
1193.319, 2261.075
1193.801, 2265.487
1194.283, 2263.803
1194.765, 2259.307
1195.247, 2253.541
1195.729, 2248.749
1196.211, 2251.414
1196.693, 2266.931
1197.176, 2280.534
1197.658, 2292.464
1198.140, 2298.253
1198.622, 2287.214
1199.104, 2270.683
1199.586, 2265.375
1200.068, 2271.129
1200.550, 2279.122
1201.033, 2291.243
1201.515, 2297.574
1201.997, 2294.847
1202.479, 2289.422
1202.961, 2290.893
1203.443, 2295.688
1203.925, 2296.776
1204.407, 2292.791
1204.890, 2294.733
1205.372, 2309.866
1205.854, 2319.208
1206.336, 2313.604
1206.818, 2303.024
1207.300, 2312.179
1207.782, 2330.235
1208.264, 2333.530
1208.746, 2309.913
1209.229, 2295.509
1209.711, 2297.137
1210.193, 2304.568
1210.675, 2315.813
1211.157, 2326.686
1211.639, 2325.280
1212.121, 2315.144
1212.603, 2305.470
1213.085, 2296.193
1213.568, 2293.590
1214.050, 2300.188
1214.532, 2309.441
1215.014, 2320.323
1215.496, 2328.982
1215.978, 2316.777
1216.460, 2290.099
1216.942, 2274.944
1217.425, 2293.425
1217.907, 2308.987
1218.389, 2315.278
1218.871, 2316.970
1219.353, 2320.680
1219.835, 2323.707
1220.317, 2314.307
1220.799, 2293.887
1221.281, 2282.293
1221.764, 2302.237
1222.246, 2311.455
1222.728, 2295.090
1223.210, 2271.414
1223.692, 2273.844
1224.174, 2292.518
1224.656, 2299.553
1225.138, 2290.460
1225.620, 2284.384
1226.103, 2290.521
1226.585, 2298.569
1227.067, 2305.732
1227.549, 2312.805
1228.031, 2324.636
1228.513, 2337.555
1228.995, 2339.969
1229.477, 2326.551
1229.960, 2316.564
1230.442, 2319.800
1230.924, 2322.017
1231.406, 2316.453
1231.888, 2305.931
1232.370, 2293.215
1232.852, 2282.512
1233.334, 2286.698
1233.816, 2320.213
1234.299, 2344.418
1234.781, 2348.731
1235.263, 2347.271
1235.745, 2348.317
1236.227, 2350.712
1236.709, 2352.153
1237.191, 2351.834
1237.673, 2347.305
1238.156, 2327.233
1238.638, 2319.189
1239.120, 2331.448
1239.602, 2346.509
1240.084, 2348.401
1240.566, 2340.938
1241.048, 2331.952
1241.530, 2322.628
1242.012, 2316.596
1242.495, 2314.356
1242.977, 2318.602
1243.459, 2333.323
1243.941, 2346.964
1244.423, 2341.053
1244.905, 2325.855
1245.387, 2325.278
1245.869, 2339.042
1246.351, 2352.967
1246.834, 2368.707
1247.316, 2373.010
1247.798, 2359.808
1248.280, 2342.546
1248.762, 2339.104
1249.244, 2345.019
1249.726, 2353.989
1250.208, 2365.188
1250.691, 2371.391
1251.173, 2367.242
1251.655, 2367.714
1252.137, 2378.937
1252.619, 2391.208
1253.101, 2386.258
1253.583, 2373.413
1254.065, 2369.065
1254.547, 2376.859
1255.030, 2377.552
1255.512, 2366.821
1255.994, 2356.900
1256.476, 2351.146
1256.958, 2350.227
1257.440, 2359.037
1257.922, 2371.617
1258.404, 2378.352
1258.886, 2375.025
1259.369, 2379.244
1259.851, 2394.538
1260.333, 2403.281
1260.815, 2394.230
1261.297, 2379.262
1261.779, 2373.880
1262.261, 2373.101
1262.743, 2368.439
1263.226, 2355.457
1263.708, 2355.827
1264.190, 2372.592
1264.672, 2381.917
1265.154, 2358.470
1265.636, 2333.645
1266.118, 2348.601
1266.600, 2380.853
1267.083, 2391.825
1267.565, 2372.450
1268.047, 2363.413
1268.529, 2365.319
1269.011, 2369.043
1269.493, 2370.400
1269.975, 2369.052
1270.457, 2359.875
1270.939, 2349.962
1271.422, 2352.147
1271.904, 2368.378
1272.386, 2381.319
1272.868, 2390.355
1273.350, 2392.639
1273.832, 2380.897
1274.314, 2367.239
1274.796, 2356.145
1275.278, 2349.759
1275.761, 2353.297
1276.243, 2366.293
1276.725, 2378.414
1277.207, 2388.708
1277.689, 2390.292
1278.171, 2366.474
1278.653, 2347.371
1279.135, 2348.465
1279.618, 2360.831
1280.100, 2371.204
1280.582, 2380.051
1281.064, 2390.681
1281.546, 2403.447
1282.028, 2410.545
1282.510, 2402.288
1282.992, 2394.500
1283.474, 2391.564
1283.957, 2392.649
1284.439, 2397.343
1284.921, 2404.616
1285.403, 2412.931
1285.885, 2422.183
1286.367, 2425.390
1286.849, 2409.620
1287.331, 2406.239
1287.813, 2430.617
1288.296, 2459.377
1288.778, 2444.425
1289.260, 2407.459
1289.742, 2388.455
1290.224, 2395.556
1290.706, 2399.858
1291.188, 2395.880
1291.670, 2395.853
1292.153, 2405.772
1292.635, 2416.881
1293.117, 2410.520
1293.599, 2400.338
1294.081, 2408.431
1294.563, 2441.838
1295.045, 2457.554
1295.527, 2453.321
1296.010, 2445.604
1296.492, 2440.082
##END=



