##NAMES=Keystoneite
##RRUFFID=R070661
##IDEAL CHEMISTRY=Mg_0.5_Ni^2+^Fe^3+^(Te^4+^O_3_)_3_&#183;4.5H_2_O
##LOCALITY=McAlpine mine, Moccasin, Tuolumne County, California, USA
##OWNER=RRUFF
##SOURCE=Michael Scott
##DESCRIPTION=Clusters of greenish yellow acicular microcrystals associated with quartz and pyrite.
##STATUS=The identification of this mineral has been confirmed by single-crystal X-ray diffraction.
##URL=rruff.info/R070661
92.63123, 2503.091
93.11334, 2707.788
93.59546, 2921.294
94.07758, 3148.221
94.55969, 3386.308
95.04180, 3641.497
95.52392, 3944.633
96.00603, 4297.225
96.48815, 4658.438
96.97027, 4977.764
97.45238, 5261.121
97.93450, 5555.722
98.41662, 5889.598
98.89874, 6251.560
99.38085, 6597.452
99.86297, 6923.797
100.3451, 7233.545
100.8272, 7529.538
101.3093, 7808.571
101.7914, 8075.443
102.2736, 8329.370
102.7557, 8560.447
103.2378, 8801.206
103.7199, 9043.534
104.2020, 9295.631
104.6841, 9597.545
105.1663, 9964.121
105.6484, 10365.60
106.1305, 10791.74
106.6126, 11290.56
107.0947, 11730.75
107.5768, 12083.41
108.0590, 12342.79
108.5411, 12548.62
109.0232, 12693.49
109.5053, 12787.22
109.9874, 12848.70
110.4695, 12857.56
110.9517, 12850.64
111.4338, 12840.21
111.9159, 12840.15
112.3980, 12818.80
112.8801, 12757.60
113.3622, 12666.15
113.8444, 12595.53
114.3265, 12564.08
114.8086, 12550.59
115.2907, 12540.87
115.7728, 12545.82
116.2549, 12541.34
116.7370, 12513.55
117.2192, 12459.01
117.7013, 12413.28
118.1834, 12388.90
118.6655, 12381.22
119.1476, 12383.59
119.6297, 12386.67
120.1119, 12403.15
120.5940, 12444.88
121.0761, 12523.37
121.5582, 12605.52
122.0403, 12671.05
122.5224, 12723.28
123.0046, 12773.25
123.4867, 12824.03
123.9688, 12877.16
124.4509, 12933.65
124.9330, 12982.78
125.4151, 13043.84
125.8973, 13145.46
126.3794, 13287.21
126.8615, 13434.83
127.3436, 13570.86
127.8257, 13690.60
128.3078, 13780.32
128.7900, 13842.77
129.2721, 13869.37
129.7542, 13835.60
130.2363, 13725.99
130.7184, 13534.99
131.2005, 13298.14
131.6827, 13062.46
132.1648, 12832.51
132.6469, 12600.78
133.1290, 12372.83
133.6111, 12193.17
134.0932, 12083.29
134.5754, 12011.13
135.0575, 11884.03
135.5396, 11691.29
136.0217, 11505.56
136.5038, 11396.80
136.9859, 11368.97
137.4681, 11343.99
137.9502, 11301.06
138.4323, 11241.40
138.9144, 11191.76
139.3965, 11155.69
139.8786, 11122.82
140.3608, 11079.29
140.8429, 11024.71
141.3250, 10960.44
141.8071, 10871.97
142.2892, 10730.52
142.7713, 10674.53
143.2535, 10737.64
143.7356, 10873.88
144.2177, 10951.47
144.6998, 10939.98
145.1819, 10914.48
145.6640, 10916.83
146.1461, 10955.06
146.6283, 11005.94
147.1104, 11075.30
147.5925, 11161.92
148.0746, 11230.73
148.5567, 11277.72
149.0388, 11310.26
149.5210, 11334.01
150.0031, 11343.00
150.4852, 11350.38
150.9673, 11356.87
151.4494, 11359.76
151.9315, 11370.86
152.4137, 11426.52
152.8958, 11483.34
153.3779, 11475.73
153.8600, 11332.48
154.3421, 11181.70
154.8242, 11068.63
155.3064, 11037.66
155.7885, 10976.63
156.2706, 10852.11
156.7527, 10684.43
157.2348, 10535.68
157.7169, 10434.99
158.1991, 10345.08
158.6812, 10245.81
159.1633, 10110.33
159.6454, 9987.567
160.1275, 9903.348
160.6096, 9853.473
161.0918, 9786.140
161.5739, 9657.495
162.0560, 9513.820
162.5381, 9399.831
163.0202, 9351.653
163.5023, 9317.687
163.9845, 9273.004
164.4666, 9213.190
164.9487, 9161.937
165.4308, 9134.380
165.9129, 9121.724
166.3951, 9109.884
166.8772, 9102.180
167.3593, 9087.536
167.8414, 9052.040
168.3235, 8980.781
168.8056, 8921.881
169.2878, 8919.180
169.7699, 8956.177
170.2520, 8984.787
170.7341, 8961.994
171.2162, 8923.072
171.6983, 8906.966
172.1805, 8941.858
172.6626, 8981.782
173.1447, 8977.328
173.6268, 8934.683
174.1089, 8903.893
174.5910, 8930.112
175.0732, 8990.427
175.5553, 9047.767
176.0374, 9093.820
176.5195, 9126.572
177.0016, 9136.144
177.4837, 9120.850
177.9659, 9109.267
178.4480, 9130.564
178.9301, 9176.826
179.4122, 9225.858
179.8943, 9271.884
180.3764, 9313.299
180.8586, 9343.201
181.3407, 9357.520
181.8228, 9375.229
182.3049, 9424.715
182.7870, 9501.319
183.2691, 9577.612
183.7513, 9633.150
184.2334, 9675.783
184.7155, 9729.849
185.1976, 9800.246
185.6797, 9879.352
186.1618, 9958.416
186.6440, 10037.79
187.1261, 10104.99
187.6082, 10143.19
188.0903, 10158.54
188.5724, 10182.21
189.0545, 10221.44
189.5366, 10272.48
190.0188, 10327.80
190.5009, 10386.92
190.9830, 10449.51
191.4651, 10518.77
191.9472, 10593.13
192.4293, 10658.64
192.9115, 10706.93
193.3936, 10741.24
193.8757, 10776.03
194.3578, 10810.96
194.8399, 10846.88
195.3220, 10880.87
195.8042, 10912.86
196.2863, 10957.92
196.7684, 11034.42
197.2505, 11139.11
197.7326, 11211.67
198.2147, 11241.08
198.6969, 11256.15
199.1790, 11311.85
199.6611, 11413.43
200.1432, 11518.57
200.6253, 11609.14
201.1074, 11683.68
201.5896, 11741.98
202.0717, 11779.50
202.5538, 11803.44
203.0359, 11829.69
203.5180, 11854.88
204.0001, 11893.10
204.4823, 11967.08
204.9644, 12087.96
205.4465, 12165.35
205.9286, 12175.20
206.4107, 12133.47
206.8928, 12119.50
207.3750, 12139.63
207.8571, 12173.27
208.3392, 12207.88
208.8213, 12248.56
209.3034, 12269.63
209.7855, 12259.40
210.2677, 12220.21
210.7498, 12200.88
211.2319, 12208.50
211.7140, 12224.80
212.1961, 12226.64
212.6782, 12205.67
213.1604, 12195.67
213.6425, 12212.29
214.1246, 12259.73
214.6067, 12280.50
215.0888, 12267.89
215.5709, 12235.39
216.0531, 12199.58
216.5352, 12153.27
217.0173, 12121.37
217.4994, 12117.04
217.9815, 12148.95
218.4636, 12170.48
218.9458, 12173.46
219.4279, 12171.26
219.9100, 12196.02
220.3921, 12265.28
220.8742, 12329.56
221.3563, 12362.37
221.8385, 12344.87
222.3206, 12349.67
222.8027, 12388.55
223.2848, 12448.54
223.7669, 12487.92
224.2490, 12498.34
224.7312, 12499.90
225.2133, 12502.35
225.6954, 12503.41
226.1775, 12509.32
226.6596, 12516.02
227.1417, 12526.52
227.6239, 12563.13
228.1060, 12640.49
228.5881, 12724.65
229.0702, 12791.05
229.5523, 12832.87
230.0344, 12871.32
230.5165, 12914.20
230.9987, 12960.33
231.4808, 12974.06
231.9629, 12933.86
232.4450, 12885.07
232.9271, 12869.77
233.4092, 12906.43
233.8914, 12940.78
234.3735, 12962.77
234.8556, 12971.87
235.3377, 12980.70
235.8198, 12994.27
236.3019, 13003.52
236.7841, 12994.54
237.2662, 12944.94
237.7483, 12917.55
238.2304, 12936.12
238.7125, 13012.65
239.1946, 13053.87
239.6768, 13039.89
240.1589, 13005.04
240.6410, 12996.06
241.1231, 13022.31
241.6052, 13060.02
242.0873, 13109.62
242.5695, 13183.90
243.0516, 13217.80
243.5337, 13191.41
244.0158, 13134.86
244.4979, 13105.10
244.9800, 13129.97
245.4622, 13137.65
245.9443, 13103.32
246.4264, 13020.50
246.9085, 12911.12
247.3906, 12761.92
247.8727, 12590.74
248.3549, 12437.31
248.8370, 12307.40
249.3191, 12185.29
249.8012, 12069.57
250.2833, 11968.65
250.7654, 11849.71
251.2476, 11704.91
251.7297, 11543.69
252.2118, 11393.48
252.6939, 11258.26
253.1760, 11127.74
253.6581, 10995.77
254.1403, 10855.09
254.6224, 10730.04
255.1045, 10630.51
255.5866, 10547.71
256.0687, 10448.16
256.5508, 10319.82
257.0330, 10193.16
257.5151, 10084.38
257.9972, 9998.722
258.4793, 9920.620
258.9614, 9852.780
259.4435, 9791.295
259.9257, 9714.374
260.4078, 9606.393
260.8899, 9506.066
261.3720, 9446.656
261.8541, 9450.063
262.3362, 9431.646
262.8184, 9375.051
263.3005, 9287.130
263.7826, 9211.347
264.2647, 9156.593
264.7468, 9098.981
265.2289, 9014.628
265.7111, 8889.876
266.1932, 8781.728
266.6753, 8701.310
267.1574, 8645.501
267.6395, 8583.469
268.1216, 8517.498
268.6038, 8442.341
269.0859, 8350.677
269.5680, 8236.236
270.0501, 8128.800
270.5322, 8033.908
271.0143, 7950.415
271.4965, 7875.192
271.9786, 7809.274
272.4607, 7749.839
272.9428, 7701.073
273.4249, 7669.891
273.9070, 7614.909
274.3892, 7514.245
274.8713, 7375.634
275.3534, 7284.714
275.8355, 7252.292
276.3176, 7241.761
276.7997, 7214.929
277.2819, 7168.599
277.7640, 7127.045
278.2461, 7100.894
278.7282, 7086.796
279.2103, 7054.409
279.6924, 6999.431
280.1746, 6938.100
280.6567, 6887.727
281.1388, 6848.951
281.6209, 6814.032
282.1030, 6783.112
282.5851, 6755.010
283.0673, 6720.530
283.5494, 6677.916
284.0315, 6635.349
284.5136, 6602.881
284.9957, 6580.629
285.4778, 6560.327
285.9600, 6538.626
286.4421, 6516.604
286.9242, 6500.477
287.4063, 6491.511
287.8884, 6482.672
288.3705, 6460.808
288.8527, 6427.135
289.3348, 6404.203
289.8169, 6401.992
290.2990, 6417.010
290.7811, 6442.251
291.2632, 6480.842
291.7453, 6509.748
292.2274, 6488.265
292.7096, 6424.771
293.1917, 6379.792
293.6738, 6395.254
294.1559, 6445.690
294.6380, 6449.312
295.1201, 6401.112
295.6023, 6346.522
296.0844, 6340.400
296.5665, 6372.353
297.0486, 6397.371
297.5307, 6391.556
298.0128, 6367.707
298.4950, 6352.397
298.9771, 6345.626
299.4592, 6345.640
299.9413, 6354.458
300.4234, 6369.387
300.9055, 6382.497
301.3877, 6388.397
301.8698, 6391.170
302.3519, 6399.692
302.8340, 6414.734
303.3161, 6424.348
303.7982, 6405.709
304.2804, 6373.335
304.7625, 6358.346
305.2446, 6387.345
305.7267, 6434.197
306.2088, 6469.586
306.6909, 6493.204
307.1731, 6509.718
307.6552, 6519.638
308.1373, 6525.341
308.6194, 6530.711
309.1015, 6533.642
309.5836, 6539.388
310.0658, 6556.440
310.5479, 6585.416
311.0300, 6608.982
311.5121, 6603.320
311.9942, 6588.316
312.4763, 6591.033
312.9585, 6640.744
313.4406, 6697.655
313.9227, 6737.231
314.4048, 6758.357
314.8869, 6771.124
315.3690, 6766.671
315.8512, 6761.197
316.3333, 6773.118
316.8154, 6827.718
317.2975, 6884.678
317.7796, 6923.610
318.2617, 6943.971
318.7439, 6964.615
319.2260, 6993.258
319.7081, 7025.284
320.1902, 7056.327
320.6723, 7082.742
321.1544, 7110.421
321.6366, 7141.530
322.1187, 7175.885
322.6008, 7211.722
323.0829, 7251.241
323.5650, 7290.841
324.0471, 7327.650
324.5293, 7350.662
325.0114, 7381.857
325.4935, 7429.235
325.9756, 7492.497
326.4577, 7552.263
326.9398, 7606.753
327.4220, 7657.205
327.9041, 7704.430
328.3862, 7746.552
328.8683, 7787.311
329.3504, 7829.159
329.8326, 7871.264
330.3147, 7904.576
330.7968, 7908.323
331.2789, 7920.050
331.7610, 7966.817
332.2431, 8095.262
332.7253, 8183.727
333.2074, 8202.172
333.6895, 8165.415
334.1716, 8172.552
334.6537, 8249.691
335.1358, 8337.015
335.6180, 8396.996
336.1001, 8416.121
336.5822, 8440.160
337.0643, 8473.042
337.5464, 8513.072
338.0285, 8556.550
338.5107, 8605.930
338.9928, 8652.539
339.4749, 8691.240
339.9570, 8720.438
340.4391, 8747.600
340.9212, 8771.805
341.4034, 8795.366
341.8855, 8828.029
342.3676, 8872.931
342.8497, 8911.625
343.3318, 8924.004
343.8139, 8910.223
344.2961, 8928.899
344.7782, 8992.724
345.2603, 9075.426
345.7424, 9128.570
346.2245, 9151.390
346.7066, 9171.638
347.1888, 9203.884
347.6709, 9246.063
348.1530, 9294.976
348.6351, 9354.505
349.1172, 9405.580
349.5993, 9407.532
350.0815, 9369.751
350.5636, 9350.735
351.0457, 9395.180
351.5278, 9475.439
352.0099, 9534.271
352.4920, 9567.294
352.9742, 9591.670
353.4563, 9627.478
353.9384, 9668.766
354.4205, 9699.271
354.9026, 9708.751
355.3847, 9706.214
355.8669, 9700.830
356.3490, 9693.000
356.8311, 9683.557
357.3132, 9672.931
357.7953, 9661.117
358.2774, 9648.413
358.7596, 9627.869
359.2417, 9611.531
359.7238, 9607.701
360.2059, 9616.294
360.6880, 9631.915
361.1701, 9648.863
361.6523, 9672.298
362.1344, 9707.604
362.6165, 9776.728
363.0986, 9837.928
363.5807, 9866.040
364.0628, 9865.569
364.5450, 9878.950
365.0271, 9937.678
365.5092, 10003.91
365.9913, 10051.55
366.4734, 10048.16
366.9555, 10055.86
367.4377, 10092.16
367.9198, 10150.75
368.4019, 10199.71
368.8840, 10232.38
369.3661, 10257.95
369.8482, 10280.68
370.3304, 10293.06
370.8125, 10313.22
371.2946, 10338.04
371.7767, 10371.05
372.2588, 10424.80
372.7409, 10523.60
373.2230, 10611.08
373.7051, 10662.86
374.1873, 10665.63
374.6694, 10666.12
375.1515, 10653.38
375.6336, 10646.06
376.1157, 10687.77
376.5978, 10801.86
377.0800, 10899.07
377.5621, 10937.33
378.0442, 10911.93
378.5263, 10909.67
379.0084, 10936.15
379.4905, 10973.11
379.9727, 10992.74
380.4548, 10993.21
380.9369, 11006.21
381.4190, 11052.38
381.9011, 11120.49
382.3832, 11154.72
382.8654, 11150.70
383.3475, 11140.66
383.8296, 11166.87
384.3117, 11218.62
384.7938, 11247.34
385.2759, 11229.15
385.7581, 11186.73
386.2402, 11156.24
386.7223, 11137.39
387.2044, 11130.87
387.6865, 11159.07
388.1686, 11196.38
388.6508, 11189.02
389.1329, 11087.68
389.6150, 10996.62
390.0971, 11059.77
390.5792, 11232.25
391.0613, 11352.37
391.5435, 11287.38
392.0256, 11152.58
392.5077, 11048.89
392.9898, 10998.24
393.4719, 10969.64
393.9540, 10960.96
394.4362, 10962.78
394.9183, 10956.12
395.4004, 10927.37
395.8825, 10893.56
396.3646, 10862.27
396.8467, 10835.16
397.3289, 10807.07
397.8110, 10775.54
398.2931, 10742.72
398.7752, 10710.95
399.2573, 10662.58
399.7394, 10633.30
400.2216, 10641.88
400.7037, 10694.70
401.1858, 10722.86
401.6679, 10718.11
402.1500, 10694.78
402.6321, 10664.93
403.1143, 10630.02
403.5964, 10584.89
404.0785, 10522.08
404.5606, 10446.32
405.0427, 10392.32
405.5248, 10366.75
406.0070, 10350.17
406.4891, 10329.17
406.9712, 10301.81
407.4533, 10283.91
407.9354, 10281.98
408.4175, 10285.61
408.8997, 10264.77
409.3818, 10216.96
409.8639, 10174.20
410.3460, 10161.72
410.8281, 10173.13
411.3102, 10166.52
411.7924, 10135.34
412.2745, 10101.79
412.7566, 10101.81
413.2387, 10127.82
413.7208, 10145.68
414.2029, 10123.04
414.6851, 10087.93
415.1672, 10089.44
415.6493, 10129.34
416.1314, 10173.97
416.6135, 10195.48
417.0956, 10203.74
417.5778, 10214.83
418.0599, 10239.54
418.5420, 10264.79
419.0241, 10278.12
419.5062, 10282.17
419.9883, 10293.48
420.4705, 10319.73
420.9526, 10356.98
421.4347, 10403.49
421.9168, 10476.05
422.3989, 10533.22
422.8810, 10545.08
423.3632, 10531.19
423.8453, 10545.86
424.3274, 10620.27
424.8095, 10707.19
425.2916, 10791.64
425.7737, 10880.25
426.2559, 10945.86
426.7380, 10966.77
427.2201, 10974.04
427.7022, 11012.84
428.1843, 11109.00
428.6664, 11196.65
429.1486, 11258.03
429.6307, 11292.28
430.1128, 11327.06
430.5949, 11359.21
431.0770, 11396.99
431.5591, 11449.89
432.0413, 11521.01
432.5234, 11591.61
433.0055, 11657.79
433.4876, 11721.65
433.9697, 11789.79
434.4518, 11861.74
434.9340, 11936.03
435.4161, 12015.37
435.8982, 12097.23
436.3803, 12168.07
436.8624, 12220.41
437.3445, 12277.11
437.8267, 12386.43
438.3088, 12531.42
438.7909, 12648.91
439.2730, 12669.33
439.7551, 12661.04
440.2372, 12717.36
440.7194, 12848.64
441.2015, 12976.83
441.6836, 13024.83
442.1657, 13040.89
442.6478, 13091.08
443.1299, 13226.58
443.6121, 13377.11
444.0942, 13498.37
444.5763, 13595.20
445.0584, 13727.52
445.5405, 13953.00
446.0226, 14195.44
446.5048, 14406.83
446.9869, 14553.16
447.4690, 14703.95
447.9511, 14857.80
448.4332, 15021.48
448.9153, 15213.17
449.3975, 15443.51
449.8796, 15688.52
450.3617, 15942.14
450.8438, 16213.98
451.3259, 16463.05
451.8080, 16680.81
452.2902, 16889.17
452.7723, 17110.63
453.2544, 17345.30
453.7365, 17600.30
454.2186, 17876.39
454.7007, 18172.85
455.1828, 18468.33
455.6649, 18764.35
456.1471, 19058.86
456.6292, 19328.69
457.1113, 19587.75
457.5934, 19902.41
458.0755, 20298.22
458.5576, 20725.30
459.0398, 21129.13
459.5219, 21506.82
460.0040, 21863.73
460.4861, 22151.16
460.9682, 22439.28
461.4503, 22834.27
461.9325, 23363.64
462.4146, 23870.42
462.8967, 24254.14
463.3788, 24548.34
463.8609, 24793.34
464.3430, 25038.80
464.8252, 25206.96
465.3073, 25254.68
465.7894, 25184.56
466.2715, 25049.13
466.7536, 24856.54
467.2357, 24607.86
467.7179, 24301.41
468.2000, 23874.01
468.6821, 23470.23
469.1642, 23097.75
469.6463, 22748.46
470.1284, 22416.66
470.6106, 22097.19
471.0927, 21799.85
471.5748, 21529.75
472.0569, 21289.66
472.5390, 21064.99
473.0211, 20866.33
473.5033, 20664.99
473.9854, 20420.31
474.4675, 20128.00
474.9496, 19850.52
475.4317, 19605.50
475.9138, 19384.93
476.3960, 19175.85
476.8781, 18978.15
477.3602, 18766.30
477.8423, 18509.72
478.3244, 18228.39
478.8065, 17967.33
479.2887, 17735.86
479.7708, 17519.77
480.2529, 17315.05
480.7350, 17115.50
481.2171, 16905.73
481.6992, 16671.41
482.1814, 16431.69
482.6635, 16192.21
483.1456, 15954.43
483.6277, 15740.02
484.1098, 15574.80
484.5919, 15428.10
485.0741, 15271.99
485.5562, 15114.91
486.0383, 14933.47
486.5204, 14703.15
487.0025, 14437.96
487.4846, 14205.18
487.9668, 14029.90
488.4489, 13862.32
488.9310, 13682.42
489.4131, 13483.60
489.8952, 13292.92
490.3773, 13112.82
490.8595, 12934.14
491.3416, 12740.08
491.8237, 12523.38
492.3058, 12331.76
492.7879, 12188.92
493.2701, 12077.25
493.7522, 11930.00
494.2343, 11744.21
494.7164, 11551.07
495.1985, 11366.49
495.6806, 11192.86
496.1628, 11033.51
496.6449, 10891.02
497.1270, 10755.78
497.6091, 10617.62
498.0912, 10476.02
498.5733, 10333.66
499.0555, 10184.85
499.5376, 10039.40
500.0197, 9903.027
500.5018, 9777.136
500.9839, 9654.961
501.4660, 9535.811
501.9482, 9418.640
502.4303, 9301.124
502.9124, 9170.552
503.3945, 9055.474
503.8766, 8977.486
504.3587, 8922.041
504.8409, 8826.649
505.3230, 8649.287
505.8051, 8487.148
506.2872, 8386.993
506.7693, 8368.132
507.2514, 8321.408
507.7336, 8238.978
508.2157, 8139.510
508.6978, 8042.894
509.1799, 7948.248
509.6620, 7863.369
510.1441, 7795.526
510.6263, 7733.672
511.1084, 7637.194
511.5905, 7507.166
512.0726, 7386.118
512.5547, 7310.288
513.0368, 7263.970
513.5189, 7220.117
514.0010, 7178.546
514.4832, 7124.739
514.9653, 7038.221
515.4474, 6931.671
515.9295, 6827.947
516.4116, 6741.143
516.8937, 6655.654
517.3759, 6556.529
517.8580, 6444.891
518.3401, 6356.486
518.8222, 6319.734
519.3043, 6297.350
519.7864, 6265.857
520.2686, 6217.646
520.7507, 6167.408
521.2328, 6118.634
521.7149, 6067.525
522.1970, 6004.641
522.6791, 5918.638
523.1613, 5845.748
523.6434, 5801.740
524.1255, 5785.526
524.6076, 5757.997
525.0897, 5718.001
525.5718, 5671.867
526.0540, 5621.676
526.5361, 5568.981
527.0182, 5525.766
527.5003, 5494.768
527.9824, 5473.830
528.4645, 5467.512
528.9467, 5470.982
529.4288, 5465.845
529.9109, 5436.268
530.3930, 5396.801
530.8751, 5359.932
531.3572, 5326.303
531.8394, 5295.099
532.3215, 5266.723
532.8036, 5239.939
533.2857, 5212.812
533.7678, 5176.122
534.2499, 5149.429
534.7321, 5146.769
535.2142, 5158.727
535.6963, 5153.820
536.1784, 5120.717
536.6605, 5083.331
537.1426, 5048.010
537.6248, 5014.082
538.1069, 4988.167
538.5890, 4971.733
539.0711, 4960.459
539.5532, 4950.057
540.0353, 4940.563
540.5175, 4931.563
540.9996, 4920.917
541.4817, 4913.227
541.9638, 4925.339
542.4459, 4954.105
542.9280, 4971.506
543.4102, 4944.770
543.8923, 4902.460
544.3744, 4893.405
544.8565, 4923.157
545.3386, 4947.616
545.8207, 4927.199
546.3029, 4887.130
546.7850, 4856.437
547.2671, 4850.803
547.7492, 4849.171
548.2313, 4846.077
548.7134, 4841.721
549.1956, 4836.743
549.6777, 4829.560
550.1598, 4823.378
550.6419, 4820.453
551.1240, 4822.812
551.6061, 4818.014
552.0883, 4800.312
552.5704, 4782.712
553.0525, 4780.651
553.5346, 4797.443
554.0167, 4807.691
554.4988, 4804.461
554.9810, 4795.029
555.4631, 4799.556
555.9452, 4817.132
556.4273, 4829.285
556.9094, 4820.357
557.3915, 4800.602
557.8737, 4785.481
558.3558, 4775.488
558.8379, 4775.614
559.3200, 4796.795
559.8021, 4828.145
560.2842, 4855.625
560.7664, 4878.992
561.2485, 4893.762
561.7306, 4891.521
562.2127, 4878.874
562.6948, 4873.589
563.1769, 4882.785
563.6591, 4896.462
564.1412, 4909.809
564.6233, 4921.485
565.1054, 4944.639
565.5875, 4988.583
566.0696, 5031.822
566.5518, 5054.515
567.0339, 5052.905
567.5160, 5050.702
567.9981, 5047.666
568.4802, 5049.780
568.9623, 5077.314
569.4445, 5127.427
569.9266, 5164.240
570.4087, 5154.317
570.8908, 5126.147
571.3729, 5132.891
571.8550, 5173.792
572.3372, 5216.929
572.8193, 5237.476
573.3014, 5249.597
573.7835, 5269.031
574.2656, 5307.534
574.7477, 5337.879
575.2299, 5338.322
575.7120, 5325.749
576.1941, 5329.750
576.6762, 5367.449
577.1583, 5408.733
577.6404, 5447.742
578.1226, 5484.748
578.6047, 5520.493
579.0868, 5554.632
579.5689, 5588.000
580.0510, 5620.118
580.5331, 5651.004
581.0153, 5681.762
581.4974, 5711.880
581.9795, 5744.468
582.4616, 5786.730
582.9437, 5836.407
583.4258, 5882.561
583.9080, 5918.222
584.3901, 5951.280
584.8722, 5989.713
585.3543, 6033.562
585.8364, 6082.966
586.3185, 6146.827
586.8007, 6210.748
587.2828, 6263.555
587.7649, 6301.071
588.2470, 6337.421
588.7291, 6368.455
589.2112, 6403.664
589.6934, 6453.732
590.1755, 6533.650
590.6576, 6605.920
591.1397, 6667.299
591.6218, 6718.547
592.1039, 6758.865
592.5861, 6781.660
593.0682, 6818.667
593.5503, 6892.837
594.0324, 6996.972
594.5145, 7074.659
594.9966, 7124.032
595.4788, 7170.051
595.9609, 7237.364
596.4430, 7317.810
596.9251, 7393.793
597.4072, 7459.203
597.8893, 7525.860
598.3715, 7606.636
598.8536, 7694.974
599.3357, 7776.798
599.8178, 7834.788
600.2999, 7898.146
600.7820, 7988.143
601.2642, 8103.296
601.7463, 8192.751
602.2284, 8219.649
602.7105, 8251.990
603.1926, 8326.019
603.6747, 8454.703
604.1569, 8577.906
604.6390, 8702.618
605.1211, 8809.878
605.6032, 8861.895
606.0853, 8859.782
606.5674, 8887.271
607.0496, 8975.300
607.5317, 9091.924
608.0138, 9186.138
608.4959, 9261.503
608.9780, 9338.567
609.4601, 9430.913
609.9423, 9529.036
610.4244, 9625.693
610.9065, 9720.667
611.3886, 9806.586
611.8707, 9867.476
612.3528, 9926.315
612.8350, 10001.16
613.3171, 10102.12
613.7992, 10209.48
614.2813, 10321.55
614.7634, 10440.32
615.2455, 10573.51
615.7277, 10739.35
616.2098, 10871.14
616.6919, 10934.64
617.1740, 10952.21
617.6561, 11035.78
618.1382, 11188.83
618.6204, 11339.63
619.1025, 11432.12
619.5846, 11487.67
620.0667, 11554.16
620.5488, 11636.70
621.0309, 11718.56
621.5131, 11778.97
621.9952, 11834.41
622.4773, 11907.17
622.9594, 12016.18
623.4415, 12127.10
623.9236, 12233.75
624.4058, 12334.41
624.8879, 12423.50
625.3700, 12476.27
625.8521, 12548.36
626.3342, 12666.61
626.8163, 12827.67
627.2985, 12939.68
627.7806, 12986.61
628.2627, 13027.59
628.7448, 13108.67
629.2269, 13225.68
629.7090, 13336.98
630.1912, 13442.27
630.6733, 13530.21
631.1554, 13574.33
631.6375, 13594.61
632.1196, 13635.68
632.6017, 13726.80
633.0839, 13826.37
633.5660, 13910.77
634.0481, 13981.85
634.5302, 14041.66
635.0123, 14082.29
635.4944, 14121.94
635.9766, 14169.51
636.4587, 14227.08
636.9408, 14275.87
637.4229, 14304.35
637.9050, 14339.63
638.3871, 14408.13
638.8693, 14518.83
639.3514, 14591.95
639.8335, 14616.30
640.3156, 14619.51
640.7977, 14635.36
641.2798, 14662.71
641.7620, 14696.29
642.2441, 14735.99
642.7262, 14778.93
643.2083, 14825.25
643.6904, 14872.56
644.1725, 14911.69
644.6547, 14923.48
645.1368, 14938.67
645.6189, 14984.60
646.1010, 15065.94
646.5831, 15119.31
647.0652, 15112.90
647.5474, 15093.36
648.0295, 15084.51
648.5116, 15085.31
648.9937, 15103.45
649.4758, 15150.80
649.9579, 15197.47
650.4401, 15192.77
650.9222, 15139.36
651.4043, 15103.36
651.8864, 15109.12
652.3685, 15131.30
652.8506, 15124.94
653.3328, 15098.18
653.8149, 15082.16
654.2970, 15111.27
654.7791, 15143.54
655.2612, 15147.01
655.7433, 15120.46
656.2255, 15089.95
656.7076, 15062.64
657.1897, 15034.47
657.6718, 15001.45
658.1539, 14952.83
658.6360, 14929.50
659.1182, 14951.12
659.6003, 14974.78
660.0824, 14937.41
660.5645, 14831.49
661.0466, 14756.40
661.5287, 14742.64
662.0108, 14751.84
662.4929, 14708.52
662.9750, 14624.50
663.4572, 14550.16
663.9393, 14519.42
664.4214, 14503.67
664.9035, 14478.75
665.3856, 14444.96
665.8677, 14408.62
666.3499, 14360.41
666.8320, 14319.46
667.3141, 14301.01
667.7962, 14322.12
668.2783, 14318.15
668.7604, 14275.67
669.2426, 14221.62
669.7247, 14181.89
670.2068, 14159.30
670.6889, 14132.96
671.1710, 14097.00
671.6531, 14063.37
672.1353, 14057.12
672.6174, 14073.28
673.0995, 14085.62
673.5816, 14077.03
674.0637, 14066.21
674.5458, 14078.84
675.0280, 14108.05
675.5101, 14127.16
675.9922, 14094.10
676.4743, 14072.54
676.9564, 14107.38
677.4385, 14213.11
677.9207, 14284.16
678.4028, 14287.39
678.8849, 14287.13
679.3670, 14330.31
679.8491, 14431.42
680.3312, 14503.95
680.8134, 14538.33
681.2955, 14558.55
681.7776, 14587.54
682.2597, 14627.65
682.7418, 14690.00
683.2239, 14785.62
683.7061, 14891.79
684.1882, 14987.75
684.6703, 15075.10
685.1524, 15162.76
685.6345, 15242.16
686.1166, 15332.88
686.5988, 15456.75
687.0809, 15609.25
687.5630, 15724.90
688.0451, 15758.89
688.5272, 15806.17
689.0093, 15918.15
689.4915, 16104.75
689.9736, 16235.10
690.4557, 16294.86
690.9378, 16356.14
691.4199, 16498.61
691.9020, 16704.10
692.3842, 16885.46
692.8663, 17022.84
693.3484, 17167.65
693.8305, 17388.89
694.3126, 17647.28
694.7947, 17881.69
695.2769, 18057.54
695.7590, 18219.76
696.2411, 18381.35
696.7232, 18539.71
697.2053, 18678.96
697.6874, 18760.83
698.1696, 18881.25
698.6517, 19078.89
699.1338, 19340.89
699.6159, 19559.71
700.0980, 19727.91
700.5801, 19909.14
701.0623, 20163.55
701.5444, 20461.67
702.0265, 20712.79
702.5086, 20912.54
702.9907, 21127.33
703.4728, 21419.42
703.9550, 21747.64
704.4371, 22073.29
704.9192, 22386.99
705.4013, 22701.19
705.8834, 23010.51
706.3655, 23325.88
706.8477, 23660.34
707.3298, 24003.60
707.8119, 24382.92
708.2940, 24807.02
708.7761, 25259.39
709.2582, 25702.96
709.7404, 26134.25
710.2225, 26567.33
710.7046, 27002.26
711.1867, 27449.59
711.6688, 27920.47
712.1509, 28413.71
712.6331, 28905.75
713.1152, 29382.01
713.5973, 29852.78
714.0794, 30328.00
714.5615, 30809.90
715.0436, 31296.72
715.5258, 31776.44
716.0079, 32268.24
716.4900, 32794.49
716.9721, 33384.55
717.4542, 33894.95
717.9363, 34311.05
718.4185, 34689.75
718.9006, 35100.77
719.3827, 35536.05
719.8648, 35957.64
720.3469, 36356.04
720.8290, 36744.29
721.3112, 37137.43
721.7933, 37527.64
722.2754, 37891.66
722.7575, 38251.80
723.2396, 38559.19
723.7217, 38769.57
724.2039, 38914.45
724.6860, 39091.60
725.1681, 39364.38
725.6502, 39580.81
726.1323, 39690.19
726.6144, 39706.29
727.0966, 39716.56
727.5787, 39720.89
728.0608, 39713.91
728.5429, 39712.85
729.0250, 39692.54
729.5071, 39592.46
729.9893, 39411.95
730.4714, 39186.71
730.9535, 38924.82
731.4356, 38644.11
731.9177, 38371.10
732.3998, 38139.70
732.8820, 37828.34
733.3641, 37356.84
733.8462, 36835.70
734.3283, 36349.36
734.8104, 35909.01
735.2925, 35491.36
735.7747, 35113.86
736.2568, 34723.76
736.7389, 34220.91
737.2210, 33623.33
737.7031, 33033.61
738.1852, 32490.82
738.6674, 31956.63
739.1495, 31363.60
739.6316, 30741.28
740.1137, 30159.50
740.5958, 29702.86
741.0779, 29234.58
741.5601, 28680.49
742.0422, 28051.88
742.5243, 27486.69
743.0064, 27016.74
743.4885, 26543.44
743.9706, 26015.88
744.4528, 25442.24
744.9349, 24909.39
745.4170, 24418.43
745.8991, 23945.06
746.3812, 23487.31
746.8633, 23038.69
747.3455, 22597.35
747.8276, 22162.04
748.3097, 21726.50
748.7918, 21260.53
749.2739, 20802.68
749.7560, 20390.59
750.2382, 20055.64
750.7203, 19717.28
751.2024, 19373.05
751.6845, 19028.64
752.1666, 18687.37
752.6487, 18350.19
753.1309, 18031.10
753.6130, 17738.43
754.0951, 17455.06
754.5772, 17157.85
755.0593, 16853.59
755.5414, 16556.42
756.0236, 16273.64
756.5057, 16000.66
756.9878, 15742.91
757.4699, 15492.63
757.9520, 15243.15
758.4341, 14981.97
758.9163, 14727.70
759.3984, 14489.19
759.8805, 14260.71
760.3626, 14023.28
760.8447, 13771.06
761.3268, 13525.69
761.8090, 13304.85
762.2911, 13097.88
762.7732, 12870.95
763.2553, 12628.62
763.7374, 12406.34
764.2195, 12251.44
764.7017, 12115.39
765.1838, 11949.80
765.6659, 11748.32
766.1480, 11557.89
766.6301, 11409.53
767.1122, 11262.21
767.5944, 11087.63
768.0765, 10874.48
768.5586, 10680.98
769.0407, 10509.54
769.5228, 10350.74
770.0049, 10198.57
770.4871, 10050.49
770.9692, 9890.807
771.4513, 9712.257
771.9334, 9540.730
772.4155, 9412.261
772.8976, 9301.118
773.3798, 9172.357
773.8619, 8993.563
774.3440, 8830.016
774.8261, 8715.820
775.3082, 8620.093
775.7903, 8495.194
776.2725, 8324.209
776.7546, 8167.165
777.2367, 8036.321
777.7188, 7923.088
778.2009, 7816.942
778.6830, 7716.305
779.1652, 7613.826
779.6473, 7509.777
780.1294, 7398.854
780.6115, 7257.076
781.0936, 7102.054
781.5757, 6989.265
782.0579, 7002.063
782.5400, 6995.896
783.0221, 6902.805
783.5042, 6739.417
783.9863, 6588.671
784.4684, 6446.244
784.9506, 6326.548
785.4327, 6241.461
785.9148, 6183.736
786.3969, 6124.440
786.8790, 6063.937
787.3611, 6000.960
787.8433, 5935.059
788.3254, 5866.258
788.8075, 5786.349
789.2896, 5695.460
789.7717, 5622.720
790.2538, 5601.767
790.7360, 5583.057
791.2181, 5532.824
791.7002, 5440.248
792.1823, 5375.719
792.6644, 5348.438
793.1465, 5328.949
793.6287, 5292.116
794.1108, 5241.001
794.5929, 5191.423
795.0750, 5143.891
795.5571, 5101.477
796.0392, 5070.680
796.5214, 5044.896
797.0035, 5016.823
797.4856, 4982.014
797.9677, 4950.660
798.4498, 4933.376
798.9319, 4915.642
799.4141, 4879.535
799.8962, 4813.402
800.3783, 4773.537
800.8604, 4770.456
801.3425, 4782.402
801.8246, 4780.655
802.3068, 4767.212
802.7889, 4748.458
803.2710, 4725.256
803.7531, 4699.554
804.2352, 4674.670
804.7173, 4647.895
805.1995, 4614.449
805.6816, 4553.288
806.1637, 4510.954
806.6458, 4502.130
807.1279, 4512.436
807.6100, 4513.740
808.0922, 4505.741
808.5743, 4489.866
809.0564, 4464.878
809.5385, 4434.125
810.0206, 4399.673
810.5027, 4364.117
810.9849, 4336.582
811.4670, 4325.102
811.9491, 4319.961
812.4312, 4319.734
812.9133, 4321.881
813.3954, 4316.903
813.8776, 4298.586
814.3597, 4279.370
814.8418, 4262.695
815.3239, 4247.672
815.8060, 4226.534
816.2881, 4198.809
816.7703, 4178.148
817.2524, 4177.368
817.7345, 4185.555
818.2166, 4188.124
818.6987, 4184.254
819.1808, 4169.578
819.6630, 4127.487
820.1451, 4086.667
820.6272, 4062.896
821.1093, 4057.404
821.5914, 4059.254
822.0735, 4079.539
822.5557, 4086.215
823.0378, 4056.461
823.5199, 3996.567
824.0020, 3961.844
824.4841, 3951.729
824.9662, 3945.243
825.4483, 3926.069
825.9304, 3902.594
826.4125, 3885.538
826.8947, 3875.433
827.3768, 3864.204
827.8589, 3843.531
828.3410, 3825.885
828.8231, 3820.734
829.3052, 3831.728
829.7874, 3824.390
830.2695, 3794.273
830.7516, 3760.399
831.2337, 3738.098
831.7158, 3723.852
832.1979, 3704.699
832.6801, 3679.896
833.1622, 3659.058
833.6443, 3656.001
834.1264, 3655.950
834.6085, 3645.370
835.0906, 3619.229
835.5728, 3594.951
836.0549, 3573.384
836.5370, 3554.522
837.0191, 3539.135
837.5012, 3527.697
837.9833, 3513.610
838.4655, 3496.275
838.9476, 3480.503
839.4297, 3473.332
839.9118, 3470.100
840.3939, 3462.822
840.8760, 3449.537
841.3582, 3436.143
841.8403, 3428.526
842.3224, 3420.051
842.8045, 3404.728
843.2866, 3379.803
843.7687, 3353.973
844.2509, 3324.153
844.7330, 3299.027
845.2151, 3293.145
845.6972, 3301.370
846.1793, 3295.573
846.6614, 3270.747
847.1436, 3242.711
847.6257, 3218.178
848.1078, 3201.366
848.5899, 3199.851
849.0720, 3229.188
849.5541, 3241.062
850.0363, 3219.132
850.5184, 3187.472
851.0005, 3168.270
851.4826, 3163.560
851.9647, 3151.941
852.4468, 3129.280
852.9290, 3109.384
853.4111, 3113.520
853.8932, 3130.157
854.3753, 3138.343
854.8574, 3132.550
855.3395, 3120.973
855.8217, 3105.756
856.3038, 3087.486
856.7859, 3066.157
857.2680, 3036.674
857.7501, 3016.455
858.2322, 3007.123
858.7144, 3004.801
859.1965, 3011.097
859.6786, 3021.915
860.1607, 3013.144
860.6428, 2976.127
861.1249, 2942.709
861.6071, 2947.397
862.0892, 2966.920
862.5713, 2974.406
863.0534, 2956.228
863.5355, 2940.339
864.0176, 2930.092
864.4998, 2922.106
864.9819, 2911.717
865.4640, 2898.477
865.9461, 2892.423
866.4282, 2896.405
866.9103, 2899.469
867.3925, 2882.405
867.8746, 2858.123
868.3567, 2846.469
868.8388, 2850.143
869.3209, 2871.714
869.8030, 2948.846
870.2852, 3021.910
870.7673, 3029.536
871.2494, 2939.369
871.7315, 2878.258
872.2136, 2854.824
872.6957, 2849.876
873.1779, 2850.004
873.6600, 2850.965
874.1421, 2837.182
874.6242, 2803.280
875.1063, 2770.609
875.5884, 2748.842
876.0706, 2739.078
876.5527, 2744.062
877.0348, 2783.260
877.5169, 2796.456
877.9990, 2770.041
878.4811, 2737.159
878.9633, 2733.041
879.4454, 2754.863
879.9275, 2766.799
880.4096, 2765.179
880.8917, 2758.752
881.3738, 2753.675
881.8560, 2749.344
882.3381, 2745.872
882.8202, 2744.966
883.3023, 2738.979
883.7844, 2718.812
884.2665, 2700.120
884.7487, 2694.191
885.2308, 2702.562
885.7129, 2714.441
886.1950, 2731.591
886.6771, 2739.914
887.1592, 2711.842
887.6414, 2672.013
888.1235, 2664.200
888.6056, 2697.177
889.0877, 2723.253
889.5698, 2712.702
890.0519, 2694.367
890.5341, 2687.663
891.0162, 2695.069
891.4983, 2701.798
891.9804, 2708.824
892.4625, 2711.833
892.9446, 2705.931
893.4268, 2693.668
893.9089, 2677.907
894.3910, 2659.030
894.8731, 2650.139
895.3552, 2670.257
895.8373, 2694.126
896.3195, 2704.638
896.8016, 2698.718
897.2837, 2692.261
897.7658, 2686.069
898.2479, 2677.458
898.7300, 2661.552
899.2122, 2641.524
899.6943, 2634.674
900.1764, 2640.231
900.6585, 2647.085
901.1406, 2648.848
901.6227, 2648.005
902.1049, 2644.913
902.5870, 2639.862
903.0691, 2639.184
903.5512, 2648.873
904.0333, 2654.213
904.5154, 2648.186
904.9976, 2633.209
905.4797, 2622.122
905.9618, 2614.831
906.4439, 2610.203
906.9260, 2606.166
907.4081, 2605.497
907.8903, 2615.098
908.3724, 2631.464
908.8545, 2640.245
909.3366, 2633.130
909.8187, 2622.501
910.3008, 2609.603
910.7830, 2595.817
911.2651, 2584.365
911.7472, 2575.225
912.2293, 2574.322
912.7114, 2589.997
913.1935, 2607.854
913.6757, 2605.659
914.1578, 2590.947
914.6399, 2580.955
915.1220, 2590.573
915.6041, 2594.857
916.0862, 2582.472
916.5684, 2563.812
917.0505, 2561.372
917.5326, 2577.611
918.0147, 2583.926
918.4968, 2570.176
918.9789, 2552.736
919.4611, 2556.841
919.9432, 2573.156
920.4253, 2584.106
920.9074, 2582.167
921.3895, 2577.089
921.8716, 2567.906
922.3538, 2559.286
922.8359, 2557.436
923.3180, 2564.598
923.8001, 2565.701
924.2822, 2556.850
924.7643, 2550.860
925.2465, 2576.954
925.7286, 2613.390
926.2107, 2613.998
926.6928, 2559.108
927.1749, 2514.237
927.6570, 2513.853
928.1392, 2531.253
928.6213, 2544.893
929.1034, 2554.940
929.5855, 2559.757
930.0676, 2558.759
930.5497, 2554.755
931.0319, 2546.292
931.5140, 2537.698
931.9961, 2542.585
932.4782, 2561.676
932.9603, 2570.114
933.4424, 2537.436
933.9246, 2505.490
934.4067, 2504.927
934.8888, 2536.305
935.3709, 2547.392
935.8530, 2533.440
936.3351, 2517.522
936.8173, 2513.617
937.2994, 2516.708
937.7815, 2513.941
938.2636, 2506.904
938.7457, 2503.621
939.2278, 2514.563
939.7100, 2524.072
940.1921, 2519.451
940.6742, 2506.167
941.1563, 2509.100
941.6384, 2535.626
942.1205, 2550.100
942.6027, 2537.902
943.0848, 2512.159
943.5669, 2498.052
944.0490, 2492.180
944.5311, 2485.286
945.0132, 2464.484
945.4954, 2452.416
945.9775, 2467.411
946.4596, 2494.042
946.9417, 2504.974
947.4238, 2494.630
947.9059, 2487.953
948.3881, 2489.182
948.8702, 2492.058
949.3523, 2486.289
949.8344, 2475.889
950.3165, 2470.572
950.7986, 2474.783
951.2808, 2476.449
951.7629, 2466.013
952.2450, 2453.245
952.7271, 2447.119
953.2092, 2449.985
953.6913, 2450.944
954.1735, 2449.301
954.6556, 2448.601
955.1377, 2454.052
955.6198, 2461.974
956.1019, 2465.724
956.5840, 2464.770
957.0662, 2460.516
957.5483, 2447.068
958.0304, 2436.631
958.5125, 2438.485
958.9946, 2451.564
959.4767, 2453.504
959.9589, 2442.142
960.4410, 2433.771
960.9231, 2443.492
961.4052, 2457.649
961.8873, 2445.781
962.3694, 2416.544
962.8516, 2399.880
963.3337, 2420.414
963.8158, 2442.596
964.2979, 2457.452
964.7800, 2465.062
965.2621, 2463.635
965.7443, 2451.810
966.2264, 2442.909
966.7085, 2440.389
967.1906, 2441.428
967.6727, 2445.034
968.1548, 2448.800
968.6370, 2448.278
969.1191, 2436.900
969.6012, 2430.253
970.0833, 2438.016
970.5654, 2446.297
971.0475, 2439.030
971.5297, 2415.054
972.0118, 2402.029
972.4939, 2402.363
972.9760, 2410.152
973.4581, 2426.670
973.9402, 2443.608
974.4224, 2452.398
974.9045, 2451.793
975.3866, 2442.459
975.8687, 2412.743
976.3508, 2389.460
976.8329, 2388.832
977.3151, 2407.039
977.7972, 2406.941
978.2793, 2389.753
978.7614, 2374.826
979.2435, 2371.242
979.7256, 2377.040
980.2078, 2399.316
980.6899, 2431.208
981.1720, 2444.637
981.6541, 2419.534
982.1362, 2405.157
982.6183, 2414.636
983.1005, 2435.931
983.5826, 2445.873
984.0647, 2445.357
984.5468, 2436.685
985.0289, 2415.389
985.5110, 2398.356
985.9932, 2404.643
986.4753, 2418.542
986.9574, 2418.932
987.4395, 2392.313
987.9216, 2380.630
988.4037, 2387.139
988.8859, 2401.257
989.3680, 2407.020
989.8500, 2413.212
990.3322, 2457.092
990.8143, 2542.166
991.2964, 2592.978
991.7785, 2534.870
992.2606, 2459.588
992.7427, 2420.525
993.2249, 2416.638
993.7070, 2417.799
994.1891, 2425.689
994.6712, 2428.574
995.1533, 2417.348
995.6354, 2400.224
996.1176, 2386.737
996.5997, 2378.836
997.0818, 2381.973
997.5639, 2415.932
998.0460, 2439.130
998.5281, 2435.604
999.0103, 2419.614
999.4924, 2414.995
999.9745, 2421.902
1000.457, 2432.558
1000.939, 2447.719
1001.421, 2457.664
1001.903, 2446.224
1002.385, 2426.759
1002.867, 2414.747
1003.349, 2413.296
1003.831, 2420.985
1004.314, 2446.953
1004.796, 2466.725
1005.278, 2456.825
1005.760, 2423.086
1006.242, 2408.304
1006.724, 2412.193
1007.206, 2421.412
1007.688, 2429.677
1008.170, 2437.934
1008.653, 2451.951
1009.135, 2468.173
1009.617, 2463.805
1010.099, 2428.462
1010.581, 2402.608
1011.063, 2398.522
1011.545, 2408.984
1012.027, 2428.079
1012.510, 2450.570
1012.992, 2462.171
1013.474, 2451.203
1013.956, 2440.444
1014.438, 2440.096
1014.920, 2442.714
1015.402, 2440.430
1015.884, 2432.370
1016.366, 2424.994
1016.849, 2418.106
1017.331, 2415.005
1017.813, 2422.881
1018.295, 2433.719
1018.777, 2434.888
1019.259, 2425.203
1019.741, 2426.916
1020.223, 2460.603
1020.706, 2483.093
1021.188, 2474.370
1021.670, 2444.017
1022.152, 2430.849
1022.634, 2433.122
1023.116, 2438.296
1023.598, 2443.805
1024.080, 2446.553
1024.563, 2441.587
1025.045, 2433.325
1025.527, 2429.999
1026.009, 2432.932
1026.491, 2438.961
1026.973, 2449.388
1027.455, 2458.479
1027.937, 2458.272
1028.419, 2451.810
1028.901, 2443.935
1029.384, 2434.811
1029.866, 2430.686
1030.348, 2440.805
1030.830, 2450.215
1031.312, 2449.073
1031.794, 2438.556
1032.276, 2440.206
1032.758, 2454.176
1033.241, 2468.490
1033.723, 2477.568
1034.205, 2482.637
1034.687, 2486.514
1035.169, 2487.340
1035.651, 2480.038
1036.133, 2451.849
1036.615, 2434.507
1037.098, 2433.274
1037.580, 2441.559
1038.062, 2453.095
1038.544, 2466.341
1039.026, 2476.680
1039.508, 2484.181
1039.990, 2483.327
1040.472, 2457.611
1040.954, 2432.967
1041.437, 2429.731
1041.919, 2448.799
1042.401, 2467.563
1042.883, 2486.334
1043.365, 2501.317
1043.847, 2514.288
1044.329, 2519.156
1044.811, 2499.430
1045.293, 2464.137
1045.776, 2440.210
1046.258, 2445.875
1046.740, 2450.031
1047.222, 2444.768
1047.704, 2439.175
1048.186, 2455.359
1048.668, 2486.939
1049.150, 2492.455
1049.633, 2459.962
1050.115, 2431.901
1050.597, 2445.571
1051.079, 2472.743
1051.561, 2489.527
1052.043, 2493.766
1052.525, 2498.224
1053.007, 2502.830
1053.490, 2507.768
1053.972, 2515.988
1054.454, 2522.801
1054.936, 2517.275
1055.418, 2503.189
1055.900, 2492.261
1056.382, 2490.529
1056.864, 2489.918
1057.346, 2486.546
1057.828, 2485.651
1058.311, 2498.646
1058.793, 2523.379
1059.275, 2542.067
1059.757, 2551.858
1060.239, 2554.317
1060.721, 2547.151
1061.203, 2535.597
1061.685, 2516.541
1062.168, 2486.114
1062.650, 2507.790
1063.132, 2597.745
1063.614, 2667.794
1064.096, 2658.533
1064.578, 2609.938
1065.060, 2591.339
1065.542, 2593.406
1066.025, 2591.193
1066.507, 2561.932
1066.989, 2546.951
1067.471, 2559.512
1067.953, 2581.076
1068.435, 2585.986
1068.917, 2576.312
1069.399, 2566.730
1069.881, 2558.917
1070.364, 2554.378
1070.846, 2560.779
1071.328, 2565.744
1071.810, 2556.137
1072.292, 2531.981
1072.774, 2517.651
1073.256, 2512.600
1073.738, 2521.989
1074.220, 2557.249
1074.703, 2597.433
1075.185, 2607.506
1075.667, 2597.118
1076.149, 2586.279
1076.631, 2575.293
1077.113, 2574.005
1077.595, 2589.805
1078.077, 2606.009
1078.559, 2598.987
1079.042, 2575.248
1079.524, 2575.293
1080.006, 2601.854
1080.488, 2623.307
1080.970, 2612.230
1081.452, 2595.610
1081.934, 2589.958
1082.416, 2593.454
1082.899, 2597.120
1083.381, 2601.589
1083.863, 2600.611
1084.345, 2589.272
1084.827, 2577.552
1085.309, 2583.103
1085.791, 2594.782
1086.273, 2595.336
1086.755, 2572.119
1087.238, 2554.678
1087.720, 2545.005
1088.202, 2539.022
1088.684, 2533.972
1089.166, 2529.920
1089.648, 2526.325
1090.130, 2523.467
1090.612, 2523.741
1091.094, 2535.135
1091.577, 2542.060
1092.059, 2534.603
1092.541, 2520.182
1093.023, 2515.443
1093.505, 2520.235
1093.987, 2526.329
1094.469, 2533.287
1094.951, 2535.569
1095.434, 2518.251
1095.916, 2499.774
1096.398, 2502.910
1096.880, 2536.039
1097.362, 2550.745
1097.844, 2541.743
1098.326, 2534.138
1098.808, 2550.124
1099.291, 2571.206
1099.773, 2550.359
1100.255, 2505.795
1100.737, 2487.260
1101.219, 2549.700
1101.701, 2587.116
1102.183, 2577.637
1102.665, 2547.838
1103.147, 2527.940
1103.630, 2517.097
1104.112, 2511.389
1104.594, 2510.443
1105.076, 2511.754
1105.558, 2517.646
1106.040, 2521.664
1106.522, 2518.115
1107.004, 2509.078
1107.486, 2505.577
1107.969, 2507.762
1108.451, 2511.469
1108.933, 2515.007
1109.415, 2520.038
1109.897, 2531.042
1110.379, 2543.493
1110.861, 2550.771
1111.343, 2550.990
1111.826, 2548.152
1112.308, 2541.174
1112.790, 2534.418
1113.272, 2532.259
1113.754, 2532.153
1114.236, 2527.814
1114.718, 2520.551
1115.200, 2516.744
1115.682, 2522.219
1116.165, 2526.987
1116.647, 2528.617
1117.129, 2528.853
1117.611, 2532.916
1118.093, 2538.666
1118.575, 2533.740
1119.057, 2514.273
1119.539, 2499.487
1120.021, 2500.263
1120.504, 2511.125
1120.986, 2534.146
1121.468, 2566.631
1121.950, 2568.312
1122.432, 2538.965
1122.914, 2515.799
1123.396, 2517.887
1123.878, 2529.349
1124.361, 2538.336
1124.843, 2546.006
1125.325, 2555.025
1125.807, 2571.540
1126.289, 2571.491
1126.771, 2550.671
1127.253, 2529.357
1127.735, 2525.326
1128.218, 2531.648
1128.700, 2542.784
1129.182, 2556.081
1129.664, 2558.583
1130.146, 2531.803
1130.628, 2517.081
1131.110, 2524.948
1131.592, 2544.006
1132.074, 2559.116
1132.557, 2568.742
1133.039, 2564.443
1133.521, 2541.015
1134.003, 2527.299
1134.485, 2548.965
1134.967, 2571.165
1135.449, 2576.772
1135.931, 2567.159
1136.413, 2542.987
1136.896, 2508.171
1137.378, 2493.356
1137.860, 2530.105
1138.342, 2566.471
1138.824, 2568.985
1139.306, 2552.947
1139.788, 2536.923
1140.270, 2517.102
1140.753, 2525.813
1141.235, 2567.005
1141.717, 2598.532
1142.199, 2575.710
1142.681, 2536.723
1143.163, 2509.394
1143.645, 2497.432
1144.127, 2512.015
1144.609, 2569.159
1145.092, 2600.019
1145.574, 2586.216
1146.056, 2557.378
1146.538, 2550.673
1147.020, 2556.538
1147.502, 2559.854
1147.984, 2556.981
1148.466, 2562.172
1148.948, 2582.361
1149.431, 2601.082
1149.913, 2612.158
1150.395, 2616.621
1150.877, 2613.934
1151.359, 2606.694
1151.841, 2601.962
1152.323, 2601.470
1152.805, 2605.363
1153.288, 2618.084
1153.770, 2630.333
1154.252, 2633.731
1154.734, 2629.380
1155.216, 2624.899
1155.698, 2621.209
1156.180, 2625.910
1156.662, 2654.348
1157.145, 2680.423
1157.627, 2691.845
1158.109, 2692.385
1158.591, 2684.249
1159.073, 2667.562
1159.555, 2657.364
1160.037, 2656.202
1160.519, 2656.312
1161.001, 2647.314
1161.484, 2640.325
1161.966, 2649.476
1162.448, 2671.474
1162.930, 2676.073
1163.412, 2661.559
1163.894, 2645.158
1164.376, 2633.478
1164.858, 2619.516
1165.340, 2588.035
1165.823, 2553.090
1166.305, 2534.264
1166.787, 2538.172
1167.269, 2542.222
1167.751, 2545.947
1168.233, 2551.476
1168.715, 2562.730
1169.197, 2574.781
1169.680, 2581.935
1170.162, 2583.374
1170.644, 2576.588
1171.126, 2549.744
1171.608, 2534.627
1172.090, 2537.693
1172.572, 2541.073
1173.054, 2517.975
1173.536, 2485.356
1174.019, 2483.367
1174.501, 2509.703
1174.983, 2526.546
1175.465, 2503.067
1175.947, 2493.997
1176.429, 2516.292
1176.911, 2550.187
1177.393, 2558.688
1177.875, 2550.589
1178.358, 2553.402
1178.840, 2574.784
1179.322, 2582.683
1179.804, 2544.830
1180.286, 2511.208
1180.768, 2505.316
1181.250, 2518.765
1181.732, 2524.615
1182.215, 2523.324
1182.697, 2515.912
1183.179, 2496.401
1183.661, 2484.405
1184.143, 2499.301
1184.625, 2516.767
1185.107, 2516.149
1185.589, 2498.548
1186.072, 2496.771
1186.554, 2509.147
1187.036, 2519.547
1187.518, 2513.261
1188.000, 2508.275
1188.482, 2519.306
1188.964, 2534.398
1189.446, 2535.925
1189.928, 2523.121
1190.411, 2513.205
1190.893, 2507.326
1191.375, 2502.431
1191.857, 2490.345
1192.339, 2483.713
1192.821, 2500.377
1193.303, 2529.104
1193.785, 2530.564
1194.267, 2501.350
1194.750, 2489.802
1195.232, 2508.335
1195.714, 2527.999
1196.196, 2518.476
1196.678, 2499.923
1197.160, 2490.837
1197.642, 2492.002
1198.124, 2490.317
1198.607, 2484.751
1199.089, 2486.057
1199.571, 2500.602
1200.053, 2517.695
1200.535, 2529.768
1201.017, 2535.064
1201.499, 2529.009
1201.981, 2507.699
1202.464, 2493.927
1202.946, 2488.406
1203.428, 2487.126
1203.910, 2492.134
1204.392, 2496.033
1204.874, 2486.674
1205.356, 2470.456
1205.838, 2460.380
1206.320, 2457.651
1206.802, 2464.501
1207.285, 2484.309
1207.767, 2498.031
1208.249, 2473.586
1208.731, 2444.713
1209.213, 2466.034
1209.695, 2523.778
1210.177, 2551.667
1210.659, 2527.695
1211.142, 2517.964
1211.624, 2535.184
1212.106, 2552.326
1212.588, 2531.672
1213.070, 2495.852
1213.552, 2474.024
1214.034, 2468.631
1214.516, 2470.729
1214.999, 2479.064
1215.481, 2495.617
1215.963, 2526.299
1216.445, 2553.229
1216.927, 2539.792
1217.409, 2509.615
1217.891, 2499.136
1218.373, 2518.375
1218.855, 2529.588
1219.338, 2527.293
1219.820, 2524.052
1220.302, 2524.532
1220.784, 2527.853
1221.266, 2537.184
1221.748, 2546.762
1222.230, 2544.063
1222.712, 2513.828
1223.194, 2506.613
1223.677, 2534.202
1224.159, 2558.655
1224.641, 2552.632
1225.123, 2530.433
1225.605, 2513.975
1226.087, 2503.452
1226.569, 2499.321
1227.051, 2506.858
1227.534, 2512.829
1228.016, 2515.734
1228.498, 2520.129
1228.980, 2539.588
1229.462, 2558.230
1229.944, 2533.965
1230.426, 2480.500
1230.908, 2458.092
1231.391, 2510.140
1231.873, 2545.749
1232.355, 2554.755
1232.837, 2547.731
1233.319, 2526.245
1233.801, 2502.311
1234.283, 2498.129
1234.765, 2513.649
1235.247, 2527.418
1235.729, 2538.118
1236.212, 2541.845
1236.694, 2537.129
1237.176, 2526.675
1237.658, 2508.449
1238.140, 2489.576
1238.622, 2481.846
1239.104, 2487.215
1239.586, 2498.149
1240.068, 2516.650
1240.551, 2531.786
1241.033, 2540.284
1241.515, 2542.888
1241.997, 2538.824
1242.479, 2530.670
1242.961, 2520.855
1243.443, 2507.742
1243.925, 2506.608
1244.408, 2523.768
1244.890, 2533.629
1245.372, 2517.738
1245.854, 2496.542
1246.336, 2507.894
1246.818, 2535.919
1247.300, 2554.446
1247.782, 2556.831
1248.265, 2548.879
1248.747, 2526.578
1249.229, 2509.526
1249.711, 2515.933
1250.193, 2530.533
1250.675, 2531.314
1251.157, 2524.252
1251.639, 2522.424
1252.121, 2533.212
1252.604, 2533.200
1253.086, 2518.867
1253.568, 2508.800
1254.050, 2524.351
1254.532, 2546.459
1255.014, 2558.325
1255.496, 2558.861
1255.978, 2543.837
1256.460, 2503.591
1256.943, 2489.292
1257.425, 2509.102
1257.907, 2527.447
1258.389, 2497.968
1258.871, 2463.697
1259.353, 2473.438
1259.835, 2516.243
1260.317, 2533.757
1260.800, 2520.185
1261.282, 2510.379
1261.764, 2509.451
1262.246, 2512.054
1262.728, 2511.560
1263.210, 2513.673
1263.692, 2528.751
1264.174, 2551.585
1264.656, 2554.370
1265.139, 2535.716
1265.621, 2524.610
1266.103, 2527.355
1266.585, 2538.229
1267.067, 2561.353
1267.549, 2582.979
1268.031, 2589.642
1268.513, 2584.817
1268.995, 2580.980
1269.478, 2578.895
1269.960, 2598.051
1270.442, 2655.472
1270.924, 2694.261
1271.406, 2656.515
1271.888, 2600.999
1272.370, 2568.015
1272.852, 2555.604
1273.335, 2556.439
1273.817, 2568.257
1274.299, 2576.352
1274.781, 2574.711
1275.263, 2570.051
1275.745, 2558.625
1276.227, 2552.572
1276.709, 2563.458
1277.192, 2586.090
1277.674, 2588.911
1278.156, 2576.798
1278.638, 2571.490
1279.120, 2591.365
1279.602, 2600.942
1280.084, 2580.230
1280.566, 2561.112
1281.048, 2570.486
1281.531, 2599.308
1282.013, 2615.254
##END=



