##NAMES=Khinite
##RRUFFID=R080124
##IDEAL CHEMISTRY=Cu^2+^_3_Pb^2+^Te^6+^O_6_(OH)_2_
##LOCALITY=400 ft. level, Empire mine, Tombstone, Arizona
##OWNER=RRUFF
##SOURCE=William W. Pinch
##DESCRIPTION=Aggregates of dark emerald-green hexagonal prismatic crystals, this is the -3T polytype, previously known as parakhinite. Sample was used in the Hawthorne et al (2008) study
##STATUS=The identification of this mineral has been confirmed by single-crystal X-ray diffraction.
##URL=rruff.info/R080124
90.52570, 0.0000000E+00
91.00781, 11.01402
91.48993, 10.97232
91.97205, 10.95599
92.45416, 10.92731
92.93628, 10.92503
93.41840, 11.04988
93.90051, 11.34776
94.38263, 11.72484
94.86475, 12.04578
95.34686, 12.31078
95.82898, 12.53962
96.31110, 12.68248
96.79321, 12.75929
97.27533, 12.99288
97.75745, 13.46883
98.23956, 14.13093
98.72168, 14.68632
99.20380, 15.06949
99.68591, 15.53296
100.1680, 16.40248
100.6501, 17.74742
101.1323, 19.11807
101.6144, 20.33000
102.0965, 21.34900
102.5786, 22.61690
103.0607, 24.15314
103.5428, 25.92941
104.0250, 27.94244
104.5071, 30.18896
104.9892, 32.65195
105.4713, 35.37980
105.9534, 38.71541
106.4355, 41.54746
106.9177, 43.73039
107.3998, 45.40477
107.8819, 47.08344
108.3640, 48.76244
108.8461, 50.42952
109.3282, 52.10173
109.8104, 53.53392
110.2925, 55.21153
110.7746, 57.21357
111.2567, 59.50076
111.7388, 61.85484
112.2209, 64.00978
112.7031, 66.32874
113.1852, 69.09014
113.6673, 72.93543
114.1494, 76.64365
114.6315, 79.84399
115.1136, 82.53849
115.5958, 85.21036
116.0779, 87.84217
116.5600, 90.58535
117.0421, 93.59640
117.5242, 97.33298
118.0063, 101.0854
118.4885, 104.4466
118.9706, 107.2987
119.4527, 110.2088
119.9348, 113.4874
120.4169, 117.0254
120.8990, 120.6796
121.3812, 124.8423
121.8633, 128.8496
122.3454, 131.9872
122.8275, 134.0517
123.3096, 135.5492
123.7917, 136.4587
124.2739, 137.0157
124.7560, 138.0847
125.2381, 140.4953
125.7202, 143.7567
126.2023, 146.9648
126.6844, 149.8156
127.1666, 152.7062
127.6487, 156.2128
128.1308, 160.3334
128.6129, 164.7214
129.0950, 169.2776
129.5771, 173.9432
130.0593, 178.6166
130.5414, 183.7511
131.0235, 188.6466
131.5056, 191.0252
131.9877, 190.0363
132.4698, 187.1166
132.9520, 184.3048
133.4341, 181.6230
133.9162, 179.7365
134.3983, 178.8249
134.8804, 178.8616
135.3625, 179.8820
135.8447, 181.9701
136.3268, 184.7827
136.8089, 188.2247
137.2910, 192.5394
137.7731, 196.1699
138.2552, 198.7299
138.7374, 200.2912
139.2195, 200.1609
139.7016, 198.0209
140.1837, 194.5339
140.6658, 190.8853
141.1479, 186.6581
141.6301, 183.1055
142.1122, 180.7959
142.5943, 179.9486
143.0764, 179.6699
143.5585, 179.9252
144.0406, 180.7028
144.5228, 182.1275
145.0049, 184.9077
145.4870, 187.4373
145.9691, 188.8363
146.4512, 188.9482
146.9333, 188.2260
147.4155, 186.5023
147.8976, 183.8585
148.3797, 181.1810
148.8618, 178.5167
149.3439, 175.7596
149.8260, 172.8446
150.3082, 168.9449
150.7903, 165.7690
151.2724, 163.5758
151.7545, 162.3939
152.2366, 161.2920
152.7188, 160.0207
153.2009, 158.9085
153.6830, 158.2342
154.1651, 158.5296
154.6472, 158.7582
155.1293, 158.6212
155.6115, 158.0506
156.0936, 157.6109
156.5757, 157.6954
157.0578, 157.8598
157.5399, 157.6165
158.0220, 156.2222
158.5042, 154.9495
158.9863, 154.4321
159.4684, 154.9290
159.9505, 155.1322
160.4326, 154.2447
160.9147, 152.8873
161.3969, 151.9816
161.8790, 152.4174
162.3611, 152.9751
162.8432, 152.9198
163.3253, 151.9372
163.8074, 151.0214
164.2896, 150.5122
164.7717, 150.3842
165.2538, 150.5906
165.7359, 150.9864
166.2180, 151.7704
166.7001, 153.2560
167.1823, 155.8873
167.6644, 158.2965
168.1465, 159.6555
168.6286, 160.1101
169.1107, 160.0674
169.5928, 159.3492
170.0750, 158.4158
170.5571, 157.6985
171.0392, 157.2245
171.5213, 157.1177
172.0034, 157.6443
172.4855, 158.7033
172.9677, 159.8260
173.4498, 160.6479
173.9319, 161.3734
174.4140, 162.2982
174.8961, 163.5590
175.3782, 164.9833
175.8604, 166.4655
176.3425, 168.0033
176.8246, 169.5133
177.3067, 170.9280
177.7888, 172.2899
178.2709, 173.6673
178.7531, 175.1419
179.2352, 176.6135
179.7173, 177.8913
180.1994, 178.9886
180.6815, 180.1035
181.1636, 181.1390
181.6458, 182.2828
182.1279, 184.0841
182.6100, 187.0539
183.0921, 190.6557
183.5742, 193.9225
184.0563, 196.7916
184.5385, 199.4713
185.0206, 202.0281
185.5027, 204.5086
185.9848, 207.0174
186.4669, 209.6902
186.9490, 212.4140
187.4312, 214.9377
187.9133, 217.2020
188.3954, 219.3573
188.8775, 221.3646
189.3596, 223.2612
189.8417, 225.5362
190.3239, 228.4751
190.8060, 231.9782
191.2881, 235.3606
191.7702, 238.5300
192.2523, 241.8011
192.7344, 245.7744
193.2166, 250.4342
193.6987, 254.9013
194.1808, 258.6531
194.6629, 261.7796
195.1450, 265.5695
195.6271, 270.1218
196.1093, 275.0841
196.5914, 279.9772
197.0735, 284.7920
197.5556, 289.6422
198.0377, 294.6502
198.5198, 299.8607
199.0020, 304.7359
199.4841, 309.2978
199.9662, 313.4936
200.4483, 317.7464
200.9304, 322.3567
201.4125, 325.2063
201.8947, 325.5117
202.3768, 323.2805
202.8589, 318.2326
203.3410, 309.8402
203.8231, 299.2979
204.3052, 288.7097
204.7874, 277.9206
205.2695, 267.5012
205.7516, 257.6588
206.2337, 248.3804
206.7158, 239.7425
207.1979, 231.7044
207.6801, 224.3139
208.1622, 217.8345
208.6443, 212.3183
209.1264, 207.4158
209.6085, 203.0799
210.0906, 199.4465
210.5728, 195.6950
211.0549, 191.6914
211.5370, 187.6758
212.0191, 184.3287
212.5012, 181.7691
212.9833, 179.5185
213.4655, 177.3312
213.9476, 175.0669
214.4297, 173.3010
214.9118, 171.3382
215.3939, 171.5720
215.8760, 171.3548
216.3581, 170.7107
216.8403, 168.3611
217.3224, 168.2137
217.8045, 167.1839
218.2866, 166.1179
218.7687, 166.2805
219.2508, 167.3864
219.7330, 168.4289
220.2151, 168.5860
220.6972, 168.1121
221.1793, 166.9793
221.6614, 164.7185
222.1435, 163.0473
222.6257, 162.1170
223.1078, 161.7498
223.5899, 161.4138
224.0720, 160.9758
224.5541, 160.7867
225.0362, 161.0816
225.5184, 162.1920
226.0005, 162.9518
226.4826, 163.2206
226.9647, 163.1655
227.4468, 163.2467
227.9289, 163.4783
228.4111, 163.8322
228.8932, 164.3329
229.3753, 165.1271
229.8574, 165.7125
230.3395, 165.9834
230.8216, 166.0616
231.3038, 166.2633
231.7859, 166.5206
232.2680, 166.9989
232.7501, 167.8177
233.2322, 169.2130
233.7143, 170.4014
234.1965, 171.3093
234.6786, 172.0269
235.1607, 172.7847
235.6428, 173.4342
236.1249, 174.3339
236.6070, 175.7050
237.0892, 177.9174
237.5713, 179.7749
238.0534, 181.2112
238.5355, 182.3071
239.0176, 183.2272
239.4997, 183.7725
239.9819, 184.4468
240.4640, 185.5098
240.9461, 187.2676
241.4282, 188.7038
241.9103, 189.7645
242.3924, 190.5227
242.8746, 191.1481
243.3567, 191.6482
243.8388, 192.0081
244.3209, 192.1973
244.8030, 192.1209
245.2851, 192.1429
245.7673, 192.3593
246.2494, 192.6384
246.7315, 192.6642
247.2136, 192.2404
247.6957, 191.8790
248.1778, 191.8189
248.6600, 192.2350
249.1421, 192.3821
249.6242, 191.9896
250.1063, 191.4714
250.5884, 191.6269
251.0705, 192.5707
251.5527, 194.0010
252.0348, 195.8642
252.5169, 198.3135
252.9990, 200.6659
253.4811, 202.7756
253.9632, 204.9071
254.4454, 207.5733
254.9275, 211.1872
255.4096, 214.5660
255.8917, 217.1499
256.3738, 218.5666
256.8560, 220.8812
257.3381, 224.4168
257.8202, 228.5924
258.3023, 232.5857
258.7844, 236.1900
259.2665, 239.9776
259.7487, 244.1906
260.2308, 248.8877
260.7129, 253.4240
261.1950, 257.6096
261.6771, 261.8167
262.1592, 266.5785
262.6414, 272.0070
263.1235, 277.6071
263.6056, 283.2040
264.0877, 288.8460
264.5698, 294.5463
265.0519, 300.4462
265.5341, 306.1898
266.0162, 311.3193
266.4983, 315.5326
266.9804, 319.9744
267.4625, 325.1151
267.9446, 330.8944
268.4268, 336.2542
268.9089, 341.1867
269.3910, 345.5314
269.8731, 349.0494
270.3552, 351.5597
270.8373, 353.9504
271.3195, 356.8180
271.8016, 359.9206
272.2837, 360.8924
272.7658, 359.5910
273.2479, 356.4688
273.7300, 351.7026
274.2122, 345.1647
274.6943, 337.8871
275.1764, 329.9085
275.6585, 321.3909
276.1406, 313.1068
276.6227, 305.0154
277.1049, 297.2998
277.5870, 289.8328
278.0691, 282.5044
278.5512, 276.8624
279.0333, 273.6628
279.5154, 272.0566
279.9976, 268.8255
280.4797, 263.5285
280.9618, 258.8391
281.4439, 256.9520
281.9260, 257.9080
282.4081, 258.4113
282.8903, 257.7264
283.3724, 256.7026
283.8545, 257.5124
284.3366, 260.2719
284.8187, 263.6383
285.3008, 266.6401
285.7830, 269.3817
286.2651, 272.8280
286.7472, 277.2033
287.2293, 282.0944
287.7114, 286.9290
288.1935, 291.7033
288.6757, 296.1235
289.1578, 299.7681
289.6399, 302.8317
290.1220, 306.1350
290.6041, 309.7696
291.0862, 313.5575
291.5684, 317.3481
292.0505, 321.1344
292.5326, 324.6878
293.0147, 327.6272
293.4968, 330.2479
293.9789, 333.4987
294.4611, 337.3744
294.9432, 341.8769
295.4253, 347.1291
295.9074, 353.0728
296.3895, 359.2964
296.8716, 365.5296
297.3538, 372.0073
297.8359, 379.3040
298.3180, 387.5006
298.8001, 396.0958
299.2822, 405.1071
299.7643, 414.3046
300.2465, 422.9643
300.7286, 430.9368
301.2107, 438.1541
301.6928, 444.8141
302.1749, 450.8251
302.6570, 455.6664
303.1392, 459.2490
303.6213, 461.2895
304.1034, 461.2071
304.5855, 458.6582
305.0676, 454.1522
305.5497, 447.8544
306.0319, 439.9153
306.5140, 430.7817
306.9961, 420.3830
307.4782, 409.2117
307.9603, 397.5994
308.4424, 385.3937
308.9246, 373.3661
309.4067, 361.8287
309.8888, 350.9410
310.3709, 340.9482
310.8530, 332.7993
311.3351, 325.2716
311.8173, 317.1530
312.2994, 307.7440
312.7815, 299.0280
313.2636, 292.6613
313.7457, 287.8345
314.2278, 283.0568
314.7100, 277.5729
315.1921, 272.0991
315.6742, 267.0632
316.1563, 262.5580
316.6384, 258.2766
317.1205, 254.3771
317.6027, 250.6231
318.0848, 246.7351
318.5669, 242.3553
319.0490, 238.0648
319.5311, 234.1818
320.0132, 230.7376
320.4954, 227.1467
320.9775, 223.0862
321.4596, 218.9079
321.9417, 214.9716
322.4238, 211.4765
322.9059, 208.0933
323.3881, 204.8023
323.8702, 201.6138
324.3523, 198.3293
324.8344, 194.5914
325.3165, 190.9744
325.7986, 187.7828
326.2808, 185.4562
326.7629, 183.0700
327.2450, 180.3481
327.7271, 177.4683
328.2092, 175.1260
328.6913, 173.8978
329.1735, 172.7078
329.6556, 171.0889
330.1377, 168.6877
330.6198, 166.5243
331.1019, 164.6416
331.5840, 162.9868
332.0662, 161.4129
332.5483, 159.8019
333.0304, 158.4337
333.5125, 157.5063
333.9946, 157.1509
334.4767, 156.4335
334.9589, 155.0879
335.4410, 153.6481
335.9231, 152.8732
336.4052, 153.0922
336.8873, 153.1181
337.3694, 152.5843
337.8515, 151.5387
338.3336, 150.7909
338.8158, 150.4344
339.2979, 150.1814
339.7800, 149.6855
340.2621, 148.8687
340.7442, 148.4153
341.2263, 148.5282
341.7085, 149.0517
342.1906, 149.5184
342.6727, 149.9464
343.1548, 150.2308
343.6369, 150.2157
344.1190, 149.9256
344.6012, 149.7668
345.0833, 149.7757
345.5654, 149.9437
346.0475, 150.2930
346.5296, 150.8128
347.0117, 151.3870
347.4939, 152.0497
347.9760, 152.7177
348.4581, 153.0190
348.9402, 152.8571
349.4223, 152.7722
349.9044, 153.4503
350.3866, 154.7368
350.8687, 156.1090
351.3508, 157.6682
351.8329, 159.0587
352.3150, 159.4358
352.7971, 158.8374
353.2793, 158.4771
353.7614, 159.5991
354.2435, 161.5348
354.7256, 163.1837
355.2077, 164.0127
355.6898, 164.7073
356.1720, 165.8614
356.6541, 167.4131
357.1362, 169.0762
357.6183, 170.8946
358.1004, 172.6558
358.5826, 174.1647
359.0647, 175.3570
359.5468, 176.3661
360.0289, 177.3394
360.5110, 178.1758
360.9931, 178.6833
361.4753, 178.5112
361.9574, 178.2057
362.4395, 178.0860
362.9216, 178.2373
363.4037, 178.2093
363.8858, 177.9150
364.3680, 177.3583
364.8501, 176.5397
365.3322, 174.9310
365.8143, 173.6154
366.2964, 173.0476
366.7785, 173.2074
367.2607, 173.0578
367.7428, 171.9530
368.2249, 170.8753
368.7070, 170.4350
369.1891, 171.7336
369.6712, 172.2032
370.1534, 171.3650
370.6355, 169.6337
371.1176, 168.2899
371.5997, 167.3812
372.0818, 166.7922
372.5639, 166.4971
373.0461, 166.5603
373.5282, 166.7048
374.0103, 166.9581
374.4924, 167.2641
374.9745, 167.5216
375.4566, 167.6936
375.9388, 167.9330
376.4209, 168.2541
376.9030, 168.6715
377.3851, 169.3514
377.8672, 170.3678
378.3493, 171.4516
378.8315, 172.2498
379.3136, 172.7624
379.7957, 173.6017
380.2778, 175.0109
380.7599, 176.6980
381.2420, 177.8091
381.7242, 178.3262
382.2063, 179.1848
382.6884, 181.2640
383.1705, 184.2168
383.6526, 186.7338
384.1347, 188.6093
384.6169, 190.3401
385.0990, 192.2400
385.5811, 194.4219
386.0632, 197.1836
386.5453, 201.6267
387.0274, 206.3022
387.5096, 208.8172
387.9917, 209.1630
388.4738, 209.5183
388.9559, 211.5169
389.4380, 214.5322
389.9201, 217.8057
390.4023, 221.4366
390.8844, 224.8343
391.3665, 227.6940
391.8486, 230.0337
392.3307, 231.8073
392.8128, 232.5959
393.2950, 233.0738
393.7771, 233.7649
394.2592, 234.9595
394.7413, 235.7924
395.2234, 236.1523
395.7055, 235.9330
396.1877, 234.9715
396.6698, 232.4705
397.1519, 229.9475
397.6340, 227.9731
398.1161, 226.6763
398.5982, 224.9378
399.0804, 222.3112
399.5625, 219.4489
400.0446, 216.8266
400.5267, 214.6662
401.0088, 212.4145
401.4909, 209.9345
401.9731, 207.3329
402.4552, 205.1294
402.9373, 203.6163
403.4194, 202.0257
403.9015, 199.9115
404.3836, 197.0455
404.8658, 194.5296
405.3479, 192.3676
405.8300, 190.5791
406.3121, 189.2744
406.7942, 188.5212
407.2763, 187.7547
407.7585, 186.7807
408.2406, 185.6332
408.7227, 184.5135
409.2048, 183.4162
409.6869, 182.4068
410.1690, 181.4921
410.6512, 180.7060
411.1333, 180.1893
411.6154, 180.0023
412.0975, 180.0369
412.5796, 180.1064
413.0617, 180.2390
413.5439, 180.5654
414.0260, 181.2735
414.5081, 182.1838
414.9902, 183.0188
415.4723, 183.7521
415.9544, 184.5371
416.4366, 185.5427
416.9187, 186.6657
417.4008, 187.7462
417.8829, 188.3524
418.3650, 189.2259
418.8471, 190.9888
419.3293, 193.4932
419.8114, 195.9549
420.2935, 197.8278
420.7756, 199.6679
421.2577, 201.7727
421.7398, 204.1559
422.2220, 206.9390
422.7041, 210.4638
423.1862, 214.3794
423.6683, 218.0632
424.1504, 221.2446
424.6325, 224.4422
425.1147, 227.7644
425.5968, 231.2715
426.0789, 234.7235
426.5610, 237.7970
427.0431, 241.1097
427.5252, 245.1600
428.0074, 250.1806
428.4895, 255.4089
428.9716, 260.7752
429.4537, 266.2175
429.9358, 271.3937
430.4179, 276.1489
430.9001, 281.1189
431.3822, 286.7436
431.8643, 293.0385
432.3464, 298.7714
432.8285, 303.7934
433.3106, 308.7295
433.7928, 314.5418
434.2749, 321.1043
434.7570, 327.3792
435.2391, 333.1408
435.7212, 338.3473
436.2033, 342.7309
436.6855, 346.3233
437.1676, 349.8119
437.6497, 354.1537
438.1318, 358.5609
438.6139, 361.8330
439.0960, 363.7418
439.5782, 364.6486
440.0603, 364.6547
440.5424, 363.8820
441.0245, 362.5698
441.5066, 361.1312
441.9887, 358.9220
442.4709, 355.3139
442.9530, 350.3403
443.4351, 345.1776
443.9172, 340.5517
444.3993, 335.7651
444.8814, 330.3589
445.3636, 323.5407
445.8457, 317.0004
446.3278, 311.0019
446.8099, 305.4703
447.2920, 300.0612
447.7741, 294.8828
448.2563, 289.6534
448.7384, 284.2843
449.2205, 278.6296
449.7026, 273.5718
450.1847, 269.1872
450.6668, 265.3772
451.1490, 262.1400
451.6311, 259.5775
452.1132, 257.1550
452.5953, 254.7137
453.0774, 252.4077
453.5595, 250.6238
454.0417, 249.4082
454.5238, 248.2139
455.0059, 246.6219
455.4880, 244.7544
455.9701, 243.1520
456.4522, 241.8332
456.9344, 240.8094
457.4165, 240.0484
457.8986, 239.5836
458.3807, 239.5396
458.8628, 240.0271
459.3449, 240.8674
459.8271, 241.9745
460.3092, 243.2995
460.7913, 244.6488
461.2734, 245.6603
461.7555, 246.7919
462.2376, 248.5748
462.7198, 251.2291
463.2019, 253.7543
463.6840, 255.5013
464.1661, 256.8963
464.6482, 258.4549
465.1303, 260.3247
465.6125, 262.3517
466.0946, 264.6612
466.5767, 267.2030
467.0588, 269.3512
467.5409, 270.8915
468.0230, 272.1840
468.5052, 273.4084
468.9873, 274.7219
469.4694, 275.5500
469.9515, 275.6808
470.4336, 275.5146
470.9157, 275.6355
471.3979, 276.1440
471.8800, 276.5976
472.3621, 276.8399
472.8442, 276.9442
473.3263, 277.3143
473.8084, 277.9847
474.2906, 278.6515
474.7727, 278.9454
475.2548, 278.9990
475.7369, 279.4604
476.2190, 280.4079
476.7011, 281.7170
477.1833, 283.3180
477.6654, 285.1761
478.1475, 287.2039
478.6296, 289.7516
479.1117, 292.1833
479.5938, 293.6009
480.0760, 294.1723
480.5581, 294.9696
481.0402, 296.8865
481.5223, 299.1305
482.0044, 301.0666
482.4865, 302.4840
482.9687, 303.8070
483.4508, 304.9468
483.9329, 306.1427
484.4150, 307.7162
484.8971, 310.3002
485.3792, 312.6725
485.8614, 314.4060
486.3435, 315.5645
486.8256, 317.0868
487.3077, 319.1770
487.7898, 321.3681
488.2719, 323.3740
488.7541, 324.9679
489.2362, 326.9316
489.7183, 329.1656
490.2004, 331.9117
490.6825, 335.7898
491.1646, 340.9403
491.6468, 345.9258
492.1289, 350.2605
492.6110, 354.1892
493.0931, 358.7120
493.5752, 363.8430
494.0573, 369.1158
494.5395, 374.3250
495.0216, 379.4443
495.5037, 384.5392
495.9858, 389.5025
496.4679, 394.5569
496.9500, 399.9943
497.4322, 405.5948
497.9143, 410.8952
498.3964, 416.2653
498.8785, 420.8102
499.3606, 424.1048
499.8427, 426.1696
500.3249, 426.8909
500.8070, 426.3830
501.2891, 424.4479
501.7712, 420.9855
502.2533, 416.0008
502.7354, 409.4807
503.2176, 400.8253
503.6997, 390.9671
504.1818, 380.7658
504.6639, 370.0317
505.1460, 359.2709
505.6281, 348.4854
506.1103, 337.6909
506.5924, 327.3075
507.0745, 317.2993
507.5566, 307.8197
508.0387, 298.9348
508.5208, 290.6445
509.0030, 282.7587
509.4851, 275.1565
509.9672, 268.6466
510.4493, 264.7444
510.9314, 262.7617
511.4135, 260.2856
511.8957, 256.4796
512.3778, 252.4072
512.8599, 249.0965
513.3420, 246.5224
513.8242, 244.6135
514.3063, 243.4939
514.7884, 242.8876
515.2705, 242.6768
515.7526, 242.8534
516.2347, 243.1337
516.7169, 243.1798
517.1990, 243.4144
517.6811, 244.1731
518.1632, 246.0631
518.6453, 247.7178
519.1274, 248.7411
519.6096, 249.4928
520.0917, 250.6150
520.5738, 252.2219
521.0559, 254.0043
521.5380, 255.9621
522.0201, 258.0738
522.5023, 259.9039
522.9844, 261.3525
523.4665, 262.8303
523.9486, 264.6916
524.4307, 266.9215
524.9128, 269.0243
525.3950, 270.9195
525.8771, 272.7589
526.3592, 274.7183
526.8413, 276.7685
527.3234, 278.9003
527.8055, 281.2692
528.2877, 283.5249
528.7698, 285.1480
529.2519, 286.2600
529.7340, 287.4477
530.2161, 288.8397
530.6982, 290.5656
531.1804, 292.9751
531.6625, 296.2600
532.1446, 299.0316
532.6267, 300.4636
533.1088, 301.3397
533.5909, 302.3605
534.0731, 303.4415
534.5552, 304.9211
535.0373, 307.0116
535.5194, 309.4793
536.0015, 311.8530
536.4836, 314.0793
536.9658, 316.2720
537.4479, 318.4057
537.9300, 320.4798
538.4121, 322.7541
538.8942, 325.2108
539.3763, 327.8809
539.8585, 330.8333
540.3406, 334.0352
540.8227, 337.2609
541.3048, 340.4659
541.7869, 343.8558
542.2690, 347.7387
542.7512, 352.0211
543.2333, 356.4728
543.7154, 361.1057
544.1975, 365.7791
544.6796, 370.8902
545.1617, 376.1511
545.6439, 380.0742
546.1260, 380.5316
546.6081, 380.5700
547.0902, 382.2531
547.5723, 386.4248
548.0544, 389.5268
548.5366, 391.0055
549.0187, 391.2426
549.5008, 390.5436
549.9829, 388.3620
550.4650, 386.3027
550.9471, 384.8559
551.4293, 383.4222
551.9114, 380.4931
552.3935, 375.9116
552.8756, 370.5905
553.3577, 364.7618
553.8398, 358.4772
554.3220, 351.8398
554.8041, 344.8072
555.2862, 337.8943
555.7683, 331.2227
556.2504, 324.9590
556.7325, 319.4191
557.2147, 314.7457
557.6968, 310.2468
558.1789, 305.2736
558.6610, 300.0954
559.1431, 295.1606
559.6252, 290.2465
560.1074, 286.0006
560.5895, 282.8602
561.0716, 280.6178
561.5537, 278.6420
562.0358, 276.9847
562.5179, 275.3753
563.0001, 273.6753
563.4822, 271.8550
563.9643, 270.3259
564.4464, 269.0909
564.9285, 268.1440
565.4106, 267.5418
565.8928, 267.3529
566.3749, 267.0962
566.8570, 266.7977
567.3391, 266.2795
567.8212, 265.1767
568.3033, 263.5456
568.7855, 261.9120
569.2676, 260.6646
569.7497, 259.2795
570.2318, 256.8284
570.7139, 253.5000
571.1960, 249.9166
571.6782, 246.6523
572.1603, 243.1807
572.6424, 238.9796
573.1245, 233.9182
573.6066, 228.9998
574.0887, 224.5031
574.5709, 220.3186
575.0530, 216.3186
575.5351, 212.6151
576.0172, 208.8413
576.4993, 204.8006
576.9814, 200.7666
577.4636, 197.2591
577.9457, 194.3933
578.4278, 191.7554
578.9099, 189.2832
579.3920, 187.0038
579.8741, 185.0076
580.3563, 183.3038
580.8384, 181.8873
581.3205, 180.9048
581.8026, 180.1907
582.2847, 179.2649
582.7668, 178.1030
583.2490, 177.0246
583.7311, 176.4246
584.2131, 176.0229
584.6953, 175.4262
585.1774, 174.4526
585.6595, 173.5021
586.1416, 172.6286
586.6237, 171.9514
587.1058, 171.6346
587.5880, 172.1489
588.0701, 172.5567
588.5522, 172.5677
589.0343, 172.2764
589.5164, 172.0972
589.9985, 171.9828
590.4807, 172.0672
590.9628, 172.5054
591.4449, 173.3106
591.9270, 173.6676
592.4091, 173.4778
592.8912, 173.2552
593.3734, 173.4399
593.8555, 173.9888
594.3376, 174.7003
594.8197, 175.5455
595.3018, 176.5338
595.7839, 177.7275
596.2661, 179.0653
596.7482, 180.4287
597.2303, 181.7769
597.7124, 183.1450
598.1945, 184.4852
598.6766, 185.8592
599.1588, 187.4345
599.6409, 189.1659
600.1230, 191.1786
600.6051, 193.5141
601.0872, 196.1476
601.5693, 199.2413
602.0515, 203.2035
602.5336, 207.0255
603.0157, 209.8836
603.4978, 211.4601
603.9799, 214.2021
604.4620, 218.3985
604.9442, 223.1798
605.4263, 227.3047
605.9084, 230.9824
606.3905, 235.0647
606.8726, 239.8430
607.3547, 245.0846
607.8369, 250.6787
608.3190, 256.5456
608.8011, 262.6453
609.2832, 269.0843
609.7653, 275.5693
610.2474, 281.7479
610.7296, 287.7458
611.2117, 294.1278
611.6938, 301.5403
612.1759, 309.0362
612.6580, 316.1703
613.1401, 322.9698
613.6223, 329.5808
614.1044, 336.0724
614.5865, 342.1767
615.0686, 347.6643
615.5507, 352.5681
616.0328, 356.4909
616.5150, 359.3969
616.9971, 361.2480
617.4792, 362.1328
617.9613, 361.9666
618.4434, 360.3146
618.9255, 356.9303
619.4077, 352.1510
619.8898, 345.7302
620.3719, 338.1021
620.8540, 330.5278
621.3361, 324.2513
621.8182, 317.7753
622.3004, 309.9717
622.7825, 300.8524
623.2646, 292.3056
623.7467, 285.0671
624.2288, 278.2573
624.7109, 271.3748
625.1931, 264.1248
625.6752, 257.7559
626.1573, 252.3518
626.6394, 247.6020
627.1215, 243.3537
627.6036, 239.6148
628.0858, 235.6122
628.5679, 231.0885
629.0500, 226.5975
629.5321, 222.9560
630.0142, 220.0602
630.4963, 217.7207
630.9785, 216.2278
631.4606, 214.8626
631.9427, 212.8445
632.4248, 210.4111
632.9069, 208.3101
633.3890, 207.0881
633.8712, 206.0838
634.3533, 204.8885
634.8354, 203.4414
635.3175, 202.6181
635.7996, 202.8813
636.2817, 203.2626
636.7639, 203.1935
637.2460, 202.5206
637.7281, 202.1534
638.2102, 202.1039
638.6923, 202.3043
639.1744, 202.8179
639.6566, 203.5646
640.1387, 204.1115
640.6208, 204.3731
641.1029, 204.3996
641.5850, 203.7982
642.0671, 203.0423
642.5493, 203.0691
643.0314, 204.9564
643.5135, 207.0547
643.9956, 208.5506
644.4777, 209.5845
644.9598, 210.6147
645.4420, 211.5096
645.9241, 212.6794
646.4062, 214.3752
646.8883, 216.5541
647.3704, 218.3031
647.8525, 219.3640
648.3347, 220.5414
648.8168, 222.2458
649.2989, 224.4890
649.7810, 227.1746
650.2631, 230.3481
650.7452, 233.4819
651.2274, 235.8642
651.7095, 237.8191
652.1916, 240.0269
652.6737, 242.5584
653.1558, 245.4155
653.6379, 248.6680
654.1201, 252.2443
654.6022, 256.0662
655.0843, 259.9084
655.5664, 264.2211
656.0485, 269.2390
656.5306, 274.7562
657.0128, 280.3414
657.4949, 285.6837
657.9770, 291.6659
658.4591, 298.5453
658.9412, 306.1862
659.4233, 313.8413
659.9055, 321.4703
660.3876, 329.9205
660.8697, 339.9122
661.3518, 351.0914
661.8339, 362.3443
662.3160, 373.7400
662.7982, 386.3860
663.2803, 400.9147
663.7624, 417.2355
664.2445, 435.2403
664.7266, 455.1323
665.2087, 475.8924
665.6909, 496.7110
666.1730, 518.5352
666.6551, 542.2225
667.1372, 568.3071
667.6193, 595.3645
668.1014, 623.0384
668.5836, 651.6970
669.0657, 681.5970
669.5478, 712.4018
670.0299, 745.3344
670.5120, 780.5569
670.9941, 818.1268
671.4763, 857.7839
671.9584, 899.7647
672.4405, 945.3395
672.9226, 995.9120
673.4047, 1050.055
673.8868, 1107.418
674.3690, 1167.224
674.8511, 1228.561
675.3332, 1292.954
675.8153, 1356.943
676.2974, 1421.091
676.7795, 1485.744
677.2617, 1545.557
677.7438, 1602.537
678.2259, 1652.396
678.7080, 1694.435
679.1901, 1729.161
679.6722, 1751.189
680.1544, 1761.320
680.6365, 1756.199
681.1186, 1732.706
681.6007, 1691.701
682.0828, 1632.975
682.5649, 1555.844
683.0471, 1467.518
683.5292, 1369.733
684.0113, 1267.455
684.4934, 1168.539
684.9755, 1071.788
685.4576, 982.0058
685.9398, 898.9671
686.4219, 823.6515
686.9040, 756.0745
687.3861, 696.9906
687.8682, 644.4045
688.3503, 598.6852
688.8325, 558.7134
689.3146, 523.1808
689.7967, 492.2282
690.2788, 464.3789
690.7609, 439.4656
691.2430, 417.3671
691.7252, 397.8354
692.2073, 380.5255
692.6894, 364.6914
693.1715, 350.1396
693.6536, 336.6577
694.1357, 324.1408
694.6179, 312.5731
695.1000, 301.8553
695.5821, 292.2813
696.0642, 283.2875
696.5463, 274.5775
697.0284, 266.0969
697.5106, 258.2616
697.9927, 251.0882
698.4748, 244.5041
698.9569, 238.6795
699.4390, 233.5156
699.9211, 228.2954
700.4033, 222.9210
700.8854, 217.8931
701.3675, 213.8379
701.8496, 210.4285
702.3317, 207.1631
702.8138, 203.9931
703.2960, 200.8603
703.7781, 197.3928
704.2602, 194.0803
704.7423, 191.5222
705.2244, 190.8952
705.7065, 189.5937
706.1887, 187.0583
706.6708, 183.9745
707.1529, 181.5347
707.6350, 179.8316
708.1171, 178.2094
708.5992, 176.5022
709.0814, 174.7707
709.5635, 173.1054
710.0456, 171.4923
710.5277, 169.9013
711.0098, 168.1618
711.4919, 166.5628
711.9741, 165.4811
712.4562, 164.8033
712.9383, 164.0283
713.4204, 162.8796
713.9025, 161.6878
714.3846, 160.5120
714.8668, 159.3559
715.3489, 158.5929
715.8310, 158.5065
716.3131, 158.2306
716.7952, 157.1725
717.2773, 155.4200
717.7595, 154.1387
718.2416, 153.3537
718.7237, 152.7208
719.2058, 151.9641
719.6879, 151.1765
720.1700, 150.5842
720.6522, 150.2207
721.1343, 149.7261
721.6164, 148.5556
722.0985, 147.3733
722.5806, 146.7649
723.0627, 147.2798
723.5449, 147.2854
724.0270, 146.3701
724.5091, 145.2451
724.9912, 144.6101
725.4733, 144.5742
725.9554, 144.2937
726.4376, 143.6104
726.9197, 142.9184
727.4018, 142.8791
727.8839, 143.2921
728.3660, 143.5252
728.8481, 143.3933
729.3303, 143.0918
729.8124, 142.6900
730.2945, 142.2554
730.7766, 141.8950
731.2587, 141.7191
731.7408, 141.5224
732.2230, 141.2385
732.7051, 140.9084
733.1872, 140.6044
733.6693, 140.3323
734.1514, 140.0850
734.6335, 139.8881
735.1157, 139.6912
735.5978, 139.3373
736.0799, 138.8450
736.5620, 138.3680
737.0441, 138.0192
737.5262, 137.6905
738.0084, 137.2466
738.4905, 136.7114
738.9726, 136.1647
739.4547, 135.5467
739.9368, 135.0147
740.4189, 134.7228
740.9011, 134.6422
741.3832, 134.3171
741.8653, 133.5999
742.3474, 132.8998
742.8295, 132.4353
743.3116, 132.1529
743.7938, 131.5675
744.2759, 130.6664
744.7580, 129.8580
745.2401, 129.5450
745.7222, 129.4607
746.2043, 129.1804
746.6865, 128.6951
747.1686, 128.2197
747.6507, 127.9544
748.1328, 127.6773
748.6149, 127.1882
749.0970, 126.3935
749.5792, 125.8367
750.0613, 125.6706
750.5434, 125.5711
751.0255, 125.3101
751.5076, 124.8658
751.9897, 124.5723
752.4719, 124.4582
752.9540, 124.3346
753.4361, 123.9610
753.9182, 123.4571
754.4003, 123.0502
754.8824, 122.7753
755.3646, 122.5844
755.8467, 122.4988
756.3288, 122.4553
756.8109, 122.3987
757.2930, 122.3149
757.7751, 122.2360
758.2573, 122.2884
758.7394, 122.2312
759.2215, 121.7378
759.7036, 120.6906
760.1857, 120.0646
760.6678, 120.0292
761.1500, 120.1640
761.6321, 119.9458
762.1142, 119.4824
762.5963, 119.0236
763.0784, 118.6180
763.5605, 118.2680
764.0427, 117.8767
764.5248, 117.5790
765.0069, 117.5446
765.4890, 118.3142
765.9711, 118.6679
766.4532, 118.3612
766.9354, 117.7231
767.4175, 117.1781
767.8996, 116.7078
768.3817, 116.5006
768.8638, 116.6803
769.3459, 116.9216
769.8281, 116.3893
770.3102, 114.7120
770.7923, 115.1081
771.2744, 115.2604
771.7565, 115.1820
772.2386, 114.1818
772.7208, 114.3719
773.2029, 114.0850
773.6850, 113.7785
774.1671, 114.1361
774.6492, 113.2700
775.1313, 113.6170
775.6135, 113.4798
776.0956, 113.5642
776.5777, 113.1687
777.0598, 112.9215
777.5419, 113.1543
778.0240, 113.1213
778.5062, 113.0081
778.9883, 113.1179
779.4704, 112.7149
779.9525, 111.8077
780.4346, 112.2323
780.9167, 112.4130
781.3989, 112.3629
781.8810, 111.3913
782.3631, 111.6097
782.8452, 111.3513
783.3273, 111.0732
783.8094, 111.4592
784.2916, 110.6215
784.7737, 110.9970
785.2558, 110.8882
785.7379, 111.0010
786.2200, 110.6340
786.7021, 110.4151
787.1843, 110.6763
787.6664, 110.6717
788.1485, 110.2493
788.6306, 110.3763
789.1127, 109.6336
789.5948, 110.0063
790.0770, 110.1960
790.5591, 110.2123
791.0412, 109.5363
791.5233, 109.7543
792.0054, 109.6141
792.4875, 109.4591
792.9697, 109.8029
793.4518, 109.2276
793.9339, 109.5636
794.4160, 109.5358
794.8981, 109.6744
795.3802, 109.4526
795.8624, 109.3421
796.3445, 109.5922
796.8266, 109.6427
797.3087, 109.3793
797.7908, 108.7399
798.2729, 109.1184
798.7551, 109.3137
799.2372, 109.3358
799.7193, 108.6654
800.2014, 108.8892
800.6835, 108.7546
801.1656, 108.6053
801.6478, 108.9549
802.1299, 108.3852
802.6120, 108.7269
803.0941, 108.7048
803.5762, 108.8491
804.0583, 108.6330
804.5405, 108.2106
805.0226, 108.6151
805.5047, 108.8364
805.9868, 108.8844
806.4689, 108.2401
806.9510, 108.4898
807.4332, 108.3811
807.9153, 108.2579
808.3974, 108.6334
808.8795, 108.0897
809.3616, 108.4574
809.8438, 108.4612
810.3259, 108.6316
810.8080, 108.4414
811.2901, 108.3626
811.7722, 108.6444
812.2543, 108.7265
812.7365, 108.4948
813.2186, 108.6758
813.7007, 108.1195
814.1828, 108.2101
814.6649, 108.5799
815.1470, 108.3663
815.6292, 108.5539
816.1113, 108.5886
816.5934, 107.9292
817.0755, 108.4771
817.5576, 108.5028
818.0397, 107.9925
818.5219, 108.4990
819.0040, 108.0625
819.4861, 107.9627
819.9682, 108.1161
820.4503, 108.0055
820.9324, 108.3111
821.4146, 108.2157
821.8967, 108.0845
822.3788, 108.1097
822.8609, 107.6918
823.3430, 108.0959
823.8251, 107.9384
824.3073, 108.0601
824.7894, 108.2451
825.2715, 107.9456
825.7536, 108.1590
826.2357, 107.5771
826.7178, 107.6607
827.2000, 107.6725
827.6821, 107.8840
828.1642, 108.1123
828.6463, 107.8607
829.1284, 107.7573
829.6105, 108.1339
830.0927, 108.2448
830.5748, 107.9379
831.0569, 108.1803
831.5390, 107.4413
832.0211, 107.5635
832.5032, 108.0572
832.9854, 107.7744
833.4675, 108.0256
833.9496, 108.0734
834.4317, 107.1971
834.9138, 107.9279
835.3959, 107.9637
835.8781, 107.2859
836.3602, 107.9616
836.8423, 107.3822
837.3244, 107.2507
837.8065, 107.8954
838.2886, 108.0167
838.7708, 107.2164
839.2529, 107.6062
839.7350, 107.5190
840.2171, 107.4123
840.6992, 107.9697
841.1813, 107.3034
841.6635, 107.8502
842.1456, 107.9127
842.6277, 108.1969
843.1098, 108.0012
843.5919, 107.9537
844.0740, 108.3863
844.5562, 108.5530
845.0383, 108.3020
845.5204, 108.6003
846.0025, 107.9173
846.4846, 108.0953
846.9667, 108.6449
847.4489, 108.4181
847.9310, 108.4986
848.4131, 108.6771
848.8952, 108.7677
849.3773, 108.7442
849.8594, 108.6770
850.3416, 108.6347
850.8237, 107.8853
851.3058, 108.4720
851.7879, 108.8149
852.2700, 108.9271
852.7521, 108.1176
853.2343, 108.4983
853.7164, 108.4019
854.1985, 108.2861
854.6806, 108.8343
855.1627, 108.1588
855.6448, 108.6964
856.1270, 108.7499
856.6091, 109.0249
857.0912, 108.8200
857.5733, 108.7633
858.0554, 109.1867
858.5375, 109.3443
859.0197, 109.2610
859.5018, 109.3040
859.9839, 109.2452
860.4660, 109.2070
860.9481, 109.2550
861.4302, 109.3433
861.9124, 109.4347
862.3945, 109.5379
862.8766, 109.7676
863.3587, 110.2867
863.8408, 110.5174
864.3229, 110.1062
864.8051, 109.3698
865.2872, 109.3435
865.7693, 109.9205
866.2514, 110.4765
866.7335, 110.7654
867.2156, 110.8510
867.6978, 110.6375
868.1799, 110.2633
868.6620, 110.0423
869.1441, 110.2360
869.6262, 110.3361
870.1083, 110.2191
870.5905, 110.0168
871.0726, 109.9897
871.5547, 110.1344
872.0368, 110.3775
872.5189, 110.7716
873.0010, 111.0628
873.4832, 110.7678
873.9653, 110.2241
874.4474, 109.9994
874.9295, 110.4828
875.4116, 110.8904
875.8937, 110.9956
876.3759, 110.9732
876.8580, 110.9583
877.3401, 110.9376
877.8222, 111.0072
878.3043, 111.1883
878.7864, 111.3931
879.2686, 111.5299
879.7507, 111.6256
880.2328, 111.7399
880.7149, 111.8878
881.1970, 111.9909
881.6791, 111.9582
882.1613, 111.9088
882.6434, 111.8997
883.1255, 111.9112
883.6076, 112.1753
884.0897, 112.8024
884.5718, 113.3302
885.0540, 113.3998
885.5361, 113.1286
886.0182, 112.7745
886.5003, 112.3764
886.9824, 112.2282
887.4645, 112.7367
887.9467, 113.3450
888.4288, 113.6594
888.9109, 113.7052
889.3930, 113.3608
889.8751, 114.1655
890.3572, 114.7263
890.8394, 115.0565
891.3215, 114.4649
891.8036, 115.0635
892.2857, 115.1851
892.7678, 115.2872
893.2499, 116.0533
893.7321, 115.5958
894.2142, 116.3514
894.6963, 116.6227
895.1784, 117.1157
895.6605, 117.1287
896.1426, 117.2900
896.6248, 117.9314
897.1069, 117.4610
897.5890, 117.4919
898.0711, 117.7282
898.5532, 118.1421
899.0353, 118.7611
899.5175, 119.4091
899.9996, 119.9163
900.4817, 120.3684
900.9638, 120.8783
901.4459, 121.5436
901.9280, 122.0477
902.4102, 122.2410
902.8923, 122.4165
903.3744, 122.7716
903.8565, 123.3109
904.3386, 123.8855
904.8207, 124.4837
905.3029, 125.2275
905.7850, 126.4035
906.2671, 127.6379
906.7492, 128.4460
907.2313, 128.8412
907.7134, 129.4010
908.1956, 130.5289
908.6777, 131.5880
909.1598, 132.3370
909.6419, 132.8495
910.1240, 133.5008
910.6061, 134.2917
911.0883, 135.0322
911.5704, 135.4743
912.0525, 136.0164
912.5346, 137.3693
913.0167, 139.2073
913.4988, 140.8239
913.9810, 141.7902
914.4631, 142.7389
914.9452, 143.8376
915.4273, 144.9643
915.9094, 146.0046
916.3915, 146.9705
916.8737, 147.5294
917.3558, 147.5768
917.8379, 147.4702
918.3200, 147.4857
918.8021, 147.6606
919.2842, 148.1723
919.7664, 149.2162
920.2485, 149.7995
920.7306, 149.1535
921.2127, 148.3424
921.6948, 148.0462
922.1769, 148.3142
922.6591, 148.3203
923.1412, 148.0625
923.6233, 147.5351
924.1054, 146.4698
924.5875, 145.2809
925.0696, 144.5833
925.5518, 144.3186
926.0339, 144.0753
926.5160, 143.7920
926.9981, 143.3867
927.4802, 142.7717
927.9623, 142.0419
928.4445, 141.4624
928.9266, 141.0328
929.4087, 140.7632
929.8908, 140.6892
930.3729, 140.7026
930.8550, 140.6711
931.3372, 140.6166
931.8193, 140.5838
932.3014, 140.6520
932.7835, 140.6314
933.2656, 140.3608
933.7477, 140.0736
934.2299, 139.9796
934.7120, 140.0947
935.1941, 140.3005
935.6762, 140.6048
936.1583, 140.8807
936.6404, 140.8883
937.1226, 140.8576
937.6047, 141.2065
938.0868, 141.9671
938.5689, 142.4294
939.0510, 141.9815
939.5331, 141.5964
940.0153, 141.7044
940.4974, 142.2085
940.9795, 142.3915
941.4616, 142.2467
941.9437, 142.2265
942.4258, 142.6237
942.9080, 143.1539
943.3901, 143.4627
943.8722, 143.6413
944.3543, 143.8840
944.8364, 144.4292
945.3185, 144.8023
945.8007, 144.8881
946.2828, 144.8286
946.7649, 144.8080
947.2470, 144.8259
947.7291, 144.8109
948.2112, 144.7492
948.6934, 144.6892
949.1755, 144.6589
949.6576, 144.6638
950.1397, 144.6904
950.6218, 144.7174
951.1039, 144.8971
951.5861, 145.3562
952.0682, 145.8085
952.5503, 146.1413
953.0324, 146.3501
953.5145, 146.2844
953.9966, 145.9829
954.4788, 145.9005
954.9609, 146.6325
955.4430, 147.3843
955.9251, 147.2829
956.4072, 146.7061
956.8893, 146.7005
957.3715, 147.9377
957.8536, 148.8206
958.3357, 149.0318
958.8178, 148.9698
959.2999, 149.2865
959.7820, 149.8917
960.2642, 150.3467
960.7463, 150.5446
961.2284, 150.7446
961.7105, 151.1970
962.1926, 151.6968
962.6747, 152.0514
963.1569, 152.2027
963.6390, 152.4222
964.1211, 152.7190
964.6032, 153.0638
965.0853, 153.4296
965.5674, 153.8275
966.0496, 154.3428
966.5317, 154.9313
967.0138, 155.4006
967.4959, 155.4506
967.9780, 155.5637
968.4601, 156.0620
968.9423, 156.7738
969.4244, 157.2786
969.9065, 157.5269
970.3886, 157.7871
970.8707, 158.0912
971.3528, 158.4711
971.8350, 159.0207
972.3171, 159.6664
972.7992, 160.2746
973.2813, 160.8047
973.7634, 161.3910
974.2455, 162.1440
974.7277, 162.9166
975.2098, 163.6358
975.6919, 164.3022
976.1740, 164.7295
976.6561, 164.8969
977.1382, 165.2688
977.6204, 166.4323
978.1025, 167.7495
978.5846, 168.3054
979.0667, 168.3630
979.5488, 168.7274
980.0309, 169.9695
980.5131, 171.0981
980.9952, 171.9281
981.4773, 172.5982
981.9594, 173.3462
982.4415, 174.1503
982.9236, 174.8407
983.4058, 175.3533
983.8879, 175.8958
984.3700, 176.7299
984.8521, 177.6180
985.3342, 178.3180
985.8163, 178.7469
986.2985, 179.2468
986.7806, 179.8000
987.2627, 180.4877
987.7448, 181.4683
988.2269, 182.5792
988.7090, 183.2703
989.1912, 183.6241
989.6733, 183.9762
990.1554, 184.4536
990.6375, 185.0248
991.1196, 185.6626
991.6017, 186.3882
992.0839, 187.2406
992.5660, 188.2626
993.0481, 189.1878
993.5302, 189.9472
994.0123, 190.7734
994.4944, 192.1811
994.9766, 193.7188
995.4587, 194.5607
995.9408, 194.5415
996.4229, 194.7377
996.9050, 195.9033
997.3871, 196.9165
997.8693, 197.2048
998.3514, 196.9308
998.8335, 197.0882
999.3156, 197.6534
999.7977, 198.2273
1000.280, 198.6294
1000.762, 198.9682
1001.244, 199.3549
1001.726, 199.7483
1002.208, 200.0754
1002.690, 200.2254
1003.173, 200.5023
1003.655, 200.9646
1004.137, 201.4558
1004.619, 201.7734
1005.101, 201.9833
1005.583, 202.3006
1006.065, 202.7375
1006.547, 203.2104
1007.029, 203.7646
1007.512, 204.2499
1007.994, 204.4874
1008.476, 204.5620
1008.958, 204.8806
1009.440, 205.4941
1009.922, 206.0172
1010.404, 206.3240
1010.886, 206.5100
1011.369, 206.5326
1011.851, 206.5877
1012.333, 207.0829
1012.815, 208.5475
1013.297, 209.4218
1013.779, 209.1130
1014.261, 208.5708
1014.743, 208.4436
1015.225, 208.7085
1015.708, 208.8326
1016.190, 208.8347
1016.672, 209.0054
1017.154, 209.8419
1017.636, 210.6272
1018.118, 210.6149
1018.600, 210.1160
1019.082, 210.2053
1019.565, 211.1531
1020.047, 212.0968
1020.529, 212.9496
1021.011, 213.6234
1021.493, 213.8291
1021.975, 213.8158
1022.457, 214.1672
1022.939, 215.0273
1023.421, 215.8163
1023.904, 216.2827
1024.386, 216.6024
1024.868, 216.8811
1025.350, 217.1127
1025.832, 217.1582
1026.314, 217.0238
1026.796, 217.0941
1027.278, 217.6226
1027.760, 218.3456
1028.243, 219.1647
1028.725, 219.9507
1029.207, 220.4737
1029.689, 220.5336
1030.171, 220.6025
1030.653, 220.7286
1031.135, 220.7821
1031.617, 220.3897
1032.100, 219.8561
1032.582, 220.1959
1033.064, 221.3952
1033.546, 222.6122
1034.028, 223.4201
1034.510, 224.1299
1034.992, 225.0290
1035.474, 225.9186
1035.957, 225.9671
1036.439, 225.0938
1036.921, 224.8568
1037.403, 225.7096
1037.885, 227.0117
1038.367, 228.1735
1038.849, 229.2901
1039.331, 230.5944
1039.813, 232.4353
1040.296, 233.0160
1040.778, 231.6061
1041.260, 230.2828
1041.742, 230.3521
1042.224, 231.3281
1042.706, 231.5527
1043.188, 231.1901
1043.670, 230.8947
1044.152, 230.7947
1044.635, 231.0394
1045.117, 232.0607
1045.599, 233.2624
1046.081, 233.9061
1046.563, 233.9621
1047.045, 233.5850
1047.527, 232.7309
1048.009, 232.1055
1048.492, 232.6008
1048.974, 233.4796
1049.456, 234.0241
1049.938, 234.2053
1050.420, 234.2405
1050.902, 234.1023
1051.384, 233.9620
1051.866, 233.8493
1052.349, 233.7766
1052.831, 233.7824
1053.313, 233.8445
1053.795, 233.9214
1054.277, 234.0281
1054.759, 234.0292
1055.241, 233.6682
1055.723, 233.3492
1056.205, 233.3393
1056.688, 233.6297
1057.170, 233.9915
1057.652, 234.4254
1058.134, 234.7005
1058.616, 234.7094
1059.098, 234.4985
1059.580, 233.9373
1060.062, 233.2302
1060.544, 232.7794
1061.027, 232.8904
1061.509, 232.6889
1061.991, 232.0205
1062.473, 231.3861
1062.955, 231.4415
1063.437, 231.8356
1063.919, 231.7359
1064.401, 231.1613
1064.884, 230.6855
1065.366, 230.7554
1065.848, 230.7164
1066.330, 230.2438
1066.812, 229.6261
1067.294, 229.6624
1067.776, 230.2568
1068.258, 230.3059
1068.740, 229.4907
1069.223, 228.6329
1069.705, 228.4050
1070.187, 228.4018
1070.669, 228.2508
1071.151, 227.9165
1071.633, 227.8373
1072.115, 228.1167
1072.597, 228.1108
1073.079, 227.3652
1073.562, 226.4048
1074.044, 225.9870
1074.526, 225.9483
1075.008, 225.9762
1075.490, 225.9463
1075.972, 226.0921
1076.454, 226.6518
1076.936, 227.0246
1077.419, 226.4981
1077.901, 225.3551
1078.383, 225.0146
1078.865, 225.3788
1079.347, 225.6752
1079.829, 225.5677
1080.311, 225.1916
1080.793, 224.2741
1081.275, 223.2696
1081.758, 222.9788
1082.240, 223.4453
1082.722, 223.7874
1083.204, 223.9096
1083.686, 223.7899
1084.168, 223.2289
1084.650, 222.5540
1085.132, 221.9095
1085.615, 221.3674
1086.097, 221.6401
1086.579, 223.2067
1087.061, 224.0845
1087.543, 223.5112
1088.025, 222.4037
1088.507, 222.1718
1088.989, 222.4861
1089.471, 222.7923
1089.953, 223.0113
1090.436, 223.0315
1090.918, 222.4856
1091.400, 222.2173
1091.882, 222.8419
1092.364, 224.0670
1092.846, 224.4605
1093.328, 224.1866
1093.810, 224.0596
1094.293, 224.6798
1094.775, 225.2114
1095.257, 225.0714
1095.739, 224.7701
1096.221, 224.9012
1096.703, 225.5451
1097.185, 225.8662
1097.667, 225.8415
1098.150, 225.8292
1098.632, 226.0727
1099.114, 226.4610
1099.596, 227.1692
1100.078, 227.9405
1100.560, 227.9131
1101.042, 226.6577
1101.524, 225.8392
1102.006, 225.7301
1102.489, 225.8768
1102.971, 225.8728
1103.453, 225.7229
1103.935, 225.3914
1104.417, 224.8827
1104.899, 224.4201
1105.381, 224.1165
1105.863, 223.8010
1106.345, 223.5260
1106.828, 223.1003
1107.310, 221.9107
1107.792, 220.2315
1108.274, 218.9715
1108.756, 218.4129
1109.238, 217.8811
1109.720, 217.0505
1110.202, 216.1606
1110.685, 215.3660
1111.167, 214.6392
1111.649, 213.8644
1112.131, 213.0350
1112.613, 212.0365
1113.095, 210.7921
1113.577, 209.4512
1114.059, 208.0099
1114.542, 206.6142
1115.024, 205.4580
1115.506, 204.5972
1115.988, 203.6873
1116.470, 202.7469
1116.952, 201.5641
1117.434, 199.7388
1117.916, 197.8065
1118.398, 196.4041
1118.880, 195.3512
1119.363, 194.2007
1119.845, 192.7901
1120.327, 191.4831
1120.809, 190.3637
1121.291, 189.1947
1121.773, 187.6747
1122.255, 185.9781
1122.737, 184.3829
1123.220, 182.9024
1123.702, 181.4953
1124.184, 180.2100
1124.666, 178.9254
1125.148, 177.5600
1125.630, 176.2791
1126.112, 175.5569
1126.594, 175.1275
1127.077, 173.9791
1127.559, 171.9288
1128.041, 170.3253
1128.523, 170.5266
1129.005, 170.5198
1129.487, 169.3488
1129.969, 167.3802
1130.451, 165.5514
1130.933, 163.8930
1131.416, 162.7745
1131.898, 162.4074
1132.380, 162.0591
1132.862, 161.1374
1133.344, 160.0986
1133.826, 159.3052
1134.308, 158.7525
1134.790, 158.2153
1135.272, 157.6908
1135.755, 157.0360
1136.237, 156.1332
1136.719, 155.1604
1137.201, 154.2378
1137.683, 153.3799
1138.165, 152.6149
1138.647, 151.9464
1139.129, 151.3340
1139.612, 150.7603
1140.094, 150.3792
1140.576, 150.5786
1141.058, 150.7890
1141.540, 150.1943
1142.022, 149.0716
1142.504, 147.9934
1142.986, 146.9061
1143.469, 146.2472
1143.951, 146.1372
1144.433, 146.1038
1144.915, 145.6659
1145.397, 145.0557
1145.879, 144.6703
1146.361, 144.4963
1146.843, 144.4226
1147.325, 144.5947
1147.807, 144.5938
1148.290, 144.3323
1148.772, 143.9533
1149.254, 143.4778
1149.736, 143.0549
1150.218, 143.2681
1150.700, 144.0710
1151.182, 144.4286
1151.664, 143.4755
1152.147, 142.5067
1152.629, 141.8114
1153.111, 141.3870
1153.593, 141.3258
1154.075, 141.5510
1154.557, 141.8107
1155.039, 142.0790
1155.521, 142.1216
1156.004, 141.6207
1156.486, 141.0573
1156.968, 140.6160
1157.450, 140.3086
1157.932, 140.2108
1158.414, 140.2909
1158.896, 140.3228
1159.378, 140.2546
1159.860, 140.1182
1160.343, 139.8946
1160.825, 139.6441
1161.307, 139.3570
1161.789, 139.0668
1162.271, 139.1257
1162.753, 139.5114
1163.235, 139.6746
1163.717, 139.2898
1164.199, 138.9478
1164.682, 139.3354
1165.164, 139.8584
1165.646, 139.8738
1166.128, 139.3391
1166.610, 139.0679
1167.092, 139.0745
1167.574, 138.9741
1168.056, 138.4790
1168.539, 137.9475
1169.021, 137.6915
1169.503, 137.6053
1169.985, 137.5371
1170.467, 137.4395
1170.949, 137.6161
1171.431, 138.1297
1171.913, 138.3616
1172.396, 137.7482
1172.878, 136.8076
1173.360, 135.8320
1173.842, 134.9887
1174.324, 134.6310
1174.806, 134.9490
1175.288, 135.2869
1175.770, 135.6701
1176.252, 135.8478
1176.734, 135.5002
1177.217, 134.9227
1177.699, 134.4268
1178.181, 134.0059
1178.663, 133.6345
1179.145, 133.2757
1179.627, 133.0682
1180.109, 133.0780
1180.591, 133.0165
1181.074, 132.4773
1181.556, 131.7832
1182.038, 131.4202
1182.520, 131.3319
1183.002, 131.1328
1183.484, 130.6865
1183.966, 130.3115
1184.448, 130.0978
1184.931, 129.8152
1185.413, 129.0265
1185.895, 128.0761
1186.377, 127.5736
1186.859, 127.4995
1187.341, 127.3477
1187.823, 126.9034
1188.305, 126.6321
1188.787, 126.6923
1189.270, 126.7773
1189.752, 126.3805
1190.234, 125.7510
1190.716, 125.3706
1191.198, 125.2747
1191.680, 124.9425
1192.162, 124.0664
1192.644, 123.3367
1193.126, 122.9524
1193.609, 122.7201
1194.091, 122.2452
1194.573, 121.7319
1195.055, 121.6474
1195.537, 122.0883
1196.019, 122.3135
1196.501, 122.0248
1196.983, 121.7768
1197.466, 121.8057
1197.948, 121.8364
1198.430, 121.2159
1198.912, 120.2580
1199.394, 119.5753
1199.876, 119.3000
1200.358, 119.2339
1200.840, 119.5632
1201.323, 119.6540
1201.805, 119.1773
1202.287, 118.4664
1202.769, 118.2812
1203.251, 118.3780
1203.733, 118.2286
1204.215, 117.6619
1204.697, 117.0881
1205.179, 116.4988
1205.661, 116.0582
1206.144, 115.8516
1206.626, 115.8346
1207.108, 115.9957
1207.590, 116.2524
1208.072, 116.4609
1208.554, 116.6681
1209.036, 116.4612
1209.518, 115.4897
1210.001, 114.7119
1210.483, 114.6499
1210.965, 115.0727
1211.447, 115.6841
1211.929, 116.2924
1212.411, 116.4286
1212.893, 115.5954
1213.375, 115.2966
1213.858, 115.9322
1214.340, 116.5955
1214.822, 116.8119
1215.304, 116.6824
1215.786, 116.2839
1216.268, 115.7650
1216.750, 115.4798
1217.232, 115.6686
1217.714, 115.7767
1218.197, 115.6042
1218.679, 115.7010
1219.161, 116.7569
1219.643, 118.0787
1220.125, 118.0721
1220.607, 117.1672
1221.089, 116.3534
1221.571, 115.8502
1222.053, 115.6371
1222.536, 115.7781
1223.018, 116.0128
1223.500, 116.2032
1223.982, 116.3464
1224.464, 116.4275
1224.946, 116.4554
1225.428, 116.4477
1225.910, 116.3156
1226.393, 116.3112
1226.875, 116.4413
1227.357, 116.6843
1227.839, 117.2353
1228.321, 117.7546
1228.803, 117.4419
1229.285, 116.6878
1229.767, 116.4135
1230.250, 117.3865
1230.732, 117.6517
1231.214, 116.9983
1231.696, 116.3739
1232.178, 116.7862
1232.660, 117.4592
1233.142, 117.0970
1233.624, 116.1862
1234.106, 115.9557
1234.589, 117.1917
1235.071, 117.3708
1235.553, 116.2568
1236.035, 115.0517
1236.517, 114.7929
1236.999, 114.8619
1237.481, 114.5583
1237.963, 114.0371
1238.445, 113.6889
1238.928, 113.6521
1239.410, 113.3724
1239.892, 112.8084
1240.374, 112.1718
1240.856, 111.4845
1241.338, 110.9265
1241.820, 110.8986
1242.302, 111.0420
1242.785, 110.5809
1243.267, 109.3282
1243.749, 108.3443
1244.231, 107.6732
1244.713, 107.1848
1245.195, 107.0452
1245.677, 106.7911
1246.159, 105.8925
1246.641, 104.7144
1247.124, 103.9738
1247.606, 103.7287
1248.088, 103.1903
1248.570, 102.3387
1249.052, 101.6390
1249.534, 101.5762
1250.016, 101.5627
1250.498, 101.3486
1250.980, 100.9003
1251.463, 100.1347
1251.945, 99.05445
1252.427, 97.83457
1252.909, 96.52242
1253.391, 95.55794
1253.873, 95.53972
1254.355, 95.55380
1254.837, 95.16777
1255.320, 94.64416
1255.802, 94.30130
1256.284, 94.09326
1256.766, 93.64909
1257.248, 93.00780
1257.730, 92.53489
1258.212, 92.72160
1258.694, 92.67129
1259.177, 92.02451
1259.659, 91.25754
1260.141, 90.98837
1260.623, 90.99340
1261.105, 90.34515
1261.587, 89.19798
1262.069, 88.41303
1262.551, 88.77132
1263.033, 88.87745
1263.516, 88.42669
1263.998, 87.30183
1264.480, 87.68378
1264.962, 87.82186
1265.444, 87.72929
1265.926, 86.71498
1266.408, 86.89088
1266.890, 86.58978
1267.372, 86.26916
1267.855, 86.61217
1268.337, 85.73192
1268.819, 86.06480
1269.301, 85.91339
1269.783, 85.98365
1270.265, 85.57395
1270.747, 85.31253
1271.229, 85.53113
1271.712, 84.67018
1272.194, 83.75055
1272.676, 84.20773
1273.158, 84.42115
1273.640, 84.40383
1274.122, 83.46485
1274.604, 83.71602
1275.086, 83.49022
1275.568, 83.24489
1276.051, 83.66337
1276.533, 82.85845
1277.015, 83.26660
1277.497, 83.19054
1277.979, 83.33607
1278.461, 83.00171
1278.943, 82.81559
1279.425, 82.49244
1279.907, 81.79675
1280.390, 81.62446
1280.872, 81.90939
1281.354, 81.99145
1281.836, 81.24962
1282.318, 80.57822
1282.800, 80.23850
1283.282, 80.15605
1283.764, 80.44158
1284.247, 80.95116
1284.729, 80.82201
1285.211, 80.23271
1285.693, 79.86734
1286.175, 80.24072
1286.657, 80.51627
1287.139, 80.63426
1287.621, 80.55997
1288.104, 80.11201
1288.586, 79.53979
1289.068, 79.35596
1289.550, 79.46958
1290.032, 79.67892
1290.514, 80.18714
1290.996, 80.20945
1291.478, 79.62398
1291.960, 79.05944
1292.443, 78.95719
1292.925, 79.04322
1293.407, 79.05161
1293.889, 78.98698
1294.371, 78.84558
1294.853, 78.62361
1295.335, 78.34911
1295.817, 78.01550
1296.299, 77.82160
1296.782, 77.99632
1297.264, 78.14055
1297.746, 77.85880
1298.228, 77.46658
1298.710, 77.30273
1299.192, 77.35430
1299.674, 77.27686
1300.156, 77.10084
1300.639, 77.02744
1301.121, 77.23076
1301.603, 77.34103
1302.085, 77.17412
1302.567, 76.89427
1303.049, 76.57063
1303.531, 76.19210
##END=



