##NAMES=Kidwellite
##RRUFFID=R060324
##IDEAL CHEMISTRY=NaFe^3+^_9+x_(PO_4_)_6_(OH)_11_&#183;3H_2_O (x &#8776; 1/3)
##LOCALITY=York mine, Polk County, Arkansas, USA
##OWNER=RRUFF
##SOURCE=Michael Scott
##DESCRIPTION=Light green radiating acicular crystals forming a spherical mat
##STATUS=The identification of this mineral has been confirmed by X-ray diffraction and chemical analysis
##URL=rruff.info/R060324
##MEASURED CHEMISTRY=(Na_0.98_Ca_0.02_)_Σ=1_(Fe^3+^_8.77_Al_0.21_Fe^2+^_0.02_)_Σ=9_(P_1.00_O_4_)_6_(OH)_11_·3H_2_O; OH estimated by charge balance; H_2_O by difference
90.97430, 49.97829
91.45642, 49.93938
91.93854, 49.81544
92.42065, 49.81592
92.90277, 50.44896
93.38489, 51.90859
93.86700, 53.28809
94.34912, 53.43872
94.83124, 52.48561
95.31335, 51.12512
95.79547, 49.31665
96.27759, 47.32863
96.75970, 46.27934
97.24182, 46.52046
97.72394, 47.54255
98.20605, 48.35299
98.68817, 48.95299
99.17029, 49.34465
99.65240, 49.52126
100.1345, 49.47803
100.6166, 49.26323
101.0988, 48.80305
101.5809, 48.15075
102.0630, 47.80981
102.5451, 47.94137
103.0272, 48.09288
103.5093, 47.70552
103.9915, 46.56983
104.4736, 45.42486
104.9557, 44.29878
105.4378, 43.00733
105.9199, 42.89791
106.4020, 44.87500
106.8842, 47.59099
107.3663, 48.65955
107.8484, 46.75756
108.3305, 44.72681
108.8126, 43.56596
109.2947, 44.01860
109.7769, 44.10474
110.2590, 43.58011
110.7411, 42.64425
111.2232, 41.93164
111.7053, 41.51716
112.1874, 41.28135
112.6696, 41.17512
113.1517, 41.27526
113.6338, 41.41695
114.1159, 41.63198
114.5980, 41.89853
115.0801, 42.06805
115.5623, 41.68435
116.0444, 41.39161
116.5265, 41.68613
117.0086, 43.48759
117.4907, 45.21030
117.9728, 46.35102
118.4550, 46.88754
118.9371, 46.88689
119.4192, 45.91142
119.9013, 44.51759
120.3834, 43.42990
120.8655, 42.90375
121.3477, 42.81197
121.8298, 43.21840
122.3119, 44.22719
122.7940, 45.16010
123.2761, 45.53778
123.7582, 45.47926
124.2404, 45.24966
124.7225, 44.68678
125.2046, 44.13530
125.6867, 44.02022
126.1688, 44.41774
126.6509, 45.21709
127.1331, 46.44871
127.6152, 48.04762
128.0973, 49.69087
128.5794, 51.03461
129.0615, 52.25496
129.5436, 53.72168
130.0258, 55.39129
130.5079, 57.48175
130.9900, 60.42117
131.4721, 64.18398
131.9542, 68.64233
132.4363, 73.96937
132.9185, 80.04110
133.4006, 85.87449
133.8827, 90.54292
134.3648, 94.84398
134.8469, 102.2315
135.3290, 113.0098
135.8112, 125.5950
136.2933, 137.9945
136.7754, 150.1819
137.2575, 163.3719
137.7396, 177.6025
138.2217, 192.6815
138.7039, 211.4614
139.1860, 234.9992
139.6681, 260.6331
140.1502, 284.7713
140.6323, 306.7230
141.1144, 328.6942
141.5966, 351.8434
142.0787, 376.6034
142.5608, 400.1452
143.0429, 422.6109
143.5250, 443.7414
144.0071, 462.6204
144.4893, 478.3208
144.9714, 493.0067
145.4535, 507.1454
145.9356, 519.4983
146.4177, 534.1144
146.8998, 551.5795
147.3820, 571.4379
147.8641, 592.5223
148.3462, 613.4138
148.8283, 636.5919
149.3104, 663.7050
149.7925, 696.4941
150.2747, 730.8181
150.7568, 766.4143
151.2389, 803.1840
151.7210, 840.0364
152.2031, 875.9929
152.6852, 912.2366
153.1674, 949.9133
153.6495, 993.3586
154.1316, 1033.403
154.6137, 1067.661
155.0958, 1096.009
155.5779, 1124.524
156.0601, 1153.788
156.5422, 1183.637
157.0243, 1213.591
157.5064, 1245.193
157.9885, 1275.406
158.4706, 1303.062
158.9528, 1327.882
159.4349, 1352.176
159.9170, 1374.964
160.3991, 1398.000
160.8812, 1423.317
161.3633, 1453.062
161.8455, 1483.958
162.3276, 1514.604
162.8097, 1544.214
163.2918, 1574.809
163.7739, 1605.684
164.2560, 1636.219
164.7382, 1657.867
165.2203, 1681.616
165.7024, 1707.361
166.1845, 1733.052
166.6666, 1758.721
167.1487, 1783.747
167.6309, 1807.489
168.1130, 1830.662
168.5951, 1854.332
169.0772, 1880.858
169.5593, 1907.378
170.0414, 1931.438
170.5236, 1952.454
171.0057, 1971.609
171.4878, 1990.537
171.9699, 2008.760
172.4520, 2024.381
172.9341, 2035.725
173.4163, 2044.338
173.8984, 2051.865
174.3805, 2058.347
174.8626, 2064.384
175.3447, 2071.511
175.8268, 2079.210
176.3090, 2085.091
176.7911, 2085.910
177.2732, 2084.087
177.7553, 2083.880
178.2374, 2088.215
178.7195, 2092.499
179.2017, 2090.061
179.6838, 2081.417
180.1659, 2071.591
180.6480, 2063.535
181.1301, 2057.169
181.6122, 2052.314
182.0944, 2050.052
182.5765, 2048.446
183.0586, 2043.864
183.5407, 2036.421
184.0228, 2028.036
184.5049, 2020.678
184.9871, 2013.903
185.4692, 2006.265
185.9513, 1996.082
186.4334, 1985.142
186.9155, 1978.029
187.3976, 1975.032
187.8798, 1972.846
188.3619, 1967.817
188.8440, 1960.362
189.3261, 1953.485
189.8082, 1948.561
190.2903, 1944.943
190.7725, 1940.111
191.2546, 1933.846
191.7367, 1927.197
192.2188, 1921.367
192.7009, 1916.252
193.1830, 1910.897
193.6652, 1904.675
194.1473, 1897.766
194.6294, 1891.565
195.1115, 1885.986
195.5936, 1881.358
196.0757, 1878.577
196.5579, 1877.714
197.0400, 1876.623
197.5221, 1874.547
198.0042, 1871.532
198.4863, 1867.611
198.9684, 1862.418
199.4506, 1857.194
199.9327, 1853.969
200.4148, 1852.877
200.8969, 1852.331
201.3790, 1851.752
201.8611, 1851.128
202.3433, 1850.736
202.8254, 1850.807
203.3075, 1850.683
203.7896, 1848.989
204.2717, 1845.361
204.7538, 1841.824
205.2360, 1839.163
205.7181, 1837.397
206.2002, 1836.287
206.6823, 1836.189
207.1644, 1836.304
207.6465, 1835.099
208.1287, 1832.381
208.6108, 1829.140
209.0929, 1825.837
209.5750, 1822.556
210.0571, 1818.871
210.5392, 1814.787
211.0214, 1810.354
211.5035, 1805.547
211.9856, 1800.293
212.4677, 1795.112
212.9498, 1790.303
213.4319, 1786.077
213.9140, 1781.623
214.3962, 1777.036
214.8783, 1772.111
215.3604, 1766.212
215.8425, 1758.543
216.3246, 1751.485
216.8067, 1746.402
217.2889, 1744.340
217.7710, 1740.685
218.2531, 1735.109
218.7352, 1727.997
219.2173, 1719.875
219.6994, 1709.860
220.1816, 1700.413
220.6637, 1692.646
221.1458, 1687.246
221.6279, 1681.394
222.1100, 1674.367
222.5921, 1667.144
223.0743, 1662.386
223.5564, 1661.604
224.0385, 1660.774
224.5206, 1657.898
225.0027, 1651.824
225.4848, 1646.781
225.9670, 1642.831
226.4491, 1640.015
226.9312, 1638.587
227.4133, 1639.438
227.8954, 1640.244
228.3775, 1639.696
228.8597, 1636.559
229.3418, 1635.073
229.8239, 1635.976
230.3060, 1638.296
230.7881, 1639.389
231.2702, 1638.922
231.7524, 1637.627
232.2345, 1635.720
232.7166, 1632.715
233.1987, 1630.217
233.6808, 1629.049
234.1629, 1628.197
234.6451, 1624.684
235.1272, 1617.086
235.6093, 1609.068
236.0914, 1602.527
236.5735, 1599.264
237.0556, 1593.317
237.5378, 1583.223
238.0199, 1570.945
238.5020, 1561.626
238.9841, 1557.058
239.4662, 1552.701
239.9483, 1546.567
240.4305, 1538.021
240.9126, 1529.249
241.3947, 1519.789
241.8768, 1510.211
242.3589, 1501.994
242.8410, 1495.628
243.3232, 1489.805
243.8053, 1483.850
244.2874, 1476.849
244.7695, 1471.904
245.2516, 1469.460
245.7337, 1468.848
246.2159, 1468.700
246.6980, 1469.427
247.1801, 1469.988
247.6622, 1469.574
248.1443, 1466.719
248.6264, 1467.167
249.1086, 1471.727
249.5907, 1479.195
250.0728, 1487.087
250.5549, 1495.017
251.0370, 1504.022
251.5191, 1514.711
252.0013, 1527.510
252.4834, 1540.110
252.9655, 1551.867
253.4476, 1563.647
253.9297, 1577.221
254.4118, 1593.420
254.8940, 1609.503
255.3761, 1624.067
255.8582, 1636.158
256.3403, 1650.971
256.8224, 1669.412
257.3046, 1689.899
257.7867, 1709.533
258.2688, 1728.488
258.7509, 1746.622
259.2330, 1763.511
259.7151, 1778.974
260.1973, 1795.191
260.6794, 1812.304
261.1615, 1829.757
261.6436, 1846.370
262.1257, 1862.318
262.6078, 1877.326
263.0900, 1891.042
263.5721, 1903.476
264.0542, 1915.520
264.5363, 1927.253
265.0184, 1938.582
265.5005, 1949.846
265.9827, 1961.070
266.4648, 1971.767
266.9469, 1981.523
267.4290, 1990.250
267.9111, 1999.687
268.3932, 2010.407
268.8754, 2020.818
269.3575, 2028.789
269.8396, 2033.688
270.3217, 2038.842
270.8038, 2045.398
271.2859, 2053.274
271.7681, 2059.209
272.2502, 2062.456
272.7323, 2065.342
273.2144, 2070.744
273.6965, 2079.524
274.1786, 2086.294
274.6608, 2089.714
275.1429, 2090.118
275.6250, 2089.974
276.1071, 2089.300
276.5892, 2088.061
277.0714, 2086.613
277.5535, 2085.160
278.0356, 2081.591
278.5177, 2074.947
278.9998, 2066.056
279.4819, 2058.923
279.9641, 2054.204
280.4462, 2048.302
280.9283, 2037.294
281.4104, 2021.074
281.8925, 2006.725
282.3746, 1996.119
282.8568, 1987.477
283.3389, 1975.604
283.8210, 1960.225
284.3031, 1943.627
284.7852, 1927.225
285.2673, 1911.094
285.7495, 1894.326
286.2316, 1876.602
286.7137, 1858.416
287.1958, 1840.732
287.6779, 1823.531
288.1600, 1806.719
288.6422, 1790.660
289.1243, 1774.991
289.6064, 1758.298
290.0885, 1740.063
290.5706, 1721.258
291.0527, 1703.151
291.5349, 1685.775
292.0170, 1669.288
292.4991, 1654.701
292.9812, 1641.257
293.4633, 1626.382
293.9454, 1609.539
294.4276, 1592.630
294.9097, 1578.282
295.3918, 1566.210
295.8739, 1555.230
296.3560, 1544.763
296.8381, 1535.000
297.3203, 1526.847
297.8024, 1520.419
298.2845, 1514.800
298.7666, 1509.418
299.2487, 1504.172
299.7308, 1498.600
300.2130, 1492.091
300.6951, 1485.299
301.1772, 1479.098
301.6593, 1473.518
302.1414, 1468.700
302.6235, 1465.316
303.1057, 1462.818
303.5878, 1460.142
304.0699, 1456.434
304.5520, 1452.760
305.0341, 1450.429
305.5162, 1449.356
305.9984, 1448.724
306.4805, 1448.233
306.9626, 1447.749
307.4447, 1447.064
307.9268, 1445.948
308.4089, 1444.794
308.8911, 1444.219
309.3732, 1443.988
309.8553, 1443.180
310.3374, 1441.376
310.8195, 1438.654
311.3016, 1434.731
311.7838, 1428.490
312.2659, 1423.340
312.7480, 1422.771
313.2301, 1425.193
313.7122, 1426.621
314.1943, 1424.593
314.6765, 1421.331
315.1586, 1418.395
315.6407, 1416.156
316.1228, 1413.792
316.6049, 1410.372
317.0870, 1406.648
317.5692, 1403.907
318.0513, 1404.132
318.5334, 1404.139
319.0155, 1401.971
319.4976, 1397.054
319.9797, 1392.727
320.4619, 1390.728
320.9440, 1389.620
321.4261, 1387.822
321.9082, 1384.023
322.3903, 1380.336
322.8724, 1377.518
323.3546, 1375.617
323.8367, 1373.606
324.3188, 1370.541
324.8009, 1367.731
325.2830, 1366.208
325.7651, 1367.749
326.2473, 1368.789
326.7294, 1368.651
327.2115, 1367.493
327.6936, 1366.473
328.1757, 1365.045
328.6578, 1364.256
329.1400, 1364.638
329.6221, 1366.937
330.1042, 1369.385
330.5863, 1372.186
331.0684, 1375.125
331.5505, 1377.451
332.0327, 1377.943
332.5148, 1379.238
332.9969, 1382.688
333.4790, 1389.596
333.9611, 1394.690
334.4432, 1396.845
334.9254, 1397.827
335.4075, 1400.697
335.8896, 1406.293
336.3717, 1412.134
336.8538, 1417.247
337.3359, 1421.519
337.8180, 1426.957
338.3001, 1433.710
338.7823, 1441.413
339.2644, 1449.601
339.7465, 1458.363
340.2286, 1467.594
340.7107, 1477.787
341.1928, 1488.585
341.6750, 1495.924
342.1571, 1499.100
342.6392, 1501.793
343.1213, 1507.479
343.6034, 1516.148
344.0855, 1524.155
344.5677, 1530.674
345.0498, 1536.313
345.5319, 1542.123
346.0140, 1548.081
346.4961, 1554.795
346.9782, 1563.254
347.4604, 1573.053
347.9425, 1581.760
348.4246, 1589.165
348.9067, 1595.738
349.3888, 1601.953
349.8709, 1607.892
350.3531, 1613.933
350.8352, 1620.705
351.3173, 1627.611
351.7994, 1633.636
352.2815, 1638.719
352.7636, 1642.954
353.2458, 1645.611
353.7279, 1647.484
354.2100, 1650.331
354.6921, 1656.416
355.1742, 1662.665
355.6563, 1665.752
356.1385, 1665.818
356.6206, 1664.703
357.1027, 1662.285
357.5848, 1659.883
358.0669, 1659.174
358.5490, 1661.670
359.0312, 1664.334
359.5133, 1665.356
359.9954, 1664.992
360.4775, 1664.084
360.9596, 1662.360
361.4417, 1660.662
361.9239, 1659.561
362.4060, 1659.237
362.8881, 1659.220
363.3702, 1659.520
363.8523, 1659.978
364.3344, 1660.360
364.8166, 1660.564
365.2987, 1660.721
365.7808, 1660.803
366.2629, 1660.778
366.7450, 1661.069
367.2271, 1661.825
367.7093, 1662.918
368.1914, 1664.236
368.6735, 1666.299
369.1556, 1668.045
369.6377, 1668.879
370.1198, 1669.010
370.6020, 1670.244
371.0841, 1673.103
371.5662, 1676.593
372.0483, 1680.188
372.5304, 1684.035
373.0125, 1687.785
373.4947, 1691.613
373.9768, 1695.234
374.4589, 1697.892
374.9410, 1699.075
375.4231, 1700.388
375.9052, 1702.981
376.3874, 1707.386
376.8695, 1708.643
377.3516, 1705.995
377.8337, 1701.502
378.3158, 1697.807
378.7979, 1695.140
379.2801, 1691.490
379.7622, 1686.431
380.2443, 1679.946
380.7264, 1671.377
381.2085, 1660.569
381.6906, 1648.949
382.1728, 1637.726
382.6549, 1626.699
383.1370, 1615.210
383.6191, 1602.786
384.1012, 1590.272
384.5833, 1579.060
385.0655, 1568.975
385.5476, 1558.846
386.0297, 1547.434
386.5118, 1535.512
386.9939, 1524.003
387.4760, 1512.964
387.9582, 1503.007
388.4403, 1494.804
388.9224, 1488.010
389.4045, 1481.940
389.8866, 1476.313
390.3687, 1471.198
390.8509, 1466.310
391.3330, 1461.778
391.8151, 1458.844
392.2972, 1459.532
392.7793, 1461.618
393.2614, 1462.942
393.7436, 1462.349
394.2257, 1461.738
394.7078, 1461.649
395.1899, 1462.127
395.6720, 1463.299
396.1541, 1465.200
396.6363, 1467.826
397.1184, 1471.027
397.6005, 1474.470
398.0826, 1479.541
398.5647, 1487.218
399.0468, 1496.379
399.5290, 1505.664
400.0111, 1515.279
400.4932, 1524.689
400.9753, 1533.381
401.4574, 1541.403
401.9395, 1550.859
402.4217, 1562.151
402.9038, 1574.502
403.3859, 1587.436
403.8680, 1600.984
404.3501, 1615.110
404.8322, 1629.897
405.3144, 1645.144
405.7965, 1659.856
406.2786, 1673.976
406.7607, 1687.994
407.2428, 1701.626
407.7249, 1714.858
408.2071, 1730.753
408.6892, 1749.967
409.1713, 1770.140
409.6534, 1788.290
410.1355, 1804.443
410.6176, 1820.669
411.0998, 1837.880
411.5819, 1855.509
412.0640, 1872.402
412.5461, 1888.422
413.0282, 1903.677
413.5103, 1918.265
413.9925, 1931.933
414.4746, 1944.212
414.9567, 1954.864
415.4388, 1964.651
415.9209, 1975.260
416.4030, 1985.767
416.8852, 1994.166
417.3673, 1998.644
417.8494, 2000.990
418.3315, 2002.740
418.8136, 2003.967
419.2957, 2003.893
419.7779, 2001.793
420.2600, 1998.291
420.7421, 1994.056
421.2242, 1989.847
421.7063, 1984.334
422.1884, 1976.871
422.6706, 1967.719
423.1527, 1957.541
423.6348, 1946.609
424.1169, 1934.753
424.5990, 1921.698
425.0811, 1907.103
425.5633, 1892.271
426.0454, 1877.273
426.5275, 1862.124
427.0096, 1846.555
427.4917, 1829.946
427.9738, 1814.014
428.4560, 1799.124
428.9381, 1785.141
429.4202, 1772.213
429.9023, 1761.414
430.3844, 1749.957
430.8665, 1735.175
431.3487, 1716.062
431.8308, 1699.979
432.3129, 1688.319
432.7950, 1678.961
433.2771, 1667.504
433.7592, 1653.922
434.2414, 1641.065
434.7235, 1630.636
435.2056, 1622.060
435.6877, 1612.812
436.1698, 1602.821
436.6519, 1593.341
437.1341, 1586.030
437.6162, 1580.364
438.0983, 1574.774
438.5804, 1568.734
439.0625, 1562.778
439.5446, 1557.268
440.0268, 1552.308
440.5089, 1548.248
440.9910, 1545.468
441.4731, 1543.606
441.9552, 1542.188
442.4373, 1541.064
442.9195, 1541.073
443.4016, 1543.679
443.8837, 1547.332
444.3658, 1550.139
444.8479, 1549.068
445.3300, 1549.569
445.8122, 1553.859
446.2943, 1561.588
446.7764, 1569.657
447.2585, 1577.975
447.7406, 1586.235
448.2227, 1594.312
448.7049, 1601.954
449.1870, 1609.667
449.6691, 1616.532
450.1512, 1623.900
450.6333, 1633.975
451.1154, 1648.109
451.5976, 1662.256
452.0797, 1675.438
452.5618, 1687.702
453.0439, 1698.763
453.5260, 1708.096
454.0081, 1717.198
454.4903, 1727.093
454.9724, 1737.696
455.4545, 1749.093
455.9366, 1761.376
456.4187, 1774.073
456.9008, 1785.652
457.3830, 1796.512
457.8651, 1808.373
458.3472, 1823.641
458.8293, 1840.140
459.3114, 1854.389
459.7935, 1866.244
460.2757, 1876.577
460.7578, 1884.708
461.2399, 1892.021
461.7220, 1900.694
462.2041, 1912.901
462.6862, 1923.996
463.1684, 1929.989
463.6505, 1932.584
464.1326, 1935.578
464.6147, 1942.248
465.0968, 1948.265
465.5789, 1951.724
466.0611, 1952.565
466.5432, 1950.199
467.0253, 1942.621
467.5074, 1932.754
467.9895, 1923.087
468.4716, 1915.471
468.9538, 1905.646
469.4359, 1893.136
469.9180, 1878.374
470.4001, 1862.596
470.8822, 1846.357
471.3643, 1828.337
471.8465, 1807.621
472.3286, 1783.927
472.8107, 1760.454
473.2928, 1737.251
473.7749, 1714.915
474.2570, 1695.028
474.7392, 1677.578
475.2213, 1659.580
475.7034, 1639.973
476.1855, 1619.951
476.6676, 1601.907
477.1497, 1585.684
477.6319, 1570.639
478.1140, 1556.549
478.5961, 1543.141
479.0782, 1529.658
479.5603, 1515.949
480.0424, 1503.427
480.5246, 1493.463
481.0067, 1485.332
481.4888, 1477.976
481.9709, 1470.885
482.4530, 1464.572
482.9352, 1459.407
483.4173, 1455.248
483.8994, 1451.652
484.3815, 1449.029
484.8636, 1446.461
485.3457, 1443.317
485.8279, 1439.126
486.3100, 1435.931
486.7921, 1435.169
487.2742, 1434.790
487.7563, 1432.912
488.2384, 1428.309
488.7206, 1424.365
489.2027, 1421.948
489.6848, 1420.394
490.1669, 1417.307
490.6490, 1412.459
491.1311, 1406.878
491.6133, 1400.999
492.0954, 1394.811
492.5775, 1388.549
493.0596, 1382.261
493.5417, 1375.860
494.0238, 1369.730
494.5060, 1363.556
494.9881, 1355.689
495.4702, 1345.102
495.9523, 1333.730
496.4344, 1324.750
496.9165, 1317.600
497.3987, 1310.210
497.8808, 1302.125
498.3629, 1292.726
498.8450, 1280.669
499.3271, 1265.609
499.8092, 1251.370
500.2914, 1240.606
500.7735, 1231.235
501.2556, 1220.965
501.7377, 1208.198
502.2198, 1195.885
502.7019, 1184.729
503.1841, 1174.438
503.6662, 1164.142
504.1483, 1153.681
504.6304, 1143.121
505.1125, 1132.618
505.5946, 1122.203
506.0768, 1111.372
506.5589, 1099.711
507.0410, 1088.390
507.5231, 1078.435
508.0052, 1070.046
508.4873, 1061.986
508.9695, 1054.322
509.4516, 1046.880
509.9337, 1039.499
510.4158, 1032.161
510.8979, 1024.610
511.3800, 1016.434
511.8622, 1007.985
512.3443, 999.5753
512.8264, 991.3239
513.3085, 984.2311
513.7906, 980.0768
514.2728, 977.1755
514.7549, 973.1253
515.2370, 966.9684
515.7191, 961.1740
516.2012, 957.8365
516.6833, 955.7653
517.1655, 953.0712
517.6476, 948.9822
518.1297, 944.3534
518.6118, 938.9431
519.0939, 932.9318
519.5760, 928.0958
520.0582, 925.3419
520.5403, 923.2787
521.0224, 921.5880
521.5045, 920.9132
521.9866, 918.5912
522.4688, 913.9783
522.9509, 908.4093
523.4330, 903.2302
523.9151, 898.3236
524.3972, 894.5139
524.8793, 892.3292
525.3615, 891.0944
525.8436, 888.9085
526.3257, 885.7769
526.8078, 882.7657
527.2899, 880.7890
527.7720, 879.3033
528.2542, 877.1364
528.7363, 874.2508
529.2184, 870.8453
529.7005, 866.6878
530.1826, 862.2856
530.6647, 858.2590
531.1469, 854.4740
531.6290, 851.6813
532.1111, 851.1362
532.5932, 851.8565
533.0753, 851.8418
533.5574, 849.2783
534.0396, 847.0566
534.5217, 846.2191
535.0038, 846.8763
535.4859, 847.8115
535.9680, 849.4354
536.4501, 850.8672
536.9323, 851.4687
537.4144, 850.6307
537.8965, 850.6900
538.3786, 851.8015
538.8607, 853.6653
539.3428, 855.9039
539.8250, 858.5606
540.3071, 861.3424
540.7892, 864.1013
541.2713, 866.9695
541.7534, 870.0056
542.2355, 873.2565
542.7177, 877.1621
543.1998, 882.3215
543.6819, 888.2626
544.1640, 894.2618
544.6461, 900.2676
545.1282, 906.3541
545.6104, 912.0394
546.0925, 917.9798
546.5746, 924.9295
547.0567, 933.4423
547.5388, 942.4776
548.0209, 951.9803
548.5031, 961.6545
548.9852, 971.0652
549.4673, 978.6893
549.9494, 987.6180
550.4315, 999.3076
550.9136, 1013.739
551.3958, 1026.043
551.8779, 1035.281
552.3600, 1044.006
552.8421, 1053.918
553.3242, 1065.130
553.8063, 1076.698
554.2885, 1088.898
554.7706, 1100.581
555.2527, 1109.489
555.7348, 1116.144
556.2169, 1123.925
556.6990, 1134.180
557.1812, 1145.474
557.6633, 1156.134
558.1454, 1166.130
558.6275, 1175.383
559.1096, 1183.140
559.5917, 1190.546
560.0739, 1198.774
560.5560, 1207.973
561.0381, 1216.073
561.5202, 1222.321
562.0023, 1227.009
562.4844, 1230.373
562.9666, 1233.408
563.4487, 1233.561
563.9308, 1230.195
564.4129, 1224.204
564.8950, 1217.000
565.3771, 1209.254
565.8593, 1198.898
566.3414, 1185.192
566.8235, 1168.596
567.3056, 1150.336
567.7877, 1130.396
568.2698, 1109.535
568.7520, 1087.220
569.2341, 1064.232
569.7162, 1042.654
570.1983, 1022.753
570.6804, 1003.976
571.1625, 986.1888
571.6447, 969.3428
572.1268, 953.4164
572.6089, 938.2512
573.0910, 924.0271
573.5731, 910.7390
574.0552, 898.4041
574.5374, 886.7505
575.0195, 874.9460
575.5016, 864.7225
575.9837, 857.3266
576.4658, 852.5534
576.9479, 847.0920
577.4301, 839.8129
577.9122, 833.1678
578.3943, 828.3160
578.8764, 825.6627
579.3585, 822.7252
579.8406, 819.5153
580.3228, 815.9880
580.8049, 811.7160
581.2870, 806.8016
581.7691, 802.9485
582.2512, 800.5941
582.7333, 799.1102
583.2155, 797.7486
583.6975, 796.5042
584.1796, 795.3148
584.6617, 794.5394
585.1439, 793.5214
585.6260, 791.2173
586.1081, 787.9495
586.5902, 785.3669
587.0723, 785.3738
587.5544, 785.4073
588.0366, 783.7694
588.5187, 779.7913
589.0008, 776.3701
589.4829, 773.9005
589.9650, 772.0976
590.4471, 771.0555
590.9293, 772.2348
591.4114, 770.5457
591.8935, 764.6465
592.3756, 756.8450
592.8577, 751.3352
593.3398, 748.2842
593.8220, 745.5176
594.3041, 742.5402
594.7862, 739.2482
595.2683, 735.1707
595.7504, 730.4449
596.2325, 725.8165
596.7147, 721.2982
597.1968, 717.3997
597.6789, 715.2181
598.1610, 714.8701
598.6431, 713.6387
599.1252, 708.8827
599.6074, 703.2899
600.0895, 699.1334
600.5716, 698.1051
601.0537, 696.2784
601.5358, 692.7820
602.0179, 688.3088
602.5001, 683.6180
602.9822, 678.2244
603.4643, 673.6731
603.9464, 670.3076
604.4285, 667.8936
604.9106, 665.6994
605.3928, 663.7780
605.8749, 661.6915
606.3570, 659.1086
606.8391, 656.1959
607.3212, 653.3435
607.8033, 650.5720
608.2855, 648.1893
608.7676, 646.7346
609.2497, 645.7084
609.7318, 644.4062
610.2139, 642.5791
610.6960, 641.1307
611.1782, 640.8915
611.6603, 641.1399
612.1424, 641.1066
612.6245, 639.5154
613.1066, 638.9787
613.5887, 640.4658
614.0709, 643.0946
614.5530, 645.2429
615.0351, 646.9608
615.5172, 647.9138
615.9993, 647.4385
616.4814, 646.1318
616.9636, 647.5067
617.4457, 651.7365
617.9278, 656.5833
618.4099, 660.7689
618.8920, 664.4393
619.3741, 667.9612
619.8563, 671.3735
620.3384, 675.0078
620.8205, 679.3514
621.3026, 683.9877
621.7847, 688.3370
622.2668, 692.1469
622.7490, 696.1682
623.2311, 701.1293
623.7132, 706.3903
624.1953, 711.1340
624.6774, 714.0623
625.1595, 717.9283
625.6417, 723.5974
626.1238, 730.3478
626.6059, 736.0307
627.0880, 740.4502
627.5701, 744.5217
628.0522, 748.6378
628.5344, 752.6765
629.0165, 755.6963
629.4986, 757.6673
629.9807, 760.0043
630.4628, 764.6841
630.9449, 770.1396
631.4271, 773.3266
631.9092, 773.9582
632.3913, 773.8446
632.8734, 774.0359
633.3555, 774.2712
633.8376, 774.3337
634.3198, 774.4021
634.8019, 773.8180
635.2840, 772.4414
635.7661, 770.2827
636.2482, 767.2781
636.7303, 762.4105
637.2125, 758.5002
637.6946, 756.5255
638.1767, 755.4992
638.6588, 752.5374
639.1409, 747.4241
639.6230, 741.7528
640.1052, 735.9900
640.5873, 730.1464
641.0694, 724.3076
641.5515, 718.4479
642.0336, 712.7343
642.5157, 707.9156
642.9979, 702.9544
643.4800, 696.4889
643.9621, 688.2913
644.4442, 680.1700
644.9263, 673.0550
645.4084, 666.2549
645.8906, 659.3301
646.3727, 652.6639
646.8548, 644.9639
647.3369, 635.9974
647.8190, 626.0927
648.3011, 615.6102
648.7833, 604.0468
649.2654, 593.3543
649.7475, 584.0189
650.2296, 575.2733
650.7117, 565.1037
651.1938, 553.5508
651.6760, 542.1854
652.1581, 531.5412
652.6402, 521.3895
653.1223, 511.3260
653.6044, 501.4876
654.0865, 491.8004
654.5687, 482.2505
655.0508, 473.0149
655.5329, 464.2610
656.0150, 456.0622
656.4971, 447.6254
656.9792, 437.7996
657.4614, 428.5068
657.9435, 420.9659
658.4256, 415.9445
658.9077, 409.8454
659.3898, 402.1147
659.8719, 394.2726
660.3541, 388.0990
660.8362, 383.5558
661.3183, 378.5482
661.8004, 372.7104
662.2825, 366.8062
662.7646, 362.1864
663.2468, 358.3139
663.7289, 353.8140
664.2110, 347.4452
664.6931, 341.2418
665.1752, 336.7320
665.6573, 333.4977
666.1395, 330.4336
666.6216, 327.2540
667.1037, 324.1614
667.5858, 321.1286
668.0679, 318.1828
668.5500, 315.7723
669.0322, 314.2789
669.5143, 312.5023
669.9964, 309.5691
670.4785, 305.6222
670.9606, 303.3392
671.4427, 302.8783
671.9249, 302.4193
672.4070, 300.2683
672.8891, 297.0699
673.3712, 294.1993
673.8533, 291.7802
674.3354, 289.5912
674.8176, 287.4041
675.2997, 285.3585
675.7818, 283.6613
676.2639, 282.6031
676.7460, 281.3951
677.2281, 279.7467
677.7103, 277.9306
678.1924, 276.2950
678.6745, 274.9662
679.1566, 273.5631
679.6387, 271.9497
680.1208, 270.3173
680.6030, 269.0943
681.0851, 268.2965
681.5672, 267.4926
682.0493, 266.4339
682.5314, 265.3777
683.0135, 265.0497
683.4957, 265.2079
683.9778, 264.9187
684.4599, 263.1133
684.9420, 261.1307
685.4241, 260.0356
685.9063, 259.7823
686.3884, 259.1065
686.8705, 257.3178
687.3526, 255.3733
687.8347, 253.5359
688.3168, 251.7035
688.7990, 250.9412
689.2811, 251.6689
689.7632, 252.5123
690.2453, 252.3900
690.7274, 251.3608
691.2095, 250.0284
691.6917, 248.3562
692.1738, 246.9643
692.6559, 246.9790
693.1380, 247.6297
693.6201, 247.5095
694.1022, 245.9854
694.5844, 244.5240
695.0665, 244.1093
695.5486, 244.2054
696.0307, 244.1255
696.5128, 243.5894
696.9949, 243.0454
697.4771, 242.6065
697.9592, 242.1572
698.4413, 241.3680
698.9234, 240.0356
699.4055, 239.2245
699.8876, 239.3744
700.3698, 240.0775
700.8519, 240.4021
701.3340, 240.3628
701.8161, 240.0258
702.2982, 239.1650
702.7803, 238.2028
703.2625, 237.7497
703.7446, 237.6711
704.2267, 237.2846
704.7088, 235.7645
705.1909, 234.3132
705.6730, 233.5644
706.1552, 233.6007
706.6373, 233.8467
707.1194, 234.5162
707.6015, 235.0837
708.0836, 235.1704
708.5657, 234.7336
709.0479, 234.7032
709.5300, 235.1497
710.0121, 235.5349
710.4942, 235.1758
710.9763, 234.4048
711.4584, 234.0577
711.9406, 234.2925
712.4227, 234.5352
712.9048, 234.1802
713.3869, 233.7039
713.8690, 233.6871
714.3511, 234.9810
714.8333, 235.4326
715.3154, 233.7689
715.7975, 231.5381
716.2796, 230.4321
716.7617, 230.9540
717.2438, 231.1011
717.7260, 230.4469
718.2081, 229.6283
718.6902, 230.1336
719.1723, 231.7245
719.6544, 232.3598
720.1365, 230.7633
720.6187, 228.9308
721.1008, 229.6625
721.5829, 231.9883
722.0650, 233.6547
722.5471, 233.0388
723.0292, 232.1932
723.5114, 232.1376
723.9935, 232.6248
724.4756, 232.4725
724.9577, 230.9905
725.4398, 229.9038
725.9219, 229.8389
726.4041, 230.5977
726.8862, 231.0488
727.3683, 231.1813
727.8504, 231.1968
728.3325, 231.3233
728.8146, 231.3855
729.2968, 230.6739
729.7789, 229.3322
730.2610, 228.6290
730.7431, 230.3252
731.2252, 232.2451
731.7073, 232.6042
732.1895, 231.1067
732.6716, 229.9397
733.1537, 229.3726
733.6358, 229.3573
734.1179, 230.1512
734.6000, 232.1218
735.0822, 232.5065
735.5643, 230.9566
736.0464, 229.0220
736.5285, 227.9299
737.0106, 227.6078
737.4927, 228.0050
737.9749, 229.2066
738.4570, 230.2266
738.9391, 229.9503
739.4212, 229.1302
739.9033, 228.6436
740.3854, 228.8542
740.8676, 228.9753
741.3497, 228.6877
741.8318, 228.2667
742.3139, 227.9845
742.7960, 227.8591
743.2781, 227.8162
743.7603, 227.8075
744.2424, 227.9437
744.7245, 228.5582
745.2066, 229.5522
745.6887, 230.1403
746.1708, 230.0637
746.6530, 229.6978
747.1351, 229.3767
747.6172, 229.0908
748.0993, 228.8294
748.5814, 228.5786
749.0635, 228.3620
749.5457, 228.0891
750.0278, 227.8749
750.5099, 228.0032
750.9920, 228.9160
751.4741, 229.3187
751.9562, 228.8564
752.4384, 227.8420
752.9205, 226.9714
753.4026, 226.2454
753.8847, 225.8303
754.3668, 225.8860
754.8489, 226.1868
755.3311, 226.6391
755.8132, 227.0912
756.2953, 227.0854
756.7774, 225.6379
757.2595, 224.4372
757.7416, 224.5815
758.2238, 225.7940
758.7059, 226.3960
759.1880, 225.9063
759.6701, 225.4482
760.1522, 225.4002
760.6343, 225.6515
761.1165, 225.6586
761.5986, 225.4229
762.0807, 224.8649
762.5628, 223.5328
763.0449, 222.0275
763.5270, 221.5661
764.0092, 221.9735
764.4913, 222.3000
764.9734, 221.7544
765.4555, 221.1960
765.9376, 221.3848
766.4197, 222.3456
766.9019, 222.4022
767.3840, 220.6763
767.8661, 219.2137
768.3482, 219.1285
768.8303, 220.3302
769.3124, 220.4049
769.7946, 219.2751
770.2767, 217.9766
770.7588, 216.9503
771.2409, 216.3544
771.7230, 216.7834
772.2051, 218.1854
772.6873, 219.2525
773.1694, 218.9204
773.6515, 218.2081
774.1336, 217.8550
774.6157, 218.0485
775.0978, 217.7740
775.5800, 216.5616
776.0621, 215.4729
776.5442, 215.1693
777.0263, 215.6847
777.5084, 216.3178
777.9905, 217.1015
778.4727, 217.7111
778.9548, 217.9942
779.4369, 217.8722
779.9190, 216.8677
780.4011, 214.8840
780.8832, 213.5689
781.3654, 214.3877
781.8475, 215.8902
782.3296, 217.1379
782.8117, 218.1604
783.2938, 218.3061
783.7759, 217.1259
784.2581, 215.6973
784.7402, 214.8541
785.2223, 214.5997
785.7044, 214.2697
786.1865, 213.8175
786.6686, 213.5051
787.1508, 213.6868
787.6329, 214.1304
788.1150, 214.5500
788.5971, 214.9413
789.0792, 215.0195
789.5613, 214.0300
790.0435, 213.0729
790.5256, 213.1808
791.0077, 215.1495
791.4898, 216.0618
791.9719, 215.4949
792.4540, 214.5611
792.9362, 214.2245
793.4183, 214.4523
793.9004, 215.0976
794.3825, 216.2368
794.8646, 217.0623
795.3467, 216.3488
795.8289, 215.0505
796.3110, 214.5401
796.7931, 215.2361
797.2752, 215.8977
797.7573, 215.9727
798.2394, 215.9068
798.7216, 216.0994
799.2037, 216.7704
799.6858, 217.1179
800.1679, 217.0851
800.6500, 216.8547
801.1321, 216.6154
801.6143, 216.3379
802.0964, 215.7106
802.5785, 214.6214
803.0606, 213.9301
803.5427, 214.7363
804.0248, 216.1863
804.5070, 217.3755
804.9891, 218.1085
805.4712, 218.6590
805.9533, 218.9870
806.4354, 219.2309
806.9175, 219.4713
807.3997, 219.6875
807.8818, 220.1155
808.3639, 220.8971
808.8460, 221.3814
809.3281, 220.3342
809.8102, 218.5157
810.2924, 218.0502
810.7745, 219.3446
811.2566, 220.8212
811.7387, 221.6302
812.2208, 221.9422
812.7029, 221.7154
813.1851, 220.2796
813.6672, 220.2702
814.1493, 222.7904
814.6314, 225.5387
815.1135, 226.5460
815.5956, 225.7345
816.0778, 225.2231
816.5599, 225.1202
817.0420, 225.1098
817.5241, 224.9791
818.0062, 224.7075
818.4883, 224.0220
818.9705, 222.7557
819.4526, 222.3018
819.9347, 224.0390
820.4168, 226.3096
820.8989, 227.9314
821.3810, 228.7697
821.8632, 229.2996
822.3453, 229.3714
822.8274, 229.4688
823.3095, 230.2025
823.7916, 231.3675
824.2737, 231.5798
824.7559, 230.7669
825.2380, 230.0660
825.7201, 230.6697
826.2022, 231.6788
826.6843, 232.0766
827.1664, 231.6351
827.6486, 231.6782
828.1307, 233.2002
828.6128, 234.6280
829.0949, 235.0086
829.5770, 234.2011
830.0591, 234.7956
830.5413, 237.0786
831.0234, 238.9944
831.5055, 238.4780
831.9876, 236.6969
832.4697, 235.9038
832.9518, 236.1600
833.4340, 236.7586
833.9161, 237.5839
834.3982, 238.3710
834.8803, 238.9657
835.3624, 239.3427
835.8445, 239.6269
836.3267, 240.0420
836.8088, 239.9060
837.2909, 238.5892
837.7730, 236.4051
838.2551, 235.2381
838.7372, 235.0502
839.2194, 235.2083
839.7015, 235.6911
840.1836, 236.0485
840.6657, 235.6346
841.1478, 234.5930
841.6299, 233.8615
842.1121, 233.9909
842.5942, 234.2097
843.0763, 234.2329
843.5584, 234.1165
844.0405, 234.3049
844.5226, 234.8959
845.0048, 235.0219
845.4869, 233.9961
845.9690, 232.5120
846.4511, 232.2050
846.9332, 232.6670
847.4153, 232.5658
847.8975, 230.3171
848.3796, 228.3027
848.8617, 227.8061
849.3438, 228.4939
849.8259, 229.1438
850.3080, 229.8118
850.7902, 230.2523
851.2723, 230.3897
851.7544, 230.2983
852.2365, 230.1545
852.7186, 229.9384
853.2007, 229.4697
853.6829, 228.4328
854.1650, 227.5472
854.6471, 227.7498
855.1292, 228.4613
855.6113, 228.7064
856.0934, 227.8233
856.5756, 226.9514
857.0577, 226.0670
857.5398, 225.3769
858.0219, 225.2713
858.5040, 225.7923
858.9861, 226.1215
859.4683, 226.1415
859.9504, 225.8675
860.4325, 224.9002
860.9146, 223.7697
861.3967, 223.5404
861.8788, 224.9851
862.3610, 225.9324
862.8431, 225.0567
863.3252, 223.6243
863.8073, 222.8634
864.2894, 223.0730
864.7715, 222.9604
865.2537, 222.3911
865.7358, 221.8778
866.2179, 222.0617
866.7000, 222.6946
867.1821, 223.0153
867.6642, 222.9332
868.1464, 223.0348
868.6285, 224.2841
869.1106, 225.4592
869.5927, 225.4296
870.0748, 223.6920
870.5569, 222.9079
871.0391, 223.4669
871.5212, 224.2724
872.0033, 224.6894
872.4854, 224.7768
872.9675, 225.0308
873.4496, 225.4338
873.9318, 225.7097
874.4139, 225.6853
874.8960, 225.4340
875.3781, 224.8068
875.8602, 223.9012
876.3423, 223.4675
876.8245, 224.1993
877.3066, 224.8223
877.7887, 224.9470
878.2708, 224.7153
878.7529, 224.6714
879.2350, 224.8170
879.7172, 225.1633
880.1993, 225.7946
880.6814, 226.5361
881.1635, 227.2884
881.6456, 227.9652
882.1277, 228.3622
882.6099, 228.0218
883.0920, 227.8507
883.5741, 228.2966
884.0562, 228.9652
884.5383, 229.2414
885.0204, 229.0862
885.5026, 228.6671
885.9847, 227.8358
886.4668, 227.2716
886.9489, 228.1617
887.4310, 229.9719
887.9131, 231.6529
888.3953, 232.9977
888.8774, 234.0065
889.3595, 234.5197
889.8416, 234.7802
890.3237, 235.0070
890.8058, 235.1417
891.2880, 235.4081
891.7701, 235.7913
892.2522, 236.3446
892.7343, 237.2197
893.2164, 238.2935
893.6985, 239.2453
894.1807, 240.0428
894.6628, 240.7767
895.1449, 241.6436
895.6270, 242.3406
896.1091, 242.4244
896.5912, 241.7962
897.0734, 242.2699
897.5555, 244.4087
898.0376, 246.2659
898.5197, 246.5966
899.0018, 246.0193
899.4839, 246.9476
899.9661, 249.1179
900.4482, 250.9848
900.9303, 251.4416
901.4124, 251.5675
901.8945, 251.6855
902.3766, 252.0260
902.8588, 253.4340
903.3409, 257.0701
903.8230, 259.5793
904.3051, 259.9377
904.7872, 259.3912
905.2693, 260.6071
905.7515, 263.2895
906.2336, 265.6247
906.7157, 267.0001
907.1978, 268.2125
907.6799, 269.6367
908.1620, 271.4229
908.6442, 273.8190
909.1263, 277.5506
909.6084, 280.5805
910.0905, 282.2888
910.5726, 284.0747
911.0547, 287.6867
911.5369, 292.8714
912.0190, 296.5030
912.5011, 298.3509
912.9832, 300.1797
913.4653, 303.4268
913.9474, 307.3598
914.4296, 311.3195
914.9117, 315.2339
915.3938, 319.3708
915.8759, 323.7552
916.3580, 328.3723
916.8401, 333.1927
917.3223, 338.2354
917.8044, 343.8312
918.2865, 349.8873
918.7686, 355.6781
919.2507, 360.5164
919.7328, 365.1508
920.2150, 370.1177
920.6971, 375.4474
921.1792, 381.3292
921.6613, 388.3185
922.1434, 395.2580
922.6255, 402.1716
923.1077, 408.8470
923.5898, 414.6519
924.0719, 419.6277
924.5540, 425.4424
925.0361, 432.6149
925.5182, 439.9764
926.0004, 446.5221
926.4825, 452.5694
926.9646, 458.5953
927.4467, 464.7657
927.9288, 470.7124
928.4109, 476.6341
928.8931, 482.1317
929.3752, 486.6702
929.8573, 490.2599
930.3394, 494.8260
930.8215, 500.3346
931.3036, 505.2236
931.7858, 507.6922
932.2679, 509.4583
932.7500, 512.4276
933.2321, 516.4282
933.7142, 519.8854
934.1964, 522.5192
934.6785, 524.3854
935.1606, 525.1191
935.6427, 525.2778
936.1248, 526.5524
936.6069, 528.8868
937.0891, 531.5030
937.5712, 534.6788
938.0533, 537.0665
938.5354, 536.2245
939.0175, 534.1292
939.4996, 533.6976
939.9818, 537.7435
940.4639, 540.2500
940.9460, 540.2352
941.4281, 539.6425
941.9102, 540.7177
942.3923, 543.1918
942.8745, 544.3782
943.3566, 544.0637
943.8387, 543.4848
944.3208, 542.8353
944.8029, 542.9711
945.2850, 545.2697
945.7672, 549.9135
946.2493, 552.7739
946.7314, 552.6685
947.2135, 552.4554
947.6956, 553.2839
948.1777, 554.8174
948.6599, 555.7945
949.1420, 556.2976
949.6241, 556.7766
950.1062, 557.7087
950.5883, 558.3701
951.0704, 557.6959
951.5526, 556.5239
952.0347, 556.5251
952.5168, 558.4886
952.9989, 560.2322
953.4810, 561.5703
953.9631, 562.6974
954.4453, 563.9295
954.9274, 565.1578
955.4095, 565.7423
955.8916, 565.5056
956.3737, 565.9260
956.8558, 568.4544
957.3380, 571.6439
957.8201, 574.5286
958.3022, 577.0383
958.7843, 579.2142
959.2664, 580.7627
959.7485, 582.9553
960.2307, 586.7773
960.7128, 591.4251
961.1949, 594.6305
961.6770, 596.9189
962.1591, 600.0645
962.6412, 605.5463
963.1234, 611.3687
963.6055, 616.4711
964.0876, 621.5638
964.5697, 627.9393
965.0518, 635.7142
965.5339, 644.0311
966.0161, 652.8353
966.4982, 662.1410
966.9803, 671.6640
967.4624, 681.8738
967.9445, 693.4772
968.4266, 706.7868
968.9088, 720.5538
969.3909, 734.7755
969.8730, 749.0015
970.3551, 762.8176
970.8372, 776.1356
971.3193, 791.6291
971.8015, 809.1749
972.2836, 828.6905
972.7657, 850.8039
973.2478, 873.9479
973.7299, 896.3189
974.2120, 918.4138
974.6942, 941.6821
975.1763, 966.0319
975.6584, 992.3897
976.1405, 1021.544
976.6226, 1052.248
977.1047, 1082.500
977.5869, 1112.726
978.0690, 1145.039
978.5511, 1179.559
979.0332, 1215.178
979.5153, 1251.233
979.9974, 1288.116
980.4796, 1326.406
980.9617, 1366.296
981.4438, 1406.624
981.9259, 1447.860
982.4080, 1489.388
982.8901, 1531.245
983.3723, 1573.547
983.8544, 1616.548
984.3365, 1660.287
984.8186, 1704.931
985.3007, 1752.380
985.7828, 1798.735
986.2650, 1840.869
986.7471, 1881.546
987.2292, 1925.647
987.7113, 1974.399
988.1934, 2021.925
988.6755, 2067.536
989.1577, 2112.684
989.6398, 2158.893
990.1219, 2205.237
990.6040, 2249.313
991.0861, 2290.813
991.5682, 2333.253
992.0504, 2378.022
992.5325, 2424.169
993.0146, 2471.566
993.4967, 2519.540
993.9788, 2568.949
994.4609, 2619.828
994.9431, 2670.793
995.4252, 2720.457
995.9073, 2771.422
996.3894, 2828.808
996.8715, 2889.356
997.3536, 2948.867
997.8358, 3006.433
998.3179, 3061.347
998.8000, 3113.026
999.2821, 3163.044
999.7642, 3214.402
1000.246, 3266.550
1000.728, 3314.629
1001.211, 3358.851
1001.693, 3396.751
1002.175, 3426.344
1002.657, 3450.020
1003.139, 3469.216
1003.621, 3483.589
1004.103, 3491.365
1004.585, 3492.974
1005.068, 3486.052
1005.550, 3469.126
1006.032, 3444.902
1006.514, 3417.938
1006.996, 3386.757
1007.478, 3347.338
1007.960, 3297.010
1008.442, 3242.966
1008.924, 3186.044
1009.407, 3126.315
1009.889, 3062.680
1010.371, 2995.288
1010.853, 2927.022
1011.335, 2857.068
1011.817, 2786.236
1012.299, 2712.717
1012.781, 2639.602
1013.263, 2568.790
1013.746, 2500.289
1014.228, 2432.934
1014.710, 2365.413
1015.192, 2301.360
1015.674, 2242.502
1016.156, 2186.012
1016.638, 2124.975
1017.120, 2061.933
1017.603, 2005.441
1018.085, 1956.856
1018.567, 1911.102
1019.049, 1864.744
1019.531, 1820.504
1020.013, 1779.963
1020.495, 1742.968
1020.977, 1706.978
1021.459, 1671.886
1021.942, 1638.734
1022.424, 1608.172
1022.906, 1579.620
1023.388, 1551.699
1023.870, 1524.850
1024.352, 1499.921
1024.834, 1477.440
1025.316, 1456.762
1025.799, 1438.095
1026.281, 1420.714
1026.763, 1403.243
1027.245, 1386.362
1027.727, 1373.227
1028.209, 1363.902
1028.691, 1355.196
1029.173, 1344.264
1029.656, 1333.758
1030.138, 1326.003
1030.620, 1320.500
1031.102, 1313.853
1031.584, 1305.299
1032.066, 1298.624
1032.548, 1294.998
1033.030, 1292.885
1033.512, 1290.486
1033.995, 1287.876
1034.477, 1284.922
1034.959, 1280.958
1035.441, 1279.138
1035.923, 1282.442
1036.405, 1285.543
1036.887, 1285.205
1037.369, 1281.957
1037.851, 1280.293
1038.334, 1280.196
1038.816, 1281.143
1039.298, 1284.487
1039.780, 1287.170
1040.262, 1286.162
1040.744, 1283.330
1041.226, 1282.449
1041.708, 1284.233
1042.191, 1286.188
1042.673, 1288.056
1043.155, 1290.497
1043.637, 1294.484
1044.119, 1299.428
1044.601, 1303.954
1045.083, 1308.114
1045.565, 1313.926
1046.047, 1323.387
1046.530, 1333.173
1047.012, 1341.926
1047.494, 1350.372
1047.976, 1360.618
1048.458, 1372.624
1048.940, 1384.857
1049.422, 1396.772
1049.904, 1409.469
1050.386, 1424.189
1050.869, 1440.007
1051.351, 1455.913
1051.833, 1471.545
1052.315, 1489.244
1052.797, 1509.484
1053.279, 1529.787
1053.761, 1548.924
1054.243, 1567.504
1054.726, 1586.601
1055.208, 1606.114
1055.690, 1625.794
1056.172, 1646.805
1056.654, 1666.172
1057.136, 1683.364
1057.618, 1699.286
1058.100, 1715.982
1058.583, 1732.707
1059.065, 1744.114
1059.547, 1749.869
1060.029, 1753.079
1060.511, 1756.088
1060.993, 1756.962
1061.475, 1754.151
1061.957, 1748.066
1062.439, 1740.318
1062.922, 1730.887
1063.404, 1719.836
1063.886, 1707.126
1064.368, 1693.188
1064.850, 1677.974
1065.332, 1661.989
1065.814, 1645.752
1066.296, 1629.377
1066.778, 1613.278
1067.261, 1596.713
1067.743, 1581.741
1068.225, 1570.069
1068.707, 1560.410
1069.189, 1548.622
1069.671, 1535.330
1070.153, 1522.916
1070.635, 1513.613
1071.118, 1503.912
1071.600, 1492.598
1072.082, 1480.289
1072.564, 1467.147
1073.046, 1453.020
1073.528, 1442.119
1074.010, 1434.788
1074.492, 1426.127
1074.974, 1411.600
1075.457, 1394.835
1075.939, 1378.314
1076.421, 1362.333
1076.903, 1347.341
1077.385, 1334.593
1077.867, 1319.650
1078.349, 1301.526
1078.831, 1281.958
1079.313, 1262.833
1079.796, 1244.047
1080.278, 1225.512
1080.760, 1207.068
1081.242, 1188.738
1081.724, 1170.795
1082.206, 1152.589
1082.688, 1134.274
1083.170, 1115.695
1083.652, 1096.305
1084.135, 1076.222
1084.617, 1056.922
1085.099, 1039.033
1085.581, 1021.601
1086.063, 1003.771
1086.545, 986.4800
1087.027, 970.3927
1087.509, 955.8347
1087.992, 939.6020
1088.474, 921.5390
1088.956, 904.3167
1089.438, 889.8988
1089.920, 876.8443
1090.402, 863.6986
1090.884, 850.5563
1091.366, 837.6133
1091.849, 824.4811
1092.331, 812.3652
1092.813, 801.5231
1093.295, 791.0856
1093.777, 780.1151
1094.259, 768.9650
1094.741, 757.7684
1095.223, 746.7258
1095.705, 737.0123
1096.188, 730.2374
1096.670, 723.6560
1097.152, 716.5461
1097.634, 709.3004
1098.116, 702.4371
1098.598, 695.9365
1099.080, 689.8310
1099.562, 684.1072
1100.044, 678.6896
1100.527, 673.1420
1101.009, 668.2562
1101.491, 664.9899
1101.973, 662.8994
1102.455, 659.3635
1102.937, 654.2963
1103.419, 649.7279
1103.901, 646.4277
1104.384, 643.7277
1104.866, 641.1199
1105.348, 638.6687
1105.830, 636.4686
1106.312, 634.6432
1106.794, 632.6775
1107.276, 630.6191
1107.758, 628.1810
1108.240, 624.7739
1108.723, 621.2086
1109.205, 618.8134
1109.687, 617.3129
1110.169, 616.0466
1110.651, 615.7764
1111.133, 614.1584
1111.615, 610.5187
1112.097, 606.4107
1112.579, 603.3121
1113.062, 600.9211
1113.544, 598.2156
1114.026, 595.1473
1114.508, 591.7653
1114.990, 588.4713
1115.472, 584.3555
1115.954, 578.6540
1116.436, 572.3798
1116.919, 567.1296
1117.401, 562.7923
1117.883, 558.2993
1118.365, 553.5214
1118.847, 548.7053
1119.329, 544.5656
1119.811, 539.9672
1120.293, 533.8349
1120.776, 526.5112
1121.258, 519.3841
1121.740, 512.4601
1122.222, 505.5953
1122.704, 498.6475
1123.186, 492.1359
1123.668, 486.9913
1124.150, 482.1510
1124.632, 476.2847
1125.115, 469.0747
1125.597, 462.5206
1126.079, 456.8641
1126.561, 451.1254
1127.043, 444.7249
1127.525, 438.3258
1128.007, 433.1866
1128.489, 428.7401
1128.971, 424.0330
1129.454, 418.6882
1129.936, 413.4811
1130.418, 408.3642
1130.900, 403.5796
1131.382, 399.0329
1131.864, 394.9851
1132.346, 392.6081
1132.828, 391.3358
1133.311, 389.3830
1133.793, 385.7484
1134.275, 381.6284
1134.757, 376.6088
1135.239, 371.9169
1135.721, 368.6593
1136.203, 366.7461
1136.685, 365.6534
1137.167, 365.2040
1137.650, 364.0428
1138.132, 361.1044
1138.614, 357.6002
1139.096, 353.2855
1139.578, 349.1440
1140.060, 346.7027
1140.542, 345.9617
1141.024, 345.7640
1141.506, 346.0379
1141.989, 345.5674
1142.471, 342.6689
1142.953, 339.4115
1143.435, 337.1044
1143.917, 335.6702
1144.399, 334.7370
1144.881, 334.5063
1145.363, 333.1449
1145.846, 330.2135
1146.328, 327.0867
1146.810, 325.6032
1147.292, 324.3257
1147.774, 321.3493
1148.256, 316.6904
1148.738, 314.0970
1149.220, 314.2397
1149.703, 313.9975
1150.185, 312.4948
1150.667, 310.3378
1151.149, 307.7902
1151.631, 305.3319
1152.113, 303.9040
1152.595, 303.9385
1153.077, 302.4862
1153.559, 298.7189
1154.042, 295.2906
1154.524, 293.4908
1155.006, 292.2961
1155.488, 289.6497
1155.970, 286.2221
1156.452, 283.4931
1156.934, 282.2230
1157.416, 280.2774
1157.898, 276.8589
1158.381, 273.8185
1158.863, 272.4093
1159.345, 271.9786
1159.827, 270.8306
1160.309, 269.0990
1160.791, 267.1029
1161.273, 264.3572
1161.755, 262.5044
1162.238, 262.2738
1162.720, 262.4405
1163.202, 261.9963
1163.684, 261.1735
1164.166, 261.2955
1164.648, 262.1895
1165.130, 263.0902
1165.612, 263.6949
1166.094, 264.1236
1166.577, 263.5912
1167.059, 263.6805
1167.541, 266.5992
1168.023, 271.8938
1168.505, 275.0132
1168.987, 276.0568
1169.469, 277.0521
1169.951, 278.7989
1170.433, 281.1895
1170.916, 284.2743
1171.398, 287.9645
1171.880, 292.4828
1172.362, 297.7740
1172.844, 302.4623
1173.326, 306.4025
1173.808, 309.3403
1174.290, 309.8993
1174.773, 310.5879
1175.255, 313.5628
1175.737, 317.4453
1176.219, 319.5265
1176.701, 319.8179
1177.183, 319.7272
1177.665, 319.4524
1178.147, 318.4992
1178.630, 316.4010
1179.112, 313.5651
1179.594, 310.2103
1180.076, 306.3212
1180.558, 301.6776
1181.040, 296.2123
1181.522, 290.5323
1182.004, 284.7531
1182.486, 278.7271
1182.969, 272.2373
1183.451, 265.5348
1183.933, 258.6612
1184.415, 251.6894
1184.897, 244.8655
1185.379, 238.1119
1185.861, 231.8062
1186.343, 226.1850
1186.825, 220.6792
1187.308, 214.3553
1187.790, 208.1726
1188.272, 203.4895
1188.754, 200.2680
1189.236, 195.7413
1189.718, 189.7420
1190.200, 184.3700
1190.682, 180.3413
1191.165, 177.0790
1191.647, 174.1535
1192.129, 171.5569
1192.611, 169.4557
1193.093, 167.9487
1193.575, 165.3674
1194.057, 161.5053
1194.539, 157.9768
1195.021, 155.4036
1195.504, 153.3932
1195.986, 151.5051
1196.468, 149.9051
1196.950, 149.0295
1197.432, 149.1352
1197.914, 148.0836
1198.396, 145.6655
1198.878, 143.5036
1199.360, 142.5392
1199.843, 141.9743
1200.325, 141.0728
1200.807, 139.9041
1201.289, 138.4827
1201.771, 136.6777
1202.253, 135.3301
1202.735, 134.4549
1203.217, 133.9828
1203.700, 134.2704
1204.182, 134.4727
1204.664, 133.2634
1205.146, 131.4374
1205.628, 130.2971
1206.110, 130.1819
1206.592, 130.1015
1207.074, 130.1130
1207.557, 129.7650
1208.039, 128.3435
1208.521, 126.8206
1209.003, 126.3313
1209.485, 126.4892
1209.967, 126.6268
1210.449, 126.7252
1210.931, 126.6497
1211.413, 126.4022
1211.896, 125.9481
1212.378, 124.8938
1212.860, 123.9369
1213.342, 124.3034
1213.824, 125.2163
1214.306, 124.9245
1214.788, 122.6897
1215.270, 121.5710
1215.752, 121.7332
1216.235, 122.2140
1216.717, 122.4743
1217.199, 122.5529
1217.681, 122.5765
1218.163, 122.4231
1218.645, 121.7383
1219.127, 120.2215
1219.609, 119.4741
1220.092, 119.6234
1220.574, 119.9090
1221.056, 119.7751
1221.538, 119.4594
1222.020, 119.0802
1222.502, 118.7156
1222.984, 118.5450
1223.466, 118.6620
1223.948, 118.4687
1224.431, 117.9014
1224.913, 117.3950
1225.395, 117.5478
1225.877, 117.6746
1226.359, 116.7893
1226.841, 115.5547
1227.323, 115.6914
1227.805, 117.5219
1228.287, 118.4734
1228.770, 118.3382
1229.252, 117.8329
1229.734, 117.2626
1230.216, 116.7973
1230.698, 116.7280
1231.180, 116.8087
1231.662, 116.4020
1232.144, 115.4347
1232.627, 115.0961
1233.109, 115.5038
1233.591, 115.7784
1234.073, 114.8968
1234.555, 114.0297
1235.037, 114.0946
1235.519, 114.6542
1236.001, 114.8840
1236.484, 114.7834
1236.966, 114.7624
1237.448, 114.8562
1237.930, 114.7592
1238.412, 113.7945
1238.894, 113.0823
1239.376, 113.6148
1239.858, 114.6188
1240.340, 114.8361
1240.823, 114.3299
1241.305, 113.7666
1241.787, 113.2238
1242.269, 112.9267
1242.751, 113.2486
1243.233, 113.5944
1243.715, 113.8357
1244.197, 113.8392
1244.679, 113.2147
1245.162, 112.1222
1245.644, 111.4374
1246.126, 111.2237
1246.608, 111.2238
1247.090, 111.7682
1247.572, 111.8428
1248.054, 110.8937
1248.536, 109.6990
1249.019, 109.5530
1249.501, 110.1476
1249.983, 110.6018
1250.465, 110.8195
1250.947, 110.7519
1251.429, 109.8233
1251.911, 109.4534
1252.393, 110.2074
1252.875, 111.1229
1253.358, 110.7913
1253.840, 109.6648
1254.322, 108.5692
1254.804, 107.6268
1255.286, 107.2302
1255.768, 108.1333
1256.250, 108.4020
1256.732, 107.5630
1257.214, 106.4785
1257.697, 106.1114
1258.179, 106.2543
1258.661, 106.8095
1259.143, 107.6413
1259.625, 107.9273
1260.107, 107.3021
1260.589, 106.9452
1261.071, 107.1039
1261.554, 107.2224
1262.036, 106.5689
1262.518, 105.6422
1263.000, 104.9072
1263.482, 104.4206
1263.964, 104.2955
1264.446, 104.6958
1264.928, 104.6249
1265.411, 103.9011
1265.893, 103.1538
1266.375, 103.1180
1266.857, 103.1479
1267.339, 102.4010
1267.821, 101.3067
1268.303, 101.3202
1268.785, 102.5741
1269.267, 103.2024
1269.750, 102.9996
1270.232, 102.3437
1270.714, 101.0972
1271.196, 99.91712
1271.678, 99.27193
1272.160, 98.96717
1272.642, 98.74641
1273.124, 98.61069
1273.606, 98.49065
1274.089, 98.39751
1274.571, 98.60950
1275.053, 99.97108
1275.535, 100.7912
1276.017, 100.1901
1276.499, 99.07204
1276.981, 98.65848
1277.463, 98.75484
1277.946, 98.59177
1278.428, 98.16227
1278.910, 97.78950
1279.392, 97.87561
1279.874, 97.60671
1280.356, 96.65430
1280.838, 95.68304
1281.320, 95.60725
1281.802, 95.94827
1282.285, 95.57614
1282.767, 94.64970
1283.249, 94.09402
1283.731, 94.49245
1284.213, 94.56067
1284.695, 94.13096
1285.177, 93.63178
1285.659, 93.51885
1286.141, 93.51723
1286.624, 93.24686
1287.106, 92.80345
1287.588, 92.49095
1288.070, 92.37870
1288.552, 92.18562
1289.034, 91.88744
1289.516, 91.64910
1289.998, 91.69374
1290.481, 91.75191
1290.963, 91.63586
1291.445, 91.36307
1291.927, 90.98360
1292.409, 90.49218
1292.891, 89.88768
1293.373, 89.19446
1293.855, 88.74569
1294.338, 88.94859
1294.820, 89.19309
1295.302, 89.15573
1295.784, 89.06205
1296.266, 89.12186
1296.748, 89.30655
1297.230, 89.42857
1297.712, 89.49275
1298.194, 89.50935
1298.677, 89.34655
1299.159, 89.31943
1299.641, 89.59550
1300.123, 89.76598
1300.605, 89.47977
1301.087, 88.87977
1301.569, 88.11559
1302.051, 87.33180
1302.533, 86.83144
1303.016, 86.63631
##END=



