##NAMES=Kidwellite
##RRUFFID=R060324
##IDEAL CHEMISTRY=NaFe^3+^_9+x_(PO_4_)_6_(OH)_11_&#183;3H_2_O (x &#8776; 1/3)
##LOCALITY=York mine, Polk County, Arkansas, USA
##OWNER=RRUFF
##SOURCE=Michael Scott
##DESCRIPTION=Light green radiating acicular crystals forming a spherical mat
##STATUS=The identification of this mineral has been confirmed by X-ray diffraction and chemical analysis
##URL=rruff.info/R060324
##MEASURED CHEMISTRY=(Na_0.98_Ca_0.02_)_Σ=1_(Fe^3+^_8.77_Al_0.21_Fe^2+^_0.02_)_Σ=9_(P_1.00_O_4_)_6_(OH)_11_·3H_2_O; OH estimated by charge balance; H_2_O by difference
91.53320, 899.4336
92.01532, 903.0576
92.49744, 902.1441
92.97955, 908.1797
93.46167, 911.1403
93.94379, 905.5015
94.42590, 896.4677
94.90802, 886.2577
95.39014, 875.1270
95.87225, 863.1559
96.35437, 850.4714
96.83649, 836.7467
97.31860, 823.3168
97.80072, 811.6655
98.28284, 801.9496
98.76495, 792.9838
99.24707, 782.9307
99.72919, 769.0391
100.2113, 757.4694
100.6934, 750.0237
101.1755, 745.8090
101.6577, 743.0715
102.1398, 740.2610
102.6219, 737.1619
103.1040, 734.9891
103.5861, 733.7454
104.0682, 732.9682
104.5504, 732.1475
105.0325, 731.2766
105.5146, 730.9919
105.9967, 732.3175
106.4788, 736.3629
106.9609, 738.8969
107.4431, 739.1241
107.9252, 737.8371
108.4073, 736.0019
108.8894, 733.8387
109.3715, 731.3743
109.8536, 728.5305
110.3358, 725.0659
110.8179, 722.0499
111.3000, 720.4594
111.7821, 720.1155
112.2642, 719.2436
112.7463, 716.6115
113.2285, 713.4533
113.7106, 711.0223
114.1927, 709.6352
114.6748, 708.7137
115.1569, 707.5930
115.6390, 706.3740
116.1212, 704.5968
116.6033, 701.6066
117.0854, 698.2512
117.5675, 695.4181
118.0496, 693.5936
118.5317, 692.5103
119.0139, 690.9070
119.4960, 687.6481
119.9781, 685.0745
120.4602, 683.7858
120.9423, 683.4640
121.4244, 683.5856
121.9066, 683.8102
122.3887, 684.1805
122.8708, 683.9598
123.3529, 682.7281
123.8350, 681.4255
124.3171, 680.4896
124.7993, 679.9329
125.2814, 679.4984
125.7635, 678.9062
126.2456, 678.0930
126.7277, 677.5141
127.2098, 677.0792
127.6920, 676.9196
128.1741, 677.0085
128.6562, 677.2438
129.1383, 678.1804
129.6204, 681.3594
130.1025, 686.5332
130.5847, 690.6002
131.0668, 691.8295
131.5489, 690.8577
132.0310, 689.8236
132.5131, 688.8817
132.9952, 688.3543
133.4774, 688.7137
133.9595, 689.9473
134.4416, 691.0062
134.9237, 690.9615
135.4058, 689.7244
135.8879, 688.0228
136.3701, 685.6266
136.8522, 683.0496
137.3343, 680.6503
137.8164, 678.4923
138.2985, 676.3019
138.7806, 673.6389
139.2628, 670.6520
139.7449, 666.7728
140.2270, 661.2706
140.7091, 655.3240
141.1912, 650.1299
141.6733, 646.2470
142.1555, 643.1005
142.6376, 638.7824
143.1197, 632.0996
143.6018, 625.4727
144.0839, 618.9791
144.5660, 612.7112
145.0482, 606.7402
145.5303, 601.0955
146.0124, 595.8067
146.4945, 590.9916
146.9766, 587.0255
147.4587, 583.0647
147.9409, 578.7463
148.4230, 574.1149
148.9051, 569.3575
149.3872, 564.3047
149.8693, 559.2723
150.3514, 555.3658
150.8336, 553.5967
151.3157, 552.3574
151.7978, 549.8573
152.2799, 545.8023
152.7620, 542.2725
153.2441, 541.4132
153.7263, 542.1551
154.2084, 542.8596
154.6905, 542.8583
155.1726, 542.4782
155.6547, 542.3224
156.1368, 542.1036
156.6190, 542.7369
157.1011, 544.9448
157.5832, 548.2128
158.0653, 551.6025
158.5474, 554.5851
159.0295, 557.1735
159.5117, 559.5381
159.9938, 561.6239
160.4759, 563.5150
160.9580, 564.9675
161.4401, 566.1982
161.9222, 567.7310
162.4044, 570.2068
162.8865, 573.9657
163.3686, 576.6982
163.8507, 577.7390
164.3328, 578.4305
164.8149, 579.1474
165.2971, 580.0246
165.7792, 581.1418
166.2613, 582.6707
166.7434, 584.9688
167.2255, 586.5619
167.7076, 587.3708
168.1898, 587.6669
168.6719, 587.5377
169.1540, 587.0333
169.6361, 586.3174
170.1182, 585.6635
170.6003, 585.3429
171.0825, 584.2816
171.5646, 581.3199
172.0467, 578.0255
172.5288, 576.5443
173.0109, 577.6671
173.4930, 579.5991
173.9752, 579.2335
174.4573, 576.4719
174.9394, 573.4566
175.4215, 570.3829
175.9036, 567.4916
176.3857, 565.4948
176.8679, 564.9352
177.3500, 564.7866
177.8321, 563.6653
178.3142, 561.5290
178.7963, 559.1645
179.2784, 557.0035
179.7606, 555.0051
180.2427, 552.9951
180.7248, 550.9792
181.2069, 548.8788
181.6890, 546.5938
182.1711, 544.0984
182.6533, 541.6420
183.1354, 539.4914
183.6175, 537.6868
184.0996, 535.8796
184.5817, 533.6713
185.0638, 531.6441
185.5460, 530.3550
186.0281, 529.8944
186.5102, 529.5921
186.9923, 528.3990
187.4744, 525.8191
187.9565, 523.6668
188.4387, 522.3945
188.9208, 521.4239
189.4029, 520.3863
189.8850, 519.1560
190.3671, 517.8301
190.8492, 516.5383
191.3314, 515.0877
191.8135, 514.0536
192.2956, 513.7968
192.7777, 513.7578
193.2598, 513.4391
193.7419, 512.6483
194.2241, 511.5534
194.7062, 510.5617
195.1883, 509.9423
195.6704, 509.1012
196.1525, 507.5010
196.6346, 505.8450
197.1168, 505.0966
197.5989, 505.7053
198.0810, 507.1312
198.5631, 507.8051
199.0452, 507.2221
199.5273, 506.6188
200.0095, 506.2612
200.4916, 505.9962
200.9737, 505.4670
201.4558, 504.4122
201.9379, 503.2010
202.4200, 502.9451
202.9022, 503.9079
203.3843, 505.0926
203.8664, 506.3829
204.3485, 507.6640
204.8306, 508.5900
205.3127, 508.9636
205.7949, 508.9260
206.2770, 508.7621
206.7591, 508.2403
207.2412, 508.0673
207.7233, 508.8933
208.2054, 510.5562
208.6876, 512.0164
209.1697, 512.7244
209.6518, 513.1017
210.1339, 513.8312
210.6160, 515.0552
211.0981, 516.2800
211.5803, 516.9943
212.0624, 517.1949
212.5445, 517.5980
213.0266, 518.5419
213.5087, 519.7665
213.9908, 521.0060
214.4730, 522.1956
214.9551, 523.5270
215.4372, 525.3040
215.9193, 527.6394
216.4014, 529.7672
216.8836, 531.2287
217.3657, 532.5418
217.8478, 533.8817
218.3299, 535.2711
218.8120, 537.1096
219.2941, 540.3328
219.7763, 545.7697
220.2584, 549.7860
220.7405, 550.4473
221.2226, 550.3574
221.7047, 551.1014
222.1868, 553.1367
222.6690, 556.1827
223.1511, 560.1256
223.6332, 566.1193
224.1153, 570.3017
224.5974, 571.1791
225.0795, 571.1417
225.5617, 571.8382
226.0438, 573.7477
226.5259, 576.3057
227.0080, 578.6058
227.4901, 580.8025
227.9722, 582.3603
228.4544, 583.2271
228.9365, 583.5909
229.4186, 583.5089
229.9007, 583.0267
230.3828, 582.2571
230.8649, 581.3988
231.3471, 580.4880
231.8292, 579.3906
232.3113, 578.2193
232.7934, 576.8201
233.2755, 575.0330
233.7576, 572.8288
234.2398, 570.2986
234.7219, 567.6199
235.2040, 564.6802
235.6861, 561.7521
236.1682, 559.1711
236.6503, 556.4224
237.1325, 552.9098
237.6146, 548.5176
238.0967, 543.7787
238.5788, 539.4844
239.0609, 535.8708
239.5430, 532.2517
240.0252, 528.1868
240.5073, 524.3346
240.9894, 521.7355
241.4715, 520.6147
241.9536, 519.6272
242.4357, 516.6464
242.9179, 510.8996
243.4000, 506.7339
243.8821, 505.8681
244.3642, 506.1878
244.8463, 505.2484
245.3284, 502.5114
245.8106, 499.4198
246.2927, 497.6171
246.7748, 497.1160
247.2569, 497.1303
247.7390, 497.6539
248.2211, 498.5923
248.7033, 499.8278
249.1854, 501.3421
249.6675, 503.1844
250.1496, 505.3909
250.6317, 507.9701
251.1138, 511.0954
251.5960, 515.1579
252.0781, 519.6467
252.5602, 523.8659
253.0423, 527.6555
253.5244, 531.5973
254.0065, 536.0673
254.4887, 541.0266
254.9708, 546.5739
255.4529, 552.9149
255.9350, 559.7789
256.4171, 566.6971
256.8992, 573.5909
257.3813, 580.8271
257.8635, 588.8043
258.3456, 597.3113
258.8277, 606.2165
259.3098, 615.7471
259.7919, 625.4188
260.2740, 634.3790
260.7562, 642.4323
261.2383, 650.5810
261.7204, 659.2751
262.2025, 668.4647
262.6846, 678.3746
263.1667, 689.4348
263.6489, 700.7869
264.1310, 711.2431
264.6131, 720.6299
265.0952, 729.8801
265.5773, 739.2391
266.0594, 748.6987
266.5416, 758.3284
267.0237, 768.1907
267.5058, 778.1432
267.9879, 788.0647
268.4700, 797.9067
268.9521, 807.8643
269.4343, 818.9075
269.9164, 829.6390
270.3985, 838.7057
270.8806, 845.7162
271.3627, 851.7956
271.8448, 858.4598
272.3270, 866.0236
272.8091, 872.6583
273.2912, 877.4004
273.7733, 881.3571
274.2554, 885.3119
274.7375, 889.3876
275.2197, 892.8040
275.7018, 894.5684
276.1839, 894.4603
276.6660, 894.0703
277.1481, 894.2557
277.6302, 893.6637
278.1124, 891.4564
278.5945, 887.6327
279.0766, 882.8781
279.5587, 877.9322
280.0408, 872.8777
280.5229, 866.8285
281.0051, 859.2249
281.4872, 850.9962
281.9693, 842.4039
282.4514, 833.5172
282.9335, 824.3200
283.4156, 814.8534
283.8978, 805.1185
284.3799, 795.0364
284.8620, 784.2918
285.3441, 773.4806
285.8262, 762.6249
286.3083, 751.8586
286.7905, 741.4471
287.2726, 731.7762
287.7547, 722.6924
288.2368, 712.8713
288.7189, 701.4724
289.2010, 690.2819
289.6832, 679.7922
290.1653, 669.8660
290.6474, 660.1865
291.1295, 650.6271
291.6116, 641.2283
292.0938, 632.2224
292.5759, 623.8073
293.0580, 615.6057
293.5401, 606.9973
294.0222, 598.7302
294.5043, 591.8694
294.9865, 586.9185
295.4686, 583.1302
295.9507, 578.6068
296.4328, 572.4289
296.9149, 567.2141
297.3970, 563.7984
297.8792, 561.0399
298.3613, 557.9777
298.8434, 554.3095
299.3255, 550.4142
299.8076, 547.0435
300.2897, 544.8473
300.7719, 541.6329
301.2540, 536.2039
301.7361, 530.6750
302.2182, 526.2063
302.7003, 523.0683
303.1824, 520.9116
303.6646, 519.4262
304.1467, 518.8273
304.6288, 518.1488
305.1109, 517.7827
305.5930, 517.0028
306.0751, 515.4011
306.5573, 513.0330
307.0394, 510.1784
307.5215, 506.9406
308.0036, 503.2163
308.4857, 500.3956
308.9678, 499.3380
309.4500, 498.3730
309.9321, 497.2179
310.4142, 495.7788
310.8963, 493.9559
311.3784, 491.6226
311.8605, 488.8623
312.3427, 486.3746
312.8248, 484.1799
313.3069, 482.2547
313.7890, 480.9964
314.2711, 479.8789
314.7532, 478.0936
315.2354, 475.2162
315.7175, 471.7539
316.1996, 469.2501
316.6817, 468.5122
317.1638, 467.4799
317.6459, 465.6603
318.1281, 463.6217
318.6102, 461.8890
319.0923, 460.6240
319.5744, 459.6125
320.0565, 458.5374
320.5386, 457.4746
321.0208, 456.1522
321.5029, 454.0500
321.9850, 452.1040
322.4671, 451.0444
322.9492, 450.8570
323.4313, 450.8752
323.9135, 450.3893
324.3956, 449.3387
324.8777, 448.0606
325.3598, 445.8575
325.8419, 444.0655
326.3240, 443.4752
326.8062, 443.7833
327.2883, 444.0909
327.7704, 443.7039
328.2525, 442.6591
328.7346, 441.5852
329.2167, 440.1304
329.6989, 439.0761
330.1810, 438.5690
330.6631, 438.5815
331.1452, 439.0904
331.6273, 440.1028
332.1094, 441.5401
332.5916, 443.2753
333.0737, 446.0555
333.5558, 447.7775
334.0379, 447.1276
334.5200, 445.9234
335.0021, 446.0213
335.4843, 447.9945
335.9664, 450.7122
336.4485, 452.3238
336.9306, 452.4538
337.4127, 452.5880
337.8948, 452.5021
338.3770, 452.7325
338.8591, 453.7852
339.3412, 455.6049
339.8233, 457.5646
340.3055, 459.1639
340.7876, 460.4186
341.2697, 461.0574
341.7518, 460.0806
342.2339, 459.4593
342.7160, 460.2587
343.1982, 462.0455
343.6803, 463.6923
344.1624, 464.3487
344.6445, 464.2671
345.1266, 464.7158
345.6087, 465.8687
346.0909, 467.3198
346.5730, 469.2794
347.0551, 471.2957
347.5372, 472.6295
348.0193, 472.8427
348.5014, 472.7759
348.9836, 474.1499
349.4657, 477.4765
349.9478, 480.5057
350.4299, 482.3338
350.9120, 483.8429
351.3941, 485.6647
351.8763, 487.9117
352.3584, 490.2353
352.8405, 492.1745
353.3226, 493.7177
353.8047, 495.5580
354.2868, 497.8425
354.7690, 500.4182
355.2511, 503.1490
355.7332, 506.0582
356.2153, 509.2108
356.6974, 512.8361
357.1795, 516.7723
357.6617, 520.2877
358.1438, 523.0120
358.6259, 526.0404
359.1080, 530.4731
359.5901, 535.4943
360.0722, 539.7434
360.5544, 542.3179
361.0365, 544.3869
361.5186, 547.7200
362.0007, 552.4417
362.4828, 557.3287
362.9649, 561.7032
363.4471, 566.1367
363.9292, 571.4181
364.4113, 577.8090
364.8934, 584.2682
365.3755, 590.0149
365.8576, 595.1381
366.3398, 600.0746
366.8219, 604.8151
367.3040, 609.6024
367.7861, 614.7261
368.2682, 620.1548
368.7503, 625.6375
369.2325, 631.3049
369.7146, 636.9279
370.1967, 642.1064
370.6788, 646.8126
371.1609, 651.1458
371.6430, 655.2117
372.1252, 658.9416
372.6073, 662.0258
373.0894, 663.9117
373.5715, 665.5316
374.0536, 667.8856
374.5357, 670.7598
375.0179, 672.8713
375.5000, 673.4319
375.9821, 672.9446
376.4642, 672.7738
376.9463, 673.4915
377.4284, 673.2318
377.9106, 670.9278
378.3927, 667.2809
378.8748, 663.4634
379.3569, 659.7875
379.8390, 655.9957
380.3211, 651.7550
380.8033, 647.0517
381.2854, 641.8865
381.7675, 636.3511
382.2496, 630.3210
382.7317, 623.3928
383.2138, 615.6891
383.6960, 608.0433
384.1781, 601.0130
384.6602, 594.5992
385.1423, 588.3577
385.6244, 582.5363
386.1065, 576.5627
386.5887, 569.8938
387.0708, 563.0340
387.5529, 556.7315
388.0350, 551.2994
388.5171, 546.7167
388.9992, 542.9553
389.4814, 541.1658
389.9635, 538.4355
390.4456, 534.0316
390.9277, 529.1908
391.4098, 524.5775
391.8919, 520.4761
392.3741, 517.2414
392.8562, 515.4138
393.3383, 515.2760
393.8204, 514.3267
394.3025, 511.8683
394.7846, 509.3861
395.2668, 507.1816
395.7489, 505.3391
396.2310, 503.9030
396.7131, 502.8979
397.1952, 502.3191
397.6773, 502.2170
398.1595, 503.2383
398.6416, 503.6374
399.1237, 502.4922
399.6058, 501.1302
400.0879, 500.6862
400.5700, 501.4154
401.0522, 502.7706
401.5343, 504.2094
402.0164, 505.7680
402.4985, 507.1446
402.9806, 508.0728
403.4627, 509.0537
403.9449, 510.2181
404.4270, 511.6021
404.9091, 513.2473
405.3912, 515.1741
405.8733, 517.3859
406.3554, 519.9128
406.8376, 522.8837
407.3197, 525.8967
407.8018, 528.9891
408.2839, 531.9497
408.7660, 534.3929
409.2481, 536.1504
409.7303, 537.9388
410.2124, 540.6541
410.6945, 544.2219
411.1766, 547.5367
411.6587, 550.3552
412.1408, 552.8726
412.6230, 555.0771
413.1051, 557.0509
413.5872, 559.4590
414.0693, 563.2150
414.5514, 567.3473
415.0335, 570.3141
415.5157, 572.0019
415.9978, 572.8071
416.4799, 572.5598
416.9620, 571.6528
417.4441, 571.3788
417.9262, 572.4711
418.4084, 573.2847
418.8905, 572.8055
419.3726, 571.3246
419.8547, 569.6004
420.3368, 567.9092
420.8189, 566.0067
421.3011, 563.4251
421.7832, 560.0065
422.2653, 556.6534
422.7474, 553.8975
423.2295, 550.9572
423.7116, 546.8721
424.1938, 541.7430
424.6759, 536.7366
425.1580, 532.8699
425.6401, 530.0279
426.1222, 525.8912
426.6043, 519.3894
427.0865, 513.0494
427.5686, 507.2452
428.0507, 502.0308
428.5328, 497.5993
429.0149, 493.9923
429.4970, 490.6971
429.9792, 486.7839
430.4613, 481.9697
430.9434, 477.0635
431.4255, 471.3219
431.9076, 466.1256
432.3897, 462.5865
432.8719, 460.3654
433.3540, 458.1889
433.8361, 455.0575
434.3182, 451.1207
434.8003, 447.3285
435.2824, 443.2740
435.7646, 440.0963
436.2467, 438.6306
436.7288, 437.8093
437.2109, 436.4748
437.6930, 434.2591
438.1751, 431.7946
438.6573, 429.7100
439.1394, 427.9864
439.6215, 427.0112
440.1036, 427.4103
440.5857, 427.9516
441.0678, 427.5933
441.5500, 426.6202
442.0321, 426.1393
442.5142, 426.8983
442.9963, 428.4239
443.4784, 429.9586
443.9605, 431.5236
444.4427, 432.9247
444.9248, 433.9438
445.4069, 434.7901
445.8890, 435.8317
446.3711, 437.1548
446.8532, 438.4857
447.3354, 439.4295
447.8175, 440.2969
448.2996, 441.8182
448.7817, 444.1908
449.2638, 446.9838
449.7459, 449.7792
450.2281, 452.5790
450.7102, 455.4014
451.1923, 458.0184
451.6744, 460.8598
452.1565, 464.4591
452.6386, 468.5409
453.1208, 472.1393
453.6029, 474.6821
454.0850, 476.7065
454.5671, 479.7085
455.0492, 484.7404
455.5313, 489.3647
456.0135, 493.1577
456.4956, 496.8025
456.9777, 501.1333
457.4598, 506.0785
457.9419, 510.6911
458.4240, 513.9481
458.9062, 515.8133
459.3883, 518.6354
459.8704, 523.6276
460.3525, 528.2693
460.8346, 531.8488
461.3167, 534.8327
461.7989, 537.8920
462.2810, 541.3023
462.7631, 544.6352
463.2452, 547.1887
463.7273, 548.8510
464.2094, 550.4094
464.6916, 552.5133
465.1737, 553.9396
465.6558, 553.7646
466.1379, 552.2592
466.6200, 550.4812
467.1021, 548.9750
467.5843, 547.5759
468.0664, 546.1195
468.5485, 544.6835
469.0306, 542.5616
469.5127, 539.2196
469.9948, 535.0828
470.4770, 530.9232
470.9591, 526.7891
471.4412, 522.5565
471.9233, 518.1065
472.4054, 513.5280
472.8875, 509.1573
473.3697, 505.0873
473.8518, 500.6736
474.3339, 495.1764
474.8160, 488.6179
475.2981, 482.6247
475.7802, 477.1306
476.2624, 472.2694
476.7445, 468.3826
477.2266, 465.0964
477.7087, 461.8051
478.1908, 458.2420
478.6729, 454.4555
479.1551, 450.5021
479.6372, 446.0380
480.1193, 442.2155
480.6014, 438.9336
481.0835, 436.2665
481.5656, 434.5888
482.0478, 433.5926
482.5299, 432.5492
483.0120, 430.9874
483.4941, 429.0107
483.9762, 427.0264
484.4583, 424.9492
484.9405, 423.0552
485.4226, 421.6420
485.9047, 420.2513
486.3868, 418.4506
486.8689, 416.2215
487.3510, 414.0464
487.8332, 412.4169
488.3153, 411.2184
488.7974, 409.8837
489.2795, 408.4742
489.7616, 406.7285
490.2437, 404.3907
490.7259, 401.6234
491.2080, 398.5021
491.6901, 394.7723
492.1722, 391.2625
492.6543, 388.9152
493.1364, 387.2940
493.6186, 385.1637
494.1007, 382.1848
494.5828, 378.6253
495.0649, 374.6633
495.5470, 370.2453
496.0291, 365.9884
496.5113, 361.8316
496.9934, 357.8944
497.4755, 354.3524
497.9576, 351.0818
498.4397, 347.8128
498.9218, 344.4445
499.4040, 340.9492
499.8861, 337.3222
500.3682, 333.7547
500.8503, 329.7025
501.3324, 324.5397
501.8145, 319.4660
502.2967, 315.2554
502.7788, 311.7982
503.2609, 308.4712
503.7430, 304.8011
504.2251, 300.9444
504.7072, 297.5746
505.1894, 294.8444
505.6715, 292.2240
506.1536, 289.7921
506.6357, 287.2689
507.1178, 284.2932
507.5999, 280.8626
508.0821, 277.6199
508.5642, 275.2351
509.0463, 273.4055
509.5284, 271.1375
510.0105, 268.2654
510.4926, 265.4797
510.9748, 263.3557
511.4569, 261.5963
511.9390, 259.4390
512.4211, 256.5094
512.9032, 253.8240
513.3853, 252.0349
513.8674, 250.7860
514.3495, 249.5448
514.8317, 248.1783
515.3138, 246.6745
515.7959, 244.9511
516.2780, 242.9598
516.7601, 241.4621
517.2422, 241.0622
517.7244, 240.3887
518.2065, 238.6346
518.6886, 236.4340
519.1707, 234.7032
519.6528, 233.7701
520.1349, 233.3179
520.6171, 232.9513
521.0992, 232.7613
521.5813, 232.2890
522.0634, 231.0730
522.5455, 230.0342
523.0276, 229.7063
523.5098, 229.7671
523.9919, 229.5546
524.4740, 228.6924
524.9561, 227.6737
525.4382, 227.3223
525.9203, 227.6560
526.4025, 227.6908
526.8846, 227.0777
527.3667, 226.2534
527.8488, 225.4309
528.3309, 224.6729
528.8130, 224.4849
529.2952, 225.3945
529.7773, 226.6436
530.2594, 227.7139
530.7415, 228.5483
531.2236, 229.0037
531.7057, 229.0177
532.1879, 228.6052
532.6700, 227.6877
533.1521, 225.5451
533.6342, 224.6200
534.1163, 225.8322
534.5984, 227.5312
535.0806, 228.7311
535.5627, 229.4684
536.0448, 230.2087
536.5269, 231.2484
537.0090, 232.4315
537.4911, 233.2527
537.9733, 233.5609
538.4554, 233.8474
538.9375, 233.7911
539.4196, 234.0385
539.9017, 235.1646
540.3839, 237.0361
540.8660, 238.9661
541.3481, 240.6549
541.8302, 242.0313
542.3123, 242.6464
542.7944, 242.3307
543.2766, 242.7930
543.7587, 245.1539
544.2408, 248.2832
544.7229, 250.3566
545.2050, 251.2009
545.6871, 252.5785
546.1693, 255.6853
546.6514, 259.2488
547.1335, 261.7349
547.6156, 263.2003
548.0977, 264.7714
548.5798, 267.0768
549.0620, 270.0692
549.5441, 273.5655
550.0262, 278.1601
550.5083, 282.4725
550.9904, 286.4847
551.4725, 290.2234
551.9547, 293.5502
552.4368, 296.5862
552.9189, 299.7364
553.4010, 303.2943
553.8831, 307.1781
554.3652, 310.9745
554.8474, 314.5253
555.3295, 318.3487
555.8116, 323.3885
556.2937, 328.1874
556.7758, 331.2938
557.2579, 332.7699
557.7401, 334.5246
558.2222, 337.8184
558.7043, 342.0381
559.1864, 346.6454
559.6685, 351.6008
560.1506, 355.1661
560.6328, 355.9950
561.1149, 355.3601
561.5970, 356.2787
562.0791, 359.5448
562.5612, 361.5250
563.0433, 361.1130
563.5255, 359.4865
564.0076, 357.5111
564.4897, 355.2484
564.9718, 352.4976
565.4539, 349.1675
565.9360, 345.1295
566.4182, 339.9357
566.9003, 332.9090
567.3824, 325.9036
567.8645, 318.8731
568.3466, 312.0333
568.8287, 305.6187
569.3109, 299.5272
569.7930, 293.5807
570.2751, 287.6782
570.7572, 281.7710
571.2393, 275.7982
571.7214, 269.7826
572.2036, 263.6122
572.6857, 256.9644
573.1678, 250.5538
573.6499, 245.1894
574.1320, 240.8555
574.6141, 236.9017
575.0963, 233.1756
575.5784, 229.7604
576.0605, 226.9153
576.5426, 224.4760
577.0247, 221.8259
577.5068, 218.6643
577.9890, 215.3523
578.4711, 212.5351
578.9532, 210.1604
579.4353, 208.4846
579.9174, 208.3603
580.3995, 207.9955
580.8817, 206.1989
581.3638, 203.5800
581.8459, 201.4605
582.3280, 200.5030
582.8101, 199.9554
583.2922, 198.4095
583.7744, 195.7569
584.2565, 193.7985
584.7386, 193.1281
585.2207, 192.6640
585.7029, 191.7196
586.1850, 190.3813
586.6671, 188.8067
587.1492, 186.6620
587.6313, 184.7811
588.1135, 184.0022
588.5956, 183.9231
589.0777, 183.6320
589.5598, 182.9009
590.0419, 181.9030
590.5240, 180.7541
591.0062, 179.4358
591.4883, 178.5110
591.9704, 178.5788
592.4525, 178.2687
592.9346, 177.0518
593.4167, 175.3783
593.8989, 173.6819
594.3810, 172.1059
594.8631, 170.6378
595.3452, 169.1472
595.8273, 167.6964
596.3094, 167.1352
596.7916, 168.0586
597.2737, 168.5102
597.7558, 167.0933
598.2379, 165.0410
598.7200, 163.6137
599.2021, 162.9802
599.6843, 162.6015
600.1664, 162.5191
600.6485, 162.3682
601.1306, 161.3516
601.6127, 159.5533
602.0948, 158.2394
602.5770, 158.2616
603.0591, 159.0486
603.5412, 159.0220
604.0233, 157.5399
604.5054, 156.2522
604.9875, 155.2011
605.4697, 154.2977
605.9518, 153.4711
606.4339, 152.7458
606.9160, 152.2318
607.3981, 152.0122
607.8802, 151.9353
608.3624, 151.6971
608.8445, 151.2775
609.3266, 150.8463
609.8087, 150.3116
610.2908, 149.9330
610.7729, 149.9963
611.2551, 150.3640
611.7372, 150.6169
612.2193, 150.4512
612.7014, 150.3869
613.1835, 150.9813
613.6656, 151.9249
614.1478, 152.5047
614.6299, 152.5443
615.1120, 152.4027
615.5941, 152.4019
616.0762, 152.5413
616.5583, 152.9389
617.0405, 153.7204
617.5226, 154.6046
618.0047, 155.6992
618.4868, 156.7868
618.9689, 157.7045
619.4510, 158.4025
619.9332, 158.8416
620.4153, 158.8890
620.8974, 158.6745
621.3795, 158.6268
621.8616, 158.7308
622.3438, 159.1057
622.8259, 159.9280
623.3080, 160.9373
623.7901, 161.7839
624.2722, 162.4642
624.7543, 163.1233
625.2365, 163.7775
625.7186, 164.4500
626.2007, 165.2121
626.6828, 166.0054
627.1649, 166.5699
627.6470, 166.7883
628.1292, 167.0564
628.6113, 168.0767
629.0934, 170.0985
629.5755, 171.8322
630.0576, 173.2441
630.5397, 174.3741
631.0219, 174.9713
631.5040, 175.3863
631.9861, 176.1407
632.4682, 177.3951
632.9503, 178.6983
633.4324, 179.7326
633.9146, 180.4865
634.3967, 180.7513
634.8788, 180.4319
635.3609, 180.3866
635.8430, 181.2094
636.3251, 182.6103
636.8073, 183.7562
637.2894, 184.6299
637.7715, 185.3570
638.2536, 186.1283
638.7357, 186.6236
639.2178, 186.4120
639.7000, 185.6967
640.1821, 185.1096
640.6642, 185.0076
641.1463, 185.0806
641.6284, 184.6930
642.1105, 183.7871
642.5927, 182.7107
643.0748, 181.2905
643.5569, 179.9685
644.0390, 179.3760
644.5211, 178.9807
645.0032, 177.6167
645.4854, 174.6674
645.9675, 171.5458
646.4496, 169.2134
646.9317, 167.3419
647.4138, 165.4258
647.8959, 163.3642
648.3781, 161.0051
648.8602, 158.1950
649.3423, 155.0472
649.8244, 152.2092
650.3065, 149.9417
650.7886, 147.5882
651.2708, 144.9209
651.7529, 142.3280
652.2350, 140.2680
652.7171, 138.5214
653.1992, 136.4075
653.6813, 133.4645
654.1635, 130.2078
654.6456, 127.3865
655.1277, 124.9776
655.6098, 122.7329
656.0919, 120.6610
656.5740, 118.5859
657.0562, 116.2927
657.5383, 113.8502
658.0204, 111.7216
658.5025, 110.0309
658.9846, 108.5106
659.4667, 107.2268
659.9489, 106.0058
660.4310, 104.6909
660.9131, 103.2534
661.3952, 101.6897
661.8773, 99.94442
662.3594, 98.13639
662.8416, 96.65665
663.3237, 95.56941
663.8058, 94.55989
664.2879, 93.61372
664.7700, 92.68457
665.2521, 91.69701
665.7343, 90.69209
666.2164, 89.81345
666.6985, 89.14601
667.1806, 88.55028
667.6627, 88.03964
668.1448, 87.50134
668.6270, 86.63084
669.1091, 85.40185
669.5912, 84.20640
670.0733, 83.40667
670.5554, 82.94523
671.0375, 82.38151
671.5197, 81.63923
672.0018, 80.92184
672.4839, 80.13696
672.9660, 79.48003
673.4481, 79.17615
673.9302, 79.13506
674.4124, 79.03706
674.8945, 78.72025
675.3766, 78.27923
675.8587, 77.80494
676.3408, 77.30435
676.8229, 76.84131
677.3051, 76.44796
677.7872, 75.93102
678.2693, 75.00517
678.7514, 73.75211
679.2335, 73.13490
679.7156, 73.63757
680.1978, 74.05372
680.6799, 74.27654
681.1620, 74.30141
681.6441, 74.01940
682.1262, 73.52157
682.6083, 73.13022
683.0905, 73.10751
683.5726, 73.15724
684.0547, 72.61024
684.5368, 71.46986
685.0189, 70.55187
685.5010, 70.03591
685.9832, 69.72059
686.4653, 69.46731
686.9474, 69.28284
687.4295, 69.19017
687.9116, 69.30190
688.3937, 69.35160
688.8759, 69.21305
689.3580, 69.00896
689.8401, 68.95239
690.3222, 68.97828
690.8043, 68.71875
691.2864, 67.88067
691.7686, 66.80041
692.2507, 66.35765
692.7328, 66.67706
693.2149, 66.83157
693.6970, 66.59758
694.1791, 66.32407
694.6613, 66.33105
695.1434, 66.46963
695.6255, 66.36697
696.1076, 65.75722
696.5897, 65.33202
697.0718, 65.68473
697.5540, 66.22995
698.0361, 66.18295
698.5182, 65.57475
699.0003, 64.98098
699.4824, 64.75636
699.9645, 64.76270
700.4467, 64.68257
700.9288, 64.51640
701.4109, 64.24873
701.8930, 63.64367
702.3751, 63.23334
702.8572, 63.31079
703.3394, 63.73091
703.8215, 64.34881
704.3036, 65.26634
704.7857, 65.82568
705.2678, 65.32257
705.7499, 64.40744
706.2321, 64.00564
706.7142, 64.09832
707.1963, 64.09944
707.6784, 63.68013
708.1605, 63.13783
708.6426, 63.07860
709.1248, 63.63314
709.6069, 64.21260
710.0890, 65.11603
710.5711, 65.67941
711.0532, 65.68942
711.5353, 65.23415
712.0175, 64.22729
712.4996, 62.61154
712.9817, 61.38362
713.4638, 61.43043
713.9459, 62.06440
714.4280, 62.36139
714.9102, 62.33659
715.3923, 62.30676
715.8744, 62.40287
716.3565, 62.55724
716.8386, 62.66359
717.3207, 62.70109
717.8029, 62.83972
718.2850, 63.31957
718.7671, 63.59457
719.2492, 63.45372
719.7313, 63.11061
720.2134, 62.65493
720.6956, 62.15364
721.1777, 61.93113
721.6598, 62.47642
722.1419, 63.20155
722.6240, 63.21677
723.1061, 62.71773
723.5883, 62.53469
724.0704, 62.92767
724.5525, 63.45634
725.0346, 63.67790
725.5167, 63.59541
725.9988, 63.36104
726.4810, 62.71098
726.9631, 62.29314
727.4452, 62.43141
727.9273, 62.61646
728.4094, 62.37368
728.8915, 61.80532
729.3737, 61.41594
729.8558, 61.50196
730.3379, 61.74990
730.8200, 61.92535
731.3021, 61.98914
731.7842, 61.72992
732.2664, 61.12164
732.7485, 60.63586
733.2306, 60.64858
733.7127, 61.04298
734.1948, 61.37325
734.6769, 61.75785
735.1591, 61.85254
735.6412, 61.52276
736.1233, 61.05188
736.6054, 60.33718
737.0875, 59.64484
737.5696, 59.51479
738.0518, 60.19989
738.5339, 60.95518
739.0160, 61.22308
739.4981, 61.14456
739.9802, 60.85993
740.4623, 60.43162
740.9445, 60.22879
741.4266, 60.46534
741.9087, 60.89165
742.3908, 61.05816
742.8729, 60.90908
743.3550, 60.74225
743.8372, 60.59548
744.3193, 60.38199
744.8014, 59.96419
745.2835, 59.53488
745.7656, 59.32786
746.2477, 59.36554
746.7299, 59.43516
747.2120, 59.44255
747.6941, 59.40448
748.1762, 59.28838
748.6583, 59.14190
749.1404, 59.13440
749.6226, 59.31194
750.1047, 59.53205
750.5868, 59.65857
751.0689, 59.69239
751.5510, 59.65391
752.0331, 59.59901
752.5153, 59.36200
752.9974, 58.65358
753.4795, 57.98281
753.9616, 57.55257
754.4437, 57.42392
754.9258, 57.78236
755.4080, 59.00250
755.8901, 60.10358
756.3722, 60.36958
756.8543, 60.11810
757.3364, 59.75570
757.8185, 59.35342
758.3007, 58.87569
758.7828, 58.28947
759.2649, 57.69659
759.7470, 57.33261
760.2291, 57.24614
760.7112, 57.13666
761.1934, 56.93219
761.6755, 56.80658
762.1576, 56.97742
762.6397, 57.20880
763.1218, 57.13005
763.6039, 56.65653
764.0861, 56.39042
764.5682, 56.73928
765.0503, 57.18852
765.5324, 57.37572
766.0145, 57.34830
766.4966, 57.23607
766.9788, 57.07841
767.4609, 56.83880
767.9430, 56.45339
768.4251, 55.96497
768.9072, 55.54920
769.3893, 55.16548
769.8715, 55.09806
770.3536, 55.55834
770.8357, 56.15828
771.3178, 56.64336
771.7999, 56.98052
772.2820, 56.98456
772.7642, 56.25157
773.2463, 55.71619
773.7284, 55.84237
774.2105, 56.10652
774.6926, 56.11899
775.1747, 55.84174
775.6569, 55.25582
776.1390, 54.31131
776.6211, 53.45015
777.1032, 53.29312
777.5853, 53.76341
778.0674, 54.59524
778.5496, 55.86420
779.0317, 56.64020
779.5138, 56.36085
779.9959, 55.49213
780.4780, 54.79142
780.9601, 54.21879
781.4423, 54.01348
781.9244, 54.58048
782.4065, 55.00651
782.8886, 55.01768
783.3707, 54.73027
783.8528, 54.13548
784.3350, 53.32915
784.8171, 52.72611
785.2992, 52.54998
785.7813, 52.73719
786.2634, 53.47174
786.7455, 54.50546
787.2277, 54.94983
787.7098, 54.63517
788.1919, 54.15083
788.6740, 53.94092
789.1561, 53.94736
789.6382, 53.96453
790.1204, 53.98962
790.6025, 54.03271
791.0846, 54.15777
791.5667, 54.22918
792.0488, 54.20308
792.5309, 54.08118
793.0131, 53.79435
793.4952, 53.27656
793.9773, 53.01448
794.4594, 53.55067
794.9415, 54.17739
795.4236, 54.16191
795.9058, 53.70699
796.3879, 53.34458
796.8700, 53.24070
797.3521, 53.22706
797.8342, 53.12002
798.3163, 52.95628
798.7985, 52.97397
799.2806, 53.23643
799.7627, 53.28568
800.2448, 52.88807
800.7269, 52.46394
801.2090, 52.38208
801.6912, 52.59367
802.1733, 52.79092
802.6554, 52.95044
803.1375, 53.13108
803.6196, 53.49839
804.1017, 53.75030
804.5839, 53.39915
805.0660, 52.81448
805.5481, 52.92683
806.0302, 54.08712
806.5123, 55.17685
806.9944, 54.93585
807.4766, 53.82918
807.9587, 52.72112
808.4408, 51.70729
808.9229, 51.60984
809.4050, 52.85235
809.8871, 54.33466
810.3693, 54.71820
810.8514, 54.01349
811.3335, 53.43319
811.8156, 52.89696
812.2977, 52.62189
812.7798, 52.97327
813.2620, 53.28360
813.7441, 52.87515
814.2262, 52.07006
814.7083, 51.85864
815.1904, 52.73779
815.6725, 53.65252
816.1547, 53.98880
816.6368, 54.06692
817.1189, 54.20809
817.6010, 54.43399
818.0831, 54.72349
818.5652, 55.06272
819.0474, 55.31495
819.5295, 55.23789
820.0116, 54.88316
820.4937, 54.78684
820.9758, 55.02482
821.4579, 55.02704
821.9401, 54.46915
822.4222, 53.86531
822.9043, 53.81646
823.3864, 54.29588
823.8685, 54.53938
824.3506, 54.24404
824.8328, 54.14714
825.3149, 54.59457
825.7970, 55.06789
826.2791, 55.11863
826.7612, 54.90025
827.2433, 54.86893
827.7255, 55.21861
828.2076, 55.54681
828.6897, 55.44950
829.1718, 55.14182
829.6539, 54.91109
830.1360, 54.79749
830.6182, 54.98368
831.1003, 55.54331
831.5824, 55.95449
832.0645, 55.50488
832.5466, 54.29663
833.0287, 53.65520
833.5109, 53.74235
833.9930, 53.93027
834.4751, 54.19741
834.9572, 54.39968
835.4393, 54.27052
835.9214, 53.97900
836.4036, 54.07695
836.8857, 54.97888
837.3678, 55.51080
837.8499, 54.68884
838.3320, 54.04860
838.8141, 55.27914
839.2963, 57.34486
839.7784, 58.14980
840.2605, 57.08639
840.7426, 55.55816
841.2247, 54.70570
841.7068, 54.29786
842.1890, 53.96904
842.6711, 53.68933
843.1532, 53.23021
843.6353, 52.51922
844.1174, 51.98328
844.5995, 52.02342
845.0817, 52.52760
845.5638, 53.02320
846.0459, 53.59795
846.5280, 53.90515
847.0101, 53.71992
847.4922, 53.52032
847.9744, 53.59746
848.4565, 53.79425
848.9386, 53.86729
849.4207, 53.78171
849.9028, 53.69265
850.3849, 53.69111
850.8671, 53.64502
851.3492, 53.41170
851.8313, 53.12041
852.3134, 52.98511
852.7955, 53.00463
853.2776, 52.95349
853.7598, 52.65429
854.2419, 52.26334
854.7240, 51.98521
855.2061, 51.81713
855.6882, 51.79666
856.1703, 51.92296
856.6525, 52.01309
857.1346, 51.97406
857.6167, 51.79518
858.0988, 51.38146
858.5809, 50.60283
859.0630, 50.49902
859.5452, 51.52430
860.0273, 52.41713
860.5094, 52.81075
860.9915, 52.90016
861.4736, 52.74369
861.9557, 52.40115
862.4379, 52.20135
862.9200, 52.25456
863.4021, 52.38677
863.8842, 52.75917
864.3663, 53.00324
864.8484, 52.63115
865.3306, 51.88177
865.8127, 51.36265
866.2948, 51.30644
866.7769, 51.42209
867.2590, 51.46566
867.7411, 51.46224
868.2233, 51.45837
868.7054, 51.45492
869.1875, 51.48714
869.6696, 51.56704
870.1517, 51.49904
870.6339, 51.03783
871.1160, 50.34721
871.5981, 50.22441
872.0802, 50.87831
872.5623, 51.34301
873.0444, 51.46783
873.5266, 51.48954
874.0087, 51.51664
874.4908, 51.53301
874.9729, 51.52372
875.4550, 51.50233
875.9371, 51.37705
876.4193, 50.87318
876.9014, 50.57603
877.3835, 50.94495
877.8656, 51.50239
878.3477, 51.77722
878.8298, 51.72447
879.3120, 51.46983
879.7941, 50.96450
880.2762, 50.57312
880.7583, 50.68776
881.2404, 51.14263
881.7225, 51.81122
882.2047, 52.56636
882.6868, 52.92780
883.1689, 52.68977
883.6510, 52.24156
884.1331, 52.08581
884.6152, 52.16965
885.0974, 52.04272
885.5795, 51.64637
886.0616, 51.47541
886.5437, 51.66858
887.0258, 52.07518
887.5079, 52.70002
887.9901, 53.40886
888.4722, 53.65596
888.9543, 53.11767
889.4364, 52.73150
889.9185, 52.52448
890.4006, 52.43608
890.8828, 52.52855
891.3649, 52.67631
891.8470, 52.60041
892.3291, 52.32496
892.8112, 52.49194
893.2933, 54.04195
893.7755, 55.33579
894.2576, 55.02620
894.7397, 54.07576
895.2218, 53.63307
895.7039, 53.74099
896.1860, 53.93773
896.6682, 54.00347
897.1503, 54.05009
897.6324, 54.24213
898.1145, 54.51930
898.5966, 54.63481
899.0787, 54.62035
899.5609, 54.92106
900.0430, 55.70374
900.5251, 56.41608
901.0072, 56.45754
901.4893, 56.04417
901.9714, 56.30354
902.4536, 57.53511
902.9357, 58.30742
903.4178, 58.22584
903.8999, 58.16901
904.3820, 58.78304
904.8641, 59.59969
905.3463, 59.69039
905.8284, 58.91341
906.3105, 58.61375
906.7926, 59.29333
907.2747, 59.94043
907.7568, 60.13711
908.2390, 60.26325
908.7211, 60.70445
909.2032, 61.38292
909.6853, 61.95636
910.1674, 62.26490
910.6495, 62.60697
911.1317, 63.14058
911.6138, 63.84494
912.0959, 64.77359
912.5780, 65.83501
913.0601, 66.80849
913.5422, 67.65149
914.0244, 68.52221
914.5065, 69.54341
914.9886, 70.70799
915.4707, 72.23916
915.9528, 73.98155
916.4349, 74.79655
916.9171, 74.51290
917.3992, 74.22758
917.8813, 74.48490
918.3634, 75.27123
918.8455, 76.63598
919.3276, 78.62326
919.8098, 80.47603
920.2919, 82.25391
920.7740, 83.75218
921.2561, 84.82835
921.7382, 85.73597
922.2203, 86.52414
922.7025, 87.31542
923.1846, 88.62387
923.6667, 90.96819
924.1488, 92.70658
924.6309, 92.93930
925.1130, 93.39010
925.5952, 95.11105
926.0773, 97.33370
926.5594, 99.19223
927.0415, 100.5552
927.5236, 101.5914
928.0057, 102.1437
928.4879, 102.7255
928.9700, 103.8121
929.4521, 105.0118
929.9342, 105.7891
930.4163, 106.2704
930.8984, 106.9187
931.3806, 107.9106
931.8627, 109.0872
932.3448, 110.4806
932.8269, 111.8402
933.3090, 112.5729
933.7911, 112.7963
934.2733, 112.8676
934.7554, 112.8913
935.2375, 113.3737
935.7196, 114.7366
936.2017, 116.3687
936.6838, 116.7821
937.1660, 115.8811
937.6481, 115.8633
938.1302, 116.9871
938.6123, 117.8506
939.0944, 117.8819
939.5765, 117.7224
940.0587, 118.0395
940.5408, 118.7533
941.0229, 119.2641
941.5050, 119.4622
941.9871, 119.6577
942.4692, 119.8075
942.9514, 120.0134
943.4335, 120.4788
943.9156, 120.9285
944.3977, 120.8585
944.8798, 120.2619
945.3619, 120.1338
945.8441, 121.1606
946.3262, 122.0620
946.8083, 122.3818
947.2904, 122.3919
947.7725, 122.0054
948.2546, 121.5813
948.7368, 122.0176
949.2189, 123.6140
949.7010, 124.8067
950.1831, 124.1451
950.6652, 122.9855
951.1473, 122.7265
951.6295, 122.9601
952.1116, 122.9732
952.5937, 122.6405
953.0758, 121.9803
953.5579, 120.9276
954.0400, 120.2015
954.5222, 121.1788
955.0043, 123.1858
955.4864, 124.2639
955.9685, 124.4115
956.4506, 124.1052
956.9327, 123.4899
957.4149, 123.0492
957.8970, 123.2166
958.3791, 123.8733
958.8612, 124.7274
959.3433, 125.7978
959.8254, 126.7232
960.3076, 127.4519
960.7897, 128.1119
961.2718, 128.6242
961.7539, 129.3860
962.2360, 131.0370
962.7181, 133.5159
963.2003, 135.1887
963.6824, 135.2717
964.1645, 136.1810
964.6466, 138.6998
965.1287, 141.3907
965.6108, 143.4817
966.0930, 145.2736
966.5751, 147.1868
967.0572, 149.2319
967.5393, 151.3462
968.0214, 153.2699
968.5035, 155.5943
968.9857, 158.7419
969.4678, 162.1143
969.9499, 165.1773
970.4320, 168.1389
970.9141, 171.6893
971.3962, 176.0624
971.8784, 180.1555
972.3605, 182.7763
972.8426, 185.6451
973.3247, 190.3725
973.8068, 195.7711
974.2889, 200.0743
974.7711, 203.4937
975.2532, 207.7632
975.7353, 213.7480
976.2174, 220.2905
976.6995, 226.4694
977.1816, 232.4857
977.6638, 238.6981
978.1459, 244.9824
978.6280, 250.7299
979.1101, 256.0009
979.5922, 261.8583
980.0743, 269.1495
980.5565, 276.8600
981.0386, 283.0573
981.5207, 288.2521
982.0028, 294.2161
982.4849, 300.9850
982.9670, 308.1844
983.4492, 315.6725
983.9313, 323.0827
984.4134, 330.0650
984.8955, 336.7942
985.3776, 344.0775
985.8597, 351.9620
986.3419, 358.4938
986.8240, 363.2183
987.3061, 368.7651
987.7882, 376.4442
988.2703, 384.9267
988.7524, 392.6408
989.2346, 399.7182
989.7167, 407.1087
990.1988, 414.9256
990.6809, 422.7936
991.1630, 430.7122
991.6451, 438.6313
992.1273, 446.2583
992.6094, 454.1348
993.0915, 463.3285
993.5736, 473.9283
994.0557, 483.6297
994.5378, 491.9098
995.0200, 499.9633
995.5021, 507.1889
995.9842, 514.9472
996.4663, 524.3174
996.9484, 534.5831
997.4305, 544.9020
997.9127, 555.2745
998.3948, 564.2423
998.8769, 570.7548
999.3590, 576.9710
999.8411, 583.9006
1000.323, 590.5099
1000.805, 595.9557
1001.287, 600.4529
1001.770, 604.6686
1002.252, 608.8121
1002.734, 611.4064
1003.216, 611.5432
1003.698, 610.2806
1004.180, 607.8865
1004.662, 604.6757
1005.144, 601.0458
1005.627, 596.8877
1006.109, 591.8182
1006.591, 585.6930
1007.073, 578.8627
1007.555, 571.7343
1008.037, 563.9046
1008.519, 554.7466
1009.001, 544.7860
1009.483, 535.0322
1009.966, 525.4085
1010.448, 514.9037
1010.930, 503.0811
1011.412, 491.1451
1011.894, 480.6313
1012.376, 470.6667
1012.858, 459.6386
1013.340, 447.9711
1013.823, 436.6391
1014.305, 425.8502
1014.787, 415.3701
1015.269, 405.1172
1015.751, 395.2076
1016.233, 386.0088
1016.715, 377.2938
1017.197, 368.3060
1017.679, 359.2123
1018.162, 350.6068
1018.644, 342.6345
1019.126, 335.0015
1019.608, 327.5433
1020.090, 320.3785
1020.572, 313.6876
1021.054, 307.4832
1021.536, 301.6070
1022.018, 296.0653
1022.501, 290.8126
1022.983, 285.8011
1023.465, 280.9721
1023.947, 276.2637
1024.429, 271.7283
1024.911, 267.3805
1025.393, 263.2039
1025.875, 259.8392
1026.358, 257.4064
1026.840, 254.7667
1027.322, 251.5772
1027.804, 248.3252
1028.286, 245.3475
1028.768, 242.6487
1029.250, 240.2784
1029.732, 238.3062
1030.214, 236.1741
1030.697, 233.7376
1031.179, 231.7360
1031.661, 230.6484
1032.143, 229.3192
1032.625, 226.6150
1033.107, 223.1594
1033.589, 220.7545
1034.071, 219.5916
1034.553, 218.6596
1035.036, 218.1721
1035.518, 217.4128
1036.000, 216.0152
1036.482, 214.5634
1036.964, 213.5534
1037.446, 212.8252
1037.928, 211.9345
1038.410, 210.8596
1038.893, 209.6827
1039.375, 208.1006
1039.857, 206.9060
1040.339, 206.4399
1040.821, 206.2662
1041.303, 206.3271
1041.785, 206.3905
1042.267, 205.6862
1042.750, 203.7870
1043.232, 202.5517
1043.714, 202.3962
1044.196, 202.3702
1044.678, 202.2502
1045.160, 202.1962
1045.642, 202.3499
1046.124, 202.6538
1046.606, 202.9905
1047.089, 203.3869
1047.571, 203.6587
1048.053, 203.7157
1048.535, 203.7376
1049.017, 203.6245
1049.499, 203.6318
1049.981, 203.9419
1050.463, 204.5213
1050.945, 205.3168
1051.428, 206.3647
1051.910, 207.3579
1052.392, 208.2042
1052.874, 209.0327
1053.356, 209.7441
1053.838, 210.5914
1054.320, 212.2043
1054.802, 213.9532
1055.285, 214.4114
1055.767, 213.2426
1056.249, 212.4318
1056.731, 212.2679
1057.213, 212.8520
1057.695, 215.1506
1058.177, 217.3251
1058.659, 217.6312
1059.141, 216.8971
1059.624, 217.0214
1060.106, 218.3290
1060.588, 218.7480
1061.070, 216.7358
1061.552, 214.8965
1062.034, 214.6073
1062.516, 214.5486
1062.998, 213.7300
1063.480, 212.3842
1063.963, 211.0044
1064.445, 209.6807
1064.927, 208.3112
1065.409, 206.7079
1065.891, 205.2551
1066.373, 204.2529
1066.855, 203.3260
1067.337, 202.1548
1067.820, 200.8771
1068.302, 199.6968
1068.784, 198.6592
1069.266, 197.7800
1069.748, 197.2231
1070.230, 196.5585
1070.712, 195.6203
1071.194, 194.4738
1071.677, 193.1782
1072.159, 191.6923
1072.641, 189.8640
1073.123, 187.7412
1073.605, 185.7213
1074.087, 183.9917
1074.569, 182.2831
1075.051, 180.4804
1075.533, 178.6432
1076.016, 176.9958
1076.498, 175.2221
1076.980, 172.7131
1077.462, 169.6452
1077.944, 166.9494
1078.426, 164.9310
1078.908, 163.3216
1079.390, 162.4129
1079.873, 161.3917
1080.355, 159.6612
1080.837, 157.5751
1081.319, 155.5520
1081.801, 153.5886
1082.283, 151.4275
1082.765, 148.9035
1083.247, 146.7500
1083.729, 145.4599
1084.212, 144.4426
1084.694, 143.7298
1085.176, 142.8155
1085.658, 140.9600
1086.140, 138.5370
1086.622, 136.5406
1087.104, 135.2171
1087.586, 133.8781
1088.068, 132.1771
1088.551, 130.4616
1089.033, 128.6795
1089.515, 127.1626
1089.997, 126.5050
1090.479, 126.2067
1090.961, 125.2259
1091.443, 123.4192
1091.925, 121.8654
1092.408, 121.3429
1092.890, 120.6340
1093.372, 118.9705
1093.854, 117.2385
1094.336, 115.8534
1094.818, 114.9346
1095.300, 114.8736
1095.782, 115.5060
1096.265, 115.4936
1096.747, 114.1975
1097.229, 112.7000
1097.711, 110.9973
1098.193, 109.6066
1098.675, 108.8976
1099.157, 108.6210
1099.639, 108.7524
1100.121, 109.0562
1100.604, 108.6594
1101.086, 107.0020
1101.568, 105.8186
1102.050, 105.8758
1102.532, 106.1031
1103.014, 106.2487
1103.496, 106.1723
1103.978, 105.6523
1104.460, 104.8434
1104.943, 104.0893
1105.425, 103.3915
1105.907, 103.0305
1106.389, 103.2078
1106.871, 103.5180
1107.353, 104.1655
1107.835, 104.5849
1108.317, 104.3960
1108.800, 103.7141
1109.282, 102.5894
1109.764, 100.9950
1110.246, 99.91177
1110.728, 99.60157
1111.210, 99.53964
1111.692, 99.99659
1112.174, 100.2913
1112.656, 100.0145
1113.139, 99.45421
1113.621, 98.96489
1114.103, 98.53462
1114.585, 97.96008
1115.067, 97.09285
1115.549, 96.35477
1116.031, 95.93420
1116.513, 95.37952
1116.995, 94.58140
1117.478, 93.55599
1117.960, 92.12587
1118.442, 90.52079
1118.924, 89.48567
1119.406, 89.20186
1119.888, 88.78616
1120.370, 88.31209
1120.852, 87.53355
1121.335, 86.26973
1121.817, 84.89758
1122.299, 83.52267
1122.781, 82.36198
1123.263, 81.88831
1123.745, 82.12126
1124.227, 82.12591
1124.709, 82.00909
1125.192, 81.22752
1125.674, 79.52367
1126.156, 77.68806
1126.638, 75.95206
1127.120, 74.58957
1127.602, 73.99537
1128.084, 74.00669
1128.566, 73.83298
1129.048, 73.45525
1129.531, 73.05739
1130.013, 72.64680
1130.495, 72.18769
1130.977, 71.65144
1131.459, 71.21918
1131.941, 71.08304
1132.423, 71.01571
1132.905, 70.41242
1133.387, 69.33506
1133.870, 68.84200
1134.352, 68.90418
1134.834, 68.64617
1135.316, 67.90752
1135.798, 67.36524
1136.280, 67.39778
1136.762, 67.64274
1137.244, 67.66912
1137.727, 67.50636
1138.209, 67.14619
1138.691, 66.67593
1139.173, 66.57546
1139.655, 66.79823
1140.137, 66.74430
1140.619, 66.22517
1141.101, 65.67249
1141.583, 65.47803
1142.066, 65.30540
1142.548, 64.44838
1143.030, 63.33811
1143.512, 62.92293
1143.994, 63.01405
1144.476, 62.99526
1144.958, 62.76473
1145.440, 62.55435
1145.922, 62.48335
1146.405, 62.41553
1146.887, 62.22520
1147.369, 61.96865
1147.851, 61.67932
1148.333, 61.38515
1148.815, 61.03700
1149.297, 60.74229
1149.779, 60.84241
1150.262, 61.38177
1150.744, 61.77013
1151.226, 61.64986
1151.708, 61.31670
1152.190, 60.87245
1152.672, 60.38493
1153.154, 59.77987
1153.636, 59.24409
1154.119, 59.13418
1154.601, 59.36233
1155.083, 59.37621
1155.565, 58.94392
1156.047, 58.57547
1156.529, 58.55913
1157.011, 58.48478
1157.493, 58.08867
1157.975, 57.63797
1158.458, 57.27594
1158.940, 57.06139
1159.422, 57.14733
1159.904, 57.57850
1160.386, 57.80819
1160.868, 57.53770
1161.350, 57.45401
1161.832, 57.78673
1162.314, 58.11187
1162.797, 58.22312
1163.279, 58.27665
1163.761, 58.43081
1164.243, 58.67094
1164.725, 58.88037
1165.207, 58.85321
1165.689, 59.63152
1166.171, 61.68576
1166.654, 63.06624
1167.136, 63.06679
1167.618, 63.02035
1168.100, 63.80011
1168.582, 65.05748
1169.064, 66.23547
1169.546, 67.33120
1170.028, 68.24049
1170.510, 68.95560
1170.993, 69.92805
1171.475, 71.21361
1171.957, 72.48309
1172.439, 73.62933
1172.921, 74.48614
1173.403, 74.87424
1173.885, 75.00218
1174.367, 75.35205
1174.849, 75.77708
1175.332, 75.69632
1175.814, 75.22338
1176.296, 74.92374
1176.778, 74.82460
1177.260, 74.43877
1177.742, 73.53116
1178.224, 72.39686
1178.706, 71.25710
1179.189, 70.10323
1179.671, 69.02323
1180.153, 67.85690
1180.635, 66.19205
1181.117, 64.30424
1181.599, 62.96900
1182.081, 62.21700
1182.563, 61.22701
1183.046, 59.61287
1183.528, 57.72364
1184.010, 55.32824
1184.492, 53.23991
1184.974, 52.36409
1185.456, 51.79017
1185.938, 50.51648
1186.420, 48.74454
1186.902, 47.12977
1187.385, 45.78723
1187.867, 44.50901
1188.349, 43.03004
1188.831, 41.94166
1189.313, 41.74429
1189.795, 41.48521
1190.277, 40.69561
1190.759, 39.63086
1191.241, 38.34648
1191.724, 37.02450
1192.206, 36.45172
1192.688, 36.95738
1193.170, 36.72580
1193.652, 35.35431
1194.134, 34.54508
1194.616, 34.80397
1195.098, 35.10935
1195.581, 34.90590
1196.063, 34.37255
1196.545, 33.68122
1197.027, 32.94533
1197.509, 32.75404
1197.991, 33.05561
1198.473, 33.00533
1198.955, 32.57433
1199.438, 32.13297
1199.920, 31.78336
1200.402, 31.32104
1200.884, 30.57656
1201.366, 30.07065
1201.848, 30.87550
1202.330, 32.14171
1202.812, 32.32931
1203.294, 31.69519
1203.776, 30.36391
1204.259, 28.79028
1204.741, 28.10681
1205.223, 28.53772
1205.705, 29.11121
1206.187, 29.32272
1206.669, 29.40020
1207.151, 29.44655
1207.633, 29.48127
1208.116, 29.29423
1208.598, 29.27900
1209.080, 30.35357
1209.562, 31.88463
1210.044, 32.05511
1210.526, 30.43813
1211.008, 29.02161
1211.490, 28.07985
1211.973, 27.51746
1212.455, 27.56763
1212.937, 27.68538
1213.419, 27.64444
1213.901, 27.55188
1214.383, 27.52741
1214.865, 27.53121
1215.347, 27.40961
1215.829, 27.12137
1216.312, 26.99268
1216.794, 27.03719
1217.276, 27.23371
1217.758, 27.63772
1218.240, 27.75522
1218.722, 27.29899
1219.204, 26.80512
1219.686, 26.91912
1220.168, 27.33408
1220.651, 27.18484
1221.133, 26.65458
1221.615, 26.54000
1222.097, 26.75397
1222.579, 26.75507
1223.061, 26.49055
1223.543, 26.31149
1224.025, 26.38487
1224.508, 26.62628
1224.990, 27.14061
1225.472, 27.56457
1225.954, 27.36562
1226.436, 27.01698
1226.918, 27.16505
1227.400, 27.50503
1227.882, 27.47837
1228.365, 27.05376
1228.847, 26.47895
1229.329, 25.71074
1229.811, 25.27766
1230.293, 25.52194
1230.775, 25.84619
1231.257, 26.36140
1231.739, 26.56266
1232.221, 25.74162
1232.703, 24.70425
1233.186, 24.52644
1233.668, 25.08142
1234.150, 25.54611
1234.632, 25.93951
1235.114, 26.12448
1235.596, 26.02661
1236.078, 26.13709
1236.560, 26.63785
1237.043, 26.82884
1237.525, 26.26287
1238.007, 25.47390
1238.489, 25.15042
1238.971, 25.13727
1239.453, 25.04508
1239.935, 24.88867
1240.417, 24.66360
1240.900, 24.42761
1241.382, 24.36764
1241.864, 24.50927
1242.346, 24.79766
1242.828, 25.21717
1243.310, 25.50159
1243.792, 25.23717
1244.274, 24.99363
1244.756, 25.12691
1245.239, 25.59481
1245.721, 26.89845
1246.203, 28.18270
1246.685, 27.90353
1247.167, 26.28655
1247.649, 25.28181
1248.131, 25.45546
1248.613, 25.45192
1249.095, 24.76201
1249.578, 24.44169
1250.060, 25.03610
1250.542, 25.42870
1251.024, 24.89202
1251.506, 24.14279
1251.988, 24.04351
1252.470, 24.44315
1252.952, 24.83145
1253.435, 25.21862
1253.917, 25.11008
1254.399, 24.52148
1254.881, 24.14882
1255.363, 24.10579
1255.845, 24.05988
1256.327, 23.85608
1256.809, 23.57364
1257.292, 23.23447
1257.774, 22.98682
1258.256, 23.14333
1258.738, 23.43486
1259.220, 23.42404
1259.702, 23.29455
1260.184, 23.48465
1260.666, 23.88107
1261.148, 23.93189
1261.630, 23.48417
1262.113, 23.16327
1262.595, 23.30962
1263.077, 23.44623
1263.559, 23.48919
1264.041, 23.42934
1264.523, 23.18169
1265.005, 22.90211
1265.487, 22.67550
1265.970, 22.54969
1266.452, 22.68165
1266.934, 23.08006
1267.416, 23.13040
1267.898, 22.76014
1268.380, 22.65615
1268.862, 22.90892
1269.344, 22.90220
1269.827, 22.43179
1270.309, 21.99811
1270.791, 21.96570
1271.273, 22.14174
1271.755, 22.31832
1272.237, 22.46911
1272.719, 22.56642
1273.201, 22.58806
1273.683, 22.49347
1274.166, 22.28915
1274.648, 21.93757
1275.130, 21.48748
1275.612, 21.16839
1276.094, 21.07112
1276.576, 21.08584
1277.058, 21.29257
1277.540, 21.43240
1278.022, 21.22149
1278.505, 21.11280
1278.987, 21.53293
1279.469, 22.12453
1279.951, 22.55044
1280.433, 22.77548
1280.915, 22.58264
1281.397, 21.85982
1281.879, 21.72483
1282.362, 22.26334
1282.844, 22.37866
1283.326, 21.88851
1283.808, 21.23838
1284.290, 20.61712
1284.772, 20.25307
1285.254, 20.31791
1285.736, 20.80960
##END=



