##NAMES=Kimzeyite
##RRUFFID=R060148
##IDEAL CHEMISTRY=Ca_3_Zr^4+^_2_(Al_2_Si)O_12_
##LOCALITY=Magnet Cove, Arkansas, USA
##OWNER=RRUFF
##SOURCE=University of Arizona Mineral Museum
##DESCRIPTION=Black dodecahedra mixed with andradite and associated with quartz
##STATUS=The identification of this mineral has been confirmed by X-ray diffraction and chemical analysis
##URL=rruff.info/R060148
##MEASURED CHEMISTRY=(Ca_2.97_Mg_0.03_)_Σ=3_(Zr_1.58_Ti_0.42_)_Σ=2_(Si_1.06_Fe^3+^_0.98_Al_0.96_)_Σ=3_O_12_
92.37695, 149.9689
92.85907, 149.4270
93.34119, 149.8567
93.82330, 150.1889
94.30542, 149.1700
94.78754, 146.4910
95.26965, 142.5771
95.75177, 138.1400
96.23389, 132.9215
96.71600, 127.7909
97.19812, 123.5576
97.68024, 120.3375
98.16235, 117.9186
98.64447, 116.2483
99.12659, 115.7848
99.60870, 114.5077
100.0908, 111.9910
100.5729, 108.9896
101.0551, 106.0351
101.5372, 103.2957
102.0193, 100.8481
102.5014, 99.28042
102.9835, 99.51311
103.4656, 99.72105
103.9478, 99.82991
104.4299, 99.69214
104.9120, 99.08941
105.3941, 97.81033
105.8762, 95.75499
106.3583, 93.88229
106.8405, 92.25009
107.3226, 90.67645
107.8047, 88.94611
108.2868, 87.07372
108.7689, 85.38905
109.2510, 84.33389
109.7332, 83.94753
110.2153, 83.63115
110.6974, 83.33766
111.1795, 83.06389
111.6616, 82.79987
112.1437, 82.53918
112.6259, 82.30347
113.1080, 82.10574
113.5901, 81.94420
114.0722, 81.82771
114.5543, 81.79852
115.0364, 81.84959
115.5185, 81.84063
116.0007, 81.69731
116.4828, 81.51295
116.9649, 81.33884
117.4470, 81.18327
117.9291, 81.03088
118.4112, 80.81893
118.8934, 80.41845
119.3755, 80.29762
119.8576, 80.62228
120.3397, 81.13134
120.8218, 81.69994
121.3039, 82.27048
121.7861, 82.75605
122.2682, 82.90629
122.7503, 82.30232
123.2324, 81.77707
123.7145, 81.32500
124.1966, 80.99500
124.6788, 80.89091
125.1609, 81.10103
125.6430, 81.56372
126.1251, 81.73629
126.6072, 81.38145
127.0893, 81.04691
127.5715, 81.01426
128.0536, 81.23353
128.5357, 81.41835
129.0178, 81.34264
129.4999, 81.04054
129.9821, 80.80977
130.4642, 80.73079
130.9463, 80.68981
131.4284, 80.52680
131.9105, 80.19503
132.3926, 79.93757
132.8748, 79.96599
133.3569, 80.19607
133.8390, 80.51627
134.3211, 81.00156
134.8032, 81.55919
135.2853, 81.84805
135.7674, 81.67815
136.2496, 81.48042
136.7317, 81.44674
137.2138, 81.55803
137.6959, 81.75288
138.1780, 81.99532
138.6601, 82.28825
139.1423, 82.60132
139.6244, 83.00008
140.1065, 83.36552
140.5886, 83.64857
141.0707, 83.84931
141.5528, 84.00191
142.0350, 84.14296
142.5171, 84.26883
142.9992, 84.39116
143.4813, 84.48453
143.9634, 84.59026
144.4455, 84.71580
144.9277, 84.86903
145.4098, 85.08804
145.8919, 85.45165
146.3740, 86.14910
146.8561, 86.62935
147.3382, 86.73315
147.8204, 86.65304
148.3025, 86.59703
148.7846, 86.62527
149.2667, 86.75403
149.7488, 87.07849
150.2309, 87.68118
150.7131, 88.17470
151.1952, 88.42274
151.6773, 88.45016
152.1594, 88.32082
152.6415, 88.02258
153.1236, 87.59515
153.6058, 87.10354
154.0879, 86.51099
154.5700, 85.97375
155.0521, 85.63832
155.5342, 85.51228
156.0163, 85.43153
156.4985, 85.40434
156.9806, 85.36245
157.4627, 85.26649
157.9448, 85.11668
158.4269, 84.86833
158.9090, 84.36763
159.3912, 83.38762
159.8733, 82.75255
160.3554, 82.92933
160.8375, 83.36879
161.3196, 83.56554
161.8017, 83.28472
162.2839, 82.72287
162.7660, 82.48515
163.2481, 82.96925
163.7302, 83.25294
164.2123, 83.07510
164.6944, 82.66804
165.1766, 82.30827
165.6587, 82.14963
166.1408, 82.17175
166.6229, 82.24226
167.1050, 82.55225
167.5871, 82.70549
168.0693, 82.46938
168.5514, 82.01508
169.0335, 81.68433
169.5156, 81.71647
169.9977, 82.08514
170.4798, 82.32734
170.9620, 82.31478
171.4441, 82.32545
171.9262, 82.51739
172.4083, 82.85996
172.8904, 83.20447
173.3725, 83.46578
173.8547, 83.62222
174.3368, 83.66098
174.8189, 83.47036
175.3010, 83.24024
175.7831, 83.11723
176.2652, 83.10772
176.7474, 83.15701
177.2295, 83.23597
177.7116, 83.34584
178.1937, 83.49097
178.6758, 83.77292
179.1579, 84.05520
179.6401, 84.07718
180.1222, 83.72661
180.6043, 83.44677
181.0864, 83.62489
181.5685, 84.04829
182.0506, 84.37525
182.5328, 84.38677
183.0149, 84.19552
183.4970, 84.15283
183.9791, 84.30288
184.4612, 84.55373
184.9433, 84.98634
185.4255, 85.46733
185.9076, 85.75602
186.3897, 85.63094
186.8718, 85.14279
187.3539, 84.85183
187.8360, 84.87509
188.3182, 84.99785
188.8003, 85.19202
189.2824, 85.43584
189.7645, 85.71294
190.2466, 86.02985
190.7287, 86.39657
191.2109, 86.57998
191.6930, 86.36446
192.1751, 86.17531
192.6572, 86.17973
193.1393, 86.33566
193.6214, 86.49815
194.1036, 86.53506
194.5857, 86.42388
195.0678, 86.37057
195.5499, 86.34718
196.0320, 86.38897
196.5141, 86.56390
196.9963, 86.83981
197.4784, 87.08709
197.9605, 87.16492
198.4426, 87.03482
198.9247, 87.07836
199.4068, 87.48340
199.8890, 87.90201
200.3711, 88.06068
200.8532, 87.95445
201.3353, 87.83077
201.8174, 87.92945
202.2995, 88.26867
202.7817, 88.54581
203.2638, 88.73522
203.7459, 88.86723
204.2280, 88.95218
204.7101, 88.98911
205.1922, 89.02895
205.6744, 89.13011
206.1565, 89.27944
206.6386, 89.41110
207.1207, 89.46310
207.6028, 89.50975
208.0849, 89.67258
208.5671, 89.98875
209.0492, 90.31715
209.5313, 90.50344
210.0134, 90.61353
210.4955, 90.79377
210.9776, 91.20007
211.4598, 91.70187
211.9419, 91.98835
212.4240, 91.97116
212.9061, 91.90874
213.3882, 91.84657
213.8703, 91.85146
214.3525, 92.07609
214.8346, 92.70274
215.3167, 93.60857
215.7988, 94.33024
216.2809, 94.78732
216.7630, 95.17075
217.2451, 95.52718
217.7273, 95.88198
218.2094, 96.27893
218.6915, 96.74654
219.1736, 97.27800
219.6557, 97.82986
220.1378, 98.40099
220.6200, 98.99512
221.1021, 99.64580
221.5842, 100.3134
222.0663, 100.9381
222.5484, 101.4726
223.0305, 101.9267
223.5127, 102.3941
223.9948, 102.9224
224.4769, 103.4088
224.9590, 103.7745
225.4411, 104.0903
225.9232, 104.4575
226.4054, 104.9372
226.8875, 105.5309
227.3696, 106.3118
227.8517, 107.6457
228.3338, 108.7820
228.8159, 109.4639
229.2981, 109.8380
229.7802, 110.1480
230.2623, 110.5433
230.7444, 111.0265
231.2265, 111.6247
231.7086, 112.5054
232.1908, 113.3090
232.6729, 113.9374
233.1550, 114.4241
233.6371, 114.8219
234.1192, 115.1435
234.6013, 115.4196
235.0835, 115.8964
235.5656, 116.7636
236.0477, 117.5853
236.5298, 118.2265
237.0119, 118.7237
237.4940, 119.1800
237.9762, 119.6604
238.4583, 120.1328
238.9404, 120.4450
239.4225, 120.3727
239.9046, 120.4151
240.3867, 120.8898
240.8689, 121.6216
241.3510, 122.1371
241.8331, 122.1315
242.3152, 121.8353
242.7973, 121.9582
243.2794, 122.7403
243.7616, 123.4831
244.2437, 123.9514
244.7258, 124.1533
245.2079, 124.0613
245.6900, 123.5504
246.1721, 122.8718
246.6543, 122.5295
247.1364, 122.5849
247.6185, 122.7561
248.1006, 123.0006
248.5827, 123.2694
249.0648, 123.3777
249.5470, 123.2216
250.0291, 122.9163
250.5112, 122.5945
250.9933, 122.2189
251.4754, 122.0138
251.9576, 122.2311
252.4397, 122.7636
252.9218, 123.1337
253.4039, 123.1593
253.8860, 123.0461
254.3681, 122.9830
254.8503, 122.9668
255.3324, 123.0797
255.8145, 123.4607
256.2966, 124.0468
256.7787, 124.5162
257.2608, 124.7956
257.7430, 124.9569
258.2251, 125.0088
258.7072, 124.9793
259.1893, 125.0526
259.6714, 125.3592
260.1535, 125.8740
260.6357, 126.4942
261.1178, 127.3788
261.5999, 128.1287
262.0820, 128.4851
262.5641, 128.5229
263.0462, 128.4743
263.5284, 128.3392
264.0105, 128.1864
264.4926, 128.4760
264.9747, 129.5297
265.4568, 130.5791
265.9389, 131.2589
266.4211, 131.6617
266.9032, 131.9633
267.3853, 132.1934
267.8674, 132.4087
268.3495, 132.8862
268.8316, 133.8037
269.3138, 134.7283
269.7959, 135.5054
270.2780, 136.1830
270.7601, 136.8397
271.2422, 137.5252
271.7243, 138.2099
272.2065, 138.7819
272.6886, 139.1969
273.1707, 139.5586
273.6528, 139.7210
274.1349, 139.9163
274.6170, 140.4587
275.0992, 141.5212
275.5813, 142.8729
276.0634, 143.9246
276.5455, 144.5214
277.0276, 145.0981
277.5097, 145.5711
277.9919, 146.1454
278.4740, 147.0953
278.9561, 148.5188
279.4382, 150.1092
279.9203, 151.2860
280.4024, 151.8376
280.8846, 152.3955
281.3667, 152.7941
281.8488, 153.3625
282.3309, 154.4575
282.8130, 156.1237
283.2951, 157.9767
283.7773, 159.4289
284.2594, 160.2759
284.7415, 161.2204
285.2236, 162.3170
285.7057, 163.4728
286.1878, 164.6356
286.6700, 165.7954
287.1521, 166.9834
287.6342, 168.2529
288.1163, 169.6281
288.5984, 170.9575
289.0805, 172.3013
289.5627, 173.5463
290.0448, 174.6823
290.5269, 175.6799
291.0090, 176.4395
291.4911, 176.7935
291.9732, 176.6650
292.4554, 177.1038
292.9375, 178.7842
293.4196, 180.3524
293.9017, 181.2850
294.3838, 181.7527
294.8659, 182.2108
295.3481, 182.9970
295.8302, 184.0746
296.3123, 184.9011
296.7944, 185.2296
297.2765, 185.5601
297.7586, 185.9762
298.2408, 186.4563
298.7229, 186.9705
299.2050, 187.5052
299.6871, 188.0340
300.1692, 188.4494
300.6513, 188.6777
301.1335, 188.8662
301.6156, 189.0240
302.0977, 189.1491
302.5798, 189.2338
303.0619, 189.2755
303.5440, 189.2877
304.0262, 189.2990
304.5083, 189.3266
304.9904, 189.3249
305.4725, 189.2353
305.9546, 189.1535
306.4367, 189.2375
306.9189, 189.4890
307.4010, 189.6697
307.8831, 189.4041
308.3652, 188.3851
308.8473, 187.7244
309.3294, 187.5381
309.8116, 187.5430
310.2937, 187.6957
310.7758, 187.9131
311.2579, 187.9865
311.7400, 187.6748
312.2221, 186.8878
312.7043, 186.3458
313.1864, 186.3563
313.6685, 186.2732
314.1506, 185.6595
314.6327, 184.7220
315.1148, 184.0085
315.5970, 183.9489
316.0791, 184.4845
316.5612, 184.8035
317.0433, 184.7800
317.5254, 184.6828
318.0075, 184.5193
318.4897, 184.3258
318.9718, 184.1542
319.4539, 184.0331
319.9360, 183.9354
320.4181, 183.7689
320.9002, 183.3316
321.3824, 183.0901
321.8645, 183.3490
322.3466, 183.6753
322.8287, 183.5955
323.3108, 182.9674
323.7929, 182.0654
324.2751, 181.3492
324.7572, 180.8145
325.2393, 180.5066
325.7214, 180.5972
326.2035, 180.7524
326.6856, 180.8098
327.1678, 180.7138
327.6499, 180.4177
328.1320, 179.8217
328.6141, 178.8005
329.0962, 178.1086
329.5783, 177.9005
330.0605, 177.8237
330.5426, 177.9044
331.0247, 178.0076
331.5068, 177.8315
331.9889, 177.0984
332.4710, 175.8626
332.9532, 175.0144
333.4353, 175.0242
333.9174, 174.9238
334.3995, 174.5191
334.8816, 173.8947
335.3637, 173.1388
335.8459, 172.2933
336.3280, 171.4401
336.8101, 170.8607
337.2922, 170.8223
337.7743, 170.6680
338.2564, 170.3083
338.7386, 169.8433
339.2206, 169.3693
339.7028, 168.9091
340.1849, 168.4155
340.6670, 167.8073
341.1491, 167.0374
341.6312, 166.2709
342.1133, 165.5308
342.5955, 164.7788
343.0776, 163.9252
343.5597, 163.0148
344.0418, 162.2250
344.5239, 161.7690
345.0060, 161.6786
345.4882, 161.3579
345.9703, 160.7324
346.4524, 159.9218
346.9345, 158.7139
347.4166, 157.3629
347.8987, 156.3410
348.3809, 155.9956
348.8630, 156.1022
349.3451, 155.7357
349.8272, 154.5654
350.3093, 153.3974
350.7914, 152.3142
351.2736, 151.3410
351.7557, 150.5413
352.2378, 149.9314
352.7199, 149.4001
353.2020, 148.7778
353.6841, 148.0632
354.1663, 147.2552
354.6484, 146.2442
355.1305, 145.2241
355.6126, 144.3223
356.0947, 143.5411
356.5768, 142.7885
357.0590, 141.9446
357.5411, 141.0054
358.0232, 140.2142
358.5053, 139.7303
358.9874, 139.2277
359.4695, 138.5724
359.9517, 137.8002
360.4338, 136.9744
360.9159, 136.0636
361.3980, 135.1719
361.8801, 134.6229
362.3622, 134.5031
362.8444, 134.5556
363.3265, 135.1521
363.8086, 135.6594
364.2907, 135.2635
364.7728, 133.6163
365.2549, 131.5986
365.7371, 130.4085
366.2192, 130.1463
366.7013, 129.7329
367.1834, 128.6749
367.6655, 127.5871
368.1476, 126.8950
368.6298, 126.6157
369.1119, 126.5816
369.5940, 126.8419
370.0761, 127.2949
370.5582, 127.4162
371.0403, 127.0323
371.5225, 126.5464
372.0046, 126.2249
372.4867, 126.0167
372.9688, 125.8086
373.4509, 125.6256
373.9330, 125.3795
374.4152, 124.8253
374.8973, 123.9012
375.3794, 123.2201
375.8615, 123.3054
376.3436, 123.7277
376.8257, 123.8192
377.3079, 123.4270
377.7900, 122.9340
378.2721, 122.5585
378.7542, 122.3001
379.2363, 122.1811
379.7184, 122.2609
380.2006, 122.3948
380.6827, 122.3666
381.1648, 122.1787
381.6469, 122.0672
382.1290, 122.1737
382.6111, 122.3738
383.0933, 122.5086
383.5754, 122.5617
384.0575, 122.5349
384.5396, 122.3973
385.0217, 122.1670
385.5038, 121.9942
385.9860, 121.9441
386.4681, 121.8990
386.9502, 121.7904
387.4323, 121.6275
387.9144, 121.4118
388.3965, 121.1027
388.8787, 120.8093
389.3608, 120.8605
389.8429, 121.4079
390.3250, 121.9069
390.8071, 122.3287
391.2892, 122.6078
391.7714, 122.5699
392.2535, 122.1929
392.7356, 121.8005
393.2177, 121.7921
393.6998, 122.2770
394.1819, 122.6352
394.6641, 122.8439
395.1462, 122.9606
395.6283, 122.8981
396.1104, 122.7531
396.5925, 122.7974
397.0746, 123.2315
397.5568, 123.9666
398.0389, 124.5213
398.5210, 124.6595
399.0031, 124.8937
399.4852, 125.4802
399.9673, 126.1005
400.4495, 126.3538
400.9316, 126.1314
401.4137, 125.7188
401.8958, 125.5416
402.3779, 125.6462
402.8600, 125.8759
403.3422, 126.3186
403.8243, 126.7905
404.3064, 127.2417
404.7885, 127.6443
405.2706, 127.9612
405.7527, 128.1570
406.2349, 128.2421
406.7170, 128.2754
407.1991, 128.0921
407.6812, 128.1063
408.1633, 128.4750
408.6454, 129.0435
409.1276, 129.6806
409.6097, 130.3418
410.0918, 130.9531
410.5739, 131.4382
411.0560, 131.8171
411.5381, 131.9452
412.0203, 131.3943
412.5024, 130.9256
412.9845, 131.0500
413.4666, 131.6991
413.9487, 132.4137
414.4308, 132.9438
414.9130, 133.2916
415.3951, 133.4227
415.8772, 133.2388
416.3593, 133.0786
416.8414, 133.2023
417.3235, 133.4420
417.8057, 133.5629
418.2878, 133.4654
418.7699, 133.3211
419.2520, 133.2374
419.7341, 133.2260
420.2162, 133.4555
420.6984, 134.1564
421.1805, 134.8781
421.6626, 135.0005
422.1447, 134.5327
422.6268, 134.0291
423.1089, 133.6009
423.5911, 133.2901
424.0732, 133.1865
424.5553, 133.3011
425.0374, 133.4971
425.5195, 133.7400
426.0016, 133.9784
426.4838, 133.9516
426.9659, 133.4489
427.4480, 132.9131
427.9301, 132.5166
428.4122, 132.2354
428.8943, 132.0401
429.3765, 131.9272
429.8586, 131.8352
430.3407, 131.6554
430.8228, 131.3501
431.3049, 131.0301
431.7870, 130.5683
432.2692, 130.1906
432.7513, 130.1725
433.2334, 130.4440
433.7155, 130.6239
434.1976, 130.3791
434.6797, 129.7517
435.1619, 129.3544
435.6440, 129.3248
436.1261, 129.3761
436.6082, 129.6553
437.0903, 129.9108
437.5724, 129.8131
438.0546, 129.2583
438.5367, 128.4901
439.0188, 127.8659
439.5009, 127.3832
439.9830, 127.0549
440.4651, 126.8627
440.9473, 126.8424
441.4294, 127.1820
441.9115, 127.7303
442.3936, 128.0891
442.8757, 127.9347
443.3578, 127.4329
443.8400, 127.1886
444.3221, 127.3684
444.8042, 127.3862
445.2863, 126.8338
445.7684, 126.1288
446.2505, 125.6617
446.7327, 125.5193
447.2148, 125.4805
447.6969, 125.3898
448.1790, 125.2483
448.6611, 125.0344
449.1432, 124.6855
449.6254, 124.3827
450.1075, 124.3364
450.5896, 124.4712
451.0717, 124.5647
451.5538, 124.5401
452.0359, 124.4614
452.5181, 124.4247
453.0002, 124.4094
453.4823, 124.2482
453.9644, 123.8114
454.4465, 123.2471
454.9286, 122.9189
455.4108, 122.9256
455.8929, 122.8268
456.3750, 122.3448
456.8571, 121.8034
457.3392, 121.5986
457.8214, 121.7658
458.3035, 122.0201
458.7856, 122.1281
459.2677, 122.0891
459.7498, 121.9238
460.2319, 121.6491
460.7141, 121.2526
461.1962, 120.5043
461.6783, 119.7026
462.1604, 119.3345
462.6425, 119.5716
463.1246, 120.0594
463.6068, 120.1544
464.0889, 119.5804
464.5710, 119.3501
465.0531, 119.8188
465.5352, 120.2795
466.0173, 120.3713
466.4995, 120.1682
466.9816, 119.9318
467.4637, 119.8169
467.9458, 119.8070
468.4279, 119.8909
468.9100, 120.1838
469.3922, 120.2699
469.8743, 119.7021
470.3564, 119.0765
470.8385, 118.9427
471.3206, 119.3747
471.8027, 119.8701
472.2849, 119.9689
472.7670, 119.8002
473.2491, 119.8846
473.7312, 120.3394
474.2133, 120.8385
474.6954, 121.0633
475.1776, 121.1618
475.6597, 121.4993
476.1418, 122.3457
476.6239, 123.1807
477.1060, 123.5362
477.5881, 123.5755
478.0703, 123.7705
478.5524, 124.2612
479.0345, 125.0267
479.5166, 126.1331
479.9987, 127.7471
480.4808, 128.9008
480.9630, 129.0202
481.4451, 129.0976
481.9272, 129.8209
482.4093, 131.1113
482.8914, 132.5328
483.3735, 133.8254
483.8557, 135.0757
484.3378, 136.6186
484.8199, 139.0026
485.3020, 140.8757
485.7841, 141.7892
486.2662, 142.4826
486.7484, 143.5152
487.2305, 144.9509
487.7126, 146.5161
488.1947, 147.9667
488.6768, 149.3201
489.1589, 150.8712
489.6411, 152.7959
490.1232, 154.6463
490.6053, 156.2573
491.0874, 157.7456
491.5695, 159.2753
492.0516, 160.9032
492.5338, 162.4147
493.0159, 163.4936
493.4980, 164.1983
493.9801, 165.0427
494.4622, 166.2054
494.9443, 167.3181
495.4265, 168.0685
495.9086, 168.5319
496.3907, 168.8585
496.8728, 169.0929
497.3549, 169.1972
497.8370, 169.2356
498.3192, 169.1402
498.8013, 168.6020
499.2834, 167.4471
499.7655, 165.9560
500.2476, 164.5809
500.7297, 163.4089
501.2119, 162.0210
501.6940, 160.3016
502.1761, 158.4314
502.6582, 156.5138
503.1403, 154.5561
503.6224, 152.5265
504.1045, 150.4111
504.5866, 148.1865
505.0688, 145.7405
505.5509, 142.7595
506.0330, 140.0432
506.5151, 137.6408
506.9972, 135.4796
507.4793, 133.5177
507.9615, 131.7420
508.4436, 130.1604
508.9257, 128.8687
509.4078, 127.7750
509.8899, 126.3161
510.3720, 124.2502
510.8542, 122.3398
511.3363, 121.0517
511.8184, 119.9609
512.3005, 118.5814
512.7827, 116.7872
513.2648, 115.1276
513.7469, 114.0692
514.2290, 113.4638
514.7111, 112.8971
515.1932, 112.3347
515.6754, 111.7225
516.1575, 110.9889
516.6396, 110.1648
517.1217, 109.4097
517.6038, 108.7791
518.0859, 108.1630
518.5681, 107.4942
519.0502, 106.8117
519.5323, 106.1533
520.0144, 105.5295
520.4965, 105.0261
520.9786, 104.7753
521.4608, 104.8472
521.9429, 104.7396
522.4250, 104.3503
522.9071, 103.9213
523.3892, 103.5873
523.8713, 103.2563
524.3535, 102.7166
524.8356, 101.8899
525.3177, 101.0369
525.7998, 100.6487
526.2819, 100.8404
526.7640, 100.9212
527.2462, 100.7896
527.7283, 100.5981
528.2104, 100.5138
528.6925, 100.4240
529.1746, 100.0266
529.6567, 99.01662
530.1389, 97.92451
530.6210, 97.56510
531.1031, 97.89224
531.5852, 98.08591
532.0673, 97.87877
532.5494, 97.50333
533.0316, 97.19361
533.5137, 96.94578
533.9958, 96.81763
534.4779, 97.00748
534.9600, 97.16757
535.4421, 96.91841
535.9243, 96.38418
536.4064, 96.04433
536.8885, 96.15411
537.3706, 96.45279
537.8527, 96.37804
538.3348, 95.63715
538.8170, 95.09788
539.2991, 94.90850
539.7812, 94.77307
540.2633, 94.49656
540.7454, 94.12370
541.2275, 93.81400
541.7097, 93.66839
542.1918, 93.63521
542.6739, 93.60973
543.1560, 93.64566
543.6381, 93.51249
544.1202, 92.88706
544.6024, 92.30621
545.0845, 92.22042
545.5666, 92.54160
546.0487, 92.73357
546.5308, 92.32480
547.0129, 91.71368
547.4951, 91.61962
547.9772, 92.02584
548.4593, 92.26945
548.9414, 92.00149
549.4235, 91.51169
549.9056, 91.37495
550.3878, 91.67435
550.8699, 91.77184
551.3520, 91.38667
551.8341, 90.87875
552.3162, 90.49666
552.7983, 90.26015
553.2805, 90.13826
553.7626, 90.11822
554.2447, 90.17589
554.7268, 90.24950
555.2089, 90.41465
555.6910, 90.45384
556.1732, 90.27145
556.6553, 90.05571
557.1374, 89.95239
557.6195, 89.92339
558.1016, 89.79907
558.5837, 89.41487
559.0659, 88.94952
559.5480, 88.88823
560.0301, 89.31741
560.5122, 89.63572
560.9943, 89.64297
561.4764, 89.49904
561.9586, 89.35398
562.4407, 89.20892
562.9228, 89.05897
563.4049, 88.83557
563.8870, 88.65264
564.3691, 88.71667
564.8513, 88.96719
565.3334, 89.05300
565.8155, 88.78647
566.2976, 88.35825
566.7797, 88.12888
567.2618, 88.20006
567.7440, 88.25298
568.2261, 88.36324
568.7082, 88.38646
569.1903, 88.18195
569.6724, 87.82469
570.1545, 87.48109
570.6367, 87.23928
571.1188, 87.07917
571.6009, 86.96591
572.0830, 86.90304
572.5651, 86.87310
573.0472, 86.99397
573.5294, 87.02309
574.0115, 86.75240
574.4936, 86.28250
574.9757, 85.89793
575.4578, 85.74223
575.9399, 85.68439
576.4221, 85.56543
576.9042, 85.40498
577.3863, 85.34740
577.8684, 85.48061
578.3505, 85.58774
578.8326, 85.38187
579.3148, 84.83340
579.7969, 84.39817
580.2790, 84.08646
580.7611, 83.89352
581.2432, 83.94173
581.7253, 84.07231
582.2075, 83.98106
582.6896, 83.57629
583.1717, 83.10986
583.6538, 82.96034
584.1359, 83.19683
584.6180, 83.25113
585.1002, 82.92012
585.5823, 82.64494
586.0643, 82.69878
586.5464, 82.83318
587.0286, 82.66058
587.5107, 82.04671
587.9928, 81.42089
588.4749, 81.27512
588.9570, 81.47115
589.4391, 81.47437
589.9213, 81.21828
590.4034, 80.78230
590.8855, 79.99964
591.3676, 79.11626
591.8497, 79.01814
592.3318, 80.43672
592.8140, 81.38876
593.2961, 80.80119
593.7782, 79.68249
594.2603, 79.25589
594.7424, 79.58408
595.2245, 79.85223
595.7067, 79.37574
596.1888, 78.31762
596.6709, 77.61457
597.1530, 77.44148
597.6351, 77.33083
598.1172, 77.25845
598.5994, 77.18963
599.0815, 77.13762
599.5636, 77.07691
600.0457, 76.90527
600.5278, 76.46363
601.0099, 75.93267
601.4921, 75.64516
601.9742, 75.60191
602.4563, 75.75652
602.9384, 76.22488
603.4205, 76.70216
603.9026, 76.68242
604.3848, 76.15689
604.8669, 75.73092
605.3490, 75.63789
605.8311, 75.52486
606.3132, 75.02168
606.7953, 74.33884
607.2775, 73.99383
607.7596, 74.18393
608.2417, 74.56756
608.7238, 74.59663
609.2059, 74.17199
609.6880, 73.88903
610.1702, 73.88213
610.6523, 73.86851
611.1344, 73.73209
611.6165, 73.54446
612.0986, 73.42227
612.5807, 73.40450
613.0629, 73.37822
613.5450, 73.25245
614.0271, 73.03506
614.5092, 72.67277
614.9913, 72.11324
615.4734, 71.78423
615.9556, 72.08915
616.4377, 72.79176
616.9198, 73.04659
617.4019, 72.56966
617.8840, 72.23808
618.3661, 72.40684
618.8483, 72.66518
619.3304, 72.61613
619.8125, 72.28461
620.2946, 71.94164
620.7767, 71.76431
621.2589, 71.70158
621.7410, 71.61294
622.2231, 71.50136
622.7052, 71.35184
623.1873, 70.97562
623.6694, 70.73857
624.1516, 70.98035
624.6337, 71.54355
625.1158, 71.95367
625.5979, 71.97593
626.0800, 71.84497
626.5621, 71.80527
627.0443, 71.81056
627.5264, 71.68037
628.0085, 71.35832
628.4906, 70.98493
628.9727, 70.66378
629.4548, 70.39641
629.9370, 70.33005
630.4191, 70.59816
630.9012, 70.86599
631.3833, 71.12975
631.8654, 71.31715
632.3475, 71.37350
632.8297, 71.28230
633.3118, 71.01828
633.7939, 70.48418
634.2760, 69.79402
634.7581, 69.45345
635.2402, 69.52860
635.7224, 69.71033
636.2045, 70.06510
636.6866, 70.34007
637.1687, 70.19279
637.6508, 69.65141
638.1329, 69.26672
638.6151, 69.35863
639.0972, 69.54494
639.5793, 69.48631
640.0614, 69.26365
640.5435, 69.10297
641.0256, 69.08451
641.5078, 69.15545
641.9899, 69.25919
642.4720, 69.40910
642.9541, 69.48141
643.4362, 69.52742
643.9183, 69.42521
644.4005, 68.98410
644.8826, 68.46729
645.3647, 68.17741
645.8468, 68.16810
646.3289, 68.23540
646.8110, 68.20609
647.2932, 68.13194
647.7753, 68.15388
648.2574, 68.27853
648.7395, 68.41462
649.2216, 68.53842
649.7037, 68.62960
650.1859, 68.62807
650.6680, 68.49203
651.1501, 68.45728
651.6322, 68.73368
652.1143, 68.92844
652.5964, 68.65820
653.0786, 68.17597
653.5607, 67.99823
654.0428, 68.30877
654.5249, 68.78108
655.0070, 68.95901
655.4891, 68.82982
655.9713, 68.76664
656.4534, 68.83546
656.9355, 68.84229
657.4176, 68.57729
657.8997, 68.25333
658.3818, 68.15426
658.8640, 68.34299
659.3461, 68.48962
659.8282, 68.27514
660.3103, 68.05513
660.7924, 68.38831
661.2745, 69.13826
661.7567, 69.59312
662.2388, 69.38224
662.7209, 68.85452
663.2030, 68.67645
663.6851, 68.97141
664.1672, 69.21091
664.6494, 69.42800
665.1315, 69.55257
665.6136, 69.54238
666.0957, 69.43124
666.5778, 69.22424
667.0599, 68.91509
667.5421, 68.68610
668.0242, 68.74689
668.5063, 68.99537
668.9884, 69.19937
669.4705, 69.34300
669.9526, 69.43815
670.4348, 69.51050
670.9169, 69.50695
671.3990, 69.27128
671.8811, 68.54343
672.3632, 68.24130
672.8453, 68.73677
673.3275, 69.31043
673.8096, 69.66670
674.2917, 69.79632
674.7738, 69.67632
675.2559, 69.30314
675.7380, 68.93845
676.2202, 68.99220
676.7023, 69.40604
677.1844, 69.55634
677.6665, 69.34797
678.1486, 69.12379
678.6307, 69.05081
679.1129, 69.07409
679.5950, 69.08177
680.0771, 69.06274
680.5592, 69.07696
681.0413, 69.21830
681.5234, 69.32928
682.0056, 69.19487
682.4877, 68.93827
682.9698, 68.88928
683.4519, 69.18556
683.9340, 69.60378
684.4161, 69.79604
684.8983, 69.73381
685.3804, 69.78510
685.8625, 70.03320
686.3446, 70.24802
686.8267, 70.27060
687.3088, 70.23689
687.7910, 70.32417
688.2731, 70.56528
688.7552, 70.74471
689.2373, 70.72757
689.7194, 70.63210
690.2015, 70.47678
690.6837, 70.34386
691.1658, 70.54614
691.6479, 71.22571
692.1300, 72.00488
692.6121, 72.30833
693.0942, 72.05630
693.5764, 71.88361
694.0585, 71.83640
694.5406, 71.81086
695.0227, 71.72990
695.5048, 71.68213
695.9869, 71.81016
696.4691, 72.12257
696.9512, 72.36547
697.4333, 72.24116
697.9154, 72.05446
698.3975, 72.25893
698.8796, 72.79629
699.3618, 73.36841
699.8439, 73.87956
700.3260, 74.25207
700.8081, 74.33510
701.2902, 74.07049
701.7723, 74.07015
702.2545, 74.67307
702.7366, 75.12978
703.2187, 75.13828
703.7008, 75.03757
704.1829, 75.14677
704.6650, 75.50217
705.1472, 75.97457
705.6293, 76.66952
706.1114, 77.28922
706.5935, 77.19062
707.0756, 76.49984
707.5577, 76.05759
708.0399, 76.12754
708.5220, 76.42571
709.0041, 76.68359
709.4862, 76.90123
709.9683, 77.00861
710.4504, 76.79964
710.9326, 76.75735
711.4147, 77.12236
711.8968, 77.56808
712.3789, 77.77835
712.8610, 77.77813
713.3431, 77.83096
713.8253, 78.14605
714.3074, 78.51643
714.7895, 78.57325
715.2716, 78.36443
715.7537, 78.25330
716.2358, 78.33274
716.7180, 78.42136
717.2001, 78.33308
717.6822, 78.11825
718.1643, 78.11983
718.6464, 78.54591
719.1285, 78.87804
719.6107, 78.93115
720.0928, 78.98868
720.5749, 79.36938
721.0570, 79.92943
721.5391, 80.24030
722.0212, 80.06616
722.5034, 79.70071
722.9855, 79.53365
723.4676, 79.52946
723.9497, 79.49393
724.4318, 79.41199
724.9139, 79.24277
725.3961, 78.90427
725.8782, 78.50023
726.3603, 78.34448
726.8424, 78.59096
727.3245, 78.72243
727.8066, 78.69543
728.2888, 78.56413
728.7709, 78.21782
729.2530, 77.83030
729.7351, 77.73976
730.2172, 78.05374
730.6993, 78.42329
731.1815, 78.46731
731.6636, 78.25631
732.1457, 78.01559
732.6278, 77.74187
733.1099, 77.59520
733.5920, 77.68787
734.0742, 77.86787
734.5563, 77.88829
735.0384, 77.69668
735.5205, 77.61298
736.0026, 77.78124
736.4847, 77.88697
736.9669, 77.79407
737.4490, 77.59195
737.9311, 77.38164
738.4132, 77.18302
738.8953, 76.95749
739.3774, 76.65526
739.8596, 76.32207
740.3417, 76.00784
740.8238, 75.72157
741.3059, 75.67399
741.7880, 75.98656
742.2701, 76.31042
742.7523, 76.30672
743.2344, 75.99498
743.7165, 75.67566
744.1986, 75.28874
744.6807, 74.97868
745.1628, 74.77942
745.6450, 74.64968
746.1271, 74.58443
746.6092, 74.56153
747.0913, 74.52532
747.5734, 74.43636
748.0555, 74.37610
748.5377, 74.48377
749.0198, 74.70923
749.5019, 74.88748
749.9840, 75.00391
750.4661, 74.96123
750.9482, 74.64434
751.4304, 74.21085
751.9125, 74.06569
752.3946, 74.44816
752.8767, 74.55244
753.3588, 74.05113
753.8409, 73.65535
754.3231, 73.78741
754.8052, 74.14925
755.2873, 74.29934
755.7694, 74.13606
756.2515, 73.92951
756.7336, 73.91867
757.2158, 73.97588
757.6979, 73.86140
758.1800, 73.60182
758.6621, 73.35509
759.1442, 73.16476
759.6263, 73.11172
760.1085, 73.34435
760.5906, 73.86378
761.0727, 74.02209
761.5548, 73.38383
762.0369, 73.03523
762.5190, 73.46159
763.0012, 73.95185
763.4833, 73.85857
763.9654, 73.33030
764.4475, 73.09211
764.9296, 73.64157
765.4117, 74.19238
765.8939, 73.95522
766.3760, 73.31469
766.8581, 72.98128
767.3402, 73.03589
767.8223, 73.21980
768.3044, 73.38069
768.7866, 73.50840
769.2687, 73.55189
769.7508, 73.44813
770.2329, 73.50306
770.7150, 73.87479
771.1971, 74.19642
771.6793, 74.33733
772.1614, 74.31700
772.6435, 74.10348
773.1256, 73.66593
773.6077, 73.31894
774.0898, 73.20743
774.5720, 73.21326
775.0541, 73.32320
775.5362, 73.45611
776.0183, 73.43895
776.5004, 73.23435
776.9825, 72.99219
777.4647, 72.84235
777.9468, 72.79511
778.4289, 72.96746
778.9110, 73.44767
779.3931, 73.67319
779.8752, 73.44299
780.3574, 73.02144
780.8395, 72.55122
781.3216, 72.07052
781.8037, 71.79469
782.2858, 71.89140
782.7679, 71.96109
783.2501, 71.95499
783.7322, 71.84593
784.2143, 71.55201
784.6964, 71.13909
785.1785, 70.78551
785.6606, 70.57585
786.1428, 70.35999
786.6249, 69.84281
787.1070, 69.14896
787.5891, 68.87479
788.0712, 69.07226
788.5533, 69.18311
789.0355, 68.92977
789.5176, 68.52567
789.9997, 68.31235
790.4818, 68.33978
790.9639, 68.23976
791.4460, 67.95644
791.9282, 67.62276
792.4103, 67.27431
792.8924, 66.88422
793.3745, 66.30434
793.8566, 65.61933
794.3387, 65.24442
794.8209, 65.57750
795.3030, 66.00288
795.7851, 65.92989
796.2672, 65.49506
796.7493, 64.93658
797.2314, 64.31282
797.7136, 63.70683
798.1957, 63.15185
798.6778, 62.72364
799.1599, 62.68647
799.6420, 63.21973
800.1241, 63.38355
800.6063, 62.96310
801.0884, 62.47712
801.5705, 62.11635
802.0526, 61.84932
802.5347, 61.65977
803.0168, 61.55084
803.4990, 61.45226
803.9811, 61.41976
804.4632, 61.31429
804.9453, 60.96552
805.4274, 60.52628
805.9095, 60.24236
806.3917, 60.14183
806.8738, 60.04406
807.3559, 59.79866
807.8380, 59.48185
808.3201, 59.25086
808.8022, 59.10457
809.2844, 59.07370
809.7665, 59.19581
810.2486, 59.28205
810.7307, 59.17532
811.2128, 58.95267
811.6949, 58.86157
812.1771, 59.04802
812.6592, 59.06536
813.1413, 58.75985
813.6234, 58.45854
814.1055, 58.36783
814.5876, 58.33703
815.0698, 58.10802
815.5519, 57.64746
816.0340, 57.27142
816.5161, 57.23021
816.9982, 57.33603
817.4803, 57.39378
817.9625, 57.41683
818.4446, 57.48162
818.9267, 57.59406
819.4088, 57.59461
819.8909, 57.32447
820.3730, 56.88248
820.8552, 56.64540
821.3373, 56.68000
821.8194, 56.60292
822.3015, 56.26168
822.7836, 55.99046
823.2657, 56.06438
823.7479, 56.32262
824.2300, 56.44635
824.7121, 56.39787
825.1942, 56.33262
825.6763, 56.37950
826.1584, 56.31536
826.6406, 55.78370
827.1227, 55.16438
827.6048, 55.12813
828.0869, 55.72049
828.5690, 56.22387
829.0511, 56.02460
829.5333, 55.47585
830.0154, 55.15395
830.4975, 55.02837
830.9796, 54.93534
831.4617, 54.84054
831.9438, 54.87680
832.4260, 55.17779
832.9081, 55.61943
833.3902, 55.83496
833.8723, 55.79619
834.3544, 55.59221
834.8365, 55.00719
835.3187, 54.53510
835.8008, 54.46267
836.2829, 54.55162
836.7650, 54.47190
837.2471, 54.18848
837.7292, 54.04032
838.2114, 54.34489
838.6935, 54.59523
839.1756, 54.33463
839.6577, 53.89127
840.1398, 53.73003
840.6219, 53.89957
841.1041, 54.19552
841.5862, 54.51253
842.0683, 54.77659
842.5504, 54.91095
843.0325, 54.89304
843.5146, 54.41204
843.9968, 53.37606
844.4789, 52.66318
844.9610, 52.79892
845.4431, 53.41881
845.9252, 53.89931
846.4073, 54.26027
846.8895, 54.37541
847.3716, 53.96770
847.8537, 53.68235
848.3358, 53.76475
848.8179, 53.94224
849.3000, 54.00852
849.7822, 53.94939
850.2643, 53.78850
850.7464, 53.43300
851.2285, 53.13737
851.7106, 53.08360
852.1927, 53.14396
852.6749, 53.15020
853.1570, 53.12802
853.6391, 53.26181
854.1212, 53.63481
854.6033, 53.97563
855.0854, 53.83149
855.5676, 53.33665
856.0497, 53.16434
856.5318, 53.32989
857.0139, 53.50711
857.4960, 53.59333
857.9781, 53.64753
858.4603, 53.73783
858.9424, 53.85593
859.4245, 53.90246
859.9066, 53.76418
860.3887, 53.74950
860.8708, 54.06739
861.3530, 54.32097
861.8351, 54.26592
862.3172, 54.01383
862.7993, 53.72119
863.2814, 53.36749
863.7635, 53.27628
864.2457, 53.96387
864.7278, 54.60306
865.2099, 54.38285
865.6920, 53.70231
866.1741, 53.29480
866.6563, 53.29639
867.1384, 53.33549
867.6205, 53.09393
868.1026, 52.77946
868.5847, 52.87971
869.0668, 53.30573
869.5490, 53.45631
870.0311, 53.23923
870.5132, 52.94520
870.9953, 52.71841
871.4774, 52.57862
871.9595, 52.58498
872.4417, 52.78846
872.9238, 52.86178
873.4059, 52.76950
873.8880, 52.60317
874.3701, 52.30778
874.8522, 52.01181
875.3344, 51.84186
875.8165, 51.77772
876.2986, 51.68282
876.7807, 51.43205
877.2628, 51.29411
877.7449, 51.45947
878.2271, 51.69725
878.7092, 51.85050
879.1913, 51.89871
879.6734, 51.84668
880.1555, 51.69737
880.6376, 51.46680
881.1198, 51.09903
881.6019, 50.69744
882.0840, 50.48376
882.5661, 50.41679
883.0482, 50.31531
883.5303, 50.13233
884.0125, 49.88972
884.4946, 49.58237
884.9767, 49.27869
885.4588, 49.25846
885.9409, 49.61364
886.4230, 49.71211
886.9052, 49.38582
887.3873, 49.08735
887.8694, 49.09000
888.3515, 49.21015
888.8336, 49.09345
889.3157, 48.67177
889.7979, 48.54126
890.2800, 49.00656
890.7621, 49.38798
891.2442, 49.51013
891.7263, 49.47053
892.2084, 49.34568
892.6906, 49.13743
893.1727, 48.77359
893.6548, 48.13374
894.1369, 47.68462
894.6190, 47.98259
895.1011, 48.46412
895.5833, 48.40874
896.0654, 47.97009
896.5475, 47.61626
897.0296, 47.50230
897.5117, 47.54200
897.9938, 47.69472
898.4760, 47.89622
898.9581, 47.97639
899.4402, 47.94075
899.9223, 47.83730
900.4044, 47.66390
900.8865, 47.52807
901.3687, 47.51165
901.8508, 47.54553
902.3329, 47.47414
902.8150, 47.26631
903.2971, 47.10133
903.7792, 46.93807
904.2614, 46.89093
904.7435, 47.10852
905.2256, 47.36280
905.7077, 47.44731
906.1898, 47.38285
906.6719, 47.29058
907.1541, 47.18214
907.6362, 47.05272
908.1183, 46.84504
908.6004, 46.67072
909.0825, 46.60400
909.5646, 46.63043
910.0468, 46.77958
910.5289, 47.03959
911.0110, 47.13738
911.4931, 46.68802
911.9752, 46.15767
912.4573, 46.03532
912.9395, 46.22123
913.4216, 46.63022
913.9037, 47.15900
914.3858, 47.41880
914.8679, 47.15295
915.3500, 46.68425
915.8321, 46.55518
916.3142, 46.72683
916.7963, 46.94283
917.2784, 47.20580
917.7606, 47.24070
918.2427, 46.89338
918.7248, 46.53151
919.2069, 46.58381
919.6890, 46.97161
920.1711, 47.06663
920.6533, 46.69496
921.1354, 46.44856
921.6175, 46.43229
922.0996, 46.47283
922.5817, 46.49031
923.0638, 46.50518
923.5460, 46.56752
924.0281, 46.69339
924.5102, 46.72789
924.9923, 46.50612
925.4744, 46.37138
925.9565, 46.58102
926.4387, 46.82415
926.9208, 46.74739
927.4029, 46.44707
927.8850, 46.28951
928.3671, 46.42540
928.8492, 46.61242
929.3314, 46.70843
929.8135, 46.74921
930.2956, 46.73470
930.7777, 46.70831
931.2598, 46.79219
931.7419, 46.99112
932.2241, 47.12639
932.7062, 47.04622
933.1883, 46.85100
933.6704, 46.71093
934.1525, 46.61709
934.6346, 46.52884
935.1168, 46.44244
935.5989, 46.35633
936.0810, 46.26466
936.5631, 46.21782
937.0452, 46.29877
937.5273, 46.49708
938.0095, 46.63457
938.4916, 46.69793
938.9737, 46.75869
939.4558, 46.83929
939.9379, 46.90585
940.4200, 46.96504
940.9022, 46.97585
941.3843, 46.79451
941.8664, 46.22779
942.3485, 46.06437
942.8306, 46.66571
943.3127, 47.18846
943.7949, 47.28884
944.2770, 47.31379
944.7591, 47.63978
945.2412, 48.18165
945.7233, 48.51239
946.2054, 48.42264
946.6876, 48.36880
947.1697, 48.48598
947.6518, 48.72779
948.1339, 49.10905
948.6160, 49.56716
949.0981, 50.02458
949.5803, 50.46024
950.0624, 50.88716
950.5445, 51.32315
951.0266, 51.74179
951.5087, 52.08643
951.9908, 52.41619
952.4730, 52.86536
952.9551, 53.40419
953.4372, 53.89357
953.9193, 54.27244
954.4014, 54.54010
954.8835, 54.61328
955.3657, 54.61404
955.8478, 54.96322
956.3299, 55.60140
956.8120, 56.08799
957.2941, 56.33529
957.7762, 56.53686
958.2584, 56.82697
958.7405, 57.11850
959.2226, 57.22947
959.7047, 57.15015
960.1868, 57.08081
960.6689, 57.09381
961.1511, 56.77149
961.6332, 55.80261
962.1153, 54.89445
962.5974, 54.87955
963.0795, 55.40948
963.5616, 54.91761
964.0438, 52.70681
964.5259, 50.96398
965.0080, 49.87423
965.4901, 49.01974
965.9722, 48.36814
966.4543, 47.79718
966.9365, 47.16521
967.4186, 46.48476
967.9007, 45.91713
968.3828, 45.58640
968.8649, 45.21563
969.3470, 44.69085
969.8292, 44.16622
970.3113, 43.63171
970.7934, 43.21653
971.2755, 43.20451
971.7576, 43.60541
972.2397, 43.85881
972.7219, 43.59914
973.2040, 43.22419
973.6861, 42.83290
974.1682, 42.57516
974.6503, 42.78943
975.1324, 43.26994
975.6146, 43.41985
976.0967, 43.03495
976.5788, 42.58972
977.0609, 42.50229
977.5430, 42.59156
978.0251, 42.61602
978.5073, 42.61205
978.9894, 42.68404
979.4715, 42.83172
979.9536, 42.95046
980.4357, 42.98159
980.9178, 42.99474
981.4000, 43.12724
981.8821, 43.32192
982.3642, 43.31163
982.8463, 43.12556
983.3284, 43.06169
983.8105, 43.19454
984.2927, 43.33059
984.7748, 43.32165
985.2569, 43.23539
985.7390, 43.22110
986.2211, 43.28112
986.7032, 43.38689
987.1854, 43.55660
987.6675, 43.65458
988.1496, 43.60996
988.6317, 43.57267
989.1138, 43.70694
989.5959, 43.95126
990.0781, 44.03339
990.5602, 43.89834
991.0423, 43.76141
991.5244, 43.65163
992.0065, 43.48748
992.4886, 43.17343
992.9708, 42.85320
993.4529, 42.66075
993.9350, 42.59862
994.4171, 42.70211
994.8992, 43.15265
995.3813, 43.48535
995.8635, 43.73432
996.3456, 43.80654
996.8277, 43.44304
997.3098, 43.01286
997.7919, 43.04562
998.2740, 43.53095
998.7562, 43.82888
999.2383, 43.56119
999.7204, 43.45131
1000.203, 43.83300
1000.685, 44.28920
1001.167, 44.59772
1001.649, 44.75550
1002.131, 44.74903
1002.613, 44.59162
1003.095, 44.47113
1003.577, 44.56037
1004.059, 44.59546
1004.542, 44.28482
1005.024, 43.96821
1005.506, 44.03527
1005.988, 44.36520
1006.470, 44.65841
1006.952, 44.82234
1007.434, 44.87992
1007.916, 44.71310
1008.398, 44.58226
1008.881, 44.84528
1009.363, 45.24195
1009.845, 45.36820
1010.327, 45.25659
1010.809, 45.18706
1011.291, 45.26524
1011.773, 45.31188
1012.255, 45.06392
1012.738, 44.75812
1013.220, 44.78974
1013.702, 45.05474
1014.184, 45.34346
1014.666, 45.60491
1015.148, 45.79683
1015.630, 45.89777
1016.112, 45.92773
1016.594, 45.86996
1017.077, 45.78019
1017.559, 45.87023
1018.041, 46.07849
1018.523, 46.03890
1019.005, 45.71732
1019.487, 45.50749
1019.969, 45.63877
1020.451, 45.90429
1020.934, 45.97549
1021.416, 45.90349
1021.898, 46.01866
1022.380, 46.31434
1022.862, 46.54047
1023.344, 46.64856
1023.826, 46.70019
1024.308, 46.74204
1024.791, 46.71060
1025.273, 46.41805
1025.755, 45.88281
1026.237, 45.89120
1026.719, 46.53627
1027.201, 46.98190
1027.683, 47.02568
1028.165, 46.94833
1028.647, 46.90599
1029.130, 46.93212
1029.612, 47.13659
1030.094, 47.55635
1030.576, 47.60379
1031.058, 47.06145
1031.540, 46.94146
1032.022, 47.65760
1032.504, 48.39828
1032.986, 48.60033
1033.469, 48.43808
1033.951, 48.28997
1034.433, 48.14942
1034.915, 48.06067
1035.397, 47.98877
1035.879, 48.05315
1036.361, 48.37674
1036.843, 48.70148
1037.326, 48.83840
1037.808, 48.85033
1038.290, 48.86990
1038.772, 48.87879
1039.254, 48.98289
1039.736, 49.28006
1040.218, 49.51744
1040.700, 49.63880
1041.182, 49.69346
1041.665, 49.64103
1042.147, 49.56387
1042.629, 49.68535
1043.111, 50.08997
1043.593, 50.32144
1044.075, 50.29129
1044.557, 50.19472
1045.039, 49.92860
1045.521, 49.74623
1046.004, 49.93627
1046.486, 50.30385
1046.968, 50.40734
1047.450, 50.16247
1047.932, 49.97614
1048.414, 49.89375
1048.896, 49.87080
1049.378, 49.85432
1049.861, 49.93324
1050.343, 50.30575
1050.825, 50.77699
1051.307, 50.90267
1051.789, 50.57331
1052.271, 50.44430
1052.753, 50.89071
1053.235, 51.21847
1053.718, 51.08660
1054.200, 50.87313
1054.682, 50.80780
1055.164, 50.88918
1055.646, 51.11880
1056.128, 51.50712
1056.610, 51.79484
1057.092, 51.82380
1057.574, 51.86126
1058.057, 52.07134
1058.539, 52.25831
1059.021, 52.10607
1059.503, 51.88716
1059.985, 52.27227
1060.467, 53.35586
1060.949, 53.87658
1061.431, 52.82177
1061.913, 51.94462
1062.396, 52.08503
1062.878, 52.50401
1063.360, 52.64198
1063.842, 52.63888
1064.324, 52.87556
1064.806, 53.38152
1065.288, 53.64954
1065.770, 53.27126
1066.253, 52.91961
1066.735, 52.81522
1067.217, 52.89722
1067.699, 53.22909
1068.181, 53.66092
1068.663, 54.01235
1069.145, 54.23920
1069.627, 54.29329
1070.109, 53.97637
1070.592, 53.78946
1071.074, 53.98874
1071.556, 54.36993
1072.038, 54.99096
1072.520, 55.57792
1073.002, 55.69101
1073.484, 55.35072
1073.966, 55.06763
1074.448, 55.03989
1074.931, 55.06936
1075.413, 55.10097
1075.895, 55.11555
1076.377, 55.04190
1076.859, 54.97771
1077.341, 55.07855
1077.823, 55.32492
1078.305, 55.53423
1078.788, 55.60564
1079.270, 55.76000
1079.752, 56.31226
1080.234, 56.75016
1080.716, 56.59165
1081.198, 56.21919
1081.680, 56.03753
1082.162, 56.09371
1082.644, 56.33815
1083.127, 56.79867
1083.609, 57.22672
1084.091, 57.51644
1084.573, 57.73928
1085.055, 57.89895
1085.537, 58.04687
1086.019, 58.26488
1086.501, 58.51183
1086.984, 58.64834
1087.466, 58.62445
1087.948, 58.65248
1088.430, 58.88794
1088.912, 59.11500
1089.394, 59.21344
1089.876, 59.25922
1090.358, 59.33048
1090.840, 59.40437
1091.323, 59.37859
1091.805, 59.23337
1092.287, 59.24260
1092.769, 59.62143
1093.251, 60.02367
1093.733, 60.42847
1094.215, 60.68176
1094.697, 60.47070
1095.179, 60.11704
1095.662, 60.22803
1096.144, 60.83545
1096.626, 61.22567
1097.108, 60.83115
1097.590, 60.73020
1098.072, 61.63866
1098.554, 62.55371
1099.036, 62.76341
1099.519, 62.65334
1100.001, 62.76130
1100.483, 63.09619
1100.965, 63.33988
1101.447, 63.36512
1101.929, 63.41402
1102.411, 63.54586
1102.893, 63.71742
1103.375, 63.90406
1103.858, 64.12528
1104.340, 64.46898
1104.822, 64.86565
1105.304, 65.04398
1105.786, 64.83878
1106.268, 64.86979
1106.750, 65.48434
1107.232, 66.03702
1107.714, 66.28331
1108.197, 66.41730
1108.679, 66.56925
1109.161, 66.73246
1109.643, 66.86947
1110.125, 66.97070
1110.607, 67.09309
1111.089, 67.24901
1111.571, 67.41389
1112.054, 67.52892
1112.536, 67.70825
1113.018, 68.04155
1113.500, 68.46855
1113.982, 68.89243
1114.464, 69.31025
1114.946, 69.80260
1115.428, 70.55968
1115.911, 71.07437
1116.393, 71.23203
1116.875, 71.26281
1117.357, 71.11438
1117.839, 71.02388
1118.321, 71.32524
1118.803, 71.92380
1119.285, 72.24475
1119.767, 72.08493
1120.250, 72.16174
1120.732, 72.55191
1121.214, 73.03905
1121.696, 73.65874
1122.178, 74.18462
1122.660, 74.36269
1123.142, 74.37178
1123.624, 74.72879
1124.106, 75.54206
1124.589, 75.79333
1125.071, 75.22042
1125.553, 75.00406
1126.035, 75.42529
1126.517, 76.10421
1126.999, 76.92461
1127.481, 77.62617
1127.963, 77.71946
1128.446, 77.29123
1128.928, 77.39431
1129.410, 78.09029
1129.892, 78.80691
1130.374, 79.50968
1130.856, 79.95846
1131.338, 80.01694
1131.820, 79.97841
1132.302, 80.12594
1132.785, 80.46809
1133.267, 81.12486
1133.749, 82.05976
1134.231, 82.70594
1134.713, 83.03934
1135.195, 83.02397
1135.677, 82.65559
1136.159, 82.51674
1136.641, 83.05402
1137.124, 83.89133
1137.606, 84.37418
1138.088, 84.62205
1138.570, 85.14973
1139.052, 85.86871
1139.534, 86.31065
1140.016, 86.43965
1140.498, 86.56350
1140.981, 86.82828
1141.463, 87.15730
1141.945, 87.49320
1142.427, 87.81310
1142.909, 88.00872
1143.391, 88.18882
1143.873, 88.55177
1144.355, 89.12159
1144.838, 90.10091
1145.320, 91.40376
1145.802, 92.08948
1146.284, 91.31568
1146.766, 90.36243
1147.248, 90.54173
1147.730, 91.25925
1148.212, 92.04183
1148.694, 92.70349
1149.177, 92.88803
1149.659, 92.71219
1150.141, 92.73750
1150.623, 93.18811
1151.105, 93.78396
1151.587, 94.45615
1152.069, 95.09446
1152.551, 95.69341
1153.033, 96.16204
1153.516, 96.25822
1153.998, 96.20121
1154.480, 96.45614
1154.962, 97.09072
1155.444, 97.70246
1155.926, 98.13545
1156.408, 98.55630
1156.890, 98.96519
1157.373, 99.43210
1157.855, 100.0788
1158.337, 100.7484
1158.819, 101.2860
1159.301, 101.6860
1159.783, 101.9338
1160.265, 101.8105
1160.747, 102.1304
1161.229, 103.3726
1161.712, 104.4571
1162.194, 105.1278
1162.676, 105.6056
1163.158, 105.9904
1163.640, 106.3051
1164.122, 106.5440
1164.604, 106.6984
1165.086, 107.1843
1165.568, 108.0978
1166.051, 109.0716
1166.533, 110.1153
1167.015, 111.0830
1167.497, 111.9391
1167.979, 112.6024
1168.461, 112.9548
1168.943, 113.0971
1169.425, 113.3666
1169.908, 113.7668
1170.390, 114.0350
1170.872, 114.1545
1171.354, 114.7343
1171.836, 115.9250
1172.318, 117.1423
1172.800, 118.0458
1173.282, 118.6956
1173.765, 119.0759
1174.247, 119.3520
1174.729, 120.0865
1175.211, 121.1329
1175.693, 121.9136
1176.175, 122.4553
1176.657, 123.2455
1177.139, 124.4071
1177.621, 125.4794
1178.104, 126.0880
1178.586, 126.5970
1179.068, 127.4771
1179.550, 128.4819
1180.032, 129.2577
1180.514, 129.9050
1180.996, 130.6270
1181.478, 131.4443
1181.960, 132.2719
1182.443, 133.0755
1182.925, 133.9631
1183.407, 135.2266
1183.889, 136.3070
1184.371, 136.5666
1184.853, 136.7834
1185.335, 137.8233
1185.817, 139.1977
1186.300, 139.8515
1186.782, 139.8370
1187.264, 140.6047
1187.746, 143.1007
1188.228, 145.0244
1188.710, 145.4662
1189.192, 145.9356
1189.674, 146.9202
1190.156, 148.1874
1190.639, 149.7440
1191.121, 151.3488
1191.603, 152.4043
1192.085, 152.8409
1192.567, 153.6219
1193.049, 154.7954
1193.531, 156.2282
1194.013, 158.0573
1194.495, 159.6721
1194.978, 160.7955
1195.460, 161.6550
1195.942, 162.4476
1196.424, 163.2096
1196.906, 164.0161
1197.388, 164.8729
1197.870, 165.8391
1198.352, 166.9301
1198.835, 168.6492
1199.317, 171.0203
1199.799, 172.9017
1200.281, 173.6829
1200.763, 174.1692
1201.245, 175.2038
1201.727, 176.6378
1202.209, 178.4263
1202.692, 180.3172
1203.174, 181.7161
1203.656, 182.7726
1204.138, 183.9801
1204.620, 185.4436
1205.102, 186.9708
1205.584, 188.4592
1206.066, 190.0245
1206.548, 191.9626
1207.031, 193.7575
1207.513, 194.7690
1207.995, 195.6201
1208.477, 196.9962
1208.959, 198.7578
1209.441, 200.5471
1209.923, 202.2901
1210.405, 203.7954
1210.887, 204.6068
1211.370, 205.8134
1211.852, 207.8353
1212.334, 209.9759
1212.816, 212.2395
1213.298, 214.2122
1213.780, 215.3405
1214.262, 216.0262
1214.744, 217.2974
1215.227, 219.2005
1215.709, 221.1785
1216.191, 223.2498
1216.673, 225.3790
1217.155, 227.5992
1217.637, 229.7059
1218.119, 231.5918
1218.601, 233.3787
1219.083, 235.1590
1219.566, 236.9435
1220.048, 238.7034
1220.530, 240.4696
1221.012, 242.4239
1221.494, 244.5547
1221.976, 246.8855
1222.458, 249.3533
1222.940, 251.6373
1223.422, 253.5934
1223.905, 255.5114
1224.387, 257.6167
1224.869, 259.8458
1225.351, 262.0595
1225.833, 264.4365
1226.315, 267.2167
1226.797, 270.2923
1227.279, 273.5980
1227.762, 276.9945
1228.244, 280.0664
1228.726, 282.6068
1229.208, 285.2083
1229.690, 288.1989
1230.172, 291.0766
1230.654, 293.2598
1231.136, 295.6799
1231.619, 299.1303
1232.101, 303.0486
1232.583, 306.7697
1233.065, 310.2831
1233.547, 313.5483
1234.029, 316.4989
1234.511, 319.3471
1234.993, 321.8911
1235.475, 325.2704
1235.958, 329.9545
1236.440, 334.4995
1236.922, 338.0464
1237.404, 341.2267
1237.886, 344.8763
1238.368, 348.8494
1238.850, 352.7476
1239.332, 356.5917
1239.814, 360.5278
1240.297, 364.5773
1240.779, 368.8738
1241.261, 373.3975
1241.743, 377.8759
1242.225, 382.1555
1242.707, 386.6538
1243.189, 391.9862
1243.671, 397.4271
1244.154, 402.1717
1244.636, 406.8754
1245.118, 412.5047
1245.600, 418.5009
1246.082, 423.6083
1246.564, 427.9406
1247.046, 432.9629
1247.528, 439.3377
1248.010, 445.3705
1248.493, 450.5603
1248.975, 455.7009
1249.457, 460.5518
1249.939, 466.0232
1250.421, 473.1045
1250.903, 480.4738
1251.385, 486.2817
1251.867, 490.8626
1252.349, 496.2793
1252.832, 502.6483
1253.314, 508.0803
1253.796, 512.4758
1254.278, 517.5314
1254.760, 523.6259
1255.242, 530.2711
1255.724, 537.2135
1256.206, 544.1856
1256.689, 551.0099
1257.171, 557.4036
1257.653, 562.3925
1258.135, 566.9333
1258.617, 572.7979
1259.099, 579.4558
1259.581, 585.6990
1260.063, 591.3853
1260.546, 596.8726
1261.028, 602.2460
1261.510, 607.8594
1261.992, 614.4183
1262.474, 620.4617
1262.956, 624.9714
1263.438, 629.2408
1263.920, 634.3273
1264.402, 639.4206
1264.885, 643.3773
1265.367, 646.5355
1265.849, 650.1320
1266.331, 654.3593
1266.813, 657.6461
1267.295, 659.5724
1267.777, 662.9201
1268.259, 668.4328
1268.741, 672.8085
1269.224, 674.5914
1269.706, 675.3138
1270.188, 676.3073
1270.670, 677.5328
1271.152, 679.0373
1271.634, 680.6574
1272.116, 682.1749
1272.598, 683.4368
1273.081, 684.0027
1273.563, 684.0099
1274.045, 683.9117
1274.527, 683.8785
1275.009, 684.1154
1275.491, 685.0426
1275.973, 685.5319
1276.455, 684.7349
1276.938, 683.7235
1277.420, 683.4685
1277.902, 682.8981
1278.384, 680.5814
1278.866, 677.4301
1279.348, 675.4844
1279.830, 674.6645
1280.312, 672.9453
1280.794, 670.0657
1281.276, 667.3740
1281.759, 664.9703
1282.241, 662.4608
1282.723, 659.7831
1283.205, 656.3776
1283.687, 651.7874
1284.169, 647.3869
1284.651, 645.2292
1285.133, 644.0568
1285.616, 641.6307
1286.098, 637.8905
##END=



