##NAMES=Kinoshitalite
##RRUFFID=R070656
##IDEAL CHEMISTRY=BaMg_3_(Si_2_Al_2_)O_10_(OH)_2_
##LOCALITY=Hokkejino, Kyoto Prefecture, Kinki Region, Honshu Island, Japan
##OWNER=RRUFF
##SOURCE=Michael Scott
##DESCRIPTION=Yellowish brown platy crystals in granular matrix of tephroite
##STATUS=The identification of this mineral has been confirmed only by single crystal X-ray diffraction.
##URL=rruff.info/R070656
89.93622, 15993.43
90.41833, 16688.75
90.90045, 17342.27
91.38257, 17978.89
91.86469, 18630.08
92.34680, 19319.32
92.82892, 20032.36
93.31104, 20706.22
93.79315, 21333.23
94.27527, 21876.50
94.75739, 22183.80
95.23950, 22253.70
95.72162, 22345.15
96.20374, 22488.61
96.68585, 22666.67
97.16797, 22831.01
97.65009, 22954.10
98.13220, 23063.67
98.61432, 23208.71
99.09644, 23404.00
99.57855, 23609.81
100.0607, 23807.79
100.5428, 23995.61
101.0249, 24159.68
101.5070, 24299.63
101.9891, 24417.40
102.4713, 24477.34
102.9534, 24478.17
103.4355, 24410.87
103.9176, 24251.88
104.3997, 23999.34
104.8818, 23688.47
105.3640, 23368.58
105.8461, 23029.03
106.3282, 22694.93
106.8103, 22341.27
107.2924, 22001.66
107.7745, 21711.00
108.2567, 21488.19
108.7388, 21321.94
109.2209, 21155.29
109.7030, 20987.31
110.1851, 20818.25
110.6672, 20632.69
111.1494, 20442.57
111.6315, 20276.53
112.1136, 20158.45
112.5957, 20093.78
113.0778, 20050.00
113.5599, 20036.20
114.0421, 20034.09
114.5242, 20037.03
115.0063, 20043.90
115.4884, 20040.82
115.9705, 19996.82
116.4526, 19908.26
116.9348, 19853.57
117.4169, 19887.78
117.8990, 19968.52
118.3811, 19999.01
118.8632, 19936.01
119.3453, 19837.24
119.8275, 19775.80
120.3096, 19754.72
120.7917, 19746.07
121.2738, 19733.06
121.7559, 19715.73
122.2381, 19691.17
122.7202, 19651.12
123.2023, 19606.07
123.6844, 19559.41
124.1665, 19508.81
124.6486, 19465.96
125.1308, 19458.61
125.6129, 19515.99
126.0950, 19555.23
126.5771, 19551.22
127.0592, 19520.91
127.5413, 19482.54
128.0235, 19445.16
128.5056, 19409.65
128.9877, 19384.08
129.4698, 19395.13
129.9519, 19392.07
130.4340, 19340.98
130.9162, 19261.00
131.3983, 19202.69
131.8804, 19221.18
132.3625, 19350.92
132.8446, 19403.16
133.3267, 19329.84
133.8089, 19231.97
134.2910, 19170.42
134.7731, 19156.03
135.2552, 19160.75
135.7373, 19144.81
136.2194, 19094.21
136.7016, 19052.14
137.1837, 19019.27
137.6658, 18996.22
138.1479, 18985.40
138.6300, 18988.59
139.1121, 19001.02
139.5943, 19014.03
140.0764, 19030.72
140.5585, 19041.32
141.0406, 19034.59
141.5227, 19015.53
142.0048, 19007.70
142.4870, 19033.11
142.9691, 19069.53
143.4512, 19075.40
143.9333, 19036.19
144.4154, 18982.30
144.8975, 18940.66
145.3797, 18911.86
145.8618, 18892.81
146.3439, 18898.06
146.8260, 18908.79
147.3081, 18900.02
147.7902, 18850.04
148.2724, 18779.74
148.7545, 18742.53
149.2366, 18752.44
149.7187, 18776.27
150.2008, 18809.89
150.6829, 18844.82
151.1651, 18864.95
151.6472, 18854.01
152.1293, 18812.19
152.6114, 18781.86
153.0935, 18778.69
153.5757, 18773.86
154.0578, 18761.67
154.5399, 18739.96
155.0220, 18706.27
155.5041, 18651.48
155.9862, 18554.89
156.4684, 18504.79
156.9505, 18547.88
157.4326, 18594.57
157.9147, 18586.63
158.3968, 18515.78
158.8789, 18421.20
159.3611, 18364.78
159.8432, 18376.93
160.3253, 18384.85
160.8074, 18387.57
161.2895, 18387.21
161.7716, 18385.91
162.2538, 18384.58
162.7359, 18382.48
163.2180, 18377.57
163.7001, 18375.85
164.1822, 18364.01
164.6643, 18324.73
165.1465, 18274.24
165.6286, 18246.81
166.1107, 18264.92
166.5928, 18311.99
167.0749, 18323.21
167.5570, 18275.94
168.0392, 18222.12
168.5213, 18182.61
169.0034, 18156.51
169.4855, 18139.31
169.9676, 18132.17
170.4497, 18132.12
170.9319, 18127.84
171.4140, 18120.97
171.8961, 18108.55
172.3782, 18083.69
172.8603, 18044.37
173.3424, 18008.99
173.8246, 17999.82
174.3067, 18004.10
174.7888, 17997.95
175.2709, 17965.15
175.7530, 17919.02
176.2351, 17883.95
176.7173, 17858.48
177.1994, 17849.02
177.6815, 17870.08
178.1636, 17909.44
178.6457, 17938.98
179.1278, 17942.10
179.6100, 17921.06
180.0921, 17889.38
180.5742, 17835.46
181.0563, 17783.65
181.5384, 17746.63
182.0205, 17722.50
182.5027, 17703.05
182.9848, 17677.64
183.4669, 17643.60
183.9490, 17628.27
184.4311, 17673.65
184.9132, 17706.85
185.3954, 17684.63
185.8775, 17610.52
186.3596, 17528.06
186.8417, 17492.30
187.3238, 17524.89
187.8059, 17543.43
188.2881, 17542.03
188.7702, 17531.03
189.2523, 17511.38
189.7344, 17485.17
190.2165, 17460.40
190.6986, 17450.68
191.1808, 17466.76
191.6629, 17480.79
192.1450, 17496.16
192.6271, 17507.31
193.1092, 17508.27
193.5914, 17497.06
194.0735, 17478.15
194.5556, 17461.55
195.0377, 17456.62
195.5198, 17442.51
196.0019, 17412.46
196.4841, 17374.87
196.9662, 17334.33
197.4483, 17291.71
197.9304, 17255.52
198.4125, 17257.22
198.8946, 17337.61
199.3768, 17405.73
199.8589, 17443.86
200.3410, 17458.99
200.8231, 17461.10
201.3052, 17452.39
201.7873, 17437.95
202.2695, 17443.30
202.7516, 17482.78
203.2337, 17522.62
203.7158, 17550.82
204.1979, 17569.45
204.6800, 17583.03
205.1622, 17590.15
205.6443, 17596.17
206.1264, 17623.87
206.6085, 17689.30
207.0906, 17760.36
207.5727, 17826.95
208.0549, 17886.90
208.5370, 17925.46
209.0191, 17920.80
209.5012, 17885.08
209.9833, 17876.41
210.4654, 17931.95
210.9476, 17992.10
211.4297, 18001.28
211.9118, 17956.82
212.3939, 17899.14
212.8760, 17850.63
213.3581, 17810.20
213.8403, 17776.65
214.3224, 17769.06
214.8045, 17759.48
215.2866, 17707.31
215.7687, 17604.50
216.2508, 17491.31
216.7330, 17384.87
217.2151, 17288.64
217.6972, 17215.92
218.1793, 17194.08
218.6614, 17193.77
219.1435, 17154.14
219.6257, 17058.14
220.1078, 16961.56
220.5899, 16912.20
221.0720, 16889.73
221.5541, 16851.45
222.0362, 16761.63
222.5184, 16639.75
223.0005, 16544.25
223.4826, 16474.29
223.9647, 16436.80
224.4468, 16456.77
224.9289, 16509.76
225.4111, 16538.11
225.8932, 16485.56
226.3753, 16370.31
226.8574, 16302.03
227.3395, 16314.99
227.8216, 16333.65
228.3038, 16324.05
228.7859, 16289.95
229.2680, 16242.92
229.7501, 16177.21
230.2322, 16095.67
230.7143, 16057.43
231.1965, 16108.58
231.6786, 16156.59
232.1607, 16164.46
232.6428, 16135.85
233.1249, 16087.68
233.6070, 16026.12
234.0892, 15950.23
234.5713, 15890.20
235.0534, 15854.38
235.5355, 15828.83
236.0176, 15810.62
236.4998, 15798.77
236.9819, 15792.21
237.4640, 15790.48
237.9461, 15793.95
238.4282, 15799.57
238.9103, 15821.72
239.3925, 15833.70
239.8746, 15819.75
240.3567, 15784.07
240.8388, 15743.85
241.3209, 15713.92
241.8030, 15694.74
242.2852, 15683.35
242.7673, 15678.96
243.2494, 15682.75
243.7315, 15707.23
244.2136, 15744.75
244.6957, 15769.98
245.1779, 15752.23
245.6600, 15678.10
246.1421, 15626.41
246.6242, 15609.94
247.1063, 15603.09
247.5884, 15595.73
248.0706, 15587.16
248.5527, 15582.35
249.0348, 15588.63
249.5169, 15612.28
249.9990, 15619.75
250.4811, 15610.96
250.9633, 15588.97
251.4454, 15546.28
251.9275, 15488.20
252.4096, 15431.79
252.8917, 15396.15
253.3738, 15386.50
253.8560, 15376.79
254.3381, 15359.38
254.8202, 15348.09
255.3023, 15361.86
255.7844, 15393.92
256.2665, 15413.56
256.7487, 15385.03
257.2308, 15290.58
257.7129, 15220.59
258.1950, 15166.14
258.6771, 15137.10
259.1592, 15154.46
259.6414, 15209.17
260.1235, 15263.75
260.6056, 15277.39
261.0877, 15236.73
261.5698, 15213.60
262.0519, 15219.58
262.5341, 15229.24
263.0162, 15227.64
263.4983, 15215.66
263.9804, 15204.57
264.4625, 15206.07
264.9446, 15223.17
265.4268, 15238.67
265.9089, 15263.94
266.3910, 15278.63
266.8731, 15264.12
267.3552, 15225.53
267.8373, 15186.13
268.3195, 15168.28
268.8016, 15175.92
269.2837, 15182.22
269.7658, 15182.82
270.2479, 15185.86
270.7300, 15198.27
271.2122, 15217.91
271.6943, 15236.02
272.1764, 15244.76
272.6585, 15243.08
273.1406, 15239.20
273.6227, 15222.32
274.1049, 15213.17
274.5870, 15229.86
275.0691, 15265.59
275.5512, 15296.63
276.0333, 15302.82
276.5154, 15282.45
276.9976, 15261.58
277.4797, 15241.70
277.9618, 15220.33
278.4439, 15190.73
278.9260, 15157.56
279.4081, 15134.66
279.8903, 15134.08
280.3724, 15156.43
280.8545, 15169.18
281.3366, 15163.10
281.8187, 15158.72
282.3008, 15163.87
282.7830, 15177.01
283.2651, 15194.87
283.7472, 15217.13
284.2293, 15242.57
284.7114, 15245.15
285.1935, 15194.38
285.6757, 15155.81
286.1578, 15161.46
286.6399, 15194.72
287.1220, 15219.77
287.6041, 15214.13
288.0862, 15180.86
288.5684, 15144.72
289.0505, 15104.79
289.5326, 15063.42
290.0147, 15015.75
290.4968, 14967.76
290.9789, 14929.98
291.4611, 14908.53
291.9432, 14901.06
292.4253, 14896.69
292.9074, 14900.57
293.3895, 14901.81
293.8716, 14908.65
294.3538, 14909.69
294.8359, 14881.90
295.3180, 14812.15
295.8001, 14720.32
296.2823, 14670.79
296.7644, 14715.54
297.2465, 14743.71
297.7286, 14737.99
298.2107, 14714.81
298.6928, 14692.58
299.1750, 14678.79
299.6571, 14670.74
300.1392, 14661.83
300.6213, 14637.97
301.1034, 14632.59
301.5855, 14666.62
302.0677, 14709.11
302.5498, 14729.81
303.0319, 14719.32
303.5140, 14689.22
303.9961, 14660.26
304.4782, 14633.82
304.9604, 14606.43
305.4425, 14568.44
305.9246, 14535.62
306.4067, 14523.90
306.8888, 14535.44
307.3709, 14556.21
307.8531, 14564.83
308.3352, 14548.40
308.8173, 14551.77
309.2994, 14597.34
309.7815, 14642.45
310.2636, 14655.63
310.7458, 14636.15
311.2279, 14608.40
311.7100, 14599.08
312.1921, 14611.18
312.6742, 14631.04
313.1563, 14682.34
313.6385, 14719.62
314.1206, 14706.07
314.6027, 14653.07
315.0848, 14605.64
315.5669, 14608.20
316.0490, 14666.35
316.5312, 14710.40
317.0133, 14732.69
317.4954, 14748.82
317.9775, 14766.18
318.4596, 14781.69
318.9417, 14786.11
319.4239, 14770.07
319.9060, 14735.70
320.3881, 14716.68
320.8702, 14729.25
321.3523, 14740.91
321.8344, 14745.83
322.3166, 14744.75
322.7987, 14738.83
323.2808, 14728.03
323.7629, 14714.19
324.2450, 14704.73
324.7271, 14699.73
325.2093, 14699.79
325.6914, 14711.54
326.1735, 14725.34
326.6556, 14729.27
327.1377, 14717.46
327.6198, 14697.00
328.1020, 14683.57
328.5841, 14682.30
329.0662, 14676.80
329.5483, 14658.15
330.0304, 14637.50
330.5125, 14624.81
330.9947, 14623.01
331.4768, 14626.05
331.9589, 14626.40
332.4410, 14624.29
332.9231, 14618.39
333.4052, 14602.77
333.8874, 14587.05
334.3695, 14579.25
334.8516, 14579.84
335.3337, 14579.52
335.8158, 14568.60
336.2979, 14546.86
336.7801, 14523.51
337.2622, 14494.38
337.7443, 14469.87
338.2264, 14457.90
338.7085, 14457.15
339.1906, 14457.96
339.6728, 14454.09
340.1549, 14446.21
340.6370, 14439.41
341.1191, 14440.27
341.6012, 14431.18
342.0833, 14382.12
342.5655, 14312.61
343.0476, 14276.43
343.5297, 14322.39
344.0118, 14413.77
344.4939, 14475.43
344.9760, 14505.15
345.4582, 14511.09
345.9403, 14473.89
346.4224, 14418.53
346.9045, 14387.00
347.3866, 14403.90
347.8687, 14436.33
348.3509, 14444.79
348.8330, 14428.74
349.3151, 14418.48
349.7972, 14436.36
350.2793, 14466.26
350.7614, 14475.86
351.2436, 14452.69
351.7257, 14428.17
352.2078, 14425.45
352.6899, 14439.98
353.1720, 14453.80
353.6541, 14463.48
354.1363, 14464.91
354.6184, 14446.78
355.1005, 14400.63
355.5826, 14366.35
356.0647, 14366.39
356.5468, 14385.77
357.0290, 14402.63
357.5111, 14413.18
357.9932, 14409.90
358.4753, 14374.86
358.9574, 14297.61
359.4395, 14246.62
359.9217, 14245.64
360.4038, 14264.23
360.8859, 14278.85
361.3680, 14285.23
361.8501, 14278.76
362.3322, 14249.56
362.8144, 14192.97
363.2965, 14174.55
363.7786, 14233.72
364.2607, 14291.88
364.7428, 14305.81
365.2249, 14281.92
365.7071, 14246.67
366.1892, 14215.88
366.6713, 14190.29
367.1534, 14177.05
367.6355, 14177.97
368.1176, 14188.13
368.5998, 14219.52
369.0819, 14256.38
369.5640, 14273.48
370.0461, 14258.83
370.5282, 14226.20
371.0103, 14210.22
371.4925, 14211.96
371.9746, 14231.39
372.4567, 14296.38
372.9388, 14360.92
373.4209, 14382.07
373.9030, 14351.54
374.3852, 14296.55
374.8673, 14250.00
375.3494, 14209.35
375.8315, 14186.08
376.3136, 14193.83
376.7957, 14206.61
377.2779, 14212.51
377.7600, 14211.74
378.2421, 14211.33
378.7242, 14220.43
379.2064, 14237.96
379.6885, 14237.75
380.1706, 14202.04
380.6527, 14171.33
381.1348, 14165.85
381.6169, 14174.88
382.0991, 14179.15
382.5812, 14167.41
383.0633, 14147.19
383.5454, 14136.97
384.0275, 14142.38
384.5096, 14140.39
384.9918, 14106.49
385.4739, 14067.39
385.9560, 14052.25
386.4381, 14072.38
386.9202, 14099.87
387.4023, 14108.52
387.8845, 14099.08
388.3666, 14081.64
388.8487, 14043.94
389.3308, 14016.56
389.8129, 14047.62
390.2950, 14142.93
390.7772, 14206.70
391.2593, 14159.71
391.7414, 14056.31
392.2235, 14009.28
392.7056, 14044.16
393.1877, 14100.50
393.6699, 14124.63
394.1520, 14117.89
394.6341, 14099.76
395.1162, 14057.14
395.5983, 14014.86
396.0804, 13997.60
396.5626, 14002.98
397.0447, 14005.97
397.5268, 13986.96
398.0089, 13952.16
398.4910, 13944.27
398.9731, 13981.42
399.4553, 14019.80
399.9374, 14049.29
400.4195, 14070.41
400.9016, 14083.90
401.3837, 14089.86
401.8658, 14090.58
402.3480, 14091.17
402.8301, 14101.93
403.3122, 14095.45
403.7943, 14046.79
404.2764, 13998.20
404.7585, 13986.50
405.2407, 14014.61
405.7228, 14057.94
406.2049, 14092.13
406.6870, 14119.23
407.1691, 14124.72
407.6512, 14090.38
408.1334, 14052.17
408.6155, 14013.76
409.0976, 13981.36
409.5797, 13967.42
410.0618, 13984.53
410.5439, 14020.91
411.0261, 14027.44
411.5082, 13979.56
411.9903, 13948.45
412.4724, 13968.15
412.9545, 14005.81
413.4366, 14028.11
413.9188, 14024.37
414.4009, 14009.20
414.8830, 13997.51
415.3651, 13989.19
415.8472, 13986.71
416.3293, 13995.40
416.8115, 14005.63
417.2936, 14010.91
417.7757, 14011.01
418.2578, 14003.98
418.7399, 13984.06
419.2220, 13957.07
419.7042, 13932.05
420.1863, 13907.52
420.6684, 13897.10
421.1505, 13923.45
421.6326, 13976.08
422.1147, 14007.91
422.5969, 14001.17
423.0790, 13982.57
423.5611, 13973.90
424.0432, 13971.01
424.5253, 13949.96
425.0074, 13891.66
425.4896, 13817.18
425.9717, 13793.01
426.4538, 13859.58
426.9359, 13905.26
427.4180, 13894.22
427.9001, 13860.47
428.3823, 13843.83
428.8644, 13853.60
429.3465, 13870.75
429.8286, 13869.51
430.3107, 13839.66
430.7928, 13828.90
431.2750, 13865.00
431.7571, 13890.49
432.2392, 13870.77
432.7213, 13816.30
433.2034, 13756.48
433.6855, 13708.83
434.1677, 13675.50
434.6498, 13670.37
435.1319, 13717.40
435.6140, 13756.17
436.0961, 13774.01
436.5782, 13777.97
437.0604, 13769.28
437.5425, 13747.53
438.0246, 13732.23
438.5067, 13762.64
438.9888, 13844.49
439.4709, 13881.99
439.9531, 13825.34
440.4352, 13753.54
440.9173, 13727.88
441.3994, 13743.89
441.8815, 13759.68
442.3636, 13756.92
442.8458, 13739.00
443.3279, 13705.79
443.8100, 13653.68
444.2921, 13613.28
444.7742, 13612.46
445.2563, 13639.37
445.7385, 13651.97
446.2206, 13637.98
446.7027, 13620.55
447.1848, 13610.20
447.6669, 13606.26
448.1490, 13609.53
448.6312, 13621.95
449.1133, 13635.01
449.5954, 13632.55
450.0775, 13605.60
450.5596, 13581.91
451.0417, 13562.09
451.5239, 13546.14
452.0060, 13535.00
452.4881, 13528.15
452.9702, 13523.27
453.4523, 13518.55
453.9344, 13513.97
454.4166, 13508.49
454.8987, 13493.72
455.3808, 13487.35
455.8629, 13503.82
456.3450, 13527.49
456.8271, 13536.59
457.3093, 13521.59
457.7914, 13493.12
458.2735, 13469.28
458.7556, 13451.48
459.2377, 13432.31
459.7198, 13405.86
460.2020, 13381.40
460.6841, 13368.84
461.1662, 13366.50
461.6483, 13357.80
462.1305, 13321.94
462.6126, 13272.00
463.0947, 13246.91
463.5768, 13253.43
464.0589, 13265.26
464.5410, 13267.86
465.0232, 13262.80
465.5053, 13253.61
465.9874, 13232.96
466.4695, 13217.29
466.9516, 13220.56
467.4337, 13237.44
467.9159, 13254.16
468.3980, 13266.52
468.8801, 13274.42
469.3622, 13277.82
469.8443, 13277.76
470.3264, 13269.77
470.8086, 13252.22
471.2907, 13227.91
471.7728, 13191.51
472.2549, 13148.13
472.7370, 13117.32
473.2191, 13117.56
473.7013, 13144.70
474.1834, 13148.26
474.6655, 13096.74
475.1476, 13059.47
475.6297, 13057.89
476.1118, 13071.72
476.5940, 13079.77
477.0761, 13074.86
477.5582, 13061.17
478.0403, 13037.63
478.5224, 13001.02
479.0045, 12990.49
479.4867, 13044.55
479.9688, 13088.00
480.4509, 13059.59
480.9330, 12976.86
481.4151, 12908.25
481.8972, 12891.00
482.3794, 12904.66
482.8615, 12921.49
483.3436, 12941.45
483.8257, 12960.91
484.3078, 12980.94
484.7899, 12997.12
485.2721, 12998.78
485.7542, 12978.11
486.2363, 12959.74
486.7184, 12955.29
487.2005, 12956.83
487.6826, 12956.68
488.1648, 12952.53
488.6469, 12937.39
489.1290, 12900.30
489.6111, 12835.35
490.0932, 12792.33
490.5753, 12782.73
491.0575, 12779.17
491.5396, 12777.02
492.0217, 12772.69
492.5038, 12758.60
492.9859, 12730.03
493.4680, 12699.02
493.9502, 12697.93
494.4323, 12747.13
494.9144, 12767.95
495.3965, 12713.47
495.8786, 12654.60
496.3607, 12639.44
496.8429, 12665.47
497.3250, 12690.38
497.8071, 12681.30
498.2892, 12649.92
498.7713, 12627.07
499.2534, 12614.01
499.7356, 12607.12
500.2177, 12612.28
500.6998, 12619.92
501.1819, 12608.05
501.6640, 12564.00
502.1461, 12519.97
502.6283, 12492.29
503.1104, 12475.37
503.5925, 12460.70
504.0746, 12446.34
504.5567, 12426.14
505.0388, 12388.65
505.5210, 12323.82
506.0031, 12293.92
506.4852, 12321.19
506.9673, 12356.96
507.4494, 12386.08
507.9315, 12406.23
508.4137, 12418.32
508.8958, 12423.35
509.3779, 12417.48
509.8600, 12386.13
510.3421, 12311.44
510.8242, 12258.36
511.3064, 12243.58
511.7885, 12247.12
512.2706, 12266.39
512.7527, 12296.52
513.2349, 12318.07
513.7170, 12311.81
514.1991, 12287.65
514.6812, 12272.18
515.1633, 12267.16
515.6454, 12263.03
516.1276, 12253.86
516.6097, 12242.15
517.0918, 12233.89
517.5739, 12230.40
518.0560, 12228.09
518.5381, 12229.36
519.0203, 12229.61
519.5024, 12221.24
519.9845, 12202.64
520.4666, 12177.72
520.9487, 12150.42
521.4308, 12120.69
521.9130, 12088.43
522.3951, 12033.13
522.8772, 11997.84
523.3593, 12011.67
523.8414, 12051.44
524.3235, 12082.97
524.8057, 12091.39
525.2878, 12082.74
525.7699, 12063.53
526.2520, 12029.49
526.7341, 12004.68
527.2162, 11994.54
527.6984, 11992.15
528.1805, 12000.11
528.6626, 12013.49
529.1447, 12015.61
529.6268, 11992.33
530.1089, 11956.64
530.5911, 11923.52
531.0732, 11893.21
531.5553, 11872.62
532.0374, 11866.84
532.5195, 11870.47
533.0016, 11873.86
533.4838, 11880.88
533.9659, 11877.93
534.4480, 11855.77
534.9301, 11827.15
535.4122, 11803.58
535.8943, 11785.84
536.3765, 11768.91
536.8586, 11748.66
537.3407, 11725.62
537.8228, 11703.28
538.3049, 11683.13
538.7870, 11661.43
539.2692, 11630.70
539.7513, 11602.04
540.2334, 11588.79
540.7155, 11592.58
541.1976, 11598.62
541.6797, 11589.91
542.1619, 11569.23
542.6440, 11559.43
543.1261, 11567.08
543.6082, 11571.90
544.0903, 11551.05
544.5724, 11519.61
545.0546, 11509.34
545.5367, 11536.55
546.0188, 11567.81
546.5009, 11591.08
546.9830, 11603.43
547.4651, 11593.33
547.9473, 11557.23
548.4294, 11516.32
548.9115, 11495.20
549.3936, 11497.22
549.8757, 11500.21
550.3578, 11511.58
550.8400, 11515.97
551.3221, 11510.56
551.8042, 11493.61
552.2863, 11455.95
552.7684, 11393.03
553.2505, 11330.77
553.7327, 11321.69
554.2148, 11377.63
554.6969, 11397.29
555.1790, 11336.03
555.6611, 11274.36
556.1432, 11273.03
556.6254, 11315.10
557.1075, 11343.48
557.5896, 11328.08
558.0717, 11297.95
558.5538, 11281.78
559.0359, 11277.26
559.5181, 11273.83
560.0002, 11268.56
560.4823, 11259.92
560.9644, 11245.08
561.4465, 11221.27
561.9286, 11198.42
562.4108, 11168.51
562.8929, 11146.81
563.3750, 11149.75
563.8571, 11168.70
564.3392, 11183.40
564.8214, 11182.68
565.3035, 11168.14
565.7856, 11139.97
566.2677, 11089.55
566.7498, 11051.59
567.2319, 11023.30
567.7141, 11017.05
568.1962, 11065.48
568.6783, 11153.42
569.1604, 11202.21
569.6425, 11131.42
570.1246, 11019.00
570.6068, 10976.50
571.0889, 11001.09
571.5710, 11056.25
572.0531, 11147.68
572.5352, 11229.22
573.0173, 11191.26
573.4995, 10956.10
573.9816, 10814.39
574.4637, 10871.97
574.9458, 10969.25
575.4279, 10993.12
575.9100, 10948.14
576.3922, 10889.61
576.8743, 10851.55
577.3564, 10830.94
577.8385, 10820.29
578.3206, 10826.00
578.8027, 10825.72
579.2849, 10807.56
579.7670, 10787.94
580.2491, 10779.81
580.7312, 10781.97
581.2133, 10780.25
581.6954, 10760.56
582.1776, 10735.15
582.6597, 10721.26
583.1418, 10719.09
583.6239, 10731.73
584.1060, 10768.72
584.5881, 10810.43
585.0703, 10811.15
585.5524, 10752.18
586.0345, 10700.01
586.5166, 10651.29
586.9987, 10618.48
587.4808, 10625.34
587.9630, 10658.22
588.4451, 10675.31
588.9272, 10648.51
589.4093, 10591.80
589.8914, 10543.80
590.3735, 10501.35
590.8557, 10477.11
591.3378, 10488.71
591.8199, 10507.79
592.3020, 10519.11
592.7841, 10521.46
593.2662, 10514.63
593.7484, 10498.11
594.2305, 10472.58
594.7126, 10429.48
595.1947, 10373.26
595.6768, 10337.56
596.1589, 10338.66
596.6411, 10363.21
597.1232, 10388.29
597.6053, 10423.10
598.0874, 10434.80
598.5695, 10404.72
599.0516, 10368.64
599.5338, 10347.70
600.0159, 10338.21
600.4980, 10325.63
600.9801, 10301.14
601.4622, 10274.00
601.9443, 10255.76
602.4265, 10241.12
602.9086, 10275.64
603.3907, 10421.68
603.8728, 10555.76
604.3549, 10579.07
604.8370, 10508.45
605.3192, 10419.38
605.8013, 10305.74
606.2834, 10207.58
606.7655, 10163.41
607.2476, 10161.52
607.7297, 10173.77
608.2119, 10191.75
608.6940, 10203.33
609.1761, 10188.63
609.6582, 10136.89
610.1403, 10103.57
610.6224, 10082.07
611.1046, 10084.37
611.5867, 10137.79
612.0688, 10211.03
612.5509, 10257.87
613.0330, 10261.17
613.5151, 10236.79
613.9973, 10190.21
614.4794, 10126.58
614.9615, 10095.94
615.4436, 10114.19
615.9257, 10139.99
616.4078, 10145.40
616.8900, 10132.79
617.3721, 10114.60
617.8542, 10079.89
618.3363, 10053.43
618.8184, 10047.57
619.3005, 10053.75
619.7827, 10061.44
620.2648, 10068.34
620.7469, 10078.64
621.2290, 10100.12
621.7111, 10130.53
622.1932, 10127.70
622.6754, 10062.69
623.1575, 10013.20
623.6396, 10000.78
624.1217, 10010.86
624.6038, 10039.48
625.0859, 10085.26
625.5681, 10115.91
626.0502, 10090.16
626.5323, 10045.03
627.0144, 10055.89
627.4965, 10122.44
627.9786, 10168.25
628.4608, 10148.52
628.9429, 10086.64
629.4250, 10042.03
629.9071, 10013.78
630.3892, 10006.46
630.8713, 10036.57
631.3535, 10073.16
631.8356, 10093.80
632.3177, 10103.68
632.7998, 10124.01
633.2819, 10170.75
633.7640, 10222.96
634.2462, 10231.90
634.7283, 10194.23
635.2104, 10181.54
635.6925, 10222.82
636.1746, 10271.84
636.6567, 10270.81
637.1389, 10233.16
637.6210, 10234.05
638.1031, 10322.44
638.5852, 10413.47
639.0673, 10466.94
639.5494, 10489.91
640.0316, 10485.37
640.5137, 10457.49
640.9958, 10437.24
641.4779, 10462.22
641.9600, 10533.76
642.4421, 10616.61
642.9243, 10732.09
643.4064, 10826.50
643.8885, 10866.46
644.3706, 10887.31
644.8527, 10928.26
645.3348, 10997.17
645.8170, 11073.45
646.2991, 11147.88
646.7812, 11219.76
647.2633, 11280.45
647.7454, 11331.99
648.2275, 11403.90
648.7097, 11518.21
649.1918, 11656.36
649.6739, 11765.13
650.1560, 11829.69
650.6381, 11887.53
651.1202, 11941.94
651.6024, 11986.70
652.0845, 12017.08
652.5666, 12034.83
653.0487, 12044.65
653.5308, 12047.92
654.0129, 12046.93
654.4951, 12055.47
654.9772, 12069.86
655.4593, 12040.90
655.9414, 11952.37
656.4235, 11834.06
656.9056, 11705.81
657.3878, 11568.45
657.8699, 11440.13
658.3520, 11316.16
658.8341, 11206.62
659.3162, 11122.05
659.7983, 11050.56
660.2805, 10978.27
660.7626, 10902.51
661.2447, 10829.76
661.7268, 10764.18
662.2089, 10706.64
662.6910, 10666.51
663.1732, 10654.35
663.6553, 10623.91
664.1374, 10542.98
664.6195, 10447.81
665.1016, 10381.25
665.5837, 10344.76
666.0659, 10315.17
666.5480, 10283.89
667.0302, 10258.02
667.5123, 10249.68
667.9944, 10251.67
668.4765, 10245.25
668.9586, 10222.49
669.4407, 10188.64
669.9229, 10148.05
670.4050, 10094.96
670.8871, 10066.35
671.3692, 10080.03
671.8513, 10096.15
672.3334, 10102.32
672.8156, 10099.22
673.2977, 10086.92
673.7798, 10064.20
674.2619, 10037.65
674.7440, 10002.48
675.2261, 9969.719
675.7083, 9963.432
676.1904, 9982.504
676.6725, 9995.203
677.1546, 9978.825
677.6367, 9945.954
678.1188, 9939.638
678.6010, 9987.348
679.0831, 10009.83
679.5652, 9989.205
680.0473, 9958.471
680.5294, 9929.641
681.0115, 9905.567
681.4937, 9890.238
681.9758, 9889.274
682.4579, 9889.631
682.9400, 9872.948
683.4221, 9845.688
683.9042, 9831.803
684.3864, 9837.065
684.8685, 9842.187
685.3506, 9828.228
685.8327, 9797.788
686.3148, 9783.185
686.7969, 9798.305
687.2791, 9811.523
687.7612, 9821.884
688.2433, 9827.433
688.7254, 9823.834
689.2075, 9813.056
689.6896, 9804.717
690.1718, 9808.816
690.6539, 9815.435
691.1360, 9804.811
691.6181, 9778.660
692.1002, 9755.935
692.5823, 9740.892
693.0645, 9734.742
693.5466, 9739.932
694.0287, 9757.462
694.5108, 9775.898
694.9929, 9807.957
695.4750, 9825.549
695.9572, 9803.811
696.4393, 9772.531
696.9214, 9770.568
697.4035, 9801.404
697.8856, 9829.166
698.3677, 9812.569
698.8499, 9772.381
699.3320, 9776.764
699.8141, 9828.592
700.2962, 9857.092
700.7783, 9826.220
701.2604, 9777.858
701.7426, 9777.371
702.2247, 9841.053
702.7068, 9873.017
703.1889, 9851.524
703.6710, 9821.115
704.1531, 9793.800
704.6353, 9772.542
705.1174, 9759.220
705.5995, 9754.480
706.0816, 9758.487
706.5637, 9774.428
707.0458, 9799.690
707.5280, 9824.192
708.0101, 9848.228
708.4922, 9867.516
708.9743, 9879.206
709.4564, 9886.142
709.9385, 9894.274
710.4207, 9906.235
710.9028, 9908.694
711.3849, 9886.342
711.8670, 9868.732
712.3491, 9875.512
712.8312, 9896.754
713.3134, 9916.124
713.7955, 9927.846
714.2776, 9933.491
714.7597, 9933.367
715.2418, 9928.441
715.7239, 9924.178
716.2061, 9921.085
716.6882, 9917.289
717.1703, 9913.082
717.6524, 9906.688
718.1345, 9892.604
718.6166, 9865.525
719.0988, 9848.150
719.5809, 9847.517
720.0630, 9852.006
720.5451, 9853.944
721.0272, 9856.431
721.5093, 9870.784
721.9915, 9901.207
722.4736, 9924.677
722.9557, 9900.862
723.4378, 9842.902
723.9199, 9827.045
724.4020, 9863.616
724.8842, 9897.654
725.3663, 9898.642
725.8484, 9880.585
726.3305, 9874.860
726.8126, 9888.784
727.2947, 9895.581
727.7769, 9890.010
728.2590, 9880.911
728.7411, 9870.854
729.2232, 9861.428
729.7053, 9854.137
730.1874, 9849.506
730.6696, 9848.973
731.1517, 9857.969
731.6338, 9872.685
732.1159, 9877.675
732.5980, 9871.415
733.0801, 9862.239
733.5623, 9853.035
734.0444, 9845.556
734.5265, 9844.478
735.0086, 9857.428
735.4907, 9858.857
735.9728, 9836.736
736.4550, 9815.794
736.9371, 9806.893
737.4192, 9807.386
737.9013, 9813.825
738.3834, 9825.325
738.8655, 9833.281
739.3477, 9831.137
739.8298, 9818.939
740.3119, 9787.847
740.7940, 9738.648
741.2761, 9714.695
741.7582, 9744.882
742.2404, 9796.191
742.7225, 9800.297
743.2046, 9729.461
743.6867, 9691.374
744.1688, 9716.933
744.6509, 9738.244
745.1331, 9720.694
745.6152, 9687.594
746.0973, 9676.148
746.5794, 9696.354
747.0615, 9714.420
747.5436, 9698.928
748.0258, 9669.164
748.5079, 9660.500
748.9900, 9669.887
749.4721, 9665.727
749.9542, 9632.481
750.4363, 9590.070
750.9185, 9571.992
751.4006, 9584.200
751.8827, 9587.573
752.3648, 9572.347
752.8469, 9561.204
753.3290, 9572.795
753.8112, 9585.570
754.2933, 9570.536
754.7754, 9523.035
755.2575, 9478.979
755.7396, 9453.555
756.2217, 9441.417
756.7039, 9446.910
757.1860, 9460.944
757.6681, 9455.938
758.1502, 9422.822
758.6323, 9386.485
759.1144, 9380.205
759.5966, 9403.214
760.0787, 9413.191
760.5608, 9411.493
761.0429, 9392.122
761.5250, 9327.183
762.0071, 9263.182
762.4893, 9260.442
762.9714, 9319.517
763.4535, 9359.607
763.9356, 9349.675
764.4177, 9329.744
764.8998, 9320.804
765.3820, 9317.271
765.8641, 9308.620
766.3462, 9293.200
766.8283, 9278.632
767.3104, 9272.720
767.7925, 9272.280
768.2747, 9263.731
768.7568, 9245.510
769.2389, 9241.063
769.7210, 9265.890
770.2031, 9287.579
770.6852, 9265.451
771.1674, 9200.481
771.6495, 9167.878
772.1316, 9192.791
772.6137, 9215.529
773.0958, 9219.264
773.5779, 9217.563
774.0601, 9227.484
774.5422, 9245.382
775.0243, 9249.890
775.5064, 9223.828
775.9885, 9187.049
776.4706, 9161.563
776.9528, 9147.777
777.4349, 9149.759
777.9170, 9168.682
778.3991, 9192.860
778.8812, 9214.221
779.3633, 9232.902
779.8455, 9250.115
780.3276, 9275.696
780.8097, 9280.777
781.2918, 9241.191
781.7739, 9203.063
782.2560, 9195.494
782.7382, 9206.232
783.2203, 9203.544
783.7024, 9170.420
784.1845, 9148.830
784.6666, 9185.777
785.1487, 9236.617
785.6309, 9231.457
786.1130, 9180.611
786.5951, 9153.718
787.0772, 9188.179
787.5593, 9243.764
788.0414, 9240.464
788.5236, 9171.503
789.0057, 9147.679
789.4878, 9191.710
789.9699, 9232.010
790.4520, 9231.719
790.9341, 9209.139
791.4163, 9195.596
791.8984, 9192.255
792.3805, 9191.777
792.8626, 9195.887
793.3447, 9199.835
793.8268, 9202.110
794.3090, 9202.182
794.7911, 9197.758
795.2732, 9189.073
795.7553, 9182.803
796.2374, 9183.260
796.7195, 9190.930
797.2017, 9215.084
797.6838, 9252.561
798.1659, 9264.851
798.6480, 9236.720
799.1301, 9199.338
799.6122, 9186.115
800.0944, 9196.920
800.5765, 9216.491
801.0586, 9259.568
801.5407, 9288.358
802.0228, 9277.658
802.5049, 9268.218
802.9871, 9301.991
803.4692, 9366.912
803.9513, 9405.358
804.4334, 9380.014
804.9155, 9350.636
805.3976, 9361.468
805.8798, 9390.032
806.3619, 9405.905
806.8440, 9406.134
807.3261, 9401.754
807.8082, 9399.644
808.2903, 9397.955
808.7725, 9393.268
809.2546, 9385.646
809.7367, 9375.692
810.2188, 9366.133
810.7009, 9345.308
811.1830, 9299.568
811.6652, 9241.642
812.1473, 9205.044
812.6294, 9203.738
813.1115, 9186.380
813.5936, 9130.223
814.0757, 9078.854
814.5579, 9054.995
815.0400, 9048.470
815.5221, 9045.168
816.0042, 9041.054
816.4863, 9031.751
816.9684, 9003.856
817.4506, 8974.933
817.9327, 8982.043
818.4148, 9013.350
818.8969, 9016.586
819.3790, 8975.114
819.8611, 8925.592
820.3433, 8910.296
820.8254, 8924.324
821.3075, 8910.870
821.7896, 8852.411
822.2717, 8817.471
822.7538, 8840.784
823.2360, 8871.025
823.7181, 8855.854
824.2002, 8807.645
824.6823, 8781.926
825.1644, 8805.406
825.6465, 8824.419
826.1287, 8813.591
826.6108, 8799.887
827.0929, 8815.475
827.5750, 8849.754
828.0571, 8865.267
828.5392, 8842.563
829.0214, 8806.680
829.5035, 8783.795
829.9856, 8771.548
830.4678, 8764.214
830.9499, 8761.110
831.4320, 8759.447
831.9141, 8757.087
832.3962, 8758.840
832.8784, 8775.666
833.3605, 8812.848
833.8426, 8830.007
834.3247, 8807.874
834.8068, 8796.659
835.2889, 8825.355
835.7711, 8864.921
836.2532, 8885.568
836.7353, 8886.821
837.2174, 8894.825
837.6995, 8914.573
838.1816, 8943.977
838.6638, 8995.289
839.1459, 9048.196
839.6280, 9076.534
840.1101, 9079.054
840.5922, 9071.246
841.0743, 9062.974
841.5565, 9049.976
842.0386, 9028.986
842.5207, 8997.901
843.0028, 8940.050
843.4849, 8852.367
843.9670, 8771.677
844.4492, 8718.804
844.9313, 8692.555
845.4134, 8694.465
845.8955, 8745.357
846.3776, 8760.144
846.8597, 8716.181
847.3419, 8666.568
847.8240, 8633.039
848.3061, 8606.501
848.7882, 8572.826
849.2703, 8528.854
849.7524, 8499.805
850.2346, 8501.801
850.7167, 8510.339
851.1988, 8518.139
851.6809, 8520.285
852.1630, 8506.787
852.6451, 8479.049
853.1273, 8454.217
853.6094, 8445.118
854.0915, 8445.640
854.5736, 8452.763
855.0557, 8461.717
855.5378, 8444.480
856.0200, 8396.464
856.5021, 8361.183
856.9842, 8374.298
857.4663, 8415.616
857.9484, 8422.639
858.4305, 8383.460
858.9127, 8351.723
859.3948, 8333.371
859.8769, 8316.965
860.3590, 8294.832
860.8411, 8272.012
861.3232, 8255.669
861.8054, 8245.835
862.2875, 8243.435
862.7696, 8257.417
863.2517, 8269.133
863.7338, 8267.438
864.2159, 8258.774
864.6981, 8252.829
865.1802, 8250.485
865.6623, 8243.659
866.1444, 8222.337
866.6265, 8199.040
867.1086, 8187.184
867.5908, 8186.773
868.0729, 8207.797
868.5550, 8247.618
869.0371, 8264.088
869.5192, 8222.953
870.0013, 8153.921
870.4835, 8136.409
870.9656, 8178.886
871.4477, 8194.990
871.9298, 8169.131
872.4119, 8143.030
872.8940, 8138.917
873.3762, 8146.614
873.8583, 8148.640
874.3404, 8145.573
874.8225, 8133.651
875.3046, 8093.696
875.7867, 8068.200
876.2689, 8083.051
876.7510, 8110.651
877.2331, 8123.319
877.7152, 8118.794
878.1973, 8109.601
878.6794, 8099.427
879.1616, 8088.817
879.6437, 8083.399
880.1258, 8075.115
880.6079, 8045.000
881.0900, 7997.948
881.5721, 7962.574
882.0543, 7955.603
882.5364, 7964.661
883.0185, 7973.330
883.5006, 7981.343
883.9827, 7988.858
884.4648, 7996.193
884.9470, 7994.201
885.4291, 7977.340
885.9112, 7954.274
886.3933, 7936.683
886.8754, 7924.423
887.3575, 7920.167
887.8397, 7925.946
888.3218, 7936.197
888.8039, 7961.015
889.2860, 7979.971
889.7681, 7970.857
890.2502, 7940.088
890.7324, 7919.019
891.2145, 7910.601
891.6966, 7913.638
892.1787, 7940.995
892.6608, 7967.928
893.1429, 7974.078
893.6251, 7964.193
894.1072, 7951.840
894.5893, 7941.682
895.0714, 7929.616
895.5535, 7908.708
896.0356, 7886.197
896.5178, 7871.065
896.9999, 7863.653
897.4820, 7865.775
897.9641, 7877.110
898.4462, 7887.952
898.9283, 7888.009
899.4105, 7881.107
899.8926, 7881.866
900.3747, 7890.790
900.8568, 7892.719
901.3389, 7883.596
901.8210, 7873.117
902.3032, 7867.910
902.7853, 7866.225
903.2674, 7862.528
903.7495, 7852.313
904.2316, 7851.541
904.7137, 7873.336
905.1959, 7888.149
905.6780, 7882.572
906.1601, 7866.698
906.6422, 7852.750
907.1243, 7841.665
907.6064, 7824.747
908.0886, 7777.634
908.5707, 7751.317
909.0528, 7789.907
909.5349, 7845.857
910.0170, 7870.956
910.4991, 7864.706
910.9813, 7850.184
911.4634, 7836.830
911.9455, 7824.393
912.4276, 7811.068
912.9097, 7799.271
913.3918, 7793.961
913.8740, 7794.343
914.3561, 7794.723
914.8382, 7792.894
915.3203, 7796.095
915.8024, 7818.882
916.2845, 7853.647
916.7667, 7856.409
917.2488, 7825.864
917.7309, 7805.793
918.2130, 7809.198
918.6951, 7813.295
919.1772, 7795.727
919.6594, 7764.700
920.1415, 7758.776
920.6236, 7796.647
921.1057, 7812.832
921.5878, 7792.036
922.0699, 7766.260
922.5521, 7745.168
923.0342, 7731.057
923.5163, 7730.743
923.9984, 7747.328
924.4805, 7756.581
924.9626, 7750.439
925.4448, 7742.548
925.9269, 7735.865
926.4090, 7731.665
926.8911, 7726.896
927.3732, 7725.013
927.8553, 7740.388
928.3375, 7788.817
928.8196, 7834.000
929.3017, 7851.061
929.7838, 7849.310
930.2659, 7834.611
930.7480, 7811.708
931.2302, 7789.787
931.7123, 7772.188
932.1944, 7754.646
932.6765, 7727.684
933.1586, 7698.809
933.6407, 7686.602
934.1229, 7689.909
934.6050, 7707.646
935.0871, 7739.396
935.5692, 7761.039
936.0513, 7749.699
936.5334, 7720.996
937.0156, 7725.953
937.4977, 7770.594
937.9798, 7796.799
938.4619, 7795.823
938.9440, 7792.657
939.4261, 7802.194
939.9083, 7812.194
940.3904, 7798.907
940.8725, 7755.635
941.3546, 7740.667
941.8367, 7780.292
942.3188, 7809.881
942.8010, 7810.365
943.2831, 7803.138
943.7652, 7807.341
944.2473, 7817.308
944.7294, 7810.431
945.2115, 7769.336
945.6937, 7740.687
946.1758, 7742.006
946.6579, 7753.773
947.1400, 7773.775
947.6221, 7791.233
948.1042, 7788.722
948.5864, 7763.839
949.0685, 7736.980
949.5506, 7711.696
950.0327, 7697.577
950.5148, 7711.379
950.9969, 7737.755
951.4791, 7760.193
951.9612, 7771.891
952.4433, 7757.457
952.9254, 7705.187
953.4075, 7650.180
953.8896, 7642.025
954.3718, 7664.369
954.8539, 7679.585
955.3360, 7685.102
955.8181, 7679.332
956.3002, 7661.731
956.7823, 7633.422
957.2645, 7591.715
957.7466, 7543.818
958.2287, 7521.540
958.7108, 7526.433
959.1929, 7524.979
959.6750, 7511.881
960.1572, 7491.924
960.6393, 7463.448
961.1214, 7437.671
961.6035, 7441.438
962.0856, 7484.625
962.5677, 7503.960
963.0499, 7492.018
963.5320, 7470.292
964.0141, 7434.378
964.4962, 7401.987
964.9783, 7392.744
965.4604, 7404.233
965.9426, 7413.979
966.4247, 7437.330
966.9068, 7436.008
967.3889, 7375.374
967.8710, 7323.179
968.3531, 7327.532
968.8353, 7357.405
969.3174, 7363.934
969.7995, 7339.491
970.2816, 7310.375
970.7637, 7269.232
971.2458, 7243.967
971.7280, 7267.118
972.2101, 7300.368
972.6922, 7297.191
973.1743, 7264.924
973.6564, 7240.979
974.1385, 7238.503
974.6207, 7257.366
975.1028, 7333.528
975.5849, 7403.257
976.0670, 7369.560
976.5491, 7274.182
977.0313, 7216.920
977.5134, 7221.305
977.9955, 7241.354
978.4776, 7245.056
978.9597, 7237.369
979.4418, 7217.668
979.9240, 7194.322
980.4061, 7197.797
980.8882, 7225.960
981.3703, 7239.840
981.8524, 7219.781
982.3345, 7188.563
982.8167, 7177.379
983.2988, 7182.891
983.7809, 7189.568
984.2630, 7197.233
984.7451, 7196.300
985.2272, 7183.611
985.7094, 7170.709
986.1915, 7166.570
986.6736, 7168.951
987.1557, 7171.852
987.6378, 7175.524
988.1199, 7177.482
988.6021, 7176.633
989.0842, 7178.354
989.5663, 7187.786
990.0484, 7195.072
990.5305, 7186.602
991.0126, 7163.239
991.4948, 7147.729
991.9769, 7147.128
992.4590, 7139.102
992.9411, 7108.875
993.4232, 7087.338
993.9053, 7101.291
994.3875, 7132.250
994.8696, 7143.604
995.3517, 7131.317
995.8339, 7119.460
996.3160, 7098.851
996.7981, 7091.992
997.2802, 7118.693
997.7623, 7149.573
998.2444, 7160.208
998.7266, 7154.103
999.2087, 7147.422
999.6908, 7141.674
1000.173, 7138.670
1000.655, 7141.821
1001.137, 7144.464
1001.619, 7144.073
1002.101, 7139.934
1002.583, 7126.303
1003.066, 7105.801
1003.548, 7099.651
1004.030, 7130.771
1004.512, 7157.371
1004.994, 7151.481
1005.476, 7132.991
1005.958, 7116.206
1006.440, 7105.015
1006.923, 7105.206
1007.405, 7117.865
1007.887, 7127.892
1008.369, 7117.298
1008.851, 7105.499
1009.333, 7116.781
1009.815, 7138.762
1010.297, 7153.014
1010.779, 7156.559
1011.262, 7150.312
1011.744, 7134.042
1012.226, 7116.636
1012.708, 7103.588
1013.190, 7098.348
1013.672, 7116.818
1014.154, 7147.936
1014.636, 7152.668
1015.119, 7125.740
1015.601, 7102.387
1016.083, 7109.752
1016.565, 7131.348
1017.047, 7139.341
1017.529, 7137.423
1018.011, 7140.396
1018.493, 7147.905
1018.975, 7148.292
1019.458, 7137.373
1019.940, 7122.394
1020.422, 7111.386
1020.904, 7101.837
1021.386, 7082.185
1021.868, 7053.940
1022.350, 7041.399
1022.832, 7047.975
1023.315, 7059.314
1023.797, 7068.907
1024.279, 7075.321
1024.761, 7075.132
1025.243, 7069.390
1025.725, 7072.070
1026.207, 7084.475
1026.689, 7091.207
1027.171, 7086.773
1027.654, 7090.543
1028.136, 7120.445
1028.618, 7157.141
1029.100, 7155.058
1029.582, 7108.106
1030.064, 7072.599
1030.546, 7046.305
1031.028, 7042.950
1031.510, 7077.215
1031.993, 7110.950
1032.475, 7110.548
1032.957, 7083.174
1033.439, 7053.729
1033.921, 7014.863
1034.403, 6996.724
1034.885, 7006.537
1035.367, 7024.019
1035.849, 7051.335
1036.332, 7071.335
1036.814, 7059.594
1037.296, 7020.877
1037.778, 7002.859
1038.260, 7010.635
1038.742, 7029.826
1039.224, 7074.623
1039.706, 7110.754
1040.189, 7121.887
1040.671, 7116.863
1041.153, 7105.472
1041.635, 7087.357
1042.117, 7070.292
1042.599, 7042.469
1043.081, 7033.040
1043.563, 7059.499
1044.046, 7089.475
1044.528, 7112.347
1045.010, 7124.323
1045.492, 7114.748
1045.974, 7078.559
1046.456, 7056.796
1046.938, 7057.275
1047.420, 7066.292
1047.902, 7087.310
1048.385, 7109.655
1048.867, 7129.906
1049.349, 7144.859
1049.831, 7146.466
1050.313, 7130.446
1050.795, 7117.290
1051.277, 7103.104
1051.759, 7101.629
1052.241, 7132.749
1052.724, 7165.907
1053.206, 7176.773
1053.688, 7166.771
1054.170, 7143.070
1054.652, 7095.574
1055.134, 7070.767
1055.616, 7099.394
1056.098, 7129.694
1056.581, 7133.260
1057.063, 7128.700
1057.545, 7141.229
1058.027, 7165.776
1058.509, 7172.065
1058.991, 7143.464
1059.473, 7118.500
1059.955, 7108.727
1060.438, 7106.439
1060.920, 7113.107
1061.402, 7121.048
1061.884, 7122.485
1062.366, 7116.413
1062.848, 7103.126
1063.330, 7075.414
1063.812, 7054.602
1064.294, 7053.507
1064.776, 7057.335
1065.259, 7054.538
1065.741, 7050.911
1066.223, 7057.044
1066.705, 7073.196
1067.187, 7088.244
1067.669, 7104.059
1068.151, 7108.995
1068.633, 7088.992
1069.116, 7064.989
1069.598, 7049.500
1070.080, 7042.974
1070.562, 7046.715
1071.044, 7059.833
1071.526, 7070.664
1072.008, 7068.786
1072.490, 7070.948
1072.973, 7092.533
1073.455, 7114.487
1073.937, 7110.121
1074.419, 7098.075
1074.901, 7122.622
1075.383, 7190.425
1075.865, 7234.514
1076.347, 7194.249
1076.829, 7163.056
1077.312, 7210.614
1077.794, 7268.199
1078.276, 7266.248
1078.758, 7226.963
1079.240, 7198.760
1079.722, 7192.794
1080.204, 7213.680
1080.686, 7289.007
1081.169, 7359.868
1081.651, 7395.896
1082.133, 7413.125
1082.615, 7421.059
1083.097, 7424.500
1083.579, 7429.963
1084.061, 7439.190
1084.543, 7446.426
1085.026, 7447.275
1085.508, 7447.913
1085.990, 7458.177
1086.472, 7464.307
1086.954, 7443.187
1087.436, 7409.444
1087.918, 7405.398
1088.400, 7445.130
1088.882, 7458.130
1089.365, 7388.124
1089.847, 7317.894
1090.329, 7298.577
1090.811, 7291.655
1091.293, 7254.004
1091.775, 7199.000
1092.257, 7168.224
1092.739, 7173.588
1093.221, 7178.605
1093.704, 7166.844
1094.186, 7155.320
1094.668, 7158.347
1095.150, 7160.124
1095.632, 7141.161
1096.114, 7109.739
1096.596, 7088.385
1097.078, 7082.616
1097.561, 7080.590
1098.043, 7081.473
1098.525, 7081.806
1099.007, 7080.297
1099.489, 7077.556
1099.971, 7072.728
1100.453, 7067.503
1100.935, 7066.154
1101.417, 7070.398
1101.900, 7072.600
1102.382, 7065.454
1102.864, 7063.026
1103.346, 7075.864
1103.828, 7090.547
1104.310, 7100.374
1104.792, 7102.196
1105.274, 7088.580
1105.756, 7054.997
1106.239, 7025.296
1106.721, 6992.039
1107.203, 6978.514
1107.685, 7008.127
1108.167, 7044.625
1108.649, 7068.146
1109.131, 7075.891
1109.613, 7058.638
1110.096, 7005.992
1110.578, 6978.693
1111.060, 7002.600
1111.542, 7024.233
1112.024, 7032.545
1112.506, 7034.074
1112.988, 7027.710
1113.470, 7019.453
1113.953, 7024.960
1114.435, 7050.474
1114.917, 7059.146
1115.399, 7031.717
1115.881, 7017.503
1116.363, 7040.755
1116.845, 7059.139
1117.327, 7039.822
1117.809, 7002.042
1118.292, 6980.086
1118.774, 6973.082
1119.256, 6992.526
1119.738, 7070.072
1120.220, 7104.238
1120.702, 7052.701
1121.184, 7000.799
1121.666, 6999.669
1122.148, 7026.155
1122.631, 7042.438
1123.113, 7048.530
1123.595, 7043.896
1124.077, 7022.699
1124.559, 7009.802
1125.041, 7009.339
1125.523, 7018.273
1126.005, 7042.148
1126.488, 7059.039
1126.970, 7030.407
1127.452, 6961.556
1127.934, 6931.828
1128.416, 6947.488
1128.898, 6958.568
1129.380, 6957.078
1129.862, 6962.855
1130.344, 6986.480
1130.827, 7017.676
1131.309, 7046.486
1131.791, 7069.180
1132.273, 7060.909
1132.755, 7022.015
1133.237, 6996.880
1133.719, 6990.030
1134.201, 6994.313
1134.683, 7007.775
1135.166, 7016.009
1135.648, 7000.343
1136.130, 6973.738
1136.612, 6975.172
1137.094, 6999.098
1137.576, 7015.877
1138.058, 7023.149
1138.540, 7021.429
1139.023, 7011.423
1139.505, 7002.995
1139.987, 7006.527
1140.469, 7011.363
1140.951, 6990.727
1141.433, 6959.622
1141.915, 6961.194
1142.397, 6987.763
1142.880, 7004.213
1143.362, 7002.178
1143.844, 6994.201
1144.326, 6987.737
1144.808, 6982.976
1145.290, 6975.936
1145.772, 6973.680
1146.254, 6993.027
1146.736, 7023.091
1147.219, 7045.450
1147.701, 7054.065
1148.183, 7041.388
1148.665, 6999.240
1149.147, 6957.891
1149.629, 6936.076
1150.111, 6930.036
1150.593, 6943.848
1151.075, 6966.232
1151.558, 6980.310
1152.040, 6988.701
1152.522, 7013.531
1153.004, 7069.042
1153.486, 7091.965
1153.968, 7016.918
1154.450, 6945.797
1154.932, 6943.094
1155.415, 6962.057
1155.897, 6960.016
1156.379, 6942.608
1156.861, 6929.618
1157.343, 6923.525
1157.825, 6929.340
1158.307, 6962.137
1158.789, 6987.226
1159.271, 6991.081
1159.754, 6989.120
1160.236, 6990.845
1160.718, 6993.336
1161.200, 6991.104
1161.682, 6983.870
1162.164, 6974.871
1162.646, 6957.133
1163.128, 6951.110
1163.610, 6966.873
1164.093, 6979.703
1164.575, 6975.971
1165.057, 6968.083
1165.539, 6972.202
1166.021, 6985.550
1166.503, 6988.358
1166.985, 6977.878
1167.467, 6969.096
1167.950, 6961.917
1168.432, 6961.875
1168.914, 6973.243
1169.396, 6981.235
1169.878, 6971.530
1170.360, 6950.755
1170.842, 6934.282
1171.324, 6922.317
1171.807, 6920.261
1172.289, 6927.719
1172.771, 6935.438
1173.253, 6941.214
1173.735, 6948.757
1174.217, 6961.050
1174.699, 6971.466
1175.181, 6967.733
1175.663, 6955.709
1176.146, 6950.239
1176.628, 6949.185
1177.110, 6944.802
1177.592, 6937.646
1178.074, 6937.315
1178.556, 6947.749
1179.038, 6955.038
1179.520, 6945.944
1180.002, 6928.340
1180.485, 6903.924
1180.967, 6881.422
1181.449, 6874.750
1181.931, 6879.479
1182.413, 6881.267
1182.895, 6877.882
1183.377, 6884.851
1183.859, 6923.364
1184.342, 6951.441
1184.824, 6940.015
1185.306, 6918.966
1185.788, 6907.682
1186.270, 6901.217
1186.752, 6886.479
1187.234, 6866.703
1187.716, 6867.100
1188.198, 6908.197
1188.681, 6932.989
1189.163, 6920.146
1189.645, 6908.344
1190.127, 6919.042
1190.609, 6926.505
1191.091, 6902.301
1191.573, 6863.331
1192.055, 6853.922
1192.537, 6879.118
1193.020, 6903.104
1193.502, 6931.225
1193.984, 6939.709
1194.466, 6920.642
1194.948, 6891.778
1195.430, 6858.440
1195.912, 6834.119
1196.394, 6842.148
1196.877, 6874.447
1197.359, 6886.346
1197.841, 6878.773
1198.323, 6868.411
1198.805, 6857.303
1199.287, 6848.940
1199.769, 6844.640
1200.251, 6849.288
1200.734, 6871.678
1201.216, 6891.321
1201.698, 6862.499
1202.180, 6811.681
1202.662, 6792.743
1203.144, 6801.325
1203.626, 6828.465
1204.108, 6863.688
1204.590, 6872.467
1205.073, 6834.159
1205.555, 6794.858
1206.037, 6791.446
1206.519, 6799.913
1207.001, 6803.935
1207.483, 6805.979
1207.965, 6809.056
1208.447, 6813.351
1208.929, 6821.013
1209.412, 6832.897
1209.894, 6831.871
1210.376, 6788.639
1210.858, 6767.824
1211.340, 6805.913
1211.822, 6847.670
1212.304, 6869.441
1212.786, 6872.390
1213.269, 6852.467
1213.751, 6814.448
1214.233, 6794.425
1214.715, 6802.239
1215.197, 6799.983
1215.679, 6785.341
1216.161, 6765.781
1216.643, 6741.615
1217.125, 6718.358
1217.608, 6697.915
1218.090, 6687.414
1218.572, 6706.498
1219.054, 6749.913
1219.536, 6770.541
1220.018, 6770.579
1220.500, 6770.911
1220.982, 6774.127
1221.464, 6768.399
1221.947, 6749.072
1222.429, 6740.432
1222.911, 6776.970
1223.393, 6818.837
1223.875, 6785.966
1224.357, 6734.030
1224.839, 6774.723
1225.321, 6862.616
1225.804, 6878.738
1226.286, 6812.183
1226.768, 6748.539
1227.250, 6721.717
1227.732, 6715.770
1228.214, 6742.817
1228.696, 6763.831
1229.178, 6748.726
1229.661, 6723.051
1230.143, 6706.743
1230.625, 6701.593
1231.107, 6708.459
1231.589, 6729.353
1232.071, 6748.964
1232.553, 6772.270
1233.035, 6783.805
1233.517, 6778.550
1234.000, 6767.663
1234.482, 6755.259
1234.964, 6740.485
1235.446, 6721.302
1235.928, 6699.862
1236.410, 6682.958
1236.892, 6670.391
1237.374, 6679.461
1237.856, 6709.505
1238.339, 6722.058
1238.821, 6708.604
1239.303, 6689.873
1239.785, 6677.800
1240.267, 6675.273
1240.749, 6694.578
1241.231, 6719.458
1241.713, 6720.781
1242.196, 6707.437
1242.678, 6693.758
1243.160, 6680.790
1243.642, 6661.774
1244.124, 6637.064
1244.606, 6626.637
1245.088, 6652.418
1245.570, 6671.799
1246.052, 6653.916
1246.535, 6634.319
1247.017, 6637.882
1247.499, 6649.634
1247.981, 6652.383
1248.463, 6647.712
1248.945, 6645.724
1249.427, 6647.892
1249.909, 6647.770
1250.392, 6643.702
1250.874, 6641.553
1251.356, 6644.175
1251.838, 6642.472
1252.320, 6629.110
1252.802, 6618.395
1253.284, 6631.567
1253.766, 6657.520
1254.249, 6648.597
1254.731, 6611.829
1255.213, 6607.189
1255.695, 6630.921
1256.177, 6631.716
1256.659, 6601.393
1257.141, 6585.246
1257.623, 6612.054
1258.105, 6636.291
1258.588, 6594.527
1259.070, 6542.492
1259.552, 6542.626
1260.034, 6568.252
1260.516, 6590.649
1260.998, 6606.327
1261.480, 6617.191
1261.962, 6623.548
1262.444, 6624.563
1262.927, 6610.026
1263.409, 6606.636
1263.891, 6620.986
1264.373, 6646.037
1264.855, 6702.113
1265.337, 6740.350
1265.819, 6706.042
1266.301, 6637.262
1266.784, 6630.425
1267.266, 6688.919
1267.748, 6700.157
1268.230, 6660.137
1268.712, 6623.374
1269.194, 6597.033
1269.676, 6579.154
1270.158, 6568.865
1270.641, 6565.401
1271.123, 6568.787
1271.605, 6576.281
1272.087, 6580.253
1272.569, 6587.359
1273.051, 6616.820
1273.533, 6655.234
1274.015, 6677.996
1274.497, 6681.593
1274.979, 6668.063
1275.462, 6636.717
1275.944, 6610.758
1276.426, 6596.065
##END=



