##NAMES=Kirschsteinite
##RRUFFID=R070266
##IDEAL CHEMISTRY=CaFe^2+^SiO_4_
##LOCALITY=Dolores mine, Pastrana, Mazarrón, Murcia, Spain
##OWNER=RRUFF
##SOURCE=Michael Scott
##DESCRIPTION=Aggregate of vitreous brown rhombic prismatic crystals with conchoidal fracture
##STATUS=The identification of this mineral has been confirmed by X-ray diffraction and chemical analysis
##URL=rruff.info/R070266
##MEASURED CHEMISTRY=(Ca_0.95_Mn_0.02_Mg_0.02_Na_0.01_)_Σ=1_(Fe^2+^_0.83_Mg_0.16_Fe^3+^_0.01_)_Σ=1_Si_1.00_O_4_; Fe^2+^ and Fe^3+^ by charge balance
128.9308, 461.0382
129.4129, 483.9753
129.8950, 506.3341
130.3772, 530.8110
130.8593, 558.8256
131.3414, 589.6946
131.8235, 620.6885
132.3056, 651.1321
132.7877, 683.3346
133.2699, 721.4898
133.7520, 766.0833
134.2341, 809.3014
134.7162, 844.7195
135.1983, 872.4496
135.6804, 911.9137
136.1626, 964.9001
136.6447, 1026.510
137.1268, 1089.419
137.6089, 1154.759
138.0910, 1215.724
138.5731, 1266.600
139.0553, 1306.199
139.5374, 1344.727
140.0195, 1384.286
140.5016, 1422.864
140.9837, 1450.885
141.4658, 1466.728
141.9480, 1475.000
142.4301, 1479.100
142.9122, 1481.354
143.3943, 1474.333
143.8764, 1455.163
144.3585, 1424.246
144.8407, 1392.326
145.3228, 1359.578
145.8049, 1325.900
146.2870, 1291.048
146.7691, 1250.373
147.2512, 1215.154
147.7334, 1188.150
148.2155, 1170.160
148.6976, 1155.748
149.1797, 1144.257
149.6618, 1136.538
150.1439, 1133.750
150.6261, 1138.683
151.1082, 1146.079
151.5903, 1155.346
152.0724, 1168.691
152.5545, 1178.787
153.0366, 1180.811
153.5188, 1179.335
154.0009, 1183.325
154.4830, 1203.606
154.9651, 1222.559
155.4472, 1232.223
155.9293, 1225.454
156.4115, 1218.405
156.8936, 1213.153
157.3757, 1209.807
157.8578, 1208.608
158.3399, 1216.921
158.8221, 1223.205
159.3042, 1219.997
159.7863, 1196.840
160.2684, 1172.417
160.7505, 1154.286
161.2326, 1141.206
161.7148, 1124.854
162.1969, 1101.414
162.6790, 1072.993
163.1611, 1041.970
163.6432, 1003.173
164.1253, 966.4009
164.6075, 938.9719
165.0896, 921.2229
165.5717, 901.9406
166.0538, 869.5250
166.5359, 832.5552
167.0180, 803.1910
167.5002, 793.9817
167.9823, 789.2990
168.4644, 775.8837
168.9465, 751.4020
169.4286, 727.6900
169.9107, 713.9269
170.3929, 707.4096
170.8750, 702.0911
171.3571, 695.8939
171.8392, 688.9799
172.3213, 681.2122
172.8034, 672.2955
173.2856, 663.7105
173.7677, 656.2041
174.2498, 649.9901
174.7319, 645.9081
175.2140, 645.3835
175.6961, 647.0729
176.1783, 649.1645
176.6604, 651.6935
177.1425, 653.8341
177.6246, 654.4570
178.1067, 653.6772
178.5888, 652.2726
179.0710, 649.8511
179.5531, 647.2296
180.0352, 646.4650
180.5173, 648.8004
180.9994, 652.4573
181.4815, 654.5317
181.9637, 655.0745
182.4458, 655.1213
182.9279, 656.0516
183.4100, 657.3649
183.8921, 656.9650
184.3742, 652.5641
184.8564, 646.8047
185.3385, 647.1602
185.8206, 654.0945
186.3027, 661.5433
186.7848, 661.5508
187.2669, 655.3826
187.7491, 652.7385
188.2312, 658.8678
188.7133, 671.1972
189.1954, 680.2341
189.6775, 685.5110
190.1596, 689.3112
190.6418, 694.9803
191.1239, 702.4055
191.6060, 708.1572
192.0881, 709.1731
192.5702, 706.3471
193.0524, 708.0046
193.5345, 714.8929
194.0166, 724.2833
194.4987, 731.9788
194.9808, 737.8626
195.4629, 743.8433
195.9451, 751.8627
196.4272, 761.9170
196.9093, 767.2574
197.3914, 766.4692
197.8735, 762.8596
198.3556, 763.1693
198.8378, 768.0947
199.3199, 772.4981
199.8020, 772.2880
200.2841, 766.8798
200.7662, 766.1566
201.2483, 772.1299
201.7305, 781.7728
202.2126, 787.5970
202.6947, 788.9885
203.1768, 788.8531
203.6589, 788.1091
204.1410, 786.2952
204.6232, 787.9745
205.1053, 795.9482
205.5874, 806.6328
206.0695, 806.7908
206.5516, 793.3049
207.0337, 777.4775
207.5159, 765.9303
207.9980, 758.6274
208.4801, 757.5941
208.9622, 766.4649
209.4443, 781.7457
209.9264, 784.8198
210.4086, 771.1731
210.8907, 754.3346
211.3728, 745.0861
211.8549, 745.4944
212.3370, 745.9977
212.8191, 744.3287
213.3013, 741.2280
213.7834, 744.0529
214.2655, 756.5355
214.7476, 768.9656
215.2297, 771.6259
215.7118, 759.8359
216.1940, 751.4421
216.6761, 750.4536
217.1582, 756.4747
217.6403, 760.7872
218.1224, 762.2014
218.6045, 763.4290
219.0867, 767.4988
219.5688, 776.1619
220.0509, 783.3746
220.5330, 787.1116
221.0151, 787.3046
221.4972, 789.6902
221.9794, 794.9111
222.4615, 801.6234
222.9436, 808.7703
223.4257, 817.2767
223.9078, 824.3141
224.3899, 828.6268
224.8721, 829.9445
225.3542, 832.6414
225.8363, 836.1345
226.3184, 841.5693
226.8005, 851.2820
227.2827, 869.1950
227.7648, 883.6280
228.2469, 890.2542
228.7290, 887.4338
229.2111, 889.6236
229.6932, 899.1256
230.1754, 911.7401
230.6575, 921.7327
231.1396, 926.1391
231.6217, 933.1457
232.1038, 945.9621
232.5859, 966.2955
233.0681, 982.8477
233.5502, 992.7296
234.0323, 1000.841
234.5144, 1015.103
234.9965, 1040.039
235.4786, 1063.360
235.9608, 1081.630
236.4429, 1094.214
236.9250, 1103.391
237.4071, 1106.747
237.8892, 1108.127
238.3713, 1113.274
238.8535, 1121.685
239.3356, 1134.847
239.8177, 1155.120
240.2998, 1186.581
240.7819, 1209.072
241.2640, 1218.733
241.7462, 1222.034
242.2283, 1230.320
242.7104, 1246.228
243.1925, 1262.759
243.6746, 1277.123
244.1567, 1287.643
244.6389, 1302.714
245.1210, 1326.544
245.6031, 1352.395
246.0852, 1366.995
246.5673, 1362.807
247.0494, 1360.290
247.5316, 1368.380
248.0137, 1393.162
248.4958, 1407.716
248.9779, 1409.229
249.4600, 1401.980
249.9421, 1393.534
250.4243, 1383.502
250.9064, 1372.911
251.3885, 1362.799
251.8706, 1354.855
252.3527, 1340.999
252.8348, 1318.595
253.3170, 1291.978
253.7991, 1269.668
254.2812, 1253.938
254.7633, 1238.630
255.2454, 1221.617
255.7275, 1203.005
256.2097, 1182.625
256.6918, 1159.701
257.1739, 1135.776
257.6560, 1113.615
258.1381, 1094.052
258.6202, 1074.377
259.1024, 1051.721
259.5845, 1023.168
260.0666, 1005.738
260.5487, 1004.604
261.0308, 1010.703
261.5129, 1006.624
261.9951, 988.7211
262.4772, 969.4130
262.9593, 953.7512
263.4414, 942.4955
263.9235, 929.9864
264.4056, 913.8140
264.8878, 898.5135
265.3699, 893.4227
265.8520, 902.8106
266.3341, 910.0702
266.8162, 907.4241
267.2983, 892.6641
267.7805, 882.6848
268.2626, 879.1128
268.7447, 878.6211
269.2268, 874.6578
269.7089, 865.4638
270.1910, 859.1468
270.6732, 859.9932
271.1553, 869.0154
271.6374, 874.8828
272.1195, 876.3833
272.6016, 876.5159
273.0837, 881.3094
273.5659, 892.3460
274.0480, 899.9878
274.5301, 897.3115
275.0122, 883.6040
275.4943, 882.6440
275.9764, 897.6317
276.4586, 919.3491
276.9407, 934.8814
277.4228, 943.7239
277.9049, 949.2157
278.3870, 950.1624
278.8691, 947.0365
279.3513, 951.7395
279.8334, 965.8562
280.3155, 983.7274
280.7976, 997.6994
281.2798, 1007.470
281.7619, 1017.629
282.2440, 1030.094
282.7261, 1044.540
283.2082, 1057.893
283.6903, 1069.543
284.1725, 1082.345
284.6546, 1102.125
285.1367, 1128.328
285.6188, 1150.573
286.1009, 1162.984
286.5830, 1168.231
287.0652, 1178.875
287.5473, 1195.719
288.0294, 1212.586
288.5115, 1221.728
288.9936, 1224.009
289.4757, 1226.432
289.9579, 1233.055
290.4400, 1241.110
290.9221, 1242.848
291.4042, 1238.053
291.8863, 1229.644
292.3684, 1219.647
292.8506, 1208.259
293.3327, 1196.406
293.8148, 1185.642
294.2969, 1173.802
294.7790, 1154.145
295.2611, 1126.572
295.7433, 1100.300
296.2254, 1086.135
296.7075, 1079.628
297.1896, 1068.739
297.6717, 1048.248
298.1538, 1022.816
298.6360, 997.5752
299.1181, 972.6268
299.6002, 951.8846
300.0823, 941.9487
300.5644, 937.7314
301.0465, 929.1313
301.5287, 911.1929
302.0108, 890.7271
302.4929, 874.8311
302.9750, 863.1084
303.4571, 854.1818
303.9392, 849.8924
304.4214, 846.9137
304.9035, 839.7612
305.3856, 823.7648
305.8677, 808.9891
306.3498, 805.8678
306.8319, 812.0153
307.3141, 819.0096
307.7962, 823.5938
308.2783, 825.7652
308.7604, 825.3617
309.2425, 821.8530
309.7246, 816.8434
310.2068, 810.4614
310.6889, 803.2465
311.1710, 796.5292
311.6531, 789.9484
312.1352, 784.7102
312.6173, 781.9804
313.0995, 782.4823
313.5816, 783.9921
314.0637, 787.0098
314.5458, 790.2291
315.0279, 791.2310
315.5100, 788.3641
315.9922, 783.5817
316.4743, 776.9194
316.9564, 767.1995
317.4385, 760.5331
317.9206, 759.9686
318.4027, 763.4297
318.8849, 768.0140
319.3670, 777.1030
319.8491, 783.5269
320.3312, 783.0850
320.8133, 773.8904
321.2954, 767.5949
321.7776, 767.9622
322.2597, 771.7003
322.7418, 775.3003
323.2239, 783.5192
323.7060, 786.3055
324.1881, 777.5760
324.6703, 755.6451
325.1524, 742.2457
325.6345, 746.6305
326.1166, 756.1533
326.5987, 760.6404
327.0808, 752.9615
327.5630, 748.6568
328.0451, 753.3213
328.5272, 766.0933
329.0093, 767.4866
329.4914, 746.7968
329.9735, 724.4396
330.4557, 714.3615
330.9378, 726.5214
331.4199, 733.3032
331.9020, 729.2610
332.3841, 717.6577
332.8662, 715.1446
333.3484, 726.5762
333.8305, 739.7731
334.3126, 748.5034
334.7947, 752.1608
335.2768, 752.6520
335.7589, 748.8057
336.2411, 742.5385
336.7232, 738.8129
337.2053, 738.4897
337.6874, 738.2736
338.1695, 735.8582
338.6516, 730.6348
339.1338, 729.3621
339.6159, 733.5686
340.0980, 739.5219
340.5801, 740.2965
341.0622, 735.3252
341.5443, 730.4143
342.0265, 727.2581
342.5086, 725.9597
342.9907, 727.3741
343.4728, 731.6030
343.9549, 738.1109
344.4370, 747.3989
344.9192, 759.0361
345.4013, 769.4136
345.8834, 777.4829
346.3655, 783.1947
346.8476, 785.3563
347.3297, 783.8785
347.8119, 781.3985
348.2940, 779.2482
348.7761, 777.9301
349.2582, 778.9741
349.7403, 783.1099
350.2225, 789.5081
350.7046, 798.3041
351.1867, 809.1265
351.6688, 818.4931
352.1509, 822.7709
352.6331, 824.3060
353.1152, 826.5692
353.5973, 830.3890
354.0794, 835.0090
354.5615, 839.6733
355.0436, 844.5653
355.5258, 850.2421
356.0079, 859.0837
356.4900, 867.6942
356.9721, 872.2115
357.4542, 870.4050
357.9363, 870.0641
358.4185, 876.3326
358.9006, 886.9409
359.3827, 897.9626
359.8648, 906.3654
360.3469, 915.9781
360.8290, 930.1022
361.3112, 950.0566
361.7933, 967.0759
362.2754, 976.1062
362.7575, 981.7601
363.2396, 989.0814
363.7217, 997.2156
364.2039, 1009.013
364.6860, 1027.097
365.1681, 1051.612
365.6502, 1073.454
366.1323, 1087.852
366.6144, 1101.680
367.0966, 1119.790
367.5787, 1149.241
368.0608, 1174.233
368.5429, 1192.164
369.0250, 1204.406
369.5071, 1217.127
369.9893, 1226.701
370.4714, 1240.840
370.9535, 1264.370
371.4356, 1303.208
371.9177, 1336.977
372.3998, 1362.497
372.8820, 1384.429
373.3641, 1413.750
373.8462, 1453.811
374.3283, 1492.307
374.8104, 1522.510
375.2925, 1543.523
375.7747, 1570.451
376.2568, 1604.914
376.7389, 1642.525
377.2210, 1676.232
377.7031, 1705.564
378.1852, 1737.972
378.6674, 1778.569
379.1495, 1823.972
379.6316, 1861.289
380.1137, 1889.872
380.5958, 1913.403
381.0779, 1929.596
381.5601, 1941.663
382.0422, 1965.091
382.5243, 2007.757
383.0064, 2058.407
383.4885, 2099.791
383.9706, 2132.782
384.4528, 2160.967
384.9349, 2183.892
385.4170, 2204.598
385.8991, 2230.419
386.3812, 2265.339
386.8633, 2296.769
387.3455, 2311.104
387.8276, 2312.919
388.3097, 2312.858
388.7918, 2314.326
389.2739, 2317.263
389.7560, 2323.510
390.2382, 2333.852
390.7203, 2339.563
391.2024, 2333.324
391.6845, 2320.775
392.1666, 2308.304
392.6487, 2303.348
393.1309, 2293.872
393.6130, 2273.369
394.0951, 2242.616
394.5772, 2211.919
395.0593, 2186.054
395.5414, 2159.669
396.0236, 2129.649
396.5057, 2091.018
396.9878, 2053.976
397.4699, 2021.218
397.9520, 1991.092
398.4341, 1958.748
398.9163, 1922.609
399.3984, 1885.938
399.8805, 1850.431
400.3626, 1818.063
400.8447, 1780.497
401.3268, 1733.956
401.8090, 1685.051
402.2911, 1642.900
402.7732, 1610.911
403.2553, 1577.582
403.7374, 1538.011
404.2195, 1492.984
404.7017, 1458.047
405.1838, 1435.424
405.6659, 1416.600
406.1480, 1394.310
406.6301, 1368.434
407.1122, 1341.396
407.5944, 1313.305
408.0765, 1284.518
408.5586, 1255.226
409.0407, 1225.364
409.5228, 1198.579
410.0049, 1178.721
410.4871, 1164.083
410.9692, 1149.662
411.4513, 1134.855
411.9334, 1120.527
412.4155, 1107.642
412.8976, 1095.795
413.3798, 1084.320
413.8619, 1071.012
414.3440, 1058.770
414.8261, 1053.010
415.3082, 1053.697
415.7903, 1050.152
416.2725, 1029.834
416.7546, 1003.480
417.2367, 982.8445
417.7188, 975.5627
418.2009, 970.9476
418.6830, 966.3281
419.1652, 961.0027
419.6473, 952.5718
420.1294, 933.8115
420.6115, 916.4029
421.0937, 907.5967
421.5758, 914.8645
422.0579, 917.0218
422.5400, 906.3863
423.0221, 890.0416
423.5042, 879.4335
423.9864, 880.6602
424.4685, 881.3121
424.9506, 878.3416
425.4327, 871.4462
425.9148, 865.1799
426.3969, 859.0481
426.8791, 854.1068
427.3612, 851.3921
427.8433, 851.2066
428.3254, 852.8352
428.8075, 858.1755
429.2896, 864.4818
429.7718, 860.3058
430.2539, 843.4103
430.7360, 827.8795
431.2181, 823.2840
431.7002, 828.8434
432.1823, 833.3608
432.6645, 836.3206
433.1466, 838.1213
433.6287, 839.1053
434.1108, 839.3293
434.5929, 839.0696
435.0750, 839.0663
435.5572, 838.3714
436.0393, 833.9902
436.5214, 826.1599
437.0035, 819.8875
437.4856, 821.4187
437.9677, 826.3057
438.4499, 828.1490
438.9320, 823.9250
439.4141, 818.6695
439.8962, 815.6162
440.3783, 814.3058
440.8604, 813.4642
441.3426, 812.7717
441.8247, 812.2241
442.3068, 811.7830
442.7889, 811.4007
443.2710, 811.3372
443.7531, 814.1527
444.2353, 816.3480
444.7174, 814.0989
445.1995, 798.1916
445.6816, 787.3419
446.1637, 788.0560
446.6458, 798.7881
447.1280, 802.7514
447.6101, 795.2260
448.0922, 786.1128
448.5743, 781.1436
449.0564, 782.5764
449.5385, 782.1097
450.0207, 779.5873
450.5028, 775.0406
450.9849, 767.5107
451.4670, 756.0793
451.9491, 746.6815
452.4312, 741.9805
452.9134, 741.4933
453.3955, 741.3613
453.8776, 741.5759
454.3597, 742.1906
454.8418, 744.2914
455.3239, 747.1249
455.8061, 747.0855
456.2882, 742.1042
456.7703, 735.8589
457.2524, 733.7237
457.7345, 734.9848
458.2166, 736.7073
458.6988, 737.4511
459.1809, 737.5879
459.6630, 737.8284
460.1451, 738.4514
460.6272, 737.6365
461.1093, 732.8174
461.5915, 726.3333
462.0736, 721.1863
462.5557, 718.8561
463.0378, 717.5433
463.5199, 717.0089
464.0020, 717.1245
464.4842, 717.0451
464.9663, 717.8356
465.4484, 717.4638
465.9305, 714.3671
466.4126, 702.8427
466.8947, 698.8335
467.3769, 708.5641
467.8590, 723.0797
468.3411, 727.2698
468.8232, 716.0921
469.3053, 704.3763
469.7874, 695.4132
470.2696, 689.1744
470.7517, 685.1915
471.2338, 683.5344
471.7159, 683.9153
472.1980, 688.1001
472.6801, 695.8847
473.1623, 697.2884
473.6444, 689.0408
474.1265, 677.5305
474.6086, 673.3393
475.0907, 675.8292
475.5728, 680.8687
476.0550, 689.5491
476.5371, 698.2701
477.0192, 699.7810
477.5013, 693.7726
477.9834, 687.4458
478.4655, 687.2391
478.9477, 689.7714
479.4298, 690.5257
479.9119, 686.3939
480.3940, 682.4154
480.8761, 681.1277
481.3582, 682.0592
481.8404, 683.8987
482.3225, 688.7802
482.8046, 692.3599
483.2867, 692.1675
483.7688, 686.6029
484.2509, 682.1078
484.7331, 678.6904
485.2152, 676.8849
485.6973, 677.4334
486.1794, 682.8257
486.6615, 686.2667
487.1436, 686.3436
487.6258, 683.7399
488.1079, 681.2476
488.5900, 678.2553
489.0721, 677.1348
489.5542, 680.8081
490.0363, 689.3738
490.5185, 692.1794
491.0006, 687.7845
491.4827, 681.4501
491.9648, 680.3944
492.4470, 683.7075
492.9291, 686.3774
493.4112, 685.7430
493.8933, 684.3257
494.3754, 686.8029
494.8575, 692.5491
495.3397, 697.4803
495.8218, 697.7800
496.3039, 696.4635
496.7860, 696.9683
497.2681, 700.2510
497.7502, 703.6115
498.2324, 704.8512
498.7145, 705.5289
499.1966, 707.7897
499.6787, 713.0811
500.1608, 719.2130
500.6429, 726.1787
501.1251, 733.8239
501.6072, 740.1076
502.0893, 746.9016
502.5714, 750.6116
503.0535, 748.5540
503.5356, 735.1282
504.0178, 729.7873
504.4999, 735.6665
504.9820, 746.8547
505.4641, 754.5071
505.9462, 757.9449
506.4283, 761.2480
506.9105, 765.4612
507.3926, 770.4238
507.8747, 774.9544
508.3568, 778.9608
508.8389, 784.7121
509.3210, 797.3859
509.8032, 813.1918
510.2853, 820.8515
510.7674, 817.7532
511.2495, 811.6697
511.7316, 808.8868
512.2137, 809.0919
512.6959, 811.6491
513.1780, 818.4977
513.6601, 825.7684
514.1422, 829.8766
514.6243, 831.5332
515.1064, 835.7034
515.5886, 847.3571
516.0707, 860.0395
516.5528, 869.9756
517.0349, 877.2038
517.5170, 880.7924
517.9991, 875.6220
518.4813, 868.6855
518.9634, 869.7327
519.4455, 887.6632
519.9276, 897.8641
520.4097, 892.0088
520.8918, 873.5231
521.3740, 864.7888
521.8561, 867.5354
522.3382, 874.3075
522.8203, 882.5759
523.3024, 891.8885
523.7845, 894.7994
524.2667, 890.0173
524.7488, 882.1379
525.2309, 876.5561
525.7130, 872.4993
526.1951, 867.3600
526.6772, 859.4684
527.1594, 850.6960
527.6415, 842.8354
528.1236, 835.9572
528.6057, 830.1952
529.0878, 827.3644
529.5699, 824.6071
530.0521, 818.8917
530.5342, 808.4172
531.0163, 801.2319
531.4984, 802.2846
531.9805, 806.8427
532.4626, 809.8654
532.9448, 810.2905
533.4269, 809.5844
533.9090, 807.4800
534.3911, 804.3164
534.8732, 800.9573
535.3553, 795.2414
535.8375, 793.4741
536.3196, 800.7201
536.8017, 817.9083
537.2838, 825.1674
537.7659, 820.5931
538.2480, 812.5744
538.7302, 810.4778
539.2123, 813.3470
539.6944, 814.2645
540.1765, 810.5352
540.6586, 806.4038
541.1407, 808.8615
541.6229, 816.2929
542.1050, 822.9063
542.5871, 824.5858
543.0692, 824.7214
543.5513, 825.9998
544.0334, 828.5654
544.5156, 832.1305
544.9977, 839.2141
545.4798, 845.7166
545.9619, 848.1525
546.4440, 842.3713
546.9261, 837.7192
547.4083, 834.8811
547.8904, 834.1013
548.3725, 836.0377
548.8546, 842.9692
549.3367, 848.8673
549.8188, 851.9803
550.3010, 852.5766
550.7831, 854.2150
551.2652, 857.6127
551.7473, 859.6558
552.2294, 856.8137
552.7115, 849.7784
553.1937, 846.1112
553.6758, 846.9792
554.1579, 848.8541
554.6400, 847.0350
555.1221, 842.6304
555.6042, 838.6539
556.0864, 833.8806
556.5685, 832.2769
557.0506, 840.9492
557.5327, 856.9668
558.0148, 869.2903
558.4969, 870.4390
558.9791, 867.8215
559.4612, 864.8340
559.9433, 861.1089
560.4254, 860.9471
560.9075, 869.6657
561.3896, 879.7280
561.8718, 884.3131
562.3539, 877.4614
562.8360, 875.8867
563.3181, 884.9925
563.8002, 898.1296
564.2823, 896.1704
564.7645, 874.2534
565.2466, 859.5927
565.7287, 867.6924
566.2108, 892.2609
566.6929, 900.0196
567.1750, 890.2423
567.6572, 878.6959
568.1393, 881.2112
568.6214, 891.1008
569.1035, 894.2604
569.5856, 887.2720
570.0677, 878.5460
570.5499, 874.9235
571.0320, 874.1472
571.5141, 872.6118
571.9962, 868.5473
572.4783, 863.9228
572.9604, 857.8057
573.4426, 851.1943
573.9247, 848.9686
574.4068, 857.7020
574.8889, 865.6984
575.3710, 867.9249
575.8531, 862.8184
576.3353, 860.5516
576.8174, 863.4426
577.2995, 865.7663
577.7816, 860.0779
578.2637, 845.0995
578.7458, 837.0919
579.2280, 840.3918
579.7101, 848.0129
580.1922, 846.0983
580.6743, 836.4832
581.1564, 829.5319
581.6385, 834.0699
582.1207, 841.8254
582.6028, 840.9256
583.0849, 832.3869
583.5670, 824.1308
584.0491, 822.8013
584.5313, 822.3649
585.0134, 816.8733
585.4955, 802.2888
585.9776, 793.0617
586.4597, 797.5319
586.9418, 807.3629
587.4240, 813.1618
587.9061, 814.0569
588.3882, 811.6085
588.8703, 803.5557
589.3524, 792.9215
589.8345, 789.2899
590.3167, 794.2817
590.7988, 800.1208
591.2809, 803.7447
591.7630, 805.4358
592.2451, 806.7986
592.7272, 807.9016
593.2094, 807.0002
593.6915, 799.4232
594.1736, 789.4608
594.6557, 785.7432
595.1378, 790.5226
595.6199, 798.1899
596.1021, 808.4487
596.5842, 817.9299
597.0663, 821.8410
597.5485, 813.5253
598.0306, 804.6717
598.5127, 797.5892
598.9948, 792.6694
599.4769, 791.3159
599.9590, 795.2609
600.4412, 800.6517
600.9233, 806.7538
601.4054, 813.7590
601.8875, 819.0636
602.3696, 822.7684
602.8517, 824.4113
603.3339, 822.0287
603.8160, 816.1260
604.2981, 814.5657
604.7802, 819.2523
605.2623, 824.8179
605.7444, 822.7560
606.2266, 815.8635
606.7087, 811.7264
607.1908, 813.9514
607.6729, 819.0542
608.1550, 827.3098
608.6371, 836.6870
609.1193, 840.8708
609.6014, 831.1417
610.0835, 820.8654
610.5656, 817.4525
611.0477, 822.6304
611.5298, 824.3423
612.0120, 818.5703
612.4941, 812.8299
612.9762, 812.5570
613.4583, 819.6968
613.9404, 825.2191
614.4225, 828.5005
614.9047, 830.5164
615.3868, 831.8911
615.8689, 832.8281
616.3510, 836.3560
616.8331, 845.3896
617.3152, 854.7955
617.7974, 855.1473
618.2795, 848.5173
618.7616, 843.0143
619.2437, 842.9001
619.7258, 845.7625
620.2079, 850.3943
620.6901, 856.6771
621.1722, 863.2460
621.6543, 872.3198
622.1364, 879.6584
622.6185, 881.7089
623.1006, 873.5789
623.5828, 870.9235
624.0649, 875.7554
624.5470, 884.2167
625.0291, 892.3671
625.5112, 900.5792
625.9933, 906.4377
626.4755, 909.2875
626.9576, 909.7692
627.4397, 907.8701
627.9218, 904.0776
628.4039, 902.1129
628.8860, 905.2654
629.3682, 910.5484
629.8503, 914.5594
630.3324, 917.2338
630.8145, 918.1061
631.2966, 913.0343
631.7787, 908.7477
632.2609, 910.9711
632.7430, 922.5473
633.2251, 932.2477
633.7072, 937.5803
634.1893, 940.2468
634.6714, 941.8748
635.1536, 943.7807
635.6357, 940.9152
636.1178, 930.0002
636.5999, 917.2497
637.0820, 916.3388
637.5641, 927.9051
638.0463, 935.5560
638.5284, 932.6667
639.0105, 923.8073
639.4926, 916.4222
639.9747, 910.7168
640.4568, 908.0037
640.9390, 913.0866
641.4211, 918.8613
641.9032, 917.9552
642.3853, 909.8735
642.8674, 901.6544
643.3495, 895.5815
643.8317, 890.7180
644.3138, 886.3815
644.7959, 882.7406
645.2780, 879.3272
645.7601, 876.7377
646.2422, 873.8716
646.7244, 868.8519
647.2065, 860.9386
647.6886, 855.1130
648.1707, 852.8372
648.6528, 852.3275
649.1349, 848.8169
649.6171, 843.0969
650.0992, 840.6129
650.5813, 847.6710
651.0634, 857.0126
651.5455, 860.3627
652.0276, 858.1550
652.5098, 852.5249
652.9919, 838.9575
653.4740, 826.7119
653.9561, 822.4000
654.4382, 828.0263
654.9203, 833.2451
655.4025, 838.1568
655.8846, 841.1672
656.3667, 840.9974
656.8488, 836.9009
657.3309, 831.5294
657.8130, 824.3444
658.2952, 816.9945
658.7773, 811.9948
659.2594, 809.1400
659.7415, 806.5562
660.2236, 803.9421
660.7057, 801.0367
661.1879, 795.1437
661.6700, 788.4035
662.1521, 786.9097
662.6342, 800.5330
663.1163, 814.3677
663.5984, 818.0638
664.0806, 812.6458
664.5627, 808.3307
665.0448, 809.8811
665.5269, 810.9762
666.0090, 807.9818
666.4911, 799.7023
666.9733, 796.9858
667.4554, 801.9724
667.9375, 808.2795
668.4196, 810.6447
668.9017, 809.1818
669.3839, 807.3333
669.8660, 805.3283
670.3481, 803.3721
670.8302, 800.7025
671.3123, 798.3513
671.7944, 798.9373
672.2766, 805.6346
672.7587, 811.6119
673.2408, 811.3602
673.7229, 807.3256
674.2050, 804.3025
674.6871, 802.5030
675.1693, 803.1329
675.6514, 809.1698
676.1335, 818.6729
676.6156, 820.5544
677.0977, 811.0355
677.5798, 802.4803
678.0620, 800.4891
678.5441, 804.4819
679.0262, 810.1931
679.5083, 817.9124
679.9904, 823.3443
680.4725, 820.2327
680.9547, 813.3510
681.4368, 811.5145
681.9189, 816.1395
682.4010, 822.0563
682.8831, 828.1314
683.3652, 832.5722
683.8474, 833.2335
684.3295, 825.8219
684.8116, 820.6775
685.2937, 820.1495
685.7758, 822.3069
686.2579, 825.1433
686.7401, 829.5492
687.2222, 832.3677
687.7043, 833.5645
688.1864, 832.3145
688.6685, 823.1085
689.1506, 806.8408
689.6328, 798.1376
690.1149, 809.5460
690.5970, 828.3656
691.0791, 834.2963
691.5612, 829.7535
692.0433, 826.9001
692.5255, 837.8011
693.0076, 848.0615
693.4897, 845.7507
693.9718, 828.4003
694.4539, 819.2508
694.9360, 828.6567
695.4182, 840.3367
695.9003, 845.7700
696.3824, 843.3511
696.8645, 840.7395
697.3466, 837.4736
697.8287, 835.2275
698.3109, 837.5094
698.7930, 842.9788
699.2751, 843.5787
699.7572, 836.6357
700.2393, 829.2946
700.7214, 830.8602
701.2036, 836.7681
701.6857, 839.3374
702.1678, 831.3966
702.6499, 824.8369
703.1320, 825.8269
703.6141, 831.4216
704.0963, 834.0121
704.5784, 829.1469
705.0605, 827.5720
705.5426, 832.9789
706.0247, 843.3426
706.5068, 849.6942
706.9890, 851.9001
707.4711, 851.5479
707.9532, 847.8909
708.4353, 842.6077
708.9174, 840.8115
709.3995, 842.1160
709.8817, 842.8138
710.3638, 837.9598
710.8459, 832.9294
711.3280, 833.7277
711.8101, 841.8986
712.2922, 847.2806
712.7744, 843.7928
713.2565, 838.9490
713.7386, 838.0585
714.2207, 843.6541
714.7028, 846.3473
715.1849, 844.9175
715.6671, 842.7509
716.1492, 844.4583
716.6313, 849.5548
717.1134, 852.3871
717.5955, 851.8961
718.0776, 849.1228
718.5598, 842.4196
719.0419, 834.7443
719.5240, 831.8964
720.0061, 838.2375
720.4882, 847.0106
720.9703, 858.6557
721.4525, 870.2880
721.9346, 875.3265
722.4167, 865.0948
722.8988, 858.7289
723.3809, 862.2037
723.8630, 871.9433
724.3452, 872.4108
724.8273, 862.2677
725.3094, 852.4720
725.7915, 847.9525
726.2736, 847.5891
726.7557, 848.7369
727.2379, 851.4203
727.7200, 855.8333
728.2021, 865.7736
728.6842, 874.8714
729.1663, 876.4818
729.6484, 869.7988
730.1306, 865.2353
730.6127, 868.5226
731.0948, 872.4458
731.5769, 872.7855
732.0590, 868.2769
732.5411, 865.5418
733.0233, 864.9501
733.5054, 865.3016
733.9875, 865.7736
734.4696, 866.3008
734.9517, 865.8494
735.4338, 863.9136
735.9160, 863.3411
736.3981, 869.5651
736.8802, 878.2223
737.3623, 882.3851
737.8444, 877.0269
738.3266, 873.1588
738.8087, 875.6115
739.2908, 881.8494
739.7729, 888.4535
740.2551, 898.0455
740.7372, 902.6517
741.2193, 899.4620
741.7014, 892.4018
742.1835, 889.9666
742.6656, 892.2218
743.1478, 894.2436
743.6299, 893.3026
744.1120, 892.7205
744.5941, 900.2772
745.0762, 912.9818
745.5583, 921.7842
746.0405, 917.2541
746.5226, 912.1053
747.0047, 913.5954
747.4868, 920.8490
747.9689, 928.0435
748.4510, 936.4471
748.9332, 942.0885
749.4153, 943.4181
749.8974, 940.6672
750.3795, 935.7896
750.8616, 928.2830
751.3438, 922.6308
751.8259, 922.3828
752.3080, 925.9460
752.7901, 929.7896
753.2722, 933.8237
753.7543, 938.3268
754.2365, 945.3744
754.7186, 951.6701
755.2007, 953.5262
755.6828, 949.3813
756.1649, 948.0078
756.6470, 951.9585
757.1292, 958.1345
757.6113, 965.1077
758.0934, 973.2877
758.5755, 981.1238
759.0576, 989.5694
759.5397, 994.6900
760.0219, 988.2271
760.5040, 974.9003
760.9861, 972.1738
761.4682, 985.1149
761.9503, 995.7593
762.4324, 982.7255
762.9146, 962.4387
763.3967, 954.7466
763.8788, 974.7398
764.3609, 990.7114
764.8430, 993.6642
765.3251, 992.1676
765.8073, 995.7681
766.2894, 1005.406
766.7715, 1017.294
767.2536, 1032.803
767.7357, 1046.656
768.2178, 1046.413
768.7000, 1035.833
769.1821, 1031.009
769.6642, 1040.054
770.1463, 1051.908
770.6284, 1058.059
771.1105, 1060.017
771.5927, 1060.699
772.0748, 1059.343
772.5569, 1058.630
773.0390, 1056.534
773.5211, 1055.944
774.0032, 1066.766
774.4854, 1093.853
774.9675, 1113.597
775.4496, 1116.423
775.9317, 1109.604
776.4138, 1112.430
776.8959, 1122.900
777.3781, 1130.295
777.8602, 1118.377
778.3423, 1109.562
778.8244, 1128.932
779.3065, 1169.575
779.7886, 1201.602
780.2708, 1206.239
780.7529, 1211.043
781.2350, 1227.262
781.7171, 1252.982
782.1992, 1268.821
782.6813, 1271.811
783.1635, 1276.149
783.6456, 1289.290
784.1277, 1309.249
784.6098, 1330.956
785.0919, 1354.183
785.5740, 1377.437
786.0562, 1397.585
786.5383, 1419.244
787.0204, 1448.030
787.5025, 1484.360
787.9846, 1516.451
788.4667, 1532.328
788.9489, 1552.292
789.4310, 1586.460
789.9131, 1635.481
790.3952, 1680.992
790.8773, 1721.969
791.3594, 1762.509
791.8416, 1801.463
792.3237, 1842.450
792.8058, 1897.112
793.2879, 1966.258
793.7700, 2037.568
794.2521, 2095.306
794.7343, 2156.663
795.2164, 2236.662
795.6985, 2342.373
796.1806, 2447.266
796.6627, 2547.647
797.1448, 2648.239
797.6270, 2747.364
798.1091, 2841.908
798.5912, 2961.760
799.0733, 3110.293
799.5554, 3273.441
800.0375, 3434.809
800.5197, 3599.947
801.0018, 3780.352
801.4839, 3976.624
801.9660, 4188.738
802.4481, 4421.783
802.9302, 4667.505
803.4124, 4917.454
803.8945, 5160.394
804.3766, 5434.395
804.8587, 5754.444
805.3408, 6085.480
805.8229, 6389.566
806.3051, 6667.038
806.7872, 6976.733
807.2693, 7329.732
807.7514, 7684.260
808.2335, 7993.079
808.7156, 8281.245
809.1978, 8589.576
809.6799, 8934.642
810.1620, 9272.690
810.6441, 9608.941
811.1262, 9916.636
811.6083, 10164.66
812.0905, 10331.11
812.5726, 10498.13
813.0547, 10677.40
813.5368, 10834.77
814.0189, 10936.09
814.5010, 10980.98
814.9832, 10960.92
815.4653, 10868.48
815.9474, 10740.25
816.4295, 10622.38
816.9116, 10482.63
817.3937, 10276.80
817.8759, 9969.698
818.3580, 9647.470
818.8401, 9325.740
819.3222, 9000.661
819.8043, 8663.250
820.2864, 8308.754
820.7686, 7962.231
821.2507, 7628.797
821.7328, 7303.637
822.2149, 6987.649
822.6970, 6680.178
823.1791, 6369.839
823.6613, 6049.674
824.1434, 5751.647
824.6255, 5508.481
825.1076, 5296.669
825.5897, 5094.185
826.0718, 4897.913
826.5540, 4705.778
827.0361, 4507.534
827.5182, 4321.813
828.0003, 4170.048
828.4824, 4053.157
828.9645, 3948.673
829.4467, 3856.015
829.9288, 3767.005
830.4109, 3666.357
830.8930, 3565.441
831.3751, 3480.285
831.8572, 3416.112
832.3394, 3367.583
832.8215, 3346.306
833.3036, 3332.235
833.7857, 3300.409
834.2678, 3237.682
834.7499, 3197.977
835.2321, 3188.527
835.7142, 3193.989
836.1963, 3195.271
836.6784, 3195.133
837.1605, 3204.373
837.6426, 3225.962
838.1248, 3252.469
838.6069, 3279.507
839.0890, 3307.659
839.5711, 3336.941
840.0532, 3364.419
840.5353, 3398.941
841.0175, 3443.130
841.4996, 3492.099
841.9817, 3540.799
842.4638, 3589.412
842.9459, 3639.071
843.4280, 3690.580
843.9102, 3739.501
844.3923, 3782.173
844.8744, 3818.730
845.3565, 3849.560
845.8386, 3876.137
846.3207, 3892.680
846.8029, 3893.597
847.2850, 3885.237
847.7671, 3873.978
848.2492, 3863.265
848.7313, 3840.906
849.2134, 3806.579
849.6956, 3761.751
850.1777, 3700.733
850.6598, 3629.679
851.1419, 3575.147
851.6240, 3542.530
852.1061, 3500.666
852.5883, 3419.433
853.0704, 3321.352
853.5525, 3224.430
854.0346, 3130.992
854.5167, 3044.463
854.9988, 2972.286
855.4810, 2897.421
855.9631, 2801.471
856.4452, 2683.457
856.9273, 2591.007
857.4094, 2527.206
857.8915, 2466.075
858.3737, 2382.040
858.8558, 2289.749
859.3379, 2209.178
859.8200, 2144.195
860.3021, 2077.163
860.7842, 1994.583
861.2664, 1915.995
861.7485, 1853.661
862.2306, 1808.466
862.7127, 1766.740
863.1948, 1728.997
863.6769, 1690.995
864.1591, 1646.946
864.6412, 1600.708
865.1233, 1561.018
865.6054, 1527.410
866.0875, 1494.498
866.5696, 1461.058
867.0518, 1425.034
867.5339, 1381.156
868.0160, 1328.227
868.4981, 1291.978
868.9802, 1278.434
869.4623, 1268.737
869.9445, 1255.098
870.4266, 1238.155
870.9087, 1220.485
871.3908, 1201.943
871.8729, 1183.435
872.3550, 1163.024
872.8372, 1144.594
873.3193, 1134.299
873.8014, 1130.008
874.2835, 1120.130
874.7656, 1092.430
875.2477, 1070.675
875.7299, 1063.423
876.2120, 1066.098
876.6941, 1058.508
877.1762, 1040.713
877.6583, 1028.172
878.1404, 1031.974
878.6226, 1040.150
879.1047, 1035.697
879.5869, 1022.808
880.0690, 1012.179
880.5511, 1006.000
881.0332, 1004.938
881.5153, 1014.373
881.9974, 1027.371
882.4796, 1028.409
882.9617, 1014.668
883.4438, 1005.107
883.9259, 1004.944
884.4080, 1009.547
884.8901, 1011.894
885.3723, 1013.266
885.8544, 1017.030
886.3365, 1027.655
886.8186, 1035.394
887.3007, 1031.994
887.7828, 1024.746
888.2650, 1024.164
888.7471, 1033.547
889.2292, 1040.887
889.7113, 1044.681
890.1934, 1047.429
890.6755, 1052.392
891.1577, 1059.036
891.6398, 1066.327
892.1219, 1074.435
892.6040, 1080.902
893.0861, 1082.904
893.5682, 1083.017
894.0504, 1082.930
894.5325, 1079.745
895.0146, 1085.815
895.4967, 1105.599
895.9788, 1126.364
896.4609, 1135.200
896.9431, 1134.655
897.4252, 1142.180
897.9073, 1158.790
898.3894, 1172.631
898.8715, 1171.560
899.3536, 1166.356
899.8358, 1166.250
900.3179, 1172.539
900.8000, 1178.952
901.2821, 1187.123
901.7642, 1191.848
902.2463, 1189.922
902.7285, 1182.283
903.2106, 1175.254
903.6927, 1168.877
904.1748, 1163.465
904.6569, 1161.101
905.1390, 1158.309
905.6212, 1153.543
906.1033, 1145.789
906.5854, 1130.741
907.0675, 1094.574
907.5496, 1066.531
908.0317, 1055.858
908.5139, 1057.075
908.9960, 1053.271
909.4781, 1044.430
909.9602, 1037.610
910.4423, 1037.593
910.9244, 1037.141
911.4066, 1022.330
911.8887, 1001.734
912.3708, 990.9870
912.8529, 1007.220
913.3350, 1018.811
913.8171, 1019.004
914.2993, 1012.734
914.7814, 1005.056
915.2635, 995.6127
915.7456, 989.2693
916.2277, 986.5284
916.7098, 987.8297
917.1920, 996.0654
917.6741, 1007.731
918.1562, 1017.097
918.6383, 1021.418
919.1204, 1028.883
919.6025, 1048.302
920.0847, 1066.408
920.5668, 1071.536
921.0489, 1059.609
921.5310, 1067.216
922.0131, 1096.457
922.4952, 1127.239
922.9774, 1141.689
923.4595, 1148.071
923.9416, 1158.000
924.4237, 1172.054
924.9058, 1187.430
925.3879, 1202.713
925.8701, 1219.590
926.3522, 1238.566
926.8343, 1259.767
927.3164, 1284.984
927.7985, 1315.225
928.2806, 1341.153
928.7628, 1355.813
929.2449, 1365.882
929.7270, 1383.139
930.2091, 1404.586
930.6912, 1422.596
931.1733, 1428.898
931.6555, 1437.183
932.1376, 1457.949
932.6197, 1480.355
933.1018, 1483.698
933.5839, 1464.875
934.0660, 1451.714
934.5482, 1451.326
935.0303, 1451.267
935.5124, 1429.637
935.9945, 1398.464
936.4766, 1380.990
936.9587, 1390.094
937.4409, 1391.408
937.9230, 1365.373
938.4051, 1333.570
938.8872, 1314.446
939.3693, 1312.474
939.8514, 1292.066
940.3336, 1250.567
940.8157, 1211.296
941.2978, 1198.365
941.7799, 1197.307
942.2620, 1187.502
942.7441, 1167.956
943.2263, 1146.190
943.7084, 1121.985
944.1905, 1099.886
944.6726, 1081.080
945.1547, 1065.758
945.6368, 1056.744
946.1190, 1054.449
946.6011, 1050.146
947.0832, 1039.125
947.5653, 1024.859
948.0474, 1010.310
948.5295, 996.1507
949.0117, 983.9441
949.4938, 977.2481
949.9759, 968.5061
950.4580, 953.5962
950.9401, 937.9272
951.4222, 931.4385
951.9044, 934.3246
952.3865, 932.6305
952.8686, 923.7145
953.3507, 911.8539
953.8328, 899.1074
954.3149, 887.3177
954.7971, 879.7325
955.2792, 879.2762
955.7613, 874.3826
956.2434, 858.4919
956.7255, 843.5824
957.2076, 836.7557
957.6898, 837.8712
958.1719, 843.0970
958.6540, 852.4007
959.1361, 860.7611
959.6182, 865.3121
960.1003, 866.9756
960.5825, 866.5569
961.0646, 864.0603
961.5467, 859.1155
962.0288, 849.4384
962.5109, 840.6896
962.9930, 834.1669
963.4752, 829.5831
963.9573, 827.6948
964.4394, 827.7832
964.9215, 824.9215
965.4036, 815.7771
965.8857, 806.6177
966.3679, 800.9426
966.8500, 798.9142
967.3321, 801.1257
967.8142, 814.2516
968.2963, 818.6788
968.7784, 811.4788
969.2606, 801.2499
969.7427, 795.8452
970.2248, 794.7012
970.7069, 797.1797
971.1890, 803.1443
971.6711, 807.1129
972.1533, 802.9752
972.6354, 797.6757
973.1175, 796.0507
973.5996, 798.2165
974.0817, 799.8367
974.5638, 800.5601
975.0460, 802.2363
975.5281, 807.2874
976.0102, 812.2606
976.4923, 807.5980
976.9744, 796.5090
977.4565, 788.4218
977.9387, 791.0333
978.4208, 793.1490
978.9029, 788.6786
979.3850, 782.5659
979.8671, 781.9926
980.3492, 788.1898
980.8314, 793.3851
981.3135, 797.2675
981.7956, 797.6494
982.2777, 788.5922
982.7598, 776.1386
983.2419, 769.3522
983.7241, 770.1661
984.2062, 771.5021
984.6883, 771.4485
985.1704, 771.2872
985.6525, 771.5555
986.1346, 772.2230
986.6168, 772.8723
987.0989, 773.5186
987.5810, 774.6263
988.0631, 777.0920
988.5452, 779.6200
989.0273, 781.0888
989.5095, 781.6337
989.9916, 781.5831
990.4737, 781.3853
990.9558, 779.8115
991.4379, 776.1500
991.9200, 771.8890
992.4022, 768.8574
992.8843, 767.2004
993.3664, 767.4122
993.8485, 769.5736
994.3306, 773.6795
994.8127, 783.4150
995.2949, 792.5984
995.7770, 795.2502
996.2591, 790.4669
996.7412, 784.1437
997.2233, 775.3550
997.7054, 768.6096
998.1876, 768.1462
998.6697, 771.0696
999.1518, 770.2467
999.6339, 766.8324
1000.116, 765.4234
1000.598, 768.4344
1001.080, 773.4789
1001.562, 782.7793
1002.044, 792.2078
1002.527, 793.4513
1003.009, 785.8798
1003.491, 779.2717
1003.973, 775.7991
1004.455, 772.3949
1004.937, 762.9012
1005.419, 752.9013
1005.901, 750.4661
1006.384, 759.2780
1006.866, 766.0121
1007.348, 769.6365
1007.830, 770.0978
1008.312, 766.1225
1008.794, 758.7994
1009.276, 753.5491
1009.758, 750.5939
1010.240, 751.4592
1010.723, 762.3618
1011.205, 772.1122
1011.687, 772.4557
1012.169, 766.2154
1012.651, 761.3539
1013.133, 757.7502
1013.615, 756.9389
1014.097, 760.1287
1014.580, 763.5607
1015.062, 760.8693
1015.544, 754.9616
1016.026, 751.1107
1016.508, 750.2800
1016.990, 751.7839
1017.472, 759.8464
1017.954, 765.8500
1018.436, 764.3416
1018.919, 755.7098
1019.401, 746.7098
1019.883, 737.3288
1020.365, 732.6295
1020.847, 739.6730
1021.329, 749.3487
1021.811, 751.6530
1022.293, 749.5026
1022.776, 750.2495
1023.258, 758.3994
1023.740, 764.5197
1024.222, 767.9677
1024.704, 768.6252
1025.186, 764.6674
1025.668, 757.7188
1026.150, 753.7549
1026.632, 753.7609
1027.115, 754.2654
1027.597, 753.1924
1028.079, 751.8842
1028.561, 751.2201
1029.043, 751.1869
1029.525, 751.6301
1030.007, 752.7354
1030.489, 752.5921
1030.972, 748.9203
1031.454, 745.0989
1031.936, 746.3077
1032.418, 750.9218
1032.900, 755.4204
1033.382, 759.5842
1033.864, 762.4094
1034.346, 764.3728
1034.828, 764.3777
1035.311, 759.4371
1035.793, 750.7803
1036.275, 747.9130
1036.757, 751.6040
1037.239, 754.7155
1037.721, 750.8561
1038.203, 745.7468
1038.685, 742.3936
1039.167, 741.2268
1039.650, 745.4793
1040.132, 757.7352
1040.614, 763.2247
1041.096, 754.1336
1041.578, 740.4502
1042.060, 737.2843
1042.542, 741.5204
1043.024, 748.0331
1043.507, 760.2905
1043.989, 764.1310
1044.471, 750.1855
1044.953, 735.2197
1045.435, 733.6866
1045.917, 744.2771
1046.399, 749.3771
1046.881, 748.8564
1047.364, 747.4609
1047.846, 750.3342
1048.328, 751.6431
1048.810, 744.2259
1049.292, 731.3742
1049.774, 727.7996
1050.256, 736.6862
1050.738, 743.9630
1051.220, 746.7835
1051.703, 747.0565
1052.185, 746.5803
1052.667, 745.7190
1053.149, 744.8382
1053.631, 743.6891
1054.113, 744.1301
1054.595, 748.7173
1055.077, 752.6572
1055.559, 753.5316
1056.042, 751.6229
1056.524, 748.1229
1057.006, 743.3201
1057.488, 739.5721
1057.970, 738.2516
1058.452, 738.3029
1058.934, 739.1801
1059.416, 740.9821
1059.899, 743.9557
1060.381, 748.6872
1060.863, 753.2367
1061.345, 758.2811
1061.827, 759.5613
1062.309, 747.0972
1062.791, 730.8218
1063.273, 727.6406
1063.755, 738.5751
1064.238, 746.4879
1064.720, 744.2241
1065.202, 741.6038
1065.684, 742.2589
1066.166, 743.8965
1066.648, 737.4806
1067.130, 725.5699
1067.612, 720.1277
1068.094, 727.5635
1068.577, 736.0793
1069.059, 739.7146
1069.541, 740.1706
1070.023, 737.5469
1070.505, 729.1880
1070.987, 738.0419
1071.469, 766.6708
1071.951, 788.6141
1072.434, 778.6665
1072.916, 757.2110
1073.398, 746.1432
1073.880, 744.1447
1074.362, 745.1452
1074.844, 749.7537
1075.326, 754.2928
1075.808, 758.9926
1076.291, 762.3391
1076.773, 760.9420
1077.255, 756.6019
1077.737, 754.2279
1078.219, 754.5238
1078.701, 756.9188
1079.183, 764.0502
1079.665, 770.2056
1080.147, 772.3306
1080.630, 771.1000
1081.112, 770.0115
1081.594, 769.1174
1082.076, 770.1611
1082.558, 774.4739
1083.040, 779.6692
1083.522, 785.3364
1084.004, 789.8200
1084.486, 790.4009
1084.969, 784.6136
1085.451, 781.5222
1085.933, 781.5727
1086.415, 782.7310
1086.897, 783.9641
1087.379, 785.0142
1087.861, 785.6292
1088.343, 785.6947
1088.826, 784.7802
1089.308, 782.9277
1089.790, 779.6322
1090.272, 774.3562
1090.754, 768.2324
1091.236, 761.6538
1091.718, 755.5461
1092.200, 755.7219
1092.682, 763.6161
1093.165, 769.4359
1093.647, 763.0909
1094.129, 756.3325
1094.611, 757.0485
1095.093, 764.1687
1095.575, 771.4858
1096.057, 779.2288
1096.539, 780.6014
1097.022, 769.7152
1097.504, 758.1627
1097.986, 760.4969
1098.468, 768.5222
1098.950, 770.4697
1099.432, 760.5375
1099.914, 755.6939
1100.396, 757.0297
1100.879, 760.1531
1101.361, 763.5663
1101.843, 765.8446
1102.325, 763.7446
1102.807, 757.9667
1103.289, 751.3024
1103.771, 740.2930
1104.253, 735.0607
1104.735, 739.3043
1105.218, 746.9487
1105.700, 750.1851
1106.182, 749.4304
1106.664, 745.8315
1107.146, 739.4321
1107.628, 733.2634
1108.110, 726.9711
1108.592, 723.6191
1109.074, 725.5226
1109.557, 731.6804
1110.039, 740.0640
1110.521, 750.8278
1111.003, 755.8215
1111.485, 751.2458
1111.967, 744.4370
1112.449, 740.2510
1112.931, 738.8908
1113.414, 741.7522
1113.896, 750.6677
1114.378, 753.6702
1114.860, 749.7548
1115.342, 744.2261
1115.824, 738.7745
1116.306, 734.6116
1116.788, 733.1691
1117.271, 734.5820
1117.753, 739.1757
1118.235, 755.1182
1118.717, 761.1606
1119.199, 752.3618
1119.681, 740.6512
1120.163, 738.1000
1120.645, 742.0918
1121.127, 744.3355
1121.609, 744.9567
1122.092, 748.8437
1122.574, 766.5038
1123.056, 777.5862
1123.538, 773.1674
1124.020, 760.5550
1124.502, 753.0191
1124.984, 750.3751
1125.466, 751.9900
1125.949, 758.2620
1126.431, 764.1221
1126.913, 766.3008
1127.395, 766.4721
1127.877, 765.3948
1128.359, 763.3174
1128.841, 761.2217
1129.323, 759.0392
1129.806, 758.3170
1130.288, 760.6816
1130.770, 762.4409
1131.252, 759.7341
1131.734, 754.1910
1132.216, 747.2630
1132.698, 737.2703
1133.180, 733.6309
1133.662, 737.8206
1134.145, 742.2518
1134.627, 742.5536
1135.109, 739.8260
1135.591, 733.9603
1136.073, 726.5599
1136.555, 721.8428
1137.037, 721.1110
1137.519, 723.4991
1138.001, 729.7617
1138.484, 737.3558
1138.966, 745.8768
1139.448, 753.0461
1139.930, 750.0266
1140.412, 737.9965
1140.894, 731.3646
1141.376, 743.4044
1141.858, 751.9571
1142.341, 749.8281
1142.823, 742.7090
1143.305, 741.8433
1143.787, 745.4121
1144.269, 743.9045
1144.751, 735.0096
1145.233, 729.2763
1145.715, 737.8854
1146.198, 745.9939
1146.680, 744.5457
1147.162, 735.9984
1147.644, 732.1948
1148.126, 732.7736
1148.608, 733.0007
1149.090, 731.2501
1149.572, 729.0227
1150.054, 726.0988
1150.536, 724.2270
1151.019, 725.5090
1151.501, 730.2409
1151.983, 733.9026
1152.465, 736.5673
1152.947, 736.8665
1153.429, 732.4727
1153.911, 727.1782
1154.393, 724.6116
1154.876, 723.6843
1155.358, 722.3086
1155.840, 718.9346
1156.322, 720.1398
1156.804, 727.1379
1157.286, 732.7061
1157.768, 728.9449
1158.250, 721.8662
1158.733, 719.9464
1159.215, 721.5199
1159.697, 718.8716
1160.179, 705.2892
1160.661, 700.5301
1161.143, 708.9515
1161.625, 720.7682
1162.107, 726.2606
1162.589, 726.7714
1163.072, 721.9445
1163.554, 712.5479
1164.036, 709.4550
1164.518, 720.9243
1165.000, 729.5460
1165.482, 731.1002
1165.964, 727.9868
1166.446, 722.8522
1166.928, 716.8281
1167.411, 712.4069
1167.893, 710.1439
1168.375, 708.7621
1168.857, 707.5674
1169.339, 707.7277
1169.821, 710.6927
1170.303, 714.6249
1170.785, 713.8695
1171.268, 709.4430
1171.750, 704.7603
1172.232, 701.4830
1172.714, 696.6115
1173.196, 682.4012
1173.678, 673.1639
1174.160, 681.4855
1174.642, 703.0789
1175.125, 706.3107
1175.607, 694.5620
1176.089, 686.3835
1176.571, 697.1492
1177.053, 704.5638
1177.535, 692.6517
1178.017, 677.4949
1178.499, 674.8674
1178.981, 684.5665
1179.464, 690.5334
1179.946, 692.6610
1180.428, 692.7347
1180.910, 690.2786
1181.392, 687.8349
1181.874, 686.9164
1182.356, 686.7734
1182.838, 685.8769
1183.320, 684.1232
1183.803, 685.8862
1184.285, 691.6832
1184.767, 694.6125
1185.249, 686.0253
1185.731, 676.1221
1186.213, 672.0914
1186.695, 672.4122
1187.177, 671.1919
1187.660, 667.8647
1188.142, 674.2463
1188.624, 693.8328
1189.106, 710.0095
1189.588, 703.7253
1190.070, 691.5311
1190.552, 687.0967
1191.034, 689.7647
1191.516, 689.3550
1191.999, 685.3640
1192.481, 683.5241
1192.963, 685.9904
1193.445, 688.2711
1193.927, 684.5162
1194.409, 679.2307
1194.891, 676.8307
1195.373, 677.6647
1195.855, 680.3250
1196.338, 685.0342
1196.820, 690.1587
1197.302, 696.5471
1197.784, 699.9038
1198.266, 691.3741
1198.748, 679.1698
1199.230, 673.8015
1199.712, 677.0054
1200.195, 684.2693
1200.677, 697.0924
1201.159, 703.0900
1201.641, 691.1558
1202.123, 674.6609
1202.605, 666.9967
1203.087, 666.0496
1203.569, 668.7500
1204.052, 676.7111
1204.534, 681.7405
1205.016, 683.6443
1205.498, 684.0034
1205.980, 684.0174
1206.462, 683.0129
1206.944, 678.2214
1207.426, 672.1268
1207.908, 671.2021
1208.391, 679.1680
1208.873, 681.7682
1209.355, 677.2387
1209.837, 673.8077
1210.319, 682.5573
1210.801, 693.0677
1211.283, 692.1731
1211.765, 682.5416
1212.247, 674.4044
1212.730, 667.9502
1213.212, 665.5214
1213.694, 667.9104
1214.176, 671.8195
1214.658, 674.0962
1215.140, 676.1454
1215.622, 679.5416
1216.104, 684.2779
1216.587, 690.2277
1217.069, 699.7474
1217.551, 701.4695
1218.033, 692.2632
1218.515, 680.4673
1218.997, 673.8837
1219.479, 670.8436
1219.961, 668.9738
1220.443, 668.5215
1220.926, 674.8395
1221.408, 692.2299
1221.890, 697.7314
1222.372, 683.0274
1222.854, 665.2123
1223.336, 666.5782
1223.818, 675.1423
1224.300, 676.8658
1224.782, 669.8012
1225.265, 665.2235
1225.747, 663.0939
1226.229, 663.9701
1226.711, 668.2769
1227.193, 674.9576
1227.675, 688.4862
1228.157, 700.2817
1228.639, 696.4103
1229.122, 673.2065
1229.604, 667.0798
1230.086, 681.1897
1230.568, 690.3444
1231.050, 681.6004
1231.532, 670.6182
1232.014, 678.1186
1232.496, 692.4187
1232.979, 698.1777
1233.461, 692.9166
1233.943, 693.1905
1234.425, 699.7980
1234.907, 703.6506
1235.389, 698.3248
1235.871, 691.8929
1236.353, 693.9842
1236.835, 698.8651
1237.318, 698.6576
1237.800, 692.4806
1238.282, 685.7468
1238.764, 678.3193
1239.246, 674.2369
1239.728, 677.3350
1240.210, 682.7972
1240.692, 687.2835
1241.175, 691.3296
1241.657, 696.4938
1242.139, 704.2241
1242.621, 701.9517
1243.103, 689.5442
1243.585, 679.2650
1244.067, 680.1744
1244.549, 683.9231
1245.031, 686.4611
1245.514, 687.4447
1245.996, 685.5412
1246.478, 679.9611
1246.960, 683.4137
1247.442, 695.5507
1247.924, 705.0497
1248.406, 702.6747
1248.888, 697.6505
1249.370, 693.4659
1249.853, 690.6538
1250.335, 690.4167
1250.817, 692.6228
1251.299, 692.5909
1251.781, 690.2997
1252.263, 688.4935
1252.745, 690.3873
1253.227, 683.3488
1253.710, 693.1185
1254.192, 698.6224
1254.674, 700.0900
1255.156, 685.4315
1255.638, 691.5964
1256.120, 689.4163
1256.602, 686.8939
1257.084, 695.9896
1257.567, 683.6767
1258.049, 692.5882
1258.531, 693.0272
1259.013, 697.3439
1259.495, 693.2640
1259.977, 691.7775
1260.459, 698.6903
1260.941, 700.9523
1261.423, 695.9058
1261.906, 700.4690
1262.388, 687.8627
1262.870, 690.3229
1263.352, 699.2835
1263.834, 694.6591
1264.316, 698.2064
1264.798, 700.7491
1265.280, 700.0735
1265.762, 692.9910
1266.245, 687.9899
1266.727, 686.3239
1267.209, 687.8016
1267.691, 694.3861
1268.173, 702.8706
1268.655, 708.5164
1269.137, 710.8810
1269.619, 709.3344
1270.102, 701.1151
1270.584, 697.9019
1271.066, 703.6353
1271.548, 709.9799
1272.030, 704.0314
1272.512, 694.2697
1272.994, 691.1155
1273.476, 695.1038
1273.958, 697.2505
1274.441, 696.5031
1274.923, 697.9094
1275.405, 702.8961
1275.887, 708.7945
1276.369, 713.7485
1276.851, 717.5560
1277.333, 720.6451
1277.815, 722.4572
1278.297, 718.8683
1278.780, 709.5661
1279.262, 701.7784
1279.744, 696.9838
1280.226, 695.4962
1280.708, 700.6431
1281.190, 706.3443
1281.672, 707.2054
1282.154, 705.1722
1282.637, 708.7869
1283.119, 717.0587
1283.601, 719.4963
1284.083, 712.9731
1284.565, 707.5463
1285.047, 710.7994
1285.529, 715.1517
1286.011, 716.9705
1286.494, 717.0101
1286.976, 717.4723
1287.458, 717.9359
1287.940, 716.8797
1288.422, 713.8969
1288.904, 710.1777
1289.386, 703.9193
1289.868, 700.1962
1290.350, 701.1082
1290.833, 704.9623
1291.315, 710.1523
1291.797, 715.1947
1292.279, 716.3615
1292.761, 712.2668
1293.243, 711.2308
1293.725, 716.2529
1294.207, 718.6560
1294.689, 715.2258
1295.172, 708.7920
1295.654, 700.1025
1296.136, 692.8304
1296.618, 692.4753
1297.100, 700.6093
1297.582, 710.1049
1298.064, 722.3328
1298.546, 726.5069
1299.029, 717.0120
1299.511, 705.6104
1299.993, 702.0654
1300.475, 704.6267
1300.957, 716.4022
1301.439, 734.1055
1301.921, 734.9074
1302.403, 719.5045
1302.885, 709.1469
1303.368, 710.5979
1303.850, 714.0051
1304.332, 712.7618
1304.814, 710.9117
1305.296, 710.3066
1305.778, 711.3929
1306.260, 718.8250
1306.742, 729.6813
1307.224, 730.4926
1307.707, 715.2921
1308.189, 705.2889
##END=



