##NAMES=Kirschsteinite
##RRUFFID=R070266
##IDEAL CHEMISTRY=CaFe^2+^SiO_4_
##LOCALITY=Dolores mine, Pastrana, Mazarrón, Murcia, Spain
##OWNER=RRUFF
##SOURCE=Michael Scott
##DESCRIPTION=Aggregate of vitreous brown rhombic prismatic crystals with conchoidal fracture
##STATUS=The identification of this mineral has been confirmed by X-ray diffraction and chemical analysis
##URL=rruff.info/R070266
##MEASURED CHEMISTRY=(Ca_0.95_Mn_0.02_Mg_0.02_Na_0.01_)_Σ=1_(Fe^2+^_0.83_Mg_0.16_Fe^3+^_0.01_)_Σ=1_Si_1.00_O_4_; Fe^2+^ and Fe^3+^ by charge balance
139.3398, 1034.833
139.8219, 1007.304
140.3041, 1007.175
140.7862, 1051.385
141.2683, 1099.991
141.7504, 1134.851
142.2325, 1158.093
142.7146, 1181.431
143.1968, 1213.219
143.6789, 1253.945
144.1610, 1301.781
144.6431, 1359.267
145.1252, 1420.544
145.6073, 1482.486
146.0895, 1545.057
146.5716, 1610.174
147.0537, 1680.896
147.5358, 1756.896
148.0179, 1825.065
148.5000, 1884.799
148.9822, 1937.364
149.4643, 1983.461
149.9464, 2023.453
150.4285, 2057.886
150.9106, 2087.894
151.3927, 2112.409
151.8749, 2128.819
152.3570, 2132.323
152.8391, 2130.405
153.3212, 2128.161
153.8033, 2125.822
154.2854, 2126.472
154.7676, 2134.955
155.2497, 2149.169
155.7318, 2159.900
156.2139, 2162.760
156.6960, 2162.898
157.1781, 2165.830
157.6603, 2171.876
158.1424, 2180.150
158.6245, 2190.198
159.1066, 2201.984
159.5887, 2215.936
160.0708, 2240.091
160.5530, 2263.519
161.0351, 2269.607
161.5172, 2256.104
161.9993, 2232.131
162.4814, 2198.320
162.9635, 2158.904
163.4457, 2120.596
163.9278, 2089.213
164.4099, 2059.588
164.8920, 2020.868
165.3741, 1969.323
165.8562, 1919.432
166.3384, 1883.683
166.8205, 1855.398
167.3026, 1822.948
167.7847, 1775.341
168.2668, 1722.443
168.7489, 1687.618
169.2311, 1677.948
169.7132, 1670.318
170.1953, 1654.063
170.6774, 1631.465
171.1595, 1604.938
171.6416, 1572.063
172.1238, 1537.418
172.6059, 1512.634
173.0880, 1499.610
173.5701, 1493.464
174.0522, 1495.767
174.5343, 1501.868
175.0165, 1505.019
175.4986, 1501.510
175.9807, 1493.224
176.4628, 1485.342
176.9449, 1478.688
177.4270, 1470.794
177.9092, 1456.401
178.3913, 1441.341
178.8734, 1434.530
179.3555, 1442.510
179.8376, 1459.444
180.3197, 1467.817
180.8019, 1463.377
181.2840, 1457.370
181.7661, 1450.463
182.2482, 1445.166
182.7303, 1444.628
183.2124, 1450.426
183.6946, 1451.396
184.1767, 1468.076
184.6588, 1479.346
185.1409, 1485.496
185.6230, 1471.194
186.1051, 1483.302
186.5873, 1484.827
187.0694, 1485.916
187.5515, 1501.741
188.0336, 1490.414
188.5157, 1506.005
188.9978, 1510.851
189.4800, 1512.826
189.9621, 1520.452
190.4442, 1530.066
190.9263, 1541.015
191.4084, 1551.094
191.8905, 1553.989
192.3727, 1542.959
192.8548, 1536.824
193.3369, 1539.662
193.8190, 1547.553
194.3011, 1556.823
194.7832, 1566.018
195.2654, 1576.117
195.7475, 1590.430
196.2296, 1616.720
196.7117, 1632.069
197.1938, 1624.769
197.6759, 1612.002
198.1581, 1609.892
198.6402, 1623.667
199.1223, 1644.503
199.6044, 1654.971
200.0865, 1645.891
200.5686, 1644.965
201.0508, 1659.113
201.5329, 1677.965
202.0150, 1695.374
202.4971, 1709.163
202.9792, 1718.028
203.4613, 1718.732
203.9435, 1705.747
204.4256, 1697.004
204.9077, 1697.831
205.3898, 1699.399
205.8719, 1695.957
206.3540, 1686.289
206.8362, 1672.759
207.3183, 1657.091
207.8004, 1635.371
208.2825, 1622.350
208.7646, 1628.931
209.2467, 1634.820
209.7289, 1624.548
210.2110, 1598.575
210.6931, 1571.576
211.1752, 1562.109
211.6573, 1576.812
212.1395, 1584.910
212.6216, 1582.436
213.1037, 1577.267
213.5858, 1572.143
214.0679, 1567.701
214.5500, 1563.768
215.0322, 1559.974
215.5143, 1556.032
215.9964, 1554.313
216.4785, 1555.446
216.9606, 1558.167
217.4427, 1561.873
217.9249, 1566.770
218.4070, 1573.972
218.8891, 1585.479
219.3712, 1601.606
219.8533, 1610.438
220.3354, 1603.577
220.8176, 1597.206
221.2997, 1596.105
221.7818, 1598.856
222.2639, 1601.604
222.7460, 1601.274
223.2281, 1598.500
223.7103, 1600.183
224.1924, 1611.885
224.6745, 1622.254
225.1566, 1629.550
225.6387, 1633.949
226.1208, 1635.126
226.6030, 1632.302
227.0851, 1627.441
227.5672, 1629.055
228.0493, 1643.056
228.5314, 1655.985
229.0135, 1663.167
229.4957, 1668.936
229.9778, 1679.711
230.4599, 1698.646
230.9420, 1720.531
231.4241, 1731.489
231.9062, 1720.951
232.3884, 1717.609
232.8705, 1728.701
233.3526, 1745.431
233.8347, 1760.120
234.3168, 1770.236
234.7989, 1778.995
235.2811, 1792.752
235.7632, 1816.066
236.2453, 1833.420
236.7274, 1836.853
237.2095, 1839.387
237.6916, 1850.401
238.1738, 1871.344
238.6559, 1896.357
239.1380, 1918.809
239.6201, 1938.529
240.1022, 1956.347
240.5843, 1974.764
241.0665, 1989.257
241.5486, 1993.780
242.0307, 1990.477
242.5128, 1989.340
242.9949, 2001.620
243.4770, 2028.838
243.9592, 2051.507
244.4413, 2066.332
244.9234, 2079.529
245.4055, 2093.841
245.8876, 2108.514
246.3697, 2120.901
246.8519, 2127.955
247.3340, 2130.707
247.8161, 2138.578
248.2982, 2158.156
248.7803, 2173.986
249.2624, 2178.233
249.7446, 2176.021
250.2267, 2176.517
250.7088, 2186.564
251.1909, 2200.403
251.6730, 2200.315
252.1551, 2179.610
252.6373, 2158.154
253.1194, 2142.729
253.6015, 2129.859
254.0836, 2116.179
254.5657, 2100.654
255.0478, 2083.252
255.5300, 2063.212
256.0121, 2039.712
256.4942, 2016.891
256.9763, 1995.073
257.4584, 1974.952
257.9405, 1957.115
258.4226, 1941.747
258.9048, 1928.119
259.3869, 1917.411
259.8690, 1909.973
260.3511, 1896.075
260.8332, 1866.362
261.3153, 1836.059
261.7975, 1816.589
262.2796, 1807.959
262.7617, 1801.595
263.2438, 1791.839
263.7259, 1779.169
264.2080, 1766.093
264.6902, 1751.378
265.1723, 1738.748
265.6544, 1732.217
266.1365, 1730.057
266.6186, 1726.646
267.1007, 1716.001
267.5829, 1702.904
268.0650, 1698.420
268.5471, 1704.751
269.0292, 1713.319
269.5113, 1720.688
269.9934, 1726.077
270.4756, 1727.116
270.9577, 1718.132
271.4398, 1708.693
271.9219, 1710.965
272.4040, 1725.284
272.8861, 1740.745
273.3683, 1754.723
273.8504, 1764.830
274.3325, 1766.151
274.8146, 1751.620
275.2967, 1740.751
275.7788, 1749.473
276.2610, 1773.719
276.7431, 1797.281
277.2252, 1815.137
277.7073, 1828.800
278.1894, 1841.266
278.6715, 1853.219
279.1537, 1861.738
279.6358, 1857.882
280.1179, 1851.648
280.6000, 1862.583
281.0821, 1896.561
281.5642, 1938.350
282.0464, 1971.476
282.5285, 1995.413
283.0106, 2015.213
283.4927, 2026.524
283.9748, 2036.982
284.4569, 2053.813
284.9391, 2077.425
285.4212, 2103.973
285.9033, 2131.152
286.3854, 2158.705
286.8675, 2182.791
287.3496, 2199.538
287.8318, 2216.926
288.3139, 2240.990
288.7960, 2269.125
289.2781, 2294.814
289.7602, 2315.104
290.2423, 2329.216
290.7245, 2332.892
291.2066, 2318.468
291.6887, 2303.911
292.1708, 2288.741
292.6529, 2275.990
293.1350, 2272.898
293.6172, 2281.636
294.0993, 2291.385
294.5814, 2282.745
295.0635, 2245.738
295.5456, 2207.385
296.0277, 2163.611
296.5099, 2121.725
296.9920, 2088.835
297.4741, 2064.478
297.9562, 2041.635
298.4383, 2011.733
298.9204, 1972.117
299.4026, 1943.990
299.8847, 1937.781
300.3668, 1932.273
300.8489, 1923.484
301.3310, 1909.561
301.8131, 1887.010
302.2953, 1851.527
302.7774, 1807.691
303.2595, 1779.577
303.7416, 1777.486
304.2237, 1776.988
304.7058, 1772.283
305.1880, 1766.656
305.6701, 1764.244
306.1522, 1766.668
306.6343, 1770.926
307.1164, 1772.974
307.5985, 1773.617
308.0807, 1768.953
308.5628, 1751.521
309.0449, 1733.191
309.5270, 1722.117
310.0091, 1718.557
310.4912, 1715.580
310.9734, 1705.633
311.4555, 1689.692
311.9376, 1679.108
312.4197, 1677.159
312.9018, 1677.311
313.3839, 1676.674
313.8661, 1674.844
314.3482, 1670.498
314.8303, 1658.405
315.3124, 1645.455
315.7945, 1646.880
316.2766, 1665.695
316.7588, 1681.073
317.2409, 1678.516
317.7230, 1666.260
318.2051, 1658.132
318.6872, 1657.671
319.1693, 1658.186
319.6515, 1654.409
320.1336, 1647.260
320.6157, 1640.635
321.0978, 1635.596
321.5799, 1632.114
322.0620, 1630.914
322.5442, 1632.677
323.0263, 1632.406
323.5084, 1623.938
323.9905, 1614.654
324.4726, 1616.707
324.9547, 1632.063
325.4369, 1648.085
325.9190, 1653.271
326.4011, 1646.397
326.8832, 1634.785
327.3653, 1606.714
327.8474, 1584.682
328.3296, 1585.573
328.8117, 1603.819
329.2938, 1621.992
329.7759, 1630.095
330.2580, 1630.013
330.7401, 1630.005
331.2223, 1633.752
331.7044, 1632.959
332.1865, 1622.060
332.6686, 1608.336
333.1507, 1599.233
333.6328, 1597.114
334.1150, 1599.899
334.5971, 1604.997
335.0792, 1613.804
335.5613, 1621.074
336.0434, 1626.307
336.5255, 1630.644
337.0077, 1634.826
337.4898, 1638.646
337.9719, 1641.366
338.4540, 1642.449
338.9361, 1641.901
339.4182, 1639.438
339.9004, 1632.080
340.3825, 1627.377
340.8646, 1629.374
341.3467, 1634.281
341.8288, 1637.266
342.3109, 1636.387
342.7931, 1633.659
343.2752, 1631.240
343.7573, 1628.741
344.2394, 1629.410
344.7215, 1635.444
345.2036, 1644.028
345.6858, 1654.228
346.1679, 1665.809
346.6500, 1674.910
347.1321, 1676.739
347.6142, 1674.259
348.0963, 1676.216
348.5785, 1684.546
349.0606, 1693.934
349.5427, 1699.010
350.0248, 1701.654
350.5069, 1707.675
350.9890, 1721.985
351.4712, 1736.990
351.9533, 1746.575
352.4354, 1751.351
352.9175, 1754.187
353.3996, 1755.523
353.8817, 1756.791
354.3639, 1762.297
354.8460, 1773.739
355.3281, 1784.727
355.8102, 1791.961
356.2923, 1798.837
356.7744, 1809.964
357.2566, 1826.168
357.7387, 1843.726
358.2208, 1858.600
358.7029, 1870.490
359.1850, 1881.225
359.6671, 1887.931
360.1493, 1896.425
360.6314, 1906.442
361.1135, 1920.394
361.5956, 1944.358
362.0777, 1983.132
362.5598, 2030.841
363.0420, 2065.806
363.5241, 2079.167
364.0062, 2093.385
364.4883, 2112.453
364.9704, 2132.585
365.4525, 2149.446
365.9347, 2162.532
366.4168, 2176.816
366.8989, 2198.089
367.3810, 2226.883
367.8631, 2256.417
368.3452, 2283.999
368.8274, 2315.777
369.3095, 2359.947
369.7916, 2410.577
370.2737, 2452.649
370.7558, 2473.240
371.2379, 2486.172
371.7201, 2515.003
372.2022, 2560.846
372.6843, 2611.790
373.1664, 2667.537
373.6485, 2722.454
374.1306, 2765.878
374.6128, 2792.201
375.0949, 2825.980
375.5770, 2888.967
376.0591, 2966.604
376.5412, 3026.344
377.0233, 3059.667
377.5055, 3090.334
377.9876, 3146.202
378.4697, 3230.650
378.9518, 3294.967
379.4339, 3315.696
379.9160, 3336.548
380.3982, 3386.104
380.8803, 3457.554
381.3624, 3529.548
381.8445, 3591.306
382.3266, 3643.049
382.8087, 3686.252
383.2909, 3716.636
383.7730, 3742.642
384.2551, 3759.653
384.7372, 3775.503
385.2193, 3797.615
385.7014, 3826.490
386.1836, 3856.591
386.6657, 3882.414
387.1478, 3903.743
387.6299, 3923.415
388.1120, 3947.916
388.5941, 3962.498
389.0763, 3956.535
389.5584, 3939.303
390.0405, 3926.187
390.5226, 3925.081
391.0047, 3926.559
391.4868, 3916.169
391.9690, 3893.460
392.4511, 3862.604
392.9332, 3815.855
393.4153, 3769.443
393.8974, 3745.353
394.3795, 3743.097
394.8617, 3726.517
395.3438, 3665.702
395.8259, 3583.537
396.3080, 3520.167
396.7901, 3480.205
397.2722, 3439.633
397.7544, 3381.754
398.2365, 3308.968
398.7186, 3236.768
399.2007, 3163.533
399.6828, 3093.407
400.1649, 3027.270
400.6471, 2965.609
401.1292, 2909.980
401.6113, 2860.627
402.0934, 2813.971
402.5755, 2764.363
403.0576, 2711.810
403.5398, 2656.401
404.0219, 2593.348
404.5040, 2531.742
404.9861, 2474.247
405.4682, 2421.901
405.9503, 2376.999
406.4325, 2341.653
406.9146, 2313.192
407.3967, 2282.604
407.8788, 2248.164
408.3609, 2215.241
408.8430, 2186.705
409.3252, 2158.589
409.8073, 2125.665
410.2894, 2087.804
410.7715, 2053.443
411.2536, 2034.454
411.7357, 2026.620
412.2179, 2006.960
412.7000, 1969.135
413.1821, 1931.382
413.6642, 1908.415
414.1463, 1894.414
414.6284, 1879.015
415.1106, 1858.712
415.5927, 1838.308
416.0748, 1819.804
416.5569, 1803.849
417.0390, 1794.178
417.5211, 1793.482
418.0033, 1794.407
418.4854, 1785.640
418.9675, 1764.014
419.4496, 1742.803
419.9317, 1719.831
420.4138, 1699.673
420.8960, 1686.477
421.3781, 1678.979
421.8602, 1673.133
422.3423, 1666.624
422.8244, 1658.954
423.3065, 1647.665
423.7887, 1627.240
424.2708, 1611.928
424.7529, 1607.199
425.2350, 1604.967
425.7171, 1598.130
426.1992, 1585.993
426.6814, 1573.685
427.1635, 1565.875
427.6456, 1562.279
428.1277, 1561.152
428.6098, 1565.771
429.0919, 1566.465
429.5741, 1553.062
430.0562, 1534.018
430.5383, 1522.633
431.0204, 1524.744
431.5025, 1529.202
431.9846, 1527.327
432.4668, 1520.225
432.9489, 1511.289
433.4310, 1500.829
433.9131, 1490.725
434.3952, 1484.165
434.8773, 1481.859
435.3595, 1475.051
435.8416, 1455.643
436.3237, 1438.510
436.8058, 1435.469
437.2879, 1442.259
437.7701, 1446.536
438.2522, 1441.729
438.7343, 1432.284
439.2164, 1430.100
439.6985, 1443.984
440.1806, 1449.233
440.6628, 1439.281
441.1449, 1426.700
441.6270, 1419.156
442.1091, 1416.730
442.5912, 1415.425
443.0733, 1411.856
443.5555, 1407.247
444.0376, 1407.440
444.5197, 1415.331
445.0018, 1419.887
445.4839, 1413.670
445.9660, 1403.622
446.4482, 1396.844
446.9303, 1394.769
447.4124, 1391.606
447.8945, 1378.694
448.3766, 1363.187
448.8587, 1363.179
449.3409, 1382.147
449.8230, 1401.574
450.3051, 1407.951
450.7872, 1401.606
451.2693, 1390.823
451.7514, 1366.491
452.2336, 1348.614
452.7157, 1347.115
453.1978, 1354.847
453.6799, 1364.183
454.1620, 1372.220
454.6441, 1375.459
455.1263, 1367.657
455.6084, 1345.165
456.0905, 1332.377
456.5726, 1336.441
457.0547, 1343.524
457.5368, 1350.881
458.0190, 1358.254
458.5011, 1367.412
458.9832, 1380.370
459.4653, 1389.175
459.9474, 1377.398
460.4295, 1344.620
460.9117, 1323.547
461.3938, 1324.547
461.8759, 1333.556
462.3580, 1339.381
462.8401, 1342.400
463.3222, 1344.275
463.8044, 1345.751
464.2865, 1346.053
464.7686, 1343.831
465.2507, 1339.663
465.7328, 1336.158
466.2149, 1334.748
466.6971, 1333.488
467.1792, 1328.347
467.6613, 1315.467
468.1434, 1306.926
468.6255, 1302.085
469.1076, 1301.990
469.5898, 1310.614
470.0719, 1324.824
470.5540, 1337.340
471.0361, 1344.184
471.5182, 1344.755
472.0003, 1334.607
472.4825, 1306.004
472.9646, 1288.033
473.4467, 1296.612
473.9288, 1311.126
474.4109, 1319.650
474.8930, 1321.461
475.3752, 1320.793
475.8573, 1319.698
476.3394, 1317.815
476.8215, 1314.481
477.3036, 1309.682
477.7857, 1303.911
478.2679, 1297.879
478.7500, 1290.654
479.2321, 1277.875
479.7142, 1251.815
480.1963, 1239.764
480.6784, 1260.454
481.1606, 1288.279
481.6427, 1299.184
482.1248, 1292.757
482.6069, 1282.695
483.0890, 1278.961
483.5711, 1280.473
484.0533, 1280.973
484.5354, 1278.031
485.0175, 1278.235
485.4996, 1288.079
485.9817, 1297.171
486.4638, 1294.130
486.9460, 1279.456
487.4281, 1267.210
487.9102, 1270.075
488.3923, 1283.722
488.8744, 1296.233
489.3565, 1308.044
489.8387, 1315.299
490.3208, 1313.959
490.8029, 1307.679
491.2850, 1304.186
491.7671, 1303.765
492.2492, 1305.173
492.7314, 1311.226
493.2135, 1317.090
493.6956, 1315.230
494.1777, 1306.169
494.6598, 1299.074
495.1419, 1301.724
495.6241, 1311.805
496.1062, 1314.081
496.5883, 1298.892
497.0704, 1289.397
497.5525, 1292.409
498.0346, 1298.583
498.5168, 1299.298
498.9989, 1294.241
499.4810, 1290.331
499.9631, 1295.797
500.4452, 1306.882
500.9273, 1307.157
501.4095, 1293.091
501.8916, 1283.278
502.3737, 1287.969
502.8558, 1300.526
503.3379, 1311.078
503.8200, 1320.123
504.3022, 1324.114
504.7843, 1317.568
505.2664, 1307.616
505.7485, 1301.304
506.2306, 1299.609
506.7127, 1303.237
507.1949, 1313.626
507.6770, 1328.361
508.1591, 1336.682
508.6412, 1332.528
509.1233, 1330.675
509.6054, 1328.544
510.0876, 1331.405
510.5697, 1347.430
511.0518, 1373.582
511.5339, 1395.673
512.0160, 1400.614
512.4981, 1396.015
512.9802, 1405.277
513.4623, 1431.602
513.9445, 1451.406
514.4266, 1451.194
514.9087, 1445.026
515.3908, 1452.521
515.8729, 1474.887
516.3550, 1494.658
516.8372, 1504.069
517.3193, 1510.455
517.8014, 1520.039
518.2835, 1532.888
518.7656, 1548.907
519.2477, 1568.874
519.7299, 1587.931
520.2120, 1593.203
520.6941, 1570.071
521.1762, 1561.313
521.6583, 1575.954
522.1404, 1594.699
522.6226, 1610.195
523.1047, 1621.177
523.5868, 1627.035
524.0689, 1627.047
524.5510, 1622.857
525.0331, 1616.374
525.5153, 1607.612
525.9974, 1599.134
526.4795, 1592.496
526.9616, 1584.738
527.4437, 1570.683
527.9258, 1551.335
528.4080, 1536.714
528.8901, 1534.477
529.3722, 1531.132
529.8543, 1513.996
530.3364, 1490.849
530.8185, 1479.235
531.3007, 1484.754
531.7828, 1494.501
532.2649, 1489.594
532.7470, 1466.462
533.2291, 1450.738
533.7112, 1443.701
534.1934, 1443.199
534.6755, 1453.171
535.1576, 1467.386
535.6397, 1478.394
536.1218, 1484.294
536.6039, 1484.997
537.0861, 1476.751
537.5682, 1463.118
538.0503, 1457.453
538.5324, 1462.569
539.0145, 1465.577
539.4966, 1454.445
539.9788, 1433.898
540.4609, 1427.528
540.9430, 1444.704
541.4251, 1461.404
541.9072, 1477.842
542.3893, 1488.409
542.8715, 1483.856
543.3536, 1466.224
543.8357, 1448.847
544.3178, 1442.267
544.7999, 1444.563
545.2820, 1448.324
545.7642, 1455.677
546.2463, 1458.592
546.7284, 1450.268
547.2105, 1440.228
547.6926, 1437.511
548.1747, 1441.458
548.6569, 1441.259
549.1390, 1426.679
549.6211, 1409.526
550.1032, 1404.477
550.5853, 1409.016
551.0674, 1410.922
551.5496, 1404.958
552.0317, 1396.038
552.5138, 1392.185
552.9959, 1395.175
553.4780, 1397.292
553.9601, 1400.661
554.4423, 1401.058
554.9244, 1393.717
555.4065, 1383.235
555.8886, 1377.008
556.3707, 1377.796
556.8528, 1381.255
557.3350, 1381.484
557.8171, 1379.231
558.2992, 1381.594
558.7813, 1391.059
559.2634, 1399.226
559.7455, 1399.276
560.2277, 1393.889
560.7098, 1392.139
561.1919, 1396.602
561.6740, 1400.301
562.1561, 1402.410
562.6382, 1401.856
563.1204, 1394.378
563.6025, 1381.878
564.0846, 1374.679
564.5667, 1381.493
565.0488, 1397.264
565.5309, 1400.912
566.0131, 1385.740
566.4952, 1375.401
566.9773, 1379.907
567.4594, 1385.669
567.9415, 1382.716
568.4236, 1372.819
568.9058, 1365.895
569.3879, 1368.997
569.8700, 1374.277
570.3521, 1372.570
570.8342, 1366.168
571.3163, 1363.500
571.7985, 1367.438
572.2806, 1372.722
572.7627, 1372.766
573.2448, 1366.781
573.7269, 1363.017
574.2090, 1366.253
574.6912, 1365.845
575.1733, 1354.750
575.6554, 1340.928
576.1375, 1333.063
576.6196, 1333.077
577.1017, 1337.217
577.5839, 1345.529
578.0660, 1355.207
578.5481, 1355.020
579.0302, 1343.590
579.5123, 1333.327
579.9944, 1330.502
580.4766, 1331.593
580.9587, 1330.047
581.4408, 1325.696
581.9229, 1320.210
582.4050, 1311.423
582.8871, 1303.767
583.3693, 1299.206
583.8514, 1298.264
584.3335, 1303.542
584.8156, 1316.327
585.2977, 1328.518
585.7798, 1323.768
586.2620, 1299.635
586.7441, 1288.428
587.2262, 1298.430
587.7083, 1310.249
588.1904, 1314.487
588.6725, 1312.852
589.1547, 1306.314
589.6368, 1291.262
590.1189, 1281.237
590.6010, 1287.741
591.0831, 1300.231
591.5652, 1304.423
592.0474, 1300.163
592.5295, 1297.515
593.0116, 1304.144
593.4937, 1314.123
593.9758, 1306.885
594.4579, 1269.271
594.9401, 1245.850
595.4222, 1251.393
595.9043, 1262.157
596.3864, 1267.380
596.8685, 1268.478
597.3506, 1271.108
597.8328, 1279.308
598.3149, 1285.814
598.7970, 1284.257
599.2791, 1275.870
599.7612, 1260.015
600.2433, 1236.458
600.7255, 1221.166
601.2076, 1230.155
601.6897, 1259.300
602.1718, 1274.788
602.6539, 1262.529
603.1360, 1255.497
603.6182, 1260.294
604.1003, 1267.831
604.5824, 1273.205
605.0645, 1275.107
605.5466, 1271.861
606.0287, 1259.633
606.5109, 1245.649
606.9930, 1241.545
607.4751, 1246.249
607.9572, 1251.581
608.4393, 1255.872
608.9214, 1258.970
609.4036, 1260.289
609.8857, 1259.824
610.3678, 1261.114
610.8499, 1268.082
611.3320, 1271.681
611.8141, 1267.772
612.2963, 1260.782
612.7784, 1252.408
613.2605, 1244.725
613.7426, 1244.188
614.2247, 1259.482
614.7068, 1282.224
615.1890, 1291.732
615.6711, 1287.664
616.1532, 1276.566
616.6353, 1256.345
617.1174, 1236.874
617.5995, 1229.774
618.0817, 1235.349
618.5638, 1242.842
619.0459, 1254.848
619.5280, 1265.234
620.0101, 1271.601
620.4922, 1275.025
620.9744, 1276.750
621.4565, 1277.139
621.9386, 1276.101
622.4207, 1273.126
622.9028, 1268.843
623.3849, 1265.538
623.8671, 1263.104
624.3492, 1262.499
624.8313, 1265.211
625.3134, 1268.518
625.7955, 1267.250
626.2776, 1261.750
626.7598, 1262.876
627.2419, 1282.629
627.7240, 1297.981
628.2061, 1292.596
628.6882, 1277.295
629.1703, 1267.149
629.6525, 1266.077
630.1346, 1270.767
630.6167, 1280.280
631.0988, 1292.415
631.5809, 1292.573
632.0630, 1275.943
632.5452, 1253.420
633.0273, 1266.607
633.5094, 1274.383
633.9915, 1277.040
634.4736, 1259.245
634.9557, 1267.859
635.4379, 1265.891
635.9200, 1263.487
636.4021, 1275.819
636.8842, 1260.998
637.3663, 1273.097
637.8484, 1274.449
638.3306, 1280.720
638.8127, 1276.341
639.2948, 1275.252
639.7769, 1284.815
640.2590, 1288.480
640.7411, 1280.782
641.2233, 1288.553
641.7054, 1297.408
642.1875, 1301.646
642.6696, 1301.510
643.1517, 1299.447
643.6339, 1294.543
644.1160, 1289.345
644.5981, 1283.681
645.0802, 1279.239
645.5623, 1279.719
646.0444, 1285.214
646.5266, 1290.873
647.0087, 1292.425
647.4908, 1290.241
647.9729, 1285.396
648.4550, 1277.011
648.9371, 1269.390
649.4193, 1261.885
649.9014, 1257.484
650.3835, 1261.241
650.8656, 1271.671
651.3477, 1278.183
651.8298, 1273.955
652.3120, 1271.210
652.7941, 1277.824
653.2762, 1288.309
653.7583, 1295.244
654.2404, 1297.593
654.7225, 1298.890
655.2047, 1301.883
655.6868, 1306.148
656.1689, 1311.036
656.6510, 1317.275
657.1331, 1319.063
657.6152, 1312.190
658.0974, 1304.855
658.5795, 1305.829
659.0616, 1313.079
659.5437, 1317.574
660.0258, 1318.004
660.5079, 1316.210
660.9901, 1311.451
661.4722, 1305.645
661.9543, 1298.990
662.4364, 1292.938
662.9185, 1292.504
663.4006, 1302.449
663.8828, 1315.939
664.3649, 1316.919
664.8470, 1304.943
665.3291, 1295.056
665.8112, 1289.752
666.2933, 1286.236
666.7755, 1281.773
667.2576, 1277.450
667.7397, 1277.795
668.2218, 1288.840
668.7039, 1294.732
669.1860, 1285.314
669.6682, 1275.462
670.1503, 1278.721
670.6324, 1291.930
671.1145, 1303.804
671.5966, 1308.907
672.0787, 1309.660
672.5609, 1308.648
673.0430, 1306.095
673.5251, 1302.743
674.0072, 1297.892
674.4893, 1297.129
674.9714, 1305.253
675.4536, 1318.581
675.9357, 1327.650
676.4178, 1332.108
676.8999, 1332.967
677.3820, 1328.305
677.8641, 1322.014
678.3463, 1316.309
678.8284, 1310.356
679.3105, 1300.510
679.7926, 1285.652
680.2747, 1275.576
680.7568, 1283.899
681.2390, 1302.821
681.7211, 1312.560
682.2032, 1312.852
682.6853, 1316.246
683.1674, 1329.409
683.6495, 1343.980
684.1317, 1346.251
684.6138, 1333.089
685.0959, 1324.171
685.5780, 1321.419
686.0601, 1320.583
686.5422, 1323.182
687.0244, 1325.672
687.5065, 1323.507
687.9886, 1316.593
688.4707, 1310.524
688.9528, 1311.047
689.4349, 1312.062
689.9171, 1305.024
690.3992, 1292.687
690.8813, 1282.237
691.3634, 1275.757
691.8455, 1274.512
692.3276, 1280.336
692.8098, 1292.476
693.2919, 1305.224
693.7740, 1323.064
694.2561, 1331.411
694.7382, 1318.571
695.2203, 1303.428
695.7025, 1297.860
696.1846, 1300.832
696.6667, 1307.649
697.1488, 1321.262
697.6309, 1332.299
698.1130, 1334.562
698.5952, 1332.069
699.0773, 1330.773
699.5594, 1330.210
700.0415, 1323.379
700.5236, 1304.747
701.0057, 1283.799
701.4879, 1282.734
701.9700, 1302.778
702.4521, 1316.400
702.9342, 1319.830
703.4163, 1320.116
703.8984, 1320.044
704.3806, 1320.167
704.8627, 1322.101
705.3448, 1327.089
705.8269, 1330.208
706.3090, 1328.827
706.7911, 1327.368
707.2733, 1329.655
707.7554, 1333.308
708.2375, 1333.577
708.7196, 1329.191
709.2017, 1324.439
709.6838, 1323.450
710.1660, 1325.162
710.6481, 1327.392
711.1302, 1330.026
711.6123, 1331.823
712.0944, 1332.409
712.5765, 1331.557
713.0587, 1328.253
713.5408, 1322.153
714.0229, 1321.078
714.5050, 1328.944
714.9871, 1336.602
715.4692, 1345.922
715.9514, 1351.943
716.4335, 1347.955
716.9156, 1336.228
717.3977, 1327.818
717.8798, 1328.756
718.3619, 1332.202
718.8441, 1331.755
719.3262, 1330.476
719.8083, 1335.988
720.2904, 1347.596
720.7725, 1354.437
721.2546, 1348.600
721.7368, 1335.765
722.2189, 1330.023
722.7010, 1332.646
723.1831, 1333.603
723.6652, 1331.912
724.1473, 1328.810
724.6295, 1321.296
725.1116, 1314.376
725.5937, 1319.758
726.0758, 1343.432
726.5579, 1358.363
727.0400, 1354.767
727.5222, 1346.139
728.0043, 1336.291
728.4864, 1328.472
728.9685, 1329.022
729.4506, 1338.598
729.9327, 1346.528
730.4149, 1338.301
730.8970, 1323.531
731.3791, 1328.114
731.8612, 1349.423
732.3433, 1361.435
732.8254, 1355.772
733.3076, 1344.496
733.7897, 1340.275
734.2718, 1342.189
734.7539, 1337.367
735.2360, 1317.067
735.7181, 1304.703
736.2003, 1303.739
736.6824, 1310.273
737.1645, 1328.902
737.6466, 1352.824
738.1287, 1363.353
738.6108, 1349.478
739.0930, 1336.546
739.5751, 1341.446
740.0572, 1353.145
740.5393, 1359.746
741.0214, 1361.050
741.5035, 1360.672
741.9857, 1360.281
742.4678, 1360.400
742.9499, 1361.102
743.4320, 1362.609
743.9141, 1369.643
744.3962, 1384.215
744.8784, 1393.090
745.3605, 1389.162
745.8426, 1380.239
746.3247, 1377.347
746.8068, 1381.595
747.2889, 1381.208
747.7711, 1369.942
748.2532, 1362.384
748.7353, 1359.298
749.2174, 1363.306
749.6995, 1383.634
750.1816, 1414.444
750.6638, 1432.625
751.1459, 1422.944
751.6280, 1405.004
752.1101, 1394.316
752.5922, 1389.112
753.0743, 1385.658
753.5565, 1383.946
754.0386, 1388.665
754.5207, 1403.322
755.0028, 1420.366
755.4849, 1422.930
755.9670, 1408.601
756.4492, 1403.718
756.9313, 1413.776
757.4134, 1420.145
757.8955, 1409.752
758.3776, 1394.986
758.8597, 1395.935
759.3419, 1413.761
759.8240, 1431.081
760.3061, 1455.570
760.7882, 1468.523
761.2703, 1451.991
761.7524, 1427.565
762.2346, 1418.040
762.7167, 1424.718
763.1988, 1435.214
763.6809, 1444.068
764.1630, 1450.899
764.6451, 1453.195
765.1273, 1453.519
765.6094, 1460.533
766.0915, 1474.261
766.5736, 1482.619
767.0557, 1477.358
767.5378, 1465.819
768.0200, 1464.467
768.5021, 1475.188
768.9842, 1485.399
769.4663, 1497.345
769.9484, 1503.203
770.4305, 1493.557
770.9127, 1480.016
771.3948, 1480.668
771.8769, 1496.668
772.3590, 1509.849
772.8411, 1513.853
773.3232, 1519.815
773.8054, 1537.736
774.2875, 1555.994
774.7696, 1557.788
775.2517, 1546.089
775.7338, 1542.161
776.2159, 1560.674
776.6981, 1585.251
777.1802, 1596.885
777.6623, 1600.722
778.1444, 1609.658
778.6265, 1624.301
779.1086, 1635.476
779.5908, 1637.603
780.0729, 1636.184
780.5550, 1641.585
781.0371, 1654.483
781.5192, 1667.096
782.0013, 1678.322
782.4835, 1692.427
782.9656, 1712.259
783.4477, 1734.531
783.9298, 1755.287
784.4119, 1774.490
784.8940, 1793.340
785.3762, 1807.764
785.8583, 1827.109
786.3404, 1857.245
786.8225, 1890.617
787.3046, 1922.095
787.7867, 1951.049
788.2689, 1976.383
788.7510, 1994.290
789.2331, 2019.973
789.7152, 2077.437
790.1973, 2145.563
790.6794, 2184.291
791.1616, 2199.723
791.6437, 2231.854
792.1258, 2298.276
792.6079, 2376.419
793.0900, 2432.816
793.5721, 2471.588
794.0543, 2537.385
794.5364, 2635.432
795.0185, 2728.419
795.5006, 2802.853
795.9827, 2874.360
796.4648, 2953.438
796.9470, 3041.944
797.4291, 3156.595
797.9112, 3309.668
798.3933, 3471.363
798.8754, 3649.012
799.3575, 3826.453
799.8397, 3985.237
800.3218, 4139.584
800.8039, 4316.952
801.2860, 4522.902
801.7681, 4750.951
802.2502, 4998.034
802.7324, 5265.930
803.2145, 5561.415
803.6966, 5877.154
804.1787, 6201.417
804.6608, 6530.788
805.1429, 6871.321
805.6251, 7227.069
806.1072, 7598.773
806.5893, 7985.243
807.0714, 8388.940
807.5535, 8823.878
808.0356, 9295.278
808.5178, 9765.941
808.9999, 10213.07
809.4820, 10644.26
809.9641, 11070.82
810.4462, 11496.68
810.9283, 11910.69
811.4105, 12329.30
811.8926, 12712.05
812.3747, 13045.82
812.8568, 13332.05
813.3389, 13572.75
813.8210, 13767.50
814.3032, 13907.62
814.7853, 14009.84
815.2674, 14033.13
815.7495, 13943.83
816.2316, 13785.10
816.7137, 13585.18
817.1959, 13351.84
817.6780, 13093.95
818.1601, 12819.60
818.6422, 12498.81
819.1243, 12077.84
819.6064, 11605.54
820.0886, 11158.52
820.5707, 10730.96
821.0528, 10287.40
821.5349, 9811.969
822.0170, 9332.237
822.4991, 8870.325
822.9813, 8428.521
823.4634, 8014.289
823.9455, 7624.847
824.4276, 7258.825
824.9097, 6914.358
825.3918, 6599.739
825.8740, 6326.464
826.3561, 6083.758
826.8382, 5838.302
827.3203, 5579.308
827.8024, 5342.330
828.2845, 5123.972
828.7667, 4932.664
829.2488, 4784.141
829.7309, 4655.918
830.2130, 4522.346
830.6951, 4381.554
831.1772, 4247.925
831.6594, 4121.791
832.1415, 4007.241
832.6236, 3910.462
833.1057, 3822.333
833.5878, 3732.463
834.0699, 3641.837
834.5521, 3556.686
835.0342, 3478.556
835.5163, 3413.191
835.9984, 3366.530
836.4805, 3335.445
836.9626, 3319.827
837.4448, 3315.220
837.9269, 3307.263
838.4090, 3291.262
838.8911, 3273.323
839.3732, 3258.053
839.8553, 3247.668
840.3375, 3254.118
840.8196, 3277.899
841.3017, 3290.948
841.7838, 3285.974
842.2659, 3282.025
842.7480, 3293.359
843.2302, 3312.831
843.7123, 3321.407
844.1944, 3312.491
844.6765, 3315.520
845.1586, 3343.481
845.6407, 3364.007
846.1229, 3359.671
846.6050, 3347.477
847.0871, 3346.153
847.5692, 3354.382
848.0513, 3352.521
848.5334, 3342.122
849.0156, 3315.576
849.4977, 3251.789
849.9798, 3188.072
850.4619, 3161.939
850.9440, 3156.647
851.4261, 3132.630
851.9083, 3077.050
852.3904, 3012.116
852.8725, 2947.935
853.3546, 2884.829
853.8367, 2821.005
854.3188, 2758.604
854.8010, 2703.356
855.2831, 2655.063
855.7652, 2605.843
856.2473, 2549.547
856.7294, 2490.758
857.2115, 2439.353
857.6937, 2392.891
858.1758, 2336.603
858.6579, 2269.798
859.1400, 2213.036
859.6221, 2176.751
860.1042, 2147.182
860.5864, 2103.942
861.0685, 2047.859
861.5506, 1995.070
862.0327, 1944.710
862.5148, 1900.496
862.9969, 1861.351
863.4791, 1832.084
863.9612, 1821.903
864.4433, 1823.082
864.9254, 1807.387
865.4075, 1764.239
865.8896, 1726.116
866.3718, 1690.763
866.8539, 1662.632
867.3360, 1646.783
867.8181, 1636.686
868.3002, 1627.495
868.7823, 1618.147
869.2645, 1602.575
869.7466, 1573.161
870.2287, 1545.254
870.7108, 1522.236
871.1929, 1505.380
871.6750, 1500.786
872.1572, 1502.330
872.6393, 1496.100
873.1214, 1477.199
873.6035, 1456.651
874.0856, 1438.768
874.5677, 1426.320
875.0499, 1427.396
875.5320, 1434.736
876.0141, 1431.959
876.4962, 1417.458
876.9783, 1402.964
877.4604, 1396.256
877.9426, 1394.324
878.4247, 1394.415
878.9068, 1395.179
879.3889, 1390.885
879.8710, 1381.521
880.3531, 1371.356
880.8353, 1362.100
881.3174, 1353.471
881.7995, 1344.477
882.2816, 1336.087
882.7637, 1335.891
883.2458, 1345.451
883.7280, 1350.969
884.2101, 1348.810
884.6922, 1346.831
885.1743, 1349.704
885.6564, 1356.581
886.1385, 1366.952
886.6207, 1384.219
887.1028, 1388.919
887.5849, 1371.761
888.0670, 1356.926
888.5491, 1347.875
889.0313, 1346.185
889.5134, 1356.519
889.9955, 1375.887
890.4776, 1390.699
890.9597, 1399.433
891.4418, 1404.606
891.9240, 1406.256
892.4061, 1404.781
892.8882, 1398.070
893.3703, 1389.623
893.8524, 1381.929
894.3345, 1376.083
894.8167, 1378.726
895.2988, 1399.204
895.7809, 1420.686
896.2630, 1433.371
896.7451, 1443.278
897.2272, 1457.025
897.7094, 1473.478
898.1915, 1488.348
898.6736, 1500.096
899.1557, 1509.287
899.6378, 1516.067
900.1199, 1520.697
900.6021, 1522.064
901.0842, 1521.974
901.5663, 1524.952
902.0484, 1531.021
902.5305, 1535.480
903.0126, 1535.201
903.4948, 1533.067
903.9769, 1535.130
904.4590, 1538.507
904.9411, 1532.413
905.4232, 1517.768
905.9053, 1505.943
906.3875, 1500.600
906.8696, 1492.741
907.3517, 1472.211
907.8338, 1445.044
908.3159, 1431.371
908.7980, 1431.285
909.2802, 1434.032
909.7623, 1439.589
910.2444, 1438.704
910.7265, 1424.847
911.2086, 1408.882
911.6907, 1407.851
912.1729, 1421.456
912.6550, 1424.519
913.1371, 1412.606
913.6192, 1404.415
914.1013, 1404.569
914.5834, 1406.240
915.0656, 1404.621
915.5477, 1401.600
916.0298, 1401.395
916.5119, 1404.104
916.9940, 1409.277
917.4761, 1415.387
917.9583, 1426.127
918.4404, 1447.174
918.9225, 1469.066
919.4046, 1482.849
919.8867, 1491.116
920.3688, 1503.708
920.8510, 1522.363
921.3331, 1543.260
921.8152, 1567.948
922.2973, 1592.367
922.7794, 1611.012
923.2615, 1630.883
923.7437, 1663.437
924.2258, 1706.833
924.7079, 1741.983
925.1900, 1757.724
925.6721, 1773.591
926.1542, 1796.784
926.6364, 1823.806
927.1185, 1854.312
927.6006, 1885.466
928.0827, 1912.249
928.5648, 1934.005
929.0469, 1957.450
929.5291, 1993.127
930.0112, 2023.941
930.4933, 2029.016
930.9754, 2027.480
931.4575, 2048.270
931.9396, 2084.082
932.4218, 2107.314
932.9039, 2108.167
933.3860, 2100.676
933.8681, 2095.479
934.3502, 2089.894
934.8323, 2080.925
935.3145, 2068.771
935.7966, 2054.089
936.2787, 2036.940
936.7608, 2016.896
937.2429, 1993.792
937.7250, 1967.745
938.2072, 1938.767
938.6893, 1906.850
939.1714, 1869.744
939.6535, 1829.426
940.1356, 1793.927
940.6177, 1764.646
941.0999, 1737.239
941.5820, 1708.647
942.0641, 1679.911
942.5462, 1652.363
943.0283, 1626.273
943.5104, 1602.749
943.9926, 1581.986
944.4747, 1566.662
944.9568, 1557.842
945.4389, 1545.291
945.9210, 1519.029
946.4031, 1484.286
946.8853, 1453.713
947.3674, 1427.305
947.8495, 1411.141
948.3316, 1406.219
948.8137, 1405.960
949.2958, 1409.458
949.7780, 1408.457
950.2601, 1392.966
950.7422, 1365.521
951.2243, 1337.752
951.7064, 1307.910
952.1885, 1290.501
952.6707, 1289.740
953.1528, 1291.310
953.6349, 1288.962
954.1170, 1285.080
954.5991, 1283.770
955.0812, 1284.558
955.5634, 1275.717
956.0455, 1252.217
956.5276, 1234.564
957.0097, 1225.254
957.4918, 1222.134
957.9739, 1226.614
958.4561, 1233.818
958.9382, 1235.719
959.4203, 1231.958
959.9024, 1228.162
960.3845, 1226.075
960.8666, 1220.175
961.3488, 1205.553
961.8309, 1192.686
962.3130, 1190.625
962.7951, 1193.264
963.2772, 1187.241
963.7593, 1169.264
964.2415, 1160.313
964.7236, 1168.990
965.2057, 1174.184
965.6878, 1171.205
966.1699, 1164.821
966.6520, 1156.481
967.1342, 1147.302
967.6163, 1138.798
968.0984, 1128.917
968.5805, 1128.188
969.0626, 1152.712
969.5447, 1165.530
970.0269, 1143.898
970.5090, 1119.496
970.9911, 1118.322
971.4732, 1133.356
971.9553, 1144.474
972.4374, 1149.183
972.9196, 1152.320
973.4017, 1156.470
973.8838, 1156.758
974.3659, 1148.199
974.8480, 1137.793
975.3301, 1130.584
975.8123, 1126.850
976.2944, 1126.752
976.7765, 1131.739
977.2586, 1135.551
977.7407, 1136.862
978.2228, 1136.631
978.7050, 1133.544
979.1871, 1130.453
979.6692, 1132.111
980.1513, 1136.305
980.6334, 1134.098
981.1155, 1120.342
981.5977, 1110.362
982.0798, 1111.880
982.5619, 1114.563
983.0440, 1114.834
983.5261, 1112.239
984.0082, 1103.903
984.4904, 1092.350
984.9725, 1086.944
985.4546, 1092.040
985.9367, 1097.727
986.4188, 1101.604
986.9009, 1103.768
987.3831, 1103.235
987.8652, 1101.745
988.3473, 1102.541
988.8294, 1104.474
989.3115, 1101.434
989.7936, 1089.056
990.2758, 1079.120
990.7579, 1077.498
991.2400, 1078.772
991.7221, 1077.416
992.2042, 1078.287
992.6863, 1092.539
993.1685, 1115.853
993.6506, 1126.318
994.1327, 1111.890
994.6148, 1098.014
995.0969, 1099.834
995.5790, 1101.883
996.0612, 1088.257
996.5433, 1072.109
997.0254, 1072.255
997.5075, 1087.297
997.9896, 1101.884
998.4717, 1113.743
998.9539, 1115.561
999.4360, 1093.680
999.9181, 1071.567
1000.400, 1065.743
1000.882, 1069.456
1001.364, 1073.682
1001.847, 1077.865
1002.329, 1086.966
1002.811, 1106.492
1003.293, 1119.137
1003.775, 1112.545
1004.257, 1100.957
1004.739, 1092.587
1005.221, 1086.041
1005.703, 1078.289
1006.186, 1069.926
1006.668, 1064.685
1007.150, 1064.781
1007.632, 1064.937
1008.114, 1061.519
1008.596, 1058.727
1009.078, 1058.623
1009.560, 1061.177
1010.043, 1070.020
1010.525, 1081.512
1011.007, 1081.575
1011.489, 1061.361
1011.971, 1046.460
1012.453, 1049.689
1012.935, 1059.381
1013.417, 1077.462
1013.899, 1091.556
1014.382, 1080.723
1014.864, 1053.560
1015.346, 1043.696
1015.828, 1065.216
1016.310, 1083.047
1016.792, 1080.525
1017.274, 1074.633
1017.756, 1075.893
1018.239, 1077.436
1018.721, 1067.724
1019.203, 1052.080
1019.685, 1049.250
1020.167, 1067.065
1020.649, 1079.651
1021.131, 1074.942
1021.613, 1067.719
1022.095, 1063.520
1022.578, 1061.024
1023.060, 1059.328
1023.542, 1058.014
1024.024, 1056.430
1024.506, 1054.434
1024.988, 1052.376
1025.470, 1053.281
1025.952, 1050.307
1026.434, 1034.783
1026.917, 1020.035
1027.399, 1016.937
1027.881, 1022.860
1028.363, 1032.613
1028.845, 1046.660
1029.327, 1054.440
1029.809, 1048.228
1030.291, 1043.591
1030.774, 1048.042
1031.256, 1052.034
1031.738, 1047.157
1032.220, 1038.063
1032.702, 1032.750
1033.184, 1031.790
1033.666, 1034.810
1034.148, 1052.598
1034.630, 1058.505
1035.113, 1034.799
1035.595, 1012.747
1036.077, 1012.371
1036.559, 1022.840
1037.041, 1028.718
1037.523, 1029.666
1038.005, 1029.138
1038.487, 1020.514
1038.969, 1021.294
1039.452, 1040.183
1039.934, 1058.888
1040.416, 1075.339
1040.898, 1082.269
1041.380, 1065.149
1041.862, 1027.428
1042.344, 1007.754
1042.826, 1014.533
1043.309, 1021.489
1043.791, 1029.457
1044.273, 1034.512
1044.755, 1035.632
1045.237, 1032.400
1045.719, 1022.118
1046.201, 1007.672
1046.683, 1003.290
1047.166, 1013.811
1047.648, 1017.261
1048.130, 1010.691
1048.612, 1005.281
1049.094, 1004.331
1049.576, 1005.741
1050.058, 1008.221
1050.540, 1011.127
1051.022, 1012.295
1051.505, 1011.241
1051.987, 1014.137
1052.469, 1022.206
1052.951, 1026.311
1053.433, 1024.090
1053.915, 1017.893
1054.397, 1007.904
1054.879, 999.3816
1055.361, 1003.322
1055.844, 1018.368
1056.326, 1029.555
1056.808, 1036.938
1057.290, 1035.998
1057.772, 1025.886
1058.254, 1014.937
1058.736, 1007.431
1059.218, 1002.223
1059.701, 997.7598
1060.183, 986.5725
1060.665, 998.6498
1061.147, 1005.317
1061.629, 1006.865
1062.111, 987.9601
1062.593, 995.4656
1063.075, 992.3871
1063.557, 988.8745
1064.040, 1000.097
1064.522, 984.1665
1065.004, 995.1555
1065.486, 995.3989
1065.968, 1000.560
1066.450, 995.0723
1066.932, 992.8735
1067.414, 1001.328
1067.896, 1003.883
1068.379, 997.1685
1068.861, 1002.643
1069.343, 986.3405
1069.825, 989.1473
1070.307, 1000.199
1070.789, 994.0201
1071.271, 999.6888
1071.753, 1000.845
1072.236, 981.4960
1072.718, 997.8082
1073.200, 1002.846
1073.682, 1005.849
1074.164, 1003.996
1074.646, 1001.707
1075.128, 999.9340
1075.610, 1000.708
1076.093, 1002.544
1076.575, 1000.894
1077.057, 994.4114
1077.539, 989.3187
1078.021, 989.8171
1078.503, 990.3218
1078.985, 985.5831
1079.467, 982.5645
1079.949, 991.2556
1080.432, 1003.173
1080.914, 1002.631
1081.396, 988.6081
1081.878, 977.5760
1082.360, 972.4105
1082.842, 970.4639
1083.324, 974.2664
1083.806, 977.7297
1084.288, 976.4946
1084.771, 974.7714
1085.253, 978.2361
1085.735, 985.4404
1086.217, 989.3860
1086.699, 990.3749
1087.181, 986.8764
1087.663, 975.1808
1088.145, 966.4778
1088.628, 963.5507
1089.110, 964.6611
1089.592, 969.3040
1090.074, 976.3063
1090.556, 983.7053
1091.038, 991.6666
1091.520, 995.9210
1092.002, 997.3360
1092.484, 986.3819
1092.967, 958.6073
1093.449, 937.9904
1093.931, 936.8090
1094.413, 947.4866
1094.895, 961.8925
1095.377, 978.3041
1095.859, 991.5793
1096.341, 1001.182
1096.823, 1000.549
1097.306, 990.3823
1097.788, 980.4653
1098.270, 974.3879
1098.752, 976.5600
1099.234, 992.6129
1099.716, 1009.820
1100.198, 1004.833
1100.680, 988.8471
1101.163, 984.7843
1101.645, 989.3609
1102.127, 994.2485
1102.609, 996.3274
1103.091, 990.7063
1103.573, 974.6998
1104.055, 958.2920
1104.537, 946.5477
1105.020, 941.6145
1105.502, 950.4678
1105.984, 963.5286
1106.466, 970.3069
1106.948, 971.1694
1107.430, 968.9279
1107.912, 964.4762
1108.394, 960.2592
1108.876, 957.3139
1109.359, 954.7070
1109.841, 951.9050
1110.323, 949.5646
1110.805, 947.0972
1111.287, 946.0286
1111.769, 949.5483
1112.251, 956.4453
1112.733, 959.6933
1113.215, 954.7551
1113.698, 956.1315
1114.180, 974.2327
1114.662, 982.2399
1115.144, 964.8995
1115.626, 949.3124
1116.108, 955.7721
1116.590, 973.7897
1117.072, 984.7534
1117.555, 988.6559
1118.037, 985.0396
1118.519, 971.9313
1119.001, 961.8423
1119.483, 955.8057
1119.965, 957.0082
1120.447, 968.0242
1120.929, 978.1525
1121.411, 975.7629
1121.894, 965.7973
1122.376, 961.5275
1122.858, 961.3707
1123.340, 954.3646
1123.822, 942.7037
1124.304, 942.8907
1124.786, 956.6997
1125.268, 967.2584
1125.750, 964.9346
1126.233, 956.5906
1126.715, 944.8464
1127.197, 936.0325
1127.679, 942.2791
1128.161, 955.4725
1128.643, 965.3993
1129.125, 969.8243
1129.607, 964.5847
1130.090, 950.2567
1130.572, 942.6618
1131.054, 953.5179
1131.536, 966.2103
1132.018, 976.8768
1132.500, 981.1940
1132.982, 971.1280
1133.464, 956.7642
1133.947, 948.5792
1134.429, 947.1356
1134.911, 951.3106
1135.393, 964.9236
1135.875, 970.5267
1136.357, 956.8112
1136.839, 950.0074
1137.321, 960.3870
1137.803, 970.0425
1138.286, 968.3798
1138.768, 960.5360
1139.250, 952.8602
1139.732, 945.9805
1140.214, 947.0029
1140.696, 957.6832
1141.178, 961.6971
1141.660, 957.1910
1142.142, 956.2894
1142.625, 963.2557
1143.107, 967.2284
1143.589, 958.9950
1144.071, 946.8410
1144.553, 945.9978
1145.035, 952.6758
1145.517, 958.6298
1145.999, 961.5012
1146.482, 950.1353
1146.964, 928.0994
1147.446, 914.4055
1147.928, 916.0684
1148.410, 924.4696
1148.892, 936.4114
1149.374, 947.0799
1149.856, 952.5411
1150.339, 954.2091
1150.821, 952.2463
1151.303, 948.1830
1151.785, 943.6411
1152.267, 938.9865
1152.749, 934.2276
1153.231, 929.1898
1153.713, 924.8320
1154.195, 920.5850
1154.677, 918.0862
1155.160, 918.4915
1155.642, 920.1049
1156.124, 922.5362
1156.606, 925.0490
1157.088, 927.2458
1157.570, 928.7672
1158.052, 924.5353
1158.534, 912.2969
1159.017, 904.3645
1159.499, 901.2526
1159.981, 905.0204
1160.463, 917.7264
1160.945, 923.7933
1161.427, 910.1309
1161.909, 892.9016
1162.391, 904.5418
1162.874, 933.0015
1163.356, 935.4404
1163.838, 919.9818
1164.320, 912.1203
1164.802, 912.9974
1165.284, 911.5361
1165.766, 904.9178
1166.248, 903.1416
1166.730, 915.5291
1167.213, 928.0129
1167.695, 928.2318
1168.177, 924.1815
1168.659, 920.4273
1169.141, 918.5457
1169.623, 922.8267
1170.105, 929.7336
1170.587, 927.6407
1171.069, 912.6652
1171.552, 904.4629
1172.034, 911.2442
1172.516, 917.5114
1172.998, 923.7452
1173.480, 924.7481
1173.962, 915.0603
1174.444, 903.6721
1174.926, 900.2684
1175.409, 902.4957
1175.891, 901.9533
1176.373, 898.2298
1176.855, 897.4707
1177.337, 899.6839
1177.819, 905.9549
1178.301, 916.2765
1178.783, 922.6923
1179.266, 921.3486
1179.748, 915.0898
1180.230, 905.3638
1180.712, 895.5000
1181.194, 890.8558
1181.676, 889.9407
1182.158, 892.2758
1182.640, 895.4946
1183.122, 894.7477
1183.604, 890.2481
1184.087, 885.6133
1184.569, 881.6061
1185.051, 882.5413
1185.533, 889.9420
1186.015, 893.8999
1186.497, 894.6000
1186.979, 882.2847
1187.461, 886.7760
1187.944, 884.5312
1188.426, 882.0110
1188.908, 888.8679
1189.390, 878.4457
1189.872, 885.1539
1190.354, 885.0238
1190.836, 888.0234
1191.318, 884.2463
1191.801, 882.5612
1192.283, 887.6562
1192.765, 888.9976
1193.247, 884.4403
1193.729, 871.1453
1194.211, 869.6070
1194.693, 874.6157
1195.175, 882.3831
1195.657, 882.2311
1196.140, 875.7908
1196.622, 867.6021
1197.104, 860.2865
1197.586, 860.1012
1198.068, 870.6194
1198.550, 879.8331
1199.032, 879.6520
1199.514, 876.7502
1199.996, 872.8442
1200.479, 869.8875
1200.961, 870.3007
1201.443, 872.0219
1201.925, 871.3099
1202.407, 868.6807
1202.889, 864.2666
1203.371, 872.3926
1203.853, 877.0759
1204.336, 878.5018
1204.818, 866.9119
1205.300, 872.1285
1205.782, 870.6098
1206.264, 868.8150
1206.746, 876.3971
1207.228, 866.7003
1207.710, 874.1336
1208.193, 874.7295
1208.675, 878.4545
1209.157, 875.4025
1209.639, 874.4437
1210.121, 880.2639
1210.603, 871.7566
1211.085, 870.8672
1211.567, 868.6182
1212.049, 866.7193
1212.531, 845.9796
1213.014, 862.4520
1213.496, 871.3521
1213.978, 873.0847
1214.460, 846.1838
1214.942, 856.2573
1215.424, 851.5133
1215.906, 846.1614
1216.388, 861.4391
1216.871, 838.7011
1217.353, 853.6514
1217.835, 853.5581
1218.317, 860.3498
1218.799, 852.2324
1219.281, 848.7198
1219.763, 860.1215
1220.245, 863.2649
1220.728, 853.4294
1221.210, 860.6589
1221.692, 837.4017
1222.174, 840.8971
1222.656, 855.9346
1223.138, 845.4366
1223.620, 855.6094
1224.102, 871.7213
1224.584, 877.8690
1225.067, 870.2999
1225.549, 858.0024
1226.031, 838.3298
1226.513, 827.3762
1226.995, 838.5041
1227.477, 849.1443
1227.959, 847.0127
1228.441, 843.2728
1228.923, 847.6237
1229.406, 854.5107
1229.888, 852.9520
1230.370, 844.5862
1230.852, 849.5408
1231.334, 868.6579
1231.816, 880.3368
1232.298, 883.2773
1232.780, 876.5205
1233.263, 861.2119
1233.745, 853.6901
1234.227, 863.5307
1234.709, 875.1069
1235.191, 870.5833
1235.673, 861.2523
1236.155, 858.4041
1236.637, 858.6569
1237.120, 858.4441
1237.602, 858.5330
1238.084, 861.7635
1238.566, 867.0267
1239.048, 868.6837
##END=



