##NAMES=Klyuchevskite
##RRUFFID=R070659
##IDEAL CHEMISTRY=K_3_Cu^2+^_3_Fe^3+^O_2_(S^6+^O_4_)_4_
##LOCALITY=Yadevitaya fumarole, Tolbachik volcano, Kamchatka Oblast', Far-Eastern Region, Russia
##OWNER=RRUFF
##SOURCE=Michael Scott
##DESCRIPTION=Clusters of dark green radiating prismatic crystals associated with langbeinite, co-type sample
##STATUS=The identification of this mineral has been confirmed by single-crystal X-ray diffraction.
##URL=rruff.info/R070659
90.38641, 1334.088
90.86853, 1321.501
91.35065, 1303.603
91.83276, 1293.555
92.31488, 1312.975
92.79700, 1376.868
93.27911, 1473.657
93.76123, 1544.441
94.24335, 1589.154
94.72546, 1610.330
95.20758, 1590.690
95.68970, 1533.608
96.17181, 1482.533
96.65393, 1456.508
97.13605, 1450.486
97.61816, 1449.439
98.10028, 1462.013
98.58240, 1475.383
99.06451, 1463.690
99.54663, 1411.265
100.0287, 1363.130
100.5109, 1355.994
100.9930, 1380.947
101.4751, 1407.095
101.9572, 1411.015
102.4393, 1392.143
102.9215, 1378.658
103.4036, 1380.909
103.8857, 1384.825
104.3678, 1384.341
104.8499, 1378.111
105.3320, 1368.029
105.8142, 1355.739
106.2963, 1335.233
106.7784, 1324.140
107.2605, 1329.366
107.7426, 1340.957
108.2247, 1350.025
108.7069, 1352.054
109.1890, 1347.826
109.6711, 1341.737
110.1532, 1328.342
110.6353, 1318.619
111.1174, 1315.276
111.5996, 1317.632
112.0817, 1324.899
112.5638, 1338.391
113.0459, 1359.352
113.5280, 1363.114
114.0101, 1332.980
114.4923, 1298.630
114.9744, 1285.569
115.4565, 1297.991
115.9386, 1313.546
116.4207, 1296.625
116.9028, 1244.806
117.3850, 1217.599
117.8671, 1253.398
118.3492, 1323.569
118.8313, 1363.524
119.3134, 1346.964
119.7955, 1306.416
120.2777, 1283.974
120.7598, 1281.478
121.2419, 1283.336
121.7240, 1277.687
122.2061, 1264.067
122.6882, 1251.465
123.1704, 1241.751
123.6525, 1235.110
124.1346, 1233.423
124.6167, 1238.438
125.0988, 1245.203
125.5809, 1243.624
126.0631, 1228.093
126.5452, 1214.121
127.0273, 1204.196
127.5094, 1198.301
127.9915, 1196.371
128.4736, 1198.301
128.9558, 1204.146
129.4379, 1214.854
129.9200, 1248.105
130.4021, 1269.516
130.8842, 1263.028
131.3663, 1235.838
131.8485, 1207.435
132.3306, 1196.771
132.8127, 1209.778
133.2948, 1214.942
133.7769, 1210.142
134.2590, 1200.962
134.7412, 1184.739
135.2233, 1163.043
135.7054, 1148.364
136.1875, 1161.118
136.6696, 1223.040
137.1517, 1264.879
137.6339, 1269.273
138.1160, 1255.453
138.5981, 1249.569
139.0802, 1262.302
139.5623, 1281.860
140.0444, 1280.188
140.5266, 1248.391
141.0087, 1221.325
141.4908, 1216.825
141.9729, 1230.530
142.4550, 1243.766
142.9371, 1247.316
143.4193, 1245.678
143.9014, 1248.539
144.3835, 1260.245
144.8656, 1271.662
145.3477, 1273.297
145.8298, 1264.033
146.3120, 1251.536
146.7941, 1226.663
147.2762, 1203.903
147.7583, 1204.745
148.2404, 1252.502
148.7225, 1322.916
149.2047, 1351.730
149.6868, 1313.310
150.1689, 1272.355
150.6510, 1254.366
151.1331, 1253.770
151.6152, 1260.712
152.0974, 1273.027
152.5795, 1290.541
153.0616, 1292.489
153.5437, 1252.351
154.0258, 1218.117
154.5080, 1208.794
154.9901, 1221.320
155.4722, 1240.086
155.9543, 1249.280
156.4364, 1246.861
156.9185, 1240.712
157.4007, 1219.958
157.8828, 1203.891
158.3649, 1209.831
158.8470, 1238.532
159.3291, 1271.625
159.8112, 1278.669
160.2934, 1223.691
160.7755, 1199.156
161.2576, 1231.749
161.7397, 1280.911
162.2218, 1305.372
162.7039, 1288.981
163.1861, 1248.050
163.6682, 1223.945
164.1503, 1225.441
164.6324, 1230.562
165.1145, 1240.665
165.5966, 1251.890
166.0788, 1255.696
166.5609, 1246.041
167.0430, 1227.860
167.5251, 1220.626
168.0072, 1229.182
168.4893, 1241.579
168.9715, 1256.049
169.4536, 1271.262
169.9357, 1279.959
170.4178, 1275.686
170.8999, 1260.821
171.3820, 1246.860
171.8642, 1230.669
172.3463, 1217.742
172.8284, 1219.352
173.3105, 1238.646
173.7926, 1248.523
174.2747, 1210.892
174.7569, 1150.381
175.2390, 1112.547
175.7211, 1122.265
176.2032, 1161.709
176.6853, 1198.326
177.1674, 1234.177
177.6496, 1261.785
178.1317, 1275.610
178.6138, 1278.813
179.0959, 1278.121
179.5780, 1276.935
180.0602, 1274.968
180.5423, 1269.503
181.0244, 1252.993
181.5065, 1242.028
181.9886, 1250.647
182.4707, 1273.657
182.9529, 1292.700
183.4350, 1284.588
183.9171, 1243.926
184.3992, 1228.040
184.8813, 1272.692
185.3634, 1317.736
185.8456, 1337.026
186.3277, 1329.676
186.8098, 1312.030
187.2919, 1303.457
187.7740, 1308.522
188.2561, 1309.726
188.7383, 1302.005
189.2204, 1294.025
189.7025, 1291.487
190.1846, 1295.471
190.6667, 1302.672
191.1488, 1308.033
191.6310, 1311.836
192.1131, 1312.757
192.5952, 1310.089
193.0773, 1305.305
193.5594, 1297.528
194.0415, 1286.798
194.5237, 1277.080
195.0058, 1277.383
195.4879, 1307.164
195.9700, 1324.476
196.4521, 1319.505
196.9342, 1304.477
197.4164, 1294.941
197.8985, 1298.315
198.3806, 1309.095
198.8627, 1308.152
199.3448, 1273.501
199.8270, 1253.213
200.3091, 1270.858
200.7912, 1307.766
201.2733, 1328.601
201.7554, 1311.963
202.2375, 1267.896
202.7197, 1245.921
203.2018, 1248.534
203.6839, 1264.896
204.1660, 1304.020
204.6481, 1356.910
205.1302, 1395.524
205.6124, 1402.070
206.0945, 1379.833
206.5766, 1356.715
207.0587, 1321.089
207.5408, 1294.472
208.0229, 1295.310
208.5051, 1320.719
208.9872, 1345.965
209.4693, 1352.968
209.9514, 1346.196
210.4335, 1348.295
210.9156, 1370.687
211.3978, 1395.279
211.8799, 1408.049
212.3620, 1408.678
212.8441, 1398.550
213.3262, 1367.130
213.8083, 1325.241
214.2905, 1303.469
214.7726, 1322.903
215.2547, 1358.279
215.7368, 1378.204
216.2189, 1380.469
216.7010, 1375.274
217.1832, 1365.531
217.6653, 1353.558
218.1474, 1343.969
218.6295, 1337.041
219.1116, 1333.707
219.5937, 1338.463
220.0759, 1356.772
220.5580, 1370.011
221.0401, 1355.957
221.5222, 1327.734
222.0043, 1313.194
222.4864, 1335.082
222.9686, 1381.382
223.4507, 1415.318
223.9328, 1434.892
224.4149, 1443.731
224.8970, 1440.194
225.3791, 1428.768
225.8613, 1419.910
226.3434, 1424.716
226.8255, 1439.360
227.3076, 1439.558
227.7897, 1410.276
228.2718, 1385.783
228.7540, 1387.220
229.2361, 1407.270
229.7182, 1426.407
230.2003, 1429.677
230.6824, 1418.050
231.1645, 1408.881
231.6467, 1407.285
232.1288, 1402.561
232.6109, 1383.969
233.0930, 1357.055
233.5751, 1337.808
234.0572, 1342.594
234.5394, 1372.363
235.0215, 1395.483
235.5036, 1402.008
235.9857, 1410.636
236.4678, 1433.288
236.9500, 1465.816
237.4321, 1493.675
237.9142, 1502.371
238.3963, 1489.592
238.8784, 1479.642
239.3605, 1475.627
239.8427, 1471.975
240.3248, 1464.816
240.8069, 1455.525
241.2890, 1449.348
241.7711, 1452.587
242.2532, 1467.630
242.7354, 1477.751
243.2175, 1488.625
243.6996, 1489.774
244.1817, 1469.247
244.6638, 1431.736
245.1459, 1394.433
245.6281, 1373.651
246.1102, 1370.220
246.5923, 1380.363
247.0744, 1421.708
247.5565, 1460.572
248.0386, 1482.286
248.5208, 1486.442
249.0029, 1480.860
249.4850, 1474.052
249.9671, 1468.340
250.4492, 1450.544
250.9313, 1403.505
251.4135, 1360.618
251.8956, 1338.657
252.3777, 1337.600
252.8598, 1346.210
253.3419, 1352.754
253.8240, 1355.447
254.3062, 1363.857
254.7883, 1384.718
255.2704, 1404.623
255.7525, 1414.480
256.2346, 1415.468
256.7167, 1417.107
257.1989, 1430.898
257.6810, 1463.556
258.1631, 1479.752
258.6452, 1464.029
259.1273, 1448.444
259.6094, 1453.888
260.0916, 1478.285
260.5737, 1502.539
261.0558, 1505.502
261.5379, 1479.322
262.0200, 1466.585
262.5021, 1477.250
262.9843, 1489.761
263.4664, 1492.590
263.9485, 1485.726
264.4306, 1475.769
264.9127, 1468.917
265.3948, 1465.152
265.8770, 1465.186
266.3591, 1473.137
266.8412, 1480.576
267.3233, 1484.051
267.8054, 1483.019
268.2875, 1476.813
268.7697, 1462.468
269.2518, 1435.160
269.7339, 1432.152
270.2160, 1476.773
270.6981, 1519.798
271.1802, 1537.189
271.6624, 1529.568
272.1445, 1509.470
272.6266, 1485.404
273.1087, 1454.501
273.5908, 1445.812
274.0729, 1472.129
274.5551, 1503.467
275.0372, 1529.691
275.5193, 1548.933
276.0014, 1560.744
276.4835, 1563.405
276.9656, 1555.719
277.4478, 1556.356
277.9299, 1571.137
278.4120, 1586.643
278.8941, 1601.840
279.3762, 1613.765
279.8583, 1613.918
280.3405, 1592.816
280.8226, 1549.561
281.3047, 1534.878
281.7868, 1579.066
282.2689, 1615.715
282.7510, 1611.008
283.2332, 1577.277
283.7153, 1549.558
284.1974, 1553.790
284.6795, 1587.729
285.1616, 1603.239
285.6437, 1581.998
286.1259, 1564.325
286.6080, 1565.495
287.0901, 1579.678
287.5722, 1593.526
288.0543, 1598.831
288.5364, 1596.461
289.0186, 1593.682
289.5007, 1585.252
289.9828, 1582.165
290.4649, 1592.363
290.9470, 1609.234
291.4291, 1621.108
291.9113, 1621.269
292.3934, 1612.164
292.8755, 1605.576
293.3576, 1601.982
293.8397, 1600.365
294.3218, 1606.269
294.8040, 1612.796
295.2861, 1606.937
295.7682, 1581.481
296.2503, 1546.248
296.7325, 1533.121
297.2146, 1570.826
297.6967, 1597.995
298.1788, 1608.826
298.6609, 1607.339
299.1430, 1595.463
299.6252, 1573.944
300.1073, 1548.709
300.5894, 1533.463
301.0715, 1541.578
301.5536, 1543.039
302.0357, 1530.171
302.5179, 1514.031
303.0000, 1506.562
303.4821, 1511.238
303.9642, 1521.255
304.4463, 1524.164
304.9284, 1514.753
305.4106, 1506.074
305.8927, 1490.275
306.3748, 1479.873
306.8569, 1489.536
307.3390, 1520.555
307.8211, 1557.210
308.3033, 1577.712
308.7854, 1579.495
309.2675, 1569.132
309.7496, 1528.126
310.2317, 1490.834
310.7138, 1479.701
311.1960, 1496.585
311.6781, 1528.621
312.1602, 1563.569
312.6423, 1604.251
313.1244, 1635.213
313.6065, 1664.947
314.0887, 1679.180
314.5708, 1658.967
315.0529, 1613.033
315.5350, 1571.152
316.0171, 1563.440
316.4992, 1594.248
316.9814, 1609.504
317.4635, 1588.831
317.9456, 1572.421
318.4277, 1577.082
318.9098, 1597.086
319.3919, 1617.329
319.8741, 1626.889
320.3562, 1626.382
320.8383, 1624.679
321.3204, 1621.862
321.8025, 1617.564
322.2846, 1610.121
322.7668, 1601.406
323.2489, 1594.053
323.7310, 1589.472
324.2131, 1587.644
324.6952, 1589.166
325.1773, 1599.163
325.6595, 1604.632
326.1416, 1595.136
326.6237, 1582.880
327.1058, 1585.263
327.5879, 1611.592
328.0700, 1645.823
328.5522, 1648.118
329.0343, 1591.833
329.5164, 1562.758
329.9985, 1604.356
330.4806, 1661.951
330.9627, 1688.189
331.4449, 1668.956
331.9270, 1630.257
332.4091, 1605.950
332.8912, 1597.004
333.3733, 1598.403
333.8554, 1629.370
334.3376, 1657.040
334.8197, 1652.497
335.3018, 1614.488
335.7839, 1579.455
336.2660, 1593.033
336.7481, 1657.429
337.2303, 1698.704
337.7124, 1691.611
338.1945, 1674.677
338.6766, 1674.007
339.1587, 1687.221
339.6408, 1694.824
340.1230, 1677.354
340.6051, 1640.486
341.0872, 1615.156
341.5693, 1605.970
342.0514, 1604.000
342.5335, 1603.966
343.0157, 1605.839
343.4978, 1609.735
343.9799, 1617.951
344.4620, 1627.802
344.9441, 1633.180
345.4262, 1633.025
345.9084, 1631.758
346.3905, 1631.373
346.8726, 1631.813
347.3547, 1633.159
347.8368, 1634.839
348.3189, 1637.961
348.8011, 1649.015
349.2832, 1668.503
349.7653, 1673.137
350.2474, 1639.522
350.7295, 1588.705
351.2116, 1561.387
351.6938, 1566.921
352.1759, 1583.438
352.6580, 1605.830
353.1401, 1629.988
353.6222, 1634.188
354.1043, 1601.840
354.5865, 1556.961
355.0686, 1545.075
355.5507, 1574.222
356.0328, 1601.812
356.5149, 1615.108
356.9970, 1616.448
357.4792, 1606.497
357.9613, 1583.509
358.4434, 1559.263
358.9255, 1551.381
359.4076, 1564.030
359.8897, 1569.287
360.3719, 1549.481
360.8540, 1529.521
361.3361, 1541.031
361.8182, 1585.339
362.3003, 1627.645
362.7824, 1634.009
363.2646, 1599.395
363.7467, 1577.037
364.2288, 1571.241
364.7109, 1572.482
365.1930, 1581.938
365.6751, 1595.215
366.1573, 1600.179
366.6394, 1587.142
367.1215, 1559.016
367.6036, 1542.472
368.0857, 1544.129
368.5678, 1548.779
369.0500, 1557.583
369.5321, 1566.359
370.0142, 1567.553
370.4963, 1557.512
370.9784, 1542.657
371.4605, 1539.866
371.9427, 1560.045
372.4248, 1576.780
372.9069, 1595.346
373.3890, 1606.491
373.8711, 1595.341
374.3532, 1561.301
374.8354, 1525.597
375.3175, 1520.991
375.7996, 1564.022
376.2817, 1586.871
376.7638, 1571.122
377.2459, 1551.557
377.7281, 1547.111
378.2102, 1555.428
378.6923, 1560.753
379.1744, 1546.350
379.6566, 1513.673
380.1387, 1495.552
380.6208, 1500.253
381.1029, 1510.004
381.5850, 1522.006
382.0671, 1533.336
382.5493, 1539.281
383.0314, 1536.982
383.5135, 1528.478
383.9956, 1515.252
384.4777, 1492.386
384.9598, 1480.032
385.4420, 1499.396
385.9241, 1527.606
386.4062, 1542.373
386.8883, 1537.328
387.3704, 1523.576
387.8525, 1506.981
388.3347, 1488.317
388.8168, 1482.750
389.2989, 1507.202
389.7810, 1532.181
390.2631, 1519.268
390.7452, 1465.837
391.2274, 1417.802
391.7095, 1395.043
392.1916, 1392.714
392.6737, 1406.545
393.1558, 1439.753
393.6379, 1471.184
394.1201, 1478.338
394.6022, 1462.764
395.0843, 1446.042
395.5664, 1432.474
396.0485, 1417.493
396.5306, 1389.942
397.0128, 1353.341
397.4949, 1332.017
397.9770, 1344.917
398.4591, 1386.568
398.9412, 1417.768
399.4233, 1438.838
399.9055, 1451.216
400.3876, 1450.827
400.8697, 1442.819
401.3518, 1435.655
401.8339, 1432.828
402.3160, 1432.009
402.7982, 1427.936
403.2803, 1409.330
403.7624, 1405.670
404.2445, 1436.903
404.7266, 1469.325
405.2087, 1470.985
405.6909, 1440.686
406.1730, 1405.448
406.6551, 1397.273
407.1372, 1422.496
407.6193, 1434.439
408.1014, 1424.276
408.5836, 1409.349
409.0657, 1391.647
409.5478, 1373.817
410.0299, 1359.977
410.5120, 1353.041
410.9941, 1351.667
411.4763, 1350.578
411.9584, 1347.861
412.4405, 1349.320
412.9226, 1361.044
413.4047, 1375.137
413.8868, 1383.980
414.3690, 1385.355
414.8511, 1380.732
415.3332, 1367.385
415.8153, 1344.579
416.2974, 1333.730
416.7795, 1346.247
417.2617, 1366.347
417.7438, 1382.204
418.2259, 1393.482
418.7080, 1398.349
419.1901, 1394.674
419.6722, 1384.037
420.1544, 1364.127
420.6365, 1330.133
421.1186, 1309.800
421.6007, 1342.204
422.0828, 1410.961
422.5649, 1442.713
423.0471, 1399.950
423.5292, 1342.320
424.0113, 1308.864
424.4934, 1296.718
424.9755, 1289.008
425.4576, 1276.474
425.9398, 1264.085
426.4219, 1268.374
426.9040, 1306.541
427.3861, 1332.118
427.8682, 1326.742
428.3503, 1309.545
428.8325, 1299.191
429.3146, 1301.095
429.7967, 1316.225
430.2788, 1349.744
430.7609, 1416.283
431.2430, 1446.510
431.7252, 1421.870
432.2073, 1386.030
432.6894, 1347.206
433.1715, 1314.272
433.6536, 1303.556
434.1357, 1330.631
434.6179, 1385.665
435.1000, 1415.940
435.5821, 1405.773
436.0642, 1393.373
436.5463, 1386.649
437.0284, 1382.435
437.5106, 1376.934
437.9927, 1368.872
438.4748, 1361.272
438.9569, 1359.920
439.4390, 1365.591
439.9211, 1364.829
440.4033, 1347.161
440.8854, 1331.042
441.3675, 1331.693
441.8496, 1347.336
442.3317, 1363.352
442.8138, 1375.641
443.2960, 1382.497
443.7781, 1378.381
444.2602, 1361.503
444.7423, 1344.301
445.2244, 1333.402
445.7065, 1328.922
446.1887, 1330.165
446.6708, 1346.815
447.1529, 1358.588
447.6350, 1344.722
448.1171, 1317.149
448.5992, 1309.931
449.0814, 1339.461
449.5635, 1380.656
450.0456, 1387.206
450.5277, 1339.206
451.0098, 1297.839
451.4919, 1260.686
451.9741, 1234.097
452.4562, 1229.170
452.9383, 1242.704
453.4204, 1256.226
453.9025, 1252.454
454.3846, 1231.301
454.8668, 1221.054
455.3489, 1238.441
455.8310, 1248.915
456.3131, 1242.673
456.7952, 1226.154
457.2773, 1206.976
457.7595, 1187.937
458.2416, 1171.540
458.7237, 1162.070
459.2058, 1160.096
459.6879, 1162.866
460.1700, 1174.418
460.6522, 1187.302
461.1343, 1196.811
461.6164, 1202.967
462.0985, 1209.130
462.5807, 1218.268
463.0628, 1229.029
463.5449, 1240.172
464.0270, 1254.526
464.5091, 1258.041
464.9912, 1233.306
465.4734, 1191.429
465.9555, 1159.804
466.4376, 1140.432
466.9197, 1133.136
467.4018, 1146.794
467.8839, 1173.186
468.3661, 1187.578
468.8482, 1179.684
469.3303, 1162.390
469.8124, 1158.289
470.2945, 1177.207
470.7766, 1183.563
471.2588, 1166.006
471.7409, 1142.866
472.2230, 1124.660
472.7051, 1113.562
473.1872, 1111.141
473.6693, 1120.457
474.1515, 1139.623
474.6336, 1145.845
475.1157, 1120.534
475.5978, 1104.664
476.0799, 1109.427
476.5620, 1124.922
477.0442, 1142.593
477.5263, 1159.419
478.0084, 1171.442
478.4905, 1173.117
478.9726, 1163.969
479.4547, 1148.633
479.9369, 1120.923
480.4190, 1094.285
480.9011, 1072.391
481.3832, 1057.571
481.8653, 1057.570
482.3474, 1091.980
482.8296, 1136.417
483.3117, 1148.445
483.7938, 1127.040
484.2759, 1108.422
484.7580, 1115.171
485.2401, 1134.236
485.7223, 1132.398
486.2044, 1098.462
486.6865, 1067.825
487.1686, 1044.300
487.6507, 1034.202
488.1328, 1056.991
488.6150, 1114.628
489.0971, 1170.023
489.5792, 1180.732
490.0613, 1138.829
490.5434, 1107.560
491.0255, 1091.014
491.5077, 1079.023
491.9898, 1066.493
492.4719, 1056.171
492.9540, 1054.319
493.4361, 1064.542
493.9182, 1081.000
494.4004, 1091.235
494.8825, 1094.241
495.3646, 1093.940
495.8467, 1088.264
496.3288, 1081.387
496.8109, 1075.244
497.2931, 1070.131
497.7752, 1066.032
498.2573, 1064.824
498.7394, 1064.505
499.2215, 1059.236
499.7036, 1048.307
500.1858, 1034.814
500.6679, 1014.901
501.1500, 995.3827
501.6321, 991.9797
502.1142, 1015.095
502.5963, 1037.964
503.0785, 1048.034
503.5606, 1048.625
504.0427, 1043.962
504.5248, 1034.928
505.0069, 1027.210
505.4890, 1028.063
505.9712, 1039.750
506.4533, 1049.615
506.9354, 1064.588
507.4175, 1071.167
507.8996, 1054.844
508.3817, 1026.359
508.8639, 1008.264
509.3460, 1013.150
509.8281, 1030.521
510.3102, 1033.660
510.7923, 1014.962
511.2744, 1001.756
511.7566, 1001.872
512.2387, 1005.430
512.7208, 1009.198
513.2029, 1011.670
513.6851, 1008.454
514.1672, 989.9391
514.6493, 964.2002
515.1314, 953.0375
515.6135, 958.2614
516.0956, 970.8091
516.5778, 991.3576
517.0599, 1014.077
517.5420, 1025.993
518.0241, 1023.945
518.5062, 1016.461
518.9883, 1006.479
519.4705, 993.6649
519.9526, 972.8334
520.4347, 943.4088
520.9168, 921.8054
521.3989, 927.7883
521.8810, 966.2062
522.3632, 993.3454
522.8453, 1009.955
523.3274, 1016.590
523.8095, 1006.149
524.2916, 987.7571
524.7737, 975.6129
525.2559, 976.0137
525.7380, 981.7072
526.2201, 979.7939
526.7022, 968.4924
527.1843, 957.6954
527.6664, 940.9993
528.1486, 932.9338
528.6307, 948.3232
529.1128, 980.9397
529.5949, 1007.383
530.0770, 1019.171
530.5591, 1016.727
531.0413, 993.0653
531.5234, 949.3232
532.0055, 914.9114
532.4876, 901.6277
532.9697, 906.0112
533.4518, 926.5301
533.9340, 975.9630
534.4161, 1001.929
534.8982, 973.7742
535.3803, 931.5225
535.8624, 913.5185
536.3445, 920.9584
536.8267, 930.8774
537.3088, 924.0666
537.7909, 904.3137
538.2730, 904.9238
538.7551, 958.0609
539.2372, 986.3970
539.7194, 959.5611
540.2015, 915.5765
540.6836, 888.0187
541.1657, 884.4479
541.6478, 893.9871
542.1299, 915.0027
542.6121, 943.6046
543.0942, 947.1290
543.5763, 913.0091
544.0584, 880.3555
544.5405, 876.6304
545.0226, 891.6537
545.5048, 906.4761
545.9869, 919.2057
546.4690, 930.3055
546.9511, 943.5529
547.4332, 954.9303
547.9153, 952.1483
548.3975, 931.5428
548.8796, 910.5110
549.3617, 910.6433
549.8438, 936.8853
550.3259, 953.9865
550.8080, 962.2769
551.2902, 962.7718
551.7723, 952.5421
552.2544, 935.6920
552.7365, 916.0856
553.2186, 895.2351
553.7007, 878.4161
554.1829, 879.0153
554.6650, 901.6525
555.1471, 906.5753
555.6292, 873.0004
556.1113, 839.4815
556.5934, 831.8018
557.0756, 844.6036
557.5577, 859.5496
558.0398, 871.0213
558.5219, 880.9227
559.0040, 897.4836
559.4861, 916.5608
559.9683, 912.5030
560.4504, 870.3609
560.9325, 817.0099
561.4146, 797.0428
561.8967, 824.2561
562.3788, 849.1689
562.8610, 876.8187
563.3431, 897.1737
563.8252, 896.0001
564.3073, 882.3799
564.7894, 880.1817
565.2715, 904.5256
565.7537, 941.9940
566.2358, 961.1931
566.7179, 961.5977
567.2000, 944.6927
567.6821, 880.7118
568.1642, 823.6450
568.6464, 813.9755
569.1285, 845.5646
569.6106, 875.7073
570.0927, 880.8345
570.5748, 872.6354
571.0569, 865.0275
571.5391, 858.3033
572.0212, 857.3816
572.5033, 867.8402
572.9854, 880.3047
573.4675, 873.5900
573.9496, 835.9001
574.4318, 811.4247
574.9139, 816.7672
575.3960, 826.7391
575.8781, 820.0530
576.3602, 800.3589
576.8423, 785.7379
577.3245, 788.5126
577.8066, 803.1042
578.2887, 812.4614
578.7708, 817.4883
579.2529, 815.0325
579.7350, 792.4666
580.2172, 771.2959
580.6993, 767.0206
581.1814, 778.9276
581.6635, 793.6796
582.1456, 805.0797
582.6277, 814.2637
583.1099, 825.1577
583.5920, 837.3018
584.0741, 840.2017
584.5562, 826.8800
585.0383, 804.2645
585.5204, 786.9258
586.0026, 775.0490
586.4847, 767.6354
586.9668, 763.9805
587.4489, 765.3341
587.9310, 778.1130
588.4131, 797.3847
588.8953, 807.6426
589.3774, 797.4103
589.8595, 776.0100
590.3416, 773.8958
590.8237, 801.3381
591.3058, 817.9078
591.7880, 802.6548
592.2701, 784.6271
592.7522, 785.7719
593.2343, 804.1915
593.7164, 819.6113
594.1985, 819.7363
594.6807, 813.4773
595.1628, 812.6091
595.6449, 816.3502
596.1270, 818.8718
596.6091, 818.7604
597.0912, 813.3143
597.5734, 795.4669
598.0555, 749.9509
598.5376, 728.3969
599.0197, 753.5167
599.5018, 781.7321
599.9839, 782.9200
600.4661, 766.1334
600.9482, 758.9370
601.4303, 777.7021
601.9124, 807.5923
602.3945, 817.2593
602.8766, 802.9310
603.3588, 791.6628
603.8409, 789.6338
604.3230, 789.9042
604.8051, 787.4827
605.2872, 782.6864
605.7693, 776.9285
606.2515, 765.9995
606.7336, 758.3018
607.2157, 768.4857
607.6978, 787.7620
608.1799, 786.9337
608.6620, 754.4595
609.1442, 715.3475
609.6263, 706.8516
610.1084, 739.1600
610.5905, 759.6804
611.0726, 759.5720
611.5547, 758.2820
612.0369, 763.6378
612.5190, 771.9407
613.0011, 777.2779
613.4832, 777.5358
613.9653, 773.5272
614.4474, 766.1146
614.9296, 755.3188
615.4117, 738.3175
615.8938, 709.5987
616.3759, 689.3439
616.8580, 698.8859
617.3401, 730.5811
617.8223, 750.6762
618.3044, 751.3774
618.7865, 747.7582
619.2686, 750.1310
619.7507, 749.3312
620.2328, 725.7369
620.7150, 679.4664
621.1971, 639.4180
621.6792, 636.0156
622.1613, 666.5188
622.6434, 684.4480
623.1255, 679.2745
623.6077, 679.0535
624.0898, 691.6662
624.5719, 711.6931
625.0540, 739.8449
625.5361, 775.7048
626.0182, 798.7100
626.5004, 785.6299
626.9825, 755.7910
627.4646, 744.1811
627.9467, 751.4471
628.4288, 755.1821
628.9109, 742.2728
629.3931, 719.5016
629.8752, 704.3944
630.3573, 702.0189
630.8394, 699.3073
631.3215, 698.9438
631.8036, 695.8979
632.2858, 683.2404
632.7679, 665.0473
633.2500, 652.1208
633.7321, 650.8408
634.2142, 657.3851
634.6964, 666.2119
635.1785, 677.6360
635.6606, 685.6915
636.1427, 689.6830
636.6248, 689.1816
637.1069, 681.9310
637.5891, 669.1827
638.0712, 656.7468
638.5533, 645.6192
639.0354, 634.9118
639.5175, 619.3449
639.9996, 605.1432
640.4818, 605.0535
640.9639, 621.9770
641.4460, 644.5986
641.9281, 660.2180
642.4102, 668.7094
642.8923, 673.5742
643.3745, 676.0840
643.8566, 672.7023
644.3387, 653.0441
644.8208, 632.2800
645.3029, 630.9504
645.7850, 654.0346
646.2672, 674.5444
646.7493, 672.7344
647.2314, 658.2484
647.7135, 643.0458
648.1956, 629.0592
648.6777, 626.7978
649.1599, 645.2319
649.6420, 674.6702
650.1241, 687.3052
650.6062, 667.8937
651.0883, 656.3958
651.5704, 658.6455
652.0526, 663.2254
652.5347, 660.2369
653.0168, 653.9496
653.4989, 658.4117
653.9810, 685.1190
654.4631, 714.5722
654.9453, 710.8053
655.4274, 677.3593
655.9095, 660.4516
656.3916, 673.1794
656.8737, 694.3799
657.3558, 709.1430
657.8380, 716.2364
658.3201, 707.8686
658.8022, 664.1470
659.2843, 628.4291
659.7664, 618.3900
660.2485, 622.8065
660.7307, 631.5099
661.2128, 640.6821
661.6949, 646.2419
662.1770, 643.6849
662.6591, 634.2123
663.1412, 624.0124
663.6234, 611.0302
664.1055, 604.0066
664.5876, 611.9706
665.0697, 622.9116
665.5518, 618.2812
666.0339, 596.0588
666.5161, 588.7809
666.9982, 626.1906
667.4803, 665.7892
667.9625, 667.6467
668.4446, 642.1081
668.9267, 620.0455
669.4088, 614.6956
669.8909, 619.6024
670.3730, 625.2197
670.8552, 631.7949
671.3373, 637.6422
671.8194, 641.7230
672.3015, 646.3907
672.7836, 655.1313
673.2657, 664.1059
673.7479, 668.4381
674.2300, 667.7816
674.7121, 659.2324
675.1942, 633.6144
675.6763, 601.9277
676.1584, 580.4635
676.6406, 570.9184
677.1227, 571.4652
677.6048, 582.3336
678.0869, 599.5710
678.5690, 610.4019
679.0511, 613.1240
679.5333, 612.4276
680.0154, 600.8011
680.4975, 593.2202
680.9796, 603.2601
681.4617, 623.9738
681.9438, 636.1611
682.4260, 628.3713
682.9081, 615.7682
683.3902, 619.4774
683.8723, 632.1913
684.3544, 625.3195
684.8365, 591.6260
685.3187, 557.9099
685.8008, 547.7255
686.2829, 559.2061
686.7650, 570.1650
687.2471, 585.2972
687.7292, 593.5920
688.2114, 589.2872
688.6935, 581.0923
689.1756, 574.4500
689.6577, 570.6753
690.1398, 570.6475
690.6219, 577.6735
691.1041, 586.1274
691.5862, 585.4041
692.0683, 576.2560
692.5504, 566.9594
693.0325, 559.3562
693.5146, 554.0097
693.9968, 552.0827
694.4789, 554.0096
694.9610, 554.1470
695.4431, 550.2769
695.9252, 547.4520
696.4073, 547.7142
696.8895, 549.4475
697.3716, 550.0792
697.8537, 549.5491
698.3358, 551.2199
698.8179, 560.6648
699.3000, 573.7869
699.7822, 577.8062
700.2643, 572.3051
700.7464, 566.5297
701.2285, 563.1471
701.7106, 562.3026
702.1927, 566.3565
702.6749, 578.7083
703.1570, 577.7798
703.6391, 545.9678
704.1212, 519.8084
704.6033, 518.1240
705.0854, 530.6823
705.5676, 546.6360
706.0497, 561.3217
706.5318, 565.2990
707.0139, 537.0709
707.4960, 488.2561
707.9781, 474.6999
708.4603, 502.1013
708.9424, 526.2739
709.4245, 526.3929
709.9066, 514.2935
710.3887, 510.6074
710.8708, 517.1545
711.3530, 524.4011
711.8351, 539.9689
712.3172, 547.8239
712.7993, 528.2068
713.2814, 498.3269
713.7635, 491.4484
714.2457, 518.3408
714.7278, 547.8888
715.2099, 538.7203
715.6920, 499.2557
716.1741, 474.1468
716.6563, 464.6984
717.1384, 473.9278
717.6205, 514.3945
718.1026, 565.2411
718.5847, 580.7968
719.0668, 547.9940
719.5490, 524.0665
720.0311, 521.2040
720.5132, 520.8520
720.9953, 510.9243
721.4774, 496.1912
721.9595, 487.6524
722.4417, 489.4889
722.9238, 492.2366
723.4059, 480.2725
723.8880, 458.2828
724.3701, 453.3800
724.8522, 469.1671
725.3344, 487.4590
725.8165, 501.1908
726.2986, 509.2516
726.7807, 507.2064
727.2628, 486.1992
727.7449, 478.2983
728.2271, 494.5450
728.7092, 514.8791
729.1913, 535.0703
729.6734, 549.5771
730.1555, 546.6840
730.6376, 521.7794
731.1198, 495.2293
731.6019, 492.8916
732.0840, 507.8748
732.5661, 513.8049
733.0482, 508.5451
733.5303, 499.5589
734.0125, 488.4670
734.4946, 478.9323
734.9767, 479.9072
735.4588, 500.6649
735.9409, 510.3723
736.4230, 500.2556
736.9052, 488.4009
737.3873, 485.6926
737.8694, 486.3782
738.3515, 477.4250
738.8336, 454.1884
739.3157, 434.4212
739.7979, 441.7690
740.2800, 464.0652
740.7621, 467.8865
741.2442, 451.8156
741.7263, 435.7632
742.2084, 428.3475
742.6906, 429.6530
743.1727, 441.3354
743.6548, 471.4771
744.1369, 488.4573
744.6190, 485.7991
745.1011, 478.2328
745.5833, 470.7923
746.0654, 461.9169
746.5475, 447.0201
747.0296, 424.6801
747.5117, 405.9419
747.9938, 397.4049
748.4760, 398.2458
748.9581, 413.0358
749.4402, 438.2729
749.9223, 453.5662
750.4044, 449.4509
750.8865, 433.9510
751.3687, 417.8478
751.8508, 398.0277
752.3329, 395.7062
752.8150, 428.8259
753.2971, 456.0345
753.7792, 463.0603
754.2614, 458.7546
754.7435, 449.7730
755.2256, 436.8820
755.7077, 431.9103
756.1898, 449.4305
756.6719, 470.5202
757.1541, 478.3350
757.6362, 473.7778
758.1183, 458.7343
758.6004, 434.2579
759.0825, 410.6425
759.5646, 400.8702
760.0468, 404.7344
760.5289, 411.0038
761.0110, 421.4968
761.4931, 430.0093
761.9752, 434.3599
762.4573, 435.8648
762.9395, 436.1896
763.4216, 435.3504
763.9037, 432.2416
764.3858, 426.8962
764.8679, 418.9252
765.3500, 402.7374
765.8322, 386.0133
766.3143, 381.9164
766.7964, 392.0386
767.2785, 405.1642
767.7606, 412.3353
768.2427, 414.0197
768.7249, 408.3747
769.2070, 393.7672
769.6891, 393.2609
770.1712, 418.7147
770.6533, 449.0500
771.1354, 464.4042
771.6176, 464.4994
772.0997, 457.3409
772.5818, 434.1028
773.0639, 415.3520
773.5460, 408.9997
774.0281, 406.7488
774.5103, 398.8119
774.9924, 387.0105
775.4745, 383.4900
775.9566, 400.2959
776.4387, 419.7113
776.9208, 408.7660
777.4030, 378.7591
777.8851, 380.7238
778.3672, 425.4593
778.8493, 462.9864
779.3314, 452.4840
779.8135, 405.8186
780.2957, 377.2252
780.7778, 376.3034
781.2599, 375.1217
781.7420, 366.7684
782.2241, 362.9877
782.7062, 379.9015
783.1884, 404.4205
783.6705, 404.8169
784.1526, 362.9282
784.6347, 325.5691
785.1168, 323.4254
785.5989, 341.2746
786.0811, 366.9704
786.5632, 394.7639
787.0453, 411.1260
787.5274, 408.8316
788.0095, 395.6711
788.4916, 382.5895
788.9738, 368.7997
789.4559, 367.4246
789.9380, 383.8683
790.4201, 400.4286
790.9022, 408.6029
791.3843, 411.9677
791.8665, 418.9878
792.3486, 433.2671
792.8307, 433.9363
793.3128, 405.2263
793.7949, 375.4969
794.2770, 358.6574
794.7592, 351.3067
795.2413, 347.2599
795.7234, 344.9330
796.2055, 346.8727
796.6876, 360.9117
797.1697, 378.7419
797.6519, 379.5215
798.1340, 364.6682
798.6161, 348.5540
799.0982, 334.4759
799.5803, 327.3033
800.0624, 335.1844
800.5446, 357.7558
801.0267, 363.7395
801.5088, 332.7850
801.9909, 316.6538
802.4730, 332.5757
802.9551, 356.7879
803.4373, 376.6808
803.9194, 389.7993
804.4015, 392.0859
804.8836, 379.0495
805.3657, 359.5625
805.8478, 328.4612
806.3300, 300.0851
806.8121, 299.4764
807.2942, 324.8268
807.7763, 352.4608
808.2584, 367.9523
808.7405, 373.8056
809.2227, 373.8111
809.7048, 367.8275
810.1869, 360.4642
810.6690, 349.8884
811.1511, 345.7160
811.6332, 360.2858
812.1154, 381.5568
812.5975, 376.6164
813.0796, 326.4344
813.5617, 300.4947
814.0438, 324.3531
814.5259, 349.5775
815.0081, 354.7462
815.4902, 345.3516
815.9723, 326.9090
816.4544, 301.8195
816.9365, 286.6691
817.4186, 303.0327
817.9008, 331.5146
818.3829, 343.2852
818.8650, 341.1382
819.3471, 338.0592
819.8292, 338.1690
820.3113, 339.8096
820.7935, 341.6124
821.2756, 343.3064
821.7577, 340.9752
822.2398, 331.1550
822.7219, 327.2904
823.2040, 335.3824
823.6862, 347.0671
824.1683, 361.2054
824.6504, 374.4003
825.1325, 369.7283
825.6146, 319.0457
826.0967, 285.7279
826.5789, 309.8485
827.0610, 341.5678
827.5431, 326.5017
828.0252, 279.0761
828.5073, 254.4836
828.9894, 281.2220
829.4716, 323.6296
829.9537, 344.2790
830.4358, 346.6704
830.9180, 336.6992
831.4001, 315.8261
831.8822, 297.9827
832.3643, 289.7384
832.8464, 288.7203
833.3286, 291.8519
833.8107, 300.6656
834.2928, 302.3825
834.7749, 280.7859
835.2570, 278.2477
835.7391, 336.7580
836.2213, 403.0456
836.7034, 420.1403
837.1855, 387.3406
837.6676, 361.8598
838.1497, 367.1831
838.6318, 371.7544
839.1140, 355.5568
839.5961, 332.2680
840.0782, 317.0230
840.5603, 312.6888
841.0424, 317.9619
841.5245, 334.4889
842.0067, 354.3603
842.4888, 366.2794
842.9709, 370.8918
843.4530, 370.8647
843.9351, 366.5667
844.4172, 358.9272
844.8994, 348.3383
845.3815, 335.0169
845.8636, 316.4879
846.3457, 281.7309
846.8278, 276.8180
847.3099, 327.1417
847.7921, 372.8037
848.2742, 386.0702
848.7563, 382.2638
849.2384, 380.7801
849.7205, 383.9679
850.2026, 378.7263
850.6848, 351.5990
851.1669, 325.7761
851.6490, 313.2263
852.1311, 310.9927
852.6132, 316.9549
853.0953, 328.9445
853.5775, 341.1495
854.0596, 352.7761
854.5417, 357.5749
855.0238, 336.0748
855.5059, 297.3673
855.9880, 283.2774
856.4702, 301.2372
856.9523, 323.3612
857.4344, 329.7238
857.9165, 324.7903
858.3986, 321.0151
858.8807, 317.2129
859.3629, 319.3352
859.8450, 332.8268
860.3271, 344.3045
860.8092, 347.6321
861.2913, 344.5159
861.7734, 335.5719
862.2556, 318.2634
862.7377, 308.6055
863.2198, 311.3531
863.7019, 320.3215
864.1840, 340.5632
864.6661, 360.8155
865.1483, 365.0275
865.6304, 352.2331
866.1125, 337.3907
866.5946, 330.2997
867.0767, 326.2606
867.5588, 321.2901
868.0410, 314.2774
868.5231, 297.4131
869.0052, 271.5299
869.4873, 257.2728
869.9694, 270.6101
870.4515, 300.7583
870.9337, 323.4656
871.4158, 339.1241
871.8979, 339.9445
872.3800, 316.1319
872.8621, 303.3543
873.3442, 329.1266
873.8264, 369.6093
874.3085, 379.2646
874.7906, 347.3101
875.2727, 323.0779
875.7548, 311.1627
876.2369, 301.4478
876.7191, 291.0715
877.2012, 280.9389
877.6833, 270.8196
878.1654, 261.4977
878.6475, 256.7818
879.1296, 260.2128
879.6118, 266.5933
880.0939, 271.4483
880.5760, 277.0807
881.0581, 288.8081
881.5402, 305.3006
882.0223, 319.6940
882.5045, 328.5420
882.9866, 329.9323
883.4687, 316.6154
883.9508, 292.0620
884.4329, 276.1064
884.9150, 270.1649
885.3972, 268.5299
885.8793, 268.8342
886.3614, 271.8047
886.8435, 278.3886
887.3256, 288.5668
887.8077, 304.3449
888.2899, 338.1721
888.7720, 354.8571
889.2541, 331.5034
889.7362, 300.6533
890.2183, 288.3449
890.7004, 291.5163
891.1826, 294.2583
891.6647, 294.5903
892.1468, 294.0971
892.6289, 290.9343
893.1110, 289.1132
893.5931, 295.1035
894.0753, 304.2876
894.5574, 305.4147
895.0395, 294.2097
895.5216, 282.4735
896.0037, 278.8135
896.4858, 281.0018
896.9680, 286.8514
897.4501, 295.6914
897.9322, 309.1398
898.4143, 326.5545
898.8964, 335.8581
899.3785, 322.6849
899.8607, 295.0182
900.3428, 280.4998
900.8249, 279.6022
901.3070, 279.4148
901.7891, 276.7639
902.2712, 279.2100
902.7534, 293.8803
903.2355, 315.7311
903.7176, 330.9123
904.1997, 340.6038
904.6818, 340.3399
905.1639, 320.5692
905.6461, 302.6764
906.1282, 290.9024
906.6103, 286.7252
907.0924, 295.9174
907.5745, 318.7446
908.0566, 332.8830
908.5388, 325.0879
909.0209, 317.2119
909.5030, 323.9220
909.9851, 331.9664
910.4672, 325.1090
910.9493, 305.6086
911.4315, 286.3513
911.9136, 270.9324
912.3957, 266.8538
912.8778, 293.6627
913.3599, 330.6891
913.8420, 341.6735
914.3242, 328.2693
914.8063, 306.1028
915.2884, 281.8227
915.7705, 265.4357
916.2526, 273.0643
916.7347, 298.6474
917.2169, 310.1334
917.6990, 307.1558
918.1811, 302.4951
918.6632, 298.5624
919.1453, 296.7793
919.6274, 298.5594
920.1096, 303.3314
920.5917, 308.8271
921.0738, 316.4312
921.5559, 321.7426
922.0380, 328.6278
922.5201, 327.6705
923.0023, 304.3950
923.4844, 275.0923
923.9665, 264.8592
924.4486, 276.7755
924.9307, 290.0864
925.4128, 306.5056
925.8950, 318.3253
926.3771, 320.2933
926.8592, 317.8577
927.3413, 317.5501
927.8234, 318.4781
928.3055, 313.0759
928.7877, 292.8016
929.2698, 277.5471
929.7519, 289.7608
930.2340, 309.4270
930.7161, 308.4015
931.1982, 292.8548
931.6804, 290.1273
932.1625, 309.9429
932.6446, 327.4644
933.1267, 306.9504
933.6088, 267.4852
934.0909, 261.0406
934.5731, 281.6558
935.0552, 293.4620
935.5373, 287.9344
936.0194, 284.4117
936.5015, 299.5538
936.9836, 326.4003
937.4658, 345.5477
937.9479, 357.1831
938.4300, 357.8448
938.9121, 342.1925
939.3942, 333.8836
939.8763, 351.1366
940.3585, 372.6918
940.8406, 360.1496
941.3227, 305.3929
941.8048, 278.3768
942.2869, 304.8229
942.7690, 321.3453
943.2512, 296.3705
943.7333, 274.9822
944.2154, 302.3612
944.6975, 362.0858
945.1796, 394.0966
945.6617, 377.4753
946.1439, 358.2544
946.6260, 346.3186
947.1081, 337.3796
947.5902, 328.9313
948.0723, 321.3742
948.5544, 313.7583
949.0366, 306.5311
949.5187, 307.5825
950.0008, 327.2538
950.4829, 351.3979
950.9650, 372.1820
951.4471, 386.9543
951.9293, 389.0723
952.4114, 380.5534
952.8935, 371.7820
953.3756, 368.2614
953.8577, 367.8604
954.3398, 368.8233
954.8220, 370.5560
955.3041, 368.1289
955.7862, 363.7114
956.2683, 375.3300
956.7504, 408.9534
957.2325, 438.3957
957.7147, 432.5502
958.1968, 404.2120
958.6789, 411.0431
959.1610, 455.8092
959.6431, 477.6047
960.1252, 463.5410
960.6074, 444.2272
961.0895, 434.3975
961.5716, 437.9235
962.0537, 467.1752
962.5358, 533.0435
963.0179, 565.3760
963.5001, 547.4791
963.9822, 528.9703
964.4643, 521.8464
964.9464, 521.8113
965.4285, 525.9316
965.9106, 533.9462
966.3928, 543.2149
966.8749, 549.2062
967.3570, 563.2186
967.8391, 598.7180
968.3212, 628.9865
968.8033, 639.4235
969.2855, 635.9905
969.7676, 624.7382
970.2497, 605.9646
970.7318, 597.2407
971.2139, 620.9203
971.6960, 636.1095
972.1782, 607.3232
972.6603, 569.8651
973.1424, 569.7010
973.6245, 597.3027
974.1066, 605.9935
974.5887, 572.9288
975.0709, 534.6173
975.5530, 515.4693
976.0351, 508.3595
976.5172, 511.5919
976.9993, 518.4349
977.4814, 516.2293
977.9636, 501.8671
978.4457, 479.1060
978.9278, 444.4198
979.4099, 413.7310
979.8920, 422.1669
980.3741, 453.4852
980.8563, 459.6303
981.3384, 438.5265
981.8205, 418.8896
982.3026, 414.8996
982.7847, 416.1744
983.2668, 405.8359
983.7490, 387.8853
984.2311, 386.2012
984.7132, 400.4987
985.1953, 415.4900
985.6774, 427.8556
986.1595, 436.4339
986.6417, 439.7601
987.1238, 439.8011
987.6059, 443.6128
988.0880, 453.0565
988.5701, 450.1292
989.0522, 426.8229
989.5344, 418.3471
990.0165, 446.4977
990.4986, 481.1263
990.9807, 483.7855
991.4628, 456.1702
991.9449, 439.5180
992.4271, 441.9691
992.9092, 437.8362
993.3913, 413.8587
993.8734, 396.8441
994.3555, 413.7067
994.8376, 443.2424
995.3198, 439.1944
995.8019, 389.4295
996.2841, 364.8047
996.7662, 392.1313
997.2483, 413.3564
997.7304, 408.7050
998.2125, 396.0813
998.6946, 387.2694
999.1768, 383.3232
999.6589, 385.6226
1000.141, 400.7346
1000.623, 405.9651
1001.105, 380.3027
1001.587, 359.0897
1002.069, 369.3097
1002.552, 392.8269
1003.034, 406.2124
1003.516, 406.3900
1003.998, 401.5710
1004.480, 389.7367
1004.962, 382.1775
1005.444, 392.3089
1005.926, 404.1904
1006.409, 398.2531
1006.891, 381.5431
1007.373, 371.3273
1007.855, 372.8898
1008.337, 381.5977
1008.819, 405.6797
1009.301, 424.6181
1009.783, 404.7289
1010.265, 370.8902
1010.748, 370.7435
1011.230, 400.9958
1011.712, 419.8666
1012.194, 405.8246
1012.676, 386.0218
1013.158, 390.7084
1013.640, 409.6771
1014.122, 432.3121
1014.604, 452.2289
1015.087, 448.5855
1015.569, 419.2123
1016.051, 385.0764
1016.533, 359.9026
1017.015, 345.2443
1017.497, 348.4938
1017.979, 364.1257
1018.461, 372.5939
1018.944, 372.9843
1019.426, 367.5226
1019.908, 357.1164
1020.390, 352.8432
1020.872, 369.1435
1021.354, 396.9948
1021.836, 405.6150
1022.318, 396.4427
1022.800, 389.3755
1023.283, 386.8532
1023.765, 387.4646
1024.247, 390.4875
1024.729, 396.5164
1025.211, 407.7698
1025.693, 423.3029
1026.175, 432.3319
1026.657, 435.2095
1027.140, 425.2667
1027.622, 397.3748
1028.104, 374.6777
1028.586, 372.6528
1029.068, 386.0608
1029.550, 406.0780
1030.032, 435.2115
1030.514, 448.1972
1030.996, 441.0079
1031.479, 430.5518
1031.961, 418.1943
1032.443, 412.0487
1032.925, 423.8327
1033.407, 445.1128
1033.889, 441.2511
1034.371, 396.1895
1034.853, 374.5374
1035.335, 385.9724
1035.818, 401.9230
1036.300, 413.0601
1036.782, 423.6512
1037.264, 442.4283
1037.746, 466.6376
1038.228, 467.8644
1038.710, 422.6083
1039.192, 400.9153
1039.675, 426.2437
1040.157, 447.8506
1040.639, 440.4126
1041.121, 418.7634
1041.603, 400.8906
1042.085, 386.7142
1042.567, 378.0876
1043.049, 372.6266
1043.531, 376.2352
1044.014, 397.1398
1044.496, 419.1880
1044.978, 435.3465
1045.460, 446.1215
1045.942, 450.7222
1046.424, 447.3861
1046.906, 451.0935
1047.388, 469.9997
1047.870, 486.4954
1048.353, 505.5985
1048.835, 512.6147
1049.317, 485.3158
1049.799, 440.5961
1050.281, 417.7197
1050.763, 424.4208
1051.245, 435.7108
1051.727, 453.1071
1052.210, 467.3599
1052.692, 478.5569
1053.174, 482.5456
1053.656, 466.9036
1054.138, 441.4439
1054.620, 439.1336
1055.102, 477.8373
1055.584, 500.7704
1056.067, 477.1080
1056.549, 455.1551
1057.031, 459.9910
1057.513, 476.5853
1057.995, 494.6680
1058.477, 509.5324
1058.959, 507.7808
1059.441, 475.2134
1059.923, 452.3708
1060.406, 456.9129
1060.888, 469.1490
1061.370, 485.7164
1061.852, 498.1846
1062.334, 490.9483
1062.816, 467.8705
1063.298, 458.8699
1063.780, 483.6779
1064.262, 503.9231
1064.745, 499.5621
1065.227, 491.4433
1065.709, 494.4671
1066.191, 502.6257
1066.673, 505.3274
1067.155, 501.8849
1067.637, 500.9882
1068.119, 508.9109
1068.602, 515.1032
1069.084, 511.5320
1069.566, 507.9065
1070.048, 511.4828
1070.530, 520.4184
1071.012, 537.6879
1071.494, 561.0562
1071.976, 560.7982
1072.458, 497.3465
1072.941, 443.3711
1073.423, 436.9876
1073.905, 450.1818
1074.387, 467.9559
1074.869, 483.8251
1075.351, 487.2288
1075.833, 476.8676
1076.315, 475.7190
1076.797, 504.6628
1077.280, 531.4361
1077.762, 540.5108
1078.244, 539.7178
1078.726, 529.9777
1079.208, 518.1804
1079.690, 516.5781
1080.172, 527.9423
1080.655, 541.5240
1081.137, 554.9955
1081.619, 566.5020
1082.101, 577.2206
1082.583, 583.7755
1083.065, 584.0101
1083.547, 577.2339
1084.029, 558.0516
1084.511, 524.1872
1084.994, 505.3372
1085.476, 526.2643
1085.958, 550.9553
1086.440, 565.7056
1086.922, 570.9650
1087.404, 560.2913
1087.886, 542.5182
1088.368, 536.6506
1088.850, 547.7766
1089.333, 563.4208
1089.815, 588.4255
1090.297, 604.4736
1090.779, 597.4374
1091.261, 580.9772
1091.743, 563.5209
1092.225, 548.4487
1092.707, 540.7734
1093.190, 542.2142
1093.672, 545.1171
1094.154, 546.7933
1094.636, 549.1291
1095.118, 553.1436
1095.600, 558.1221
1096.082, 564.1716
1096.564, 570.4629
1097.047, 574.8318
1097.529, 576.4236
1098.011, 579.2653
1098.493, 586.0078
1098.975, 592.5001
1099.457, 602.8663
1099.939, 607.1091
1100.421, 588.3184
1100.903, 558.1676
1101.385, 546.1072
1101.868, 560.2285
1102.350, 574.3624
1102.832, 578.4633
1103.314, 586.0871
1103.796, 610.7072
1104.278, 633.2467
1104.760, 635.1979
1105.242, 623.2731
1105.725, 614.6159
1106.207, 611.5482
1106.689, 610.9141
1107.171, 610.2796
1107.653, 614.5377
1108.135, 632.5881
1108.617, 649.0816
1109.099, 654.1022
1109.582, 648.3064
1110.064, 630.6282
1110.546, 595.1063
1111.028, 578.0963
1111.510, 599.3629
1111.992, 616.7047
1112.474, 616.4374
1112.956, 613.5208
1113.438, 618.7851
1113.921, 628.5533
1114.403, 633.2023
1114.885, 629.6929
1115.367, 636.2141
1115.849, 674.4438
1116.331, 688.9293
1116.813, 650.2133
1117.295, 610.2563
1117.777, 598.7440
1118.260, 608.3904
1118.742, 627.4855
1119.224, 657.7791
1119.706, 683.6774
1120.188, 710.1561
1120.670, 720.2468
1121.152, 700.1133
1121.634, 682.7502
1122.117, 691.1909
1122.599, 709.5693
1123.081, 709.2390
1123.563, 689.2653
1124.045, 678.8776
1124.527, 680.0802
1125.009, 685.4567
1125.491, 697.3191
1125.974, 702.7755
1126.456, 691.3781
1126.938, 677.3243
1127.420, 683.0855
1127.902, 706.8478
1128.384, 722.1696
1128.866, 727.8998
1129.348, 734.3621
1129.830, 744.5566
1130.313, 741.7552
1130.795, 713.3128
1131.277, 689.7544
1131.759, 716.1900
1132.241, 777.2076
1132.723, 789.5959
1133.205, 753.8932
1133.687, 727.9324
1134.169, 717.5145
1134.652, 723.2410
1135.134, 746.4246
1135.616, 770.6203
1136.098, 777.6686
1136.580, 773.7047
1137.062, 776.1955
1137.544, 783.3328
1138.026, 784.5087
1138.509, 779.5033
1138.991, 772.9673
1139.473, 766.5733
1139.955, 761.1940
1140.437, 757.3580
1140.919, 755.4711
1141.401, 752.0131
1141.883, 752.4922
1142.365, 780.3998
1142.848, 825.1600
1143.330, 844.4977
1143.812, 830.7779
1144.294, 814.2585
1144.776, 816.0457
1145.258, 821.0136
1145.740, 805.4247
1146.222, 786.3289
1146.704, 793.1431
1147.187, 815.0557
1147.669, 826.7540
1148.151, 825.9441
1148.633, 828.2856
1149.115, 842.7523
1149.597, 855.4163
1150.079, 852.1718
1150.561, 845.6879
1151.044, 848.3569
1151.526, 854.5703
1152.008, 855.1202
1152.490, 851.1942
1152.972, 852.2424
1153.454, 863.1176
1153.936, 866.0713
1154.418, 838.1759
1154.901, 818.1697
1155.383, 838.6707
1155.865, 866.7435
1156.347, 867.7438
1156.829, 851.9089
1157.311, 848.8351
1157.793, 864.6442
1158.275, 879.3084
1158.757, 889.1507
1159.240, 896.5028
1159.722, 896.7883
1160.204, 900.1288
1160.686, 921.7023
1161.168, 946.5416
1161.650, 944.0613
1162.132, 911.7354
1162.614, 900.1506
1163.096, 926.6319
1163.579, 941.9265
1164.061, 939.3743
1164.543, 929.6088
1165.025, 913.0738
1165.507, 896.4502
1165.989, 885.3273
1166.471, 881.3607
1166.953, 899.3599
1167.436, 948.5467
1167.918, 976.1438
1168.400, 976.3698
1168.882, 968.5944
1169.364, 957.3448
1169.846, 949.6884
1170.328, 953.1618
1170.810, 962.5402
1171.292, 963.2997
1171.775, 956.1905
1172.257, 954.4247
1172.739, 957.7587
1173.221, 954.3085
1173.703, 941.6559
1174.185, 930.9209
1174.667, 928.5917
1175.149, 937.3344
1175.631, 971.5298
1176.114, 1015.264
1176.596, 1024.427
1177.078, 1009.391
1177.560, 996.5536
1178.042, 991.7127
1178.524, 998.9475
1179.006, 1019.816
1179.488, 1039.452
1179.971, 1044.967
1180.453, 1042.285
1180.935, 1027.375
1181.417, 1015.821
1181.899, 1039.258
1182.381, 1080.949
1182.863, 1097.437
1183.345, 1080.622
1183.828, 1063.278
1184.310, 1060.225
1184.792, 1062.461
1185.274, 1063.339
1185.756, 1070.109
1186.238, 1100.690
1186.720, 1132.339
1187.202, 1125.643
1187.684, 1087.117
1188.167, 1074.615
1188.649, 1115.139
1189.131, 1142.986
1189.613, 1142.787
1190.095, 1137.754
1190.577, 1128.372
1191.059, 1124.166
1191.541, 1138.330
1192.023, 1160.791
1192.506, 1164.034
1192.988, 1143.033
1193.470, 1136.149
1193.952, 1149.083
1194.434, 1158.172
1194.916, 1158.529
1195.398, 1156.415
1195.880, 1153.801
1196.363, 1155.838
1196.845, 1174.267
1197.327, 1201.703
1197.809, 1187.026
1198.291, 1134.232
1198.773, 1130.418
1199.255, 1180.134
1199.737, 1213.839
1200.219, 1207.188
1200.702, 1192.613
1201.184, 1197.372
1201.666, 1213.768
1202.148, 1235.371
1202.630, 1255.897
1203.112, 1258.666
1203.594, 1249.255
1204.076, 1242.575
1204.558, 1241.536
1205.041, 1242.620
1205.523, 1244.219
1206.005, 1246.646
1206.487, 1253.100
1206.969, 1257.234
1207.451, 1248.834
1207.933, 1239.053
1208.415, 1244.414
1208.898, 1258.333
1209.380, 1260.933
1209.862, 1247.532
1210.344, 1241.856
1210.826, 1260.251
1211.308, 1272.834
1211.790, 1259.798
1212.272, 1252.921
1212.755, 1275.556
1213.237, 1310.517
1213.719, 1340.026
1214.201, 1362.985
1214.683, 1369.333
1215.165, 1348.362
1215.647, 1343.839
1216.129, 1367.535
1216.611, 1368.385
1217.094, 1321.440
1217.576, 1286.160
1218.058, 1311.640
1218.540, 1365.552
1219.022, 1383.513
1219.504, 1369.981
1219.986, 1362.683
1220.468, 1361.735
1220.950, 1370.696
1221.433, 1388.625
1221.915, 1401.813
1222.397, 1404.349
1222.879, 1404.255
1223.361, 1408.261
1223.843, 1415.774
1224.325, 1431.257
1224.807, 1446.125
1225.290, 1440.344
1225.772, 1424.720
1226.254, 1427.790
1226.736, 1450.758
1227.218, 1465.493
1227.700, 1454.947
1228.182, 1450.513
1228.664, 1480.296
1229.146, 1506.863
1229.629, 1504.971
1230.111, 1492.332
1230.593, 1480.259
1231.075, 1473.431
1231.557, 1483.176
1232.039, 1515.140
1232.521, 1530.066
1233.003, 1513.359
1233.485, 1505.275
1233.968, 1513.544
1234.450, 1524.374
1234.932, 1533.615
1235.414, 1538.523
1235.896, 1534.314
1236.378, 1524.816
1236.860, 1525.163
1237.342, 1535.398
1237.825, 1553.020
1238.307, 1577.287
1238.789, 1583.609
1239.271, 1567.531
1239.753, 1564.868
1240.235, 1599.337
1240.717, 1633.384
1241.199, 1602.625
1241.682, 1551.850
1242.164, 1570.027
1242.646, 1619.101
1243.128, 1627.723
1243.610, 1603.394
1244.092, 1586.809
1244.574, 1588.828
1245.056, 1596.838
1245.538, 1608.622
1246.021, 1617.161
1246.503, 1620.928
1246.985, 1618.132
1247.467, 1592.539
1247.949, 1571.489
1248.431, 1595.851
1248.913, 1650.921
1249.395, 1675.598
1249.878, 1659.459
1250.360, 1648.217
1250.842, 1644.350
1251.324, 1639.447
1251.806, 1631.298
1252.288, 1623.487
1252.770, 1615.884
1253.252, 1616.379
1253.734, 1638.687
1254.217, 1672.178
1254.699, 1669.891
1255.181, 1639.536
1255.663, 1646.608
1256.145, 1687.358
1256.627, 1714.806
1257.109, 1717.745
1257.591, 1707.493
1258.073, 1688.802
1258.556, 1678.492
1259.038, 1704.209
1259.520, 1736.913
1260.002, 1744.746
1260.484, 1740.401
1260.966, 1736.712
1261.448, 1736.470
1261.930, 1743.219
1262.413, 1756.660
1262.895, 1764.712
1263.377, 1757.236
1263.859, 1755.072
1264.341, 1771.958
1264.823, 1781.831
1265.305, 1757.593
1265.787, 1742.758
1266.270, 1784.731
1266.752, 1851.919
1267.234, 1864.576
1267.716, 1820.047
1268.198, 1808.068
1268.680, 1831.996
1269.162, 1843.640
1269.644, 1836.369
1270.126, 1832.938
1270.609, 1842.761
1271.091, 1851.560
1271.573, 1845.559
1272.055, 1832.552
1272.537, 1821.470
1273.019, 1814.602
1273.501, 1815.885
1273.983, 1824.658
1274.465, 1843.423
1274.948, 1867.993
1275.430, 1883.201
1275.912, 1883.193
1276.394, 1887.832
1276.876, 1919.306
1277.358, 1938.637
1277.840, 1916.529
1278.322, 1893.366
1278.805, 1894.855
1279.287, 1909.924
1279.769, 1925.334
1280.251, 1940.597
1280.733, 1953.941
1281.215, 1966.909
1281.697, 1968.895
1282.179, 1956.514
1282.661, 1955.300
1283.144, 1971.424
1283.626, 1988.769
1284.108, 1998.948
1284.590, 2001.263
1285.072, 1990.213
1285.554, 1977.933
1286.036, 1997.162
1286.518, 2029.372
1287.000, 2040.079
1287.483, 2029.537
1287.965, 1993.742
1288.447, 1943.274
1288.929, 1922.844
1289.411, 1956.580
1289.893, 1986.448
1290.375, 1993.723
1290.857, 1978.999
##END=



