##NAMES=Koenenite
##RRUFFID=R060989
##IDEAL CHEMISTRY=Na_4_Mg_9_Al_4_Cl_12_(OH)_22_
##LOCALITY=Grauer Salzton, Bergmannssegen Quarry, Lehrte, near Hannover, Germany
##OWNER=RRUFF
##SOURCE=Michael Scott
##DESCRIPTION=Aggregate of orange tabular crystals showing a micaceous cleavage.
##STATUS=The identification of this mineral has been confirmed only by single crystal X-ray diffraction.
##URL=rruff.info/R060989
175.5201, 4239.663
176.0022, 4241.858
176.4843, 4245.673
176.9664, 4250.652
177.4485, 4255.394
177.9306, 4259.826
178.4128, 4263.285
178.8949, 4262.892
179.3770, 4254.803
179.8591, 4249.448
180.3412, 4265.162
180.8233, 4299.376
181.3055, 4332.427
181.7876, 4349.277
182.2697, 4354.299
182.7518, 4359.363
183.2339, 4366.313
183.7160, 4375.030
184.1981, 4388.761
184.6803, 4407.182
185.1624, 4419.136
185.6445, 4407.829
186.1266, 4379.658
186.6087, 4362.630
187.0908, 4365.982
187.5730, 4384.188
188.0551, 4403.918
188.5372, 4425.293
189.0193, 4449.617
189.5014, 4482.239
189.9835, 4521.970
190.4657, 4554.279
190.9478, 4571.759
191.4299, 4578.653
191.9120, 4591.138
192.3941, 4609.760
192.8762, 4631.549
193.3584, 4652.811
193.8405, 4673.512
194.3226, 4697.263
194.8047, 4728.863
195.2868, 4766.344
195.7689, 4791.625
196.2511, 4803.624
196.7332, 4807.266
197.2153, 4809.655
197.6974, 4811.217
198.1795, 4807.402
198.6616, 4792.123
199.1437, 4765.223
199.6259, 4754.100
200.1080, 4764.580
200.5901, 4781.021
201.0722, 4772.947
201.5543, 4735.214
202.0364, 4701.858
202.5186, 4691.326
203.0007, 4706.323
203.4828, 4713.797
203.9649, 4711.776
204.4470, 4703.373
204.9291, 4694.420
205.4113, 4684.340
205.8934, 4675.028
206.3755, 4666.470
206.8576, 4657.837
207.3397, 4655.579
207.8218, 4663.166
208.3040, 4675.108
208.7861, 4676.859
209.2682, 4666.334
209.7503, 4651.648
210.2324, 4636.064
210.7145, 4618.748
211.1967, 4606.219
211.6788, 4601.271
212.1609, 4600.913
212.6430, 4594.623
213.1251, 4581.014
213.6072, 4564.833
214.0894, 4547.892
214.5715, 4528.714
215.0536, 4513.204
215.5357, 4500.949
216.0178, 4492.650
216.4999, 4494.097
216.9820, 4511.444
217.4642, 4527.540
217.9463, 4529.596
218.4284, 4511.067
218.9105, 4496.193
219.3926, 4488.761
219.8747, 4487.380
220.3569, 4482.243
220.8390, 4469.732
221.3211, 4458.627
221.8032, 4454.768
222.2853, 4458.419
222.7674, 4470.036
223.2496, 4494.973
223.7317, 4530.924
224.2138, 4549.869
224.6959, 4547.793
225.1780, 4534.319
225.6601, 4513.315
226.1423, 4473.146
226.6244, 4452.329
227.1065, 4464.691
227.5886, 4508.282
228.0707, 4530.419
228.5528, 4520.007
229.0350, 4500.228
229.5171, 4491.132
229.9992, 4496.176
230.4813, 4504.206
230.9634, 4511.612
231.4455, 4518.469
231.9276, 4538.968
232.4098, 4586.560
232.8919, 4634.225
233.3740, 4653.728
233.8561, 4629.174
234.3382, 4607.651
234.8203, 4598.631
235.3025, 4602.721
235.7846, 4603.815
236.2667, 4601.015
236.7488, 4596.202
237.2309, 4590.843
237.7130, 4583.262
238.1952, 4578.410
238.6773, 4576.985
239.1594, 4578.975
239.6415, 4585.753
240.1236, 4601.336
240.6057, 4618.297
241.0879, 4628.677
241.5700, 4629.114
242.0521, 4628.740
242.5342, 4627.604
243.0163, 4624.966
243.4984, 4631.633
243.9806, 4653.549
244.4627, 4679.282
244.9448, 4695.897
245.4269, 4697.544
245.9090, 4700.232
246.3911, 4708.367
246.8732, 4722.674
247.3554, 4731.446
247.8375, 4732.252
248.3196, 4729.465
248.8017, 4727.402
249.2838, 4724.648
249.7659, 4725.449
250.2481, 4731.744
250.7302, 4744.237
251.2123, 4755.551
251.6944, 4766.624
252.1765, 4776.086
252.6586, 4783.615
253.1408, 4793.609
253.6229, 4792.994
254.1050, 4773.889
254.5871, 4734.357
255.0692, 4712.731
255.5513, 4717.279
256.0334, 4731.301
256.5156, 4734.523
256.9977, 4716.894
257.4798, 4710.466
257.9619, 4726.892
258.4440, 4768.188
258.9261, 4795.025
259.4083, 4802.979
259.8904, 4801.513
260.3725, 4799.980
260.8546, 4796.135
261.3367, 4797.527
261.8188, 4808.004
262.3010, 4828.024
262.7831, 4840.754
263.2652, 4844.790
263.7473, 4843.349
264.2294, 4837.703
264.7115, 4823.192
265.1937, 4817.993
265.6758, 4828.892
266.1579, 4855.410
266.6400, 4879.349
267.1221, 4901.732
267.6042, 4919.743
268.0864, 4929.058
268.5685, 4927.527
269.0506, 4925.639
269.5327, 4927.646
270.0148, 4932.900
270.4969, 4924.582
270.9791, 4894.553
271.4612, 4867.307
271.9433, 4875.033
272.4254, 4928.211
272.9075, 4966.040
273.3896, 4968.892
273.8718, 4941.929
274.3539, 4931.205
274.8360, 4940.160
275.3181, 4956.569
275.8002, 4970.411
276.2823, 4981.965
276.7645, 4987.839
277.2466, 4984.289
277.7287, 4973.953
278.2108, 4974.529
278.6929, 4987.806
279.1750, 5005.387
279.6572, 5020.286
280.1393, 5032.342
280.6214, 5042.287
281.1035, 5047.308
281.5856, 5050.976
282.0677, 5074.384
282.5499, 5122.935
283.0320, 5163.428
283.5141, 5156.927
283.9962, 5104.187
284.4783, 5071.385
284.9604, 5078.037
285.4425, 5109.217
285.9247, 5115.043
286.4068, 5092.911
286.8889, 5074.530
287.3710, 5089.246
287.8531, 5133.658
288.3352, 5177.291
288.8174, 5217.586
289.2995, 5251.021
289.7816, 5263.401
290.2637, 5254.277
290.7458, 5248.685
291.2279, 5273.788
291.7101, 5320.954
292.1922, 5347.664
292.6743, 5341.090
293.1564, 5320.380
293.6385, 5318.771
294.1206, 5335.278
294.6028, 5355.307
295.0849, 5366.637
295.5670, 5373.951
296.0491, 5393.947
296.5312, 5434.283
297.0133, 5475.827
297.4955, 5486.125
297.9776, 5470.065
298.4597, 5455.842
298.9418, 5463.200
299.4239, 5484.128
299.9060, 5504.513
300.3882, 5523.375
300.8703, 5538.255
301.3524, 5546.422
301.8345, 5547.856
302.3166, 5542.933
302.7987, 5520.351
303.2809, 5495.208
303.7630, 5492.403
304.2451, 5518.100
304.7272, 5545.690
305.2093, 5549.533
305.6914, 5535.782
306.1736, 5519.461
306.6557, 5504.694
307.1378, 5492.448
307.6199, 5483.284
308.1020, 5477.105
308.5841, 5475.527
309.0663, 5484.897
309.5484, 5499.358
310.0305, 5508.642
310.5126, 5506.880
310.9947, 5499.768
311.4768, 5487.460
311.9590, 5469.777
312.4411, 5460.276
312.9232, 5472.521
313.4053, 5496.146
313.8874, 5517.951
314.3695, 5536.862
314.8516, 5550.250
315.3337, 5556.060
315.8159, 5554.432
316.2980, 5548.958
316.7801, 5536.368
317.2622, 5522.797
317.7443, 5513.872
318.2264, 5507.251
318.7086, 5509.664
319.1907, 5528.756
319.6728, 5562.001
320.1549, 5590.751
320.6370, 5607.580
321.1191, 5619.125
321.6013, 5629.838
322.0834, 5640.165
322.5655, 5649.837
323.0476, 5661.461
323.5297, 5673.057
324.0118, 5676.843
324.4940, 5657.599
324.9761, 5640.250
325.4582, 5637.701
325.9403, 5667.205
326.4224, 5688.306
326.9045, 5690.529
327.3867, 5681.859
327.8688, 5684.135
328.3509, 5713.550
328.8330, 5740.013
329.3151, 5752.359
329.7972, 5740.169
330.2794, 5736.091
330.7615, 5745.094
331.2436, 5760.742
331.7257, 5771.719
332.2078, 5777.759
332.6899, 5779.750
333.1721, 5777.070
333.6542, 5768.388
334.1363, 5761.375
334.6184, 5755.072
335.1005, 5751.386
335.5826, 5754.030
336.0648, 5767.728
336.5469, 5776.366
337.0290, 5772.955
337.5111, 5757.345
337.9932, 5754.243
338.4753, 5767.456
338.9575, 5785.624
339.4396, 5797.991
339.9217, 5803.714
340.4038, 5807.187
340.8859, 5807.609
341.3680, 5806.608
341.8502, 5813.240
342.3323, 5828.678
342.8144, 5846.103
343.2965, 5863.041
343.7786, 5879.515
344.2607, 5883.558
344.7429, 5869.222
345.2250, 5846.530
345.7071, 5837.345
346.1892, 5841.815
346.6713, 5854.029
347.1534, 5877.057
347.6355, 5906.220
348.1176, 5920.166
348.5998, 5912.634
349.0819, 5899.421
349.5640, 5905.711
350.0461, 5928.008
350.5282, 5947.530
351.0103, 5949.248
351.4925, 5942.540
351.9746, 5944.626
352.4567, 5957.324
352.9388, 5973.535
353.4209, 5988.802
353.9030, 6002.429
354.3852, 6012.898
354.8673, 6010.828
355.3494, 6010.630
355.8315, 6034.502
356.3136, 6082.302
356.7957, 6120.371
357.2779, 6111.110
357.7600, 6082.388
358.2421, 6070.082
358.7242, 6103.025
359.2063, 6140.874
359.6884, 6158.388
360.1706, 6158.872
360.6527, 6162.773
361.1348, 6182.298
361.6169, 6207.357
362.0990, 6230.581
362.5811, 6255.909
363.0633, 6271.271
363.5454, 6264.210
364.0275, 6243.011
364.5096, 6231.374
364.9917, 6245.434
365.4738, 6262.476
365.9560, 6271.767
366.4381, 6268.426
366.9202, 6265.533
367.4023, 6264.695
367.8844, 6265.288
368.3665, 6266.235
368.8487, 6267.065
369.3308, 6268.927
369.8129, 6274.292
370.2950, 6285.807
370.7771, 6285.751
371.2592, 6262.566
371.7414, 6236.126
372.2235, 6226.530
372.7056, 6240.168
373.1877, 6259.346
373.6698, 6285.298
374.1519, 6316.093
374.6341, 6328.456
375.1162, 6313.631
375.5983, 6295.832
376.0804, 6295.788
376.5625, 6318.646
377.0446, 6330.991
377.5267, 6322.987
378.0089, 6306.220
378.4910, 6316.437
378.9731, 6356.963
379.4552, 6401.725
379.9373, 6438.382
380.4194, 6467.215
380.9016, 6484.362
381.3837, 6487.805
381.8658, 6485.775
382.3479, 6487.842
382.8300, 6494.355
383.3121, 6507.729
383.7943, 6532.829
384.2764, 6564.916
384.7585, 6593.505
385.2406, 6618.093
385.7227, 6641.185
386.2048, 6667.282
386.6870, 6692.828
387.1691, 6709.904
387.6512, 6707.565
388.1333, 6702.368
388.6154, 6711.517
389.0975, 6733.688
389.5797, 6761.052
390.0618, 6796.839
390.5439, 6831.300
391.0260, 6854.006
391.5081, 6861.912
391.9902, 6859.552
392.4724, 6841.809
392.9545, 6815.612
393.4366, 6796.897
393.9187, 6810.002
394.4008, 6818.826
394.8829, 6798.805
395.3651, 6737.069
395.8472, 6688.709
396.3293, 6679.891
396.8114, 6688.087
397.2935, 6686.185
397.7756, 6649.993
398.2578, 6623.225
398.7399, 6620.458
399.2220, 6643.752
399.7041, 6657.034
400.1862, 6654.777
400.6683, 6646.242
401.1505, 6636.940
401.6326, 6621.552
402.1147, 6615.272
402.5968, 6624.460
403.0789, 6643.284
403.5610, 6648.321
404.0432, 6629.617
404.5253, 6617.111
405.0074, 6630.865
405.4895, 6680.309
405.9716, 6705.864
406.4537, 6701.633
406.9359, 6682.362
407.4180, 6668.502
407.9001, 6659.943
408.3822, 6657.810
408.8643, 6664.664
409.3464, 6678.433
409.8285, 6690.378
410.3106, 6700.664
410.7928, 6706.983
411.2749, 6701.666
411.7570, 6689.274
412.2391, 6689.273
412.7212, 6713.996
413.2033, 6743.331
413.6855, 6738.550
414.1676, 6706.952
414.6497, 6686.584
415.1318, 6718.177
415.6139, 6769.079
416.0960, 6794.716
416.5782, 6783.328
417.0603, 6767.875
417.5424, 6777.281
418.0245, 6799.140
418.5066, 6811.627
418.9887, 6795.890
419.4709, 6776.373
419.9530, 6765.238
420.4351, 6763.399
420.9172, 6767.333
421.3993, 6781.731
421.8814, 6798.594
422.3636, 6811.320
422.8457, 6817.671
423.3278, 6821.232
423.8099, 6820.096
424.2920, 6815.901
424.7741, 6816.175
425.2563, 6831.847
425.7384, 6842.434
426.2205, 6836.311
426.7026, 6796.184
427.1847, 6783.628
427.6668, 6810.485
428.1490, 6857.074
428.6311, 6895.996
429.1132, 6930.971
429.5953, 6948.226
430.0774, 6936.429
430.5595, 6898.967
431.0417, 6884.157
431.5238, 6896.184
432.0059, 6918.137
432.4880, 6935.262
432.9701, 6947.780
433.4522, 6965.221
433.9344, 6993.271
434.4165, 7021.824
434.8986, 7024.361
435.3807, 7003.813
435.8628, 6992.245
436.3449, 7021.798
436.8271, 7071.742
437.3092, 7096.157
437.7913, 7088.729
438.2734, 7076.750
438.7555, 7089.168
439.2376, 7114.675
439.7197, 7132.339
440.2018, 7121.032
440.6840, 7108.146
441.1661, 7120.089
441.6482, 7152.796
442.1303, 7176.168
442.6124, 7165.341
443.0945, 7144.967
443.5767, 7134.071
444.0588, 7138.679
444.5409, 7148.797
445.0230, 7162.184
445.5051, 7179.399
445.9872, 7201.385
446.4694, 7243.958
446.9515, 7276.558
447.4336, 7286.224
447.9157, 7267.382
448.3978, 7257.020
448.8799, 7258.548
449.3621, 7265.949
449.8442, 7275.051
450.3263, 7289.661
450.8084, 7296.219
451.2905, 7289.921
451.7726, 7274.633
452.2548, 7265.656
452.7369, 7264.150
453.2190, 7264.396
453.7011, 7259.903
454.1832, 7251.099
454.6653, 7259.190
455.1475, 7289.146
455.6296, 7322.691
456.1117, 7333.921
456.5938, 7326.020
457.0759, 7317.387
457.5580, 7309.492
458.0402, 7308.489
458.5223, 7333.140
459.0044, 7381.020
459.4865, 7420.755
459.9686, 7421.498
460.4507, 7403.872
460.9329, 7394.122
461.4150, 7399.266
461.8971, 7410.313
462.3792, 7425.476
462.8613, 7442.230
463.3434, 7455.953
463.8256, 7461.678
464.3077, 7466.422
464.7898, 7472.190
465.2719, 7478.770
465.7540, 7490.707
466.2361, 7516.328
466.7183, 7543.619
467.2004, 7562.619
467.6825, 7564.533
468.1646, 7568.344
468.6467, 7575.276
469.1288, 7584.820
469.6109, 7595.454
470.0930, 7607.954
470.5752, 7619.898
471.0573, 7630.628
471.5394, 7640.164
472.0215, 7646.467
472.5036, 7648.440
472.9857, 7649.185
473.4679, 7651.823
473.9500, 7656.333
474.4321, 7665.250
474.9142, 7684.459
475.3963, 7704.382
475.8784, 7697.943
476.3606, 7666.963
476.8427, 7635.057
477.3248, 7616.204
477.8069, 7608.532
478.2890, 7609.117
478.7711, 7617.876
479.2533, 7634.571
479.7354, 7666.114
480.2175, 7704.544
480.6996, 7736.314
481.1817, 7745.369
481.6638, 7754.573
482.1460, 7783.283
482.6281, 7827.844
483.1102, 7857.698
483.5923, 7847.274
484.0744, 7828.185
484.5565, 7819.663
485.0387, 7828.021
485.5208, 7840.067
486.0029, 7858.074
486.4850, 7877.998
486.9671, 7893.771
487.4492, 7904.510
487.9314, 7912.412
488.4135, 7918.395
488.8956, 7922.563
489.3777, 7922.716
489.8598, 7918.139
490.3419, 7912.178
490.8241, 7907.715
491.3062, 7905.075
491.7883, 7900.135
492.2704, 7890.986
492.7525, 7882.549
493.2346, 7881.357
493.7168, 7887.588
494.1989, 7902.773
494.6810, 7944.453
495.1631, 7989.958
495.6452, 7990.906
496.1273, 7948.303
496.6095, 7903.527
497.0916, 7889.307
497.5737, 7891.946
498.0558, 7894.209
498.5379, 7887.384
499.0201, 7887.944
499.5022, 7917.159
499.9843, 7960.120
500.4664, 7985.539
500.9485, 7963.974
501.4306, 7940.302
501.9127, 7933.560
502.3948, 7947.038
502.8770, 7957.061
503.3591, 7949.115
503.8412, 7945.895
504.3233, 7965.081
504.8054, 8028.378
505.2875, 8071.168
505.7697, 8084.209
506.2518, 8077.404
506.7339, 8072.394
507.2160, 8067.818
507.6981, 8070.397
508.1802, 8088.095
508.6624, 8117.492
509.1445, 8127.369
509.6266, 8115.660
510.1087, 8101.238
510.5908, 8102.091
511.0729, 8114.962
511.5551, 8130.120
512.0372, 8147.053
512.5193, 8162.708
513.0014, 8170.166
513.4835, 8173.116
513.9656, 8181.020
514.4478, 8199.635
514.9299, 8224.154
515.4120, 8254.245
515.8941, 8289.683
516.3762, 8319.129
516.8583, 8337.646
517.3405, 8347.936
517.8226, 8351.663
518.3047, 8340.062
518.7868, 8333.615
519.2689, 8333.315
519.7510, 8339.600
520.2332, 8354.954
520.7153, 8388.424
521.1974, 8415.826
521.6795, 8428.348
522.1616, 8426.107
522.6437, 8429.837
523.1259, 8442.082
523.6080, 8453.724
524.0901, 8451.659
524.5722, 8436.611
525.0543, 8443.246
525.5364, 8480.791
526.0186, 8527.830
526.5007, 8549.609
526.9828, 8551.026
527.4649, 8554.565
527.9470, 8567.330
528.4291, 8589.605
528.9113, 8632.329
529.3934, 8691.691
529.8755, 8734.603
530.3576, 8720.149
530.8397, 8691.308
531.3218, 8689.099
531.8040, 8736.646
532.2861, 8775.327
532.7682, 8772.543
533.2503, 8752.242
533.7324, 8749.497
534.2145, 8781.906
534.6967, 8818.689
535.1788, 8857.376
535.6609, 8897.050
536.1430, 8929.086
536.6251, 8945.761
537.1072, 8967.017
537.5894, 9005.396
538.0715, 9063.152
538.5536, 9120.147
539.0357, 9174.810
539.5178, 9230.473
539.9999, 9294.741
540.4821, 9365.604
540.9642, 9431.373
541.4463, 9483.045
541.9284, 9534.064
542.4105, 9609.063
542.8926, 9704.431
543.3748, 9805.281
543.8569, 9899.909
544.3390, 9995.410
544.8211, 10102.32
545.3032, 10224.18
545.7853, 10341.74
546.2675, 10440.55
546.7495, 10532.74
547.2316, 10630.31
547.7137, 10737.22
548.1959, 10848.08
548.6780, 10969.12
549.1601, 11095.10
549.6422, 11212.23
550.1243, 11322.61
550.6064, 11421.17
551.0886, 11505.28
551.5707, 11574.73
552.0528, 11638.13
552.5349, 11694.49
553.0170, 11745.97
553.4991, 11804.25
553.9813, 11866.50
554.4634, 11885.19
554.9455, 11849.31
555.4276, 11780.12
555.9097, 11706.28
556.3918, 11625.76
556.8740, 11530.35
557.3561, 11416.18
557.8382, 11285.86
558.3203, 11129.33
558.8024, 10951.84
559.2845, 10793.17
559.7667, 10676.04
560.2488, 10582.01
560.7309, 10500.00
561.2130, 10433.57
561.6951, 10363.25
562.1772, 10273.53
562.6594, 10182.50
563.1415, 10111.07
563.6236, 10073.47
564.1057, 10033.70
564.5878, 9987.020
565.0699, 9934.627
565.5521, 9873.307
566.0342, 9793.991
566.5163, 9738.760
566.9984, 9743.396
567.4805, 9797.378
567.9626, 9804.106
568.4448, 9759.868
568.9269, 9707.741
569.4090, 9689.416
569.8911, 9693.086
570.3732, 9692.273
570.8553, 9681.508
571.3375, 9664.733
571.8196, 9636.196
572.3017, 9605.115
572.7838, 9589.889
573.2659, 9616.843
573.7480, 9643.203
574.2302, 9644.923
574.7123, 9623.843
575.1944, 9613.495
575.6765, 9643.104
576.1586, 9664.714
576.6407, 9653.037
577.1229, 9590.429
577.6050, 9548.641
578.0871, 9531.814
578.5692, 9530.807
579.0513, 9538.775
579.5334, 9557.475
580.0156, 9568.931
580.4977, 9566.112
580.9798, 9559.054
581.4619, 9575.317
581.9440, 9610.587
582.4261, 9634.229
582.9083, 9617.121
583.3904, 9584.016
583.8725, 9566.285
584.3546, 9564.411
584.8367, 9573.311
585.3188, 9590.618
585.8010, 9616.732
586.2831, 9656.341
586.7652, 9727.477
587.2473, 9773.167
587.7294, 9759.670
588.2115, 9718.782
588.6937, 9694.560
589.1758, 9690.499
589.6579, 9701.554
590.1400, 9737.324
590.6221, 9787.721
591.1042, 9805.553
591.5864, 9781.839
592.0685, 9757.045
592.5506, 9750.253
593.0327, 9760.110
593.5148, 9776.396
593.9969, 9799.865
594.4791, 9823.311
594.9612, 9839.793
595.4433, 9851.567
595.9254, 9863.457
596.4075, 9877.605
596.8896, 9888.876
597.3718, 9887.673
597.8539, 9881.694
598.3360, 9883.667
598.8181, 9900.403
599.3002, 9923.829
599.7823, 9957.468
600.2645, 9998.225
600.7466, 10024.56
601.2287, 10016.10
601.7108, 10013.64
602.1929, 10037.04
602.6750, 10092.61
603.1572, 10125.27
603.6393, 10127.87
604.1214, 10123.91
604.6035, 10137.04
605.0856, 10166.47
605.5677, 10190.44
606.0499, 10204.53
606.5320, 10216.23
607.0141, 10239.30
607.4962, 10269.05
607.9783, 10292.44
608.4604, 10293.10
608.9425, 10293.11
609.4246, 10311.51
609.9067, 10345.51
610.3889, 10382.65
610.8710, 10427.05
611.3531, 10465.46
611.8352, 10487.91
612.3173, 10488.71
612.7994, 10498.45
613.2816, 10526.33
613.7637, 10556.90
614.2458, 10579.25
614.7279, 10593.23
615.2100, 10598.75
615.6921, 10592.38
616.1743, 10583.32
616.6564, 10585.39
617.1385, 10598.61
617.6206, 10622.94
618.1027, 10662.24
618.5848, 10709.32
619.0670, 10758.00
619.5491, 10806.09
620.0312, 10843.80
620.5133, 10861.33
620.9954, 10869.00
621.4775, 10871.82
621.9597, 10869.70
622.4418, 10874.26
622.9239, 10906.63
623.4060, 10935.62
623.8881, 10936.83
624.3702, 10865.25
624.8524, 10842.74
625.3345, 10893.43
625.8166, 10974.88
626.2987, 11030.06
626.7808, 11057.38
627.2629, 11066.69
627.7451, 11054.74
628.2272, 11031.66
628.7093, 11021.69
629.1914, 11023.96
629.6735, 11028.65
630.1556, 11035.37
630.6378, 11039.08
631.1199, 11028.92
631.6020, 11006.30
632.0841, 10987.71
632.5662, 10979.26
633.0483, 10981.28
633.5305, 10997.94
634.0126, 11038.42
634.4947, 11065.78
634.9768, 11062.93
635.4589, 11049.19
635.9410, 11043.18
636.4232, 11048.34
636.9053, 11053.16
637.3874, 11054.93
637.8695, 11056.89
638.3516, 11069.04
638.8337, 11092.31
639.3159, 11107.49
639.7980, 11105.68
640.2801, 11092.62
640.7622, 11078.54
641.2443, 11063.95
641.7264, 11052.98
642.2086, 11049.01
642.6907, 11049.72
643.1728, 11058.35
643.6549, 11076.47
644.1370, 11079.53
644.6191, 11031.17
645.1013, 10980.63
645.5834, 10965.65
646.0655, 11016.84
646.5476, 11061.53
647.0297, 11105.86
647.5118, 11138.23
647.9940, 11136.05
648.4761, 11087.65
648.9582, 11056.65
649.4403, 11058.42
649.9224, 11080.35
650.4045, 11096.89
650.8867, 11108.48
651.3688, 11118.96
651.8509, 11134.28
652.3330, 11147.37
652.8151, 11145.09
653.2972, 11130.00
653.7794, 11118.67
654.2615, 11121.92
654.7436, 11131.27
655.2257, 11142.99
655.7078, 11158.67
656.1899, 11168.45
656.6721, 11161.57
657.1542, 11155.58
657.6363, 11166.10
658.1184, 11206.46
658.6005, 11219.49
659.0826, 11191.76
659.5648, 11152.18
660.0469, 11151.46
660.5290, 11186.01
661.0111, 11202.86
661.4932, 11181.26
661.9753, 11143.92
662.4575, 11113.48
662.9396, 11093.41
663.4217, 11093.92
663.9038, 11143.10
664.3859, 11195.99
664.8680, 11220.89
665.3502, 11219.88
665.8323, 11220.96
666.3144, 11236.80
666.7965, 11250.74
667.2786, 11252.52
667.7607, 11237.12
668.2429, 11236.24
668.7250, 11255.55
669.2071, 11277.68
669.6892, 11285.44
670.1713, 11279.07
670.6534, 11278.84
671.1355, 11288.04
671.6176, 11297.90
672.0997, 11296.43
672.5818, 11287.58
673.0640, 11280.36
673.5461, 11280.57
674.0282, 11279.92
674.5103, 11267.70
674.9924, 11251.58
675.4745, 11247.20
675.9567, 11274.14
676.4388, 11298.88
676.9209, 11313.27
677.4030, 11318.07
677.8851, 11313.53
678.3672, 11293.16
678.8494, 11277.51
679.3315, 11276.46
679.8136, 11288.80
680.2957, 11303.87
680.7778, 11321.42
681.2599, 11336.11
681.7421, 11342.53
682.2242, 11342.51
682.7063, 11334.54
683.1884, 11315.31
683.6705, 11310.64
684.1526, 11354.72
684.6348, 11414.63
685.1169, 11457.62
685.5990, 11481.72
686.0811, 11479.85
686.5632, 11419.44
687.0453, 11345.43
687.5275, 11320.53
688.0096, 11364.50
688.4917, 11410.27
688.9738, 11448.57
689.4559, 11479.89
689.9380, 11507.99
690.4202, 11532.27
690.9023, 11543.05
691.3844, 11523.63
691.8665, 11494.46
692.3486, 11487.23
692.8307, 11498.78
693.3129, 11513.33
693.7950, 11526.32
694.2771, 11535.55
694.7592, 11538.99
695.2413, 11536.13
695.7234, 11530.85
696.2056, 11512.25
696.6877, 11501.87
697.1698, 11515.45
697.6519, 11564.69
698.1340, 11592.46
698.6161, 11594.74
699.0983, 11586.86
699.5804, 11582.29
700.0625, 11581.69
700.5446, 11589.73
701.0267, 11610.35
701.5089, 11629.26
701.9910, 11626.99
702.4731, 11613.16
702.9552, 11604.25
703.4373, 11611.73
703.9194, 11618.82
704.4016, 11612.98
704.8837, 11601.93
705.3658, 11606.37
705.8479, 11644.49
706.3300, 11672.83
706.8121, 11678.42
707.2943, 11667.00
707.7764, 11666.19
708.2585, 11676.87
708.7406, 11691.57
709.2227, 11710.75
709.7048, 11730.40
710.1870, 11735.52
710.6691, 11727.52
711.1512, 11723.18
711.6333, 11744.85
712.1154, 11768.34
712.5975, 11766.97
713.0797, 11734.35
713.5618, 11711.26
714.0439, 11711.02
714.5260, 11723.99
715.0081, 11744.05
715.4902, 11773.15
715.9724, 11801.64
716.4545, 11826.92
716.9366, 11855.18
717.4187, 11904.18
717.9008, 11970.59
718.3829, 11992.68
718.8651, 11947.54
719.3472, 11894.76
719.8293, 11914.50
720.3114, 11978.18
720.7935, 12030.09
721.2756, 12046.02
721.7578, 12049.43
722.2399, 12040.21
722.7220, 12026.97
723.2041, 12030.63
723.6862, 12080.66
724.1683, 12112.10
724.6505, 12102.62
725.1326, 12065.92
725.6147, 12063.23
726.0968, 12101.33
726.5789, 12131.23
727.0610, 12122.62
727.5432, 12091.93
728.0253, 12081.33
728.5074, 12089.56
728.9895, 12106.51
729.4716, 12137.80
729.9537, 12166.65
730.4359, 12173.22
730.9180, 12155.51
731.4000, 12147.42
731.8821, 12173.92
732.3643, 12199.97
732.8464, 12201.54
733.3285, 12165.21
733.8106, 12163.48
734.2927, 12210.22
734.7748, 12260.89
735.2570, 12267.63
735.7391, 12237.78
736.2212, 12228.37
736.7033, 12248.51
737.1854, 12272.66
737.6675, 12271.86
738.1497, 12258.98
738.6318, 12253.88
739.1139, 12267.01
739.5960, 12279.11
740.0781, 12280.98
740.5602, 12278.44
741.0424, 12279.79
741.5245, 12285.27
742.0066, 12295.70
742.4887, 12312.98
742.9708, 12333.51
743.4529, 12349.07
743.9351, 12359.23
744.4172, 12372.34
744.8993, 12391.85
745.3814, 12413.74
745.8635, 12430.40
746.3456, 12443.65
746.8278, 12459.71
747.3099, 12485.55
747.7920, 12510.75
748.2741, 12527.13
748.7562, 12536.78
749.2383, 12553.00
749.7205, 12598.39
750.2026, 12624.99
750.6847, 12614.25
751.1668, 12570.08
751.6489, 12527.90
752.1310, 12485.94
752.6132, 12459.71
753.0953, 12459.33
753.5774, 12482.22
754.0595, 12529.53
754.5416, 12599.61
755.0237, 12662.97
755.5059, 12693.94
755.9880, 12714.03
756.4701, 12747.24
756.9522, 12802.83
757.4343, 12824.65
757.9164, 12771.73
758.3986, 12709.48
758.8807, 12674.77
759.3628, 12673.35
759.8449, 12674.80
760.3270, 12677.39
760.8091, 12690.28
761.2913, 12733.25
761.7734, 12795.27
762.2555, 12842.94
762.7376, 12872.57
763.2197, 12885.58
763.7018, 12867.86
764.1840, 12841.36
764.6661, 12831.98
765.1482, 12859.70
765.6303, 12882.29
766.1124, 12881.35
766.5945, 12877.66
767.0767, 12896.97
767.5588, 12946.87
768.0409, 12990.87
768.5230, 13025.59
769.0051, 13048.36
769.4872, 13048.09
769.9694, 13030.68
770.4515, 13021.24
770.9336, 13028.66
771.4157, 13045.11
771.8978, 13072.22
772.3799, 13102.44
772.8621, 13120.90
773.3442, 13109.22
773.8263, 13102.37
774.3084, 13110.99
774.7905, 13129.97
775.2726, 13148.53
775.7548, 13169.35
776.2369, 13181.23
776.7190, 13178.07
777.2011, 13166.89
777.6832, 13161.08
778.1653, 13161.62
778.6475, 13173.71
779.1296, 13212.17
779.6117, 13253.36
780.0938, 13273.27
780.5759, 13276.75
781.0580, 13286.67
781.5402, 13324.37
782.0223, 13353.15
782.5044, 13354.81
782.9865, 13334.24
783.4686, 13335.09
783.9507, 13363.30
784.4329, 13390.60
784.9150, 13397.18
785.3971, 13393.85
785.8792, 13425.91
786.3613, 13488.43
786.8434, 13535.62
787.3256, 13513.17
787.8077, 13480.39
788.2898, 13494.41
788.7719, 13556.98
789.2540, 13599.75
789.7361, 13583.21
790.2183, 13564.51
790.7004, 13567.88
791.1825, 13594.37
791.6646, 13618.95
792.1467, 13640.34
792.6288, 13663.95
793.1110, 13700.19
793.5930, 13740.56
794.0751, 13757.95
794.5573, 13751.42
795.0394, 13749.55
795.5215, 13784.25
796.0036, 13824.11
796.4857, 13841.27
796.9678, 13826.09
797.4500, 13821.80
797.9321, 13842.85
798.4142, 13866.32
798.8963, 13877.23
799.3784, 13873.17
799.8605, 13876.24
800.3427, 13887.03
800.8248, 13902.21
801.3069, 13924.33
801.7890, 13947.40
802.2711, 13955.24
802.7532, 13943.59
803.2354, 13938.66
803.7175, 13958.29
804.1996, 13989.87
804.6817, 14024.73
805.1638, 14069.14
805.6459, 14096.96
806.1281, 14099.12
806.6102, 14096.52
807.0923, 14107.87
807.5744, 14133.07
808.0565, 14162.28
808.5386, 14196.57
809.0208, 14222.08
809.5029, 14214.84
809.9850, 14192.16
810.4671, 14179.98
810.9492, 14183.11
811.4313, 14197.77
811.9135, 14231.74
812.3956, 14270.91
812.8777, 14301.49
813.3598, 14315.61
813.8419, 14339.27
814.3240, 14377.85
814.8062, 14416.13
815.2883, 14433.06
815.7704, 14432.90
816.2525, 14443.15
816.7346, 14469.77
817.2167, 14496.84
817.6989, 14513.13
818.1810, 14519.60
818.6631, 14516.40
819.1452, 14496.91
819.6273, 14482.41
820.1094, 14474.57
820.5916, 14476.28
821.0737, 14495.52
821.5558, 14541.15
822.0379, 14559.33
822.5200, 14537.56
823.0021, 14512.24
823.4843, 14538.04
823.9664, 14595.41
824.4485, 14631.73
824.9306, 14629.50
825.4127, 14626.65
825.8948, 14653.23
826.3770, 14690.41
826.8591, 14718.00
827.3412, 14715.76
827.8233, 14728.89
828.3054, 14765.98
828.7875, 14808.46
829.2697, 14840.21
829.7518, 14861.49
830.2339, 14843.24
830.7160, 14771.92
831.1981, 14705.19
831.6802, 14722.19
832.1624, 14782.57
832.6445, 14823.58
833.1266, 14824.75
833.6087, 14818.78
834.0908, 14815.79
834.5729, 14812.28
835.0551, 14803.08
835.5372, 14780.70
836.0193, 14776.18
836.5014, 14796.60
836.9835, 14821.49
837.4656, 14821.13
837.9478, 14802.88
838.4299, 14793.42
838.9120, 14797.38
839.3941, 14810.38
839.8762, 14840.97
840.3583, 14872.80
840.8405, 14886.41
841.3226, 14860.60
841.8047, 14850.43
842.2868, 14866.20
842.7689, 14890.76
843.2510, 14909.68
843.7332, 14923.14
844.2153, 14920.67
844.6974, 14897.78
845.1795, 14877.36
845.6616, 14896.13
846.1437, 14930.03
846.6259, 14937.27
847.1080, 14901.76
847.5901, 14871.38
848.0722, 14870.97
848.5543, 14881.54
849.0364, 14887.20
849.5186, 14888.54
850.0007, 14880.25
850.4828, 14856.80
850.9649, 14838.74
851.4470, 14856.28
851.9291, 14897.25
852.4113, 14917.37
852.8934, 14911.98
853.3755, 14893.40
853.8576, 14856.86
854.3397, 14820.48
854.8218, 14800.68
855.3039, 14803.44
855.7860, 14812.00
856.2681, 14830.08
856.7502, 14846.48
857.2324, 14848.54
857.7145, 14835.63
858.1966, 14848.40
858.6787, 14889.42
859.1608, 14931.70
859.6429, 14953.46
860.1251, 14961.78
860.6072, 14965.87
861.0893, 14966.54
861.5714, 14961.80
862.0535, 14940.13
862.5356, 14922.29
863.0178, 14920.77
863.4999, 14937.25
863.9820, 14950.96
864.4641, 14961.54
864.9462, 14970.20
865.4283, 14973.50
865.9105, 14976.45
866.3926, 14998.24
866.8747, 15036.46
867.3568, 15061.51
867.8389, 15040.36
868.3210, 15013.15
868.8032, 14998.47
869.2853, 14999.07
869.7674, 15030.56
870.2495, 15118.12
870.7316, 15186.58
871.2137, 15195.46
871.6959, 15158.99
872.1780, 15139.63
872.6601, 15135.82
873.1422, 15132.39
873.6243, 15118.87
874.1064, 15102.52
874.5886, 15078.47
875.0707, 15053.02
875.5528, 15058.76
876.0349, 15137.10
876.5170, 15205.91
876.9991, 15244.71
877.4813, 15258.70
877.9634, 15263.74
878.4455, 15259.68
878.9276, 15261.37
879.4097, 15276.65
879.8918, 15299.23
880.3740, 15329.08
880.8561, 15359.78
881.3382, 15375.24
881.8203, 15344.44
882.3024, 15326.77
882.7845, 15342.57
883.2667, 15381.44
883.7488, 15430.95
884.2309, 15497.02
884.7130, 15539.90
885.1951, 15548.38
885.6772, 15534.18
886.1594, 15501.11
886.6415, 15461.32
887.1236, 15443.69
887.6057, 15471.79
888.0878, 15499.70
888.5699, 15497.37
889.0521, 15487.07
889.5342, 15500.21
890.0163, 15551.14
890.4984, 15590.30
890.9805, 15613.11
891.4626, 15627.33
891.9448, 15635.48
892.4269, 15642.64
892.9090, 15670.16
893.3911, 15726.51
893.8732, 15776.73
894.3553, 15792.22
894.8375, 15791.52
895.3196, 15789.92
895.8017, 15784.55
896.2838, 15792.01
896.7659, 15818.63
897.2480, 15846.74
897.7302, 15864.97
898.2123, 15873.11
898.6944, 15868.85
899.1765, 15852.48
899.6586, 15831.39
900.1407, 15810.20
900.6229, 15788.68
901.1050, 15759.28
901.5871, 15719.25
902.0692, 15717.67
902.5513, 15789.40
903.0334, 15854.00
903.5156, 15872.46
903.9977, 15852.00
904.4798, 15846.80
904.9619, 15856.06
905.4440, 15865.67
905.9261, 15858.65
906.4083, 15853.73
906.8904, 15877.58
907.3725, 15922.10
907.8546, 15951.92
908.3367, 15948.87
908.8188, 15938.15
909.3010, 15919.50
909.7831, 15900.21
910.2652, 15903.30
910.7473, 15928.82
911.2294, 15965.63
911.7115, 16018.97
912.1937, 16067.63
912.6758, 16077.69
913.1579, 16065.20
913.6400, 16060.54
914.1221, 16086.45
914.6042, 16104.02
915.0864, 16103.11
915.5685, 16093.33
916.0506, 16083.70
916.5327, 16073.18
917.0148, 16082.44
917.4969, 16118.82
917.9790, 16155.83
918.4611, 16154.96
918.9432, 16138.57
919.4254, 16141.33
919.9075, 16175.20
920.3896, 16210.07
920.8717, 16240.94
921.3538, 16265.12
921.8359, 16277.19
922.3181, 16273.48
922.8002, 16284.35
923.2823, 16310.15
923.7644, 16344.35
924.2465, 16391.50
924.7286, 16437.29
925.2108, 16451.79
925.6929, 16436.50
926.1750, 16434.79
926.6571, 16485.85
927.1392, 16532.32
927.6213, 16548.44
928.1035, 16537.88
928.5856, 16525.84
929.0677, 16512.28
929.5498, 16499.57
930.0319, 16485.14
930.5140, 16476.19
930.9962, 16482.79
931.4783, 16504.45
931.9604, 16538.56
932.4425, 16613.81
932.9246, 16666.94
933.4067, 16655.26
933.8889, 16620.54
934.3710, 16642.59
934.8531, 16736.29
935.3352, 16768.20
935.8173, 16696.82
936.2994, 16611.56
936.7816, 16651.16
937.2637, 16751.86
937.7458, 16798.30
938.2279, 16738.54
938.7100, 16693.83
939.1921, 16723.50
939.6743, 16770.23
940.1564, 16791.93
940.6385, 16784.29
941.1206, 16773.52
941.6027, 16758.40
942.0848, 16749.14
942.5670, 16752.01
943.0491, 16767.32
943.5312, 16806.38
944.0133, 16866.97
944.4954, 16904.54
944.9775, 16879.03
945.4597, 16850.67
945.9418, 16843.44
946.4239, 16855.23
946.9060, 16872.99
947.3881, 16897.25
947.8702, 16921.39
948.3524, 16945.08
948.8345, 16964.44
949.3166, 16966.00
949.7987, 16959.44
950.2808, 16967.51
950.7629, 17026.74
951.2451, 17063.79
951.7272, 17048.34
952.2093, 17015.40
952.6914, 17023.10
953.1735, 17073.26
953.6556, 17104.08
954.1378, 17102.97
954.6199, 17091.02
955.1020, 17082.56
955.5841, 17080.52
956.0662, 17091.15
956.5483, 17121.03
957.0305, 17142.55
957.5126, 17136.61
957.9947, 17138.25
958.4768, 17176.46
958.9589, 17249.92
959.4410, 17290.41
959.9232, 17298.06
960.4053, 17299.91
960.8874, 17321.73
961.3695, 17341.40
961.8516, 17329.47
962.3337, 17291.87
962.8159, 17270.52
963.2980, 17277.94
963.7801, 17295.01
964.2622, 17320.04
964.7443, 17349.97
965.2264, 17385.64
965.7086, 17422.29
966.1907, 17422.39
966.6728, 17347.76
967.1549, 17286.36
967.6370, 17341.36
968.1191, 17441.77
968.6013, 17489.12
969.0834, 17427.61
969.5655, 17385.10
970.0476, 17365.18
970.5297, 17357.88
971.0118, 17346.91
971.4940, 17339.59
971.9761, 17374.94
972.4582, 17456.79
972.9403, 17523.70
973.4224, 17522.73
973.9045, 17505.21
974.3867, 17501.73
974.8688, 17514.31
975.3509, 17545.57
975.8330, 17603.37
976.3151, 17651.48
976.7972, 17666.13
977.2794, 17666.71
977.7615, 17709.26
978.2435, 17775.52
978.7256, 17809.72
979.2078, 17750.38
979.6899, 17696.43
980.1720, 17684.15
980.6541, 17698.08
981.1362, 17716.87
981.6183, 17741.47
982.1005, 17767.71
982.5826, 17797.21
983.0647, 17819.51
983.5468, 17819.39
984.0289, 17805.52
984.5110, 17788.87
984.9932, 17770.28
985.4753, 17757.07
985.9574, 17748.99
986.4395, 17750.47
986.9216, 17767.40
987.4037, 17797.97
987.8859, 17818.18
988.3680, 17827.89
988.8501, 17829.30
989.3322, 17819.23
989.8143, 17804.76
990.2964, 17784.38
990.7786, 17765.09
991.2607, 17766.28
991.7428, 17801.18
992.2249, 17844.65
992.7070, 17900.21
993.1891, 17954.50
993.6713, 17980.00
994.1534, 17983.33
994.6355, 17993.23
995.1176, 18015.79
995.5997, 18043.75
996.0818, 18084.22
996.5640, 18119.37
997.0461, 18129.87
997.5282, 18109.78
998.0103, 18094.51
998.4924, 18083.06
998.9745, 18079.10
999.4567, 18083.08
999.9388, 18096.61
1000.421, 18132.17
1000.903, 18183.09
1001.385, 18220.88
1001.867, 18232.34
1002.349, 18226.29
1002.831, 18185.75
1003.314, 18137.28
1003.796, 18137.51
1004.278, 18190.40
1004.760, 18244.37
1005.242, 18292.50
1005.724, 18329.61
1006.206, 18345.02
1006.688, 18348.90
1007.171, 18353.82
1007.653, 18360.76
1008.135, 18376.03
1008.617, 18411.61
1009.099, 18439.37
1009.581, 18437.03
1010.063, 18410.23
1010.545, 18408.64
1011.027, 18428.36
1011.510, 18436.50
1011.992, 18380.97
1012.474, 18337.28
1012.956, 18369.47
1013.438, 18454.38
1013.920, 18514.74
1014.402, 18543.39
1014.884, 18557.20
1015.367, 18554.64
1015.849, 18548.93
1016.331, 18563.33
1016.813, 18588.55
1017.295, 18604.72
1017.777, 18606.77
1018.259, 18605.55
1018.741, 18596.10
1019.223, 18594.14
1019.706, 18613.20
1020.188, 18653.42
1020.670, 18673.36
1021.152, 18672.58
1021.634, 18669.52
1022.116, 18669.15
1022.598, 18676.96
1023.080, 18705.32
1023.563, 18746.51
1024.045, 18777.96
1024.527, 18779.99
1025.009, 18798.16
1025.491, 18847.54
1025.973, 18898.10
1026.455, 18894.84
1026.937, 18853.97
1027.419, 18832.34
1027.901, 18838.63
1028.384, 18871.59
1028.866, 18970.61
1029.348, 19063.40
1029.830, 19091.94
1030.312, 19057.29
1030.794, 19024.13
1031.276, 18992.19
1031.758, 18967.05
1032.241, 18950.67
1032.723, 18944.65
1033.205, 18952.55
1033.687, 18972.49
1034.169, 19000.06
1034.651, 19042.38
1035.133, 19079.87
1035.615, 19110.64
1036.098, 19134.22
1036.580, 19145.82
1037.062, 19147.61
1037.544, 19160.38
1038.026, 19186.25
1038.508, 19210.69
1038.990, 19225.36
1039.472, 19232.21
1039.954, 19230.33
1040.437, 19220.41
1040.919, 19214.52
1041.401, 19215.39
1041.883, 19208.28
1042.365, 19175.87
1042.847, 19150.69
1043.329, 19216.00
1043.811, 19326.66
1044.293, 19387.54
1044.776, 19338.10
1045.258, 19286.81
1045.740, 19247.38
1046.222, 19220.89
1046.704, 19207.96
1047.186, 19208.66
1047.668, 19227.71
1048.150, 19264.46
1048.633, 19302.76
1049.115, 19332.96
1049.597, 19357.89
1050.079, 19378.03
1050.561, 19394.11
1051.043, 19410.31
1051.525, 19424.55
1052.007, 19447.02
1052.490, 19483.64
1052.972, 19521.28
1053.454, 19538.82
1053.936, 19542.60
1054.418, 19541.86
1054.900, 19533.08
1055.382, 19537.77
1055.864, 19567.53
1056.346, 19605.15
1056.828, 19645.99
1057.311, 19687.91
1057.793, 19702.75
1058.275, 19693.14
1058.757, 19689.75
1059.239, 19722.57
1059.721, 19756.35
1060.203, 19773.30
1060.685, 19773.32
1061.168, 19754.31
1061.650, 19705.20
1062.132, 19680.39
1062.614, 19689.74
1063.096, 19712.01
1063.578, 19727.21
1064.060, 19737.35
1064.542, 19744.62
1065.025, 19749.15
1065.507, 19755.73
1065.989, 19775.55
1066.471, 19783.32
1066.953, 19759.97
1067.435, 19722.95
1067.917, 19741.25
1068.399, 19805.62
1068.881, 19865.25
1069.364, 19905.11
1069.846, 19929.13
1070.328, 19922.56
1070.810, 19911.17
1071.292, 19929.11
1071.774, 19995.07
1072.256, 20003.17
1072.738, 19942.71
1073.220, 19894.33
1073.703, 19948.12
1074.185, 20033.33
1074.667, 20054.91
1075.149, 20024.44
1075.631, 20008.23
1076.113, 20038.38
1076.595, 20058.90
1077.077, 20059.24
1077.559, 20049.39
1078.042, 20039.56
1078.524, 20033.87
1079.006, 20049.32
1079.488, 20093.61
1079.970, 20126.88
1080.452, 20116.35
1080.934, 20099.58
1081.416, 20097.51
1081.899, 20109.57
1082.381, 20135.44
1082.863, 20174.68
1083.345, 20202.67
1083.827, 20197.72
1084.309, 20190.70
1084.791, 20213.69
1085.273, 20251.76
1085.755, 20280.12
1086.238, 20283.58
1086.720, 20308.03
1087.202, 20362.37
1087.684, 20410.37
1088.166, 20414.48
1088.648, 20393.09
1089.130, 20379.14
1089.612, 20373.35
1090.094, 20367.99
1090.577, 20346.34
1091.059, 20344.68
1091.541, 20374.48
1092.023, 20426.29
1092.505, 20494.19
1092.987, 20570.62
1093.469, 20614.62
1093.951, 20613.42
1094.434, 20608.17
1094.916, 20635.59
1095.398, 20660.40
1095.880, 20648.68
1096.362, 20602.56
1096.844, 20580.55
1097.326, 20581.98
1097.808, 20617.18
1098.291, 20720.37
1098.773, 20818.67
1099.255, 20806.62
1099.737, 20739.76
1100.219, 20706.21
1100.701, 20747.83
1101.183, 20779.25
1101.665, 20801.98
1102.147, 20811.81
1102.630, 20783.35
1103.112, 20747.36
1103.594, 20782.48
1104.076, 20876.86
1104.558, 20953.85
1105.040, 20984.96
1105.522, 20985.42
1106.004, 20944.17
1106.486, 20891.49
1106.969, 20881.91
1107.451, 20909.69
1107.933, 20952.30
1108.415, 21008.96
1108.897, 21048.38
1109.379, 21038.60
1109.861, 21014.15
1110.343, 20996.55
1110.826, 20985.97
1111.308, 20974.72
1111.790, 20962.72
1112.272, 20962.60
1112.754, 20980.23
1113.236, 21009.70
1113.718, 21062.55
1114.200, 21115.16
1114.682, 21132.05
1115.165, 21090.15
1115.647, 21067.17
1116.129, 21064.36
1116.611, 21074.93
1117.093, 21098.20
1117.575, 21128.97
1118.057, 21161.05
1118.539, 21193.07
1119.021, 21221.23
1119.504, 21265.31
1119.986, 21270.92
1120.468, 21215.34
1120.950, 21146.39
1121.432, 21125.63
1121.914, 21142.31
1122.396, 21159.73
1122.878, 21174.97
1123.361, 21197.92
1123.843, 21247.17
1124.325, 21290.75
1124.807, 21315.26
1125.289, 21324.98
1125.771, 21323.51
1126.253, 21313.77
1126.735, 21334.76
1127.218, 21403.81
1127.700, 21472.27
1128.182, 21500.76
1128.664, 21511.88
1129.146, 21522.11
1129.628, 21531.41
1130.110, 21552.24
1130.592, 21584.73
1131.074, 21621.58
1131.557, 21667.57
1132.039, 21705.11
1132.521, 21703.51
1133.003, 21683.19
1133.485, 21677.93
1133.967, 21708.86
1134.449, 21720.48
1134.931, 21708.60
1135.413, 21696.20
1135.896, 21708.17
1136.378, 21729.45
1136.860, 21727.60
1137.342, 21710.85
1137.824, 21712.81
1138.306, 21782.76
1138.788, 21812.49
1139.270, 21771.52
1139.752, 21713.02
1140.235, 21703.44
1140.717, 21734.06
1141.199, 21795.08
1141.681, 21883.46
1142.163, 21950.35
1142.645, 21966.19
1143.127, 21960.66
1143.609, 21942.63
1144.092, 21914.56
1144.574, 21877.85
1145.056, 21836.24
1145.538, 21809.73
1146.020, 21804.95
1146.502, 21812.52
1146.984, 21828.22
1147.466, 21855.52
1147.948, 21904.90
1148.431, 21972.53
1148.913, 21989.40
1149.395, 21957.83
1149.877, 21946.62
1150.359, 22002.56
1150.841, 22063.51
1151.323, 22081.14
1151.805, 22074.31
1152.287, 22066.10
1152.770, 22052.40
1153.252, 22058.92
1153.734, 22086.93
1154.216, 22119.18
1154.698, 22146.31
1155.180, 22168.76
1155.662, 22180.73
1156.144, 22189.09
1156.627, 22215.80
1157.109, 22282.16
1157.591, 22310.05
1158.073, 22286.49
1158.555, 22250.64
1159.037, 22237.80
1159.519, 22239.36
1160.001, 22241.17
1160.484, 22243.86
1160.966, 22264.22
1161.448, 22320.83
1161.930, 22361.08
1162.412, 22370.41
1162.894, 22367.56
1163.376, 22388.01
1163.858, 22415.51
1164.340, 22411.29
1164.823, 22365.98
1165.305, 22340.91
1165.787, 22372.53
1166.269, 22396.93
1166.751, 22390.87
1167.233, 22365.07
1167.715, 22332.49
1168.197, 22302.43
1168.679, 22305.11
1169.162, 22361.90
1169.644, 22412.08
1170.126, 22425.16
1170.608, 22434.82
1171.090, 22458.28
1171.572, 22492.56
1172.054, 22522.35
1172.536, 22550.04
1173.019, 22590.16
1173.501, 22665.59
1173.983, 22730.52
1174.465, 22767.53
1174.947, 22784.64
1175.429, 22779.84
1175.911, 22754.87
1176.393, 22763.65
1176.875, 22804.13
1177.358, 22843.94
1177.840, 22870.09
1178.322, 22883.53
1178.804, 22877.95
1179.286, 22863.02
1179.768, 22847.17
1180.250, 22830.26
1180.732, 22841.03
1181.214, 22882.08
1181.697, 22936.96
1182.179, 23021.63
1182.661, 23089.44
1183.143, 23093.13
1183.625, 23055.43
1184.107, 23041.12
1184.589, 23051.57
1185.071, 23055.07
1185.554, 23043.92
1186.036, 23042.24
1186.518, 23098.91
1187.000, 23153.54
1187.482, 23137.66
1187.964, 23062.75
1188.446, 23034.74
1188.928, 23058.65
1189.411, 23083.02
1189.893, 23093.10
1190.375, 23101.56
1190.857, 23124.27
1191.339, 23151.04
1191.821, 23172.15
1192.303, 23186.99
1192.785, 23188.14
1193.267, 23171.43
1193.750, 23171.71
1194.232, 23215.11
1194.714, 23261.07
1195.196, 23251.12
1195.678, 23219.93
1196.160, 23218.58
1196.642, 23265.16
1197.124, 23290.69
1197.606, 23293.87
1198.089, 23282.77
1198.571, 23249.60
1199.053, 23217.40
1199.535, 23212.66
1200.017, 23230.88
1200.499, 23265.46
1200.981, 23328.27
1201.463, 23378.39
1201.945, 23416.08
1202.428, 23435.07
1202.910, 23409.82
1203.392, 23377.47
1203.874, 23395.77
1204.356, 23446.99
1204.838, 23472.87
1205.320, 23435.80
1205.802, 23454.60
1206.285, 23551.99
1206.767, 23646.72
1207.249, 23640.64
1207.731, 23595.27
1208.213, 23589.60
1208.695, 23621.25
1209.177, 23653.46
1209.659, 23684.29
1210.141, 23706.19
1210.624, 23715.63
1211.106, 23723.27
1211.588, 23744.10
1212.070, 23769.20
1212.552, 23785.75
1213.034, 23792.98
1213.516, 23805.37
1213.998, 23834.02
1214.480, 23837.50
1214.963, 23797.67
1215.445, 23754.04
1215.927, 23767.18
1216.409, 23807.51
1216.891, 23832.72
1217.373, 23836.55
1217.855, 23851.01
1218.337, 23883.74
1218.820, 23913.88
1219.302, 23936.44
1219.784, 23950.98
1220.266, 23946.55
1220.748, 23938.32
1221.230, 23955.81
1221.712, 24014.29
1222.194, 24020.55
1222.677, 23945.22
1223.159, 23903.64
1223.641, 23959.31
1224.123, 24047.50
1224.605, 24069.80
1225.087, 24057.29
1225.569, 24059.36
1226.051, 24096.19
1226.533, 24108.88
1227.016, 24087.09
1227.498, 24075.42
1227.980, 24103.56
1228.462, 24147.72
1228.944, 24175.43
1229.426, 24193.39
1229.908, 24213.55
1230.390, 24243.81
1230.872, 24259.06
1231.355, 24253.84
1231.837, 24258.42
1232.319, 24311.33
1232.801, 24369.64
1233.283, 24365.90
1233.765, 24326.87
1234.247, 24306.79
1234.729, 24316.91
1235.212, 24336.70
1235.694, 24365.79
1236.176, 24403.32
1236.658, 24461.36
1237.140, 24515.95
1237.622, 24528.33
1238.104, 24516.21
1238.586, 24529.76
1239.068, 24586.48
1239.551, 24614.69
1240.033, 24606.96
1240.515, 24600.79
1240.997, 24646.63
1241.479, 24694.27
1241.961, 24675.29
1242.443, 24619.41
1242.925, 24622.51
1243.407, 24708.72
1243.890, 24741.48
1244.372, 24702.68
1244.854, 24662.01
1245.336, 24690.29
1245.818, 24734.45
1246.300, 24743.45
1246.782, 24728.88
1247.264, 24739.93
1247.747, 24779.37
1248.229, 24814.61
1248.711, 24841.77
1249.193, 24858.19
1249.675, 24850.39
1250.157, 24842.66
1250.639, 24858.36
1251.121, 24890.13
1251.604, 24922.92
1252.086, 24958.47
1252.568, 24939.99
1253.050, 24853.87
1253.532, 24775.28
1254.014, 24755.52
1254.496, 24772.90
1254.978, 24827.92
1255.460, 24903.18
1255.943, 24957.93
1256.425, 24991.82
1256.907, 25000.31
1257.389, 24977.54
1257.871, 24969.28
1258.353, 25022.31
1258.835, 25081.60
1259.317, 25122.67
1259.799, 25143.47
1260.281, 25121.71
1260.764, 25070.67
1261.246, 25068.39
1261.728, 25143.66
1262.210, 25195.46
1262.692, 25157.56
1263.174, 25099.49
1263.656, 25043.24
1264.138, 24999.51
1264.621, 25013.29
1265.103, 25065.41
1265.585, 25087.35
1266.067, 25052.88
1266.549, 25042.73
1267.031, 25096.25
1267.513, 25165.52
1267.995, 25238.87
1268.478, 25309.07
1268.960, 25358.18
1269.442, 25391.89
1269.924, 25424.26
1270.406, 25459.85
1270.888, 25482.32
1271.370, 25477.44
1271.852, 25483.90
1272.334, 25520.51
1272.817, 25574.68
1273.299, 25643.25
1273.781, 25706.07
1274.263, 25724.35
1274.745, 25672.26
1275.227, 25643.66
1275.709, 25648.26
1276.191, 25657.53
1276.673, 25663.65
1277.156, 25661.21
1277.638, 25619.22
1278.120, 25575.24
1278.602, 25595.22
1279.084, 25708.44
1279.566, 25753.34
1280.048, 25722.38
1280.530, 25691.56
1281.013, 25702.19
1281.495, 25719.59
1281.977, 25686.80
1282.459, 25654.27
1282.941, 25696.57
1283.423, 25821.21
1283.905, 25879.82
1284.387, 25873.39
1284.870, 25858.74
1285.352, 25859.90
1285.834, 25866.54
1286.316, 25864.86
1286.798, 25871.80
1287.280, 25908.31
1287.762, 25971.61
1288.244, 26008.94
1288.726, 26022.20
1289.208, 26023.96
1289.691, 26002.96
1290.173, 26000.66
1290.655, 26067.99
1291.137, 26126.03
1291.619, 26108.79
1292.101, 26036.05
1292.583, 26007.12
1293.065, 26018.31
1293.548, 26039.64
1294.030, 26051.50
1294.512, 26085.07
1294.994, 26160.71
1295.476, 26222.88
1295.958, 26218.47
1296.440, 26174.54
1296.922, 26162.72
1297.405, 26216.58
1297.887, 26290.26
1298.369, 26277.52
1298.851, 26268.36
1299.333, 26261.46
1299.815, 26264.57
1300.297, 26281.51
1300.779, 26312.29
##END=



