##NAMES=Koenenite
##RRUFFID=R060989
##IDEAL CHEMISTRY=Na_4_Mg_9_Al_4_Cl_12_(OH)_22_
##LOCALITY=Grauer Salzton, Bergmannssegen Quarry, Lehrte, near Hannover, Germany
##OWNER=RRUFF
##SOURCE=Michael Scott
##DESCRIPTION=Aggregate of orange tabular crystals showing a micaceous cleavage.
##STATUS=The identification of this mineral has been confirmed only by single crystal X-ray diffraction.
##URL=rruff.info/R060989
140.8127, 1044.236
141.2948, 1047.674
141.7769, 1071.355
142.2591, 1106.773
142.7412, 1150.011
143.2233, 1199.225
143.7054, 1252.669
144.1875, 1307.211
144.6696, 1363.155
145.1518, 1419.754
145.6339, 1473.277
146.1160, 1529.165
146.5981, 1593.659
147.0802, 1668.245
147.5623, 1747.214
148.0445, 1820.668
148.5266, 1885.533
149.0087, 1947.284
149.4908, 2014.678
149.9729, 2075.482
150.4550, 2116.077
150.9371, 2132.094
151.4193, 2129.805
151.9014, 2122.081
152.3835, 2101.443
152.8656, 2085.747
153.3477, 2083.738
153.8298, 2084.729
154.3120, 2074.317
154.7941, 2046.617
155.2762, 2008.619
155.7583, 1977.259
156.2404, 1956.639
156.7225, 1935.400
157.2047, 1907.999
157.6868, 1879.696
158.1689, 1859.263
158.6510, 1850.855
159.1331, 1849.793
159.6152, 1843.823
160.0974, 1825.903
160.5795, 1815.574
161.0616, 1826.592
161.5437, 1847.659
162.0258, 1856.074
162.5079, 1840.208
162.9901, 1811.221
163.4722, 1797.121
163.9543, 1802.661
164.4364, 1809.788
164.9185, 1810.950
165.4007, 1809.247
165.8828, 1813.109
166.3649, 1828.166
166.8470, 1847.288
167.3291, 1854.390
167.8112, 1846.411
168.2934, 1835.621
168.7755, 1826.840
169.2576, 1819.246
169.7397, 1810.801
170.2218, 1801.391
170.7039, 1789.692
171.1861, 1772.418
171.6682, 1746.160
172.1503, 1722.982
172.6324, 1711.641
173.1145, 1709.047
173.5966, 1703.623
174.0788, 1691.028
174.5609, 1673.131
175.0430, 1653.126
175.5251, 1629.177
176.0072, 1607.950
176.4893, 1594.788
176.9714, 1588.106
177.4536, 1580.492
177.9357, 1569.051
178.4178, 1555.575
178.8999, 1542.636
179.3820, 1529.653
179.8641, 1518.944
180.3463, 1513.099
180.8284, 1511.337
181.3105, 1508.888
181.7926, 1503.101
182.2747, 1497.019
182.7568, 1494.964
183.2390, 1497.778
183.7211, 1501.064
184.2032, 1500.196
184.6853, 1496.299
185.1674, 1497.619
185.6495, 1510.502
186.1317, 1526.007
186.6138, 1532.501
187.0959, 1528.380
187.5780, 1523.773
188.0601, 1523.989
188.5422, 1529.065
189.0244, 1540.235
189.5065, 1561.879
189.9886, 1585.899
190.4707, 1600.123
190.9528, 1602.804
191.4349, 1612.469
191.9171, 1642.637
192.3992, 1691.617
192.8813, 1749.140
193.3634, 1818.266
193.8455, 1889.507
194.3276, 1954.326
194.8098, 2012.368
195.2919, 2067.270
195.7740, 2128.875
196.2561, 2193.302
196.7382, 2232.576
197.2203, 2233.684
197.7025, 2214.087
198.1846, 2191.944
198.6667, 2167.214
199.1488, 2136.089
199.6309, 2092.514
200.1130, 2038.506
200.5951, 1987.823
201.0773, 1941.532
201.5594, 1900.668
202.0415, 1866.248
202.5236, 1837.636
203.0057, 1809.340
203.4878, 1775.878
203.9700, 1739.073
204.4521, 1706.653
204.9342, 1676.357
205.4163, 1656.273
205.8984, 1658.813
206.3805, 1678.937
206.8627, 1690.458
207.3448, 1669.805
207.8269, 1626.711
208.3090, 1600.089
208.7911, 1602.601
209.2732, 1606.954
209.7554, 1595.169
210.2375, 1569.737
210.7196, 1537.818
211.2017, 1499.106
211.6838, 1456.578
212.1659, 1419.938
212.6481, 1392.100
213.1302, 1365.772
213.6123, 1335.247
214.0944, 1302.440
214.5765, 1272.420
215.0586, 1248.084
215.5408, 1228.028
216.0229, 1209.167
216.5050, 1192.388
216.9871, 1174.841
217.4692, 1152.391
217.9513, 1128.196
218.4335, 1108.042
218.9156, 1094.438
219.3977, 1086.187
219.8798, 1082.573
220.3619, 1085.386
220.8440, 1086.867
221.3262, 1081.545
221.8083, 1072.244
222.2904, 1062.379
222.7725, 1051.691
223.2546, 1041.994
223.7367, 1036.650
224.2189, 1036.408
224.7010, 1036.132
225.1831, 1032.851
225.6652, 1028.067
226.1473, 1023.912
226.6294, 1021.876
227.1115, 1018.978
227.5937, 1010.443
228.0758, 995.8001
228.5579, 983.5148
229.0400, 979.4483
229.5221, 978.7170
230.0042, 974.8914
230.4864, 966.3007
230.9685, 956.7455
231.4506, 947.1178
231.9327, 937.7987
232.4148, 936.4989
232.8969, 952.4419
233.3791, 972.8378
233.8612, 979.6861
234.3433, 969.0724
234.8254, 958.8500
235.3075, 964.2991
235.7896, 982.0707
236.2718, 993.4675
236.7539, 991.3583
237.2360, 983.2342
237.7181, 979.1915
238.2002, 979.8334
238.6823, 978.3557
239.1645, 970.1182
239.6466, 957.0284
240.1287, 943.8818
240.6108, 930.5791
241.0929, 919.5916
241.5750, 913.2013
242.0572, 910.9946
242.5393, 913.3635
243.0214, 926.4822
243.5035, 942.8939
243.9856, 947.2094
244.4677, 934.6865
244.9499, 920.4529
245.4320, 920.5281
245.9141, 932.7090
246.3962, 945.4760
246.8783, 959.1148
247.3604, 970.7813
247.8426, 976.0933
248.3247, 974.5129
248.8068, 971.2000
249.2889, 969.9832
249.7710, 970.5706
250.2531, 970.6024
250.7352, 971.9144
251.2174, 971.1137
251.6995, 964.9533
252.1816, 953.6972
252.6637, 939.7546
253.1458, 922.5818
253.6279, 904.3560
254.1101, 894.7209
254.5922, 900.8355
255.0743, 908.1047
255.5564, 910.4017
256.0385, 908.1063
256.5207, 901.7286
257.0028, 890.3278
257.4849, 876.3024
257.9670, 867.9962
258.4491, 871.4322
258.9312, 870.8446
259.4134, 854.3500
259.8955, 831.9277
260.3776, 823.1437
260.8597, 836.4614
261.3418, 860.1754
261.8239, 871.1940
262.3060, 864.7695
262.7881, 855.5541
263.2703, 839.8953
263.7524, 824.6078
264.2345, 817.7846
264.7166, 821.3265
265.1987, 830.1896
265.6808, 838.1754
266.1630, 846.2321
266.6451, 849.9935
267.1272, 842.8885
267.6093, 836.4161
268.0914, 841.8784
268.5735, 858.4868
269.0557, 873.7399
269.5378, 874.3956
270.0199, 856.7571
270.5020, 851.2338
270.9841, 868.6331
271.4662, 885.1349
271.9484, 890.1111
272.4305, 885.3057
272.9126, 877.2804
273.3947, 870.3403
273.8768, 864.5204
274.3589, 859.9988
274.8411, 861.5872
275.3232, 859.1589
275.8053, 847.0341
276.2874, 830.4760
276.7695, 816.4663
277.2516, 808.3666
277.7338, 805.8854
278.2159, 808.6476
278.6980, 822.1868
279.1801, 832.6210
279.6622, 835.1652
280.1443, 836.0298
280.6265, 840.8540
281.1086, 851.3621
281.5907, 865.1996
282.0728, 879.9179
282.5549, 898.4594
283.0370, 909.1842
283.5192, 903.4863
284.0013, 896.1431
284.4834, 899.2366
284.9655, 911.7143
285.4476, 919.8724
285.9297, 905.4764
286.4119, 866.0541
286.8940, 840.0212
287.3761, 835.3853
287.8582, 837.1869
288.3403, 839.7480
288.8224, 843.0909
289.3046, 848.2355
289.7867, 855.1060
290.2688, 864.3330
290.7509, 878.8401
291.2330, 900.8430
291.7151, 924.0114
292.1973, 946.2747
292.6794, 967.6149
293.1615, 987.6345
293.6436, 1005.496
294.1257, 1023.152
294.6078, 1044.560
295.0900, 1070.438
295.5721, 1094.027
296.0542, 1108.524
296.5363, 1121.605
297.0184, 1143.673
297.5005, 1178.841
297.9827, 1212.599
298.4648, 1232.988
298.9469, 1242.145
299.4290, 1251.890
299.9111, 1267.336
300.3932, 1281.370
300.8754, 1285.485
301.3575, 1280.123
301.8396, 1268.587
302.3217, 1247.455
302.8038, 1222.312
303.2859, 1203.365
303.7681, 1192.894
304.2502, 1181.869
304.7323, 1159.649
305.2144, 1126.424
305.6965, 1100.299
306.1786, 1086.969
306.6608, 1077.611
307.1429, 1068.638
307.6250, 1058.737
308.1071, 1041.918
308.5892, 1011.961
309.0714, 972.1627
309.5535, 946.6967
310.0356, 946.4387
310.5177, 945.1776
310.9998, 932.4319
311.4819, 913.9223
311.9640, 899.4344
312.4461, 893.0086
312.9283, 892.0412
313.4104, 890.6093
313.8925, 884.3054
314.3746, 884.3917
314.8567, 897.4419
315.3388, 912.6587
315.8210, 919.2075
316.3031, 916.1478
316.7852, 912.5355
317.2673, 919.8676
317.7494, 941.9625
318.2315, 958.3391
318.7137, 965.2338
319.1958, 970.3533
319.6779, 973.6364
320.1600, 977.5327
320.6421, 987.4468
321.1242, 1008.802
321.6064, 1038.847
322.0885, 1059.464
322.5706, 1065.587
323.0527, 1069.173
323.5348, 1075.501
324.0169, 1080.575
324.4991, 1079.813
324.9812, 1071.489
325.4633, 1056.590
325.9454, 1034.744
326.4275, 1004.161
326.9096, 975.7817
327.3918, 949.3201
327.8739, 928.4388
328.3560, 917.3409
328.8381, 916.2767
329.3202, 918.1709
329.8023, 919.8705
330.2845, 920.6502
330.7666, 915.7861
331.2487, 900.7691
331.7308, 887.7356
332.2129, 889.8421
332.6950, 902.7570
333.1772, 912.1530
333.6593, 911.1909
334.1414, 905.9760
334.6235, 904.6241
335.1056, 907.2576
335.5877, 907.1082
336.0699, 898.8262
336.5520, 885.1096
337.0341, 875.9131
337.5162, 874.8995
337.9983, 873.5252
338.4804, 867.0378
338.9626, 857.5994
339.4447, 849.7095
339.9268, 845.0143
340.4089, 842.1722
340.8910, 838.7125
341.3731, 832.9949
341.8553, 830.6144
342.3374, 834.3806
342.8195, 839.8386
343.3016, 843.9307
343.7837, 846.0854
344.2658, 846.7206
344.7480, 846.3562
345.2301, 845.1129
345.7122, 840.7635
346.1943, 830.1331
346.6764, 819.9557
347.1585, 812.3206
347.6407, 806.5477
348.1228, 801.3615
348.6049, 796.1013
349.0870, 790.8375
349.5691, 785.1989
350.0512, 776.7530
350.5334, 773.1494
351.0155, 778.7491
351.4976, 786.8232
351.9797, 792.8322
352.4618, 795.7647
352.9439, 796.7105
353.4261, 796.2286
353.9082, 794.3344
354.3903, 792.4883
354.8724, 787.7255
355.3545, 787.4036
355.8366, 798.0742
356.3188, 816.3892
356.8009, 832.8372
357.2830, 843.1244
357.7651, 848.9962
358.2472, 850.7703
358.7293, 847.4492
359.2115, 850.7144
359.6936, 871.1997
360.1757, 900.4008
360.6578, 919.4230
361.1399, 921.4832
361.6220, 925.4916
362.1041, 941.5330
362.5862, 966.8123
363.0684, 996.7045
363.5505, 1030.602
364.0326, 1064.853
364.5147, 1094.837
364.9968, 1120.316
365.4789, 1141.446
365.9611, 1160.258
366.4432, 1172.946
366.9253, 1175.905
367.4074, 1169.671
367.8895, 1157.663
368.3716, 1142.317
368.8538, 1123.448
369.3359, 1099.454
369.8180, 1059.022
370.3001, 1026.737
370.7822, 1015.125
371.2643, 1010.433
371.7465, 994.5875
372.2286, 961.3890
372.7107, 921.6324
373.1928, 892.7001
373.6749, 876.9049
374.1570, 864.2745
374.6392, 854.5051
375.1213, 847.6627
375.6034, 845.6761
376.0855, 847.2495
376.5676, 847.7830
377.0497, 842.6440
377.5319, 833.9769
378.0140, 829.1149
378.4961, 827.4484
378.9782, 831.2078
379.4603, 844.5500
379.9424, 863.1558
380.4246, 882.5372
380.9067, 902.7473
381.3888, 921.5451
381.8709, 935.3945
382.3530, 945.7863
382.8351, 959.5688
383.3173, 979.0902
383.7994, 1001.990
384.2815, 1025.564
384.7636, 1049.923
385.2457, 1073.854
385.7278, 1093.499
386.2100, 1115.097
386.6921, 1145.160
387.1742, 1183.331
387.6563, 1224.095
388.1384, 1263.652
388.6205, 1302.087
389.1027, 1342.535
389.5848, 1388.682
390.0669, 1432.181
390.5490, 1478.492
391.0311, 1518.569
391.5132, 1541.847
391.9954, 1544.870
392.4775, 1531.766
392.9596, 1508.603
393.4417, 1475.479
393.9238, 1431.391
394.4059, 1362.952
394.8881, 1295.108
395.3702, 1240.498
395.8523, 1196.055
396.3344, 1150.833
396.8165, 1096.581
397.2986, 1037.750
397.7808, 986.0862
398.2629, 941.0448
398.7450, 905.2345
399.2271, 885.6678
399.7092, 873.3225
400.1913, 859.5032
400.6735, 843.4808
401.1556, 824.7182
401.6377, 798.4323
402.1198, 769.3165
402.6019, 750.6082
403.0840, 746.4973
403.5662, 746.3376
404.0483, 739.0686
404.5304, 724.4799
405.0125, 714.2806
405.4946, 713.5174
405.9767, 713.3040
406.4589, 707.9053
406.9410, 698.5639
407.4231, 688.7635
407.9052, 679.9842
408.3873, 672.9438
408.8694, 669.6315
409.3516, 673.1972
409.8336, 676.1248
410.3158, 678.3633
410.7979, 679.9033
411.2800, 681.5513
411.7621, 682.8434
412.2442, 681.6631
412.7263, 675.7422
413.2085, 665.2421
413.6906, 653.0327
414.1727, 632.0228
414.6548, 620.7153
415.1369, 633.4583
415.6190, 655.7396
416.1012, 667.6082
416.5833, 661.3593
417.0654, 648.6966
417.5475, 642.3893
418.0296, 641.6374
418.5117, 638.1589
418.9939, 628.7233
419.4760, 618.2171
419.9581, 611.5033
420.4402, 608.2368
420.9223, 608.2841
421.4044, 613.9183
421.8866, 621.2212
422.3687, 628.9594
422.8508, 635.8646
423.3329, 636.0201
423.8150, 624.6143
424.2971, 605.7761
424.7793, 594.0956
425.2614, 595.1237
425.7435, 596.0671
426.2256, 598.2028
426.7077, 598.6488
427.1898, 591.7026
427.6720, 578.3648
428.1541, 568.5026
428.6362, 573.9827
429.1183, 595.2714
429.6004, 608.3419
430.0826, 607.7802
430.5647, 605.6195
431.0468, 606.1404
431.5289, 607.3550
432.0110, 605.4950
432.4931, 598.3564
432.9753, 591.8947
433.4574, 593.6303
433.9395, 603.2732
434.4216, 615.4810
434.9037, 631.7264
435.3858, 646.3331
435.8680, 652.5323
436.3501, 651.3849
436.8322, 649.7137
437.3143, 647.5043
437.7964, 646.7682
438.2785, 650.8174
438.7607, 658.5270
439.2428, 664.3322
439.7249, 664.9498
440.2070, 662.4439
440.6891, 662.5470
441.1712, 664.9528
441.6534, 670.6760
442.1355, 682.8079
442.6176, 696.1413
443.0997, 705.7053
443.5818, 711.7515
444.0639, 718.9256
444.5461, 732.4863
445.0282, 751.1974
445.5103, 761.4922
445.9924, 760.7899
446.4745, 755.3017
446.9566, 742.4846
447.4388, 728.5491
447.9209, 722.1771
448.4030, 726.1942
448.8851, 728.9078
449.3672, 716.2981
449.8493, 692.1517
450.3315, 674.7185
450.8136, 667.3787
451.2957, 664.9100
451.7778, 665.1115
452.2599, 667.1252
452.7420, 665.9769
453.2242, 658.8965
453.7063, 650.7736
454.1884, 644.2344
454.6705, 638.7512
455.1526, 632.6906
455.6347, 625.3697
456.1169, 618.2708
456.5990, 614.0491
457.0811, 614.4313
457.5632, 613.1564
458.0453, 606.4850
458.5274, 601.8978
459.0095, 605.4331
459.4916, 614.0550
459.9738, 619.7921
460.4559, 617.0926
460.9380, 610.7423
461.4201, 613.0900
461.9022, 626.5967
462.3843, 638.4649
462.8665, 645.4694
463.3486, 649.6306
463.8307, 651.9799
464.3128, 652.6948
464.7949, 653.6698
465.2770, 653.8894
465.7592, 655.8170
466.2413, 665.3840
466.7234, 682.3424
467.2055, 696.1374
467.6876, 700.0853
468.1697, 696.9730
468.6519, 696.3902
469.1340, 698.4455
469.6161, 702.4099
470.0982, 711.8642
470.5803, 720.9035
471.0624, 722.9854
471.5446, 718.0779
472.0267, 711.6456
472.5088, 708.3200
472.9909, 707.9619
473.4730, 708.7103
473.9551, 710.9894
474.4373, 713.7793
474.9194, 720.0786
475.4015, 725.0084
475.8836, 722.0280
476.3657, 709.5439
476.8478, 696.3788
477.3300, 690.7590
477.8121, 690.7692
478.2942, 690.0136
478.7763, 688.2206
479.2584, 683.8801
479.7405, 674.0144
480.2227, 660.3990
480.7048, 651.6137
481.1869, 649.5771
481.6690, 650.4789
482.1511, 656.2845
482.6332, 662.9583
483.1154, 662.9387
483.5975, 654.6954
484.0796, 645.3545
484.5617, 643.5939
485.0438, 650.4184
485.5259, 656.5005
486.0081, 660.2347
486.4902, 664.9263
486.9723, 673.3464
487.4544, 682.5360
487.9365, 688.4140
488.4186, 689.4198
488.9008, 687.7161
489.3829, 684.5853
489.8650, 680.3329
490.3471, 679.9824
490.8292, 686.9349
491.3113, 692.5347
491.7935, 687.6671
492.2756, 675.1553
492.7577, 664.4199
493.2398, 656.9380
493.7219, 651.4170
494.2040, 648.9579
494.6862, 647.6548
495.1683, 643.6935
495.6504, 635.8395
496.1325, 625.0027
496.6146, 611.2855
497.0967, 591.8602
497.5789, 582.6517
498.0610, 592.0891
498.5431, 602.0833
499.0252, 610.4170
499.5073, 614.0082
499.9894, 606.7877
500.4716, 585.2853
500.9537, 560.7838
501.4358, 549.3024
501.9179, 550.7929
502.4000, 553.6299
502.8821, 557.2687
503.3643, 560.0591
503.8464, 560.3469
504.3285, 558.6501
504.8106, 556.4609
505.2927, 554.6988
505.7748, 551.9306
506.2570, 546.4758
506.7391, 539.4055
507.2212, 532.3546
507.7033, 525.7834
508.1854, 521.7769
508.6675, 523.6581
509.1496, 533.1359
509.6317, 540.5089
510.1139, 550.6456
510.5960, 553.5353
511.0781, 536.8405
511.5602, 513.2108
512.0424, 503.7141
512.5245, 517.4306
513.0066, 537.9502
513.4887, 543.0481
513.9708, 533.5911
514.4529, 527.1005
514.9351, 526.6706
515.4172, 528.0620
515.8993, 527.3997
516.3814, 525.7202
516.8635, 526.7243
517.3456, 533.1125
517.8278, 539.9800
518.3099, 544.3445
518.7920, 547.5540
519.2741, 552.7286
519.7562, 560.6026
520.2383, 567.6387
520.7205, 569.2253
521.2026, 564.5817
521.6847, 562.2804
522.1668, 562.6436
522.6489, 565.2579
523.1310, 571.3950
523.6132, 579.1611
524.0953, 586.6278
524.5774, 593.2202
525.0595, 598.6301
525.5416, 600.4055
526.0237, 600.2367
526.5059, 606.9980
526.9880, 623.2624
527.4701, 639.7525
527.9522, 649.8743
528.4343, 655.0400
528.9164, 662.1315
529.3986, 675.3530
529.8807, 684.7148
530.3628, 684.6451
530.8449, 680.3282
531.3270, 675.1976
531.8091, 671.2365
532.2913, 674.1337
532.7734, 691.2845
533.2554, 720.2189
533.7375, 733.4176
534.2197, 716.2264
534.7018, 709.1705
535.1839, 725.2985
535.6660, 752.8378
536.1481, 783.3063
536.6302, 815.1062
537.1124, 847.7581
537.5945, 882.2624
538.0766, 916.7834
538.5587, 945.9547
539.0408, 969.9180
539.5229, 996.8633
540.0051, 1029.346
540.4872, 1069.413
540.9693, 1122.711
541.4514, 1198.325
541.9335, 1269.732
542.4156, 1324.151
542.8978, 1383.145
543.3799, 1461.042
543.8620, 1556.685
544.3441, 1661.941
544.8262, 1770.422
545.3083, 1889.066
545.7905, 2035.689
546.2726, 2213.539
546.7547, 2398.551
547.2368, 2587.187
547.7189, 2782.252
548.2010, 2989.771
548.6832, 3206.436
549.1653, 3419.226
549.6474, 3616.089
550.1295, 3816.914
550.6116, 4050.621
551.0938, 4299.080
551.5759, 4527.014
552.0580, 4721.446
552.5401, 4882.914
553.0222, 5010.347
553.5043, 5105.657
553.9865, 5157.033
554.4686, 5158.546
554.9507, 5118.830
555.4328, 5034.957
555.9149, 4912.199
556.3970, 4752.076
556.8792, 4554.773
557.3613, 4339.988
557.8434, 4118.969
558.3255, 3896.219
558.8076, 3682.705
559.2897, 3479.389
559.7719, 3285.460
560.2540, 3098.044
560.7361, 2919.914
561.2182, 2757.527
561.7003, 2610.620
562.1824, 2477.192
562.6646, 2356.878
563.1467, 2248.802
563.6288, 2155.747
564.1109, 2074.343
564.5930, 1992.729
565.0751, 1901.013
565.5573, 1806.178
566.0394, 1729.948
566.5215, 1675.534
567.0036, 1625.328
567.4857, 1579.810
567.9678, 1532.947
568.4500, 1473.342
568.9321, 1404.829
569.4142, 1354.146
569.8963, 1343.576
570.3784, 1339.724
570.8605, 1319.579
571.3427, 1287.073
571.8248, 1250.013
572.3069, 1211.086
572.7890, 1173.836
573.2711, 1142.885
573.7532, 1118.816
574.2354, 1096.747
574.7175, 1078.150
575.1996, 1059.920
575.6817, 1043.471
576.1638, 1026.024
576.6459, 1002.584
577.1281, 971.9816
577.6102, 943.5277
578.0923, 927.2834
578.5744, 917.4517
579.0565, 901.2371
579.5386, 877.9005
580.0208, 854.5565
580.5029, 834.1335
580.9850, 817.5042
581.4671, 807.0918
581.9492, 808.7556
582.4313, 806.9884
582.9135, 799.2036
583.3956, 790.2845
583.8777, 785.5678
584.3598, 782.1161
584.8419, 771.0958
585.3240, 746.1240
585.8062, 718.9393
586.2883, 710.3781
586.7704, 719.5859
587.2525, 723.3721
587.7346, 716.0154
588.2167, 707.6791
588.6989, 708.1257
589.1810, 715.4803
589.6631, 717.5801
590.1452, 710.4338
590.6273, 702.5332
591.1094, 694.1063
591.5916, 687.7407
592.0737, 687.6165
592.5558, 693.4336
593.0379, 700.4862
593.5200, 705.8684
594.0021, 708.5994
594.4843, 701.5660
594.9664, 678.6178
595.4485, 667.8905
595.9306, 687.8189
596.4127, 713.2562
596.8948, 717.5402
597.3770, 702.2625
597.8591, 692.6085
598.3412, 699.8055
598.8233, 711.3802
599.3054, 718.5882
599.7875, 723.0655
600.2697, 729.4497
600.7518, 739.1411
601.2339, 749.0350
601.7160, 754.6533
602.1981, 755.5667
602.6802, 760.2856
603.1624, 773.7986
603.6445, 783.4921
604.1266, 780.7547
604.6087, 775.0953
605.0908, 776.6144
605.5729, 786.9113
606.0551, 800.3043
606.5372, 816.5181
607.0193, 832.4022
607.5014, 842.0184
607.9835, 846.7654
608.4656, 855.8610
608.9478, 874.3070
609.4299, 895.9054
609.9120, 908.7220
610.3941, 909.2076
610.8762, 912.0287
611.3583, 914.5408
611.8405, 922.3160
612.3226, 942.9387
612.8047, 968.2230
613.2868, 983.9614
613.7689, 984.3958
614.2510, 987.1218
614.7332, 1012.377
615.2153, 1048.792
615.6974, 1070.883
616.1795, 1076.783
616.6616, 1080.630
617.1437, 1090.759
617.6259, 1105.041
618.1080, 1117.605
618.5901, 1127.321
619.0722, 1137.259
619.5543, 1141.383
620.0364, 1151.421
620.5186, 1180.536
621.0007, 1219.488
621.4828, 1248.319
621.9649, 1257.988
622.4470, 1258.505
622.9291, 1256.371
623.4113, 1253.858
623.8934, 1260.373
624.3755, 1277.740
624.8576, 1297.481
625.3397, 1314.481
625.8218, 1328.607
626.3040, 1339.372
626.7861, 1345.520
627.2682, 1349.782
627.7503, 1348.780
628.2324, 1348.884
628.7145, 1353.755
629.1967, 1363.510
629.6788, 1378.736
630.1609, 1402.638
630.6430, 1424.014
631.1251, 1423.027
631.6072, 1404.257
632.0893, 1394.457
632.5714, 1399.818
633.0535, 1405.997
633.5356, 1400.470
634.0178, 1385.446
634.4999, 1377.622
634.9820, 1387.725
635.4641, 1389.928
635.9462, 1375.165
636.4283, 1356.615
636.9105, 1344.860
637.3926, 1339.119
637.8747, 1332.712
638.3568, 1321.880
638.8389, 1308.238
639.3210, 1294.176
639.8032, 1279.558
640.2853, 1260.990
640.7674, 1235.998
641.2495, 1217.066
641.7316, 1219.879
642.2137, 1240.621
642.6959, 1238.589
643.1780, 1190.063
643.6601, 1152.609
644.1422, 1138.634
644.6243, 1134.922
645.1064, 1135.383
645.5886, 1136.382
646.0707, 1130.854
646.5528, 1111.884
647.0349, 1089.267
647.5170, 1080.638
647.9991, 1083.379
648.4813, 1078.764
648.9634, 1062.095
649.4455, 1041.504
649.9276, 1023.266
650.4097, 1007.369
650.8918, 994.5510
651.3740, 982.0434
651.8561, 976.0964
652.3382, 984.6122
652.8203, 994.2676
653.3024, 995.1059
653.7845, 987.2053
654.2667, 975.0695
654.7488, 959.5977
655.2309, 943.9754
655.7130, 931.8558
656.1951, 923.2827
656.6772, 918.7868
657.1594, 918.6887
657.6415, 921.4600
658.1236, 927.2471
658.6057, 934.8196
659.0878, 934.3833
659.5699, 914.2383
660.0521, 902.2203
660.5342, 908.3354
661.0163, 916.1165
661.4984, 913.9826
661.9805, 903.2490
662.4626, 891.7621
662.9448, 883.8234
663.4269, 875.5110
663.9090, 855.9435
664.3911, 832.6032
664.8732, 831.6793
665.3553, 857.6252
665.8375, 886.3113
666.3196, 899.3086
666.8017, 899.2975
667.2838, 899.1836
667.7659, 897.5126
668.2480, 898.3896
668.7302, 906.1839
669.2123, 912.5923
669.6944, 912.8132
670.1765, 907.7930
670.6586, 899.8183
671.1407, 887.0803
671.6229, 877.7341
672.1050, 882.0609
672.5871, 893.0528
673.0692, 896.9490
673.5513, 892.7817
674.0334, 889.3839
674.5156, 893.0386
674.9977, 900.4780
675.4798, 902.1474
675.9619, 896.6429
676.4440, 889.4441
676.9261, 878.7613
677.4083, 868.8857
677.8904, 861.0259
678.3725, 855.6693
678.8546, 855.2100
679.3367, 864.1512
679.8188, 866.1718
680.3010, 845.8057
680.7831, 818.9052
681.2652, 804.0186
681.7473, 800.1569
682.2294, 796.1227
682.7115, 785.9732
683.1937, 773.6102
683.6758, 767.6949
684.1579, 769.6387
684.6400, 761.1658
685.1221, 734.3818
685.6042, 712.5782
686.0864, 712.7043
686.5685, 723.3688
687.0506, 722.5828
687.5327, 705.3766
688.0148, 694.0836
688.4969, 700.0493
688.9791, 707.7528
689.4612, 704.4469
689.9433, 695.1804
690.4254, 692.1099
690.9075, 699.2764
691.3896, 707.5911
691.8718, 706.3385
692.3539, 697.0208
692.8360, 685.5880
693.3181, 671.0871
693.8002, 664.7009
694.2823, 674.3902
694.7645, 689.0364
695.2466, 691.8018
695.7287, 679.8287
696.2108, 669.2942
696.6929, 658.5474
697.1750, 650.9953
697.6572, 649.6539
698.1393, 651.0198
698.6214, 650.1887
699.1035, 646.9651
699.5856, 646.9292
700.0677, 659.6953
700.5499, 674.1473
701.0320, 670.6556
701.5141, 652.9655
701.9962, 638.1110
702.4783, 630.9069
702.9604, 625.8319
703.4426, 615.8403
703.9247, 602.0778
704.4068, 604.5760
704.8889, 642.2922
705.3710, 662.7984
705.8531, 642.0288
706.3353, 615.2953
706.8174, 606.5731
707.2995, 613.0038
707.7816, 618.4031
708.2637, 617.5242
708.7458, 614.6519
709.2280, 610.2073
709.7101, 606.5488
710.1922, 608.2233
710.6743, 614.7601
711.1564, 621.0132
711.6385, 623.6423
712.1207, 623.7949
712.6028, 624.0101
713.0849, 624.3202
713.5670, 624.6592
714.0491, 626.1682
714.5313, 624.9039
715.0134, 615.6210
715.4955, 602.5897
715.9776, 597.2380
716.4597, 601.8663
716.9418, 608.1581
717.4240, 617.1125
717.9061, 625.2232
718.3882, 630.8141
718.8703, 633.7644
719.3524, 633.7947
719.8345, 630.8412
720.3167, 626.5917
720.7988, 622.7214
721.2809, 618.7503
721.7630, 612.0532
722.2451, 603.0756
722.7272, 598.4475
723.2094, 601.1867
723.6915, 607.5982
724.1736, 613.2408
724.6557, 618.3951
725.1378, 619.2831
725.6199, 612.2161
726.1021, 606.2031
726.5842, 602.8092
727.0663, 601.4915
727.5484, 603.9556
728.0305, 609.0764
728.5126, 609.0566
728.9948, 593.6719
729.4769, 579.8905
729.9590, 584.1852
730.4411, 595.4260
730.9232, 594.0047
731.4053, 579.0596
731.8874, 567.8557
732.3695, 574.7440
732.8516, 589.5079
733.3337, 584.1235
733.8159, 557.1702
734.2980, 540.4661
734.7801, 540.7747
735.2622, 545.2979
735.7443, 546.3045
736.2264, 544.6351
736.7086, 543.3331
737.1907, 544.5961
737.6728, 541.9559
738.1549, 532.6464
738.6370, 521.7964
739.1191, 509.1429
739.6013, 497.9272
740.0834, 494.1473
740.5655, 499.7279
741.0476, 506.2608
741.5297, 507.7005
742.0118, 505.8673
742.4940, 502.5385
742.9761, 498.3704
743.4582, 496.2634
743.9403, 497.3126
744.4224, 497.4470
744.9045, 491.1432
745.3867, 478.7924
745.8688, 469.0484
746.3509, 462.2666
746.8330, 457.1218
747.3151, 453.1600
747.7972, 450.8572
748.2794, 452.3530
748.7615, 456.6260
749.2436, 456.6934
749.7257, 445.8716
750.2078, 438.3425
750.6899, 440.9449
751.1721, 446.9275
751.6542, 451.2647
752.1363, 453.0681
752.6184, 451.7541
753.1005, 446.1190
753.5826, 441.4596
754.0648, 448.8433
754.5469, 461.9982
755.0290, 458.4547
755.5111, 437.2290
755.9932, 421.4765
756.4753, 423.6262
756.9575, 436.3461
757.4396, 446.9308
757.9217, 456.3443
758.4038, 458.1195
758.8859, 446.0455
759.3680, 436.1623
759.8502, 435.9854
760.3323, 439.5613
760.8144, 441.8031
761.2965, 442.4521
761.7786, 440.5551
762.2607, 430.3661
762.7429, 423.8141
763.2250, 434.1857
763.7071, 447.6166
764.1892, 443.4408
764.6713, 422.3906
765.1534, 404.0021
765.6356, 401.8228
766.1177, 407.3684
766.5998, 406.5722
767.0819, 401.3381
767.5640, 401.2184
768.0461, 407.6958
768.5283, 414.1650
769.0104, 416.4908
769.4925, 415.7033
769.9746, 413.9205
770.4567, 409.5035
770.9388, 409.3262
771.4210, 417.3789
771.9031, 424.2673
772.3852, 425.1963
772.8673, 423.3784
773.3494, 422.2799
773.8315, 422.0876
774.3137, 423.5836
774.7958, 432.0345
775.2779, 436.7773
775.7600, 425.5341
776.2421, 409.9111
776.7242, 410.1627
777.2064, 426.1216
777.6885, 435.0278
778.1706, 416.0159
778.6527, 388.1355
779.1348, 385.3004
779.6169, 401.3995
780.0991, 409.3179
780.5812, 404.5249
781.0633, 401.6262
781.5454, 411.9686
782.0275, 428.5663
782.5096, 431.0787
782.9918, 413.5355
783.4739, 403.0287
783.9560, 404.1555
784.4381, 406.2253
784.9202, 404.3965
785.4023, 400.5789
785.8845, 397.3213
786.3666, 394.7633
786.8487, 392.2600
787.3308, 389.2497
787.8129, 386.7632
788.2950, 386.3814
788.7772, 386.1791
789.2593, 382.8642
789.7414, 376.8052
790.2235, 372.6042
790.7056, 374.6443
791.1877, 377.7592
791.6699, 373.3451
792.1520, 365.2346
792.6341, 363.6154
793.1162, 369.6227
793.5983, 378.8026
794.0804, 389.1435
794.5626, 397.0934
795.0447, 393.1239
795.5268, 375.2938
796.0089, 363.5222
796.4910, 361.0345
796.9731, 357.1305
797.4553, 344.0752
797.9374, 329.7646
798.4195, 327.9060
798.9016, 341.5517
799.3837, 349.7208
799.8658, 350.0930
800.3480, 347.8215
800.8301, 339.5976
801.3122, 332.8278
801.7943, 335.8046
802.2764, 347.1184
802.7585, 357.9259
803.2407, 365.4727
803.7228, 369.5932
804.2049, 366.5979
804.6870, 362.1569
805.1691, 363.6963
805.6512, 371.4828
806.1334, 383.4815
806.6155, 398.8203
807.0976, 414.4990
807.5797, 426.1626
808.0618, 434.3764
808.5439, 441.7930
809.0261, 448.4699
809.5082, 454.0411
809.9903, 457.8708
810.4724, 462.5118
810.9545, 471.8189
811.4366, 485.5509
811.9188, 492.2397
812.4009, 483.7261
812.8830, 483.8453
813.3651, 506.2809
813.8472, 528.8462
814.3293, 535.8250
814.8115, 531.8574
815.2936, 529.7427
815.7757, 530.6777
816.2578, 534.4385
816.7399, 545.5516
817.2220, 555.0668
817.7042, 553.6922
818.1863, 547.3169
818.6684, 547.4426
819.1505, 556.7524
819.6326, 565.9698
820.1147, 566.9512
820.5969, 564.5722
821.0790, 566.9460
821.5611, 571.3135
822.0432, 568.7888
822.5253, 558.1525
823.0074, 547.6439
823.4896, 544.1307
823.9717, 535.2596
824.4538, 528.5750
824.9359, 524.5085
825.4180, 515.3272
825.9001, 512.4987
826.3823, 506.6878
826.8644, 490.4636
827.3465, 471.8087
827.8286, 466.8418
828.3107, 480.0927
828.7928, 485.5277
829.2749, 477.2094
829.7570, 468.9407
830.2391, 461.0560
830.7213, 456.8197
831.2034, 461.8565
831.6855, 474.2184
832.1676, 482.0655
832.6497, 479.3528
833.1318, 476.2531
833.6140, 477.9924
834.0961, 479.8591
834.5782, 477.0667
835.0603, 470.9275
835.5424, 464.6992
836.0245, 459.4686
836.5067, 457.5735
836.9888, 463.5065
837.4709, 472.5904
837.9530, 476.8801
838.4351, 477.7361
838.9172, 482.1742
839.3994, 491.4992
839.8815, 495.9285
840.3636, 483.9372
840.8457, 493.0598
841.3278, 466.8611
841.8099, 492.5430
842.2921, 504.6363
842.7742, 495.5197
843.2563, 485.3293
843.7384, 486.8464
844.2205, 494.5247
844.7026, 495.8016
845.1848, 488.2312
845.6669, 483.8010
846.1490, 483.8633
846.6311, 485.0159
847.1132, 487.7074
847.5953, 489.9470
848.0775, 489.8941
848.5596, 487.5982
849.0417, 484.0581
849.5238, 479.4490
850.0059, 473.5251
850.4880, 463.9375
850.9702, 455.0150
851.4523, 451.1736
851.9344, 450.5489
852.4165, 448.4456
852.8986, 443.2821
853.3807, 437.6225
853.8629, 433.3291
854.3450, 429.3021
854.8271, 425.0443
855.3092, 419.8964
855.7913, 410.5536
856.2734, 397.4926
856.7556, 389.2406
857.2377, 393.7345
857.7198, 404.7348
858.2019, 413.1653
858.6840, 417.9889
859.1661, 411.1804
859.6483, 392.2395
860.1304, 377.9046
860.6125, 377.9442
861.0946, 384.0717
861.5767, 382.2682
862.0588, 372.2162
862.5410, 360.6781
863.0231, 345.6106
863.5052, 337.1266
863.9873, 341.2116
864.4694, 347.3697
864.9515, 344.9124
865.4337, 335.1861
865.9158, 328.9286
866.3979, 326.3559
866.8800, 326.9366
867.3621, 335.2398
867.8442, 341.5933
868.3264, 337.6892
868.8085, 330.5949
869.2906, 332.7436
869.7727, 346.6165
870.2548, 356.5760
870.7369, 357.6617
871.2191, 355.0395
871.7012, 348.5907
872.1833, 341.4738
872.6654, 336.7483
873.1475, 334.5765
873.6296, 333.8353
874.1118, 334.2480
874.5939, 335.3326
875.0760, 339.5861
875.5581, 342.3193
876.0402, 333.7780
876.5223, 318.7888
877.0045, 311.0389
877.4866, 314.9078
877.9687, 324.9273
878.4508, 339.2660
878.9329, 353.2114
879.4150, 354.6176
879.8972, 346.1850
880.3793, 339.4223
880.8614, 336.4134
881.3435, 336.6666
881.8256, 340.5565
882.3077, 344.2408
882.7899, 337.7599
883.2720, 337.4028
883.7541, 336.8788
884.2362, 325.8440
884.7183, 330.6227
885.2004, 321.0150
885.6826, 307.5763
886.1647, 301.3633
886.6468, 301.8214
887.1289, 303.9294
887.6110, 309.6293
888.0931, 312.5043
888.5753, 310.8475
889.0574, 307.7433
889.5395, 304.1591
890.0216, 300.4929
890.5037, 296.7578
890.9858, 292.0349
891.4680, 292.1266
891.9501, 303.0786
892.4322, 311.6546
892.9143, 310.5604
893.3964, 308.2007
893.8785, 314.7592
894.3607, 327.0616
894.8428, 331.2995
895.3249, 319.8111
895.8070, 310.0880
896.2891, 312.7158
896.7712, 316.9353
897.2534, 312.0867
897.7355, 303.8462
898.2176, 305.5428
898.6997, 318.0967
899.1818, 323.2769
899.6639, 301.9814
900.1461, 277.7172
900.6282, 275.8892
901.1103, 285.1113
901.5924, 288.6801
902.0745, 285.2314
902.5566, 278.7543
903.0388, 271.0822
903.5209, 264.1416
904.0030, 260.1019
904.4851, 258.4862
904.9672, 258.7523
905.4493, 260.4821
905.9315, 262.5107
906.4136, 264.3865
906.8957, 263.7631
907.3778, 258.4183
907.8599, 250.8824
908.3420, 246.4609
908.8242, 245.1684
909.3063, 248.8721
909.7884, 258.2308
910.2705, 262.3761
910.7526, 255.6447
911.2347, 247.7642
911.7169, 252.2958
912.1990, 266.7878
912.6811, 264.4624
913.1632, 237.9787
913.6453, 226.2540
914.1274, 240.5517
914.6096, 256.0479
915.0917, 256.4093
915.5738, 249.2974
916.0559, 251.9268
916.5380, 269.0667
917.0201, 271.4322
917.5023, 242.3160
917.9844, 225.3503
918.4665, 243.1959
918.9486, 265.1269
919.4307, 262.8713
919.9128, 243.5035
920.3950, 234.2511
920.8771, 240.7184
921.3592, 247.9986
921.8413, 254.6510
922.3234, 262.0513
922.8055, 275.8265
923.2877, 287.5708
923.7698, 283.1650
924.2519, 263.9298
924.7340, 253.9075
925.2161, 268.5563
925.6982, 281.2444
926.1804, 281.5441
926.6625, 277.6175
927.1446, 272.0855
927.6267, 268.4596
928.1088, 274.9444
928.5909, 293.3442
929.0730, 304.5605
929.5551, 291.4827
930.0372, 275.1544
930.5193, 269.8392
931.0015, 271.0124
931.4836, 273.3042
931.9657, 276.1728
932.4478, 281.7592
932.9299, 291.4783
933.4120, 299.8248
933.8942, 300.1488
934.3763, 298.1191
934.8584, 302.7880
935.3405, 310.2998
935.8226, 310.2188
936.3047, 302.0483
936.7869, 296.1765
937.2690, 299.9468
937.7511, 307.1354
938.2332, 309.6375
938.7153, 309.2272
939.1974, 309.7992
939.6796, 311.2585
940.1617, 310.9149
940.6438, 308.2240
941.1259, 308.6090
941.6080, 319.0131
942.0901, 317.4584
942.5723, 333.6265
943.0544, 324.1875
943.5365, 321.0269
944.0186, 325.7265
944.5007, 332.9073
944.9828, 340.1982
945.4650, 345.5411
945.9471, 345.8165
946.4292, 341.8174
946.9113, 336.6054
947.3934, 330.2705
947.8755, 329.9158
948.3577, 337.4980
948.8398, 342.0899
949.3219, 335.5039
949.8040, 326.4758
950.2861, 334.5515
950.7682, 360.5380
951.2504, 368.8307
951.7325, 356.9434
952.2146, 342.1181
952.6967, 326.7839
953.1788, 317.3243
953.6609, 320.8260
954.1431, 332.0496
954.6252, 333.9607
955.1073, 322.9507
955.5894, 319.8729
956.0715, 328.5655
956.5536, 334.3637
957.0358, 331.2415
957.5179, 325.2258
958.0000, 322.0865
958.4821, 321.4933
958.9642, 321.4320
959.4464, 322.6447
959.9285, 322.4727
960.4106, 320.4279
960.8927, 317.3995
961.3748, 311.0783
961.8569, 306.7906
962.3391, 314.3620
962.8212, 333.4660
963.3033, 337.8084
963.7854, 315.1159
964.2675, 299.0161
964.7496, 293.5524
965.2318, 293.3947
965.7139, 299.7843
966.1960, 307.8946
966.6781, 310.2095
967.1602, 306.4274
967.6423, 299.9535
968.1245, 288.5855
968.6066, 277.7269
969.0887, 264.2238
969.5708, 255.4499
970.0529, 257.0793
970.5350, 266.1475
971.0172, 279.2319
971.4993, 299.3014
971.9814, 305.5284
972.4635, 280.2207
972.9456, 261.6453
973.4277, 266.8345
973.9099, 276.4252
974.3920, 277.2918
974.8741, 270.1736
975.3562, 257.0027
975.8383, 233.4678
976.3204, 221.7687
976.8026, 238.0993
977.2847, 251.6675
977.7668, 249.7718
978.2489, 240.3278
978.7310, 225.2446
979.2131, 209.4885
979.6953, 208.2198
980.1774, 230.6512
980.6595, 248.6098
981.1416, 255.3216
981.6237, 255.1120
982.1058, 243.9335
982.5880, 231.3242
983.0701, 229.3824
983.5522, 236.0948
984.0343, 238.0893
984.5164, 229.9361
984.9985, 221.6145
985.4807, 215.8704
985.9628, 211.6423
986.4449, 209.2878
986.9270, 207.4622
987.4091, 203.4943
987.8912, 198.0779
988.3734, 196.5426
988.8555, 203.8932
989.3376, 208.7247
989.8197, 205.2053
990.3018, 198.9876
990.7839, 191.1379
991.2661, 184.6524
991.7482, 184.2289
992.2303, 189.7007
992.7124, 194.9014
993.1945, 195.8580
993.6766, 199.0083
994.1588, 213.6483
994.6409, 225.2551
995.1230, 216.9156
995.6051, 200.6035
996.0872, 197.3748
996.5693, 209.2391
997.0515, 218.0256
997.5336, 212.8611
998.0157, 208.1709
998.4978, 211.9601
998.9799, 217.8490
999.4620, 222.3929
999.9442, 224.4516
1000.426, 221.6060
1000.908, 214.0135
1001.391, 208.7429
1001.873, 212.2550
1002.355, 214.4089
1002.837, 207.3215
1003.319, 199.4654
1003.801, 198.9336
1004.283, 202.7806
1004.765, 204.5219
1005.247, 202.9987
1005.730, 202.3536
1006.212, 207.2200
1006.694, 209.7805
1007.176, 203.7649
1007.658, 195.9705
1008.140, 190.9732
1008.622, 189.2930
1009.104, 192.2617
1009.586, 199.8298
1010.069, 204.5176
1010.551, 202.2579
1011.033, 197.4553
1011.515, 188.3271
1011.997, 181.1090
1012.479, 183.7938
1012.961, 191.5535
1013.443, 194.8018
1013.926, 191.5933
1014.408, 185.8799
1014.890, 175.7987
1015.372, 167.9789
1015.854, 162.7925
1016.336, 163.6149
1016.818, 179.3116
1017.300, 200.9532
1017.782, 211.3950
1018.265, 207.3437
1018.747, 200.9034
1019.229, 196.0585
1019.711, 190.0805
1020.193, 179.1062
1020.675, 169.1639
1021.157, 166.9772
1021.639, 168.6289
1022.122, 165.6605
1022.604, 156.5698
1023.086, 150.5764
1023.568, 154.8229
1024.050, 156.6122
1024.532, 146.4698
1025.014, 137.2179
1025.496, 137.9103
1025.978, 146.4126
1026.461, 161.5525
1026.943, 183.4606
1027.425, 192.5617
1027.907, 171.7031
1028.389, 155.1794
1028.871, 154.7963
1029.353, 159.6086
1029.835, 163.8622
1030.318, 167.6618
1030.800, 174.4169
1031.282, 184.7468
1031.764, 182.7826
1032.246, 150.2991
1032.728, 128.1953
1033.210, 129.4678
1033.692, 138.1374
1034.174, 148.3527
1034.656, 158.2984
1035.139, 167.6974
1035.621, 176.6711
1036.103, 175.0679
1036.585, 144.6425
1037.067, 129.8056
1037.549, 151.6140
1038.031, 171.9705
1038.513, 168.5407
1038.996, 154.6250
1039.478, 148.5201
1039.960, 150.2366
1040.442, 151.3698
1040.924, 154.0523
1041.406, 152.1644
1041.888, 138.3266
1042.370, 130.1561
1042.853, 141.1794
1043.335, 156.1238
1043.817, 153.6899
1044.299, 135.8634
1044.781, 128.9684
1045.263, 138.3824
1045.745, 145.9420
1046.227, 151.4781
1046.709, 153.3721
1047.192, 149.9451
1047.674, 144.0271
1048.156, 137.6261
1048.638, 131.6899
1049.120, 133.1705
1049.602, 146.0209
1050.084, 149.4559
1050.566, 139.4991
1051.048, 130.8618
1051.531, 129.1657
1052.013, 129.3445
1052.495, 126.2152
1052.977, 121.2784
1053.459, 119.8402
1053.941, 121.9494
1054.423, 128.4291
1054.905, 140.3235
1055.388, 147.4070
1055.870, 146.2954
1056.352, 140.4465
1056.834, 131.8111
1057.316, 123.0596
1057.798, 121.5514
1058.280, 126.7491
1058.762, 130.3904
1059.245, 132.3052
1059.727, 131.8316
1060.209, 128.8313
1060.691, 126.6429
1061.173, 127.5298
1061.655, 130.8475
1062.137, 138.6356
1062.619, 147.6369
1063.101, 141.9830
1063.583, 125.0298
1064.066, 114.2452
1064.548, 112.4130
1065.030, 112.9377
1065.512, 112.2173
1065.994, 110.7683
1066.476, 108.3874
1066.958, 106.2174
1067.440, 105.9531
1067.923, 107.9283
1068.405, 115.2398
1068.887, 125.9537
1069.369, 131.0061
1069.851, 126.6797
1070.333, 119.9787
1070.815, 116.2188
1071.297, 114.3034
1071.780, 113.3275
1072.262, 113.1701
1072.744, 112.5304
1073.226, 112.7685
1073.708, 118.5052
1074.190, 130.5423
1074.672, 140.9548
1075.154, 144.9376
1075.636, 145.7580
1076.119, 146.3878
1076.601, 144.2872
1077.083, 132.8926
1077.565, 118.8840
1078.047, 115.4712
1078.529, 123.2569
1079.011, 127.7639
1079.493, 121.4842
1079.975, 115.3841
1080.458, 112.8530
1080.940, 112.3338
1081.422, 113.3513
1081.904, 115.5588
1082.386, 119.7918
1082.868, 125.1611
1083.350, 127.1499
1083.832, 122.8146
1084.314, 120.3193
1084.797, 123.6059
1085.279, 124.9173
1085.761, 119.3143
1086.243, 112.8817
1086.725, 108.8884
1087.207, 108.3810
1087.689, 115.4715
1088.171, 133.9638
1088.654, 143.8109
1089.136, 142.7147
1089.618, 137.9183
1090.100, 129.4231
1090.582, 120.0114
1091.064, 109.9132
1091.546, 102.5714
1092.028, 105.2525
1092.510, 117.5816
1092.993, 123.7191
1093.475, 122.5791
1093.957, 125.1329
1094.439, 133.6635
1094.921, 138.1918
1095.403, 133.6139
1095.885, 125.4177
1096.367, 119.4651
1096.849, 116.0335
1097.332, 116.7121
1097.814, 120.9005
1098.296, 125.9610
1098.778, 131.0055
1099.260, 130.9228
1099.742, 124.4049
1100.224, 116.6924
1100.706, 111.6191
1101.189, 108.6963
1101.671, 105.6197
1102.153, 105.0534
1102.635, 117.2014
1103.117, 134.8043
1103.599, 137.5151
1104.081, 124.8822
1104.563, 114.2147
1105.046, 114.4532
1105.528, 116.0738
1106.010, 109.7823
1106.492, 103.1730
1106.974, 105.9802
1107.456, 110.5887
1107.938, 102.6283
1108.420, 88.71502
1108.902, 90.31102
1109.385, 113.5630
1109.867, 132.3812
1110.349, 135.3285
1110.831, 133.7270
1111.313, 130.3718
1111.795, 125.5599
1112.277, 117.0107
1112.759, 108.3866
1113.241, 106.7962
1113.724, 112.1498
1114.206, 112.4002
1114.688, 97.62109
1115.170, 93.26982
1115.652, 110.3979
1116.134, 121.1221
1116.616, 112.3496
1117.098, 97.94186
1117.581, 88.66911
1118.063, 85.42928
1118.545, 93.20915
1119.027, 115.6185
1119.509, 124.9979
1119.991, 119.5094
1120.473, 110.8415
1120.955, 100.4761
1121.438, 95.81300
1121.920, 102.1717
1122.402, 112.9643
1122.884, 118.6294
1123.366, 119.6685
1123.848, 116.3152
1124.330, 110.0141
1124.812, 109.5707
1125.294, 114.7917
1125.776, 116.8443
1126.259, 112.6797
1126.741, 109.3617
1127.223, 114.0770
1127.705, 111.1060
1128.187, 118.3905
1128.669, 113.4315
1129.151, 115.9104
1129.633, 120.8298
1130.116, 113.6217
1130.598, 95.63368
1131.080, 86.51956
1131.562, 96.47681
1132.044, 108.7886
1132.526, 119.3736
1133.008, 123.1151
1133.490, 108.8858
1133.973, 93.01008
1134.455, 93.62698
1134.937, 105.1772
1135.419, 111.6818
1135.901, 110.6127
1136.383, 109.2594
1136.865, 111.3961
1137.347, 108.5418
1137.829, 93.56243
1138.312, 81.95776
1138.794, 80.52917
1139.276, 86.45292
1139.758, 98.17426
1140.240, 113.9509
1140.722, 124.1365
1141.204, 128.7824
1141.686, 125.4168
1142.168, 112.0376
1142.651, 106.3906
1143.133, 114.3096
1143.615, 120.7342
1144.097, 114.4509
1144.579, 103.0528
1145.061, 99.85678
1145.543, 102.3041
1146.025, 101.0886
1146.508, 97.48615
1146.990, 95.43596
1147.472, 95.65181
1147.954, 99.18095
1148.436, 106.0624
1148.918, 111.1474
1149.400, 109.9492
1149.882, 105.9751
1150.365, 97.89949
1150.847, 93.01975
1151.329, 106.2131
1151.811, 124.6871
1152.293, 123.5498
1152.775, 104.6749
1153.257, 94.54271
1153.739, 103.9664
1154.221, 112.2206
1154.703, 111.8321
1155.186, 111.2834
1155.668, 115.3372
1156.150, 118.8824
1156.632, 118.2898
1157.114, 114.1655
1157.596, 105.4710
1158.078, 91.84262
1158.560, 92.02488
1159.043, 114.1440
1159.525, 119.7009
1160.007, 99.39589
1160.489, 87.71188
1160.971, 99.71430
1161.453, 115.8933
1161.935, 118.0779
1162.417, 111.0203
1162.900, 104.0978
1163.382, 97.84203
1163.864, 95.19712
1164.346, 95.79838
1164.828, 99.07636
1165.310, 103.9199
1165.792, 104.2437
1166.274, 97.27440
1166.756, 93.54009
1167.239, 109.5263
1167.721, 125.5279
1168.203, 117.9455
1168.685, 102.2776
1169.167, 93.94020
1169.649, 92.07813
1170.131, 93.33414
1170.613, 96.45785
1171.095, 98.63611
1171.578, 98.54883
1172.060, 98.76843
1172.542, 101.7391
1173.024, 102.6799
1173.506, 97.96133
1173.988, 92.42598
1174.470, 88.06693
1174.952, 86.34882
1175.434, 90.78448
1175.917, 101.3876
1176.399, 110.8117
1176.881, 120.0109
1177.363, 120.3408
1177.845, 109.7243
1178.327, 102.7088
1178.809, 104.9628
1179.291, 110.4722
1179.774, 114.8617
1180.256, 115.4928
1180.738, 102.4154
1181.220, 105.5435
1181.702, 85.17353
1182.184, 97.84721
1182.666, 100.7386
1183.148, 93.23768
1183.630, 87.21255
1184.113, 87.08935
1184.595, 90.23650
1185.077, 96.29167
1185.559, 103.3637
1186.041, 113.9861
1186.523, 121.3731
1187.005, 118.1836
1187.487, 109.9139
1187.969, 102.6654
1188.452, 97.40092
1188.934, 95.76467
1189.416, 97.49182
1189.898, 104.7717
1190.380, 125.3491
1190.862, 132.2872
1191.344, 113.8784
1191.826, 99.38871
1192.309, 107.5888
1192.791, 93.90903
1193.273, 112.6559
1193.755, 91.31450
1194.237, 86.79463
1194.719, 96.48042
1195.201, 107.7257
1195.683, 118.4650
1196.166, 124.7492
1196.648, 125.3101
1197.130, 117.3576
1197.612, 98.02562
1198.094, 82.42487
1198.576, 89.10349
1199.058, 100.2034
1199.540, 100.2183
1200.022, 95.26508
1200.505, 89.35858
1200.987, 85.22733
1201.469, 89.51636
1201.951, 101.6611
1202.433, 103.3979
1202.915, 77.35178
1203.397, 67.43176
1203.879, 85.98697
1204.361, 103.5469
1204.844, 114.6215
1205.326, 117.6196
1205.808, 108.8257
1206.290, 96.33335
1206.772, 95.18914
1207.254, 103.2786
1207.736, 105.9447
1208.218, 103.7723
1208.701, 101.2084
1209.183, 99.00827
1209.665, 100.2506
1210.147, 104.8957
1210.629, 103.2559
1211.111, 86.85592
1211.593, 73.53495
1212.075, 85.72913
1212.557, 104.4331
1213.040, 112.4373
1213.522, 115.1682
1214.004, 120.4249
1214.486, 126.0425
1214.968, 124.8736
1215.450, 116.0989
1215.932, 109.8287
1216.414, 109.1545
1216.896, 108.6861
1217.379, 108.7533
1217.861, 107.8140
1218.343, 104.8335
1218.825, 101.8089
1219.307, 99.71324
1219.789, 99.81368
1220.271, 106.5900
1220.753, 116.8802
1221.236, 108.5226
1221.718, 86.53022
1222.200, 80.63336
1222.682, 90.23318
1223.164, 96.14919
1223.646, 93.88004
1224.128, 95.29182
1224.610, 108.5711
1225.093, 122.1794
1225.575, 127.7891
1226.057, 128.7959
1226.539, 127.9389
1227.021, 123.6894
1227.503, 108.0585
1227.985, 90.67158
1228.467, 92.72637
1228.949, 115.3356
1229.432, 126.6309
1229.914, 118.0951
1230.396, 117.9924
1230.878, 132.9043
1231.360, 135.2281
1231.842, 114.1725
1232.324, 96.29400
1232.806, 98.95136
1233.288, 111.7772
1233.771, 122.5966
1234.253, 129.2404
1234.735, 122.7681
1235.217, 108.8430
1235.699, 101.0060
1236.181, 98.75959
1236.663, 97.80614
1237.145, 97.06709
1237.628, 96.61040
1238.110, 96.08028
1238.592, 98.25614
1239.074, 106.5788
1239.556, 114.9942
1240.038, 124.9165
1240.520, 129.7610
1241.002, 117.5642
1241.484, 104.0778
1241.967, 111.2041
1242.449, 104.7020
1242.931, 102.1565
1243.413, 109.7550
1243.895, 101.0226
1244.377, 106.7332
1244.859, 112.7006
1245.341, 116.2374
1245.823, 117.0321
1246.306, 115.0438
1246.788, 113.0181
1247.270, 114.0399
1247.752, 114.8419
1248.234, 108.1239
1248.716, 102.4693
1249.198, 114.8764
1249.680, 129.2794
1250.163, 114.6088
1250.645, 83.32051
1251.127, 80.02463
1251.609, 115.0135
1252.091, 136.6055
1252.573, 132.1103
1253.055, 130.8146
1253.537, 138.2806
1254.020, 137.6393
1254.502, 120.2591
1254.984, 105.6532
1255.466, 109.5793
1255.948, 121.3415
1256.430, 123.2436
1256.912, 118.4418
1257.394, 115.0891
1257.876, 113.1987
1258.359, 114.4761
1258.841, 116.7884
1259.323, 111.9552
1259.805, 100.8909
1260.287, 98.37666
1260.769, 112.6225
1261.251, 125.9077
1261.733, 130.0412
1262.215, 133.5397
1262.698, 142.7317
1263.180, 148.0062
1263.662, 142.0407
1264.144, 132.1083
1264.626, 125.9451
1265.108, 123.0576
1265.590, 122.8324
1266.072, 125.0300
1266.555, 121.0559
1267.037, 112.2614
1267.519, 108.8877
1268.001, 112.3228
1268.483, 121.9592
1268.965, 136.5352
1269.447, 145.8919
1269.929, 140.8553
1270.411, 133.8675
1270.894, 134.0304
1271.376, 135.3285
1271.858, 134.8444
##END=



