##NAMES=Kolbeckite
##RRUFFID=R061040
##IDEAL CHEMISTRY=Sc^3+^P^5+^O_4_&#183;2H_2_O
##LOCALITY=Christy Pit, Magnet Cove, Arkansas, USA
##OWNER=RRUFF
##SOURCE=Mark Mauthner
##DESCRIPTION=Green platy crystal, severely twinned, associated with quartz.
##STATUS=The identification of this mineral has been confirmed only by single crystal X-ray diffraction.
##URL=rruff.info/R061040
137.4376, 1303.870
137.9197, 1348.450
138.4018, 1396.176
138.8840, 1442.111
139.3661, 1491.562
139.8482, 1553.741
140.3303, 1631.713
140.8124, 1716.095
141.2945, 1795.161
141.7766, 1869.639
142.2588, 1947.372
142.7409, 2036.140
143.2230, 2129.159
143.7051, 2212.858
144.1872, 2283.569
144.6693, 2345.529
145.1515, 2403.982
145.6336, 2459.104
146.1157, 2509.216
146.5978, 2556.285
147.0799, 2598.324
147.5620, 2627.350
148.0442, 2638.319
148.5263, 2639.904
149.0084, 2642.054
149.4905, 2644.686
149.9726, 2643.372
150.4547, 2635.116
150.9369, 2620.282
151.4190, 2601.231
151.9011, 2575.369
152.3832, 2548.268
152.8653, 2523.635
153.3474, 2501.750
153.8296, 2481.919
154.3117, 2465.309
154.7938, 2451.824
155.2759, 2434.640
155.7580, 2405.546
156.2401, 2378.292
156.7223, 2362.946
157.2044, 2360.079
157.6865, 2361.649
158.1686, 2359.230
158.6507, 2351.969
159.1328, 2350.363
159.6150, 2361.417
160.0971, 2375.274
160.5792, 2387.665
161.0613, 2397.800
161.5434, 2404.503
162.0255, 2403.831
162.5077, 2392.982
162.9898, 2390.167
163.4719, 2409.512
163.9540, 2430.144
164.4361, 2439.056
164.9182, 2434.414
165.4004, 2426.088
165.8825, 2427.706
166.3646, 2443.696
166.8467, 2452.485
167.3288, 2444.218
167.8109, 2433.240
168.2931, 2427.097
168.7752, 2427.558
169.2573, 2432.534
169.7394, 2441.994
170.2215, 2461.659
170.7036, 2468.010
171.1858, 2450.233
171.6679, 2425.773
172.1500, 2403.404
172.6321, 2385.635
173.1142, 2371.721
173.5963, 2360.500
174.0785, 2351.859
174.5606, 2346.589
175.0427, 2344.981
175.5248, 2346.046
176.0069, 2349.651
176.4890, 2355.613
176.9711, 2363.104
177.4533, 2371.355
177.9354, 2381.687
178.4175, 2389.528
178.8996, 2392.030
179.3817, 2394.070
179.8638, 2398.817
180.3460, 2407.039
180.8281, 2417.471
181.3102, 2428.935
181.7923, 2444.320
182.2744, 2454.017
182.7565, 2455.219
183.2387, 2453.528
183.7208, 2451.254
184.2029, 2449.509
184.6850, 2449.928
185.1671, 2455.466
185.6492, 2469.507
186.1314, 2481.893
186.6135, 2490.039
187.0956, 2498.488
187.5777, 2511.986
188.0598, 2530.830
188.5419, 2549.701
189.0241, 2561.470
189.5062, 2565.373
189.9883, 2562.447
190.4704, 2539.630
190.9525, 2520.222
191.4346, 2523.519
191.9168, 2551.386
192.3989, 2588.419
192.8810, 2614.346
193.3631, 2626.406
193.8452, 2632.158
194.3273, 2626.602
194.8095, 2619.608
195.2916, 2616.131
195.7737, 2617.632
196.2558, 2624.102
196.7379, 2635.657
197.2200, 2652.469
197.7022, 2674.586
198.1843, 2709.935
198.6664, 2743.573
199.1485, 2763.233
199.6306, 2769.302
200.1127, 2773.599
200.5949, 2790.366
201.0770, 2823.760
201.5591, 2857.470
202.0412, 2897.056
202.5233, 2932.828
203.0054, 2954.433
203.4876, 2964.200
203.9697, 2975.730
204.4518, 3004.029
204.9339, 3052.807
205.4160, 3104.614
205.8981, 3163.050
206.3803, 3220.706
206.8624, 3271.387
207.3445, 3316.760
207.8266, 3364.151
208.3087, 3421.694
208.7908, 3492.257
209.2730, 3556.646
209.7551, 3610.695
210.2372, 3663.615
210.7193, 3721.477
211.2014, 3782.157
211.6835, 3839.396
212.1656, 3888.406
212.6478, 3929.317
213.1299, 3957.111
213.6120, 3967.984
214.0941, 3970.748
214.5762, 3968.794
215.0583, 3961.353
215.5405, 3946.809
216.0226, 3925.105
216.5047, 3896.483
216.9868, 3844.163
217.4689, 3751.463
217.9510, 3653.128
218.4332, 3559.996
218.9153, 3468.299
219.3974, 3366.294
219.8795, 3243.645
220.3616, 3103.716
220.8438, 2986.977
221.3259, 2919.941
221.8080, 2848.301
222.2901, 2748.144
222.7722, 2638.339
223.2543, 2551.079
223.7365, 2507.212
224.2186, 2497.731
224.7007, 2477.601
225.1828, 2438.441
225.6649, 2397.043
226.1470, 2352.175
226.6292, 2307.506
227.1113, 2266.820
227.5934, 2232.043
228.0755, 2203.299
228.5576, 2181.187
229.0397, 2172.104
229.5219, 2161.169
230.0040, 2145.224
230.4861, 2127.416
230.9682, 2109.935
231.4503, 2093.736
231.9324, 2080.371
232.4146, 2073.359
232.8967, 2073.508
233.3788, 2079.598
233.8609, 2098.247
234.3430, 2118.007
234.8251, 2128.448
235.3073, 2126.890
235.7894, 2119.449
236.2715, 2115.510
236.7536, 2115.439
237.2357, 2118.280
237.7178, 2123.479
238.2000, 2131.433
238.6821, 2143.426
239.1642, 2159.189
239.6463, 2176.346
240.1284, 2190.641
240.6105, 2199.054
241.0927, 2215.886
241.5748, 2250.681
242.0569, 2286.467
242.5390, 2313.600
243.0211, 2332.856
243.5032, 2352.907
243.9854, 2383.113
244.4675, 2424.701
244.9496, 2464.156
245.4317, 2504.875
245.9138, 2539.794
246.3959, 2558.228
246.8781, 2567.107
247.3602, 2585.199
247.8423, 2629.220
248.3244, 2697.107
248.8065, 2759.631
249.2886, 2806.387
249.7707, 2862.022
250.2529, 2942.392
250.7350, 3037.051
251.2171, 3126.816
251.6992, 3198.969
252.1813, 3258.597
252.6634, 3322.717
253.1456, 3391.632
253.6277, 3464.250
254.1098, 3547.678
254.5919, 3631.727
255.0740, 3702.791
255.5561, 3754.252
256.0383, 3792.157
256.5204, 3830.180
257.0025, 3873.670
257.4846, 3897.923
257.9667, 3883.505
258.4489, 3849.869
258.9310, 3813.757
259.4131, 3780.829
259.8952, 3740.077
260.3773, 3676.454
260.8594, 3588.543
261.3416, 3497.735
261.8237, 3403.896
262.3058, 3313.668
262.7879, 3232.425
263.2700, 3161.224
263.7521, 3095.697
264.2343, 3032.602
264.7163, 2972.041
265.1985, 2914.114
265.6806, 2853.291
266.1627, 2803.512
266.6448, 2782.899
267.1269, 2789.980
267.6090, 2793.968
268.0912, 2774.194
268.5733, 2740.851
269.0554, 2718.852
269.5375, 2713.660
270.0196, 2713.572
270.5017, 2708.429
270.9839, 2699.188
271.4660, 2688.732
271.9481, 2671.527
272.4302, 2656.429
272.9123, 2658.796
273.3944, 2680.615
273.8766, 2700.286
274.3587, 2701.983
274.8408, 2687.145
275.3229, 2669.240
275.8050, 2641.647
276.2871, 2617.020
276.7693, 2606.386
277.2514, 2607.815
277.7335, 2610.860
278.2156, 2610.862
278.6977, 2607.372
279.1798, 2599.168
279.6620, 2579.197
280.1441, 2563.531
280.6262, 2562.412
281.1083, 2569.508
281.5904, 2572.329
282.0725, 2565.846
282.5547, 2552.454
283.0368, 2535.649
283.5189, 2501.946
284.0010, 2489.417
284.4831, 2523.049
284.9652, 2570.557
285.4474, 2594.158
285.9295, 2585.022
286.4116, 2565.066
286.8937, 2564.373
287.3758, 2593.145
287.8579, 2613.832
288.3401, 2620.395
288.8222, 2624.460
289.3043, 2627.351
289.7864, 2632.990
290.2685, 2653.370
290.7506, 2702.353
291.2328, 2783.983
291.7149, 2847.119
292.1970, 2868.286
292.6791, 2896.598
293.1612, 2950.127
293.6433, 3023.401
294.1255, 3103.320
294.6076, 3182.866
295.0897, 3261.301
295.5718, 3334.365
296.0539, 3390.786
296.5360, 3456.833
297.0182, 3536.351
297.5003, 3626.780
297.9824, 3724.855
298.4645, 3829.794
298.9466, 3941.194
299.4287, 4060.555
299.9109, 4191.665
300.3930, 4321.037
300.8751, 4437.355
301.3572, 4557.510
301.8393, 4697.706
302.3214, 4858.393
302.8036, 5022.780
303.2857, 5171.405
303.7678, 5303.630
304.2499, 5445.508
304.7320, 5610.880
305.2141, 5774.456
305.6963, 5918.846
306.1784, 6048.271
306.6605, 6177.207
307.1426, 6326.393
307.6247, 6481.536
308.1068, 6601.247
308.5890, 6677.554
309.0711, 6737.743
309.5532, 6795.593
310.0353, 6849.033
310.5174, 6893.143
310.9995, 6927.560
311.4817, 6951.580
311.9638, 6964.219
312.4459, 6965.647
312.9280, 6956.673
313.4101, 6933.887
313.8922, 6902.977
314.3744, 6877.343
314.8565, 6862.332
315.3386, 6839.894
315.8207, 6792.245
316.3028, 6731.228
316.7849, 6682.859
317.2671, 6654.584
317.7492, 6641.001
318.2313, 6640.245
318.7134, 6658.245
319.1955, 6657.810
319.6776, 6625.925
320.1598, 6578.371
320.6419, 6527.052
321.1240, 6474.318
321.6061, 6421.197
322.0882, 6370.449
322.5703, 6322.604
323.0525, 6259.527
323.5346, 6179.139
324.0167, 6088.433
324.4988, 5989.957
324.9809, 5883.602
325.4630, 5768.231
325.9452, 5642.302
326.4273, 5507.682
326.9094, 5370.429
327.3915, 5221.524
327.8736, 5082.472
328.3557, 4951.453
328.8379, 4832.029
329.3200, 4730.075
329.8021, 4646.267
330.2842, 4572.066
330.7663, 4495.014
331.2484, 4413.538
331.7306, 4332.949
332.2127, 4244.429
332.6948, 4164.030
333.1769, 4101.724
333.6590, 4055.588
334.1411, 4017.931
334.6233, 3985.505
335.1053, 3956.982
335.5875, 3922.680
336.0696, 3879.001
336.5517, 3835.725
337.0338, 3794.463
337.5159, 3756.862
337.9980, 3726.979
338.4802, 3710.893
338.9623, 3695.983
339.4444, 3664.418
339.9265, 3615.487
340.4086, 3559.911
340.8907, 3498.218
341.3729, 3433.839
341.8550, 3370.132
342.3371, 3306.966
342.8192, 3245.964
343.3013, 3190.244
343.7834, 3137.272
344.2656, 3080.895
344.7477, 3018.277
345.2298, 2956.117
345.7119, 2902.037
346.1940, 2856.316
346.6761, 2810.083
347.1583, 2758.089
347.6404, 2708.307
348.1225, 2667.625
348.6046, 2635.499
349.0867, 2607.864
349.5688, 2582.610
350.0510, 2559.246
350.5331, 2533.412
351.0152, 2503.841
351.4973, 2473.775
351.9794, 2436.619
352.4615, 2401.642
352.9437, 2386.160
353.4258, 2396.092
353.9079, 2413.282
354.3900, 2403.370
354.8721, 2343.938
355.3542, 2303.022
355.8364, 2288.997
356.3185, 2283.209
356.8006, 2276.490
357.2827, 2267.358
357.7648, 2257.183
358.2469, 2245.590
358.7291, 2233.162
359.2112, 2230.106
359.6933, 2244.691
360.1754, 2257.246
360.6575, 2262.252
361.1396, 2260.924
361.6218, 2253.958
362.1039, 2239.939
362.5860, 2224.797
363.0681, 2217.719
363.5502, 2219.424
364.0323, 2222.038
364.5145, 2223.315
364.9966, 2224.601
365.4787, 2226.935
365.9608, 2230.298
366.4429, 2235.337
366.9250, 2241.181
367.4072, 2249.122
367.8893, 2264.658
368.3714, 2290.385
368.8535, 2312.529
369.3356, 2314.688
369.8177, 2298.959
370.2999, 2295.926
370.7820, 2315.849
371.2641, 2341.157
371.7462, 2361.780
372.2283, 2378.728
372.7104, 2396.977
373.1926, 2419.381
373.6747, 2443.735
374.1568, 2463.366
374.6389, 2474.757
375.1210, 2485.902
375.6031, 2491.730
376.0853, 2500.607
376.5674, 2523.172
377.0495, 2559.567
377.5316, 2598.217
378.0137, 2626.055
378.4958, 2641.517
378.9780, 2657.233
379.4601, 2664.520
379.9422, 2681.058
380.4243, 2717.498
380.9064, 2766.493
381.3885, 2816.459
381.8707, 2863.124
382.3528, 2903.389
382.8349, 2924.732
383.3170, 2916.912
383.7991, 2927.866
384.2813, 2999.098
384.7634, 3078.242
385.2455, 3116.269
385.7276, 3106.237
386.2097, 3100.459
386.6918, 3143.590
387.1740, 3219.917
387.6561, 3280.951
388.1382, 3317.968
388.6203, 3347.919
389.1024, 3384.148
389.5845, 3425.733
390.0667, 3467.420
390.5488, 3511.063
391.0309, 3552.615
391.5130, 3588.550
391.9951, 3619.927
392.4772, 3650.393
392.9594, 3681.831
393.4415, 3712.939
393.9236, 3740.190
394.4057, 3765.990
394.8878, 3783.877
395.3699, 3791.201
395.8521, 3791.872
396.3342, 3786.219
396.8163, 3776.063
397.2984, 3767.520
397.7805, 3767.430
398.2626, 3776.214
398.7448, 3780.225
399.2269, 3783.270
399.7090, 3776.268
400.1911, 3752.250
400.6732, 3718.296
401.1553, 3684.635
401.6375, 3655.894
402.1196, 3626.823
402.6017, 3587.249
403.0838, 3535.930
403.5659, 3486.089
404.0480, 3439.392
404.5302, 3396.764
405.0123, 3358.183
405.4944, 3323.910
405.9765, 3294.607
406.4586, 3274.949
406.9407, 3259.080
407.4228, 3235.158
407.9049, 3201.890
408.3871, 3173.380
408.8692, 3162.472
409.3513, 3163.064
409.8334, 3148.453
410.3155, 3100.253
410.7976, 3060.017
411.2798, 3044.768
411.7619, 3045.820
412.2440, 3052.573
412.7261, 3061.563
413.2082, 3069.127
413.6903, 3069.108
414.1725, 3056.524
414.6546, 3054.117
415.1367, 3062.567
415.6188, 3078.560
416.1009, 3107.367
416.5830, 3142.143
417.0652, 3168.926
417.5473, 3178.167
418.0294, 3176.655
418.5115, 3182.309
418.9936, 3194.144
419.4757, 3215.949
419.9579, 3257.941
420.4400, 3304.079
420.9221, 3340.248
421.4042, 3365.288
421.8863, 3396.039
422.3684, 3449.010
422.8506, 3516.905
423.3327, 3577.288
423.8148, 3626.814
424.2969, 3676.989
424.7790, 3737.929
425.2611, 3806.480
425.7433, 3870.548
426.2254, 3931.001
426.7075, 3985.100
427.1896, 4018.683
427.6717, 4046.544
428.1538, 4103.327
428.6360, 4201.930
429.1181, 4317.960
429.6002, 4414.330
430.0823, 4480.225
430.5644, 4558.843
431.0465, 4664.222
431.5287, 4768.332
432.0108, 4855.148
432.4929, 4928.230
432.9750, 4999.955
433.4571, 5078.320
433.9392, 5159.781
434.4214, 5230.576
434.9035, 5286.566
435.3856, 5342.252
435.8677, 5395.971
436.3498, 5453.848
436.8319, 5526.547
437.3141, 5613.765
437.7962, 5691.913
438.2783, 5740.158
438.7604, 5766.847
439.2425, 5797.097
439.7246, 5834.502
440.2068, 5866.579
440.6889, 5889.854
441.1710, 5899.911
441.6531, 5886.124
442.1352, 5827.910
442.6173, 5771.389
443.0995, 5745.842
443.5816, 5733.694
444.0637, 5704.882
444.5458, 5650.647
445.0279, 5581.860
445.5100, 5510.945
445.9922, 5435.814
446.4743, 5367.836
446.9564, 5316.699
447.4385, 5260.935
447.9206, 5192.744
448.4027, 5113.684
448.8849, 5025.545
449.3670, 4928.757
449.8491, 4829.986
450.3312, 4744.473
450.8133, 4673.898
451.2954, 4609.898
451.7776, 4553.466
452.2597, 4502.013
452.7418, 4458.802
453.2239, 4421.419
453.7060, 4374.454
454.1881, 4301.537
454.6703, 4218.365
455.1524, 4147.153
455.6345, 4088.426
456.1166, 4041.777
456.5987, 4011.462
457.0808, 3989.856
457.5630, 3955.083
458.0451, 3903.123
458.5272, 3849.080
459.0093, 3790.986
459.4914, 3735.236
459.9735, 3690.939
460.4557, 3657.350
460.9378, 3621.128
461.4199, 3569.355
461.9020, 3503.222
462.3841, 3449.276
462.8662, 3418.631
463.3484, 3385.423
463.8305, 3346.294
464.3126, 3301.648
464.7947, 3247.766
465.2768, 3184.344
465.7589, 3125.285
466.2411, 3089.649
466.7232, 3073.814
467.2053, 3049.573
467.6874, 3014.183
468.1695, 2970.312
468.6516, 2915.423
469.1338, 2853.436
469.6159, 2794.389
470.0980, 2736.438
470.5801, 2685.104
471.0622, 2646.811
471.5443, 2616.898
472.0265, 2586.087
472.5086, 2551.468
472.9907, 2514.190
473.4728, 2475.803
473.9549, 2435.795
474.4370, 2396.191
474.9192, 2355.082
475.4013, 2316.297
475.8834, 2281.708
476.3655, 2250.828
476.8476, 2222.966
477.3297, 2197.939
477.8118, 2174.654
478.2939, 2151.189
478.7761, 2127.602
479.2582, 2103.489
479.7403, 2074.683
480.2224, 2050.178
480.7045, 2040.566
481.1866, 2041.786
481.6688, 2035.309
482.1509, 2007.570
482.6330, 1973.435
483.1151, 1944.874
483.5972, 1922.696
484.0793, 1913.276
484.5615, 1922.455
485.0436, 1937.692
485.5257, 1935.639
486.0078, 1907.001
486.4899, 1881.645
486.9720, 1853.929
487.4542, 1834.835
487.9363, 1840.039
488.4184, 1860.503
488.9005, 1870.556
489.3826, 1853.010
489.8647, 1819.153
490.3469, 1801.296
490.8290, 1804.919
491.3111, 1808.542
491.7932, 1808.024
492.2753, 1806.272
492.7574, 1806.282
493.2396, 1807.468
493.7217, 1804.994
494.2038, 1790.803
494.6859, 1774.164
495.1680, 1771.033
495.6501, 1780.854
496.1323, 1789.599
496.6144, 1790.507
497.0965, 1786.667
497.5786, 1785.362
498.0607, 1789.477
498.5428, 1789.338
499.0250, 1781.721
499.5071, 1771.298
499.9892, 1756.815
500.4713, 1742.082
500.9534, 1738.573
501.4355, 1755.887
501.9177, 1786.471
502.3998, 1802.149
502.8819, 1795.807
503.3640, 1791.649
503.8461, 1800.171
504.3282, 1808.273
504.8104, 1803.619
505.2925, 1787.346
505.7746, 1776.011
506.2567, 1781.276
506.7388, 1796.143
507.2209, 1810.249
507.7031, 1823.424
508.1852, 1837.680
508.6673, 1855.979
509.1494, 1873.451
509.6315, 1877.228
510.1136, 1858.045
510.5958, 1847.028
511.0779, 1847.720
511.5600, 1856.894
512.0421, 1878.787
512.5242, 1907.879
513.0063, 1927.856
513.4885, 1926.349
513.9706, 1912.335
514.4527, 1914.864
514.9348, 1940.537
515.4169, 1963.967
515.8990, 1977.287
516.3812, 1988.880
516.8633, 2005.091
517.3454, 2025.514
517.8275, 2044.494
518.3096, 2058.719
518.7917, 2070.455
519.2739, 2082.928
519.7560, 2095.944
520.2381, 2106.038
520.7202, 2110.473
521.2023, 2114.073
521.6844, 2126.322
522.1666, 2153.019
522.6487, 2175.991
523.1308, 2193.775
523.6129, 2209.132
524.0950, 2222.112
524.5771, 2234.124
525.0593, 2247.763
525.5414, 2264.502
526.0235, 2283.163
526.5056, 2301.711
526.9877, 2320.410
527.4698, 2337.576
527.9520, 2353.562
528.4341, 2367.114
528.9162, 2374.655
529.3983, 2378.393
529.8804, 2388.295
530.3625, 2412.117
530.8447, 2439.202
531.3268, 2459.125
531.8089, 2475.068
532.2910, 2497.629
532.7731, 2531.151
533.2552, 2566.058
533.7374, 2587.555
534.2195, 2589.487
534.7016, 2605.334
535.1837, 2646.089
535.6658, 2687.595
536.1479, 2725.226
536.6301, 2756.891
537.1122, 2777.786
537.5943, 2785.605
538.0764, 2794.039
538.5585, 2822.354
539.0406, 2868.245
539.5228, 2910.011
540.0049, 2944.744
540.4870, 2976.550
540.9691, 3005.146
541.4512, 3033.017
541.9333, 3069.088
542.4155, 3124.825
542.8976, 3174.249
543.3797, 3203.886
543.8618, 3223.445
544.3439, 3244.001
544.8260, 3268.219
545.3082, 3295.917
545.7903, 3327.701
546.2724, 3362.889
546.7545, 3392.614
547.2366, 3415.938
547.7188, 3435.080
548.2009, 3445.449
548.6830, 3455.428
549.1651, 3472.483
549.6472, 3497.540
550.1293, 3526.694
550.6115, 3560.837
551.0936, 3596.066
551.5757, 3625.320
552.0578, 3648.552
552.5399, 3672.456
553.0220, 3701.868
553.5042, 3731.573
553.9863, 3749.079
554.4684, 3744.410
554.9505, 3746.298
555.4326, 3762.825
555.9147, 3778.828
556.3969, 3780.830
556.8790, 3774.654
557.3611, 3776.988
557.8432, 3798.066
558.3253, 3826.198
558.8074, 3839.045
559.2896, 3835.589
559.7717, 3835.207
560.2538, 3844.735
560.7359, 3852.443
561.2180, 3847.303
561.7001, 3831.764
562.1823, 3813.634
562.6644, 3790.535
563.1465, 3768.854
563.6286, 3751.685
564.1107, 3738.229
564.5928, 3728.575
565.0750, 3722.183
565.5571, 3714.411
566.0392, 3698.752
566.5213, 3675.271
567.0034, 3663.122
567.4855, 3668.526
567.9677, 3676.018
568.4498, 3680.220
568.9319, 3685.150
569.4140, 3698.875
569.8961, 3722.320
570.3782, 3735.922
570.8604, 3717.893
571.3425, 3686.500
571.8246, 3674.850
572.3067, 3682.540
572.7888, 3681.793
573.2709, 3654.532
573.7531, 3591.203
574.2352, 3608.691
574.7173, 3613.193
575.1994, 3605.404
575.6815, 3548.515
576.1636, 3555.030
576.6458, 3536.132
577.1279, 3516.195
577.6100, 3531.634
578.0921, 3522.393
578.5742, 3527.961
579.0563, 3519.417
579.5385, 3498.140
580.0206, 3483.528
580.5027, 3482.886
580.9848, 3476.614
581.4669, 3444.477
581.9490, 3391.069
582.4311, 3350.553
582.9132, 3337.805
583.3953, 3319.514
583.8774, 3275.870
584.3596, 3227.280
584.8417, 3199.999
585.3238, 3194.773
585.8059, 3191.290
586.2880, 3173.375
586.7701, 3142.620
587.2523, 3103.646
587.7344, 3051.786
588.2165, 3008.026
588.6986, 2983.536
589.1807, 2964.900
589.6628, 2939.098
590.1450, 2906.419
590.6271, 2874.832
591.1092, 2849.677
591.5913, 2823.749
592.0734, 2787.168
592.5555, 2745.529
593.0377, 2713.356
593.5198, 2695.533
594.0019, 2684.807
594.4840, 2672.213
594.9661, 2657.898
595.4482, 2640.963
595.9304, 2624.927
596.4125, 2601.050
596.8946, 2560.413
597.3767, 2514.479
597.8588, 2475.254
598.3409, 2445.068
598.8231, 2422.865
599.3052, 2417.758
599.7873, 2415.698
600.2694, 2389.447
600.7515, 2341.137
601.2336, 2300.558
601.7158, 2284.214
602.1979, 2282.053
602.6800, 2271.416
603.1621, 2249.285
603.6442, 2225.153
604.1263, 2194.226
604.6085, 2166.296
605.0906, 2147.938
605.5727, 2135.368
606.0548, 2121.183
606.5369, 2102.441
607.0190, 2081.974
607.5012, 2061.356
607.9833, 2041.213
608.4654, 2022.782
608.9475, 2006.006
609.4296, 1994.311
609.9117, 1992.392
610.3939, 1996.588
610.8760, 1990.600
611.3581, 1969.511
611.8402, 1944.716
612.3223, 1908.672
612.8044, 1875.720
613.2866, 1858.304
613.7687, 1853.210
614.2508, 1849.502
614.7329, 1842.887
615.2150, 1830.552
615.6971, 1801.878
616.1793, 1759.803
616.6614, 1735.113
617.1435, 1737.322
617.6256, 1745.927
618.1077, 1743.262
618.5898, 1730.375
619.0720, 1721.310
619.5541, 1722.077
620.0362, 1718.667
620.5183, 1703.061
621.0004, 1685.397
621.4825, 1676.858
621.9647, 1676.788
622.4468, 1674.855
622.9289, 1662.886
623.4110, 1645.129
623.8931, 1631.565
624.3752, 1622.349
624.8574, 1610.690
625.3395, 1591.439
625.8216, 1576.187
626.3037, 1580.478
626.7858, 1604.409
627.2679, 1617.589
627.7501, 1613.497
628.2322, 1605.775
628.7143, 1598.742
629.1964, 1590.776
629.6785, 1577.842
630.1606, 1560.613
630.6428, 1546.004
631.1249, 1540.425
631.6070, 1541.767
632.0891, 1545.082
632.5712, 1551.255
633.0533, 1550.758
633.5355, 1537.365
634.0176, 1520.890
634.4997, 1512.684
634.9818, 1512.769
635.4639, 1514.978
635.9460, 1525.155
636.4282, 1530.337
636.9103, 1520.668
637.3924, 1504.631
637.8745, 1493.306
638.3566, 1489.134
638.8387, 1487.669
639.3209, 1485.517
639.8030, 1482.454
640.2851, 1477.200
640.7672, 1469.423
641.2493, 1461.748
641.7314, 1454.856
642.2136, 1448.767
642.6957, 1445.305
643.1778, 1444.990
643.6599, 1437.228
644.1420, 1408.359
644.6241, 1385.922
645.1063, 1387.858
645.5884, 1401.701
646.0705, 1409.515
646.5526, 1407.386
647.0347, 1404.651
647.5168, 1412.799
647.9990, 1427.417
648.4811, 1427.695
648.9632, 1411.364
649.4453, 1399.009
649.9274, 1400.004
650.4095, 1405.000
650.8917, 1400.051
651.3738, 1383.664
651.8559, 1374.655
652.3380, 1383.069
652.8201, 1388.994
653.3022, 1380.218
653.7844, 1365.603
654.2665, 1358.152
654.7486, 1360.161
655.2307, 1362.198
655.7128, 1353.467
656.1949, 1338.547
656.6771, 1333.293
657.1592, 1338.309
657.6413, 1343.899
658.1234, 1348.059
658.6055, 1349.100
659.0876, 1343.897
659.5698, 1331.174
660.0519, 1321.482
660.5340, 1314.850
661.0161, 1311.264
661.4982, 1313.494
661.9803, 1317.269
662.4625, 1317.959
662.9446, 1314.698
663.4267, 1309.263
663.9088, 1300.731
664.3909, 1292.247
664.8730, 1292.852
665.3552, 1301.969
665.8373, 1306.693
666.3194, 1301.801
666.8015, 1295.022
667.2836, 1295.713
667.7657, 1304.596
668.2479, 1310.638
668.7300, 1313.701
669.2121, 1314.314
669.6942, 1311.772
670.1763, 1307.353
670.6584, 1300.185
671.1406, 1291.553
671.6227, 1287.573
672.1048, 1296.610
672.5869, 1308.444
673.0690, 1306.199
673.5511, 1292.913
674.0333, 1281.621
674.5154, 1275.444
674.9975, 1275.850
675.4796, 1286.820
675.9617, 1307.070
676.4438, 1311.145
676.9260, 1279.999
677.4081, 1261.179
677.8902, 1266.913
678.3723, 1281.530
678.8544, 1298.115
679.3365, 1313.637
679.8187, 1320.943
680.3008, 1312.134
680.7829, 1300.114
681.2650, 1296.535
681.7471, 1298.284
682.2292, 1299.697
682.7114, 1299.422
683.1935, 1295.808
683.6756, 1286.540
684.1577, 1274.198
684.6398, 1270.786
685.1219, 1281.263
685.6041, 1287.239
686.0862, 1283.055
686.5683, 1277.199
687.0504, 1274.240
687.5325, 1273.883
688.0146, 1275.982
688.4968, 1285.753
688.9789, 1288.352
689.4610, 1265.063
689.9431, 1237.746
690.4252, 1237.012
690.9073, 1259.441
691.3895, 1277.630
691.8716, 1274.929
692.3537, 1261.089
692.8358, 1254.497
693.3179, 1255.376
693.8000, 1260.464
694.2822, 1271.426
694.7643, 1281.994
695.2464, 1289.473
695.7285, 1293.432
696.2106, 1292.323
696.6927, 1282.007
697.1749, 1277.098
697.6570, 1284.953
698.1391, 1294.337
698.6212, 1301.186
699.1033, 1303.138
699.5854, 1294.367
700.0676, 1272.707
700.5497, 1252.211
701.0318, 1251.788
701.5139, 1264.746
701.9960, 1267.903
702.4781, 1260.130
702.9603, 1253.151
703.4424, 1251.971
703.9245, 1254.681
704.4066, 1258.351
704.8887, 1263.150
705.3708, 1268.330
705.8530, 1273.702
706.3351, 1279.710
706.8172, 1288.975
707.2993, 1297.506
707.7814, 1300.508
708.2635, 1297.549
708.7457, 1292.898
709.2278, 1290.211
709.7099, 1286.035
710.1920, 1273.407
710.6741, 1256.343
711.1563, 1244.910
711.6384, 1242.001
712.1205, 1247.661
712.6026, 1264.160
713.0847, 1288.619
713.5668, 1299.379
714.0490, 1292.783
714.5311, 1282.468
715.0132, 1264.603
715.4953, 1250.815
715.9774, 1254.408
716.4595, 1270.885
716.9417, 1280.952
717.4238, 1280.116
717.9059, 1274.659
718.3880, 1259.419
718.8701, 1245.797
719.3522, 1247.013
719.8344, 1261.418
720.3165, 1279.714
720.7986, 1297.999
721.2807, 1311.595
721.7628, 1308.668
722.2449, 1292.572
722.7271, 1288.747
723.2091, 1301.764
723.6912, 1312.719
724.1733, 1310.057
724.6555, 1298.099
725.1376, 1286.641
725.6197, 1272.260
726.1018, 1266.622
726.5839, 1280.975
727.0660, 1290.822
727.5482, 1276.984
728.0303, 1256.796
728.5124, 1258.965
728.9945, 1289.865
729.4766, 1315.530
729.9587, 1309.770
730.4409, 1292.028
730.9230, 1281.645
731.4051, 1278.735
731.8872, 1283.462
732.3693, 1295.388
732.8514, 1304.863
733.3336, 1299.348
733.8157, 1281.519
734.2978, 1276.276
734.7799, 1288.448
735.2620, 1295.012
735.7441, 1284.755
736.2263, 1273.620
736.7084, 1281.109
737.1905, 1303.835
737.6726, 1315.470
738.1547, 1304.802
738.6368, 1295.641
739.1190, 1296.928
739.6011, 1300.216
740.0832, 1297.076
740.5653, 1288.842
741.0474, 1282.442
741.5295, 1281.505
742.0117, 1282.832
742.4938, 1283.993
742.9759, 1284.221
743.4580, 1280.116
743.9401, 1271.624
744.4222, 1264.123
744.9044, 1260.166
745.3865, 1260.210
745.8686, 1266.241
746.3507, 1281.109
746.8328, 1289.571
747.3149, 1288.040
747.7971, 1285.277
748.2792, 1287.272
748.7613, 1288.250
749.2434, 1278.251
749.7255, 1255.791
750.2076, 1243.004
750.6898, 1254.679
751.1719, 1268.977
751.6540, 1273.775
752.1361, 1272.165
752.6182, 1266.873
753.1003, 1259.995
753.5825, 1258.255
754.0646, 1271.470
754.5467, 1286.682
755.0288, 1268.726
755.5109, 1223.016
755.9930, 1202.763
756.4752, 1220.078
756.9573, 1247.746
757.4394, 1267.297
757.9215, 1278.797
758.4036, 1282.056
758.8857, 1273.636
759.3679, 1263.876
759.8500, 1247.659
760.3321, 1235.733
760.8142, 1236.044
761.2963, 1242.580
761.7784, 1245.405
762.2606, 1242.385
762.7427, 1238.054
763.2248, 1233.898
763.7069, 1229.604
764.1890, 1225.122
764.6711, 1220.209
765.1533, 1213.716
765.6354, 1205.611
766.1175, 1198.790
766.5996, 1197.284
767.0817, 1198.705
767.5638, 1193.754
768.0460, 1182.698
768.5281, 1178.541
769.0102, 1185.244
769.4923, 1197.161
769.9744, 1211.124
770.4565, 1225.646
770.9387, 1229.158
771.4208, 1211.966
771.9029, 1200.614
772.3850, 1198.978
772.8671, 1201.608
773.3492, 1210.462
773.8314, 1220.491
774.3135, 1220.873
774.7956, 1206.875
775.2777, 1192.094
775.7598, 1178.159
776.2419, 1169.916
776.7241, 1176.616
777.2062, 1191.658
777.6883, 1201.353
778.1704, 1200.915
778.6525, 1193.504
779.1346, 1177.638
779.6168, 1158.597
780.0989, 1155.606
780.5810, 1167.769
781.0631, 1176.066
781.5452, 1174.644
782.0273, 1170.527
782.5095, 1170.480
782.9916, 1174.048
783.4737, 1177.328
783.9558, 1180.838
784.4379, 1182.987
784.9200, 1183.517
785.4022, 1182.630
785.8843, 1178.143
786.3664, 1172.707
786.8485, 1172.543
787.3306, 1180.341
787.8127, 1188.242
788.2949, 1196.278
788.7770, 1200.848
789.2591, 1197.413
789.7412, 1188.957
790.2233, 1180.987
790.7054, 1175.248
791.1876, 1169.984
791.6697, 1160.604
792.1518, 1152.008
792.6339, 1157.510
793.1160, 1173.938
793.5981, 1184.297
794.0803, 1184.146
794.5624, 1178.966
795.0445, 1172.949
795.5266, 1166.833
796.0087, 1165.408
796.4908, 1172.068
796.9730, 1170.609
797.4551, 1153.656
797.9372, 1136.858
798.4193, 1131.027
798.9014, 1132.049
799.3835, 1129.323
799.8657, 1119.867
800.3478, 1115.177
800.8299, 1124.363
801.3120, 1130.387
801.7941, 1117.057
802.2762, 1099.056
802.7584, 1099.595
803.2405, 1121.170
803.7226, 1140.570
804.2047, 1142.473
804.6868, 1135.710
805.1689, 1122.578
805.6511, 1109.739
806.1332, 1115.553
806.6153, 1140.196
807.0974, 1161.808
807.5795, 1164.413
808.0616, 1156.198
808.5438, 1155.325
809.0259, 1161.609
809.5080, 1161.335
809.9901, 1151.496
810.4722, 1145.626
810.9543, 1152.748
811.4365, 1164.592
811.9186, 1165.424
812.4007, 1151.642
812.8828, 1144.656
813.3649, 1151.536
813.8470, 1155.859
814.3292, 1151.775
814.8113, 1145.171
815.2934, 1142.896
815.7755, 1143.783
816.2576, 1138.572
816.7397, 1115.993
817.2219, 1098.759
817.7040, 1097.693
818.1861, 1106.025
818.6682, 1123.833
819.1503, 1144.652
819.6324, 1152.823
820.1146, 1140.863
820.5967, 1125.882
821.0788, 1125.779
821.5609, 1134.908
822.0430, 1143.625
822.5251, 1150.865
823.0073, 1153.917
823.4894, 1151.848
823.9715, 1147.249
824.4536, 1142.421
824.9357, 1137.746
825.4178, 1136.477
825.9000, 1139.958
826.3821, 1137.338
826.8642, 1122.401
827.3463, 1111.331
827.8284, 1118.581
828.3105, 1137.672
828.7927, 1147.323
829.2748, 1142.615
829.7569, 1138.071
830.2390, 1133.279
830.7211, 1129.158
831.2032, 1124.471
831.6854, 1121.516
832.1675, 1125.343
832.6496, 1136.072
833.1317, 1141.267
833.6138, 1131.070
834.0959, 1120.145
834.5781, 1119.341
835.0602, 1121.279
835.5423, 1113.514
836.0244, 1098.567
836.5065, 1092.142
836.9886, 1104.094
837.4708, 1120.844
837.9529, 1128.443
838.4350, 1128.217
838.9171, 1119.589
839.3992, 1104.951
839.8813, 1097.666
840.3635, 1103.300
840.8456, 1114.000
841.3277, 1119.849
841.8098, 1121.744
842.2919, 1128.073
842.7740, 1140.286
843.2562, 1146.520
843.7383, 1143.450
844.2204, 1135.010
844.7025, 1122.328
845.1846, 1107.516
845.6667, 1099.665
846.1489, 1100.893
846.6310, 1105.179
847.1131, 1116.849
847.5952, 1126.638
848.0773, 1131.490
848.5594, 1132.240
849.0416, 1129.171
849.5237, 1122.164
850.0058, 1115.899
850.4879, 1105.036
850.9700, 1102.877
851.4521, 1127.132
851.9343, 1155.039
852.4164, 1159.179
852.8985, 1143.428
853.3806, 1131.959
853.8627, 1136.991
854.3448, 1145.127
854.8270, 1144.154
855.3091, 1139.479
855.7912, 1139.115
856.2733, 1142.405
856.7554, 1144.927
857.2375, 1145.207
857.7197, 1146.097
858.2018, 1151.459
858.6839, 1159.198
859.1660, 1163.414
859.6481, 1164.135
860.1302, 1159.749
860.6124, 1149.294
861.0945, 1144.245
861.5766, 1154.371
862.0587, 1172.448
862.5408, 1178.604
863.0229, 1169.893
863.5051, 1163.460
863.9872, 1159.943
864.4692, 1157.718
864.9514, 1156.541
865.4335, 1155.947
865.9156, 1155.673
866.3977, 1155.800
866.8798, 1154.385
867.3619, 1149.099
867.8441, 1145.649
868.3262, 1142.302
868.8083, 1143.393
869.2904, 1158.582
869.7725, 1179.084
870.2546, 1182.766
870.7368, 1159.696
871.2189, 1144.061
871.7010, 1155.813
872.1831, 1170.973
872.6652, 1172.281
873.1473, 1167.342
873.6295, 1169.822
874.1116, 1180.247
874.5937, 1185.111
875.0758, 1170.685
875.5579, 1157.289
876.0400, 1170.506
876.5222, 1196.001
877.0043, 1211.101
877.4864, 1214.567
877.9685, 1213.325
878.4506, 1210.512
878.9327, 1206.578
879.4149, 1202.368
879.8970, 1197.449
880.3791, 1188.106
880.8612, 1175.547
881.3433, 1171.718
881.8254, 1179.808
882.3076, 1189.617
882.7897, 1192.736
883.2718, 1191.629
883.7539, 1194.545
884.2360, 1202.591
884.7181, 1204.105
885.2003, 1195.969
885.6824, 1189.881
886.1645, 1191.430
886.6466, 1196.884
887.1287, 1200.699
887.6108, 1202.601
888.0930, 1209.401
888.5751, 1226.718
889.0572, 1239.042
889.5393, 1241.577
890.0214, 1240.916
890.5035, 1241.287
890.9857, 1241.693
891.4678, 1239.146
891.9499, 1231.207
892.4320, 1227.294
892.9141, 1235.639
893.3962, 1240.185
893.8784, 1231.544
894.3605, 1216.912
894.8426, 1200.585
895.3247, 1185.405
895.8068, 1181.959
896.2889, 1203.673
896.7711, 1222.031
897.2532, 1215.486
897.7353, 1203.755
898.2174, 1208.409
898.6995, 1222.858
899.1816, 1229.491
899.6638, 1222.961
900.1459, 1212.638
900.6280, 1201.570
901.1101, 1194.008
901.5922, 1194.401
902.0743, 1202.325
902.5565, 1223.776
903.0386, 1254.007
903.5207, 1268.007
904.0028, 1249.984
904.4849, 1219.717
904.9670, 1202.686
905.4492, 1196.552
905.9313, 1195.896
906.4134, 1199.587
906.8955, 1202.019
907.3776, 1201.426
907.8597, 1199.208
908.3419, 1196.154
908.8240, 1193.427
909.3061, 1196.244
909.7882, 1204.723
910.2703, 1207.628
910.7524, 1202.720
911.2346, 1201.005
911.7167, 1209.654
912.1988, 1219.655
912.6809, 1216.345
913.1630, 1199.505
913.6451, 1187.671
914.1273, 1181.152
914.6094, 1178.991
915.0915, 1182.372
915.5736, 1187.728
916.0557, 1193.283
916.5378, 1198.577
917.0200, 1202.655
917.5021, 1207.198
917.9842, 1205.594
918.4663, 1186.453
918.9484, 1176.493
919.4305, 1193.124
919.9127, 1214.744
920.3948, 1221.528
920.8769, 1214.947
921.3590, 1206.645
921.8411, 1191.812
922.3232, 1184.469
922.8054, 1191.363
923.2875, 1201.174
923.7696, 1211.094
924.2517, 1218.247
924.7338, 1216.637
925.2159, 1206.016
925.6981, 1200.713
926.1802, 1207.319
926.6623, 1217.859
927.1444, 1234.177
927.6265, 1248.360
928.1086, 1251.062
928.5908, 1245.897
929.0729, 1243.041
929.5550, 1245.793
930.0371, 1248.082
930.5192, 1245.424
931.0013, 1241.560
931.4835, 1238.182
931.9656, 1236.503
932.4477, 1239.623
932.9298, 1246.409
933.4119, 1250.041
933.8940, 1245.638
934.3762, 1244.214
934.8583, 1263.601
935.3404, 1287.864
935.8225, 1291.131
936.3046, 1279.467
936.7867, 1271.627
937.2689, 1272.023
937.7510, 1272.448
938.2331, 1266.493
938.7152, 1257.569
939.1973, 1249.010
939.6794, 1242.178
940.1616, 1240.923
940.6437, 1245.137
941.1258, 1253.457
941.6079, 1265.174
942.0900, 1276.125
942.5721, 1281.565
943.0543, 1283.129
943.5364, 1284.428
944.0185, 1285.915
944.5006, 1291.813
944.9827, 1302.485
945.4648, 1310.412
945.9470, 1311.047
946.4291, 1310.624
946.9112, 1320.634
947.3933, 1338.934
947.8754, 1344.275
948.3575, 1336.027
948.8397, 1336.443
949.3218, 1351.744
949.8039, 1363.539
950.2860, 1356.896
950.7681, 1342.404
951.2502, 1347.670
951.7324, 1375.856
952.2145, 1384.279
952.6966, 1366.461
953.1787, 1360.986
953.6608, 1382.101
954.1429, 1411.484
954.6251, 1435.113
955.1072, 1452.099
955.5893, 1457.138
956.0714, 1443.229
956.5535, 1446.294
957.0356, 1478.539
957.5178, 1498.160
957.9999, 1479.977
958.4820, 1456.612
958.9641, 1467.303
959.4462, 1508.102
959.9283, 1537.311
960.4105, 1552.157
960.8926, 1560.833
961.3747, 1557.380
961.8568, 1557.927
962.3389, 1568.295
962.8210, 1588.332
963.3032, 1622.242
963.7853, 1671.303
964.2674, 1702.284
964.7495, 1693.819
965.2316, 1701.865
965.7137, 1754.816
966.1959, 1800.391
966.6780, 1797.634
967.1601, 1774.348
967.6422, 1781.607
968.1243, 1826.795
968.6064, 1855.951
969.0886, 1843.801
969.5707, 1848.621
970.0528, 1897.500
970.5349, 1951.138
971.0170, 1983.248
971.4991, 2000.592
971.9813, 2016.953
972.4634, 2030.541
972.9455, 2056.342
973.4276, 2104.873
973.9097, 2154.536
974.3918, 2202.484
974.8740, 2245.273
975.3561, 2274.704
975.8382, 2297.140
976.3203, 2329.685
976.8024, 2376.406
977.2845, 2428.085
977.7667, 2484.907
978.2488, 2544.064
978.7309, 2607.348
979.2130, 2669.875
979.6951, 2722.555
980.1772, 2769.798
980.6594, 2829.964
981.1415, 2911.571
981.6236, 2993.345
982.1057, 3070.063
982.5878, 3144.483
983.0699, 3209.399
983.5521, 3279.251
984.0342, 3374.653
984.5163, 3491.953
984.9984, 3603.900
985.4805, 3696.455
985.9626, 3797.717
986.4448, 3920.172
986.9269, 4051.159
987.4090, 4178.375
987.8911, 4311.151
988.3732, 4466.348
988.8553, 4641.705
989.3375, 4813.133
989.8196, 4970.019
990.3017, 5126.523
990.7838, 5280.105
991.2659, 5442.973
991.7480, 5622.278
992.2302, 5817.134
992.7123, 6032.291
993.1944, 6264.841
993.6765, 6490.761
994.1586, 6694.534
994.6407, 6902.249
995.1229, 7121.652
995.6050, 7353.834
996.0871, 7611.798
996.5692, 7876.652
997.0513, 8118.929
997.5334, 8335.298
998.0156, 8532.288
998.4977, 8686.287
998.9798, 8859.871
999.4619, 9095.683
999.9440, 9352.146
1000.426, 9610.531
1000.908, 9856.425
1001.390, 10065.64
1001.872, 10236.44
1002.355, 10408.54
1002.837, 10607.39
1003.319, 10798.55
1003.801, 10949.80
1004.283, 11100.38
1004.765, 11300.29
1005.247, 11518.59
1005.729, 11695.01
1006.211, 11819.36
1006.694, 11925.53
1007.176, 12014.53
1007.658, 12108.52
1008.140, 12229.08
1008.622, 12349.90
1009.104, 12452.25
1009.586, 12535.54
1010.068, 12601.50
1010.551, 12650.59
1011.033, 12684.45
1011.515, 12695.13
1011.997, 12701.92
1012.479, 12709.56
1012.961, 12721.06
1013.443, 12759.32
1013.925, 12795.33
1014.407, 12774.88
1014.890, 12688.28
1015.372, 12579.39
1015.854, 12446.94
1016.336, 12320.21
1016.818, 12223.37
1017.300, 12128.05
1017.782, 12017.42
1018.264, 11889.71
1018.747, 11739.20
1019.229, 11566.19
1019.711, 11396.89
1020.193, 11239.23
1020.675, 11088.72
1021.157, 10952.28
1021.639, 10813.18
1022.121, 10654.15
1022.603, 10484.89
1023.086, 10319.17
1023.568, 10158.76
1024.050, 10023.41
1024.532, 9941.844
1025.014, 9854.229
1025.496, 9735.895
1025.978, 9610.123
1026.460, 9480.125
1026.943, 9359.751
1027.425, 9271.197
1027.907, 9216.521
1028.389, 9170.088
1028.871, 9133.234
1029.353, 9094.342
1029.835, 9040.485
1030.317, 8994.385
1030.799, 8975.231
1031.282, 8970.015
1031.764, 8957.609
1032.246, 8936.464
1032.728, 8922.291
1033.210, 8904.798
1033.692, 8912.858
1034.174, 8984.828
1034.656, 9046.205
1035.139, 9037.050
1035.621, 9006.279
1036.103, 9023.276
1036.585, 9089.819
1037.067, 9155.908
1037.549, 9229.260
1038.031, 9286.739
1038.513, 9322.766
1038.995, 9346.640
1039.478, 9343.788
1039.960, 9343.873
1040.442, 9392.250
1040.924, 9483.973
1041.406, 9545.646
1041.888, 9567.417
1042.370, 9576.979
1042.852, 9568.619
1043.334, 9559.278
1043.817, 9565.505
1044.299, 9562.782
1044.781, 9525.346
1045.263, 9454.854
1045.745, 9364.615
1046.227, 9254.289
1046.709, 9124.000
1047.191, 8969.904
1047.674, 8803.760
1048.156, 8628.272
1048.638, 8446.273
1049.120, 8262.495
1049.602, 8073.206
1050.084, 7865.358
1050.566, 7636.542
1051.048, 7398.512
1051.531, 7148.069
1052.013, 6903.229
1052.495, 6670.420
1052.977, 6444.276
1053.459, 6220.625
1053.941, 5999.646
1054.423, 5775.734
1054.905, 5549.237
1055.387, 5333.445
1055.870, 5129.069
1056.352, 4938.361
1056.834, 4762.881
1057.316, 4591.707
1057.798, 4417.150
1058.280, 4244.005
1058.762, 4079.811
1059.244, 3924.306
1059.726, 3788.494
1060.209, 3671.025
1060.691, 3551.123
1061.173, 3425.457
1061.655, 3315.973
1062.137, 3236.539
1062.619, 3167.090
1063.101, 3075.388
1063.583, 2972.449
1064.066, 2892.995
1064.548, 2832.123
1065.030, 2776.391
1065.512, 2720.865
1065.994, 2649.574
1066.476, 2555.022
1066.958, 2470.673
1067.440, 2441.897
1067.922, 2434.615
1068.405, 2392.364
1068.887, 2329.550
1069.369, 2270.286
1069.851, 2219.249
1070.333, 2180.431
1070.815, 2154.194
1071.297, 2131.372
1071.779, 2105.208
1072.261, 2079.175
1072.744, 2060.519
1073.226, 2041.140
1073.708, 2005.965
1074.190, 1963.445
1074.672, 1932.052
1075.154, 1915.072
1075.636, 1904.434
1076.118, 1902.623
1076.600, 1892.362
1077.083, 1848.691
1077.565, 1807.406
1078.047, 1806.958
1078.529, 1820.872
1079.011, 1807.870
1079.493, 1769.607
1079.975, 1739.979
1080.457, 1730.231
1080.940, 1723.920
1081.422, 1721.429
1081.904, 1714.677
1082.386, 1695.972
1082.868, 1674.525
1083.350, 1655.105
1083.832, 1640.680
1084.314, 1641.720
1084.797, 1669.259
1085.279, 1675.318
1085.761, 1631.661
1086.243, 1602.419
1086.725, 1612.124
1087.207, 1625.259
1087.689, 1617.167
1088.171, 1599.215
1088.653, 1593.529
1089.135, 1601.336
1089.618, 1601.494
1090.100, 1591.963
1090.582, 1579.621
1091.064, 1562.696
1091.546, 1551.112
1092.028, 1551.481
1092.510, 1554.810
1092.992, 1548.149
1093.475, 1534.935
1093.957, 1537.180
1094.439, 1556.120
1094.921, 1562.992
1095.403, 1555.167
1095.885, 1547.067
1096.367, 1543.891
1096.849, 1537.761
1097.332, 1519.638
1097.814, 1500.563
1098.296, 1510.102
1098.778, 1538.613
1099.260, 1546.536
1099.742, 1536.262
1100.224, 1525.242
1100.706, 1518.027
1101.188, 1515.065
1101.671, 1517.005
1102.153, 1519.111
1102.635, 1512.283
1103.117, 1505.019
1103.599, 1514.543
1104.081, 1530.930
1104.563, 1535.701
1105.045, 1528.974
1105.527, 1518.918
1106.010, 1508.476
1106.492, 1501.616
1106.974, 1502.074
1107.456, 1505.616
1107.938, 1509.224
1108.420, 1514.595
1108.902, 1528.301
1109.384, 1542.666
1109.867, 1542.273
1110.349, 1526.467
1110.831, 1513.701
1111.313, 1508.095
1111.795, 1508.233
1112.277, 1519.724
1112.759, 1529.674
1113.241, 1529.967
1113.724, 1527.058
1114.206, 1527.801
1114.688, 1531.512
1115.170, 1534.284
1115.652, 1536.207
1116.134, 1537.079
1116.616, 1537.929
1117.098, 1534.914
1117.580, 1522.927
1118.063, 1516.125
1118.545, 1526.363
1119.027, 1543.255
1119.509, 1547.498
1119.991, 1539.911
1120.473, 1537.347
1120.955, 1540.162
1121.437, 1543.049
1121.919, 1545.389
1122.402, 1546.801
1122.884, 1547.107
1123.366, 1546.652
1123.848, 1546.658
1124.330, 1544.140
1124.812, 1525.680
1125.294, 1500.438
1125.776, 1505.270
1126.259, 1531.561
1126.741, 1538.486
1127.223, 1519.282
1127.705, 1500.869
1128.187, 1499.005
1128.669, 1502.980
1129.151, 1508.401
1129.633, 1508.434
1130.115, 1488.181
1130.598, 1462.407
1131.080, 1452.833
1131.562, 1457.046
1132.044, 1462.195
1132.526, 1464.748
1133.008, 1466.423
1133.490, 1471.033
1133.972, 1470.637
1134.454, 1456.543
1134.937, 1442.349
1135.419, 1439.538
1135.901, 1440.792
1136.383, 1434.954
1136.865, 1422.200
1137.347, 1411.641
1137.829, 1405.483
1138.311, 1358.020
1138.794, 1389.794
1139.276, 1406.440
1139.758, 1408.767
1140.240, 1353.889
1140.722, 1372.880
1141.204, 1362.268
1141.686, 1350.442
1142.168, 1379.830
1142.651, 1380.503
1143.133, 1376.864
1143.615, 1366.030
1144.097, 1348.421
1144.579, 1336.780
1145.061, 1336.899
1145.543, 1338.093
1146.025, 1327.952
1146.507, 1314.594
1146.990, 1318.249
1147.472, 1328.280
1147.954, 1318.221
1148.436, 1294.173
1148.918, 1275.773
1149.400, 1267.164
1149.882, 1263.176
1150.364, 1261.647
1150.846, 1262.020
1151.329, 1266.416
1151.811, 1269.691
1152.293, 1269.786
1152.775, 1242.946
1153.257, 1273.695
1153.739, 1289.311
1154.221, 1290.609
1154.703, 1234.699
1155.186, 1252.652
1155.668, 1241.010
1156.150, 1228.154
1156.632, 1256.513
1157.114, 1231.201
1157.596, 1210.646
1158.078, 1189.656
1158.560, 1185.412
1159.042, 1193.908
1159.525, 1203.343
1160.007, 1215.821
1160.489, 1208.686
1160.971, 1178.419
1161.453, 1167.476
1161.935, 1186.082
1162.417, 1191.192
1162.899, 1157.530
1163.381, 1119.756
1163.864, 1124.427
1164.346, 1152.714
1164.828, 1162.963
1165.310, 1160.672
1165.792, 1157.412
1166.274, 1154.888
1166.756, 1154.616
1167.238, 1156.352
1167.721, 1156.498
1168.203, 1152.691
1168.685, 1148.460
1169.167, 1147.941
1169.649, 1146.117
1170.131, 1134.652
1170.613, 1123.730
1171.095, 1128.126
1171.578, 1140.824
1172.060, 1141.890
1172.542, 1127.435
1173.024, 1120.333
1173.506, 1130.496
1173.988, 1136.256
1174.470, 1132.238
1174.952, 1130.156
1175.434, 1137.287
1175.917, 1142.855
1176.399, 1134.441
1176.881, 1118.733
1177.363, 1117.324
1177.845, 1130.588
1178.327, 1133.484
1178.809, 1126.329
1179.291, 1121.237
1179.773, 1120.391
1180.256, 1123.366
1180.738, 1129.939
1181.220, 1131.176
1181.702, 1113.342
1182.184, 1092.735
1182.666, 1098.139
1183.148, 1112.736
1183.630, 1108.456
1184.113, 1093.580
1184.595, 1087.896
1185.077, 1093.216
1185.559, 1098.951
1186.041, 1101.330
1186.523, 1103.965
1187.005, 1110.676
1187.487, 1114.682
1187.969, 1113.703
1188.452, 1108.517
1188.934, 1095.312
1189.416, 1080.870
1189.898, 1074.753
1190.380, 1076.758
1190.862, 1085.841
1191.344, 1106.800
1191.826, 1115.011
1192.308, 1108.367
1192.791, 1093.408
1193.273, 1070.564
1193.755, 1053.479
1194.237, 1051.499
1194.719, 1059.438
1195.201, 1073.225
1195.683, 1088.241
1196.165, 1090.011
1196.648, 1084.253
1197.130, 1086.609
1197.612, 1094.516
1198.094, 1095.612
1198.576, 1087.052
1199.058, 1073.439
1199.540, 1052.438
1200.022, 1041.228
1200.505, 1063.293
1200.987, 1081.821
1201.469, 1068.641
1201.951, 1046.366
1202.433, 1035.398
1202.915, 1033.010
1203.397, 1028.373
1203.879, 1020.658
1204.361, 1028.364
1204.844, 1065.261
1205.326, 1074.720
1205.808, 1043.374
1206.290, 1021.868
1206.772, 1028.205
1207.254, 1042.245
1207.736, 1048.174
1208.218, 1051.221
1208.700, 1062.501
1209.183, 1078.052
1209.665, 1086.863
1210.147, 1088.606
1210.629, 1078.750
1211.111, 1061.139
1211.593, 1047.643
1212.075, 1042.036
1212.557, 1042.602
1213.040, 1051.228
1213.522, 1058.635
1214.004, 1058.068
1214.486, 1056.058
1214.968, 1051.333
1215.450, 1051.857
1215.932, 1073.745
1216.414, 1104.081
1216.896, 1109.832
1217.379, 1089.781
1217.861, 1074.211
1218.343, 1062.035
1218.825, 1059.212
1219.307, 1062.973
1219.789, 1083.580
1220.271, 1095.108
1220.753, 1098.045
1221.235, 1066.657
1221.718, 1079.592
1222.200, 1074.764
1222.682, 1069.208
1223.164, 1088.381
1223.646, 1061.986
1224.128, 1069.212
1224.610, 1062.901
1225.092, 1053.415
1225.574, 1043.403
1226.057, 1039.362
1226.539, 1045.878
1227.021, 1054.338
1227.503, 1064.966
1227.985, 1071.645
1228.467, 1070.891
1228.949, 1065.669
1229.431, 1053.726
1229.914, 1042.407
1230.396, 1045.405
1230.878, 1060.731
1231.360, 1063.147
1231.842, 1050.428
1232.324, 1047.267
1232.806, 1055.324
1233.288, 1053.196
1233.771, 1035.695
1234.253, 1015.641
1234.735, 1000.296
1235.217, 992.3167
1235.699, 997.2841
1236.181, 1008.409
1236.663, 1022.995
1237.145, 1032.996
1237.627, 1020.554
1238.109, 999.5175
1238.592, 999.0712
1239.074, 1017.124
1239.556, 1020.265
1240.038, 990.9052
1240.520, 982.9607
1241.002, 1027.397
1241.484, 1057.665
1241.966, 1058.544
1242.449, 1053.380
1242.931, 1051.649
1243.413, 1052.650
1243.895, 1055.814
1244.377, 1060.725
1244.859, 1066.871
1245.341, 1073.775
1245.823, 1080.124
1246.306, 1084.735
1246.788, 1080.899
1247.270, 1070.498
1247.752, 1066.142
1248.234, 1071.612
1248.716, 1074.171
1249.198, 1065.231
1249.680, 1052.825
1250.162, 1033.776
1250.645, 1022.170
1251.127, 1036.352
1251.609, 1053.756
1252.091, 1048.166
1252.573, 1030.573
1253.055, 1024.823
1253.537, 1030.711
1254.019, 1036.122
1254.501, 1040.695
1254.984, 1049.085
1255.466, 1061.941
1255.948, 1066.394
1256.430, 1058.964
1256.912, 1045.752
1257.394, 1029.957
1257.876, 1018.451
1258.358, 1020.753
1258.841, 1030.060
1259.323, 1041.143
1259.805, 1051.569
1260.287, 1058.705
1260.769, 1062.868
1261.251, 1066.331
1261.733, 1067.989
1262.215, 1060.098
1262.698, 1034.544
1263.180, 1027.273
1263.662, 1053.483
1264.144, 1065.334
1264.626, 1051.443
1265.108, 1039.408
##END=



