##NAMES=Kolbeckite
##RRUFFID=R061040
##IDEAL CHEMISTRY=Sc^3+^P^5+^O_4_&#183;2H_2_O
##LOCALITY=Christy Pit, Magnet Cove, Arkansas, USA
##OWNER=RRUFF
##SOURCE=Mark Mauthner
##DESCRIPTION=Green platy crystal, severely twinned, associated with quartz.
##STATUS=The identification of this mineral has been confirmed only by single crystal X-ray diffraction.
##URL=rruff.info/R061040
121.0400, 1450.892
121.5221, 1517.313
122.0043, 1596.313
122.4864, 1676.261
122.9685, 1744.338
123.4506, 1795.130
123.9327, 1835.586
124.4148, 1869.149
124.8969, 1896.464
125.3791, 1923.758
125.8612, 1957.723
126.3433, 1995.176
126.8254, 2029.081
127.3075, 2057.698
127.7896, 2080.906
128.2718, 2096.726
128.7539, 2104.340
129.2360, 2110.002
129.7181, 2121.890
130.2002, 2138.881
130.6823, 2154.803
131.1645, 2163.354
131.6466, 2167.198
132.1287, 2178.222
132.6108, 2197.461
133.0929, 2223.521
133.5750, 2255.071
134.0572, 2292.732
134.5393, 2331.803
135.0214, 2368.833
135.5035, 2403.761
135.9856, 2443.197
136.4677, 2488.193
136.9499, 2538.261
137.4320, 2591.913
137.9141, 2650.500
138.3962, 2708.239
138.8783, 2761.953
139.3604, 2812.617
139.8426, 2853.035
140.3247, 2878.782
140.8068, 2888.704
141.2889, 2903.506
141.7710, 2925.465
142.2531, 2949.908
142.7353, 2971.129
143.2174, 2991.010
143.6995, 3003.463
144.1816, 3003.738
144.6637, 2982.090
145.1458, 2973.356
145.6280, 2984.704
146.1101, 3008.247
146.5922, 3021.187
147.0743, 3021.588
147.5564, 3013.250
148.0385, 2997.405
148.5207, 2963.599
149.0028, 2936.781
149.4849, 2921.918
149.9670, 2917.863
150.4491, 2909.549
150.9312, 2891.532
151.4134, 2872.670
151.8955, 2858.988
152.3776, 2854.473
152.8597, 2851.537
153.3418, 2849.439
153.8239, 2848.262
154.3061, 2847.906
154.7882, 2853.115
155.2703, 2857.668
155.7524, 2854.702
156.2345, 2831.656
156.7166, 2810.557
157.1988, 2799.587
157.6809, 2802.629
158.1630, 2805.793
158.6451, 2805.675
159.1272, 2803.253
159.6093, 2800.322
160.0915, 2798.697
160.5736, 2795.543
161.0557, 2789.205
161.5378, 2778.518
162.0199, 2765.774
162.5020, 2749.989
162.9841, 2732.401
163.4663, 2716.716
163.9484, 2708.254
164.4305, 2700.645
164.9126, 2688.696
165.3947, 2667.595
165.8768, 2645.304
166.3590, 2623.708
166.8411, 2603.591
167.3232, 2589.493
167.8053, 2587.199
168.2874, 2591.628
168.7695, 2596.650
169.2517, 2604.647
169.7338, 2609.452
170.2159, 2604.177
170.6980, 2588.335
171.1801, 2571.811
171.6622, 2558.411
172.1444, 2549.404
172.6265, 2547.161
173.1086, 2557.932
173.5907, 2573.764
174.0728, 2585.469
174.5549, 2591.468
175.0371, 2596.948
175.5192, 2608.829
176.0013, 2624.771
176.4834, 2637.578
176.9655, 2637.368
177.4476, 2632.436
177.9298, 2636.850
178.4119, 2655.000
178.8940, 2678.568
179.3761, 2699.732
179.8582, 2718.271
180.3403, 2734.065
180.8225, 2745.833
181.3046, 2754.613
181.7867, 2762.940
182.2688, 2770.056
182.7509, 2778.151
183.2330, 2792.816
183.7152, 2813.678
184.1973, 2834.044
184.6794, 2846.479
185.1615, 2852.791
185.6436, 2860.101
186.1257, 2870.975
186.6079, 2884.155
187.0900, 2897.267
187.5721, 2910.523
188.0542, 2921.826
188.5363, 2924.663
189.0184, 2920.695
189.5006, 2925.666
189.9827, 2952.174
190.4648, 2994.131
190.9469, 3022.548
191.4290, 3035.442
191.9111, 3040.132
192.3932, 3043.252
192.8754, 3044.793
193.3575, 3051.021
193.8396, 3066.687
194.3217, 3091.194
194.8038, 3114.171
195.2859, 3135.501
195.7681, 3155.038
196.2502, 3171.432
196.7323, 3183.904
197.2144, 3199.983
197.6965, 3226.981
198.1786, 3265.058
198.6608, 3294.252
199.1429, 3308.276
199.6250, 3316.765
200.1071, 3346.558
200.5892, 3401.422
201.0714, 3460.344
201.5535, 3507.123
202.0356, 3539.522
202.5177, 3581.116
202.9998, 3636.273
203.4819, 3702.612
203.9641, 3765.483
204.4462, 3822.399
204.9283, 3883.444
205.4104, 3959.687
205.8925, 4055.570
206.3746, 4144.951
206.8568, 4223.258
207.3389, 4291.890
207.8210, 4358.612
208.3031, 4423.757
208.7852, 4487.578
209.2673, 4548.441
209.7495, 4603.514
210.2316, 4667.749
210.7137, 4751.180
211.1958, 4853.023
211.6779, 4929.531
212.1600, 4975.727
212.6422, 5005.233
213.1243, 5034.489
213.6064, 5066.329
214.0885, 5089.234
214.5706, 5102.069
215.0527, 5105.782
215.5349, 5087.728
216.0170, 5046.484
216.4991, 4984.836
216.9812, 4906.021
217.4633, 4809.695
217.9454, 4698.343
218.4276, 4569.866
218.9097, 4421.861
219.3918, 4272.482
219.8739, 4119.483
220.3560, 3968.640
220.8381, 3827.322
221.3203, 3696.243
221.8024, 3576.042
222.2845, 3469.685
222.7666, 3380.368
223.2487, 3292.739
223.7308, 3205.642
224.2129, 3121.314
224.6951, 3045.148
225.1772, 2976.776
225.6593, 2915.988
226.1414, 2862.771
226.6235, 2820.637
227.1056, 2777.798
227.5878, 2728.909
228.0699, 2680.052
228.5520, 2648.452
229.0341, 2643.207
229.5162, 2642.352
229.9983, 2634.396
230.4805, 2615.097
230.9626, 2597.993
231.4447, 2583.301
231.9268, 2571.312
232.4089, 2563.753
232.8910, 2561.817
233.3732, 2562.569
233.8553, 2563.960
234.3374, 2563.862
234.8195, 2569.385
235.3016, 2584.729
235.7837, 2607.320
236.2659, 2619.284
236.7480, 2610.852
237.2301, 2603.648
237.7122, 2613.476
238.1943, 2651.035
238.6764, 2684.194
239.1586, 2708.460
239.6407, 2724.743
240.1228, 2743.003
240.6049, 2760.962
241.0870, 2783.624
241.5691, 2816.073
242.0513, 2865.871
242.5334, 2910.141
243.0155, 2940.620
243.4976, 2958.392
243.9797, 2995.550
244.4618, 3059.193
244.9440, 3133.718
245.4261, 3206.456
245.9082, 3276.998
246.3903, 3345.972
246.8724, 3411.963
247.3545, 3474.888
247.8367, 3544.155
248.3188, 3623.858
248.8009, 3704.664
249.2830, 3776.255
249.7651, 3828.772
250.2472, 3890.912
250.7294, 3970.301
251.2115, 4067.750
251.6936, 4163.589
252.1757, 4262.155
252.6578, 4355.133
253.1399, 4434.831
253.6220, 4493.037
254.1042, 4556.055
254.5863, 4632.126
255.0684, 4722.984
255.5505, 4801.125
256.0326, 4867.094
256.5147, 4919.606
256.9969, 4959.027
257.4790, 4985.582
257.9611, 4998.527
258.4432, 5001.259
258.9253, 4995.104
259.4074, 4953.078
259.8896, 4862.949
260.3717, 4749.664
260.8538, 4638.694
261.3359, 4530.834
261.8180, 4422.473
262.3001, 4310.618
262.7823, 4195.730
263.2644, 4083.048
263.7465, 3969.867
264.2286, 3863.050
264.7107, 3775.297
265.1928, 3708.887
265.6750, 3651.670
266.1571, 3600.673
266.6392, 3556.524
267.1213, 3515.752
267.6034, 3477.784
268.0855, 3444.589
268.5677, 3418.576
269.0498, 3399.960
269.5319, 3388.260
270.0140, 3385.315
270.4961, 3391.571
270.9782, 3393.921
271.4604, 3391.711
271.9425, 3386.771
272.4246, 3380.510
272.9067, 3372.025
273.3888, 3366.351
273.8709, 3367.056
274.3531, 3374.069
274.8352, 3373.128
275.3173, 3362.588
275.7994, 3346.977
276.2815, 3332.589
276.7636, 3320.354
277.2458, 3303.811
277.7279, 3276.516
278.2100, 3239.556
278.6921, 3221.500
279.1742, 3227.084
279.6563, 3239.924
280.1385, 3237.387
280.6206, 3218.096
281.1027, 3201.902
281.5848, 3197.539
282.0669, 3203.388
282.5490, 3203.357
283.0312, 3196.298
283.5133, 3187.147
283.9954, 3179.547
284.4775, 3173.400
284.9596, 3175.520
285.4417, 3191.454
285.9239, 3218.447
286.4060, 3239.366
286.8881, 3252.514
287.3702, 3266.652
287.8523, 3292.978
288.3344, 3330.940
288.8166, 3369.772
289.2987, 3403.833
289.7808, 3436.148
290.2629, 3478.914
290.7450, 3532.483
291.2271, 3590.846
291.7093, 3646.380
292.1914, 3700.181
292.6735, 3759.439
293.1556, 3822.855
293.6377, 3893.531
294.1198, 3982.232
294.6020, 4090.587
295.0841, 4201.203
295.5662, 4293.763
296.0483, 4374.602
296.5304, 4465.243
297.0125, 4574.211
297.4947, 4697.560
297.9768, 4824.011
298.4589, 4954.127
298.9410, 5095.434
299.4231, 5258.672
299.9052, 5438.412
300.3873, 5616.854
300.8694, 5785.157
301.3516, 5950.299
301.8337, 6124.783
302.3158, 6308.754
302.7979, 6491.970
303.2800, 6664.530
303.7621, 6831.680
304.2443, 7008.492
304.7264, 7204.066
305.2085, 7401.752
305.6906, 7591.828
306.1727, 7771.642
306.6548, 7934.281
307.1370, 8061.741
307.6191, 8171.552
308.1012, 8287.206
308.5833, 8432.054
309.0654, 8565.149
309.5475, 8646.266
310.0297, 8682.304
310.5118, 8708.939
310.9939, 8754.559
311.4760, 8797.402
311.9581, 8816.179
312.4402, 8800.939
312.9224, 8765.773
313.4045, 8717.241
313.8866, 8654.953
314.3687, 8578.982
314.8508, 8478.398
315.3329, 8370.303
315.8151, 8267.649
316.2972, 8170.937
316.7793, 8081.681
317.2614, 8000.979
317.7435, 7927.709
318.2256, 7858.577
318.7078, 7789.695
319.1899, 7726.529
319.6720, 7673.765
320.1541, 7640.797
320.6362, 7601.890
321.1183, 7548.693
321.6005, 7484.840
322.0826, 7419.037
322.5647, 7370.627
323.0468, 7306.714
323.5289, 7210.571
324.0110, 7066.694
324.4932, 6919.282
324.9753, 6775.329
325.4574, 6633.000
325.9395, 6491.277
326.4216, 6340.995
326.9037, 6199.414
327.3859, 6074.295
327.8680, 5975.590
328.3501, 5867.486
328.8322, 5739.468
329.3143, 5606.740
329.7964, 5488.402
330.2786, 5385.611
330.7607, 5296.235
331.2428, 5224.015
331.7249, 5175.122
332.2070, 5112.312
332.6891, 5020.004
333.1713, 4925.066
333.6534, 4860.519
334.1355, 4845.192
334.6176, 4823.289
335.0997, 4778.751
335.5818, 4711.202
336.0640, 4657.041
336.5461, 4622.255
337.0282, 4592.218
337.5103, 4549.572
337.9924, 4488.715
338.4745, 4437.098
338.9567, 4403.306
339.4388, 4384.225
339.9209, 4357.996
340.4030, 4327.072
340.8851, 4282.445
341.3672, 4212.674
341.8494, 4115.029
342.3315, 4021.881
342.8136, 3937.381
343.2957, 3861.232
343.7778, 3791.934
344.2599, 3730.947
344.7421, 3669.177
345.2242, 3597.905
345.7063, 3518.561
346.1884, 3449.652
346.6705, 3395.046
347.1526, 3349.397
347.6348, 3306.548
348.1169, 3266.288
348.5990, 3224.637
349.0811, 3176.201
349.5632, 3125.220
350.0453, 3081.688
350.5275, 3046.745
351.0096, 3020.099
351.4917, 3006.774
351.9738, 3002.869
352.4559, 2994.201
352.9380, 2966.881
353.4202, 2933.114
353.9023, 2911.913
354.3844, 2906.137
354.8665, 2900.669
355.3486, 2879.192
355.8307, 2849.509
356.3129, 2825.193
356.7950, 2815.214
357.2771, 2811.585
357.7592, 2810.806
358.2413, 2812.717
358.7234, 2810.206
359.2056, 2792.031
359.6877, 2769.572
360.1698, 2755.729
360.6519, 2760.089
361.1340, 2769.191
361.6161, 2781.635
362.0982, 2796.012
362.5804, 2801.084
363.0625, 2779.061
363.5446, 2754.011
364.0267, 2743.392
364.5088, 2760.419
364.9909, 2781.584
365.4731, 2808.241
365.9552, 2837.114
366.4373, 2855.049
366.9194, 2851.205
367.4015, 2842.813
367.8836, 2837.602
368.3658, 2835.845
368.8479, 2837.589
369.3300, 2841.272
369.8121, 2848.609
370.2942, 2863.354
370.7763, 2890.853
371.2585, 2919.439
371.7406, 2945.965
372.2227, 2970.582
372.7048, 2991.171
373.1869, 3005.678
373.6690, 3017.405
374.1512, 3030.355
374.6333, 3043.256
375.1154, 3060.657
375.5975, 3085.152
376.0796, 3116.821
376.5617, 3146.506
377.0439, 3174.382
377.5260, 3199.877
378.0081, 3219.288
378.4902, 3231.619
378.9723, 3252.236
379.4544, 3286.996
379.9366, 3331.550
380.4187, 3372.976
380.9008, 3411.087
381.3829, 3446.813
381.8650, 3476.588
382.3471, 3503.220
382.8293, 3541.412
383.3114, 3597.438
383.7935, 3659.438
384.2756, 3708.642
384.7577, 3746.438
385.2398, 3783.253
385.7220, 3824.242
386.2041, 3869.281
386.6862, 3920.294
387.1683, 3979.500
387.6504, 4036.673
388.1325, 4080.412
388.6147, 4115.068
389.0968, 4148.825
389.5789, 4187.317
390.0610, 4226.006
390.5431, 4258.233
391.0252, 4283.490
391.5074, 4313.721
391.9895, 4367.321
392.4716, 4426.510
392.9537, 4470.074
393.4358, 4483.365
393.9179, 4487.954
394.4001, 4488.485
394.8822, 4486.024
395.3643, 4487.986
395.8464, 4502.463
396.3285, 4518.365
396.8106, 4528.543
397.2928, 4535.028
397.7749, 4531.700
398.2570, 4507.044
398.7391, 4470.472
399.2212, 4451.093
399.7033, 4476.438
400.1855, 4493.685
400.6676, 4481.552
401.1497, 4424.593
401.6318, 4381.814
402.1139, 4360.724
402.5960, 4349.243
403.0782, 4329.275
403.5603, 4297.234
404.0424, 4264.581
404.5245, 4234.730
405.0066, 4207.918
405.4887, 4177.244
405.9709, 4140.271
406.4530, 4104.558
406.9351, 4078.783
407.4172, 4063.879
407.8993, 4045.937
408.3814, 4020.534
408.8636, 3991.253
409.3457, 3967.729
409.8278, 3949.902
410.3099, 3936.374
410.7920, 3927.966
411.2741, 3923.422
411.7563, 3916.489
412.2384, 3903.670
412.7205, 3895.632
413.2026, 3910.270
413.6847, 3942.663
414.1668, 3974.128
414.6490, 3988.814
415.1311, 4000.074
415.6132, 4027.472
416.0953, 4073.585
416.5774, 4119.286
417.0595, 4148.943
417.5417, 4170.642
418.0238, 4196.132
418.5059, 4228.234
418.9880, 4266.387
419.4701, 4310.910
419.9522, 4361.801
420.4344, 4415.873
420.9165, 4477.855
421.3986, 4538.849
421.8807, 4592.614
422.3628, 4623.363
422.8449, 4667.340
423.3270, 4736.162
423.8091, 4822.538
424.2913, 4910.030
424.7734, 4996.111
425.2555, 5082.456
425.7376, 5167.935
426.2197, 5250.463
426.7018, 5339.151
427.1840, 5439.426
427.6661, 5542.718
428.1482, 5637.013
428.6303, 5715.828
429.1124, 5803.561
429.5945, 5909.253
430.0767, 6029.727
430.5588, 6142.743
431.0409, 6246.712
431.5230, 6345.867
432.0051, 6441.216
432.4872, 6533.116
432.9694, 6630.537
433.4515, 6738.344
433.9336, 6849.612
434.4157, 6950.281
434.8978, 7041.156
435.3799, 7132.635
435.8621, 7235.487
436.3442, 7343.144
436.8263, 7440.881
437.3084, 7529.084
437.7905, 7602.191
438.2726, 7648.221
438.7548, 7675.483
439.2369, 7700.484
439.7190, 7738.273
440.2011, 7770.319
440.6832, 7778.289
441.1653, 7764.447
441.6475, 7745.550
442.1296, 7739.292
442.6117, 7726.891
443.0938, 7691.273
443.5759, 7613.338
444.0580, 7536.334
444.5402, 7489.039
445.0223, 7453.126
445.5044, 7389.521
445.9865, 7254.889
446.4686, 7123.323
446.9507, 7024.898
447.4329, 6971.435
447.9150, 6909.462
448.3971, 6838.133
448.8792, 6759.014
449.3613, 6670.130
449.8434, 6562.373
450.3256, 6462.671
450.8077, 6378.933
451.2898, 6307.681
451.7719, 6229.401
452.2540, 6141.588
452.7361, 6055.004
453.2183, 5975.482
453.7004, 5903.762
454.1825, 5836.071
454.6646, 5773.902
455.1467, 5713.219
455.6288, 5650.077
456.1110, 5584.152
456.5931, 5513.601
457.0752, 5431.216
457.5573, 5345.733
458.0394, 5284.573
458.5215, 5247.526
459.0037, 5207.080
459.4858, 5129.659
459.9679, 5034.777
460.4500, 4957.723
460.9321, 4916.387
461.4142, 4882.042
461.8964, 4835.796
462.3785, 4779.383
462.8606, 4718.024
463.3427, 4643.064
463.8248, 4570.800
464.3069, 4515.462
464.7891, 4484.890
465.2712, 4444.751
465.7533, 4376.261
466.2354, 4297.125
466.7175, 4229.171
467.1996, 4186.617
467.6818, 4142.775
468.1639, 4093.353
468.6460, 4038.976
469.1281, 3979.950
469.6102, 3912.602
470.0923, 3845.486
470.5745, 3782.839
471.0566, 3725.427
471.5387, 3671.112
472.0208, 3619.885
472.5029, 3571.622
472.9850, 3526.712
473.4672, 3485.837
473.9493, 3441.352
474.4314, 3387.448
474.9135, 3327.316
475.3956, 3274.989
475.8777, 3230.430
476.3599, 3189.424
476.8420, 3149.090
477.3241, 3109.425
477.8062, 3070.370
478.2883, 3031.619
478.7704, 2994.801
479.2526, 2961.780
479.7347, 2932.096
480.2168, 2904.994
480.6989, 2879.325
481.1810, 2856.061
481.6631, 2836.862
482.1453, 2822.512
482.6274, 2807.008
483.1095, 2784.161
483.5916, 2760.275
484.0737, 2742.402
484.5558, 2741.505
485.0379, 2736.005
485.5201, 2718.909
486.0022, 2691.997
486.4843, 2668.958
486.9664, 2648.103
487.4485, 2633.207
487.9306, 2628.246
488.4128, 2641.403
488.8949, 2638.901
489.3770, 2615.073
489.8591, 2582.467
490.3412, 2559.287
490.8233, 2546.083
491.3055, 2537.965
491.7876, 2534.580
492.2697, 2534.996
492.7518, 2536.706
493.2339, 2539.757
493.7160, 2541.600
494.1982, 2540.441
494.6803, 2536.442
495.1624, 2529.435
495.6445, 2518.344
496.1266, 2507.307
496.6087, 2498.789
497.0909, 2493.401
497.5730, 2492.281
498.0551, 2496.293
498.5372, 2504.633
499.0193, 2521.337
499.5014, 2545.619
499.9836, 2560.459
500.4657, 2547.649
500.9478, 2529.654
501.4299, 2522.692
501.9120, 2539.748
502.3941, 2553.840
502.8763, 2556.679
503.3584, 2554.706
503.8405, 2562.277
504.3226, 2590.068
504.8047, 2612.383
505.2868, 2620.931
505.7690, 2615.182
506.2511, 2608.694
506.7332, 2599.021
507.2153, 2593.589
507.6974, 2601.091
508.1795, 2622.016
508.6617, 2641.041
509.1438, 2654.800
509.6259, 2667.352
510.1080, 2690.020
510.5901, 2721.009
511.0722, 2744.865
511.5544, 2745.553
512.0365, 2736.526
512.5186, 2740.358
513.0007, 2757.749
513.4828, 2778.638
513.9650, 2799.077
514.4471, 2817.137
514.9292, 2829.446
515.4113, 2826.791
515.8934, 2830.480
516.3755, 2855.940
516.8576, 2895.359
517.3397, 2930.328
517.8218, 2956.892
518.3040, 2977.248
518.7861, 2988.826
519.2682, 2987.870
519.7503, 2998.785
520.2324, 3028.818
520.7145, 3064.819
521.1967, 3096.140
521.6788, 3121.802
522.1609, 3145.931
522.6430, 3168.583
523.1251, 3190.353
523.6072, 3211.138
524.0894, 3230.241
524.5715, 3253.588
525.0536, 3286.838
525.5357, 3326.975
526.0178, 3362.736
526.4999, 3394.277
526.9821, 3420.511
527.4642, 3437.075
527.9463, 3448.192
528.4284, 3460.978
528.9105, 3474.657
529.3926, 3495.555
529.8748, 3535.708
530.3569, 3587.596
530.8390, 3632.306
531.3211, 3658.011
531.8032, 3677.380
532.2853, 3692.608
532.7675, 3702.926
533.2496, 3726.525
533.7317, 3778.776
534.2138, 3838.571
534.6959, 3891.010
535.1780, 3926.794
535.6602, 3969.281
536.1423, 4024.798
536.6244, 4085.335
537.1065, 4135.114
537.5886, 4172.271
538.0707, 4202.611
538.5529, 4222.333
539.0350, 4235.089
539.5171, 4276.651
539.9992, 4350.253
540.4813, 4425.747
540.9634, 4477.256
541.4456, 4509.775
541.9277, 4534.287
542.4098, 4547.864
542.8919, 4568.162
543.3740, 4623.678
543.8561, 4700.299
544.3383, 4766.742
544.8204, 4804.055
545.3025, 4830.582
545.7846, 4848.913
546.2667, 4861.683
546.7488, 4893.074
547.2310, 4972.064
547.7131, 5057.195
548.1952, 5125.111
548.6773, 5169.344
549.1594, 5201.432
549.6415, 5210.690
550.1237, 5214.014
550.6058, 5236.722
551.0879, 5290.028
551.5700, 5334.329
552.0521, 5357.408
552.5342, 5365.044
553.0164, 5385.520
553.4985, 5420.436
553.9806, 5456.751
554.4627, 5486.842
554.9448, 5511.481
555.4269, 5534.784
555.9091, 5557.989
556.3912, 5574.005
556.8733, 5569.634
557.3554, 5553.507
557.8375, 5541.912
558.3196, 5542.964
558.8018, 5547.156
559.2839, 5550.219
559.7660, 5551.400
560.2481, 5548.566
560.7302, 5542.321
561.2123, 5530.583
561.6945, 5508.469
562.1766, 5471.479
562.6587, 5447.615
563.1408, 5443.284
563.6229, 5448.741
564.1050, 5459.548
564.5872, 5485.979
565.0693, 5490.650
565.5514, 5464.249
566.0335, 5419.976
566.5156, 5385.396
566.9977, 5360.912
567.4799, 5342.603
567.9620, 5330.715
568.4441, 5323.580
568.9262, 5318.380
569.4083, 5314.920
569.8904, 5308.147
570.3726, 5287.839
570.8547, 5264.025
571.3368, 5252.801
571.8189, 5260.938
572.3010, 5266.695
572.7831, 5253.232
573.2653, 5229.489
573.7474, 5208.267
574.2295, 5197.991
574.7116, 5185.743
575.1937, 5167.142
575.6758, 5142.917
576.1580, 5118.785
576.6401, 5092.252
577.1222, 5068.977
577.6043, 5052.710
578.0864, 5045.394
578.5685, 5032.091
579.0507, 5012.767
579.5328, 4987.632
580.0149, 4950.753
580.4970, 4903.246
580.9791, 4874.543
581.4612, 4877.444
581.9434, 4885.816
582.4255, 4853.204
582.9076, 4788.860
583.3897, 4726.848
583.8718, 4679.799
584.3539, 4646.015
584.8361, 4631.325
585.3182, 4633.406
585.8003, 4625.886
586.2824, 4588.823
586.7645, 4542.320
587.2466, 4499.854
587.7288, 4464.682
588.2109, 4430.757
588.6930, 4396.896
589.1751, 4364.212
589.6572, 4334.695
590.1393, 4312.398
590.6215, 4283.919
591.1036, 4243.347
591.5857, 4196.461
592.0678, 4166.030
592.5499, 4154.670
593.0320, 4138.391
593.5142, 4098.648
593.9963, 4043.120
594.4784, 4002.308
594.9605, 3976.366
595.4426, 3954.964
595.9247, 3931.203
596.4069, 3905.499
596.8890, 3877.944
597.3711, 3846.998
597.8532, 3817.727
598.3353, 3793.804
598.8174, 3772.678
599.2996, 3750.297
599.7817, 3729.939
600.2638, 3703.833
600.7459, 3667.483
601.2280, 3622.167
601.7101, 3578.016
602.1923, 3531.397
602.6744, 3491.711
603.1565, 3465.272
603.6386, 3453.128
604.1207, 3441.281
604.6028, 3431.662
605.0850, 3415.341
605.5671, 3372.875
606.0492, 3312.258
606.5313, 3277.105
607.0134, 3283.648
607.4955, 3297.650
607.9777, 3276.141
608.4598, 3230.534
608.9419, 3186.861
609.4240, 3156.634
609.9061, 3132.752
610.3882, 3114.147
610.8704, 3099.483
611.3525, 3081.285
611.8346, 3051.926
612.3167, 3023.005
612.7988, 3000.342
613.2809, 2984.766
613.7631, 2972.084
614.2452, 2964.298
614.7273, 2956.885
615.2094, 2944.774
615.6915, 2927.102
616.1736, 2913.229
616.6558, 2907.132
617.1379, 2900.831
617.6200, 2874.236
618.1021, 2831.720
618.5842, 2798.689
619.0663, 2793.833
619.5485, 2799.481
620.0306, 2793.316
620.5127, 2777.358
620.9948, 2763.592
621.4769, 2767.874
621.9590, 2770.092
622.4412, 2752.286
622.9233, 2704.884
623.4054, 2672.130
623.8875, 2678.854
624.3696, 2693.364
624.8517, 2688.867
625.3339, 2651.180
625.8160, 2626.437
626.2981, 2622.864
626.7802, 2628.398
627.2623, 2618.878
627.7444, 2593.270
628.2266, 2569.537
628.7087, 2553.538
629.1908, 2543.504
629.6729, 2538.029
630.1550, 2536.208
630.6371, 2531.900
631.1193, 2516.583
631.6014, 2499.595
632.0835, 2492.898
632.5656, 2498.242
633.0477, 2499.110
633.5298, 2484.393
634.0120, 2464.175
634.4941, 2446.621
634.9762, 2432.694
635.4583, 2421.480
635.9404, 2411.037
636.4225, 2404.244
636.9047, 2407.696
637.3868, 2427.354
637.8689, 2436.066
638.3510, 2424.840
638.8331, 2401.002
639.3152, 2385.109
639.7973, 2376.977
640.2794, 2368.793
640.7615, 2353.159
641.2437, 2336.167
641.7258, 2330.406
642.2079, 2335.406
642.6900, 2336.917
643.1721, 2320.166
643.6542, 2299.327
644.1364, 2286.878
644.6185, 2288.410
645.1006, 2289.000
645.5827, 2284.501
646.0648, 2277.720
646.5469, 2271.736
647.0291, 2266.608
647.5112, 2262.074
647.9933, 2259.115
648.4754, 2255.801
648.9575, 2245.607
649.4396, 2227.430
649.9218, 2215.785
650.4039, 2220.940
650.8860, 2233.813
651.3681, 2230.760
651.8502, 2213.755
652.3323, 2198.015
652.8145, 2196.339
653.2966, 2199.087
653.7787, 2196.683
654.2608, 2187.842
654.7429, 2179.496
655.2250, 2174.190
655.7072, 2170.671
656.1893, 2168.272
656.6714, 2171.233
657.1535, 2167.575
657.6356, 2152.185
658.1177, 2134.200
658.5999, 2128.757
659.0820, 2139.384
659.5641, 2142.704
660.0462, 2131.827
660.5283, 2113.379
661.0104, 2100.228
661.4926, 2092.009
661.9747, 2086.237
662.4568, 2080.333
662.9389, 2077.075
663.4210, 2084.171
663.9031, 2099.468
664.3853, 2106.982
664.8674, 2088.419
665.3495, 2067.207
665.8316, 2058.819
666.3137, 2069.014
666.7958, 2075.293
667.2780, 2073.644
667.7601, 2069.830
668.2422, 2069.346
668.7243, 2074.909
669.2064, 2070.969
669.6885, 2053.024
670.1707, 2031.978
670.6528, 2027.587
671.1349, 2036.570
671.6170, 2035.594
672.0991, 2010.253
672.5812, 1982.747
673.0634, 1981.779
673.5455, 2000.703
674.0276, 2021.232
674.5097, 2043.787
674.9918, 2057.375
675.4739, 2051.321
675.9561, 2027.212
676.4382, 2009.102
676.9203, 2002.073
677.4024, 1999.710
677.8845, 1999.773
678.3666, 2002.253
678.8488, 2008.128
679.3309, 2019.624
679.8130, 2028.237
680.2951, 2022.497
680.7772, 2005.735
681.2593, 1999.657
681.7415, 2008.920
682.2236, 2019.215
682.7057, 2013.825
683.1878, 1999.320
683.6699, 1986.724
684.1520, 1978.358
684.6342, 1974.150
685.1163, 1975.563
685.5984, 1980.976
686.0805, 1987.025
686.5626, 1995.509
687.0447, 2001.734
687.5269, 2003.069
688.0090, 2001.305
688.4911, 2007.753
688.9732, 2026.325
689.4553, 2037.091
689.9374, 2023.559
690.4196, 1993.508
690.9017, 1984.467
691.3838, 1995.944
691.8659, 2006.723
692.3480, 1995.916
692.8301, 1977.814
693.3123, 1970.068
693.7944, 1976.071
694.2765, 1984.603
694.7586, 1994.819
695.2407, 2003.046
695.7228, 2006.160
696.2050, 2001.323
696.6871, 1994.611
697.1692, 1982.697
697.6513, 1971.880
698.1334, 1973.120
698.6155, 1988.637
699.0977, 1999.081
699.5798, 1999.785
700.0619, 1994.972
700.5440, 1991.311
701.0261, 1988.764
701.5082, 1987.186
701.9904, 1987.417
702.4725, 1987.858
702.9546, 1985.656
703.4367, 1982.015
703.9188, 1982.028
704.4009, 1990.409
704.8831, 2000.141
705.3652, 2011.317
705.8473, 2024.573
706.3294, 2021.842
706.8115, 1993.758
707.2936, 1966.899
707.7758, 1959.915
708.2579, 1972.838
708.7400, 1980.349
709.2221, 1981.956
709.7042, 1978.839
710.1863, 1968.031
710.6685, 1954.161
711.1506, 1946.078
711.6327, 1945.422
712.1148, 1950.408
712.5969, 1962.565
713.0790, 1978.594
713.5612, 1994.609
714.0433, 2013.552
714.5254, 2027.087
715.0075, 2032.852
715.4896, 2033.675
715.9717, 2034.309
716.4539, 2034.477
716.9360, 2035.904
717.4181, 2040.694
717.9002, 2045.427
718.3823, 2039.454
718.8644, 2024.370
719.3466, 2010.815
719.8287, 2004.571
720.3108, 2002.729
720.7929, 2002.547
721.2750, 2004.089
721.7571, 2007.961
722.2393, 2018.836
722.7214, 2028.233
723.2035, 2030.216
723.6856, 2023.201
724.1677, 2021.843
724.6498, 2030.582
725.1320, 2038.215
725.6141, 2035.350
726.0962, 2021.327
726.5783, 2018.313
727.0604, 2027.930
727.5425, 2040.305
728.0247, 2044.800
728.5068, 2045.110
728.9889, 2050.220
729.4710, 2063.961
729.9531, 2072.858
730.4352, 2063.365
730.9174, 2046.438
731.3995, 2034.057
731.8816, 2027.589
732.3637, 2028.249
732.8458, 2042.199
733.3279, 2059.535
733.8101, 2063.158
734.2922, 2049.639
734.7743, 2038.091
735.2564, 2031.532
735.7385, 2030.595
736.2206, 2041.399
736.7028, 2060.956
737.1849, 2073.988
737.6670, 2070.591
738.1491, 2060.171
738.6312, 2048.271
739.1133, 2036.057
739.5955, 2027.613
740.0776, 2023.502
740.5597, 2024.387
741.0418, 2033.622
741.5239, 2049.934
742.0060, 2060.249
742.4882, 2063.716
742.9703, 2062.751
743.4524, 2055.771
743.9345, 2044.205
744.4166, 2041.579
744.8987, 2047.998
745.3809, 2056.889
745.8630, 2066.460
746.3451, 2073.763
746.8272, 2073.624
747.3093, 2064.878
747.7914, 2056.264
748.2736, 2049.947
748.7557, 2046.748
749.2378, 2048.572
749.7199, 2062.690
750.2020, 2064.846
750.6841, 2052.360
751.1663, 2031.747
751.6484, 2002.457
752.1305, 1964.219
752.6126, 1955.681
753.0947, 1986.935
753.5768, 2028.931
754.0590, 2046.566
754.5411, 2048.222
755.0232, 2050.736
755.5053, 2062.576
755.9874, 2070.010
756.4695, 2059.285
756.9517, 2040.979
757.4338, 2032.142
757.9159, 2050.634
758.3980, 2057.397
758.8801, 2042.143
759.3622, 2015.935
759.8444, 2005.709
760.3265, 2013.241
760.8086, 2017.683
761.2907, 2006.009
761.7728, 1994.615
762.2549, 2030.261
762.7370, 2096.359
763.2191, 2132.125
763.7012, 2072.014
764.1833, 2002.296
764.6655, 1976.746
765.1476, 1990.030
765.6297, 2004.244
766.1118, 2019.476
766.5939, 2026.906
767.0760, 2020.354
767.5582, 2001.680
768.0403, 1994.616
768.5224, 2000.655
769.0045, 2008.257
769.4866, 2010.460
769.9688, 2009.011
770.4509, 2008.201
770.9330, 2008.039
771.4151, 2007.456
771.8972, 2006.105
772.3793, 2003.879
772.8615, 2000.141
773.3436, 1994.476
773.8257, 1990.732
774.3078, 1991.616
774.7899, 1992.502
775.2720, 1990.374
775.7542, 1984.453
776.2363, 1981.786
776.7184, 1982.965
777.2005, 1984.838
777.6826, 1983.373
778.1647, 1980.408
778.6469, 1980.970
779.1290, 1985.984
779.6111, 1991.668
780.0932, 1999.080
780.5753, 2003.795
781.0574, 2000.578
781.5396, 1982.008
782.0217, 1968.854
782.5038, 1961.403
782.9859, 1960.963
783.4680, 1971.964
783.9501, 1997.653
784.4323, 2010.823
784.9144, 2006.186
785.3965, 1996.505
785.8786, 2000.910
786.3607, 2013.331
786.8428, 2017.965
787.3250, 2007.771
787.8071, 1995.891
788.2892, 1987.573
788.7713, 1983.828
789.2534, 1985.897
789.7355, 2006.395
790.2177, 2015.525
790.6998, 2004.391
791.1819, 1985.671
791.6640, 1982.031
792.1461, 1995.123
792.6282, 2003.480
793.1104, 2001.869
793.5925, 1993.988
794.0746, 1981.773
794.5567, 1967.966
795.0388, 1958.728
795.5209, 1955.625
796.0031, 1959.041
796.4852, 1974.063
796.9673, 1995.420
797.4494, 2011.072
797.9315, 2016.897
798.4136, 2021.706
798.8958, 2028.548
799.3779, 2034.460
799.8600, 2028.380
800.3421, 2010.392
800.8242, 1996.247
801.3063, 1993.056
801.7885, 1995.925
802.2706, 2000.934
802.7527, 2006.280
803.2348, 2006.950
803.7169, 1991.875
804.1990, 1980.485
804.6812, 1984.579
805.1633, 2000.540
805.6454, 2009.941
806.1275, 2010.942
806.6096, 2008.706
807.0917, 2003.193
807.5739, 1996.241
808.0560, 1995.890
808.5381, 2001.500
809.0202, 2004.984
809.5023, 1995.688
809.9844, 1986.463
810.4666, 1995.713
810.9487, 2018.570
811.4308, 2034.506
811.9129, 2033.195
812.3950, 2025.838
812.8771, 2012.886
813.3593, 1996.277
813.8414, 1990.946
814.3235, 2000.013
814.8056, 2009.276
815.2877, 2012.764
815.7698, 2011.614
816.2520, 2005.624
816.7341, 1996.461
817.2162, 1995.457
817.6983, 2019.321
818.1804, 2046.314
818.6625, 2060.035
819.1447, 2060.849
819.6268, 2057.134
820.1089, 2045.328
820.5910, 2035.212
821.0731, 2031.215
821.5552, 2032.312
822.0374, 2025.116
822.5195, 2007.921
823.0016, 1997.983
823.4837, 2011.779
823.9658, 2037.152
824.4479, 2050.953
824.9301, 2054.247
825.4122, 2054.680
825.8943, 2057.116
826.3764, 2057.272
826.8585, 2050.752
827.3406, 2037.407
827.8228, 2029.635
828.3049, 2029.225
828.7870, 2031.253
829.2691, 2032.985
829.7512, 2035.250
830.2333, 2045.966
830.7155, 2064.635
831.1976, 2077.471
831.6797, 2067.895
832.1618, 2052.963
832.6439, 2053.106
833.1260, 2067.149
833.6082, 2077.329
834.0903, 2076.619
834.5724, 2071.462
835.0545, 2062.393
835.5366, 2049.991
836.0187, 2046.278
836.5009, 2052.999
836.9830, 2060.638
837.4651, 2066.446
837.9472, 2068.715
838.4293, 2057.458
838.9114, 2035.567
839.3936, 2022.932
839.8757, 2041.771
840.3578, 2065.022
840.8399, 2074.969
841.3220, 2071.271
841.8041, 2069.690
842.2863, 2073.861
842.7684, 2075.953
843.2505, 2072.216
843.7326, 2063.740
844.2147, 2056.967
844.6968, 2051.947
845.1790, 2049.057
845.6611, 2052.318
846.1432, 2055.366
846.6253, 2045.306
847.1074, 2026.044
847.5895, 2018.740
848.0717, 2046.170
848.5538, 2072.201
849.0359, 2083.512
849.5180, 2081.516
850.0001, 2072.254
850.4822, 2052.199
850.9644, 2041.779
851.4465, 2056.544
851.9286, 2083.761
852.4107, 2089.422
852.8928, 2078.038
853.3749, 2068.434
853.8571, 2073.494
854.3392, 2080.930
854.8213, 2085.774
855.3034, 2087.207
855.7855, 2081.190
856.2676, 2059.477
856.7498, 2045.659
857.2319, 2047.695
857.7140, 2061.514
858.1961, 2076.127
858.6782, 2091.291
859.1603, 2103.135
859.6425, 2110.263
860.1246, 2113.194
860.6067, 2110.359
861.0888, 2103.627
861.5709, 2098.075
862.0530, 2087.875
862.5352, 2088.726
863.0173, 2112.249
863.4994, 2145.899
863.9815, 2155.987
864.4636, 2139.756
864.9457, 2123.464
865.4279, 2113.406
865.9100, 2109.826
866.3921, 2108.845
866.8742, 2114.927
867.3563, 2138.875
867.8384, 2226.241
868.3206, 2286.242
868.8027, 2260.459
869.2848, 2188.682
869.7669, 2149.775
870.2490, 2156.138
870.7311, 2166.086
871.2133, 2175.504
871.6954, 2182.111
872.1775, 2181.396
872.6596, 2174.211
873.1417, 2162.176
873.6238, 2140.799
874.1060, 2125.851
874.5881, 2131.808
875.0702, 2150.312
875.5523, 2170.562
876.0344, 2203.411
876.5165, 2218.505
876.9987, 2209.563
877.4808, 2189.412
877.9629, 2168.507
878.4450, 2148.229
878.9271, 2149.604
879.4092, 2179.557
879.8914, 2209.449
880.3735, 2204.724
880.8556, 2186.240
881.3377, 2181.055
881.8198, 2201.642
882.3019, 2215.452
882.7841, 2209.156
883.2662, 2200.134
883.7483, 2202.166
884.2304, 2217.555
884.7125, 2224.289
885.1946, 2220.983
885.6768, 2215.069
886.1588, 2213.458
886.6409, 2213.859
887.1230, 2211.620
887.6052, 2205.994
888.0873, 2204.293
888.5694, 2209.014
889.0515, 2219.606
889.5336, 2239.292
890.0157, 2269.795
890.4979, 2281.444
890.9800, 2270.511
891.4621, 2255.792
891.9442, 2248.845
892.4263, 2247.463
892.9084, 2245.701
893.3906, 2243.881
893.8727, 2245.541
894.3548, 2260.524
894.8369, 2272.350
895.3190, 2267.852
895.8011, 2248.490
896.2833, 2239.251
896.7654, 2243.842
897.2475, 2249.305
897.7296, 2251.331
898.2117, 2250.482
898.6938, 2248.208
899.1760, 2244.412
899.6581, 2238.464
900.1402, 2225.827
900.6223, 2214.992
901.1044, 2211.299
901.5865, 2213.679
902.0687, 2220.181
902.5508, 2237.314
903.0329, 2245.329
903.5150, 2237.594
903.9971, 2222.890
904.4792, 2220.655
904.9614, 2228.673
905.4435, 2233.335
905.9256, 2230.106
906.4077, 2223.734
906.8898, 2215.977
907.3719, 2208.432
907.8541, 2203.249
908.3362, 2202.394
908.8183, 2201.921
909.3004, 2201.300
909.7825, 2201.520
910.2646, 2203.871
910.7468, 2208.227
911.2289, 2213.832
911.7110, 2220.997
912.1931, 2226.018
912.6752, 2225.631
913.1573, 2221.250
913.6395, 2211.284
914.1216, 2191.027
914.6037, 2187.602
915.0858, 2222.240
915.5679, 2253.897
916.0500, 2255.243
916.5322, 2226.900
917.0143, 2211.565
917.4964, 2209.445
917.9785, 2211.876
918.4606, 2211.673
918.9427, 2213.301
919.4249, 2225.287
919.9070, 2245.971
920.3891, 2259.435
920.8712, 2252.430
921.3533, 2247.007
921.8354, 2251.346
922.3176, 2262.509
922.7997, 2267.243
923.2818, 2265.380
923.7639, 2262.081
924.2460, 2256.249
924.7281, 2253.885
925.2103, 2269.120
925.6924, 2293.068
926.1745, 2305.707
926.6566, 2283.698
927.1387, 2270.612
927.6208, 2277.957
928.1030, 2296.058
928.5851, 2312.597
929.0672, 2328.040
929.5493, 2331.438
930.0314, 2317.781
930.5135, 2303.699
930.9957, 2314.909
931.4778, 2336.073
931.9599, 2343.257
932.4420, 2322.993
932.9241, 2312.062
933.4063, 2323.187
933.8884, 2342.830
934.3705, 2365.640
934.8526, 2393.143
935.3347, 2404.348
935.8168, 2398.421
936.2990, 2384.524
936.7811, 2360.696
937.2632, 2338.787
937.7453, 2334.187
938.2274, 2347.574
938.7095, 2369.865
939.1917, 2419.440
939.6738, 2453.375
940.1559, 2449.594
940.6380, 2416.209
941.1201, 2403.255
941.6022, 2411.227
942.0844, 2421.232
942.5665, 2422.864
943.0486, 2423.441
943.5307, 2432.072
944.0128, 2446.555
944.4949, 2461.685
944.9771, 2476.314
945.4592, 2490.873
945.9413, 2506.029
946.4234, 2520.607
946.9055, 2532.786
947.3876, 2542.600
947.8698, 2551.637
948.3519, 2560.016
948.8340, 2568.334
949.3161, 2575.232
949.7982, 2583.215
950.2803, 2596.361
950.7625, 2618.296
951.2446, 2636.383
951.7267, 2645.984
952.2088, 2655.054
952.6909, 2670.281
953.1730, 2691.486
953.6552, 2704.150
954.1373, 2708.129
954.6194, 2715.071
955.1015, 2738.771
955.5836, 2765.327
956.0657, 2778.033
956.5479, 2778.829
957.0300, 2792.092
957.5121, 2831.512
957.9942, 2868.268
958.4763, 2892.121
958.9584, 2908.858
959.4406, 2937.207
959.9227, 2975.287
960.4048, 3009.777
960.8869, 3032.638
961.3690, 3053.934
961.8511, 3084.401
962.3333, 3117.802
962.8154, 3144.251
963.2975, 3150.404
963.7796, 3170.865
964.2617, 3209.587
964.7438, 3258.870
965.2260, 3314.120
965.7081, 3372.116
966.1902, 3415.835
966.6723, 3442.178
967.1544, 3469.665
967.6365, 3508.419
968.1187, 3555.394
968.6008, 3608.705
969.0829, 3669.301
969.5650, 3730.179
970.0471, 3793.291
970.5292, 3852.142
971.0114, 3900.615
971.4935, 3944.404
971.9756, 3999.593
972.4577, 4064.436
972.9398, 4134.163
973.4219, 4205.061
973.9041, 4282.478
974.3862, 4376.060
974.8683, 4476.771
975.3504, 4564.830
975.8325, 4637.035
976.3146, 4714.077
976.7968, 4799.079
977.2789, 4891.900
977.7610, 4998.008
978.2431, 5111.113
978.7252, 5218.523
979.2073, 5312.614
979.6895, 5419.903
980.1716, 5554.159
980.6537, 5699.032
981.1358, 5843.210
981.6179, 5986.151
982.1000, 6145.500
982.5822, 6323.672
983.0643, 6498.714
983.5464, 6642.273
984.0285, 6782.313
984.5106, 6948.005
984.9927, 7137.856
985.4749, 7341.148
985.9570, 7557.276
986.4391, 7784.723
986.9212, 8023.983
987.4033, 8273.397
987.8854, 8534.024
988.3676, 8805.983
988.8497, 9089.399
989.3318, 9382.168
989.8139, 9692.991
990.2960, 10046.52
990.7781, 10416.46
991.2603, 10760.91
991.7424, 11059.59
992.2245, 11383.43
992.7066, 11737.08
993.1887, 12105.63
993.6708, 12477.79
994.1530, 12855.47
994.6351, 13257.48
995.1172, 13681.58
995.5993, 14091.26
996.0814, 14437.33
996.5635, 14784.64
997.0457, 15176.47
997.5278, 15600.77
998.0099, 15996.69
998.4920, 16362.11
998.9741, 16726.95
999.4562, 17101.42
999.9384, 17472.74
1000.420, 17819.63
1000.903, 18146.74
1001.385, 18470.83
1001.867, 18797.61
1002.349, 19113.00
1002.831, 19411.63
1003.313, 19699.90
1003.795, 19977.57
1004.277, 20246.81
1004.760, 20512.96
1005.242, 20779.79
1005.724, 21026.63
1006.206, 21236.85
1006.688, 21428.48
1007.170, 21626.63
1007.652, 21827.41
1008.134, 21995.14
1008.616, 22124.92
1009.099, 22229.53
1009.581, 22306.36
1010.063, 22368.08
1010.545, 22456.77
1011.027, 22558.41
1011.509, 22619.63
1011.991, 22619.17
1012.473, 22587.06
1012.955, 22539.37
1013.438, 22467.17
1013.920, 22357.39
1014.402, 22197.00
1014.884, 22062.90
1015.366, 21960.77
1015.848, 21849.75
1016.330, 21707.67
1016.812, 21529.87
1017.294, 21296.76
1017.777, 21016.56
1018.259, 20745.01
1018.741, 20524.76
1019.223, 20283.07
1019.705, 19993.75
1020.187, 19674.79
1020.669, 19360.12
1021.151, 19053.78
1021.634, 18780.96
1022.116, 18558.81
1022.598, 18338.42
1023.080, 18047.27
1023.562, 17749.08
1024.044, 17523.00
1024.526, 17420.92
1025.008, 17261.06
1025.490, 17022.71
1025.973, 16778.17
1026.455, 16579.67
1026.937, 16413.37
1027.419, 16242.39
1027.901, 16067.23
1028.383, 15901.62
1028.865, 15740.39
1029.347, 15599.84
1029.830, 15490.07
1030.312, 15404.42
1030.794, 15336.71
1031.276, 15289.51
1031.758, 15217.98
1032.240, 15107.69
1032.722, 15003.15
1033.204, 14950.11
1033.687, 14931.37
1034.169, 14934.12
1034.651, 14967.39
1035.133, 14961.29
1035.615, 14881.00
1036.097, 14816.60
1036.579, 14821.87
1037.061, 14877.48
1037.543, 14916.81
1038.026, 14941.06
1038.508, 14955.27
1038.990, 14961.73
1039.472, 14959.56
1039.954, 14941.84
1040.436, 14918.46
1040.918, 14910.47
1041.400, 14926.74
1041.882, 14906.49
1042.365, 14840.14
1042.847, 14756.72
1043.329, 14679.43
1043.811, 14606.72
1044.293, 14545.44
1044.775, 14497.13
1045.257, 14413.92
1045.739, 14292.20
1046.222, 14126.97
1046.704, 13904.17
1047.186, 13644.65
1047.668, 13410.78
1048.150, 13192.92
1048.632, 12958.17
1049.114, 12691.35
1049.596, 12407.85
1050.078, 12106.35
1050.561, 11797.96
1051.043, 11499.32
1051.525, 11220.44
1052.007, 10900.91
1052.489, 10533.31
1052.971, 10167.84
1053.453, 9852.431
1053.935, 9558.738
1054.417, 9252.536
1054.900, 8935.933
1055.382, 8631.487
1055.864, 8346.714
1056.346, 8076.493
1056.828, 7821.095
1057.310, 7578.684
1057.792, 7341.565
1058.274, 7111.054
1058.757, 6879.735
1059.239, 6640.504
1059.721, 6425.626
1060.203, 6274.104
1060.685, 6139.890
1061.167, 5983.961
1061.649, 5802.465
1062.131, 5640.589
1062.614, 5497.804
1063.096, 5361.605
1063.578, 5219.480
1064.060, 5083.844
1064.542, 4976.295
1065.024, 4887.176
1065.506, 4796.754
1065.988, 4688.081
1066.470, 4595.570
1066.953, 4522.410
1067.435, 4462.953
1067.917, 4422.153
1068.399, 4389.074
1068.881, 4322.624
1069.363, 4220.018
1069.845, 4131.113
1070.327, 4096.639
1070.809, 4070.155
1071.292, 4027.908
1071.774, 3974.556
1072.256, 3929.127
1072.738, 3891.862
1073.220, 3852.394
1073.702, 3807.677
1074.184, 3759.403
1074.666, 3701.990
1075.148, 3646.188
1075.631, 3608.083
1076.113, 3599.268
1076.595, 3578.953
1077.077, 3542.325
1077.559, 3509.187
1078.041, 3503.032
1078.523, 3506.822
1079.005, 3472.782
1079.488, 3412.988
1079.970, 3373.143
1080.452, 3396.903
1080.934, 3410.431
1081.416, 3392.678
1081.898, 3361.381
1082.380, 3343.090
1082.862, 3335.984
1083.344, 3322.299
1083.827, 3299.554
1084.309, 3279.943
1084.791, 3278.682
1085.273, 3278.924
1085.755, 3265.686
1086.237, 3240.979
1086.719, 3225.519
1087.201, 3220.509
1087.683, 3217.698
1088.166, 3215.650
1088.648, 3212.148
1089.130, 3202.127
1089.612, 3189.583
1090.094, 3180.013
1090.576, 3172.887
1091.058, 3175.856
1091.540, 3197.173
1092.023, 3212.179
1092.505, 3196.688
1092.987, 3162.380
1093.469, 3151.327
1093.951, 3158.501
1094.433, 3161.388
1094.915, 3140.682
1095.397, 3124.334
1095.880, 3121.867
1096.362, 3127.992
1096.844, 3138.198
1097.326, 3152.142
1097.808, 3162.435
1098.290, 3168.487
1098.772, 3168.439
1099.254, 3157.807
1099.736, 3143.173
1100.219, 3123.783
1100.701, 3102.697
1101.183, 3106.729
1101.665, 3143.594
1102.147, 3165.119
1102.629, 3151.966
1103.111, 3129.975
1103.593, 3138.427
1104.075, 3158.260
1104.558, 3159.447
1105.040, 3126.551
1105.522, 3106.460
1106.004, 3102.944
1106.486, 3111.666
1106.968, 3137.375
1107.450, 3170.321
1107.932, 3175.515
1108.415, 3162.034
1108.897, 3161.417
1109.379, 3218.602
1109.861, 3250.345
1110.343, 3215.062
1110.825, 3161.670
1111.307, 3141.202
1111.789, 3151.591
1112.271, 3154.300
1112.754, 3147.262
1113.236, 3141.072
1113.718, 3145.699
1114.200, 3150.829
1114.682, 3146.493
1115.164, 3137.227
1115.646, 3138.168
1116.128, 3150.171
1116.610, 3167.083
1117.093, 3189.568
1117.575, 3209.565
1118.057, 3222.497
1118.539, 3226.051
1119.021, 3213.729
1119.503, 3182.255
1119.985, 3162.558
1120.467, 3157.874
1120.950, 3159.747
1121.432, 3167.744
1121.914, 3176.531
1122.396, 3174.097
1122.878, 3165.197
1123.360, 3159.690
1123.842, 3162.971
1124.324, 3164.503
1124.807, 3163.678
1125.289, 3159.418
1125.771, 3145.797
1126.253, 3127.510
1126.735, 3135.122
1127.217, 3162.469
1127.699, 3177.978
1128.181, 3152.475
1128.663, 3126.992
1129.146, 3116.630
1129.628, 3114.226
1130.110, 3114.731
1130.592, 3117.698
1131.074, 3105.778
1131.556, 3077.590
1132.038, 3048.301
1132.520, 3022.214
1133.002, 3005.559
1133.485, 3010.664
1133.967, 3029.495
1134.449, 3027.635
1134.931, 3001.554
1135.413, 2986.299
1135.895, 2992.281
1136.377, 3000.201
1136.859, 2983.921
1137.342, 2961.763
1137.824, 2957.761
1138.306, 2978.335
1138.788, 2976.865
1139.270, 2944.788
1139.752, 2919.209
1140.234, 2918.047
1140.716, 2926.847
1141.198, 2923.530
1141.681, 2912.602
1142.163, 2903.128
1142.645, 2904.025
1143.127, 2887.686
1143.609, 2841.778
1144.091, 2800.429
1144.573, 2791.867
1145.055, 2803.677
1145.537, 2800.685
1146.020, 2786.026
1146.502, 2770.772
1146.984, 2755.380
1147.466, 2746.176
1147.948, 2748.468
1148.430, 2751.845
1148.912, 2744.658
1149.394, 2728.410
1149.877, 2709.835
1150.359, 2689.995
1150.841, 2674.734
1151.323, 2671.780
1151.805, 2669.482
1152.287, 2661.893
1152.769, 2652.033
1153.251, 2644.965
1153.734, 2640.735
1154.216, 2641.351
1154.698, 2647.798
1155.180, 2650.491
1155.662, 2639.607
1156.144, 2624.721
1156.626, 2612.138
1157.108, 2601.599
1157.590, 2589.332
1158.073, 2574.907
1158.555, 2570.607
1159.037, 2583.577
1159.519, 2595.700
1160.001, 2587.167
1160.483, 2569.881
1160.965, 2554.989
1161.447, 2543.339
1161.929, 2537.757
1162.412, 2539.333
1162.894, 2539.633
1163.376, 2535.105
1163.858, 2527.015
1164.340, 2513.531
1164.822, 2498.948
1165.304, 2490.422
1165.786, 2494.844
1166.269, 2488.629
1166.751, 2468.360
1167.233, 2450.092
1167.715, 2446.414
1168.197, 2450.558
1168.679, 2452.335
1169.161, 2452.826
1169.643, 2455.030
1170.125, 2461.056
1170.608, 2467.072
1171.090, 2473.899
1171.572, 2478.040
1172.054, 2473.755
1172.536, 2465.145
1173.018, 2460.021
1173.500, 2458.319
1173.982, 2457.690
1174.464, 2459.928
1174.947, 2459.285
1175.429, 2453.837
1175.911, 2447.096
1176.393, 2446.832
1176.875, 2448.552
1177.357, 2436.787
1177.839, 2410.721
1178.321, 2395.027
1178.804, 2412.034
1179.286, 2425.763
1179.768, 2424.952
1180.250, 2415.587
1180.732, 2407.066
1181.214, 2400.391
1181.696, 2399.170
1182.178, 2404.675
1182.661, 2411.440
1183.143, 2422.413
1183.625, 2426.929
1184.107, 2415.838
1184.589, 2397.235
1185.071, 2403.646
1185.553, 2428.420
1186.035, 2441.714
1186.517, 2430.949
1187.000, 2417.979
1187.482, 2410.111
1187.964, 2406.824
1188.446, 2409.615
1188.928, 2417.015
1189.410, 2417.173
1189.892, 2411.115
1190.374, 2405.112
1190.856, 2400.877
1191.339, 2398.851
1191.821, 2403.105
1192.303, 2406.498
1192.785, 2401.708
1193.267, 2388.835
1193.749, 2380.630
1194.231, 2376.822
1194.713, 2374.065
1195.195, 2375.864
1195.678, 2372.040
1196.160, 2344.027
1196.642, 2315.781
1197.124, 2320.376
1197.606, 2359.041
1198.088, 2386.255
1198.570, 2400.510
1199.052, 2402.321
1199.535, 2377.455
1200.017, 2355.534
1200.499, 2357.664
1200.981, 2373.289
1201.463, 2386.068
1201.945, 2396.264
1202.427, 2393.798
1202.909, 2377.429
1203.391, 2365.480
1203.874, 2380.611
1204.356, 2396.675
1204.838, 2391.064
1205.320, 2373.992
1205.802, 2373.829
1206.284, 2391.157
1206.766, 2395.137
1207.248, 2379.957
1207.730, 2363.005
1208.213, 2354.296
1208.695, 2352.710
1209.177, 2360.194
1209.659, 2373.880
1210.141, 2386.916
1210.623, 2399.290
1211.105, 2402.760
1211.587, 2394.022
1212.070, 2384.024
1212.552, 2383.547
1213.034, 2384.701
1213.516, 2379.410
1213.998, 2369.443
1214.480, 2367.859
1214.962, 2374.701
1215.444, 2377.892
1215.927, 2373.596
1216.409, 2365.569
1216.891, 2353.933
1217.373, 2342.376
1217.855, 2332.986
1218.337, 2326.042
1218.819, 2327.825
1219.301, 2338.250
1219.783, 2347.851
1220.266, 2353.654
1220.748, 2356.499
1221.230, 2354.245
1221.712, 2351.451
1222.194, 2354.698
1222.676, 2364.084
1223.158, 2356.021
1223.640, 2331.293
1224.122, 2315.221
1224.605, 2325.192
1225.087, 2338.680
1225.569, 2340.624
1226.051, 2336.921
1226.533, 2333.106
1227.015, 2328.873
1227.497, 2337.388
1227.979, 2357.431
1228.462, 2364.726
1228.944, 2327.643
1229.426, 2295.842
1229.908, 2305.121
1230.390, 2332.770
1230.872, 2352.840
1231.354, 2365.384
1231.836, 2371.331
1232.318, 2370.822
1232.801, 2366.184
1233.283, 2354.158
1233.765, 2343.571
1234.247, 2337.465
1234.729, 2336.906
1235.211, 2346.269
1235.693, 2365.113
1236.175, 2371.157
1236.657, 2364.364
1237.140, 2356.104
1237.622, 2352.907
1238.104, 2350.586
1238.586, 2347.624
1239.068, 2344.203
1239.550, 2339.815
1240.032, 2334.867
1240.514, 2333.195
1240.997, 2335.040
1241.479, 2339.953
1241.961, 2352.493
1242.443, 2362.151
1242.925, 2364.659
1243.407, 2362.357
1243.889, 2356.097
1244.371, 2347.239
1244.854, 2344.182
1245.336, 2347.260
1245.818, 2352.826
1246.300, 2364.765
1246.782, 2370.739
1247.264, 2364.955
1247.746, 2354.516
1248.228, 2350.374
1248.710, 2350.860
1249.193, 2349.511
1249.675, 2345.951
1250.157, 2344.831
1250.639, 2351.191
1251.121, 2356.736
1251.603, 2360.187
1252.085, 2360.793
1252.567, 2355.209
1253.049, 2346.409
1253.532, 2341.889
1254.014, 2342.367
1254.496, 2341.020
1254.978, 2331.249
1255.460, 2327.249
1255.942, 2334.707
1256.424, 2343.911
1256.906, 2336.112
1257.389, 2320.717
1257.871, 2315.087
1258.353, 2321.423
1258.835, 2328.312
1259.317, 2335.345
1259.799, 2339.279
1260.281, 2338.803
1260.763, 2336.614
1261.245, 2336.231
1261.728, 2336.801
1262.210, 2336.739
1262.692, 2335.952
1263.174, 2337.844
1263.656, 2343.454
1264.138, 2348.719
1264.620, 2352.955
1265.102, 2355.230
1265.584, 2354.431
1266.067, 2350.935
1266.549, 2341.848
1267.031, 2327.602
1267.513, 2328.788
1267.995, 2347.434
1268.477, 2367.835
1268.959, 2387.878
1269.441, 2399.542
1269.924, 2386.454
1270.406, 2367.093
1270.888, 2359.946
1271.370, 2363.727
1271.852, 2365.144
1272.334, 2364.208
1272.816, 2366.301
1273.298, 2373.852
1273.781, 2381.441
1274.263, 2388.148
1274.745, 2389.856
1275.227, 2382.341
1275.709, 2367.888
1276.191, 2357.085
1276.673, 2349.634
1277.155, 2343.507
1277.637, 2337.785
1278.120, 2334.968
1278.602, 2339.387
1279.084, 2344.005
1279.566, 2345.699
1280.048, 2344.503
1280.530, 2339.356
1281.012, 2331.431
1281.494, 2322.964
1281.976, 2311.613
1282.459, 2313.071
1282.941, 2345.269
1283.423, 2371.699
1283.905, 2376.635
1284.387, 2366.973
1284.869, 2352.924
1285.351, 2338.381
1285.833, 2332.130
1286.316, 2338.451
1286.798, 2342.469
1287.280, 2341.615
1287.762, 2341.205
1288.244, 2343.774
1288.726, 2347.409
1289.208, 2349.331
1289.690, 2350.263
1290.172, 2350.294
1290.655, 2348.465
1291.137, 2354.447
##END=



