##NAMES=Kornerupine
##RRUFFID=R100155
##IDEAL CHEMISTRY=(Mg,Fe^2+^,Al,[box])_10_(Si,Al,B)_5_O_21_(OH,F)_2_
##LOCALITY=Sri Lanka
##OWNER=RRUFF
##SOURCE=William W. Pinch
##DESCRIPTION=Colorless to pale yellow cut gemstone
##STATUS=The identification of this mineral has been confirmed by single-crystal X-ray diffraction.
##URL=rruff.info/R100155
147.4952, 139.1277
147.9773, 139.0251
148.4594, 138.8046
148.9415, 138.4874
149.4237, 138.1514
149.9058, 137.6451
150.3879, 137.1254
150.8700, 137.0907
151.3521, 137.8652
151.8342, 138.8304
152.3164, 139.5271
152.7985, 139.9609
153.2806, 140.1916
153.7627, 140.1268
154.2448, 139.7550
154.7269, 139.6476
155.2091, 140.1635
155.6912, 140.7647
156.1733, 141.2135
156.6554, 141.4804
157.1375, 141.6323
157.6196, 141.6227
158.1018, 141.1587
158.5839, 141.4424
159.0660, 143.1689
159.5481, 145.1286
160.0302, 146.6299
160.5123, 147.4805
160.9945, 147.8825
161.4766, 148.1826
161.9587, 148.4300
162.4408, 148.4686
162.9229, 148.3161
163.4050, 147.9684
163.8871, 147.4190
164.3693, 146.6649
164.8514, 145.7165
165.3335, 144.5742
165.8156, 142.9274
166.2977, 141.5292
166.7798, 140.6321
167.2620, 139.9965
167.7441, 139.2434
168.2262, 138.1854
168.7083, 136.9678
169.1904, 135.9811
169.6725, 135.0700
170.1547, 134.5529
170.6368, 134.9780
171.1189, 136.0153
171.6010, 136.4662
172.0831, 135.5385
172.5652, 133.8751
173.0474, 132.8366
173.5295, 132.5686
174.0116, 132.6412
174.4937, 132.8178
174.9758, 133.0984
175.4579, 133.3721
175.9401, 133.6879
176.4222, 133.9150
176.9043, 133.8477
177.3864, 133.3461
177.8685, 132.7891
178.3506, 132.7118
178.8328, 133.2612
179.3149, 133.7698
179.7970, 134.1572
180.2791, 134.3401
180.7612, 134.1049
181.2433, 133.3001
181.7255, 132.3253
182.2076, 132.0968
182.6897, 133.1060
183.1718, 133.9903
183.6539, 134.5810
184.1360, 134.8833
184.6181, 134.8619
185.1003, 134.4896
185.5824, 133.8447
186.0645, 133.1979
186.5466, 132.3578
187.0287, 131.7716
187.5108, 131.6461
187.9930, 131.7641
188.4751, 131.8335
188.9572, 131.6826
189.4393, 131.3860
189.9214, 131.3708
190.4035, 132.3399
190.8857, 132.8123
191.3678, 132.0857
191.8499, 130.7039
192.3320, 129.6662
192.8141, 129.6322
193.2962, 130.4064
193.7784, 130.4413
194.2605, 128.9946
194.7426, 127.7815
195.2247, 127.5411
195.7068, 128.0361
196.1889, 128.5717
196.6711, 128.7689
197.1532, 128.6370
197.6353, 128.3497
198.1174, 127.6681
198.5995, 127.0608
199.0816, 126.6365
199.5638, 126.4357
200.0459, 126.8043
200.5280, 128.3612
201.0101, 130.5128
201.4922, 131.5405
201.9743, 130.7121
202.4565, 129.4295
202.9386, 128.8511
203.4207, 128.9910
203.9028, 129.2633
204.3849, 129.3180
204.8670, 129.3365
205.3492, 129.6149
205.8313, 130.3617
206.3134, 131.1855
206.7955, 131.5058
207.2776, 131.1833
207.7597, 131.0070
208.2419, 131.4514
208.7240, 132.1854
209.2061, 132.9490
209.6882, 133.6966
210.1703, 134.3627
210.6524, 134.8238
211.1346, 135.0323
211.6167, 135.1385
212.0988, 134.9602
212.5809, 134.8073
213.0630, 135.0516
213.5451, 135.8838
214.0273, 137.0054
214.5094, 137.6966
214.9915, 137.5827
215.4736, 137.7178
215.9557, 138.6122
216.4378, 139.6852
216.9200, 140.2587
217.4021, 140.0084
217.8842, 139.3540
218.3663, 139.4960
218.8484, 141.0974
219.3305, 142.5994
219.8127, 143.8627
220.2948, 144.9295
220.7769, 145.8256
221.2590, 146.5628
221.7411, 147.1925
222.2232, 147.8714
222.7054, 148.8752
223.1875, 149.5748
223.6696, 149.5847
224.1517, 149.3961
224.6338, 149.5791
225.1159, 150.3884
225.5980, 151.6556
226.0802, 152.9021
226.5623, 154.1676
227.0444, 155.3577
227.5265, 156.4878
228.0086, 157.5318
228.4907, 158.4168
228.9729, 159.1068
229.4550, 159.6742
229.9371, 160.2849
230.4192, 160.7945
230.9013, 161.5596
231.3834, 162.8058
231.8656, 164.3026
232.3477, 165.8075
232.8298, 167.2777
233.3119, 168.5151
233.7940, 168.9248
234.2761, 168.1144
234.7583, 167.6297
235.2404, 168.1258
235.7225, 169.1568
236.2046, 169.9012
236.6867, 170.0270
237.1688, 169.9375
237.6510, 170.4371
238.1331, 171.6291
238.6152, 172.6228
239.0973, 172.8757
239.5794, 172.7341
240.0615, 173.0391
240.5437, 174.2081
241.0258, 175.4790
241.5079, 175.6533
241.9900, 174.7428
242.4721, 174.0986
242.9542, 174.2870
243.4364, 175.1653
243.9185, 176.4658
244.4006, 178.3397
244.8827, 180.2534
245.3648, 181.6491
245.8469, 182.5874
246.3290, 183.4162
246.8112, 184.0029
247.2933, 184.5764
247.7754, 185.8889
248.2575, 188.1681
248.7396, 191.0263
249.2217, 194.3039
249.7039, 197.8847
250.1860, 201.3553
250.6681, 204.3574
251.1502, 207.0403
251.6323, 209.9406
252.1144, 212.8228
252.5966, 216.3898
253.0787, 221.3027
253.5608, 227.1053
254.0429, 232.8479
254.5250, 237.9380
255.0071, 242.5201
255.4893, 247.2573
255.9714, 252.4206
256.4535, 257.2463
256.9356, 261.5172
257.4177, 265.2730
257.8998, 268.7471
258.3820, 272.4994
258.8641, 275.8396
259.3462, 276.1567
259.8283, 272.1440
260.3104, 266.9967
260.7925, 261.5406
261.2747, 255.8447
261.7568, 250.0729
262.2389, 244.3386
262.7210, 238.4536
263.2031, 231.6189
263.6852, 222.7393
264.1674, 214.8198
264.6495, 208.6893
265.1316, 203.6658
265.6137, 199.1026
266.0958, 194.7275
266.5779, 190.6342
267.0601, 187.0634
267.5422, 184.0962
268.0243, 181.6104
268.5064, 179.7953
268.9885, 178.2476
269.4706, 176.6883
269.9528, 175.0081
270.4349, 173.1693
270.9170, 171.0014
271.3991, 167.9897
271.8812, 165.7377
272.3633, 164.4828
272.8455, 163.7991
273.3276, 163.5956
273.8097, 163.7564
274.2918, 163.8926
274.7739, 163.3365
275.2560, 161.5229
275.7382, 160.2218
276.2202, 159.8073
276.7024, 159.5108
277.1845, 158.7124
277.6666, 157.4043
278.1487, 156.1522
278.6308, 155.7068
279.1129, 156.4444
279.5951, 156.6840
280.0772, 155.9978
280.5593, 155.2745
281.0414, 154.9586
281.5235, 155.0624
282.0056, 155.3354
282.4878, 155.4933
282.9699, 155.4340
283.4520, 156.0697
283.9341, 157.9329
284.4162, 159.8688
284.8983, 161.5433
285.3805, 162.9087
285.8626, 163.9554
286.3447, 164.6281
286.8268, 164.9364
287.3089, 165.6175
287.7910, 166.6394
288.2732, 168.0244
288.7553, 169.9646
289.2374, 172.2655
289.7195, 174.5832
290.2016, 176.7191
290.6837, 178.6842
291.1659, 180.5915
291.6480, 182.8476
292.1301, 184.5575
292.6122, 185.1905
293.0943, 185.2809
293.5764, 185.5395
294.0586, 186.2916
294.5407, 187.4231
295.0228, 188.6311
295.5049, 190.8888
295.9870, 191.9814
296.4691, 191.1815
296.9513, 189.4574
297.4334, 187.7215
297.9155, 186.2928
298.3976, 185.1029
298.8797, 184.0689
299.3618, 183.4626
299.8440, 182.4650
300.3261, 180.8905
300.8082, 179.0601
301.2903, 177.0312
301.7724, 174.8959
302.2545, 173.0377
302.7367, 171.9823
303.2188, 172.1000
303.7009, 171.5660
304.1830, 169.6761
304.6651, 167.7642
305.1472, 166.7951
305.6294, 166.6953
306.1115, 166.6429
306.5936, 165.8866
307.0757, 164.3607
307.5578, 163.4312
308.0399, 163.4030
308.5221, 163.5471
309.0042, 163.7756
309.4863, 163.9408
309.9684, 163.6453
310.4505, 162.5365
310.9326, 160.8274
311.4148, 160.0775
311.8969, 161.0568
312.3790, 161.9412
312.8611, 162.0142
313.3432, 161.7612
313.8253, 162.0747
314.3075, 163.3946
314.7896, 165.2747
315.2717, 166.5814
315.7538, 167.1409
316.2359, 167.3714
316.7180, 166.6440
317.2001, 165.8908
317.6823, 166.3676
318.1644, 168.4031
318.6465, 170.9513
319.1286, 172.4258
319.6107, 172.1448
320.0928, 172.3407
320.5750, 173.2405
321.0571, 174.4418
321.5392, 175.7149
322.0213, 176.9942
322.5034, 178.2442
322.9855, 179.3979
323.4677, 180.4295
323.9498, 181.6455
324.4319, 183.5732
324.9140, 185.1767
325.3961, 185.6531
325.8782, 185.3011
326.3604, 185.1284
326.8425, 185.8906
327.3246, 187.4682
327.8067, 188.4965
328.2888, 188.8261
328.7709, 188.8734
329.2531, 188.5222
329.7352, 187.9953
330.2173, 187.7064
330.6994, 187.8721
331.1815, 188.2255
331.6636, 188.0367
332.1458, 186.6521
332.6279, 185.5128
333.1100, 184.9023
333.5921, 184.4427
334.0742, 183.8333
334.5563, 182.9735
335.0385, 181.8021
335.5206, 180.2080
336.0027, 177.9485
336.4848, 175.8542
336.9669, 173.8985
337.4490, 172.0869
337.9312, 170.5359
338.4133, 169.1708
338.8954, 167.6969
339.3775, 165.7919
339.8596, 163.3793
340.3417, 161.4542
340.8239, 160.3039
341.3060, 159.2712
341.7881, 158.1784
342.2702, 157.0215
342.7523, 155.8610
343.2344, 154.7456
343.7166, 153.6413
344.1987, 152.3937
344.6808, 150.6883
345.1629, 149.1976
345.6450, 147.9507
346.1271, 146.9724
346.6093, 146.2813
347.0914, 145.8883
347.5735, 145.7951
348.0556, 146.0884
348.5377, 147.4158
349.0198, 147.9158
349.5020, 146.8569
349.9841, 145.6345
350.4662, 145.2248
350.9483, 145.7069
351.4304, 146.4965
351.9125, 146.8903
352.3947, 146.7042
352.8768, 147.3627
353.3589, 149.9393
353.8410, 152.2842
354.3231, 153.3247
354.8052, 153.5422
355.2874, 154.0281
355.7695, 155.5164
356.2516, 157.8760
356.7337, 160.4099
357.2158, 163.1634
357.6979, 166.0532
358.1800, 169.3710
358.6621, 172.6825
359.1443, 175.3576
359.6264, 177.1746
360.1085, 178.7140
360.5906, 181.1819
361.0727, 185.2089
361.5548, 188.5069
362.0370, 190.4459
362.5191, 191.9399
363.0012, 193.6020
363.4833, 195.4564
363.9654, 197.0140
364.4475, 197.7829
364.9297, 197.7380
365.4118, 197.2977
365.8939, 196.0185
366.3760, 194.8150
366.8581, 194.3150
367.3402, 194.1541
367.8224, 193.5059
368.3045, 191.6684
368.7866, 189.1985
369.2687, 187.8694
369.7508, 188.2870
370.2329, 188.5212
370.7151, 187.6105
371.1972, 186.3578
371.6793, 185.6356
372.1614, 185.7603
372.6435, 185.9815
373.1256, 185.0901
373.6078, 182.9494
374.0899, 181.7550
374.5720, 183.0205
375.0541, 184.4422
375.5362, 184.0958
376.0183, 182.1054
376.5005, 180.1821
376.9826, 179.6376
377.4647, 180.0857
377.9468, 180.0035
378.4289, 179.0040
378.9110, 178.1367
379.3932, 178.2691
379.8753, 179.0137
380.3574, 179.6825
380.8395, 180.1160
381.3216, 180.3297
381.8037, 180.3039
382.2859, 180.0359
382.7680, 179.6603
383.2501, 179.1230
383.7322, 178.5906
384.2143, 178.3079
384.6964, 178.3195
385.1786, 178.4480
385.6607, 178.5388
386.1428, 178.6693
386.6249, 179.0815
387.1070, 179.8799
387.5891, 180.8344
388.0713, 181.8109
388.5534, 182.8015
389.0355, 183.4169
389.5176, 183.3730
389.9997, 183.0455
390.4818, 182.7364
390.9640, 182.4751
391.4461, 182.3176
391.9282, 182.3025
392.4103, 182.4300
392.8924, 182.6544
393.3745, 183.4088
393.8567, 183.7812
394.3388, 183.2391
394.8209, 182.0797
395.3030, 180.8084
395.7851, 179.5716
396.2672, 178.4807
396.7494, 177.7524
397.2315, 177.6068
397.7136, 177.3074
398.1957, 176.9285
398.6778, 176.3092
399.1599, 175.2852
399.6420, 173.8608
400.1241, 172.1402
400.6063, 170.1443
401.0884, 167.8414
401.5705, 166.1425
402.0526, 165.5809
402.5347, 164.9425
403.0168, 163.9569
403.4990, 162.6290
403.9811, 160.9823
404.4632, 159.0328
404.9453, 156.8559
405.4274, 154.5882
405.9095, 151.8068
406.3917, 149.7245
406.8738, 148.9367
407.3559, 148.3828
407.8380, 147.1977
408.3201, 145.3571
408.8022, 143.5251
409.2844, 142.3923
409.7665, 142.0172
410.2486, 141.4769
410.7307, 140.5060
411.2128, 139.6565
411.6949, 139.2328
412.1771, 139.0075
412.6592, 138.5834
413.1413, 137.7356
413.6234, 136.6828
414.1055, 135.9337
414.5876, 135.6263
415.0698, 135.1896
415.5519, 134.2105
416.0340, 133.2454
416.5161, 132.7509
416.9982, 132.7546
417.4803, 132.8227
417.9625, 132.6322
418.4446, 132.1982
418.9267, 131.5607
419.4088, 130.5443
419.8909, 129.6572
420.3730, 129.2492
420.8552, 129.1956
421.3373, 129.2967
421.8194, 129.6289
422.3015, 129.9378
422.7836, 129.8636
423.2657, 129.4109
423.7479, 128.9444
424.2300, 128.5416
424.7121, 128.2688
425.1942, 128.2867
425.6763, 128.7000
426.1584, 128.8718
426.6406, 128.4141
427.1227, 127.5702
427.6048, 126.6351
428.0869, 125.6241
428.5690, 124.8839
429.0511, 124.7654
429.5333, 125.3028
430.0154, 125.9397
430.4975, 126.9255
430.9796, 127.7746
431.4617, 128.2684
431.9438, 128.4070
432.4260, 128.1640
432.9081, 127.4939
433.3902, 126.5648
433.8723, 125.7575
434.3544, 124.8913
434.8365, 124.4839
435.3187, 124.9774
435.8008, 125.6530
436.2829, 125.9602
436.7650, 125.8198
437.2471, 125.3847
437.7292, 124.7323
438.2114, 123.8429
438.6935, 123.4448
439.1756, 124.0352
439.6577, 124.5726
440.1398, 124.9276
440.6219, 125.0578
441.1040, 124.8484
441.5862, 124.2555
442.0683, 123.5339
442.5504, 123.1830
443.0325, 123.3522
443.5146, 123.4326
443.9967, 123.2514
444.4789, 123.0720
444.9610, 122.9167
445.4431, 122.8628
445.9252, 123.1427
446.4073, 124.2176
446.8894, 125.7160
447.3716, 126.0216
447.8537, 124.5543
448.3358, 123.3420
448.8179, 123.4715
449.3000, 124.2380
449.7821, 125.0141
450.2643, 125.7259
450.7464, 126.1800
451.2285, 126.0098
451.7106, 125.3681
452.1927, 125.0660
452.6748, 125.3681
453.1570, 125.8283
453.6391, 125.9789
454.1212, 125.8879
454.6033, 125.8502
455.0854, 125.9348
455.5675, 126.0998
456.0497, 126.3899
456.5318, 126.7622
457.0139, 126.9575
457.4960, 126.7866
457.9781, 126.4241
458.4602, 126.3255
458.9424, 126.3793
459.4245, 126.8512
459.9066, 128.2226
460.3887, 129.7918
460.8708, 130.8895
461.3529, 131.4004
461.8351, 131.4785
462.3172, 131.1907
462.7993, 130.5132
463.2814, 130.2749
463.7635, 130.5369
464.2456, 131.1305
464.7278, 132.6709
465.2099, 134.3051
465.6920, 134.7458
466.1741, 133.5226
466.6562, 131.5063
467.1383, 130.1089
467.6205, 129.4140
468.1026, 129.0544
468.5847, 129.5550
469.0668, 129.9076
469.5489, 129.4807
470.0310, 128.5035
470.5132, 127.6824
470.9953, 127.5406
471.4774, 127.7579
471.9595, 127.3937
472.4416, 126.1974
472.9237, 125.3582
473.4059, 125.5503
473.8880, 126.1563
474.3701, 126.8170
474.8522, 127.5138
475.3343, 127.6995
475.8164, 126.5088
476.2986, 124.5888
476.7807, 123.6858
477.2628, 124.1643
477.7449, 124.7418
478.2270, 124.3918
478.7091, 123.3271
479.1913, 122.5247
479.6734, 122.1610
480.1555, 121.9263
480.6376, 121.7904
481.1197, 121.6549
481.6018, 121.2224
482.0839, 120.3717
482.5660, 119.5036
483.0482, 119.2141
483.5303, 119.7489
484.0124, 119.9870
484.4945, 119.5837
484.9766, 119.2254
485.4587, 119.4480
485.9409, 120.0161
486.4230, 120.2751
486.9051, 119.8347
487.3872, 118.9905
487.8693, 118.6333
488.3514, 119.1828
488.8336, 119.4268
489.3157, 119.1851
489.7978, 118.7355
490.2799, 118.2223
490.7620, 117.6749
491.2441, 117.0763
491.7263, 116.3349
492.2084, 115.5374
492.6905, 115.1727
493.1726, 115.4750
493.6547, 115.6490
494.1368, 114.9949
494.6190, 114.2302
495.1011, 114.2847
495.5832, 115.4490
496.0653, 116.3919
496.5474, 115.7750
497.0295, 114.1234
497.5117, 113.0543
497.9938, 112.8681
498.4759, 112.9953
498.9580, 113.0386
499.4401, 113.0119
499.9222, 112.9994
500.4044, 113.1581
500.8865, 113.1753
501.3686, 112.5926
501.8507, 111.7887
502.3328, 111.6768
502.8149, 112.5928
503.2971, 113.7761
503.7792, 114.1063
504.2613, 113.2197
504.7434, 112.7855
505.2255, 113.1394
505.7076, 113.5632
506.1898, 113.7630
506.6719, 113.7646
507.1540, 113.6533
507.6361, 113.4670
508.1182, 113.2696
508.6003, 113.1952
509.0825, 113.2200
509.5646, 113.4345
510.0467, 114.2194
510.5288, 114.8769
511.0109, 114.9338
511.4930, 114.4949
511.9752, 114.0089
512.4573, 113.6180
512.9394, 113.4538
513.4215, 114.0204
513.9036, 115.5025
514.3857, 116.5452
514.8679, 116.4406
515.3500, 115.7542
515.8321, 115.1581
516.3142, 114.6450
516.7963, 114.4112
517.2784, 114.7713
517.7606, 115.3525
518.2427, 115.5904
518.7248, 115.4511
519.2069, 115.3413
519.6890, 115.5921
520.1711, 116.0701
520.6533, 116.0861
521.1354, 114.8092
521.6175, 114.2422
522.0996, 115.5830
522.5817, 117.2880
523.0638, 117.6397
523.5460, 116.4751
524.0281, 114.9377
524.5102, 114.0945
524.9923, 113.9310
525.4744, 113.9174
525.9565, 114.0776
526.4387, 114.3737
526.9208, 115.0320
527.4029, 115.6945
527.8850, 115.9089
528.3671, 115.5829
528.8492, 115.1701
529.3314, 115.1568
529.8135, 115.5032
530.2956, 115.8453
530.7777, 116.2239
531.2598, 116.4698
531.7419, 116.2207
532.2241, 115.8238
532.7062, 115.9063
533.1883, 116.8099
533.6704, 117.7434
534.1525, 118.2122
534.6346, 118.3053
535.1168, 118.1684
535.5989, 117.8120
536.0810, 117.4516
536.5631, 117.2721
537.0452, 117.2819
537.5273, 117.5559
538.0095, 118.1010
538.4916, 118.8752
538.9737, 120.0181
539.4558, 121.3317
539.9379, 122.7742
540.4200, 124.2606
540.9022, 125.1557
541.3843, 124.3275
541.8664, 121.2784
542.3485, 119.3234
542.8306, 119.1124
543.3127, 119.3778
543.7948, 120.0431
544.2769, 120.8410
544.7590, 121.4118
545.2411, 121.6197
545.7233, 121.6167
546.2054, 121.4519
546.6875, 121.1569
547.1696, 121.3275
547.6517, 122.3959
548.1339, 123.2915
548.6160, 122.7538
549.0981, 121.2812
549.5802, 120.2552
550.0623, 120.0935
550.5444, 120.2752
551.0266, 120.6446
551.5087, 121.0902
551.9908, 121.3246
552.4729, 121.2543
552.9550, 121.1012
553.4371, 121.1917
553.9193, 121.6530
554.4014, 121.5468
554.8835, 120.0456
555.3656, 118.9752
555.8477, 119.4456
556.3298, 120.6172
556.8120, 121.1371
557.2941, 120.5337
557.7762, 119.5779
558.2583, 119.4136
558.7404, 120.1575
559.2225, 120.7245
559.7047, 121.0856
560.1868, 121.2467
560.6689, 121.0400
561.1510, 120.7007
561.6331, 120.6349
562.1152, 121.0020
562.5974, 121.5638
563.0795, 122.1874
563.5616, 122.8345
564.0437, 123.3566
564.5258, 123.7158
565.0079, 123.9909
565.4901, 124.2158
565.9722, 124.4028
566.4543, 124.7144
566.9364, 125.2237
567.4185, 125.7734
567.9006, 126.2937
568.3828, 126.8220
568.8649, 127.4949
569.3470, 128.3123
569.8291, 129.0221
570.3112, 129.3154
570.7933, 129.1758
571.2755, 128.9281
571.7576, 128.4413
572.2397, 128.0081
572.7218, 127.6576
573.2039, 127.4127
573.6860, 127.3424
574.1682, 127.4564
574.6503, 127.5609
575.1324, 127.5843
575.6145, 127.4641
576.0966, 126.7414
576.5787, 125.1445
577.0609, 123.9328
577.5430, 124.2052
578.0251, 125.3114
578.5072, 125.6375
578.9893, 124.8288
579.4714, 123.9701
579.9536, 123.3470
580.4357, 122.9673
580.9178, 122.9390
581.3999, 123.2192
581.8820, 123.4943
582.3641, 123.5252
582.8463, 123.3483
583.3284, 123.1839
583.8105, 123.2692
584.2926, 123.0035
584.7747, 121.7549
585.2568, 120.5996
585.7390, 120.5347
586.2211, 121.4447
586.7032, 122.3835
587.1853, 122.7176
587.6674, 122.5699
588.1495, 122.2203
588.6317, 121.6415
589.1138, 120.9852
589.5959, 120.0036
590.0780, 119.2608
590.5601, 119.5896
591.0422, 120.9675
591.5244, 122.0145
592.0065, 122.1393
592.4886, 121.8871
592.9707, 121.6012
593.4528, 121.3472
593.9349, 121.2961
594.4171, 121.5425
594.8992, 121.8789
595.3813, 121.9136
595.8634, 121.4324
596.3455, 121.2914
596.8276, 121.7246
597.3098, 122.2007
597.7919, 122.6325
598.2740, 122.9195
598.7561, 122.7830
599.2382, 122.0791
599.7203, 121.4951
600.2025, 122.3491
600.6846, 124.5760
601.1667, 125.4793
601.6488, 124.2728
602.1309, 122.7614
602.6130, 122.0983
603.0952, 122.0231
603.5773, 122.0942
604.0594, 122.3210
604.5415, 122.5638
605.0236, 122.6553
605.5057, 122.7560
605.9879, 123.2024
606.4700, 124.0092
606.9521, 124.7924
607.4342, 125.2524
607.9163, 125.3975
608.3984, 125.2834
608.8806, 124.5593
609.3627, 124.0560
609.8448, 123.9651
610.3269, 124.0198
610.8090, 123.9669
611.2911, 123.8344
611.7733, 123.9019
612.2554, 124.5427
612.7375, 125.3522
613.2196, 125.2682
613.7017, 124.1956
614.1838, 123.2257
614.6660, 122.7024
615.1481, 122.3897
615.6302, 122.0110
616.1123, 121.5729
616.5944, 121.2112
617.0765, 121.1129
617.5587, 120.9501
618.0408, 120.2944
618.5229, 119.4312
619.0050, 119.0880
619.4871, 119.5066
619.9692, 120.0860
620.4514, 119.9495
620.9335, 118.9300
621.4156, 118.4746
621.8977, 119.4293
622.3798, 119.9442
622.8619, 119.1084
623.3441, 117.8081
623.8262, 117.1142
624.3083, 117.2728
624.7904, 117.6052
625.2725, 117.5476
625.7546, 117.2230
626.2367, 116.9285
626.7188, 116.6686
627.2009, 116.5650
627.6830, 116.7160
628.1652, 117.0350
628.6473, 117.4024
629.1294, 118.0000
629.6115, 118.0913
630.0936, 117.1170
630.5757, 115.9879
631.0579, 115.2307
631.5400, 114.8876
632.0221, 114.9489
632.5042, 115.4210
632.9863, 116.0609
633.4684, 116.4215
633.9506, 116.4697
634.4327, 116.3849
634.9148, 115.9376
635.3969, 115.6675
635.8790, 116.1408
636.3611, 116.8766
636.8433, 116.9510
637.3254, 115.9223
637.8075, 114.8920
638.2896, 114.7032
638.7717, 115.0584
639.2538, 115.4347
639.7360, 115.7530
640.2181, 116.0265
640.7002, 116.2574
641.1823, 116.4565
641.6644, 116.6708
642.1465, 117.1967
642.6287, 117.3068
643.1108, 116.6778
643.5929, 115.9052
644.0750, 115.1758
644.5571, 114.6516
645.0392, 114.6470
645.5214, 115.4097
646.0035, 116.5315
646.4856, 117.3728
646.9677, 117.9345
647.4498, 118.3482
647.9319, 118.7154
648.4141, 118.7607
648.8962, 117.8953
649.3783, 116.4698
649.8604, 115.8529
650.3425, 116.5676
650.8246, 117.5345
651.3068, 118.7071
651.7889, 119.7010
652.2710, 119.9210
652.7531, 119.3734
653.2352, 118.5705
653.7173, 117.8546
654.1995, 117.2999
654.6816, 117.2777
655.1637, 118.0769
655.6458, 118.7169
656.1279, 118.7773
656.6100, 118.8629
657.0922, 119.4252
657.5743, 120.3285
658.0564, 121.0702
658.5385, 121.4777
659.0206, 121.6252
659.5027, 121.4143
659.9849, 121.0022
660.4670, 120.9391
660.9491, 121.3663
661.4312, 121.6361
661.9133, 120.9977
662.3954, 119.5861
662.8776, 119.3332
663.3597, 121.8493
663.8418, 123.4159
664.3239, 122.9955
664.8060, 122.0114
665.2881, 121.4212
665.7703, 121.3784
666.2524, 121.8102
666.7345, 122.8728
667.2166, 124.0792
667.6987, 124.4418
668.1808, 123.9846
668.6630, 123.6362
669.1451, 123.6902
669.6272, 123.7111
670.1093, 123.0720
670.5914, 121.8925
671.0735, 121.5607
671.5557, 122.6657
672.0378, 123.9221
672.5199, 125.2606
673.0020, 126.3331
673.4841, 126.5836
673.9662, 126.0875
674.4484, 125.5763
674.9305, 125.6327
675.4126, 126.0686
675.8947, 126.2156
676.3768, 125.9636
676.8589, 125.9404
677.3411, 126.5918
677.8232, 127.1431
678.3053, 126.7519
678.7874, 125.7173
679.2695, 125.1435
679.7516, 125.5070
680.2338, 126.1063
680.7159, 126.7299
681.1980, 127.2457
681.6801, 127.2989
682.1622, 126.9082
682.6443, 126.6417
683.1265, 126.9549
683.6086, 127.7909
684.0907, 128.9645
684.5728, 130.9349
685.0549, 132.2276
685.5370, 131.9165
686.0192, 131.5087
686.5013, 131.8802
686.9834, 132.8715
687.4655, 133.8976
687.9476, 134.7309
688.4297, 135.5460
688.9119, 136.5619
689.3940, 137.6641
689.8761, 138.5309
690.3582, 139.1179
690.8403, 139.7077
691.3224, 140.5039
691.8046, 141.5025
692.2867, 142.7044
692.7688, 144.2636
693.2509, 145.7901
693.7330, 147.4252
694.2151, 148.8763
694.6973, 149.7693
695.1794, 150.3584
695.6615, 151.2343
696.1436, 152.6554
696.6257, 154.4280
697.1078, 156.6183
697.5900, 159.0009
698.0721, 160.7473
698.5542, 161.7011
699.0363, 162.3840
699.5184, 162.9481
700.0005, 163.6470
700.4827, 165.4098
700.9648, 169.6948
701.4469, 172.6292
701.9290, 173.4987
702.4111, 173.6315
702.8932, 173.4164
703.3754, 173.1543
703.8575, 173.3341
704.3396, 174.1865
704.8217, 175.1056
705.3038, 175.3246
705.7859, 174.9619
706.2681, 174.5454
706.7502, 174.1016
707.2323, 173.7574
707.7144, 173.7301
708.1965, 173.7221
708.6786, 172.9668
709.1607, 171.1165
709.6428, 169.5812
710.1249, 169.1088
710.6071, 168.3100
711.0892, 165.9549
711.5713, 162.8665
712.0534, 160.5385
712.5355, 159.4451
713.0176, 158.7571
713.4998, 157.6278
713.9819, 156.1031
714.4640, 154.3100
714.9461, 152.1891
715.4282, 150.2678
715.9103, 148.8449
716.3925, 147.6768
716.8746, 146.3982
717.3567, 145.0035
717.8388, 143.6005
718.3209, 142.0011
718.8030, 140.6158
719.2852, 139.6906
719.7673, 139.0744
720.2494, 138.6200
720.7315, 138.2555
721.2136, 137.8501
721.6957, 137.3102
722.1779, 136.6201
722.6600, 135.6835
723.1421, 134.4598
723.6242, 133.2632
724.1063, 132.0867
724.5884, 131.1280
725.0706, 130.7386
725.5527, 130.8603
726.0348, 130.7367
726.5169, 130.0538
726.9990, 129.4579
727.4811, 129.0298
727.9633, 128.8813
728.4454, 129.3142
728.9275, 130.2024
729.4096, 130.9781
729.8917, 131.2642
730.3738, 131.1752
730.8560, 130.8377
731.3381, 130.2381
731.8202, 129.9304
732.3023, 130.0488
732.7844, 130.3608
733.2665, 130.7183
733.7487, 131.1374
734.2308, 131.6574
734.7129, 132.2489
735.1950, 132.9878
735.6771, 134.2146
736.1592, 135.3246
736.6414, 135.4465
737.1235, 135.0905
737.6056, 135.7085
738.0877, 137.9890
738.5698, 140.6406
739.0519, 141.7681
739.5341, 141.5503
740.0162, 141.5831
740.4983, 141.9346
740.9804, 142.5733
741.4625, 143.4992
741.9446, 144.6890
742.4268, 146.2119
742.9089, 148.2122
743.3910, 149.7878
743.8731, 150.3384
744.3552, 151.0185
744.8373, 152.5044
745.3195, 154.4128
745.8016, 156.2354
746.2837, 157.8216
746.7658, 159.2486
747.2479, 160.5222
747.7300, 161.7087
748.2122, 163.0437
748.6943, 164.5353
749.1764, 165.7654
749.6585, 166.5392
750.1406, 167.2260
750.6227, 168.2804
751.1049, 169.6758
751.5870, 170.6493
752.0691, 170.8710
752.5512, 171.1516
753.0333, 172.0761
753.5154, 172.7704
753.9976, 172.1869
754.4797, 170.6830
754.9618, 169.6069
755.4439, 169.7514
755.9260, 170.2159
756.4081, 169.8039
756.8903, 168.6879
757.3724, 167.5185
757.8545, 166.3599
758.3366, 165.3942
758.8187, 164.7852
759.3008, 164.3765
759.7830, 163.7918
760.2651, 163.0805
760.7472, 162.0558
761.2293, 160.4214
761.7114, 158.8330
762.1935, 157.7464
762.6757, 156.7807
763.1578, 155.3119
763.6399, 153.2264
764.1220, 151.2005
764.6041, 149.6196
765.0862, 148.4483
765.5684, 147.7848
766.0505, 147.5194
766.5326, 147.2311
767.0147, 146.7971
767.4968, 146.0549
767.9789, 144.7884
768.4611, 143.0128
768.9432, 141.2963
769.4253, 139.2430
769.9074, 137.9305
770.3895, 138.0482
770.8716, 138.4605
771.3538, 138.6026
771.8359, 138.4102
772.3180, 137.7921
772.8001, 136.4282
773.2822, 135.2329
773.7643, 135.0642
774.2465, 135.3377
774.7286, 135.1501
775.2107, 134.4986
775.6928, 133.9048
776.1749, 133.6493
776.6570, 133.6876
777.1392, 134.0187
777.6213, 134.7288
778.1034, 135.1071
778.5855, 135.0514
779.0676, 134.8455
779.5497, 134.4138
780.0319, 134.0184
780.5140, 134.0719
780.9961, 134.6191
781.4782, 135.0171
781.9603, 134.9759
782.4424, 134.8861
782.9246, 134.8233
783.4067, 134.9233
783.8888, 135.5323
784.3709, 136.5970
784.8530, 137.4633
785.3351, 137.5244
785.8173, 137.1617
786.2994, 137.4796
786.7815, 138.4792
787.2636, 138.7339
787.7457, 137.7026
788.2278, 136.8315
788.7100, 137.2878
789.1921, 138.7618
789.6742, 140.0414
790.1563, 141.2255
790.6384, 142.0561
791.1205, 142.3480
791.6026, 142.4571
792.0847, 142.4060
792.5668, 142.3747
793.0490, 142.6236
793.5311, 143.2280
794.0132, 144.0385
794.4953, 145.2454
794.9774, 146.4277
795.4595, 146.6065
795.9417, 145.9629
796.4238, 145.6923
796.9059, 146.2066
797.3880, 146.8482
797.8701, 146.8538
798.3522, 146.2810
798.8344, 146.1156
799.3165, 146.6487
799.7986, 147.0223
800.2807, 147.1239
800.7628, 146.9991
801.2449, 146.6576
801.7271, 146.1039
802.2092, 145.3200
802.6913, 144.1938
803.1734, 143.1154
803.6555, 142.2980
804.1376, 141.6322
804.6198, 140.9915
805.1019, 140.3982
805.5840, 139.9786
806.0661, 139.7874
806.5482, 139.6248
807.0303, 139.1785
807.5125, 138.4951
807.9946, 138.0980
808.4767, 138.0891
808.9588, 137.7384
809.4409, 136.6062
809.9230, 135.3638
810.4052, 134.8499
810.8873, 135.0652
811.3694, 134.9224
811.8515, 134.0712
812.3336, 133.3437
812.8157, 132.7533
813.2979, 132.4711
813.7800, 132.8761
814.2621, 133.6966
814.7442, 134.2381
815.2263, 134.2038
815.7084, 133.8457
816.1906, 133.2395
816.6727, 132.5423
817.1548, 132.0558
817.6369, 131.8002
818.1190, 131.7622
818.6011, 131.9497
819.0833, 132.2153
819.5654, 132.3524
820.0475, 132.3581
820.5296, 132.3063
821.0117, 132.1851
821.4938, 132.0273
821.9760, 131.8091
822.4581, 131.5855
822.9402, 131.3544
823.4223, 131.1463
823.9044, 131.1055
824.3865, 131.3832
824.8687, 131.6459
825.3508, 131.6671
825.8329, 131.6901
826.3150, 132.1306
826.7971, 132.7764
827.2792, 132.9584
827.7614, 132.3757
828.2435, 131.5793
828.7256, 131.2048
829.2077, 131.1811
829.6898, 131.2788
830.1719, 131.4898
830.6541, 131.7132
831.1362, 131.9401
831.6183, 132.0316
832.1004, 131.7090
832.5825, 130.9881
833.0646, 131.0871
833.5468, 133.0470
834.0289, 134.1950
834.5110, 133.8384
834.9931, 132.9784
835.4752, 131.9240
835.9573, 130.9040
836.4395, 130.3828
836.9216, 130.5694
837.4037, 130.9537
837.8858, 131.3971
838.3679, 131.8058
838.8500, 132.0269
839.3322, 132.1368
839.8143, 132.3076
840.2964, 132.6069
840.7785, 133.0880
841.2606, 133.9820
841.7427, 135.0341
842.2249, 135.0289
842.7070, 133.9070
843.1891, 133.1538
843.6712, 133.1598
844.1533, 133.5240
844.6354, 133.9487
845.1176, 134.4372
845.5997, 135.0132
846.0818, 136.0274
846.5639, 136.5555
847.0460, 136.3167
847.5281, 135.9148
848.0103, 135.5025
848.4924, 135.1653
848.9745, 134.9436
849.4566, 134.8464
849.9387, 135.0995
850.4208, 136.1913
850.9030, 137.3498
851.3851, 137.8480
851.8672, 137.9037
852.3493, 137.8615
852.8314, 137.8472
853.3135, 138.0235
853.7957, 138.5329
854.2778, 139.2481
854.7599, 139.8598
855.2420, 140.3736
855.7241, 141.0946
856.2062, 142.1426
856.6884, 142.9612
857.1705, 143.2730
857.6526, 143.1244
858.1347, 142.4509
858.6168, 140.9018
859.0989, 140.4350
859.5811, 141.7555
860.0632, 143.2120
860.5453, 144.9620
861.0274, 146.2932
861.5095, 146.1420
861.9916, 144.9010
862.4738, 144.4379
862.9559, 145.7869
863.4380, 147.3157
863.9201, 148.0137
864.4022, 148.2807
864.8843, 148.5046
865.3665, 148.7512
865.8486, 148.9550
866.3307, 149.0990
866.8128, 149.4845
867.2949, 150.6562
867.7770, 152.3779
868.2592, 153.5768
868.7413, 154.2434
869.2234, 154.8493
869.7055, 155.4765
870.1876, 156.3276
870.6697, 157.7066
871.1519, 159.4321
871.6340, 160.4058
872.1161, 159.7280
872.5981, 160.0246
873.0803, 162.3189
873.5624, 164.6199
874.0445, 166.2240
874.5266, 167.2712
875.0087, 167.7971
875.4908, 167.7451
875.9730, 168.2632
876.4551, 170.3570
876.9372, 172.4640
877.4193, 173.6070
877.9014, 174.1847
878.3835, 174.7084
878.8657, 175.2689
879.3478, 175.7873
879.8299, 176.2426
880.3120, 176.5325
880.7941, 176.3658
881.2762, 175.9310
881.7584, 176.0255
882.2405, 176.6299
882.7226, 176.6248
883.2047, 175.4609
883.6868, 173.9034
884.1689, 173.0276
884.6511, 172.8014
885.1332, 172.2464
885.6153, 171.3231
886.0974, 170.1548
886.5795, 168.5972
887.0616, 167.0114
887.5438, 165.6508
888.0259, 164.4670
888.5080, 163.3117
888.9901, 162.2194
889.4722, 161.0623
889.9543, 159.8283
890.4365, 158.5105
890.9186, 156.9926
891.4007, 155.4500
891.8828, 154.1447
892.3649, 153.0893
892.8470, 152.0728
893.3292, 150.9458
893.8113, 149.8429
894.2934, 148.8716
894.7755, 148.0285
895.2576, 147.4370
895.7397, 147.0136
896.2219, 146.2724
896.7040, 144.9489
897.1861, 143.5968
897.6682, 143.2859
898.1503, 143.8029
898.6324, 143.2335
899.1146, 141.4827
899.5967, 140.0107
900.0788, 139.2398
900.5609, 138.9758
901.0430, 139.1437
901.5251, 139.6297
902.0073, 139.6991
902.4894, 139.0237
902.9715, 138.6060
903.4536, 138.6995
903.9357, 138.8186
904.4178, 138.8153
904.9000, 138.6769
905.3821, 138.3650
905.8642, 137.8716
906.3463, 137.3334
906.8284, 136.4281
907.3105, 135.9153
907.7927, 136.7180
908.2748, 137.6810
908.7569, 137.4557
909.2390, 136.2435
909.7211, 135.0952
910.2032, 134.4381
910.6854, 134.2078
911.1675, 134.4044
911.6496, 134.9549
912.1317, 136.0699
912.6138, 137.4392
913.0959, 137.9307
913.5781, 137.2586
914.0602, 136.4166
914.5423, 136.3480
915.0244, 136.0683
915.5065, 136.0697
915.9886, 136.4515
916.4708, 136.6061
916.9529, 137.5393
917.4350, 138.2050
917.9171, 137.9754
918.3992, 137.2478
918.8813, 136.6840
919.3635, 136.2740
919.8456, 136.0777
920.3277, 136.0299
920.8098, 136.3068
921.2919, 137.4707
921.7740, 138.5005
922.2562, 138.5142
922.7383, 137.8194
923.2204, 137.3201
923.7025, 137.0302
924.1846, 137.1704
924.6667, 138.5012
925.1489, 139.5309
925.6310, 138.9266
926.1131, 137.6897
926.5952, 137.2944
927.0773, 137.8753
927.5594, 138.4044
928.0416, 138.2321
928.5237, 137.9219
929.0058, 137.9063
929.4879, 138.1321
929.9700, 138.5474
930.4521, 139.1228
930.9343, 139.8110
931.4164, 140.5882
931.8985, 141.4194
932.3806, 142.4507
932.8627, 143.4255
933.3448, 143.2376
933.8270, 142.0259
934.3091, 141.3466
934.7912, 141.5472
935.2733, 142.1940
935.7554, 143.1182
936.2375, 143.9317
936.7197, 143.4722
937.2018, 141.2882
937.6839, 140.5085
938.1660, 141.6395
938.6481, 142.9055
939.1302, 143.8135
939.6124, 144.5211
940.0945, 145.0530
940.5766, 145.4703
941.0587, 146.3799
941.5408, 148.6269
942.0229, 150.0553
942.5051, 149.9989
942.9872, 149.7229
943.4693, 149.6940
943.9514, 149.8966
944.4335, 150.1939
944.9156, 150.5886
945.3978, 151.4577
945.8799, 153.5394
946.3620, 155.3876
946.8441, 156.0117
947.3262, 156.2172
947.8083, 156.7998
948.2905, 157.7072
948.7726, 158.4888
949.2547, 158.9769
949.7368, 159.6527
950.2189, 160.9918
950.7010, 162.7004
951.1832, 164.6544
951.6653, 166.6045
952.1474, 167.7865
952.6295, 168.2143
953.1116, 168.9189
953.5938, 170.6091
954.0759, 172.6341
954.5580, 173.8455
955.0400, 174.4136
955.5222, 175.1992
956.0043, 176.2403
956.4864, 177.5431
956.9685, 179.1262
957.4506, 180.8755
957.9327, 182.7137
958.4149, 184.5727
958.8970, 186.0757
959.3791, 187.1616
959.8612, 188.2437
960.3433, 189.4081
960.8254, 190.4043
961.3076, 191.0655
961.7897, 191.5485
962.2718, 192.0379
962.7539, 192.5314
963.2360, 193.1057
963.7181, 193.7888
964.2003, 194.5070
964.6824, 195.5015
965.1645, 196.2654
965.6466, 196.3942
966.1287, 196.1697
966.6108, 196.0756
967.0930, 196.1714
967.5751, 196.2148
968.0572, 195.9631
968.5393, 195.8917
969.0214, 196.4766
969.5035, 197.0894
969.9857, 197.1033
970.4678, 196.6518
970.9499, 196.1943
971.4320, 195.8667
971.9141, 195.6059
972.3962, 195.5514
972.8784, 195.3783
973.3605, 194.5548
973.8426, 193.5397
974.3247, 193.2659
974.8068, 193.6291
975.2889, 193.5044
975.7711, 192.1845
976.2532, 190.6661
976.7353, 190.2585
977.2174, 190.3178
977.6995, 189.5419
978.1816, 188.1330
978.6638, 187.0264
979.1459, 186.4626
979.6280, 186.1286
980.1101, 185.8473
980.5922, 185.3892
981.0743, 184.0467
981.5565, 182.0384
982.0386, 180.7877
982.5207, 180.3793
983.0028, 179.9759
983.4849, 179.2812
983.9670, 178.1821
984.4492, 176.4211
984.9313, 174.2807
985.4134, 173.2395
985.8955, 173.5085
986.3776, 173.2007
986.8597, 171.9166
987.3419, 170.8746
987.8240, 170.7639
988.3061, 171.0106
988.7882, 170.8132
989.2703, 170.1742
989.7524, 169.5019
990.2346, 168.8697
990.7167, 168.0076
991.1988, 166.4746
991.6809, 165.2811
992.1630, 165.1197
992.6451, 165.5940
993.1273, 166.0774
993.6094, 166.5985
994.0915, 166.9215
994.5736, 167.2301
995.0557, 167.0833
995.5378, 165.8581
996.0200, 164.6790
996.5021, 164.4204
996.9842, 164.7151
997.4663, 164.7198
997.9484, 164.2358
998.4305, 164.1300
998.9127, 165.1676
999.3948, 165.9380
999.8769, 165.7962
1000.359, 165.1426
1000.841, 163.9070
1001.323, 162.5658
1001.805, 162.3108
1002.287, 163.6438
1002.770, 164.8256
1003.252, 164.9735
1003.734, 164.6420
1004.216, 164.1642
1004.698, 163.4964
1005.180, 162.1851
1005.662, 160.5822
1006.144, 159.9487
1006.627, 160.9128
1007.109, 162.2811
1007.591, 163.3145
1008.073, 164.0125
1008.555, 164.4666
1009.037, 164.5466
1009.519, 163.6571
1010.001, 162.0136
1010.483, 160.9926
1010.966, 161.4538
1011.448, 162.3417
1011.930, 162.4275
1012.412, 162.0446
1012.894, 161.8891
1013.376, 161.8575
1013.858, 161.3811
1014.340, 160.4167
1014.823, 159.7549
1015.305, 160.0031
1015.787, 160.5469
1016.269, 160.3295
1016.751, 159.5443
1017.233, 158.7524
1017.715, 158.0513
1018.197, 158.0901
1018.679, 159.0308
1019.162, 159.8920
1019.644, 159.8281
1020.126, 159.3172
1020.608, 159.4919
1021.090, 160.2920
1021.572, 160.9795
1022.054, 161.5332
1022.536, 161.4943
1023.018, 160.6282
1023.501, 159.9339
1023.983, 160.3872
1024.465, 161.5411
1024.947, 161.9979
1025.429, 161.7111
1025.911, 161.1356
1026.393, 160.1452
1026.875, 159.6854
1027.358, 160.2354
1027.840, 160.9180
1028.322, 160.8650
1028.804, 160.2560
1029.286, 159.7775
1029.768, 159.3346
1030.250, 159.5126
1030.732, 160.7094
1031.214, 161.4185
1031.697, 160.8642
1032.179, 160.0584
1032.661, 160.0664
1033.143, 160.6926
1033.625, 160.9057
1034.107, 160.3604
1034.589, 160.3205
1035.071, 161.2674
1035.553, 161.8523
1036.036, 161.3985
1036.518, 160.6079
1037.000, 160.0544
1037.482, 159.7669
1037.964, 159.9417
1038.446, 161.0335
1038.928, 161.6882
1039.410, 161.7099
1039.893, 161.5532
1040.375, 161.0838
1040.857, 160.7270
1041.339, 161.2147
1041.821, 160.6957
1042.303, 160.2274
1042.785, 160.4240
1043.267, 159.3352
1043.750, 159.3533
1044.232, 159.9689
1044.714, 162.0178
1045.196, 163.8001
1045.678, 163.1033
1046.160, 160.5612
1046.642, 159.3552
1047.124, 160.5763
1047.606, 161.3293
1048.089, 160.9740
1048.571, 160.4111
1049.053, 159.6421
1049.535, 159.1161
1050.017, 159.4025
1050.499, 160.3223
1050.981, 161.1191
1051.463, 161.7542
1051.945, 162.0438
1052.428, 161.7362
1052.910, 161.3354
1053.392, 160.9841
1053.874, 160.7174
1054.356, 160.7128
1054.838, 160.8147
1055.320, 160.4330
1055.802, 159.1852
1056.285, 158.3764
1056.767, 158.8389
1057.249, 159.2655
1057.731, 158.8542
1058.213, 158.2296
1058.695, 158.0435
1059.177, 158.2174
1059.659, 158.3054
1060.141, 158.1434
1060.624, 158.1900
1061.106, 158.8607
1061.588, 159.4687
1062.070, 159.8491
1062.552, 159.8503
1063.034, 159.0526
1063.516, 157.8049
1063.998, 157.0047
1064.480, 156.8956
1064.963, 156.9825
1065.445, 157.2683
1065.927, 157.4567
1066.409, 157.2495
1066.891, 156.9890
1067.373, 157.2306
1067.855, 157.6460
1068.337, 157.2017
1068.820, 155.5748
1069.302, 154.6778
1069.784, 156.3103
1070.266, 157.6491
1070.748, 156.9119
1071.230, 155.4733
1071.712, 154.2545
1072.194, 153.4868
1072.677, 153.2932
1073.159, 153.7020
1073.641, 154.7505
1074.123, 157.7658
1074.605, 159.7514
1075.087, 158.2739
1075.569, 155.9435
1076.051, 155.0630
1076.533, 155.0394
1077.016, 154.2038
1077.498, 152.3713
1077.980, 151.4123
1078.462, 152.8871
1078.944, 154.2772
1079.426, 154.2295
1079.908, 153.7441
1080.390, 153.3812
1080.872, 153.2722
1081.354, 153.7381
1081.837, 154.6639
1082.319, 155.0120
1082.801, 154.0520
1083.283, 153.1155
1083.765, 152.8779
1084.247, 152.8328
1084.729, 152.5241
1085.211, 152.2278
1085.694, 152.4460
1086.176, 153.1091
1086.658, 153.5808
1087.140, 153.5296
1087.622, 153.6156
1088.104, 154.3901
1088.586, 155.0858
1089.068, 155.1118
1089.551, 154.8592
1090.033, 154.8198
1090.515, 154.9484
1090.997, 154.8883
1091.479, 154.5031
1091.961, 154.1137
1092.443, 153.7880
1092.925, 153.5536
1093.407, 153.6807
1093.890, 153.6992
1094.372, 152.7921
1094.854, 151.4771
1095.336, 151.1782
1095.818, 152.3092
1096.300, 153.2250
1096.782, 153.1398
1097.264, 153.0967
1097.746, 153.7482
1098.229, 154.3769
1098.711, 154.3015
1099.193, 153.8252
1099.675, 153.4774
1100.157, 153.3357
1100.639, 153.5694
1101.121, 154.5230
1101.603, 155.4218
1102.086, 156.1016
1102.568, 156.6189
1103.050, 157.0983
1103.532, 157.3824
1104.014, 157.0354
1104.496, 156.1468
1104.978, 155.8520
1105.460, 156.7587
1105.943, 157.5648
1106.425, 157.9581
1106.907, 158.3452
1107.389, 159.2045
1107.871, 159.9287
1108.353, 159.6891
1108.835, 158.7034
1109.317, 158.0522
1109.799, 157.8170
1110.281, 157.9143
1110.764, 158.6565
1111.246, 159.3091
1111.728, 159.7526
1112.210, 159.9494
1112.692, 159.7634
1113.174, 159.3267
1113.656, 158.8638
1114.138, 158.1656
1114.621, 158.4175
1115.103, 160.5640
1115.585, 162.1153
1116.067, 162.5849
1116.549, 162.4807
1117.031, 161.8285
1117.513, 160.9820
1117.995, 160.5118
1118.478, 160.4234
1118.960, 160.4106
1119.442, 160.6339
1119.924, 160.5205
1120.406, 159.7830
1120.888, 159.2119
1121.370, 159.2363
1121.852, 159.4294
1122.334, 159.2504
1122.817, 158.8231
1123.299, 158.8476
1123.781, 159.4333
1124.263, 160.0646
1124.745, 160.8292
1125.227, 161.2645
1125.709, 161.2044
1126.191, 160.8170
1126.673, 160.1532
1127.156, 159.4179
1127.638, 159.1400
1128.120, 159.3365
1128.602, 159.5354
1129.084, 159.7637
1129.566, 159.6633
1130.048, 159.1388
1130.530, 158.4785
1131.013, 157.8225
1131.495, 157.2725
1131.977, 157.0270
1132.459, 156.9945
1132.941, 156.6365
1133.423, 155.9970
1133.905, 155.7562
1134.387, 155.9738
1134.870, 156.2637
1135.352, 156.4734
1135.834, 156.4855
1136.316, 156.1451
1136.798, 155.6476
1137.280, 155.4935
1137.762, 155.0430
1138.244, 155.0939
1138.726, 154.2867
1139.208, 153.5817
1139.691, 153.1397
1140.173, 153.2307
1140.655, 154.0824
1141.137, 154.9873
1141.619, 155.0790
1142.101, 154.5999
1142.583, 153.7513
1143.065, 152.7565
1143.548, 151.9873
1144.030, 151.5499
1144.512, 151.6466
1144.994, 152.3264
1145.476, 152.9688
1145.958, 153.0309
1146.440, 152.8873
1146.922, 153.0301
1147.405, 153.1024
1147.887, 152.5153
1148.369, 151.5388
1148.851, 150.6429
1149.333, 150.0067
1149.815, 149.9331
1150.297, 150.7768
1150.779, 151.6280
1151.261, 151.9402
1151.744, 152.0775
1152.226, 152.4071
1152.708, 152.6394
1153.190, 152.2112
1153.672, 151.3807
1154.154, 151.0498
1154.636, 151.4956
1155.118, 151.8834
1155.600, 152.0480
1156.083, 152.0069
1156.565, 151.5698
1157.047, 151.1306
1157.529, 150.8609
1158.011, 150.8213
1158.493, 151.1988
1158.975, 151.9875
1159.457, 152.4889
1159.940, 153.0349
1160.422, 152.6492
1160.904, 149.9760
1161.386, 148.3317
1161.868, 149.5909
1162.350, 151.4417
1162.832, 151.7659
1163.314, 151.0506
1163.796, 150.8454
1164.279, 151.3240
1164.761, 151.2402
1165.243, 150.2376
1165.725, 150.0135
1166.207, 151.1324
1166.689, 152.2574
1167.171, 152.6415
1167.653, 152.5580
1168.135, 152.3679
1168.618, 152.0799
1169.100, 151.7488
1169.582, 151.3752
1170.064, 150.7541
1170.546, 149.8866
1171.028, 149.8231
1171.510, 150.9129
1171.992, 151.7407
1172.474, 151.1232
1172.957, 149.8083
1173.439, 148.8766
1173.921, 148.3653
1174.403, 148.4930
1174.885, 149.1199
1175.367, 149.9617
1175.849, 150.8398
1176.331, 151.2115
1176.814, 150.8573
1177.296, 150.2920
1177.778, 149.8360
1178.260, 149.5850
1178.742, 149.9094
1179.224, 150.3143
1179.706, 149.8965
1180.188, 149.1046
1180.671, 149.0178
1181.153, 149.7049
1181.635, 150.3369
1182.117, 150.6210
1182.599, 150.5686
1183.081, 149.9158
1183.563, 149.2480
1184.045, 148.8385
1184.527, 148.6721
1185.010, 148.8084
1185.492, 149.1353
1185.974, 149.4604
1186.456, 149.7671
1186.938, 149.8808
1187.420, 149.2945
1187.902, 149.2442
1188.384, 150.7753
1188.866, 151.8220
1189.349, 151.1407
1189.831, 149.8959
1190.313, 149.1861
1190.795, 148.9396
1191.277, 148.8705
1191.759, 148.9569
1192.241, 149.3723
1192.723, 150.3005
1193.206, 150.8781
1193.688, 150.8769
1194.170, 150.6701
1194.652, 150.4252
1195.134, 150.2676
1195.616, 150.3882
1196.098, 150.7339
1196.580, 151.1550
1197.063, 151.6194
1197.545, 151.8225
1198.027, 151.7464
1198.509, 151.3674
1198.991, 150.7176
1199.473, 150.2017
1199.955, 150.0892
1200.437, 150.3305
1200.919, 151.2243
1201.401, 152.1737
1201.884, 152.1003
1202.366, 151.3120
1202.848, 149.9964
1203.330, 148.6277
1203.812, 148.5147
1204.294, 149.9021
1204.776, 151.0666
1205.258, 150.7537
1205.741, 150.4398
1206.223, 151.3156
1206.705, 152.2833
1207.187, 152.5700
1207.669, 152.4007
1208.151, 151.8879
1208.633, 151.2432
1209.115, 151.0101
1209.598, 151.3591
1210.080, 151.6516
1210.562, 151.7385
1211.044, 151.8426
1211.526, 152.0801
1212.008, 152.2498
1212.490, 152.1877
1212.972, 152.1002
1213.454, 152.3462
1213.937, 152.7528
1214.419, 152.3250
1214.901, 152.3560
1215.383, 152.5496
1215.865, 151.7805
1216.347, 152.6272
1216.829, 152.3650
1217.311, 151.8316
1217.793, 151.4742
1218.276, 151.4223
1218.758, 152.0233
1219.240, 152.8318
1219.722, 152.1813
1220.204, 152.6813
1220.686, 152.9203
1221.168, 152.5094
1221.650, 153.3307
1222.133, 152.9886
1222.615, 152.7728
1223.097, 153.4582
1223.579, 153.9823
1224.061, 152.9425
1224.543, 151.7470
1225.025, 151.7636
1225.507, 152.4225
1225.990, 153.3640
1226.472, 154.2381
1226.954, 154.4639
1227.436, 154.0167
1227.918, 153.6327
1228.400, 153.4679
1228.882, 153.5023
1229.364, 153.9946
1229.846, 154.3434
1230.328, 154.1873
1230.811, 153.9283
1231.293, 153.8030
1231.775, 153.8301
1232.257, 154.0708
1232.739, 154.5235
1233.221, 154.9390
1233.703, 155.3186
1234.185, 155.6956
1234.668, 156.1196
1235.150, 156.2175
1235.632, 155.8318
1236.114, 155.3802
1236.596, 155.1781
1237.078, 155.1541
1237.560, 155.2680
1238.042, 155.4249
1238.525, 155.0818
1239.007, 154.5549
1239.489, 155.1710
1239.971, 156.6196
1240.453, 157.0656
1240.935, 156.1329
1241.417, 155.5506
1241.899, 156.5112
1242.381, 157.7006
1242.864, 158.5791
1243.346, 158.6998
1243.828, 156.7451
1244.310, 154.6000
1244.792, 154.7390
1245.274, 156.2876
1245.756, 156.8795
1246.238, 156.1756
1246.720, 155.9306
1247.203, 156.6713
1247.685, 157.4844
1248.167, 158.5193
1248.649, 159.2747
1249.131, 159.5466
1249.613, 159.5654
1250.095, 159.4436
1250.577, 159.2853
1251.059, 159.3780
1251.542, 159.6456
1252.024, 158.8983
1252.506, 157.1481
1252.988, 156.5774
1253.470, 157.3406
1253.952, 158.4688
1254.434, 159.6137
1254.916, 160.6070
1255.399, 161.3622
1255.881, 161.5560
1256.363, 160.1980
1256.845, 158.5314
1257.327, 158.4812
1257.809, 159.2784
1258.291, 159.9025
1258.773, 160.2739
1259.255, 160.6236
1259.738, 160.9394
1260.220, 160.7663
1260.702, 159.5661
1261.184, 158.9240
1261.666, 160.1070
1262.148, 160.9253
1262.630, 160.0202
1263.112, 158.9698
1263.594, 158.9218
1264.077, 159.4179
1264.559, 159.8144
1265.041, 160.1334
1265.523, 160.5955
1266.005, 161.2716
1266.487, 161.6707
1266.969, 161.7787
1267.451, 161.5208
1267.934, 160.8660
1268.416, 160.2009
1268.898, 159.7191
1269.380, 159.7180
1269.862, 160.7562
1270.344, 162.1428
1270.826, 162.5025
1271.308, 163.2097
1271.791, 163.6602
1272.273, 163.6257
1272.755, 163.8128
1273.237, 163.3667
1273.719, 162.6482
1274.201, 161.7382
1274.683, 161.2495
1275.165, 161.7978
1275.647, 162.3225
1276.130, 162.4026
1276.612, 162.3758
1277.094, 162.3307
1277.576, 162.3787
1278.058, 162.7467
1278.540, 163.2319
1279.022, 163.1449
1279.504, 162.3676
1279.986, 163.0159
1280.469, 165.4940
1280.951, 166.3294
1281.433, 165.0117
1281.915, 163.6832
1282.397, 163.1067
1282.879, 163.2953
1283.361, 164.3901
1283.843, 165.4078
1284.326, 165.1844
1284.808, 163.7012
##END=



