##NAMES=Kornerupine
##RRUFFID=R050214
##IDEAL CHEMISTRY=(Mg,Fe^2+^,Al,[box])_10_(Si,Al,B)_5_O_21_(OH,F)_2_
##LOCALITY=Sri Lanka
##OWNER=RRUFF
##SOURCE=Jibamitra Ganguly
##DESCRIPTION=Water-worn single crystal fragment
##STATUS=The identification of this mineral has been confirmed by X-ray diffraction and chemical analysis
##URL=rruff.info/R050214
##MEASURED CHEMISTRY=(Mg_3.63_[box]_0.21_Fe^2+^_0.14_Na_0.02_)_4_Al_6.00_(Si_2.44_Al_1.97_B_0.59_)_5_O_21_(OH) ;   B and Li not measured; B estimated by charge balance
92.35352, 503.3407
92.83563, 499.4575
93.31775, 498.5741
93.79987, 506.5124
94.28198, 512.5858
94.76410, 515.6784
95.24622, 516.8077
95.72833, 517.0043
96.21045, 517.1243
96.69257, 517.5618
97.17468, 516.4252
97.65680, 512.6635
98.13892, 508.2158
98.62103, 504.5701
99.10315, 501.7710
99.58527, 499.1033
100.0674, 496.2725
100.5495, 492.8651
101.0316, 489.9973
101.5137, 487.6252
101.9958, 485.7666
102.4780, 484.5666
102.9601, 484.2177
103.4422, 484.7851
103.9243, 484.4120
104.4064, 482.1900
104.8885, 480.0363
105.3707, 479.0236
105.8528, 479.0893
106.3349, 479.1821
106.8170, 477.9926
107.2991, 475.2472
107.7813, 473.3388
108.2634, 472.9836
108.7455, 473.3048
109.2276, 473.1019
109.7097, 471.9612
110.1918, 470.7442
110.6740, 470.4907
111.1561, 471.0789
111.6382, 471.8004
112.1203, 472.1786
112.6024, 472.2846
113.0845, 472.7662
113.5666, 474.3533
114.0488, 475.8498
114.5309, 476.3297
115.0130, 475.7113
115.4951, 474.7540
115.9772, 474.3223
116.4593, 474.4962
116.9415, 475.0123
117.4236, 475.9373
117.9057, 477.0652
118.3878, 478.4045
118.8699, 479.9335
119.3520, 481.4153
119.8342, 482.1846
120.3163, 481.2744
120.7984, 480.7191
121.2805, 480.8542
121.7626, 481.3848
122.2447, 481.9078
122.7269, 482.1842
123.2090, 482.2578
123.6911, 482.5122
124.1732, 483.3301
124.6553, 483.9057
125.1374, 483.6115
125.6196, 482.6720
126.1017, 482.0635
126.5838, 482.6081
127.0659, 484.1994
127.5480, 485.4388
128.0302, 486.5526
128.5123, 487.1565
128.9944, 486.5009
129.4765, 484.2790
129.9586, 482.2583
130.4407, 482.0538
130.9229, 483.0572
131.4050, 484.3018
131.8871, 485.6455
132.3692, 486.9713
132.8513, 487.8090
133.3334, 487.7386
133.8155, 487.7408
134.2977, 488.5252
134.7798, 489.8310
135.2619, 490.9621
135.7440, 491.2865
136.2261, 490.7125
136.7082, 490.2593
137.1904, 489.5893
137.6725, 489.3303
138.1546, 490.0403
138.6367, 491.5733
139.1188, 493.2069
139.6009, 493.9650
140.0831, 493.1904
140.5652, 493.1680
141.0473, 494.6596
141.5294, 496.2660
142.0115, 496.9655
142.4936, 496.5145
142.9758, 495.4120
143.4579, 494.4970
143.9400, 493.8531
144.4221, 493.2750
144.9042, 492.5509
145.3863, 491.9496
145.8685, 491.8390
146.3506, 492.3769
146.8327, 493.3958
147.3148, 494.6470
147.7969, 496.3233
148.2790, 497.7117
148.7612, 498.3063
149.2433, 498.3221
149.7254, 498.5099
150.2075, 499.2177
150.6896, 500.2447
151.1717, 501.1872
151.6539, 501.9926
152.1360, 502.8318
152.6181, 504.0456
153.1002, 505.7234
153.5823, 506.8662
154.0644, 506.2701
154.5466, 505.2843
155.0287, 505.0552
155.5108, 506.0052
155.9929, 507.4894
156.4750, 508.3946
156.9571, 508.4972
157.4393, 508.4742
157.9214, 508.2087
158.4035, 508.0396
158.8856, 508.4242
159.3677, 509.6420
159.8498, 511.3677
160.3320, 512.3775
160.8141, 511.8979
161.2962, 511.5699
161.7783, 511.6927
162.2604, 512.1195
162.7425, 512.6443
163.2247, 513.1504
163.7068, 513.6324
164.1889, 513.9893
164.6710, 514.6909
165.1531, 514.8042
165.6352, 513.4344
166.1174, 511.1747
166.5995, 509.4868
167.0816, 509.5282
167.5637, 511.2927
168.0458, 512.4730
168.5279, 512.4727
169.0101, 512.4921
169.4922, 513.3624
169.9743, 515.0155
170.4564, 516.5798
170.9385, 517.2443
171.4206, 517.0953
171.9028, 517.3972
172.3849, 518.7925
172.8670, 520.3388
173.3491, 520.9010
173.8312, 520.2717
174.3133, 519.7299
174.7955, 520.5602
175.2776, 522.3132
175.7597, 524.0878
176.2418, 525.6441
176.7239, 527.0336
177.2060, 528.3818
177.6882, 529.7756
178.1703, 530.9213
178.6524, 531.3843
179.1345, 531.4719
179.6166, 531.8176
180.0987, 532.6930
180.5809, 534.0967
181.0630, 536.1365
181.5451, 539.8426
182.0272, 542.8887
182.5093, 544.0051
182.9914, 543.7126
183.4736, 543.2174
183.9557, 543.4926
184.4378, 544.5741
184.9199, 545.3087
185.4020, 545.2131
185.8841, 545.1778
186.3663, 545.4512
186.8484, 546.0331
187.3305, 546.8210
187.8126, 547.7572
188.2947, 548.8939
188.7768, 549.8818
189.2590, 550.9037
189.7411, 551.6550
190.2232, 551.7840
190.7053, 551.4177
191.1874, 551.0853
191.6695, 551.3732
192.1517, 552.5114
192.6338, 553.3634
193.1159, 553.7661
193.5980, 554.0511
194.0801, 554.2849
194.5622, 554.5292
195.0444, 555.0251
195.5265, 556.0693
196.0086, 557.8398
196.4907, 559.5775
196.9728, 561.4807
197.4549, 563.2449
197.9371, 564.4217
198.4192, 564.9245
198.9013, 565.4328
199.3834, 566.8651
199.8655, 569.2413
200.3476, 571.3136
200.8298, 572.6193
201.3119, 573.6064
201.7940, 574.7600
202.2761, 576.0826
202.7582, 577.8596
203.2403, 580.9631
203.7225, 585.0467
204.2046, 588.2964
204.6867, 589.3207
205.1688, 589.1161
205.6509, 590.0250
206.1330, 592.5568
206.6152, 595.8278
207.0973, 599.4530
207.5794, 603.2842
208.0615, 606.6606
208.5436, 608.7331
209.0257, 609.8917
209.5079, 612.1544
209.9900, 616.5840
210.4721, 620.8703
210.9542, 623.4468
211.4363, 624.7564
211.9184, 626.1174
212.4006, 628.6117
212.8827, 632.1693
213.3648, 635.2927
213.8469, 637.6252
214.3290, 639.8311
214.8111, 642.2638
215.2933, 644.8191
215.7754, 647.1729
216.2575, 648.9244
216.7396, 650.0123
217.2217, 651.7132
217.7038, 655.3173
218.1859, 658.4001
218.6681, 659.6179
219.1502, 659.5679
219.6323, 660.0002
220.1144, 662.6802
220.5965, 667.9733
221.0786, 671.4581
221.5608, 671.3740
222.0429, 671.2887
222.5250, 672.7775
223.0071, 675.4925
223.4892, 678.0369
223.9713, 679.1492
224.4535, 678.6282
224.9356, 678.6080
225.4177, 679.4061
225.8998, 680.2989
226.3819, 681.2714
226.8640, 682.1306
227.3462, 682.3526
227.8283, 681.3475
228.3104, 678.9472
228.7925, 677.6808
229.2746, 678.0439
229.7567, 678.8528
230.2389, 679.8270
230.7210, 680.8091
231.2031, 681.3959
231.6852, 681.1790
232.1673, 680.1572
232.6494, 679.5334
233.1316, 679.1661
233.6137, 679.2711
234.0958, 680.0980
234.5779, 681.5828
235.0600, 683.3724
235.5421, 685.3810
236.0243, 687.4974
236.5064, 689.0430
236.9885, 689.4807
237.4706, 689.7892
237.9527, 690.6607
238.4348, 692.0646
238.9170, 693.4720
239.3991, 694.4589
239.8812, 695.2175
240.3633, 696.4011
240.8454, 698.5431
241.3275, 700.6729
241.8097, 701.6534
242.2918, 701.5460
242.7739, 702.1375
243.2560, 705.0029
243.7381, 709.0091
244.2202, 711.8935
244.7024, 713.0203
245.1845, 713.5739
245.6666, 714.4370
246.1487, 715.6042
246.6308, 717.2439
247.1129, 720.1071
247.5951, 723.1346
248.0772, 724.7991
248.5593, 724.3876
249.0414, 723.9047
249.5235, 725.6785
250.0056, 729.8981
250.4878, 733.8264
250.9699, 736.4661
251.4520, 738.3769
251.9341, 739.8487
252.4162, 740.8762
252.8983, 741.8698
253.3805, 743.1321
253.8626, 744.6285
254.3447, 746.7213
254.8268, 750.0034
255.3089, 753.6150
255.7910, 757.2505
256.2732, 760.8234
256.7553, 763.7956
257.2374, 765.5484
257.7195, 765.9918
258.2016, 765.7913
258.6837, 764.4908
259.1659, 762.9202
259.6480, 761.7468
260.1301, 760.9140
260.6122, 759.5320
261.0943, 756.1420
261.5764, 750.2318
262.0586, 745.8902
262.5407, 745.2432
263.0228, 744.7782
263.5049, 742.8481
263.9870, 739.5566
264.4691, 736.1237
264.9513, 733.6705
265.4334, 732.2811
265.9155, 731.1308
266.3976, 730.6877
266.8797, 730.0812
267.3618, 728.6959
267.8440, 726.8139
268.3261, 725.3219
268.8082, 725.2715
269.2903, 726.7819
269.7724, 726.5088
270.2545, 722.2260
270.7367, 718.1794
271.2188, 715.5773
271.7009, 714.1400
272.1830, 713.0568
272.6651, 711.7595
273.1472, 710.2646
273.6294, 708.8125
274.1115, 707.3631
274.5936, 706.0057
275.0757, 704.5813
275.5578, 703.2904
276.0399, 702.5013
276.5221, 702.4765
277.0042, 703.0692
277.4863, 703.4011
277.9684, 703.4267
278.4505, 703.1974
278.9326, 702.1008
279.4148, 700.9136
279.8969, 700.8305
280.3790, 702.4802
280.8611, 705.1864
281.3432, 706.7384
281.8253, 704.8511
282.3075, 704.5830
282.7896, 707.2452
283.2717, 711.2169
283.7538, 714.9716
284.2359, 717.8943
284.7180, 720.0401
285.2002, 721.4329
285.6823, 720.3674
286.1644, 720.9965
286.6465, 724.3820
287.1286, 728.7948
287.6107, 732.6002
288.0929, 735.4097
288.5750, 738.1309
289.0571, 742.2319
289.5392, 748.7020
290.0213, 754.3192
290.5034, 758.7650
290.9856, 762.6193
291.4677, 766.3269
291.9498, 769.9102
292.4319, 773.0583
292.9140, 775.3218
293.3961, 776.4499
293.8783, 777.6814
294.3604, 779.5167
294.8425, 781.0322
295.3246, 781.6680
295.8067, 781.4340
296.2888, 780.6169
296.7710, 779.3770
297.2531, 777.6877
297.7352, 776.3432
298.2173, 775.5655
298.6994, 774.8450
299.1815, 773.9186
299.6637, 772.8608
300.1458, 771.9625
300.6279, 771.4785
301.1100, 771.2922
301.5921, 770.3307
302.0742, 767.8743
302.5564, 765.6096
303.0385, 763.8056
303.5206, 762.5359
304.0027, 761.9631
304.4848, 762.2188
304.9669, 763.0535
305.4491, 763.7242
305.9312, 763.9260
306.4133, 764.3942
306.8954, 765.1957
307.3775, 766.3331
307.8596, 768.0933
308.3418, 770.5884
308.8239, 773.0078
309.3060, 773.7538
309.7881, 771.3130
310.2702, 770.4173
310.7523, 772.2161
311.2345, 775.0984
311.7166, 777.6357
312.1987, 779.5189
312.6808, 781.1974
313.1629, 783.1590
313.6451, 785.4247
314.1272, 787.9416
314.6093, 790.9282
315.0914, 793.9532
315.5735, 796.7419
316.0556, 799.2784
316.5378, 801.6954
317.0199, 804.1113
317.5020, 806.5151
317.9841, 808.9764
318.4662, 812.1526
318.9483, 814.7425
319.4305, 815.7145
319.9126, 815.5735
320.3947, 815.6962
320.8768, 816.9022
321.3589, 819.0322
321.8410, 821.2797
322.3232, 823.9388
322.8053, 826.3817
323.2874, 828.2527
323.7695, 829.8531
324.2516, 831.7183
324.7337, 834.0760
325.2159, 836.6224
325.6980, 838.6620
326.1801, 840.1895
326.6622, 841.1713
327.1443, 841.2054
327.6264, 840.8881
328.1086, 840.9073
328.5907, 841.4103
329.0728, 841.9283
329.5549, 841.8651
330.0370, 841.0588
330.5191, 840.0510
331.0013, 838.7175
331.4834, 837.2911
331.9655, 836.0096
332.4476, 834.8367
332.9297, 833.4393
333.4118, 831.4158
333.8940, 828.7039
334.3761, 826.9265
334.8582, 827.3156
335.3403, 827.1960
335.8224, 824.9898
336.3045, 821.4106
336.7867, 818.1755
337.2688, 816.3340
337.7509, 815.5985
338.2330, 814.6304
338.7151, 813.2869
339.1972, 811.9001
339.6793, 810.1057
340.1614, 808.4326
340.6436, 807.7159
341.1257, 808.2552
341.6078, 809.3759
342.0899, 809.7640
342.5720, 808.7063
343.0541, 808.1212
343.5363, 808.6619
344.0184, 809.2254
344.5005, 808.5955
344.9826, 806.7731
345.4647, 805.0748
345.9468, 805.0714
346.4290, 807.2908
346.9111, 808.6828
347.3932, 808.0158
347.8753, 807.8307
348.3574, 809.7473
348.8395, 813.2140
349.3217, 816.5961
349.8038, 818.7042
350.2859, 819.6332
350.7680, 820.3564
351.2501, 820.3713
351.7322, 820.7470
352.2144, 821.7606
352.6965, 823.2165
353.1786, 824.8442
353.6607, 826.5230
354.1428, 828.3078
354.6249, 830.3763
355.1071, 833.1221
355.5892, 835.4993
356.0713, 837.2533
356.5534, 838.8093
357.0355, 840.4293
357.5176, 842.1992
357.9998, 844.1339
358.4819, 846.2713
358.9640, 848.6689
359.4461, 851.0663
359.9282, 853.5338
360.4103, 855.9721
360.8925, 858.3611
361.3746, 860.6893
361.8567, 862.8747
362.3388, 864.8039
362.8209, 866.5479
363.3030, 868.7744
363.7852, 871.5379
364.2673, 874.7682
364.7494, 878.2310
365.2315, 882.1762
365.7136, 887.6431
366.1957, 895.2187
366.6779, 902.5178
367.1600, 903.7956
367.6421, 895.5974
368.1242, 890.0624
368.6063, 890.0591
369.0884, 892.3052
369.5706, 895.1458
370.0527, 898.1390
370.5348, 901.0721
371.0169, 903.8909
371.4990, 906.6230
371.9811, 908.5557
372.4633, 908.7219
372.9454, 909.0886
373.4275, 910.6306
373.9096, 913.0696
374.3917, 915.7048
374.8738, 918.2126
375.3560, 920.5677
375.8381, 922.4875
376.3202, 923.5193
376.8023, 925.2177
377.2844, 929.2761
377.7665, 933.8344
378.2487, 936.6463
378.7308, 936.8353
379.2129, 936.3245
379.6950, 937.6149
380.1771, 940.8058
380.6592, 943.3210
381.1414, 943.8865
381.6235, 944.1543
382.1056, 945.7122
382.5877, 948.5276
383.0698, 951.1687
383.5519, 952.6366
384.0341, 953.2643
384.5162, 953.9135
384.9983, 954.4058
385.4804, 955.5839
385.9625, 958.9991
386.4446, 963.5878
386.9268, 966.9720
387.4089, 967.3908
387.8910, 967.2252
388.3731, 969.2553
388.8552, 973.4011
389.3373, 977.5522
389.8195, 980.7697
390.3016, 983.3668
390.7837, 986.0289
391.2658, 988.7385
391.7479, 991.5427
392.2300, 994.9601
392.7122, 998.4309
393.1943, 1000.426
393.6764, 1000.302
394.1585, 999.8226
394.6406, 1001.381
395.1227, 1005.039
395.6049, 1007.818
396.0870, 1008.917
396.5691, 1009.264
397.0512, 1009.138
397.5333, 1008.765
398.0154, 1009.416
398.4976, 1012.389
398.9797, 1017.016
399.4618, 1019.189
399.9439, 1017.471
400.4260, 1015.429
400.9081, 1014.208
401.3903, 1013.329
401.8724, 1011.928
402.3545, 1009.685
402.8366, 1007.170
403.3187, 1005.413
403.8008, 1005.166
404.2830, 1003.979
404.7651, 1001.092
405.2472, 997.8959
405.7293, 995.2631
406.2114, 993.2844
406.6935, 991.6801
407.1757, 990.2550
407.6578, 989.0109
408.1399, 987.6653
408.6220, 985.8458
409.1041, 984.3491
409.5862, 983.3815
410.0684, 982.8194
410.5505, 982.4665
411.0326, 982.2431
411.5147, 982.2220
411.9968, 982.6350
412.4789, 983.9059
412.9611, 984.6418
413.4432, 984.7887
413.9253, 984.4493
414.4074, 983.3217
414.8895, 981.6356
415.3716, 980.2343
415.8538, 979.9494
416.3359, 980.7081
416.8180, 981.2568
417.3001, 981.3538
417.7822, 981.5941
418.2643, 982.1586
418.7465, 982.9817
419.2286, 983.9116
419.7107, 984.8372
420.1928, 986.0621
420.6749, 988.4028
421.1570, 992.1449
421.6392, 994.9146
422.1213, 995.4473
422.6034, 995.3246
423.0855, 995.5814
423.5676, 996.2888
424.0497, 997.4210
424.5319, 999.2616
425.0140, 1001.504
425.4961, 1003.355
425.9782, 1004.792
426.4603, 1005.735
426.9424, 1005.885
427.4246, 1005.493
427.9067, 1004.925
428.3888, 1003.384
428.8709, 1002.754
429.3530, 1005.285
429.8351, 1010.294
430.3173, 1014.645
430.7994, 1017.189
431.2815, 1018.560
431.7636, 1019.833
432.2457, 1021.200
432.7278, 1021.561
433.2100, 1019.507
433.6921, 1016.991
434.1742, 1016.274
434.6563, 1017.493
435.1384, 1019.120
435.6205, 1019.907
436.1027, 1019.943
436.5848, 1020.690
437.0669, 1023.277
437.5490, 1025.191
438.0311, 1024.817
438.5132, 1023.491
438.9954, 1023.355
439.4775, 1025.200
439.9596, 1028.119
440.4417, 1030.549
440.9238, 1032.278
441.4059, 1033.971
441.8881, 1034.907
442.3702, 1036.421
442.8523, 1039.935
443.3344, 1044.812
443.8165, 1049.138
444.2986, 1051.470
444.7808, 1052.032
445.2629, 1052.073
445.7450, 1050.447
446.2271, 1050.092
446.7092, 1052.433
447.1913, 1055.670
447.6735, 1058.205
448.1556, 1059.581
448.6377, 1060.187
449.1198, 1060.021
449.6019, 1058.967
450.0840, 1059.442
450.5662, 1063.059
451.0483, 1066.543
451.5304, 1067.849
452.0125, 1067.655
452.4946, 1067.645
452.9767, 1068.544
453.4589, 1070.059
453.9410, 1071.844
454.4231, 1073.922
454.9052, 1075.876
455.3873, 1077.163
455.8694, 1078.576
456.3516, 1081.449
456.8337, 1086.115
457.3158, 1090.088
457.7979, 1091.748
458.2800, 1092.063
458.7621, 1092.339
459.2443, 1092.701
459.7264, 1094.013
460.2085, 1097.302
460.6906, 1102.377
461.1727, 1106.733
461.6548, 1110.828
462.1370, 1113.692
462.6191, 1113.941
463.1012, 1112.760
463.5833, 1112.494
464.0654, 1114.029
464.5475, 1116.512
465.0297, 1118.536
465.5118, 1119.865
465.9939, 1121.271
466.4760, 1122.977
466.9581, 1124.560
467.4402, 1125.514
467.9224, 1126.092
468.4045, 1127.099
468.8866, 1129.184
469.3687, 1131.982
469.8508, 1133.748
470.3329, 1133.466
470.8151, 1133.811
471.2972, 1136.196
471.7793, 1138.616
472.2614, 1139.069
472.7435, 1137.389
473.2256, 1135.430
473.7078, 1135.099
474.1899, 1136.358
474.6720, 1137.591
475.1541, 1138.702
475.6362, 1139.931
476.1183, 1141.839
476.6005, 1143.818
477.0826, 1144.760
477.5647, 1143.964
478.0468, 1142.845
478.5289, 1143.052
479.0110, 1144.439
479.4932, 1145.674
479.9753, 1146.461
480.4574, 1146.878
480.9395, 1146.552
481.4216, 1145.594
481.9037, 1145.823
482.3859, 1148.990
482.8680, 1152.672
483.3501, 1154.633
483.8322, 1154.909
484.3143, 1154.313
484.7964, 1152.992
485.2786, 1151.496
485.7607, 1151.606
486.2428, 1154.606
486.7249, 1156.831
487.2070, 1156.920
487.6891, 1156.615
488.1713, 1157.692
488.6534, 1160.257
489.1355, 1163.184
489.6176, 1165.502
490.0997, 1167.221
490.5818, 1168.384
491.0640, 1167.822
491.5461, 1168.026
492.0282, 1170.122
492.5103, 1172.845
492.9924, 1174.568
493.4745, 1174.860
493.9567, 1174.963
494.4388, 1176.735
494.9209, 1180.403
495.4030, 1183.102
495.8851, 1184.261
496.3672, 1184.954
496.8494, 1185.302
497.3315, 1185.670
497.8136, 1186.825
498.2957, 1189.346
498.7778, 1192.289
499.2599, 1194.463
499.7421, 1195.910
500.2242, 1197.246
500.7063, 1198.473
501.1884, 1199.921
501.6705, 1202.195
502.1526, 1205.250
502.6348, 1207.916
503.1169, 1209.395
503.5990, 1210.713
504.0811, 1212.814
504.5632, 1215.685
505.0453, 1219.036
505.5274, 1222.855
506.0096, 1226.830
506.4917, 1229.998
506.9738, 1231.846
507.4559, 1233.717
507.9380, 1236.059
508.4201, 1238.220
508.9023, 1239.207
509.3844, 1239.291
509.8665, 1240.006
510.3486, 1242.719
510.8307, 1247.163
511.3128, 1250.875
511.7950, 1253.228
512.2771, 1255.775
512.7592, 1259.460
513.2413, 1263.071
513.7234, 1265.322
514.2056, 1266.036
514.6877, 1266.218
515.1698, 1266.393
515.6519, 1266.700
516.1340, 1268.732
516.6161, 1273.709
517.0983, 1277.958
517.5804, 1278.267
518.0625, 1276.851
518.5446, 1277.035
519.0267, 1280.087
519.5089, 1283.282
519.9910, 1284.735
520.4731, 1284.779
520.9552, 1283.969
521.4373, 1282.209
521.9194, 1280.889
522.4016, 1281.491
522.8837, 1284.135
523.3658, 1286.751
523.8479, 1289.961
524.3300, 1292.486
524.8121, 1292.934
525.2943, 1292.474
525.7764, 1293.258
526.2585, 1296.041
526.7406, 1299.794
527.2227, 1303.001
527.7048, 1305.772
528.1870, 1307.546
528.6691, 1307.140
529.1512, 1306.998
529.6333, 1308.059
530.1154, 1310.055
530.5975, 1312.496
531.0797, 1315.208
531.5618, 1317.895
532.0439, 1319.994
532.5260, 1321.418
533.0081, 1322.886
533.4902, 1324.182
533.9724, 1325.967
534.4545, 1328.814
534.9366, 1332.530
535.4187, 1336.384
535.9008, 1340.824
536.3829, 1344.719
536.8651, 1346.120
537.3472, 1345.480
537.8293, 1345.825
538.3114, 1348.473
538.7935, 1352.182
539.2756, 1354.955
539.7578, 1356.584
540.2399, 1358.522
540.7220, 1360.743
541.2041, 1363.448
541.6862, 1367.307
542.1683, 1371.798
542.6505, 1375.530
543.1326, 1377.748
543.6147, 1378.870
544.0968, 1379.836
544.5789, 1380.339
545.0610, 1381.342
545.5432, 1383.262
546.0253, 1385.284
546.5074, 1387.021
546.9895, 1388.469
547.4716, 1389.745
547.9537, 1390.893
548.4359, 1391.933
548.9180, 1392.717
549.4001, 1393.110
549.8822, 1394.246
550.3643, 1396.983
550.8464, 1400.048
551.3286, 1401.988
551.8107, 1402.904
552.2928, 1404.222
552.7749, 1406.771
553.2570, 1409.766
553.7391, 1412.250
554.2213, 1414.326
554.7034, 1416.848
555.1855, 1420.352
555.6676, 1424.201
556.1497, 1427.155
556.6318, 1428.982
557.1140, 1430.298
557.5961, 1430.403
558.0782, 1430.620
558.5603, 1431.416
559.0424, 1433.063
559.5245, 1436.246
560.0067, 1441.500
560.4888, 1447.651
560.9709, 1451.664
561.4530, 1452.791
561.9351, 1453.867
562.4172, 1455.238
562.8994, 1456.600
563.3815, 1457.539
563.8636, 1458.304
564.3457, 1459.670
564.8278, 1462.296
565.3099, 1465.433
565.7921, 1467.751
566.2742, 1469.309
566.7563, 1471.605
567.2384, 1475.404
567.7205, 1479.638
568.2026, 1482.762
568.6848, 1484.802
569.1669, 1487.253
569.6490, 1490.921
570.1311, 1494.530
570.6132, 1497.306
571.0953, 1499.337
571.5775, 1500.885
572.0596, 1502.037
572.5417, 1503.107
573.0238, 1504.682
573.5059, 1507.064
573.9880, 1509.027
574.4702, 1509.668
574.9523, 1510.842
575.4344, 1513.693
575.9165, 1517.519
576.3986, 1521.081
576.8807, 1523.869
577.3629, 1526.106
577.8450, 1527.970
578.3271, 1529.468
578.8092, 1531.055
579.2913, 1532.610
579.7734, 1534.588
580.2556, 1537.702
580.7377, 1541.505
581.2198, 1544.961
581.7019, 1547.818
582.1840, 1550.347
582.6661, 1552.557
583.1483, 1554.597
583.6304, 1556.871
584.1125, 1559.475
584.5946, 1561.887
585.0767, 1563.388
585.5588, 1563.890
586.0409, 1565.961
586.5230, 1571.527
587.0051, 1576.260
587.4872, 1578.690
587.9694, 1580.098
588.4515, 1581.883
588.9336, 1584.360
589.4157, 1586.930
589.8978, 1588.735
590.3799, 1589.963
590.8621, 1592.578
591.3442, 1597.192
591.8263, 1601.728
592.3084, 1605.629
592.7905, 1608.748
593.2726, 1610.508
593.7548, 1610.622
594.2369, 1611.266
594.7190, 1614.204
595.2011, 1617.981
595.6832, 1620.270
596.1653, 1621.090
596.6475, 1622.268
597.1296, 1624.800
597.6117, 1628.577
598.0938, 1633.365
598.5759, 1641.697
599.0580, 1646.883
599.5402, 1646.677
600.0223, 1645.265
600.5044, 1644.802
600.9865, 1645.521
601.4686, 1647.196
601.9507, 1649.783
602.4329, 1652.882
602.9150, 1655.560
603.3971, 1657.701
603.8792, 1660.182
604.3613, 1663.284
604.8434, 1666.596
605.3256, 1669.782
605.8077, 1672.906
606.2898, 1676.225
606.7719, 1680.211
607.2540, 1683.994
607.7361, 1686.929
608.2183, 1689.135
608.7004, 1690.609
609.1825, 1691.317
609.6646, 1692.268
610.1467, 1694.635
610.6288, 1698.498
611.1110, 1701.957
611.5931, 1705.223
612.0752, 1707.877
612.5573, 1709.309
613.0394, 1710.354
613.5215, 1711.858
614.0037, 1714.000
614.4858, 1716.458
614.9679, 1719.087
615.4500, 1721.806
615.9321, 1724.097
616.4142, 1725.855
616.8964, 1727.559
617.3785, 1729.276
617.8606, 1731.140
618.3427, 1733.276
618.8248, 1735.693
619.3069, 1738.413
619.7891, 1742.184
620.2712, 1745.743
620.7533, 1747.386
621.2354, 1747.557
621.7175, 1748.265
622.1996, 1750.462
622.6818, 1753.505
623.1639, 1756.153
623.6460, 1758.083
624.1281, 1760.573
624.6102, 1764.242
625.0923, 1767.767
625.5745, 1770.297
626.0566, 1772.419
626.5387, 1775.360
627.0208, 1779.613
627.5029, 1783.685
627.9850, 1785.289
628.4672, 1784.910
628.9493, 1786.083
629.4314, 1789.469
629.9135, 1793.147
630.3956, 1795.512
630.8777, 1797.464
631.3599, 1801.517
631.8420, 1809.086
632.3241, 1815.581
632.8062, 1819.040
633.2883, 1821.069
633.7704, 1823.243
634.2526, 1825.610
634.7347, 1827.086
635.2168, 1826.746
635.6989, 1825.996
636.1810, 1829.385
636.6631, 1839.353
637.1453, 1847.173
637.6274, 1850.789
638.1095, 1853.344
638.5916, 1856.135
639.0737, 1859.062
639.5558, 1861.631
640.0380, 1863.457
640.5201, 1865.320
641.0022, 1867.982
641.4843, 1871.356
641.9664, 1875.378
642.4485, 1880.158
642.9307, 1884.575
643.4128, 1887.492
643.8949, 1889.132
644.3770, 1891.544
644.8591, 1894.660
645.3412, 1898.509
645.8234, 1903.339
646.3055, 1908.724
646.7876, 1914.700
647.2697, 1920.916
647.7518, 1926.410
648.2339, 1930.429
648.7161, 1933.337
649.1982, 1936.046
649.6803, 1938.505
650.1624, 1941.011
650.6445, 1943.700
651.1266, 1946.364
651.6088, 1948.564
652.0909, 1950.524
652.5730, 1953.153
653.0551, 1957.232
653.5372, 1961.403
654.0193, 1964.575
654.5015, 1967.397
654.9836, 1971.156
655.4657, 1976.057
655.9478, 1981.195
656.4299, 1985.792
656.9120, 1989.829
657.3942, 1993.064
657.8763, 1995.208
658.3584, 1996.973
658.8405, 1997.491
659.3226, 1998.469
659.8047, 2001.508
660.2869, 2006.313
660.7690, 2011.116
661.2511, 2014.980
661.7332, 2018.332
662.2153, 2022.087
662.6974, 2025.981
663.1796, 2028.133
663.6617, 2027.581
664.1438, 2027.363
664.6259, 2031.283
665.1080, 2039.405
665.5901, 2043.910
666.0723, 2041.242
666.5544, 2039.886
667.0365, 2041.936
667.5186, 2046.207
668.0007, 2052.542
668.4828, 2060.143
668.9650, 2066.479
669.4471, 2069.368
669.9292, 2069.815
670.4113, 2070.151
670.8934, 2070.166
671.3755, 2072.114
671.8577, 2077.694
672.3398, 2083.929
672.8219, 2087.454
673.3040, 2088.792
673.7861, 2090.570
674.2682, 2093.354
674.7504, 2096.465
675.2325, 2099.350
675.7146, 2102.428
676.1967, 2106.723
676.6788, 2112.164
677.1609, 2116.842
677.6431, 2118.475
678.1252, 2118.241
678.6073, 2123.800
679.0894, 2139.100
679.5715, 2150.310
680.0536, 2150.010
680.5358, 2148.510
681.0179, 2154.249
681.5000, 2165.344
681.9821, 2172.725
682.4642, 2170.382
682.9464, 2166.446
683.4285, 2167.310
683.9106, 2171.660
684.3927, 2176.676
684.8748, 2181.701
685.3569, 2187.417
685.8391, 2194.708
686.3212, 2203.213
686.8033, 2209.743
687.2854, 2212.954
687.7675, 2216.252
688.2496, 2219.483
688.7318, 2223.304
689.2139, 2228.501
689.6960, 2234.711
690.1781, 2240.655
690.6602, 2245.455
691.1423, 2250.258
691.6245, 2256.930
692.1066, 2264.818
692.5887, 2271.086
693.0708, 2275.021
693.5529, 2279.407
694.0350, 2287.000
694.5172, 2297.003
694.9993, 2304.598
695.4814, 2307.261
695.9635, 2311.047
696.4456, 2316.683
696.9277, 2323.237
697.4099, 2330.874
697.8920, 2338.854
698.3741, 2345.474
698.8562, 2349.708
699.3383, 2352.981
699.8204, 2357.411
700.3026, 2362.792
700.7847, 2367.514
701.2668, 2371.175
701.7489, 2374.951
702.2310, 2379.899
702.7131, 2385.494
703.1953, 2389.798
703.6774, 2391.625
704.1595, 2394.598
704.6416, 2401.680
705.1237, 2407.913
705.6058, 2408.854
706.0880, 2406.065
706.5701, 2403.729
707.0522, 2403.822
707.5343, 2404.719
708.0164, 2403.702
708.4985, 2400.991
708.9807, 2400.142
709.4628, 2401.892
709.9449, 2403.780
710.4270, 2404.577
710.9091, 2404.578
711.3912, 2404.448
711.8734, 2404.258
712.3555, 2403.672
712.8376, 2402.497
713.3197, 2401.019
713.8018, 2398.398
714.2839, 2395.848
714.7661, 2396.204
715.2482, 2400.349
715.7303, 2405.173
716.2124, 2406.557
716.6945, 2404.778
717.1766, 2403.892
717.6588, 2403.846
718.1409, 2404.983
718.6230, 2408.374
719.1051, 2412.269
719.5872, 2413.963
720.0693, 2413.374
720.5515, 2413.823
721.0336, 2416.829
721.5157, 2420.186
721.9978, 2422.281
722.4799, 2423.942
722.9620, 2426.834
723.4442, 2431.213
723.9263, 2435.505
724.4084, 2438.036
724.8905, 2439.313
725.3726, 2442.322
725.8547, 2447.741
726.3369, 2451.880
726.8190, 2452.354
727.3011, 2452.900
727.7832, 2457.821
728.2653, 2466.093
728.7474, 2472.763
729.2296, 2475.770
729.7117, 2478.600
730.1938, 2482.628
730.6759, 2487.481
731.1580, 2493.085
731.6401, 2499.184
732.1223, 2504.807
732.6044, 2509.180
733.0865, 2513.063
733.5686, 2518.360
734.0507, 2525.208
734.5328, 2532.738
735.0150, 2541.921
735.4971, 2549.983
735.9792, 2553.514
736.4613, 2554.886
736.9434, 2559.155
737.4255, 2567.951
737.9077, 2576.293
738.3898, 2581.042
738.8719, 2585.781
739.3540, 2595.216
739.8361, 2607.438
740.3182, 2616.564
740.8004, 2620.035
741.2825, 2621.130
741.7646, 2624.326
742.2467, 2629.653
742.7288, 2636.100
743.2109, 2644.048
743.6931, 2652.113
744.1752, 2659.750
744.6573, 2667.220
745.1394, 2675.199
745.6215, 2683.830
746.1036, 2690.891
746.5858, 2694.508
747.0679, 2697.941
747.5500, 2702.366
748.0321, 2708.020
748.5142, 2715.816
748.9963, 2725.544
749.4785, 2734.918
749.9606, 2742.087
750.4427, 2747.261
750.9248, 2750.752
751.4069, 2752.325
751.8890, 2754.224
752.3712, 2756.997
752.8533, 2760.200
753.3354, 2764.031
753.8175, 2768.112
754.2996, 2770.312
754.7817, 2768.556
755.2639, 2767.847
755.7460, 2771.042
756.2281, 2774.489
756.7102, 2774.047
757.1923, 2770.990
757.6744, 2770.188
758.1566, 2774.266
758.6387, 2779.564
759.1208, 2780.152
759.6029, 2776.796
760.0850, 2775.981
760.5671, 2778.709
761.0493, 2780.436
761.5314, 2777.995
762.0135, 2773.991
762.4956, 2773.874
762.9777, 2779.404
763.4598, 2782.490
763.9420, 2780.900
764.4241, 2779.175
764.9062, 2779.304
765.3883, 2780.381
765.8704, 2781.073
766.3525, 2781.185
766.8347, 2781.594
767.3168, 2783.082
767.7989, 2785.246
768.2810, 2787.300
768.7631, 2789.310
769.2452, 2791.769
769.7274, 2794.865
770.2095, 2798.165
770.6916, 2801.288
771.1737, 2804.245
771.6558, 2807.044
772.1379, 2808.732
772.6201, 2811.703
773.1022, 2817.728
773.5843, 2823.448
774.0664, 2826.379
774.5485, 2827.485
775.0306, 2828.931
775.5128, 2831.283
775.9949, 2835.022
776.4770, 2841.731
776.9591, 2849.586
777.4412, 2855.160
777.9233, 2858.499
778.4055, 2861.510
778.8876, 2865.052
779.3697, 2869.010
779.8518, 2873.182
780.3339, 2877.470
780.8160, 2882.734
781.2982, 2889.905
781.7803, 2896.461
782.2624, 2900.726
782.7445, 2904.760
783.2266, 2911.242
783.7087, 2919.718
784.1909, 2925.774
784.6730, 2925.439
785.1551, 2924.890
785.6372, 2928.274
786.1193, 2933.920
786.6014, 2939.687
787.0836, 2945.080
787.5657, 2950.106
788.0478, 2954.711
788.5299, 2959.107
789.0120, 2963.793
789.4941, 2968.794
789.9763, 2973.775
790.4584, 2978.601
790.9405, 2983.686
791.4226, 2989.576
791.9047, 2995.697
792.3868, 3001.018
792.8690, 3005.723
793.3511, 3008.958
793.8332, 3007.901
794.3153, 3008.237
794.7974, 3014.225
795.2795, 3023.012
795.7617, 3030.727
796.2438, 3036.351
796.7259, 3040.610
797.2080, 3043.761
797.6901, 3046.178
798.1722, 3048.262
798.6544, 3050.148
799.1365, 3053.313
799.6186, 3058.293
800.1007, 3063.194
800.5828, 3066.231
801.0649, 3067.911
801.5471, 3070.798
802.0292, 3077.164
802.5113, 3080.783
802.9934, 3077.952
803.4755, 3076.240
803.9576, 3079.963
804.4398, 3087.064
804.9219, 3094.147
805.4040, 3100.440
805.8861, 3106.157
806.3682, 3111.526
806.8503, 3116.305
807.3325, 3120.127
807.8146, 3123.101
808.2967, 3124.949
808.7788, 3125.758
809.2609, 3127.924
809.7430, 3134.557
810.2252, 3144.501
810.7073, 3150.285
811.1894, 3150.864
811.6715, 3151.365
812.1536, 3152.456
812.6357, 3154.164
813.1179, 3156.676
813.6000, 3159.834
814.0821, 3163.218
814.5642, 3166.988
815.0463, 3170.620
815.5284, 3173.416
816.0106, 3176.550
816.4927, 3181.234
816.9748, 3186.823
817.4569, 3191.935
817.9390, 3196.134
818.4211, 3200.172
818.9033, 3204.824
819.3854, 3209.818
819.8675, 3214.594
820.3496, 3219.128
820.8317, 3223.443
821.3138, 3227.565
821.7960, 3231.027
822.2781, 3232.778
822.7602, 3233.427
823.2423, 3238.805
823.7244, 3253.963
824.2065, 3264.469
824.6887, 3264.835
825.1708, 3264.607
825.6529, 3269.107
826.1350, 3276.470
826.6171, 3282.621
827.0992, 3286.404
827.5814, 3290.842
828.0635, 3297.679
828.5456, 3305.635
829.0277, 3314.509
829.5098, 3323.376
829.9919, 3330.078
830.4741, 3334.136
830.9562, 3337.601
831.4383, 3342.815
831.9204, 3348.769
832.4025, 3351.250
832.8846, 3349.915
833.3668, 3350.926
833.8489, 3356.013
834.3310, 3362.191
834.8131, 3367.270
835.2952, 3371.519
835.7773, 3375.955
836.2595, 3379.885
836.7416, 3385.302
837.2237, 3394.575
837.7058, 3402.812
838.1879, 3406.748
838.6700, 3408.749
839.1522, 3412.330
839.6343, 3418.177
840.1164, 3424.312
840.5985, 3429.653
841.0806, 3434.654
841.5627, 3439.426
842.0449, 3444.327
842.5270, 3450.576
843.0091, 3458.157
843.4912, 3465.145
843.9733, 3469.935
844.4554, 3473.467
844.9376, 3478.131
845.4197, 3483.917
845.9018, 3490.728
846.3839, 3499.200
846.8660, 3506.754
847.3481, 3511.890
847.8303, 3515.252
848.3124, 3517.227
848.7945, 3516.735
849.2766, 3520.655
849.7587, 3534.263
850.2408, 3546.212
850.7230, 3552.007
851.2051, 3554.840
851.6872, 3556.774
852.1693, 3558.886
852.6514, 3563.411
853.1335, 3572.280
853.6157, 3582.082
854.0978, 3589.656
854.5799, 3595.883
855.0620, 3601.865
855.5441, 3607.975
856.0262, 3615.708
856.5084, 3625.796
856.9905, 3635.931
857.4726, 3641.827
857.9547, 3643.672
858.4368, 3649.593
858.9189, 3661.035
859.4011, 3670.560
859.8832, 3675.133
860.3653, 3678.287
860.8474, 3683.110
861.3295, 3689.540
861.8116, 3696.923
862.2938, 3704.678
862.7759, 3714.205
863.2580, 3727.437
863.7401, 3740.710
864.2222, 3752.678
864.7043, 3762.822
865.1865, 3770.004
865.6686, 3773.963
866.1507, 3777.954
866.6328, 3784.086
867.1149, 3791.479
867.5970, 3798.667
868.0792, 3806.302
868.5613, 3816.840
869.0434, 3830.325
869.5255, 3842.801
870.0076, 3850.979
870.4897, 3856.301
870.9719, 3862.220
871.4540, 3868.685
871.9361, 3876.635
872.4182, 3886.651
872.9003, 3896.141
873.3824, 3903.228
873.8646, 3909.659
874.3467, 3919.156
874.8288, 3933.115
875.3109, 3942.245
875.7930, 3941.549
876.2751, 3942.965
876.7573, 3950.688
877.2394, 3960.353
877.7215, 3969.528
878.2036, 3977.355
878.6857, 3982.220
879.1678, 3982.250
879.6500, 3982.664
880.1321, 3987.320
880.6142, 3993.551
881.0963, 3998.594
881.5784, 4002.577
882.0605, 4006.183
882.5427, 4009.789
883.0248, 4014.634
883.5069, 4023.283
883.9890, 4033.251
884.4711, 4035.819
884.9532, 4031.500
885.4354, 4029.605
885.9175, 4032.154
886.3996, 4036.165
886.8817, 4039.742
887.3638, 4042.705
887.8459, 4044.437
888.3281, 4044.379
888.8102, 4044.738
889.2923, 4046.276
889.7744, 4047.070
890.2565, 4043.601
890.7386, 4040.982
891.2208, 4046.110
891.7029, 4058.294
892.1850, 4066.987
892.6671, 4067.640
893.1492, 4067.598
893.6313, 4069.590
894.1135, 4072.049
894.5956, 4073.228
895.0777, 4073.728
895.5598, 4075.434
896.0419, 4079.079
896.5240, 4083.042
897.0062, 4085.405
897.4883, 4087.442
897.9704, 4092.086
898.4525, 4098.300
898.9346, 4101.753
899.4167, 4101.559
899.8989, 4102.030
900.3810, 4106.779
900.8631, 4114.563
901.3452, 4122.429
901.8273, 4130.475
902.3094, 4136.956
902.7916, 4141.425
903.2737, 4145.219
903.7558, 4148.693
904.2379, 4152.175
904.7200, 4156.107
905.2021, 4160.469
905.6843, 4165.544
906.1664, 4172.813
906.6485, 4178.837
907.1306, 4180.492
907.6127, 4183.172
908.0948, 4191.735
908.5770, 4204.110
909.0591, 4215.487
909.5412, 4225.316
910.0233, 4231.797
910.5054, 4231.305
910.9875, 4229.890
911.4697, 4231.086
911.9518, 4235.188
912.4339, 4243.650
912.9160, 4255.588
913.3981, 4265.618
913.8802, 4269.193
914.3624, 4270.900
914.8445, 4277.722
915.3265, 4287.840
915.8087, 4296.415
916.2908, 4302.969
916.7729, 4308.175
917.2550, 4312.251
917.7371, 4316.905
918.2192, 4324.877
918.7014, 4335.744
919.1835, 4344.617
919.6656, 4351.514
920.1477, 4355.790
920.6298, 4355.368
921.1119, 4356.992
921.5941, 4366.894
922.0762, 4382.073
922.5583, 4393.253
923.0404, 4398.594
923.5225, 4404.686
924.0046, 4411.731
924.4868, 4419.289
924.9689, 4429.230
925.4510, 4438.239
925.9331, 4442.187
926.4152, 4441.748
926.8973, 4441.815
927.3795, 4441.758
927.8616, 4445.794
928.3437, 4459.591
928.8258, 4474.887
929.3079, 4484.177
929.7900, 4489.276
930.2722, 4494.865
930.7543, 4502.321
931.2364, 4510.514
931.7185, 4519.850
932.2006, 4528.250
932.6827, 4531.179
933.1649, 4531.328
933.6470, 4535.593
934.1291, 4544.591
934.6112, 4554.578
935.0933, 4563.453
935.5754, 4571.861
936.0576, 4581.540
936.5397, 4592.072
937.0218, 4597.997
937.5039, 4598.885
937.9860, 4602.468
938.4681, 4611.045
938.9503, 4622.710
939.4324, 4636.546
939.9145, 4651.411
940.3966, 4662.388
940.8787, 4667.869
941.3608, 4673.675
941.8430, 4678.317
942.3251, 4685.815
942.8072, 4699.821
943.2893, 4716.071
943.7714, 4729.752
944.2535, 4740.914
944.7357, 4751.237
945.2178, 4760.091
945.6999, 4769.177
946.1820, 4778.871
946.6641, 4788.800
947.1462, 4798.633
947.6284, 4808.564
948.1105, 4819.089
948.5926, 4830.276
949.0747, 4841.017
949.5568, 4850.018
950.0389, 4859.214
950.5211, 4870.084
951.0032, 4882.010
951.4853, 4895.049
951.9674, 4908.356
952.4495, 4919.005
952.9316, 4925.408
953.4138, 4932.322
953.8959, 4946.055
954.3780, 4963.105
954.8601, 4977.734
955.3422, 4989.684
955.8243, 4997.358
956.3065, 5001.004
956.7886, 5007.089
957.2707, 5020.820
957.7528, 5038.931
958.2349, 5055.373
958.7170, 5070.084
959.1992, 5081.398
959.6813, 5088.884
960.1634, 5097.290
960.6455, 5108.799
961.1276, 5119.759
961.6097, 5125.532
962.0919, 5127.354
962.5740, 5133.714
963.0561, 5146.852
963.5382, 5157.704
964.0203, 5164.938
964.5024, 5171.019
964.9846, 5175.900
965.4667, 5181.176
965.9488, 5190.219
966.4309, 5203.529
966.9130, 5212.255
967.3951, 5211.894
967.8773, 5213.303
968.3594, 5220.743
968.8415, 5227.698
969.3236, 5228.458
969.8057, 5226.548
970.2878, 5228.783
970.7700, 5236.423
971.2521, 5244.471
971.7342, 5252.295
972.2163, 5258.970
972.6984, 5262.803
973.1805, 5266.136
973.6627, 5271.510
974.1448, 5278.597
974.6269, 5286.330
975.1090, 5294.616
975.5911, 5300.009
976.0732, 5296.999
976.5554, 5292.452
977.0375, 5294.352
977.5196, 5300.080
978.0017, 5304.474
978.4838, 5306.793
978.9659, 5309.118
979.4481, 5312.672
979.9302, 5316.564
980.4123, 5319.288
980.8944, 5321.629
981.3765, 5325.295
981.8586, 5330.365
982.3408, 5336.939
982.8229, 5344.955
983.3050, 5353.622
983.7871, 5362.578
984.2692, 5370.604
984.7513, 5373.191
985.2335, 5371.052
985.7156, 5375.860
986.1977, 5388.729
986.6798, 5399.182
987.1619, 5402.904
987.6440, 5405.687
988.1262, 5413.708
988.6083, 5425.794
989.0904, 5436.547
989.5725, 5445.953
990.0546, 5453.843
990.5367, 5460.377
991.0189, 5464.650
991.5010, 5464.857
991.9831, 5464.525
992.4652, 5467.753
992.9473, 5474.506
993.4294, 5484.856
993.9116, 5502.779
994.3937, 5517.001
994.8758, 5523.475
995.3579, 5529.982
995.8400, 5540.145
996.3221, 5552.542
996.8043, 5566.343
997.2864, 5581.634
997.7685, 5593.215
998.2506, 5596.579
998.7327, 5602.091
999.2148, 5614.675
999.6970, 5627.178
1000.179, 5633.577
1000.661, 5637.343
1001.143, 5644.789
1001.625, 5656.864
1002.108, 5669.245
1002.590, 5681.391
1003.072, 5692.318
1003.554, 5699.804
1004.036, 5707.197
1004.518, 5718.644
1005.000, 5732.203
1005.482, 5742.862
1005.964, 5749.242
1006.447, 5756.353
1006.929, 5768.219
1007.411, 5780.768
1007.893, 5791.218
1008.375, 5800.244
1008.857, 5809.326
1009.339, 5817.874
1009.821, 5823.126
1010.304, 5824.108
1010.786, 5825.946
1011.268, 5833.772
1011.750, 5844.334
1012.232, 5854.248
1012.714, 5863.459
1013.196, 5872.302
1013.678, 5880.482
1014.160, 5886.207
1014.643, 5888.618
1015.125, 5891.368
1015.607, 5900.033
1016.089, 5904.835
1016.571, 5911.995
1017.053, 5920.870
1017.535, 5927.442
1018.017, 5938.187
1018.500, 5947.082
1018.982, 5950.552
1019.464, 5953.638
1019.946, 5965.063
1020.428, 5982.286
1020.910, 5993.271
1021.392, 5998.691
1021.874, 6005.423
1022.356, 6014.834
1022.839, 6021.781
1023.321, 6022.729
1023.803, 6021.101
1024.285, 6022.601
1024.767, 6027.107
1025.249, 6032.776
1025.731, 6039.549
1026.213, 6050.002
1026.696, 6065.857
1027.178, 6076.931
1027.660, 6075.307
1028.142, 6067.598
1028.624, 6066.680
1029.106, 6072.705
1029.588, 6083.167
1030.070, 6100.212
1030.552, 6111.576
1031.035, 6113.279
1031.517, 6112.261
1031.999, 6112.353
1032.481, 6114.221
1032.963, 6119.748
1033.445, 6129.625
1033.927, 6137.244
1034.409, 6141.513
1034.891, 6146.385
1035.374, 6152.908
1035.856, 6159.797
1036.338, 6166.067
1036.820, 6172.242
1037.302, 6179.986
1037.784, 6183.090
1038.266, 6195.520
1038.748, 6190.318
1039.231, 6188.042
1039.713, 6192.670
1040.195, 6199.090
1040.677, 6204.714
1041.159, 6209.384
1041.641, 6212.400
1042.123, 6212.904
1042.605, 6215.829
1043.088, 6221.309
1043.570, 6229.013
1044.052, 6242.170
1044.534, 6254.231
1045.016, 6261.206
1045.498, 6264.265
1045.980, 6264.604
1046.462, 6261.096
1046.944, 6262.870
1047.427, 6273.772
1047.909, 6285.569
1048.391, 6299.396
1048.873, 6310.810
1049.355, 6314.162
1049.837, 6314.111
1050.319, 6320.054
1050.801, 6333.470
1051.283, 6344.104
1051.766, 6349.623
1052.248, 6353.226
1052.730, 6353.583
1053.212, 6354.469
1053.694, 6357.032
1054.176, 6362.460
1054.658, 6373.763
1055.140, 6391.353
1055.623, 6406.448
1056.105, 6414.646
1056.587, 6423.441
1057.069, 6437.999
1057.551, 6450.950
1058.033, 6455.120
1058.515, 6455.189
1058.997, 6458.510
1059.479, 6466.040
1059.962, 6475.340
1060.444, 6486.112
1060.926, 6497.900
1061.408, 6511.895
1061.890, 6525.353
1062.372, 6536.376
1062.854, 6545.518
1063.336, 6554.707
1063.818, 6563.642
1064.301, 6567.384
1064.783, 6558.549
1065.265, 6554.199
1065.747, 6563.847
1066.229, 6577.189
1066.711, 6588.621
1067.193, 6598.227
1067.675, 6606.993
1068.158, 6614.954
1068.640, 6620.928
1069.122, 6622.710
1069.604, 6626.485
1070.086, 6638.107
1070.568, 6649.160
1071.050, 6650.240
1071.532, 6649.407
1072.015, 6659.163
1072.497, 6677.962
1072.979, 6692.499
1073.461, 6697.110
1073.943, 6701.388
1074.425, 6709.461
1074.907, 6718.837
1075.389, 6728.139
1075.871, 6737.552
1076.354, 6747.989
1076.836, 6758.841
1077.318, 6768.049
1077.800, 6774.750
1078.282, 6781.106
1078.764, 6788.759
1079.246, 6795.669
1079.728, 6797.875
1080.210, 6800.877
1080.693, 6813.305
1081.175, 6831.267
1081.657, 6842.564
1082.139, 6843.564
1082.621, 6845.645
1083.103, 6854.834
1083.585, 6865.378
1084.067, 6874.425
1084.549, 6883.122
1085.032, 6892.687
1085.514, 6902.758
1085.996, 6912.108
1086.478, 6920.531
1086.960, 6929.953
1087.442, 6942.756
1087.924, 6954.674
1088.406, 6962.157
1088.889, 6969.290
1089.371, 6980.305
1089.853, 6992.973
1090.335, 7003.176
1090.817, 7010.393
1091.299, 7017.266
1091.781, 7023.374
1092.263, 7031.575
1092.745, 7044.149
1093.228, 7057.998
1093.710, 7073.002
1094.192, 7086.636
1094.674, 7095.006
1095.156, 7098.521
1095.638, 7101.319
1096.120, 7103.649
1096.602, 7107.773
1097.084, 7115.282
1097.567, 7123.931
1098.049, 7132.229
1098.531, 7141.193
1099.013, 7152.492
1099.495, 7165.521
1099.977, 7178.820
1100.459, 7193.350
1100.941, 7202.313
1101.424, 7196.538
1101.906, 7194.242
1102.388, 7205.706
1102.870, 7221.358
1103.352, 7235.080
1103.834, 7245.938
1104.316, 7251.902
1104.798, 7251.921
1105.281, 7256.712
1105.763, 7272.411
1106.245, 7287.533
1106.727, 7298.270
1107.209, 7308.118
1107.691, 7318.558
1108.173, 7329.965
1108.655, 7344.463
1109.137, 7361.817
1109.620, 7372.933
1110.102, 7368.596
1110.584, 7370.337
1111.066, 7387.284
1111.548, 7403.222
1112.030, 7408.630
1112.512, 7411.011
1112.994, 7419.351
1113.476, 7432.631
1113.959, 7443.372
1114.441, 7449.021
1114.923, 7457.053
1115.405, 7471.323
1115.887, 7482.956
1116.369, 7486.300
1116.851, 7489.551
1117.333, 7500.799
1117.816, 7516.284
1118.298, 7524.826
1118.780, 7538.541
1119.262, 7554.261
1119.744, 7560.504
1120.226, 7572.863
1120.708, 7587.682
1121.190, 7589.880
1121.672, 7592.919
1122.155, 7598.383
1122.637, 7609.283
1123.119, 7625.498
1123.601, 7642.190
1124.083, 7662.133
1124.565, 7673.049
1125.047, 7669.799
1125.529, 7668.415
1126.011, 7675.467
1126.494, 7687.572
1126.976, 7701.840
1127.458, 7717.559
1127.940, 7731.501
1128.422, 7743.525
1128.904, 7754.547
1129.386, 7764.388
1129.868, 7773.940
1130.351, 7783.413
1130.833, 7792.463
1131.315, 7800.692
1131.797, 7808.802
1132.279, 7818.222
1132.761, 7828.849
1133.243, 7839.517
1133.725, 7850.146
1134.208, 7867.627
1134.690, 7893.532
1135.172, 7912.439
1135.654, 7916.215
1136.136, 7913.821
1136.618, 7915.854
1137.100, 7920.866
1137.582, 7923.384
1138.064, 7924.549
1138.547, 7930.787
1139.029, 7942.307
1139.511, 7956.683
1139.993, 7972.867
1140.475, 7987.822
1140.957, 7998.919
1141.439, 8008.200
1141.921, 8018.709
1142.403, 8029.903
1142.886, 8040.212
1143.368, 8049.983
1143.850, 8059.503
1144.332, 8069.498
1144.814, 8083.729
1145.296, 8104.175
1145.778, 8123.690
1146.260, 8133.003
1146.743, 8139.441
1147.225, 8153.155
1147.707, 8170.145
1148.189, 8184.167
1148.671, 8195.638
1149.153, 8208.168
1149.635, 8222.487
1150.117, 8235.601
1150.599, 8245.072
1151.082, 8254.198
1151.564, 8265.712
1152.046, 8277.689
1152.528, 8288.706
1153.010, 8298.697
1153.492, 8307.659
1153.974, 8315.563
1154.456, 8321.301
1154.938, 8323.122
1155.421, 8330.530
1155.903, 8352.765
1156.385, 8374.824
1156.867, 8389.574
1157.349, 8400.971
1157.831, 8410.472
1158.313, 8420.199
1158.795, 8434.812
1159.278, 8454.856
1159.760, 8470.774
1160.242, 8479.709
1160.724, 8486.568
1161.206, 8487.968
1161.688, 8492.290
1162.170, 8505.388
1162.652, 8521.347
1163.135, 8532.942
1163.617, 8542.168
1164.099, 8558.199
1164.581, 8585.586
1165.063, 8603.013
1165.545, 8604.272
1166.027, 8610.056
1166.509, 8627.215
1166.991, 8644.290
1167.474, 8654.094
1167.956, 8659.897
1168.438, 8666.553
1168.920, 8674.208
1169.402, 8684.883
1169.884, 8698.953
1170.366, 8713.699
1170.848, 8729.229
1171.330, 8741.239
1171.813, 8747.628
1172.295, 8756.860
1172.777, 8777.389
1173.259, 8802.438
1173.741, 8817.291
1174.223, 8823.688
1174.705, 8829.504
1175.187, 8835.214
1175.670, 8841.760
1176.152, 8849.819
1176.634, 8863.951
1177.116, 8886.276
1177.598, 8906.552
1178.080, 8912.134
1178.562, 8912.759
1179.044, 8924.935
1179.526, 8931.122
1180.009, 8940.562
1180.491, 8953.465
1180.973, 8963.618
1181.455, 8981.917
1181.937, 8997.479
1182.419, 9004.080
1182.901, 9009.774
1183.383, 9019.940
1183.865, 9031.973
1184.348, 9043.705
1184.830, 9056.120
1185.312, 9071.357
1185.794, 9088.019
1186.276, 9101.846
1186.758, 9112.062
1187.240, 9125.225
1187.722, 9147.764
1188.205, 9166.786
1188.687, 9175.846
1189.169, 9184.043
1189.651, 9197.407
1190.133, 9211.440
1190.615, 9220.630
1191.097, 9226.013
1191.579, 9232.780
1192.062, 9240.744
1192.544, 9250.819
1193.026, 9264.030
1193.508, 9277.238
1193.990, 9289.940
1194.472, 9302.530
1194.954, 9315.282
1195.436, 9327.988
1195.918, 9340.376
1196.401, 9352.369
1196.883, 9362.219
1197.365, 9369.563
1197.847, 9387.290
1198.329, 9416.561
1198.811, 9432.078
1199.293, 9426.863
1199.775, 9420.525
1200.257, 9425.980
1200.740, 9439.697
1201.222, 9458.144
1201.704, 9479.809
1202.186, 9503.502
1202.668, 9526.670
1203.150, 9540.479
1203.632, 9546.627
1204.114, 9553.691
1204.597, 9564.525
1205.079, 9578.291
1205.561, 9595.978
1206.043, 9611.447
1206.525, 9616.747
1207.007, 9619.944
1207.489, 9629.129
1207.971, 9641.101
1208.453, 9651.589
1208.936, 9660.484
1209.418, 9668.525
1209.900, 9675.835
1210.382, 9685.928
1210.864, 9701.549
1211.346, 9717.753
1211.828, 9731.200
1212.310, 9747.345
1212.792, 9774.637
1213.275, 9801.744
1213.757, 9813.488
1214.239, 9814.579
1214.721, 9822.245
1215.203, 9838.514
1215.685, 9850.605
1216.167, 9854.780
1216.649, 9866.186
1217.132, 9890.507
1217.614, 9911.889
1218.096, 9922.091
1218.578, 9927.017
1219.060, 9933.075
1219.542, 9940.583
1220.024, 9951.480
1220.506, 9959.413
1220.989, 9974.679
1221.471, 9980.681
1221.953, 9990.349
1222.435, 10004.85
1222.917, 10020.16
1223.399, 10034.20
1223.881, 10048.00
1224.363, 10061.18
1224.845, 10076.51
1225.328, 10101.21
1225.810, 10128.03
1226.292, 10145.76
1226.774, 10157.02
1227.256, 10168.16
1227.738, 10180.48
1228.220, 10192.96
1228.702, 10205.39
1229.184, 10217.17
1229.667, 10225.66
1230.149, 10236.74
1230.631, 10255.28
1231.113, 10275.32
1231.595, 10293.74
1232.077, 10310.14
1232.559, 10324.38
1233.041, 10336.41
1233.524, 10345.69
1234.006, 10349.04
1234.488, 10358.37
1234.970, 10375.52
1235.452, 10394.68
1235.934, 10415.62
1236.416, 10435.53
1236.898, 10453.46
1237.380, 10466.76
1237.863, 10469.70
1238.345, 10466.53
1238.827, 10475.23
1239.309, 10494.26
1239.791, 10514.19
1240.273, 10533.92
1240.755, 10551.29
1241.237, 10565.85
1241.719, 10578.64
1242.202, 10590.12
1242.684, 10602.35
1243.166, 10618.92
1243.648, 10635.83
1244.130, 10647.21
1244.612, 10664.24
1245.094, 10673.86
1245.576, 10693.02
1246.059, 10708.35
1246.541, 10719.62
1247.023, 10731.41
1247.505, 10746.43
1247.987, 10756.86
1248.469, 10754.35
1248.951, 10755.78
1249.433, 10770.53
1249.916, 10786.48
1250.398, 10794.19
1250.880, 10800.63
1251.362, 10815.36
1251.844, 10836.49
1252.326, 10854.14
1252.808, 10868.21
1253.290, 10876.84
1253.772, 10878.06
1254.255, 10890.70
1254.737, 10919.36
1255.219, 10946.55
1255.701, 10963.17
1256.183, 10973.34
1256.665, 10979.56
1257.147, 10986.69
1257.629, 11008.76
1258.111, 11036.76
1258.594, 11048.94
1259.076, 11051.10
1259.558, 11059.07
1260.040, 11074.36
1260.522, 11090.30
1261.004, 11104.49
1261.486, 11120.67
1261.968, 11144.46
1262.451, 11165.88
1262.933, 11175.89
1263.415, 11186.56
1263.897, 11209.26
1264.379, 11234.08
1264.861, 11249.29
1265.343, 11257.15
1265.825, 11266.92
1266.307, 11278.98
1266.790, 11289.80
1267.272, 11297.86
1267.754, 11309.08
1268.236, 11324.06
1268.718, 11342.35
1269.200, 11363.95
1269.682, 11388.17
1270.164, 11415.36
1270.646, 11439.36
1271.129, 11444.26
1271.611, 11438.81
1272.093, 11454.30
1272.575, 11483.07
1273.057, 11502.80
1273.539, 11513.94
1274.021, 11527.07
1274.503, 11544.55
1274.986, 11560.78
1275.468, 11572.28
1275.950, 11585.05
1276.432, 11604.86
1276.914, 11624.82
1277.396, 11640.81
1277.878, 11654.93
1278.360, 11667.91
1278.843, 11680.81
1279.325, 11693.86
1279.807, 11707.83
1280.289, 11727.26
1280.771, 11754.72
1281.253, 11776.49
1281.735, 11791.80
1282.217, 11805.64
1282.699, 11818.25
1283.182, 11831.13
1283.664, 11844.88
1284.146, 11859.91
1284.628, 11875.98
1285.110, 11892.88
1285.592, 11911.17
1286.074, 11932.40
##END=



