##NAMES=Kottigite
##RRUFFID=R110035
##IDEAL CHEMISTRY=Zn^2+^_3_(As^5+^O_4_)_2_&#183;8H_2_O
##LOCALITY=Ojuela mine, Mapimi, Durango, Mexico
##OWNER=Marcus J. Origlieri
##SOURCE=The University of Arizona Mineral Museum
##DESCRIPTION=Spray of dark blue bladed crystals
##STATUS=The identification of this mineral has been confirmed only by single crystal X-ray diffraction.
##URL=rruff.info/R110035
162.4747, 193.3528
162.9568, 193.9047
163.4389, 194.8959
163.9210, 196.2870
164.4031, 197.1070
164.8853, 196.5664
165.3674, 195.5400
165.8495, 195.3628
166.3316, 196.3676
166.8137, 197.8438
167.2958, 199.3247
167.7780, 200.7729
168.2601, 201.9276
168.7422, 202.6541
169.2243, 202.9839
169.7064, 202.8961
170.1885, 201.7004
170.6707, 201.0293
171.1528, 202.4118
171.6349, 205.3745
172.1170, 207.9460
172.5991, 208.1700
173.0812, 205.8963
173.5634, 204.5045
174.0455, 204.8967
174.5276, 205.6846
175.0097, 206.5060
175.4918, 207.2513
175.9739, 207.8231
176.4561, 208.0557
176.9382, 207.7993
177.4203, 207.7155
177.9024, 207.6014
178.3845, 207.7844
178.8666, 208.7677
179.3488, 210.4355
179.8309, 212.0287
180.3130, 212.3996
180.7951, 210.5686
181.2772, 209.7355
181.7593, 210.0632
182.2415, 211.1240
182.7236, 212.9208
183.2057, 215.3541
183.6878, 217.8391
184.1699, 219.4935
184.6520, 219.9826
185.1342, 220.1311
185.6163, 219.2028
186.0984, 218.2519
186.5805, 218.5907
187.0626, 220.6583
187.5447, 223.4902
188.0269, 225.5448
188.5090, 226.8114
188.9911, 227.6379
189.4732, 227.5772
189.9553, 227.1962
190.4374, 227.4656
190.9196, 228.6883
191.4017, 230.6274
191.8838, 233.1952
192.3659, 236.4616
192.8480, 239.3293
193.3301, 241.0799
193.8123, 241.9653
194.2944, 242.9205
194.7765, 244.1622
195.2586, 245.5718
195.7407, 246.9244
196.2228, 248.2116
196.7050, 249.7303
197.1871, 251.7908
197.6692, 254.3694
198.1513, 256.9492
198.6334, 259.7113
199.1155, 262.1734
199.5977, 263.7736
200.0798, 264.5509
200.5619, 265.3988
201.0440, 267.3534
201.5261, 270.6470
202.0082, 273.5826
202.4904, 276.3167
202.9725, 278.3613
203.4546, 278.9458
203.9367, 278.1975
204.4188, 277.3880
204.9009, 278.2885
205.3831, 281.7036
205.8652, 284.3529
206.3473, 285.5378
206.8294, 286.4342
207.3115, 287.6362
207.7936, 289.2659
208.2758, 291.1398
208.7579, 293.0045
209.2400, 294.8529
209.7221, 296.6996
210.2042, 299.0920
210.6863, 301.1135
211.1685, 301.7155
211.6506, 300.8857
212.1327, 299.9199
212.6148, 300.8289
213.0969, 305.3508
213.5790, 308.0280
214.0612, 307.7340
214.5433, 306.4455
215.0254, 305.9261
215.5075, 306.5292
215.9896, 307.0300
216.4717, 305.5490
216.9539, 300.6399
217.4360, 297.1874
217.9181, 296.2942
218.4002, 296.3742
218.8823, 295.9689
219.3644, 294.7291
219.8466, 292.9882
220.3287, 291.1426
220.8108, 289.1879
221.2929, 287.1055
221.7750, 284.5067
222.2571, 281.9252
222.7393, 280.0361
223.2214, 279.0031
223.7035, 278.5323
224.1856, 278.5101
224.6677, 278.8996
225.1498, 279.1074
225.6320, 279.5980
226.1141, 279.6657
226.5962, 277.7462
227.0783, 273.0248
227.5604, 267.9551
228.0425, 265.2536
228.5247, 264.3993
229.0068, 263.3756
229.4889, 261.2553
229.9710, 258.4563
230.4531, 255.8379
230.9352, 253.4319
231.4174, 251.3592
231.8995, 250.0836
232.3816, 249.2646
232.8637, 247.9222
233.3458, 245.0509
233.8279, 241.2377
234.3101, 238.3485
234.7922, 236.6323
235.2743, 235.6223
235.7564, 235.5135
236.2385, 235.8178
236.7206, 235.4941
237.2028, 233.5793
237.6849, 230.5455
238.1670, 228.4473
238.6491, 227.8902
239.1312, 227.4195
239.6133, 226.3524
240.0955, 224.9527
240.5776, 223.6635
241.0597, 222.7796
241.5418, 222.2085
242.0239, 221.5672
242.5060, 221.1531
242.9882, 220.1907
243.4703, 218.2399
243.9524, 215.7019
244.4345, 213.0974
244.9166, 210.6838
245.3987, 208.4798
245.8809, 206.6257
246.3630, 205.1990
246.8451, 204.0830
247.3272, 203.5822
247.8093, 203.2653
248.2914, 202.6316
248.7736, 201.4166
249.2557, 199.6580
249.7378, 197.5009
250.2199, 194.2664
250.7020, 191.4697
251.1841, 189.3854
251.6663, 187.8171
252.1484, 186.6323
252.6305, 185.7678
253.1126, 185.0807
253.5947, 184.0834
254.0768, 182.0701
254.5590, 180.6290
255.0411, 180.2803
255.5232, 180.3793
256.0053, 180.2531
256.4874, 179.6169
256.9695, 178.5815
257.4517, 177.4143
257.9338, 175.4377
258.4159, 174.1831
258.8980, 174.1926
259.3801, 174.6948
259.8622, 174.8863
260.3444, 174.4896
260.8265, 173.7697
261.3086, 173.2236
261.7907, 173.0028
262.2728, 172.7215
262.7549, 172.3238
263.2371, 171.8857
263.7192, 171.4979
264.2013, 171.1815
264.6834, 170.8730
265.1655, 170.4912
265.6476, 170.0725
266.1298, 169.4471
266.6119, 168.4750
267.0940, 167.3681
267.5761, 166.1453
268.0582, 164.8381
268.5403, 163.9069
269.0225, 164.0134
269.5046, 165.5091
269.9867, 166.4759
270.4688, 166.2290
270.9509, 165.8369
271.4330, 166.4498
271.9152, 168.1438
272.3973, 169.7704
272.8794, 170.1821
273.3615, 169.2529
273.8436, 168.4790
274.3257, 167.7953
274.8079, 167.3320
275.2900, 167.2907
275.7721, 167.6526
276.2542, 168.1158
276.7363, 168.6212
277.2184, 169.0306
277.7006, 168.7234
278.1827, 166.3818
278.6648, 164.3721
279.1469, 164.8557
279.6290, 167.5386
280.1111, 169.9744
280.5933, 170.7219
281.0754, 170.0488
281.5575, 169.3188
282.0396, 168.3654
282.5217, 167.5568
283.0038, 167.1927
283.4860, 167.2048
283.9681, 167.2096
284.4502, 166.9710
284.9323, 166.6866
285.4144, 166.7440
285.8965, 167.2109
286.3787, 167.8253
286.8608, 168.6516
287.3429, 169.5564
287.8250, 170.0301
288.3071, 169.7960
288.7892, 169.1917
289.2714, 168.8426
289.7535, 168.8505
290.2356, 168.3929
290.7177, 166.4915
291.1998, 163.8107
291.6819, 162.1848
292.1641, 162.2565
292.6462, 163.0177
293.1283, 163.6176
293.6104, 164.0531
294.0925, 163.9008
294.5746, 162.5379
295.0568, 160.5480
295.5389, 159.1296
296.0210, 158.5296
296.5031, 158.1796
296.9852, 157.5700
297.4673, 156.8084
297.9495, 156.2049
298.4316, 156.2098
298.9137, 156.2982
299.3958, 155.5149
299.8779, 153.6478
300.3600, 151.8469
300.8422, 151.0596
301.3243, 150.8387
301.8064, 150.4616
302.2885, 149.7186
302.7706, 148.8008
303.2527, 147.8137
303.7349, 146.7287
304.2170, 145.9606
304.6991, 146.1568
305.1812, 146.5594
305.6633, 146.0137
306.1454, 144.0164
306.6276, 141.9702
307.1097, 141.2605
307.5918, 141.8076
308.0739, 142.2284
308.5560, 142.2063
309.0381, 141.7085
309.5203, 140.5393
310.0024, 138.5889
310.4845, 137.0195
310.9666, 137.0060
311.4487, 138.1850
311.9308, 138.6946
312.4130, 137.8480
312.8951, 136.7075
313.3772, 136.1300
313.8593, 136.0820
314.3414, 136.4722
314.8235, 137.6316
315.3057, 139.1808
315.7878, 140.1277
316.2699, 140.2789
316.7520, 140.0776
317.2341, 139.7675
317.7162, 139.3661
318.1984, 138.8830
318.6805, 138.0942
319.1626, 137.3324
319.6447, 137.1828
320.1268, 137.7335
320.6089, 138.4651
321.0911, 139.5935
321.5732, 140.5723
322.0553, 140.4211
322.5374, 138.3406
323.0195, 136.0719
323.5016, 135.8533
323.9838, 137.7062
324.4659, 138.6620
324.9480, 136.7607
325.4301, 133.9661
325.9122, 132.7343
326.3943, 133.3774
326.8765, 134.5551
327.3586, 135.3645
327.8407, 135.8896
328.3228, 136.6242
328.8049, 137.8541
329.2870, 139.0765
329.7692, 139.8943
330.2513, 140.3175
330.7334, 140.2653
331.2155, 139.3891
331.6976, 138.0347
332.1797, 136.9784
332.6619, 136.2967
333.1440, 135.9267
333.6261, 135.9988
334.1082, 136.3552
334.5903, 136.6388
335.0724, 136.4763
335.5546, 136.3152
336.0367, 137.0058
336.5188, 138.6706
337.0009, 139.8657
337.4830, 139.5431
337.9651, 138.2319
338.4473, 136.8832
338.9294, 135.3155
339.4115, 134.1727
339.8936, 134.1863
340.3757, 135.2194
340.8578, 136.3530
341.3400, 137.6546
341.8221, 138.4269
342.3042, 137.4666
342.7863, 134.4108
343.2684, 131.7260
343.7505, 130.7189
344.2327, 130.9676
344.7148, 131.6347
345.1969, 132.7491
345.6790, 133.6963
346.1611, 133.3037
346.6432, 131.8219
347.1254, 131.1455
347.6075, 132.8508
348.0896, 135.0981
348.5717, 135.2785
349.0538, 133.1049
349.5359, 130.8440
350.0181, 130.1693
350.5002, 130.8374
350.9823, 131.4355
351.4644, 132.0835
351.9465, 132.4741
352.4286, 132.1130
352.9108, 131.1995
353.3929, 130.7720
353.8750, 131.5545
354.3571, 132.9101
354.8392, 133.1548
355.3214, 131.6944
355.8035, 130.6218
356.2856, 131.1725
356.7677, 132.5266
357.2498, 133.1092
357.7319, 132.3939
358.2141, 131.2586
358.6962, 130.8553
359.1783, 131.2366
359.6604, 131.9892
360.1425, 133.4769
360.6246, 135.0692
361.1068, 136.2052
361.5889, 136.8346
362.0710, 137.1302
362.5531, 137.2104
363.0352, 137.0649
363.5173, 136.7949
363.9995, 135.8588
364.4816, 135.3363
364.9637, 136.0807
365.4458, 137.6746
365.9279, 139.0400
366.4100, 139.6071
366.8922, 139.5906
367.3743, 139.6720
367.8564, 140.2461
368.3385, 140.3594
368.8206, 139.2121
369.3027, 137.8275
369.7849, 137.6043
370.2670, 138.8839
370.7491, 140.6051
371.2312, 141.3017
371.7133, 140.6085
372.1954, 139.8680
372.6776, 138.8048
373.1597, 137.9262
373.6418, 137.6750
374.1239, 137.9461
374.6060, 138.2225
375.0881, 138.0660
375.5703, 137.4994
376.0524, 137.2952
376.5345, 137.8438
377.0166, 138.2992
377.4987, 138.5708
377.9808, 138.6067
378.4630, 138.2769
378.9451, 137.5184
379.4272, 136.5595
379.9093, 135.9344
380.3914, 135.7099
380.8735, 135.7508
381.3557, 136.2352
381.8378, 136.8190
382.3199, 137.4205
382.8020, 137.9336
383.2841, 138.0521
383.7662, 137.3209
384.2484, 135.5585
384.7305, 134.1991
385.2126, 133.5931
385.6947, 133.0655
386.1768, 132.1742
386.6589, 131.2166
387.1411, 130.8779
387.6232, 131.6962
388.1053, 133.2332
388.5874, 133.8377
389.0695, 132.8830
389.5516, 132.1641
390.0338, 132.5996
390.5159, 133.1527
390.9980, 132.6408
391.4801, 130.7551
391.9622, 128.6961
392.4443, 128.2542
392.9265, 129.7030
393.4086, 130.0778
393.8907, 127.7284
394.3728, 125.4310
394.8549, 124.9052
395.3370, 125.8817
395.8192, 127.0772
396.3013, 127.6604
396.7834, 127.8389
397.2655, 128.4354
397.7476, 129.8069
398.2297, 130.6590
398.7119, 129.7062
399.1940, 128.0121
399.6761, 126.9529
400.1582, 127.0153
400.6403, 127.4792
401.1224, 127.5969
401.6046, 127.3987
402.0867, 127.3901
402.5688, 127.7401
403.0509, 128.3372
403.5330, 129.1969
404.0151, 130.3415
404.4973, 131.0307
404.9794, 130.2093
405.4615, 128.9273
405.9436, 129.3439
406.4257, 131.9035
406.9078, 134.5191
407.3900, 135.3878
407.8721, 134.7917
408.3542, 134.4389
408.8363, 134.3569
409.3184, 134.6253
409.8005, 135.4731
410.2827, 136.7562
410.7648, 137.9966
411.2469, 139.0096
411.7290, 139.8095
412.2111, 140.3435
412.6932, 140.3711
413.1754, 140.7574
413.6575, 142.0141
414.1396, 143.5044
414.6217, 144.4543
415.1038, 144.7737
415.5859, 145.0987
416.0681, 146.0930
416.5502, 147.8409
417.0323, 149.3461
417.5144, 150.6313
417.9965, 151.6965
418.4786, 152.2943
418.9608, 152.6971
419.4429, 153.3555
419.9250, 154.4909
420.4071, 156.1137
420.8892, 158.3096
421.3713, 161.9509
421.8535, 164.8065
422.3356, 166.6536
422.8177, 167.8830
423.2998, 168.5313
423.7819, 168.7619
424.2640, 169.0753
424.7462, 170.0730
425.2283, 171.8355
425.7104, 173.1158
426.1925, 172.8103
426.6746, 173.2422
427.1567, 175.5568
427.6389, 178.9259
428.1210, 182.1568
428.6031, 184.7525
429.0852, 186.6491
429.5673, 187.4836
430.0494, 186.8547
430.5316, 186.6212
431.0137, 187.1291
431.4958, 188.2641
431.9779, 190.5204
432.4600, 193.7287
432.9421, 196.2790
433.4243, 196.4333
433.9064, 194.8022
434.3885, 194.0742
434.8706, 194.5774
435.3527, 195.5097
435.8348, 196.8560
436.3170, 198.2058
436.7991, 198.7258
437.2812, 197.6663
437.7633, 196.4799
438.2454, 196.6060
438.7275, 197.8888
439.2097, 199.3266
439.6918, 200.7446
440.1739, 201.9097
440.6560, 202.3308
441.1381, 201.9658
441.6202, 201.7199
442.1024, 201.8309
442.5845, 202.1968
443.0666, 202.8530
443.5487, 203.7591
444.0308, 204.4278
444.5129, 204.3713
444.9951, 203.7237
445.4772, 203.7634
445.9593, 205.0530
446.4414, 206.2657
446.9235, 207.0922
447.4056, 207.5642
447.8878, 207.6502
448.3699, 207.3508
448.8520, 206.9379
449.3341, 206.8453
449.8162, 207.2596
450.2983, 207.4661
450.7805, 207.9614
451.2626, 207.8374
451.7447, 206.0527
452.2268, 203.2084
452.7089, 200.9209
453.1910, 200.3740
453.6732, 201.0310
454.1553, 200.6105
454.6374, 198.4987
455.1195, 196.2979
455.6016, 194.2850
456.0837, 192.3014
456.5659, 190.1447
457.0480, 187.7950
457.5301, 185.5829
458.0122, 184.1331
458.4943, 183.4078
458.9764, 181.6030
459.4586, 177.8379
459.9407, 174.2278
460.4228, 171.9053
460.9049, 170.4702
461.3870, 169.2936
461.8691, 168.3610
462.3513, 167.2624
462.8334, 165.2262
463.3155, 162.3075
463.7976, 159.9554
464.2797, 158.7122
464.7618, 158.1377
465.2440, 157.8351
465.7261, 157.8252
466.2082, 157.4224
466.6903, 155.6085
467.1724, 153.6968
467.6545, 153.7361
468.1367, 155.7429
468.6188, 157.3700
469.1009, 156.8415
469.5830, 154.7092
470.0651, 153.7812
470.5472, 155.7030
471.0294, 156.5932
471.5115, 154.2125
471.9936, 150.7824
472.4757, 149.3044
472.9578, 150.4768
473.4399, 152.5939
473.9221, 153.6736
474.4042, 153.5959
474.8863, 153.1214
475.3684, 151.6947
475.8505, 150.5007
476.3326, 149.9790
476.8148, 149.9920
477.2969, 150.5123
477.7790, 151.5667
478.2611, 152.4481
478.7432, 151.3255
479.2253, 147.0789
479.7075, 144.0319
480.1896, 143.7506
480.6717, 143.8983
481.1538, 143.2721
481.6359, 141.9000
482.1180, 140.4310
482.6002, 139.3338
483.0823, 138.4524
483.5644, 137.3158
484.0465, 135.8860
484.5286, 134.3390
485.0107, 132.2750
485.4929, 130.4022
485.9750, 129.8318
486.4571, 130.9985
486.9392, 131.8117
487.4213, 130.3657
487.9034, 127.7430
488.3856, 126.5911
488.8677, 127.4793
489.3498, 128.5381
489.8319, 128.0664
490.3140, 126.1794
490.7961, 124.9333
491.2783, 124.8082
491.7604, 124.7978
492.2425, 124.2919
492.7246, 123.6040
493.2067, 123.5121
493.6888, 124.2911
494.1710, 125.1339
494.6531, 124.7038
495.1352, 122.3467
495.6173, 120.7775
496.0994, 120.3284
496.5815, 120.2205
497.0637, 120.3094
497.5458, 120.4285
498.0279, 120.2882
498.5100, 119.6970
498.9921, 118.8954
499.4742, 118.5908
499.9564, 119.2299
500.4385, 119.2170
500.9206, 117.6781
501.4027, 115.9357
501.8848, 114.6256
502.3669, 113.8416
502.8491, 113.5890
503.3312, 114.1646
503.8133, 115.2057
504.2954, 115.5664
504.7775, 115.0191
505.2596, 114.8972
505.7418, 116.3136
506.2239, 118.2353
506.7060, 119.1948
507.1881, 118.9924
507.6702, 118.3486
508.1523, 117.0840
508.6345, 115.7849
509.1166, 115.6697
509.5987, 116.9214
510.0808, 118.2240
510.5629, 118.4322
511.0450, 117.6717
511.5272, 117.4918
512.0093, 118.4609
512.4914, 119.2519
512.9735, 119.5057
513.4556, 119.3507
513.9377, 118.8726
514.4199, 118.1327
514.9020, 117.3119
515.3841, 116.5719
515.8662, 115.8180
516.3483, 115.7991
516.8304, 117.5706
517.3126, 118.9660
517.7947, 119.1104
518.2768, 118.5757
518.7589, 118.3009
519.2410, 118.6779
519.7231, 119.1039
520.2053, 118.4948
520.6874, 116.7371
521.1695, 115.6502
521.6516, 115.7235
522.1337, 116.2217
522.6158, 116.8954
523.0980, 117.5776
523.5801, 117.7356
524.0622, 116.5473
524.5443, 115.3816
525.0264, 115.9187
525.5085, 117.8941
525.9907, 119.7894
526.4728, 121.1810
526.9549, 122.0591
527.4370, 122.3075
527.9191, 121.8454
528.4012, 121.3457
528.8834, 120.7576
529.3655, 120.2518
529.8476, 119.8511
530.3297, 119.6264
530.8118, 119.8132
531.2939, 120.5667
531.7761, 121.6172
532.2582, 122.2576
532.7403, 122.1234
533.2224, 122.2432
533.7045, 122.5525
534.1866, 123.1485
534.6688, 124.3766
535.1509, 125.9734
535.6330, 127.2025
536.1151, 127.5133
536.5972, 127.2254
537.0793, 127.3369
537.5615, 128.1167
538.0436, 128.1584
538.5257, 126.1943
539.0078, 123.9961
539.4899, 123.1530
539.9720, 123.6668
540.4542, 124.4542
540.9363, 125.1786
541.4184, 125.7751
541.9005, 126.1667
542.3826, 126.3489
542.8647, 126.2311
543.3469, 125.5946
543.8290, 124.8018
544.3111, 124.8675
544.7932, 126.1618
545.2753, 127.2945
545.7574, 128.5173
546.2396, 129.1881
546.7217, 128.4680
547.2038, 126.5649
547.6859, 124.4710
548.1680, 122.8315
548.6501, 121.6413
549.1323, 120.8977
549.6144, 120.7886
550.0965, 120.8313
550.5786, 121.3373
551.0607, 121.6777
551.5428, 121.0112
552.0250, 119.5647
552.5071, 118.7104
552.9892, 119.9133
553.4713, 122.2899
553.9534, 123.1302
554.4355, 122.1350
554.9177, 121.1079
555.3998, 120.9191
555.8819, 120.9385
556.3640, 120.2648
556.8461, 118.7998
557.3282, 117.3567
557.8104, 115.9944
558.2925, 114.9616
558.7746, 114.7849
559.2567, 115.3647
559.7388, 115.8066
560.2209, 115.5361
560.7031, 114.8066
561.1852, 114.4320
561.6673, 115.2793
562.1494, 115.2248
562.6315, 113.1088
563.1136, 110.9685
563.5958, 110.5352
564.0779, 111.5486
564.5600, 112.5604
565.0421, 112.5706
565.5242, 111.7868
566.0063, 110.8150
566.4885, 109.5071
566.9706, 108.4572
567.4527, 107.8439
567.9348, 107.5279
568.4169, 107.6526
568.8990, 108.1052
569.3812, 108.2033
569.8633, 107.2668
570.3454, 105.9387
570.8275, 105.0513
571.3096, 104.6139
571.7917, 104.7337
572.2739, 105.7543
572.7560, 106.8770
573.2381, 106.4893
573.7202, 104.0847
574.2023, 102.2726
574.6844, 101.5147
575.1666, 101.2229
575.6487, 101.1179
576.1308, 101.1350
576.6129, 101.2574
577.0950, 101.4838
577.5771, 101.7261
578.0593, 101.8184
578.5414, 101.8253
579.0235, 101.5006
579.5056, 100.1509
579.9877, 99.10357
580.4698, 99.39468
580.9520, 100.4395
581.4341, 100.7407
581.9162, 99.27859
582.3983, 97.52688
582.8804, 97.80615
583.3625, 99.88259
583.8447, 101.2326
584.3268, 101.2087
584.8089, 100.4493
585.2910, 99.30839
585.7731, 97.86268
586.2552, 96.94875
586.7374, 97.06850
587.2195, 97.28791
587.7016, 96.89397
588.1837, 96.33176
588.6658, 96.55701
589.1479, 97.81184
589.6301, 99.22254
590.1122, 99.67252
590.5943, 99.03329
591.0764, 98.65645
591.5585, 99.06011
592.0406, 99.11010
592.5228, 98.16964
593.0049, 96.90820
593.4870, 96.07713
593.9691, 95.87040
594.4512, 96.06593
594.9333, 96.73122
595.4155, 97.66994
595.8976, 97.95031
596.3797, 97.41335
596.8618, 96.68967
597.3439, 96.00899
597.8260, 95.44961
598.3082, 95.20866
598.7903, 95.48940
599.2724, 95.57571
599.7545, 94.74316
600.2366, 93.90776
600.7188, 94.29998
601.2009, 95.81065
601.6830, 97.28213
602.1651, 97.96952
602.6472, 97.94841
603.1293, 97.42747
603.6115, 95.82661
604.0936, 94.80563
604.5757, 94.62088
605.0578, 94.85049
605.5399, 95.36062
606.0220, 96.06803
606.5042, 96.88232
606.9863, 97.89861
607.4684, 98.76697
607.9505, 98.67886
608.4326, 97.66902
608.9147, 97.24970
609.3969, 98.13878
609.8790, 99.14012
610.3611, 98.79801
610.8432, 97.23508
611.3253, 95.92072
611.8074, 94.69157
612.2896, 94.07575
612.7717, 95.00617
613.2538, 96.55334
613.7359, 97.00073
614.2180, 95.89529
614.7001, 94.36126
615.1823, 93.73046
615.6644, 94.05218
616.1465, 94.20861
616.6286, 93.49964
617.1107, 93.63431
617.5928, 96.00942
618.0750, 98.82729
618.5571, 100.2288
619.0392, 99.86973
619.5213, 98.75096
620.0034, 97.02512
620.4855, 95.22677
620.9677, 94.76328
621.4498, 95.73382
621.9319, 96.79353
622.4140, 97.43830
622.8961, 97.60494
623.3782, 96.93907
623.8604, 94.90386
624.3425, 93.82921
624.8246, 95.10775
625.3067, 96.42894
625.7888, 95.79583
626.2709, 93.93434
626.7531, 92.95583
627.2352, 93.92078
627.7173, 95.69946
628.1994, 96.11085
628.6815, 94.80739
629.1636, 94.09036
629.6458, 94.52003
630.1279, 94.98806
630.6100, 94.70347
631.0921, 94.13219
631.5742, 94.18495
632.0563, 95.30383
632.5385, 96.41470
633.0206, 96.64819
633.5027, 96.34988
633.9848, 96.22422
634.4669, 96.36987
634.9490, 96.40800
635.4312, 95.94751
635.9133, 95.22587
636.3954, 95.37732
636.8775, 97.78233
637.3596, 99.20166
637.8417, 99.05246
638.3239, 98.27672
638.8060, 97.02775
639.2881, 95.72637
639.7702, 95.39620
640.2523, 96.88400
640.7344, 99.06767
641.2166, 99.59686
641.6987, 98.38592
642.1808, 97.59165
642.6629, 97.94091
643.1450, 98.30193
643.6271, 97.31470
644.1093, 95.41396
644.5914, 94.24133
645.0735, 94.58260
645.5556, 95.05526
646.0377, 94.86600
646.5198, 94.47737
647.0020, 94.69864
647.4841, 95.59763
647.9662, 96.44061
648.4483, 96.58179
648.9304, 96.08521
649.4125, 95.32211
649.8947, 93.81570
650.3768, 92.96732
650.8589, 93.59708
651.3410, 94.47277
651.8231, 94.75957
652.3052, 94.47544
652.7874, 94.07912
653.2695, 93.52620
653.7516, 93.23527
654.2337, 94.18349
654.7158, 95.98177
655.1979, 96.69303
655.6801, 95.65826
656.1622, 94.01970
656.6443, 92.94444
657.1264, 92.45005
657.6085, 92.26901
658.0906, 92.67294
658.5728, 93.00448
659.0549, 93.18470
659.5370, 93.17249
660.0191, 92.74843
660.5012, 92.00453
660.9833, 91.55813
661.4655, 92.15079
661.9476, 93.29230
662.4297, 93.22529
662.9118, 91.73873
663.3939, 90.78043
663.8760, 91.32911
664.3582, 92.19804
664.8403, 91.70129
665.3224, 89.97838
665.8045, 89.01001
666.2866, 89.40126
666.7687, 90.31532
667.2509, 91.75476
667.7330, 93.25235
668.2151, 93.85967
668.6972, 93.43538
669.1793, 93.10389
669.6614, 94.29054
670.1436, 96.77020
670.6257, 97.09760
671.1078, 93.76851
671.5899, 91.40159
672.0720, 92.36133
672.5541, 94.01134
673.0363, 94.07337
673.5184, 92.60387
674.0005, 91.62380
674.4826, 92.74751
674.9647, 94.14130
675.4468, 93.90916
675.9290, 92.41682
676.4111, 90.54819
676.8932, 88.55750
677.3753, 87.19077
677.8574, 87.46204
678.3395, 89.45216
678.8217, 90.99087
679.3038, 92.17529
679.7859, 92.73802
680.2680, 92.10555
680.7501, 91.18999
681.2322, 90.83984
681.7144, 91.09994
682.1965, 91.40276
682.6786, 91.26942
683.1607, 91.03240
683.6428, 91.55357
684.1249, 92.66329
684.6071, 92.67863
685.0892, 90.83952
685.5713, 88.67857
686.0534, 87.96658
686.5355, 88.80537
687.0176, 89.42905
687.4998, 89.68015
687.9819, 89.93201
688.4640, 90.32919
688.9461, 90.73901
689.4282, 91.03008
689.9103, 91.18559
690.3925, 91.25642
690.8746, 91.22920
691.3567, 91.19385
691.8388, 91.32934
692.3209, 91.63185
692.8030, 92.36021
693.2852, 94.01958
693.7673, 95.29864
694.2494, 94.49120
694.7315, 91.75986
695.2136, 89.87817
695.6957, 89.08952
696.1779, 88.98222
696.6600, 90.26830
697.1421, 91.66000
697.6242, 91.29681
698.1063, 89.30577
698.5884, 87.76128
699.0706, 88.40876
699.5527, 90.34016
700.0348, 90.67719
700.5169, 89.00449
700.9990, 88.54170
701.4811, 90.70649
701.9633, 93.12780
702.4454, 93.60621
702.9275, 92.66318
703.4096, 91.97652
703.8917, 91.69753
704.3738, 91.80070
704.8560, 92.85732
705.3381, 93.95759
705.8202, 93.81210
706.3023, 92.47898
706.7844, 91.04491
707.2665, 90.21729
707.7487, 89.94214
708.2308, 90.22732
708.7129, 91.27581
709.1950, 91.90368
709.6771, 91.65585
710.1592, 91.38086
710.6414, 91.79684
711.1235, 92.55278
711.6056, 92.87983
712.0877, 92.52584
712.5698, 92.03416
713.0519, 91.34190
713.5341, 90.85486
714.0162, 91.16917
714.4983, 92.20435
714.9804, 93.54668
715.4625, 95.02876
715.9446, 96.21418
716.4268, 95.96452
716.9089, 93.77116
717.3910, 92.45522
717.8731, 92.63322
718.3552, 92.95493
718.8373, 92.46841
719.3195, 91.85032
719.8016, 92.33787
720.2837, 94.40533
720.7658, 95.80195
721.2479, 94.76499
721.7300, 93.00706
722.2122, 92.29074
722.6943, 92.54915
723.1764, 93.16936
723.6585, 93.89258
724.1406, 94.51978
724.6227, 94.72960
725.1049, 94.48877
725.5870, 94.13853
726.0691, 93.53207
726.5512, 93.05878
727.0333, 92.71732
727.5154, 92.64903
727.9976, 93.29229
728.4797, 94.63670
728.9618, 95.34020
729.4439, 93.71140
729.9260, 92.16737
730.4081, 93.61543
730.8903, 96.80507
731.3724, 98.58044
731.8545, 98.06185
732.3366, 96.69273
732.8187, 95.89390
733.3008, 95.65748
733.7830, 95.89523
734.2651, 96.80424
734.7472, 97.76598
735.2293, 98.95138
735.7114, 99.88596
736.1935, 100.1800
736.6757, 99.90443
737.1578, 99.40708
737.6399, 98.33812
738.1220, 97.67245
738.6041, 98.80824
739.0862, 100.4717
739.5684, 100.1036
740.0505, 97.69797
740.5326, 95.91296
741.0147, 96.76228
741.4968, 99.37510
741.9789, 101.2130
742.4611, 102.2818
742.9432, 102.4904
743.4253, 101.0985
743.9074, 99.75803
744.3895, 99.31571
744.8716, 99.58328
745.3538, 100.3586
745.8359, 101.8850
746.3180, 103.0133
746.8001, 102.6235
747.2822, 102.0161
747.7643, 102.7654
748.2465, 104.5444
748.7286, 106.0520
749.2107, 106.6921
749.6928, 106.7430
750.1749, 106.4633
750.6570, 105.8116
751.1392, 105.7716
751.6213, 106.6056
752.1034, 107.4473
752.5855, 107.8716
753.0676, 108.1908
753.5497, 108.7954
754.0319, 109.6974
754.5140, 110.5992
754.9961, 111.3329
755.4782, 112.1466
755.9603, 113.3914
756.4424, 114.7264
756.9246, 115.5371
757.4067, 115.7641
757.8888, 116.0301
758.3709, 117.0300
758.8530, 118.3098
759.3351, 117.8793
759.8173, 115.3493
760.2994, 114.5746
760.7815, 117.0200
761.2636, 120.2569
761.7457, 122.5458
762.2278, 123.9083
762.7100, 124.5742
763.1921, 123.4806
763.6742, 123.3426
764.1563, 125.7952
764.6384, 128.6157
765.1205, 130.0287
765.6027, 130.2069
766.0848, 129.9815
766.5669, 129.7015
767.0490, 129.7557
767.5311, 130.8014
768.0132, 132.6762
768.4954, 134.5583
768.9775, 136.4330
769.4596, 137.9720
769.9417, 138.8428
770.4238, 139.5540
770.9059, 141.0338
771.3881, 143.5112
771.8702, 145.8498
772.3523, 147.8337
772.8344, 149.9495
773.3165, 152.7455
773.7986, 155.5242
774.2808, 157.3196
774.7629, 158.1328
775.2450, 159.0706
775.7271, 160.9321
776.2092, 163.2700
776.6913, 165.3529
777.1735, 167.3091
777.6556, 169.7661
778.1377, 172.8983
778.6198, 176.0136
779.1019, 178.5109
779.5840, 180.4904
780.0662, 182.4245
780.5483, 184.2131
781.0304, 186.1499
781.5125, 188.0349
781.9946, 190.2791
782.4767, 193.1513
782.9589, 196.5248
783.4410, 200.2661
783.9231, 204.5075
784.4052, 208.3439
784.8873, 211.2043
785.3694, 213.3896
785.8516, 214.9522
786.3337, 216.1386
786.8158, 217.5570
787.2979, 219.4559
787.7800, 221.9231
788.2621, 225.3877
788.7443, 229.7524
789.2264, 232.2495
789.7085, 232.0158
790.1906, 232.3614
790.6727, 234.8647
791.1548, 237.7440
791.6370, 239.3714
792.1191, 239.8278
792.6012, 239.5199
793.0833, 237.9395
793.5654, 236.3103
794.0475, 234.9675
794.5297, 233.8904
795.0118, 233.1028
795.4939, 232.5556
795.9760, 232.1707
796.4581, 231.9362
796.9402, 231.6307
797.4224, 230.8586
797.9045, 229.6863
798.3866, 228.6830
798.8687, 227.9630
799.3508, 226.7710
799.8329, 224.5906
800.3151, 221.9073
800.7972, 219.5765
801.2793, 217.5015
801.7614, 216.1628
802.2435, 216.0636
802.7256, 216.0065
803.2078, 215.8077
803.6899, 215.3783
804.1720, 214.5130
804.6541, 213.2849
805.1362, 212.1867
805.6183, 211.5999
806.1005, 211.1314
806.5826, 210.3970
807.0647, 209.4690
807.5468, 208.4406
808.0289, 207.3544
808.5110, 206.4024
808.9932, 205.7125
809.4753, 205.2685
809.9574, 205.0365
810.4395, 205.0420
810.9216, 205.1617
811.4037, 205.5257
811.8859, 205.7780
812.3680, 205.8160
812.8501, 205.5944
813.3322, 205.0204
813.8143, 204.0664
814.2964, 202.9378
814.7786, 200.6987
815.2607, 199.3367
815.7428, 201.0779
816.2249, 203.9184
816.7070, 204.8114
817.1891, 203.3990
817.6713, 201.7054
818.1534, 201.2422
818.6355, 201.4932
819.1176, 201.5741
819.5997, 201.4814
820.0818, 201.0291
820.5640, 200.0934
821.0461, 199.6347
821.5282, 200.4092
822.0103, 202.0729
822.4924, 203.6467
822.9745, 205.6730
823.4567, 206.4070
823.9388, 204.4135
824.4209, 202.7858
824.9030, 203.1331
825.3851, 204.2009
825.8672, 203.9502
826.3494, 202.1547
826.8315, 201.6283
827.3136, 205.1574
827.7957, 209.0954
828.2778, 210.3461
828.7599, 209.7771
829.2421, 208.5254
829.7242, 207.1392
830.2063, 206.8921
830.6884, 208.9436
831.1705, 212.2705
831.6526, 214.4108
832.1348, 215.3326
832.6169, 215.6471
833.0990, 215.2168
833.5811, 214.8387
834.0632, 215.0147
834.5453, 215.5228
835.0275, 215.8955
835.5096, 216.1081
835.9917, 216.2340
836.4738, 216.2386
836.9559, 216.1961
837.4380, 215.9324
837.9202, 215.7594
838.4023, 216.3249
838.8844, 217.4936
839.3665, 217.9917
839.8486, 216.9738
840.3307, 215.1910
840.8129, 212.9955
841.2950, 210.7293
841.7771, 209.3235
842.2592, 208.7452
842.7413, 207.7581
843.2234, 205.5293
843.7056, 202.8662
844.1877, 201.6479
844.6698, 202.0755
845.1519, 201.4298
845.6340, 199.3048
846.1161, 197.0248
846.5983, 194.9048
847.0804, 193.1281
847.5625, 192.1545
848.0446, 192.0623
848.5267, 191.3460
849.0089, 189.2666
849.4910, 187.4324
849.9731, 186.0423
850.4552, 185.2734
850.9373, 185.6113
851.4194, 186.7084
851.9016, 187.5117
852.3837, 187.5221
852.8658, 187.2846
853.3479, 187.2959
853.8300, 187.4008
854.3121, 187.3301
854.7943, 187.0824
855.2764, 186.8181
855.7585, 186.6098
856.2406, 186.1502
856.7227, 184.7687
857.2048, 182.6534
857.6870, 182.5676
858.1691, 185.2677
858.6512, 186.9703
859.1333, 186.5047
859.6154, 185.1475
860.0975, 183.9393
860.5797, 182.7869
861.0618, 181.1761
861.5439, 178.9574
862.0260, 176.5519
862.5081, 173.2133
862.9902, 170.4865
863.4724, 170.0946
863.9545, 170.6286
864.4366, 169.5808
864.9187, 166.3722
865.4008, 163.1143
865.8829, 160.9925
866.3651, 159.7082
866.8472, 159.4263
867.3293, 159.5946
867.8114, 158.5713
868.2935, 156.2097
868.7756, 154.4673
869.2578, 155.0192
869.7399, 156.6081
870.2220, 155.8016
870.7041, 152.4449
871.1862, 150.0060
871.6683, 148.8508
872.1505, 148.4187
872.6326, 148.8081
873.1147, 149.3224
873.5968, 148.6445
874.0789, 146.3966
874.5610, 145.0083
875.0432, 145.3100
875.5253, 145.3477
876.0074, 144.9842
876.4895, 143.9452
876.9716, 141.3845
877.4537, 137.8919
877.9359, 135.5335
878.4180, 135.2986
878.9001, 135.5526
879.3822, 135.5654
879.8643, 135.3328
880.3464, 134.8600
880.8286, 134.1369
881.3107, 133.1456
881.7928, 131.8803
882.2749, 130.3056
882.7570, 128.2142
883.2391, 125.8669
883.7213, 123.9462
884.2034, 122.4750
884.6855, 122.3121
885.1676, 123.9368
885.6497, 124.7530
886.1318, 122.4385
886.6140, 118.0908
887.0961, 115.5027
887.5782, 115.4804
888.0603, 115.1443
888.5424, 114.3228
889.0245, 113.4037
889.5067, 112.3060
889.9888, 111.3324
890.4709, 111.0478
890.9530, 111.4533
891.4351, 111.2567
891.9172, 109.9734
892.3994, 108.3097
892.8815, 105.7220
893.3636, 103.5149
893.8457, 103.6295
894.3278, 105.2580
894.8099, 105.7253
895.2921, 103.8025
895.7742, 101.2719
896.2563, 99.72901
896.7384, 98.74849
897.2205, 97.40026
897.7026, 95.92434
898.1848, 95.72458
898.6669, 97.15813
899.1490, 98.43713
899.6311, 97.75901
900.1132, 95.61903
900.5953, 93.74937
901.0775, 92.11811
901.5596, 91.29002
902.0417, 91.66018
902.5238, 91.76688
903.0059, 90.54532
903.4880, 88.70708
903.9702, 87.72025
904.4523, 87.79949
904.9344, 87.87813
905.4165, 88.08621
905.8986, 88.12321
906.3807, 87.91355
906.8629, 87.51228
907.3450, 86.89880
907.8271, 86.12804
908.3092, 85.37924
908.7913, 84.56369
909.2734, 84.04194
909.7556, 84.14362
910.2377, 84.45795
910.7198, 84.66110
911.2019, 84.77569
911.6840, 84.95451
912.1661, 85.22314
912.6483, 85.36473
913.1304, 85.13094
913.6125, 84.72093
914.0946, 84.47395
914.5767, 84.32658
915.0588, 84.12493
915.5410, 83.82438
916.0231, 83.29508
916.5052, 82.44032
916.9873, 81.36848
917.4694, 80.19981
917.9515, 78.91697
918.4337, 77.92053
918.9158, 77.13433
919.3979, 77.12086
919.8800, 78.52520
920.3621, 79.85046
920.8442, 79.31986
921.3264, 77.16017
921.8085, 75.79154
922.2906, 75.47823
922.7727, 75.52957
923.2548, 76.40237
923.7369, 77.08762
924.2191, 77.07820
924.7012, 76.59649
925.1833, 75.85879
925.6654, 74.86781
926.1475, 74.24519
926.6296, 74.65086
927.1118, 74.91262
927.5939, 74.31377
928.0760, 73.34822
928.5581, 72.43147
929.0402, 71.67924
929.5223, 71.09663
930.0045, 70.62765
930.4866, 70.70744
930.9687, 72.38353
931.4508, 74.46925
931.9329, 75.02359
932.4150, 74.32336
932.8972, 73.37643
933.3793, 72.52096
933.8614, 71.91541
934.3435, 71.79232
934.8256, 71.81168
935.3077, 70.87994
935.7899, 69.11417
936.2720, 68.30205
936.7541, 68.69618
937.2362, 69.42505
937.7183, 70.16326
938.2004, 70.68629
938.6826, 70.58691
939.1647, 69.84420
939.6468, 69.46033
940.1289, 69.56693
940.6110, 69.72967
941.0931, 70.04353
941.5753, 70.16093
942.0574, 69.62507
942.5395, 68.74545
943.0216, 68.39009
943.5037, 68.78226
943.9858, 69.02083
944.4680, 68.84321
944.9501, 68.73447
945.4322, 69.02975
945.9143, 69.37227
946.3964, 69.63280
946.8785, 69.62805
947.3607, 68.65373
947.8428, 65.69333
948.3249, 63.41288
948.8070, 63.76941
949.2891, 65.01777
949.7712, 65.80956
950.2534, 66.10676
950.7355, 65.99380
951.2176, 65.56567
951.6997, 65.24635
952.1818, 65.43115
952.6639, 65.80050
953.1461, 65.79660
953.6282, 65.66980
954.1103, 66.19875
954.5924, 67.30698
955.0745, 68.08875
955.5566, 68.10027
956.0388, 67.49506
956.5209, 66.15170
957.0030, 64.39365
957.4851, 64.08163
957.9672, 65.20528
958.4493, 66.20088
958.9315, 66.76524
959.4136, 66.69199
959.8957, 65.64490
960.3778, 64.22453
960.8599, 64.14892
961.3420, 65.88781
961.8242, 66.47197
962.3063, 65.34708
962.7884, 64.45759
963.2705, 64.72226
963.7526, 65.07845
964.2347, 64.28963
964.7169, 62.57537
965.1990, 61.54358
965.6811, 61.15713
966.1632, 61.53923
966.6453, 63.70985
967.1274, 65.47707
967.6096, 65.68934
968.0917, 65.12397
968.5738, 64.54471
969.0559, 64.06783
969.5380, 64.22789
970.0201, 66.38927
970.5023, 67.56039
970.9844, 65.39282
971.4665, 62.99339
971.9486, 63.41293
972.4307, 65.40121
972.9128, 65.87534
973.3950, 64.06789
973.8771, 62.60689
974.3592, 63.83410
974.8413, 65.27755
975.3234, 64.19972
975.8055, 62.25068
976.2877, 62.19652
976.7698, 63.79935
977.2519, 64.81351
977.7340, 64.17526
978.2161, 63.12909
978.6982, 62.87098
979.1804, 63.20343
979.6625, 64.24712
980.1446, 65.54800
980.6267, 65.29861
981.1088, 63.31096
981.5909, 61.50259
982.0731, 61.19740
982.5552, 61.77052
983.0373, 62.38378
983.5194, 62.92141
984.0015, 62.27024
984.4836, 60.40742
984.9658, 59.08421
985.4479, 58.84933
985.9300, 59.39370
986.4121, 60.60555
986.8942, 62.10334
987.3763, 62.36079
987.8585, 61.13000
988.3406, 60.26956
988.8227, 59.89472
989.3048, 59.80324
989.7869, 59.90035
990.2690, 60.30794
990.7512, 61.37610
991.2333, 62.97486
991.7154, 63.35982
992.1975, 61.56129
992.6796, 60.63987
993.1617, 61.63428
993.6439, 62.36843
994.1260, 61.38531
994.6081, 59.80183
995.0902, 59.21625
995.5723, 59.65602
996.0544, 60.20823
996.5366, 60.64531
997.0187, 61.47355
997.5008, 64.13435
997.9829, 65.82322
998.4650, 63.66689
998.9471, 59.85244
999.4293, 58.40208
999.9114, 59.96189
1000.393, 60.96587
1000.876, 59.89743
1001.358, 58.76818
1001.840, 58.36646
1002.322, 58.30923
1002.804, 58.21411
1003.286, 58.17016
1003.768, 58.55070
1004.250, 59.48716
1004.733, 60.26099
1005.215, 60.35861
1005.697, 60.28708
1006.179, 60.30898
1006.661, 60.46088
1007.143, 60.85730
1007.625, 61.41222
1008.107, 61.92514
1008.589, 62.32983
1009.072, 62.41032
1009.554, 61.73287
1010.036, 60.84074
1010.518, 60.29794
1011.000, 60.07347
1011.482, 60.15061
1011.964, 60.44892
1012.446, 60.69596
1012.929, 60.74062
1013.411, 60.71814
1013.893, 60.95631
1014.375, 61.16555
1014.857, 60.49699
1015.339, 59.26941
1015.821, 58.77352
1016.303, 59.18993
1016.785, 59.39014
1017.268, 58.57820
1017.750, 57.30892
1018.232, 56.26298
1018.714, 55.53902
1019.196, 55.73309
1019.678, 56.74424
1020.160, 57.55502
1020.642, 57.88877
1021.125, 58.18048
1021.607, 58.83677
1022.089, 59.49023
1022.571, 59.09574
1023.053, 57.73612
1023.535, 57.36488
1024.017, 58.12740
1024.499, 57.58975
1024.981, 54.74485
1025.464, 52.21935
1025.946, 52.51627
1026.428, 54.75709
1026.910, 56.21674
1027.392, 56.81657
1027.874, 57.43592
1028.356, 58.18978
1028.838, 58.44232
1029.321, 57.75325
1029.803, 57.16846
1030.285, 57.85009
1030.767, 59.40576
1031.249, 59.99965
1031.731, 59.27330
1032.213, 59.09672
1032.695, 60.11132
1033.177, 60.00233
1033.660, 57.13527
1034.142, 54.13933
1034.624, 54.02057
1035.106, 56.19513
1035.588, 56.96517
1036.070, 55.34273
1036.552, 54.73305
1037.034, 55.84962
1037.516, 56.86369
1037.999, 57.12358
1038.481, 56.94114
1038.963, 56.55443
1039.445, 55.99618
1039.927, 55.51156
1040.409, 54.85579
1040.891, 54.71581
1041.373, 55.80110
1041.855, 56.49817
1042.338, 55.63228
1042.820, 54.51931
1043.302, 54.67720
1043.784, 55.91078
1044.266, 56.67574
1044.748, 56.43982
1045.230, 56.55518
1045.712, 57.92910
1046.195, 58.65574
1046.677, 56.93782
1047.159, 54.93700
1047.641, 55.52855
1048.123, 58.25659
1048.605, 59.43313
1049.087, 57.47382
1049.569, 56.12888
1050.052, 56.76549
1050.534, 57.14084
1051.016, 55.39540
1051.498, 53.44147
1051.980, 53.75281
1052.462, 56.02850
1052.944, 57.66475
1053.426, 58.14845
1053.908, 58.09017
1054.391, 57.46592
1054.873, 56.51385
1055.355, 54.52224
1055.837, 52.84313
1056.319, 53.49001
1056.801, 56.01647
1057.283, 57.53406
1057.765, 56.74941
1058.248, 56.38739
1058.730, 58.24866
1059.212, 59.59629
1059.694, 58.55806
1060.176, 56.42094
1060.658, 54.15306
1061.140, 52.21308
1061.622, 51.75806
1062.104, 53.65919
1062.587, 55.46061
1063.069, 56.42873
1063.551, 56.87468
1064.033, 56.82298
1064.515, 56.45414
1064.997, 55.66685
1065.479, 54.73175
1065.961, 54.59232
1066.443, 55.85186
1066.926, 56.71330
1067.408, 55.89619
1067.890, 55.09517
1068.372, 55.71601
1068.854, 56.61766
1069.336, 56.09105
1069.818, 54.61219
1070.300, 54.34452
1070.782, 56.27082
1071.265, 57.61528
1071.747, 56.54260
1072.229, 55.23847
1072.711, 55.05757
1073.193, 55.31241
1073.675, 55.19231
1074.157, 54.79270
1074.639, 54.78996
1075.122, 55.50692
1075.604, 55.54466
1076.086, 53.14674
1076.568, 51.21148
1077.050, 52.14230
1077.532, 53.82860
1078.014, 53.87964
1078.496, 52.80510
1078.979, 52.50233
1079.461, 53.50042
1079.943, 54.40029
1080.425, 54.44057
1080.907, 54.35898
1081.389, 54.53945
1081.871, 54.80627
1082.353, 55.18387
1082.835, 55.44489
1083.318, 55.00089
1083.800, 53.73809
1084.282, 52.85726
1084.764, 53.34246
1085.246, 53.73682
1085.728, 52.71284
1086.210, 51.83955
1086.692, 53.03031
1087.175, 55.15596
1087.657, 56.08250
1088.139, 55.45248
1088.621, 54.38269
1089.103, 52.63066
1089.585, 51.48830
1090.067, 51.60078
1090.549, 52.44778
1091.031, 54.67073
1091.514, 56.80766
1091.996, 56.09957
1092.478, 52.70284
1092.960, 50.71872
1093.442, 52.43927
1093.924, 54.02842
1094.406, 53.90145
1094.888, 53.35755
1095.370, 52.79650
1095.853, 52.61645
1096.335, 53.66406
1096.817, 55.60682
1097.299, 56.51208
1097.781, 55.27082
1098.263, 54.51777
1098.745, 55.90453
1099.227, 57.02251
1099.709, 56.26074
1100.192, 54.85121
1100.674, 53.95502
1101.156, 53.63515
1101.638, 53.71209
1102.120, 54.27496
1102.602, 54.75966
1103.084, 55.09399
1103.566, 55.24269
1104.049, 55.10984
1104.531, 54.85891
1105.013, 54.56912
1105.495, 54.28406
1105.977, 54.11734
1106.459, 54.12642
1106.941, 53.94063
1107.423, 52.94330
1107.906, 52.51777
1108.388, 53.21878
1108.870, 54.41119
1109.352, 56.61773
1109.834, 58.62064
1110.316, 57.80352
1110.798, 53.83364
1111.280, 51.68379
1111.762, 52.97906
1112.245, 54.23720
1112.727, 55.47979
1113.209, 56.08858
1113.691, 55.02056
1114.173, 53.62008
1114.655, 53.87587
1115.137, 55.61357
1115.619, 56.39196
1116.102, 55.77047
1116.584, 54.94166
1117.066, 53.47892
1117.548, 52.47791
1118.030, 52.63039
1118.512, 53.04927
1118.994, 52.76616
1119.476, 52.06255
1119.958, 52.16557
1120.441, 53.66262
1120.923, 54.00711
1121.405, 52.46297
1121.887, 51.43992
1122.369, 51.94394
1122.851, 52.33658
1123.333, 51.03395
1123.815, 49.19373
1124.297, 49.63453
1124.780, 52.67374
1125.262, 53.69088
1125.744, 51.93034
1126.226, 51.01734
1126.708, 51.83427
1127.190, 52.64068
1127.672, 52.41569
1128.154, 51.83467
1128.636, 51.92840
1129.119, 52.57438
1129.601, 52.67013
1130.083, 52.13980
1130.565, 51.93513
1131.047, 52.18624
1131.529, 52.51984
1132.011, 52.85415
1132.493, 52.65821
1132.976, 51.22565
1133.458, 49.20445
1133.940, 48.58110
1134.422, 49.23252
1134.904, 49.64945
1135.386, 49.77238
1135.868, 49.75330
1136.350, 49.64492
1136.833, 49.93510
1137.315, 51.02082
1137.797, 52.37294
1138.279, 53.18837
1138.761, 53.51256
1139.243, 53.40701
1139.725, 52.94148
1140.207, 52.35013
1140.689, 51.69850
1141.172, 50.97789
1141.654, 50.19027
1142.136, 49.87960
1142.618, 51.14972
1143.100, 52.67857
1143.582, 51.56984
1144.064, 52.24253
1144.546, 52.21448
1145.029, 51.15831
1145.511, 51.70554
1145.993, 50.30913
1146.475, 49.33277
1146.957, 50.61182
1147.439, 52.35215
1147.921, 53.09432
1148.403, 53.04213
1148.885, 52.01758
1149.368, 50.58320
1149.850, 49.52197
1150.332, 49.00913
1150.814, 49.07619
1151.296, 49.85040
1151.778, 50.52441
1152.260, 50.52389
1152.742, 50.36065
1153.224, 50.24914
1153.707, 50.26603
1154.189, 50.64891
1154.671, 51.16466
1155.153, 51.28400
1155.635, 50.89826
1156.117, 50.40983
1156.599, 49.39195
1157.081, 49.07886
1157.563, 50.55434
1158.046, 52.08297
1158.528, 52.67010
1159.010, 52.61458
1159.492, 52.08637
1159.974, 51.24729
1160.456, 51.17461
1160.938, 52.77817
1161.420, 53.54539
1161.903, 52.63954
1162.385, 51.95237
1162.867, 52.31939
1163.349, 52.70223
1163.831, 52.25859
1164.313, 51.26015
1164.795, 50.35712
1165.277, 49.55532
1165.760, 48.70742
1166.242, 47.55894
1166.724, 47.30161
1167.206, 48.46953
1167.688, 49.32373
1168.170, 48.76301
1168.652, 48.11613
1169.134, 49.32271
1169.616, 51.71034
1170.099, 51.82233
1170.581, 49.62252
1171.063, 48.09345
1171.545, 47.41429
1172.027, 47.57173
1172.509, 48.57316
1172.991, 49.62770
1173.473, 50.12235
1173.956, 50.39098
1174.438, 51.12246
1174.920, 52.07099
1175.402, 52.52116
1175.884, 52.45704
1176.366, 51.49825
1176.848, 49.90134
1177.330, 49.12986
1177.813, 49.78866
1178.295, 50.95850
1178.777, 52.00844
1179.259, 52.87526
1179.741, 53.97379
1180.223, 54.48518
1180.705, 52.29681
1181.187, 48.89266
1181.669, 47.62463
1182.151, 48.82484
1182.634, 50.31605
1183.116, 51.27494
1183.598, 51.75853
1184.080, 51.45777
1184.562, 51.08203
1185.044, 50.91409
1185.526, 51.07201
1186.008, 52.24147
1186.490, 53.65799
1186.973, 53.13975
1187.455, 50.14263
1187.937, 48.86501
1188.419, 51.90759
1188.901, 54.07359
1189.383, 53.85875
1189.865, 53.13552
1190.347, 52.98058
1190.830, 52.66489
1191.312, 50.92093
1191.794, 51.17162
1192.276, 50.80980
1192.758, 50.01889
1193.240, 50.71898
1193.722, 48.86748
1194.204, 48.14305
1194.687, 49.79153
1195.169, 51.43073
1195.651, 51.56860
1196.133, 50.78127
1196.615, 49.83485
1197.097, 48.85933
1197.579, 48.73582
1198.061, 49.41987
1198.543, 50.14311
1199.026, 50.80629
1199.508, 51.23257
1199.990, 51.33553
1200.472, 50.41769
1200.954, 47.63482
1201.436, 44.99119
1201.918, 46.23759
1202.400, 49.38824
1202.883, 50.41967
1203.365, 50.06613
1203.847, 50.23303
1204.329, 51.04654
1204.811, 51.87285
1205.293, 52.44298
1205.775, 52.27187
1206.257, 50.45263
1206.740, 48.57582
1207.222, 47.30645
1207.704, 46.97263
1208.186, 48.74287
1208.668, 51.12584
1209.150, 51.86398
1209.632, 51.02685
1210.114, 50.27480
1210.596, 49.85519
1211.078, 49.92868
1211.561, 51.36113
1212.043, 52.13855
1212.525, 51.03266
1213.007, 49.75039
1213.489, 49.40125
1213.971, 49.54339
1214.453, 49.57246
1214.935, 49.47889
1215.417, 48.99342
1215.900, 47.76770
1216.382, 47.64021
1216.864, 49.08600
1217.346, 49.78428
1217.828, 48.77694
1218.310, 48.22012
1218.792, 49.93515
1219.274, 52.41227
1219.757, 52.77239
1220.239, 51.46462
1220.721, 50.41117
1221.203, 49.67269
1221.685, 49.70994
1222.167, 50.43394
1222.649, 51.36259
1223.131, 52.20676
1223.614, 51.81585
1224.096, 48.76230
1224.578, 45.82894
1225.060, 46.68239
1225.542, 48.83739
1226.024, 49.59025
1226.506, 49.40360
1226.988, 48.99785
1227.470, 48.60086
1227.953, 48.26620
1228.435, 47.98561
1228.917, 48.54199
1229.399, 51.73456
1229.881, 53.64488
1230.363, 51.84930
1230.845, 49.72292
1231.327, 49.41859
1231.810, 49.73482
1232.292, 49.08170
1232.774, 47.74116
1233.256, 46.81792
1233.738, 46.11329
1234.220, 46.88871
1234.702, 49.96804
1235.184, 51.74183
1235.667, 51.28991
1236.149, 50.50637
1236.631, 50.37890
1237.113, 50.24766
1237.595, 49.15790
1238.077, 49.56085
1238.559, 49.76641
1239.041, 49.93263
1239.523, 51.10684
1240.005, 51.68736
1240.488, 52.64619
1240.970, 53.90304
1241.452, 53.47783
1241.934, 50.36705
1242.416, 47.39359
1242.898, 47.33282
1243.380, 48.45063
1243.862, 49.48959
1244.344, 50.33612
1244.827, 50.81036
1245.309, 51.03486
1245.791, 51.18710
1246.273, 51.30834
1246.755, 51.44945
1247.237, 51.71928
1247.719, 51.67318
1248.201, 51.09713
1248.684, 50.35296
1249.166, 49.12008
1249.648, 48.25531
1250.130, 48.41709
1250.612, 49.05013
1251.094, 49.51209
1251.576, 49.76623
1252.058, 49.48578
1252.541, 48.54271
1253.023, 47.97133
1253.505, 47.79632
1253.987, 48.13383
1254.469, 49.02495
1254.951, 49.70004
1255.433, 49.70581
1255.915, 49.47524
1256.397, 49.47211
1256.880, 49.67562
1257.362, 50.27227
1257.844, 50.91880
1258.326, 50.80402
1258.808, 50.18696
1259.290, 49.70097
1259.772, 49.50846
1260.254, 49.71328
1260.737, 50.47226
1261.219, 50.69328
1261.701, 49.16436
1262.183, 47.81182
1262.665, 47.63491
1263.147, 47.89892
1263.629, 48.27630
1264.111, 48.61523
1264.594, 48.75210
1265.076, 48.69404
1265.558, 48.47288
1266.040, 47.88733
1266.522, 47.90425
1267.004, 48.67754
1267.486, 49.57869
1267.968, 50.58908
1268.450, 51.24522
1268.932, 51.32168
1269.415, 50.82204
1269.897, 49.58660
1270.379, 48.14204
1270.861, 47.66326
1271.343, 48.04921
1271.825, 49.72647
1272.307, 51.84069
1272.789, 51.36302
1273.271, 48.62166
1273.754, 47.13346
1274.236, 48.17507
1274.718, 49.26532
1275.200, 48.69552
1275.682, 47.85006
1276.164, 47.49294
1276.646, 47.21365
1277.128, 46.38913
1277.611, 45.73716
1278.093, 46.30148
1278.575, 47.73579
1279.057, 48.83030
1279.539, 49.54678
1280.021, 49.95695
1280.503, 50.16874
1280.985, 49.54044
1281.468, 47.51499
1281.950, 46.81854
1282.432, 48.75319
1282.914, 50.48772
1283.396, 49.52659
1283.878, 47.53856
1284.360, 47.88988
1284.842, 49.57713
1285.324, 49.78273
##END=



