##NAMES=Kottigite
##RRUFFID=R110032
##IDEAL CHEMISTRY=Zn^2+^_3_(As^5+^O_4_)_2_&#183;8H_2_O
##LOCALITY=44 level, Tsumeb mine, Tsumeb, Namibia
##OWNER=RRUFF
##SOURCE=William W Pinch
##DESCRIPTION=Bundles of gray acicular crystals associated with ludlockite
##STATUS=The identification of this mineral has been confirmed only by single crystal X-ray diffraction.
##URL=rruff.info/R110032
178.7195, 223.5186
179.2017, 221.3627
179.6838, 217.6372
180.1659, 217.7588
180.6480, 221.9815
181.1301, 226.5561
181.6122, 227.6719
182.0944, 226.1042
182.5765, 224.3436
183.0586, 222.7653
183.5407, 221.8344
184.0228, 222.8557
184.5049, 226.0410
184.9871, 229.8638
185.4692, 232.6724
185.9513, 234.5757
186.4334, 235.9687
186.9155, 237.0673
187.3976, 237.8210
187.8798, 237.6202
188.3619, 236.0665
188.8440, 234.9672
189.3261, 238.1308
189.8082, 245.1649
190.2903, 250.4861
190.7725, 249.6079
191.2546, 243.9045
191.7367, 241.8761
192.2188, 244.6102
192.7009, 249.1719
193.1830, 250.4081
193.6652, 248.3091
194.1473, 246.3175
194.6294, 246.8882
195.1115, 249.7236
195.5936, 250.7449
196.0757, 249.2661
196.5579, 246.6870
197.0400, 245.7493
197.5221, 246.5722
198.0042, 247.6872
198.4863, 248.6762
198.9684, 249.5527
199.4506, 248.9999
199.9327, 246.7547
200.4148, 243.3031
200.8969, 239.2068
201.3790, 234.1021
201.8611, 230.0671
202.3433, 228.5466
202.8254, 229.7179
203.3075, 231.2649
203.7896, 233.1810
204.2717, 235.2164
204.7538, 236.6843
205.2360, 237.5032
205.7181, 238.0528
206.2002, 238.3350
206.6823, 238.1761
207.1644, 238.9265
207.6465, 240.9889
208.1287, 243.8538
208.6108, 245.9999
209.0929, 247.1975
209.5750, 248.3130
210.0571, 250.0349
210.5392, 252.6729
211.0214, 254.4502
211.5035, 254.9648
211.9856, 254.6033
212.4677, 254.6872
212.9498, 255.2689
213.4319, 256.1914
213.9140, 257.4557
214.3962, 259.2185
214.8783, 260.8694
215.3604, 262.6483
215.8425, 264.2423
216.3246, 264.0170
216.8067, 261.0067
217.2889, 258.0318
217.7710, 257.1040
218.2531, 259.3465
218.7352, 260.1832
219.2173, 258.6716
219.6994, 255.4387
220.1816, 253.6928
220.6637, 254.2373
221.1458, 254.8140
221.6279, 253.8316
222.1100, 250.3915
222.5921, 247.8481
223.0743, 247.0652
223.5564, 247.4182
224.0385, 245.6162
224.5206, 240.3547
225.0027, 235.0786
225.4848, 232.0323
225.9670, 232.2472
226.4491, 232.2939
226.9312, 232.0170
227.4133, 231.3922
227.8954, 230.1949
228.3775, 228.1737
228.8597, 225.9873
229.3418, 223.9657
229.8239, 221.8662
230.3060, 220.5129
230.7881, 220.1479
231.2702, 220.5948
231.7524, 221.0731
232.2345, 221.6078
232.7166, 222.1180
233.1987, 222.6506
233.6808, 223.6416
234.1629, 223.6637
234.6451, 222.4397
235.1272, 220.1620
235.6093, 217.5296
236.0914, 213.9316
236.5735, 210.8157
237.0556, 209.0680
237.5378, 209.3135
238.0199, 209.6386
238.5020, 210.3481
238.9841, 211.0877
239.4662, 210.2347
239.9483, 206.7489
240.4305, 203.1061
240.9126, 200.6457
241.3947, 200.0303
241.8768, 199.1120
242.3589, 197.5246
242.8410, 195.5902
243.3232, 194.4728
243.8053, 194.5773
244.2874, 194.9500
244.7695, 195.1852
245.2516, 195.4973
245.7337, 195.1606
246.2159, 193.9201
246.6980, 192.0342
247.1801, 190.3520
247.6622, 188.8940
248.1443, 187.5753
248.6264, 186.3401
249.1086, 185.0515
249.5907, 184.1752
250.0728, 183.8846
250.5549, 183.9651
251.0370, 183.8350
251.5191, 183.3771
252.0013, 182.9013
252.4834, 182.5821
252.9655, 182.6138
253.4476, 182.2649
253.9297, 181.2402
254.4118, 179.9706
254.8940, 179.4520
255.3761, 180.0286
255.8582, 180.7469
256.3403, 181.2088
256.8224, 181.3185
257.3046, 181.5486
257.7867, 182.2232
258.2688, 182.8069
258.7509, 182.0058
259.2330, 178.8999
259.7151, 176.2991
260.1973, 175.3740
260.6794, 176.5031
261.1615, 177.7758
261.6436, 179.5105
262.1257, 181.1050
262.6078, 181.4359
263.0900, 180.1186
263.5721, 178.4546
264.0542, 176.8025
264.5363, 175.0947
265.0184, 173.7189
265.5005, 172.5811
265.9827, 171.8551
266.4648, 171.8060
266.9469, 172.5312
267.4290, 173.6964
267.9111, 175.5647
268.3932, 178.2574
268.8754, 179.2252
269.3575, 177.8575
269.8396, 175.7001
270.3217, 174.8532
270.8038, 175.7257
271.2859, 176.2736
271.7681, 175.6608
272.2502, 173.9588
272.7323, 173.4302
273.2144, 174.2806
273.6965, 175.9063
274.1786, 177.9955
274.6608, 180.8352
275.1429, 182.6424
275.6250, 182.7574
276.1071, 181.4100
276.5892, 180.2756
277.0714, 179.4052
277.5535, 178.6551
278.0356, 177.7312
278.5177, 176.5473
278.9998, 176.1398
279.4819, 176.9965
279.9641, 178.7346
280.4462, 179.6502
280.9283, 179.6536
281.4104, 179.2233
281.8925, 178.5646
282.3746, 177.6697
282.8568, 177.1852
283.3389, 177.3385
283.8210, 177.8791
284.3031, 178.2981
284.7852, 178.6600
285.2673, 178.3975
285.7495, 176.5419
286.2316, 173.2897
286.7137, 171.4093
287.1958, 171.6726
287.6779, 172.8466
288.1600, 172.1315
288.6422, 169.4939
289.1243, 166.9843
289.6064, 166.0946
290.0885, 166.5268
290.5706, 166.8440
291.0527, 166.9158
291.5349, 166.8219
292.0170, 166.7617
292.4991, 166.7071
292.9812, 166.3617
293.4633, 164.9674
293.9454, 163.0997
294.4276, 162.9781
294.9097, 165.0352
295.3918, 167.4368
295.8739, 167.6588
296.3560, 166.0873
296.8381, 164.5535
297.3203, 164.2594
297.8024, 164.5499
298.2845, 163.7702
298.7666, 161.7588
299.2487, 159.9903
299.7308, 160.4979
300.2130, 162.5251
300.6951, 163.8809
301.1772, 163.1000
301.6593, 161.4388
302.1414, 160.6723
302.6235, 160.7930
303.1057, 161.2217
303.5878, 161.8610
304.0699, 162.4351
304.5520, 162.3729
305.0341, 160.9418
305.5162, 159.3066
305.9984, 158.8298
306.4805, 159.3684
306.9626, 159.9098
307.4447, 159.5820
307.9268, 158.9009
308.4089, 158.6143
308.8911, 159.3105
309.3732, 159.8382
309.8553, 158.6372
310.3374, 156.3240
310.8195, 154.9683
311.3016, 156.7747
311.7838, 159.5459
312.2659, 161.4398
312.7480, 162.1599
313.2301, 161.7825
313.7122, 159.3862
314.1943, 155.9152
314.6765, 153.4121
315.1586, 153.0982
315.6407, 153.8200
316.1228, 155.2602
316.6049, 157.7769
317.0870, 159.2469
317.5692, 157.5647
318.0513, 154.5190
318.5334, 152.6198
319.0155, 154.0579
319.4976, 155.6275
319.9797, 155.5999
320.4619, 153.6706
320.9440, 152.5756
321.4261, 154.0738
321.9082, 156.3804
322.3903, 157.8006
322.8724, 157.3029
323.3546, 156.5569
323.8367, 155.9108
324.3188, 155.3750
324.8009, 154.8881
325.2830, 154.3200
325.7651, 153.8791
326.2473, 153.7033
326.7294, 153.5798
327.2115, 153.9870
327.6936, 155.7993
328.1757, 158.4804
328.6578, 159.4183
329.1400, 156.4641
329.6221, 153.5482
330.1042, 152.3923
330.5863, 154.7288
331.0684, 155.9405
331.5505, 155.3286
332.0327, 153.7136
332.5148, 152.9357
332.9969, 153.5228
333.4790, 154.2395
333.9611, 154.7499
334.4432, 155.1199
334.9254, 155.0227
335.4075, 154.5849
335.8896, 153.5688
336.3717, 151.2545
336.8538, 146.4763
337.3359, 143.2998
337.8180, 143.1760
338.3001, 146.0471
338.7823, 148.8176
339.2644, 151.6255
339.7465, 154.0139
340.2286, 155.5397
340.7107, 156.1622
341.1928, 156.0410
341.6750, 154.9386
342.1571, 153.1979
342.6392, 152.2540
343.1213, 152.1949
343.6034, 152.4249
344.0855, 152.4995
344.5677, 152.4323
345.0498, 152.5695
345.5319, 152.9384
346.0140, 153.5525
346.4961, 154.7946
346.9782, 156.6134
347.4604, 157.7545
347.9425, 156.6329
348.4246, 154.1138
348.9067, 153.8330
349.3888, 156.3661
349.8709, 159.2194
350.3531, 158.4959
350.8352, 155.2617
351.3173, 153.4797
351.7994, 156.2557
352.2815, 161.0728
352.7636, 163.6547
353.2458, 163.9980
353.7279, 163.7561
354.2100, 164.0906
354.6921, 164.8246
355.1742, 165.6599
355.6563, 166.5777
356.1385, 167.4898
356.6206, 168.1964
357.1027, 168.7757
357.5848, 169.5950
358.0669, 171.2580
358.5490, 173.0821
359.0312, 174.4399
359.5133, 175.2276
359.9954, 175.5259
360.4775, 174.8535
360.9596, 173.7289
361.4417, 173.2578
361.9239, 174.1321
362.4060, 175.5862
362.8881, 177.2956
363.3702, 179.2768
363.8523, 181.2327
364.3344, 183.4585
364.8166, 185.4734
365.2987, 186.7381
365.7808, 186.2063
366.2629, 185.7991
366.7450, 186.2148
367.2271, 187.4561
367.7093, 188.2513
368.1914, 187.9526
368.6735, 187.4747
369.1556, 187.4109
369.6377, 187.9801
370.1198, 188.7283
370.6020, 189.9572
371.0841, 191.3966
371.5662, 192.0896
372.0483, 192.0587
372.5304, 191.2359
373.0125, 189.2531
373.4947, 184.9997
373.9768, 182.9955
374.4589, 184.3137
374.9410, 186.9985
375.4231, 187.7205
375.9052, 185.6479
376.3874, 183.9978
376.8695, 183.9753
377.3516, 185.5271
377.8337, 186.2127
378.3158, 185.9800
378.7979, 185.0873
379.2801, 183.4671
379.7622, 181.0414
380.2443, 179.4639
380.7264, 179.4308
381.2085, 180.1171
381.6906, 178.8875
382.1728, 175.6994
382.6549, 172.9136
383.1370, 172.5887
383.6191, 174.1050
384.1012, 175.0310
384.5833, 175.0579
385.0655, 174.6837
385.5476, 174.5778
386.0297, 174.6408
386.5118, 174.5215
386.9939, 173.9717
387.4760, 173.1693
387.9582, 172.3822
388.4403, 171.6121
388.9224, 170.7417
389.4045, 169.3391
389.8866, 167.8735
390.3687, 167.0314
390.8509, 167.4936
391.3330, 168.1752
391.8151, 168.6351
392.2972, 168.7657
392.7793, 168.1472
393.2614, 165.3463
393.7436, 162.5027
394.2257, 161.2922
394.7078, 162.7944
395.1899, 164.0272
395.6720, 163.3451
396.1541, 161.8256
396.6363, 161.2020
397.1184, 162.7416
397.6005, 164.4521
398.0826, 165.6640
398.5647, 166.2819
399.0468, 166.9138
399.5290, 168.1714
400.0111, 169.1516
400.4932, 169.0972
400.9753, 166.3691
401.4574, 164.8327
401.9395, 165.3486
402.4217, 167.4298
402.9038, 168.7931
403.3859, 169.2688
403.8680, 169.2761
404.3501, 168.7607
404.8322, 167.1691
405.3144, 167.1542
405.7965, 169.2307
406.2786, 172.2668
406.7607, 174.3774
407.2428, 175.3594
407.7249, 176.5719
408.2071, 178.7606
408.6892, 181.6243
409.1713, 183.1247
409.6534, 183.1698
410.1355, 182.3782
410.6176, 180.3933
411.0998, 177.6830
411.5819, 177.3590
412.0640, 180.7216
412.5461, 185.5591
413.0282, 188.4675
413.5103, 189.6413
413.9925, 190.3240
414.4746, 190.8354
414.9567, 191.4616
415.4388, 192.7106
415.9209, 194.6763
416.4030, 196.8589
416.8852, 199.0471
417.3673, 201.1593
417.8494, 203.0710
418.3315, 204.6644
418.8136, 206.1220
419.2957, 207.4960
419.7779, 208.8083
420.2600, 210.2699
420.7421, 211.5692
421.2242, 213.3044
421.7063, 216.0651
422.1884, 221.1596
422.6706, 225.0836
423.1527, 226.0490
423.6348, 225.4042
424.1169, 225.6959
424.5990, 228.3492
425.0811, 230.9844
425.5633, 232.8192
426.0454, 233.7055
426.5275, 234.7829
427.0096, 236.1560
427.4917, 237.6420
427.9738, 239.2036
428.4560, 241.3748
428.9381, 242.3588
429.4202, 241.1900
429.9023, 238.8438
430.3844, 239.0047
430.8665, 242.6114
431.3487, 246.0560
431.8308, 247.3511
432.3129, 246.3818
432.7950, 245.5112
433.2771, 244.6176
433.7592, 244.2315
434.2414, 245.6503
434.7235, 248.6543
435.2056, 250.5000
435.6877, 249.9056
436.1698, 247.9096
436.6519, 246.5871
437.1341, 245.9199
437.6162, 245.4978
438.0983, 245.0024
438.5804, 244.5436
439.0625, 244.3014
439.5446, 244.3008
440.0268, 244.5374
440.5089, 245.3273
440.9910, 246.3443
441.4731, 246.9110
441.9552, 246.0760
442.4373, 245.2070
442.9195, 245.4708
443.4016, 246.8517
443.8837, 247.6681
444.3658, 246.2494
444.8479, 244.5245
445.3300, 244.0833
445.8122, 247.5495
446.2943, 249.2736
446.7764, 247.1959
447.2585, 242.6622
447.7406, 239.1147
448.2227, 236.4909
448.7049, 235.2119
449.1870, 236.1031
449.6691, 239.9829
450.1512, 240.9045
450.6333, 237.3471
451.1154, 232.4919
451.5976, 229.3853
452.0797, 228.5943
452.5618, 227.7663
453.0439, 226.5181
453.5260, 225.0266
454.0081, 223.9023
454.4903, 223.2547
454.9724, 222.2305
455.4545, 220.0910
455.9366, 217.0381
456.4187, 214.3102
456.9008, 211.9469
457.3830, 210.0023
457.8651, 208.7630
458.3472, 208.0573
458.8293, 207.4578
459.3114, 207.1808
459.7935, 206.5583
460.2757, 204.4149
460.7578, 201.0127
461.2399, 197.6529
461.7220, 195.0095
462.2041, 192.8551
462.6862, 191.0985
463.1684, 189.8205
463.6505, 188.5337
464.1326, 187.2115
464.6147, 185.6920
465.0968, 183.7341
465.5789, 179.9265
466.0611, 177.0915
466.5432, 176.5901
467.0253, 178.2028
467.5074, 179.2238
467.9895, 178.7360
468.4716, 178.0830
468.9538, 177.9473
469.4359, 178.8279
469.9180, 179.1069
470.4001, 178.4932
470.8822, 177.4768
471.3643, 176.8312
471.8465, 176.7441
472.3286, 176.4525
472.8107, 175.6346
473.2928, 174.4424
473.7749, 173.6422
474.2570, 173.2184
474.7392, 173.2984
475.2213, 174.6984
475.7034, 177.0141
476.1855, 177.1007
476.6676, 174.1896
477.1497, 170.5185
477.6319, 169.2527
478.1140, 169.7924
478.5961, 170.2022
479.0782, 168.7413
479.5603, 167.2672
480.0424, 168.7501
480.5246, 172.7608
481.0067, 175.7604
481.4888, 174.5047
481.9709, 171.8222
482.4530, 170.3341
482.9352, 171.1613
483.4173, 171.6525
483.8994, 170.3286
484.3815, 168.0998
484.8636, 166.3676
485.3457, 165.3162
485.8279, 164.9281
486.3100, 165.6314
486.7921, 167.4185
487.2742, 168.2844
487.7563, 167.9683
488.2384, 167.0097
488.7206, 165.5806
489.2027, 163.2575
489.6848, 161.6949
490.1669, 161.2109
490.6490, 161.1727
491.1311, 160.4140
491.6133, 158.7708
492.0954, 157.6226
492.5775, 157.6100
493.0596, 158.3587
493.5417, 158.2709
494.0238, 157.3268
494.5060, 156.6621
494.9881, 157.5716
495.4702, 159.3800
495.9523, 160.2988
496.4344, 159.9351
496.9165, 159.3848
497.3987, 159.8445
497.8808, 160.8919
498.3629, 161.7228
498.8450, 162.0240
499.3271, 161.9866
499.8092, 161.7896
500.2914, 161.3862
500.7735, 160.5367
501.2556, 158.2864
501.7377, 156.1875
502.2198, 155.2762
502.7019, 156.2444
503.1841, 156.8745
503.6662, 156.3556
504.1483, 155.5872
504.6304, 155.6672
505.1125, 157.4702
505.5946, 158.6898
506.0768, 158.8362
506.5589, 158.1117
507.0410, 157.4737
507.5231, 156.8410
508.0052, 156.5166
508.4873, 156.8166
508.9695, 157.7443
509.4516, 158.2727
509.9337, 158.3369
510.4158, 158.2398
510.8979, 158.2176
511.3800, 158.3022
511.8622, 158.7287
512.3443, 159.8665
512.8264, 160.9194
513.3085, 160.5269
513.7906, 159.0602
514.2728, 157.8491
514.7549, 157.6754
515.2370, 158.0608
515.7191, 158.9902
516.2012, 160.5288
516.6833, 161.0831
517.1655, 158.4444
517.6476, 155.2906
518.1297, 153.9305
518.6118, 156.7799
519.0939, 159.0339
519.5760, 159.8244
520.0582, 159.5166
520.5403, 159.0385
521.0224, 158.2617
521.5045, 157.4872
521.9866, 156.6786
522.4688, 155.8350
522.9509, 155.5943
523.4330, 155.9581
523.9151, 156.9039
524.3972, 158.8522
524.8793, 161.8363
525.3615, 163.4667
525.8436, 163.3553
526.3257, 162.3562
526.8078, 161.2490
527.2899, 160.2047
527.7720, 160.1610
528.2542, 162.5763
528.7363, 165.3351
529.2184, 165.2891
529.7005, 162.8429
530.1826, 160.2033
530.6647, 157.9499
531.1469, 156.5710
531.6290, 156.7962
532.1111, 159.1190
532.5932, 161.1008
533.0753, 161.6490
533.5574, 161.4371
534.0396, 161.1546
534.5217, 160.2910
535.0038, 160.1177
535.4859, 161.6290
535.9680, 164.0093
536.4501, 164.5068
536.9323, 161.7346
537.4144, 159.4366
537.8965, 159.0950
538.3786, 160.7510
538.8607, 162.4981
539.3428, 164.5062
539.8250, 166.0310
540.3071, 166.1024
540.7892, 164.8751
541.2713, 163.7436
541.7534, 162.8324
542.2355, 162.3247
542.7177, 162.8726
543.1998, 164.1145
543.6819, 164.8830
544.1640, 164.1640
544.6461, 163.0577
545.1282, 162.8889
545.6104, 163.4256
546.0925, 163.2215
546.5746, 160.0061
547.0567, 156.8674
547.5388, 156.2104
548.0209, 159.3493
548.5031, 161.6470
548.9852, 161.6046
549.4673, 160.5241
549.9494, 159.7816
550.4315, 159.6896
550.9136, 159.5086
551.3958, 159.2661
551.8779, 158.8557
552.3600, 157.8483
552.8421, 156.0007
553.3242, 154.3645
553.8063, 153.1627
554.2885, 152.4824
554.7706, 153.5071
555.2527, 156.4241
555.7348, 159.0730
556.2169, 159.1115
556.6990, 157.4357
557.1812, 156.3331
557.6633, 156.1916
558.1454, 156.5685
558.6275, 157.7251
559.1096, 159.0012
559.5917, 159.2547
560.0739, 156.7113
560.5560, 154.2737
561.0381, 153.8197
561.5202, 154.8500
562.0023, 155.1056
562.4844, 152.7212
562.9666, 150.5473
563.4487, 150.0188
563.9308, 151.5237
564.4129, 152.7916
564.8950, 154.0314
565.3771, 154.8020
565.8593, 154.5335
566.3414, 152.8124
566.8235, 151.9544
567.3056, 152.5302
567.7877, 153.5180
568.2698, 152.7810
568.7520, 150.4302
569.2341, 148.4331
569.7162, 147.5244
570.1983, 147.4267
570.6804, 147.9430
571.1625, 148.9562
571.6447, 149.6582
572.1268, 149.3210
572.6089, 148.5371
573.0910, 147.8689
573.5731, 147.3913
574.0552, 146.9063
574.5374, 145.6718
575.0195, 144.7051
575.5016, 144.9484
575.9837, 148.7500
576.4658, 151.0659
576.9479, 150.7331
577.4301, 148.8072
577.9122, 147.2864
578.3943, 146.1689
578.8764, 145.4213
579.3585, 145.0172
579.8406, 144.9678
580.3228, 145.6338
580.8049, 147.2009
581.2870, 148.2783
581.7691, 147.4474
582.2512, 145.2733
582.7333, 143.9524
583.2155, 143.6105
583.6975, 144.1247
584.1796, 146.3126
584.6617, 149.0645
585.1439, 150.5377
585.6260, 150.0161
586.1081, 148.4987
586.5902, 145.5508
587.0723, 142.1385
587.5544, 140.1670
588.0366, 141.5289
588.5187, 142.9910
589.0008, 143.3938
589.4829, 142.7827
589.9650, 142.6308
590.4471, 142.9406
590.9293, 143.7165
591.4114, 145.2664
591.8935, 147.9250
592.3756, 148.8195
592.8577, 147.5571
593.3398, 145.5852
593.8220, 144.2301
594.3041, 143.4639
594.7862, 143.1153
595.2683, 143.2308
595.7504, 143.5522
596.2325, 143.8097
596.7147, 144.0110
597.1968, 144.1693
597.6789, 144.0618
598.1610, 144.1091
598.6431, 144.8510
599.1252, 146.0963
599.6074, 146.9652
600.0895, 146.8691
600.5716, 146.5655
601.0537, 146.5146
601.5358, 146.9252
602.0179, 146.6404
602.5001, 144.9308
602.9822, 143.2361
603.4643, 142.6955
603.9464, 143.6333
604.4285, 144.5227
604.9106, 145.4393
605.3928, 145.9941
605.8749, 144.9744
606.3570, 142.5913
606.8391, 141.8395
607.3212, 144.5879
607.8033, 148.2076
608.2855, 148.1150
608.7676, 145.2485
609.2497, 143.0654
609.7318, 144.0963
610.2139, 146.1260
610.6960, 147.8338
611.1782, 149.1066
611.6603, 149.3261
612.1424, 146.9723
612.6245, 144.4485
613.1066, 143.2896
613.5887, 144.2166
614.0709, 145.1303
614.5530, 146.2330
615.0351, 147.1534
615.5172, 147.5308
615.9993, 147.3439
616.4814, 146.5809
616.9636, 144.9041
617.4457, 143.1574
617.9278, 143.1724
618.4099, 144.8053
618.8920, 146.5404
619.3741, 147.9763
619.8563, 149.0029
620.3384, 149.3249
620.8205, 149.0213
621.3026, 148.4925
621.7847, 147.5561
622.2668, 146.7768
622.7490, 146.9277
623.2311, 148.2282
623.7132, 148.5526
624.1953, 146.2149
624.6774, 143.4761
625.1595, 141.9071
625.6417, 141.9472
626.1238, 142.4153
626.6059, 143.6377
627.0880, 144.9315
627.5701, 145.2097
628.0522, 144.3273
628.5344, 143.9218
629.0165, 144.5424
629.4986, 145.5143
629.9807, 145.2900
630.4628, 144.1128
630.9449, 143.3047
631.4271, 143.5810
631.9092, 144.5077
632.3913, 146.0948
632.8734, 148.1296
633.3555, 149.3035
633.8376, 148.0556
634.3198, 146.4684
634.8019, 145.9579
635.2840, 146.9900
635.7661, 147.3201
636.2482, 145.8543
636.7303, 144.3352
637.2125, 144.0358
637.6946, 145.5315
638.1767, 146.5117
638.6588, 146.6627
639.1409, 146.6773
639.6230, 147.9331
640.1052, 150.2939
640.5873, 151.4686
641.0694, 150.5848
641.5515, 148.7363
642.0336, 147.1250
642.5157, 145.8681
642.9979, 145.2902
643.4800, 146.2796
643.9621, 147.4104
644.4442, 147.5203
644.9263, 146.7894
645.4084, 146.3610
645.8906, 146.9113
646.3727, 147.5785
646.8548, 148.0628
647.3369, 148.4146
647.8190, 148.0989
648.3011, 146.5630
648.7833, 145.1934
649.2654, 145.4508
649.7475, 147.5956
650.2296, 147.7357
650.7117, 145.2289
651.1938, 142.3705
651.6760, 142.3164
652.1581, 144.2977
652.6402, 145.9589
653.1223, 146.6529
653.6044, 146.9070
654.0865, 147.0670
654.5687, 147.1576
655.0508, 147.2293
655.5329, 147.4834
656.0150, 147.5346
656.4971, 147.1245
656.9792, 146.3482
657.4614, 145.7176
657.9435, 145.4124
658.4256, 144.9855
658.9077, 143.8586
659.3898, 142.1456
659.8719, 143.4051
660.3541, 148.4303
660.8362, 152.7008
661.3183, 152.1374
661.8004, 148.0681
662.2825, 145.8768
662.7646, 145.9321
663.2468, 146.5293
663.7289, 146.0441
664.2110, 145.2432
664.6931, 145.2303
665.1752, 146.6107
665.6573, 147.8271
666.1395, 148.3148
666.6216, 148.2251
667.1037, 147.7435
667.5858, 146.1564
668.0679, 145.1395
668.5500, 144.9839
669.0322, 145.4030
669.5143, 145.8846
669.9964, 146.5246
670.4785, 146.7292
670.9606, 146.1192
671.4427, 145.0865
671.9249, 144.8160
672.4070, 145.2180
672.8891, 145.5916
673.3712, 145.4493
673.8533, 145.0970
674.3354, 144.6891
674.8176, 144.2888
675.2997, 144.4393
675.7818, 146.8200
676.2639, 148.7667
676.7460, 148.1729
677.2281, 143.7487
677.7103, 141.1352
678.1924, 141.4633
678.6745, 142.6966
679.1566, 143.3267
679.6387, 143.1322
680.1208, 143.4906
680.6030, 144.6376
681.0851, 145.9172
681.5672, 146.5410
682.0493, 146.5979
682.5314, 146.3967
683.0135, 145.8008
683.4957, 145.4754
683.9778, 146.5086
684.4599, 148.2769
684.9420, 149.5689
685.4241, 149.9180
685.9063, 149.7534
686.3884, 148.8991
686.8705, 147.6137
687.3526, 146.7519
687.8347, 146.1465
688.3168, 146.2904
688.7990, 147.6509
689.2811, 149.9453
689.7632, 151.0835
690.2453, 150.9415
690.7274, 150.5016
691.2095, 150.2732
691.6917, 150.1889
692.1738, 150.0118
692.6559, 149.7487
693.1380, 149.5718
693.6201, 149.2612
694.1022, 149.2999
694.5844, 150.5768
695.0665, 153.5335
695.5486, 155.3369
696.0307, 153.8565
696.5128, 151.5761
696.9949, 150.5176
697.4771, 151.7688
697.9592, 151.9654
698.4413, 150.5778
698.9234, 148.8182
699.4055, 148.3263
699.8876, 149.1347
700.3698, 149.4678
700.8519, 148.9204
701.3340, 148.0718
701.8161, 147.8698
702.2982, 148.0159
702.7803, 147.7001
703.2625, 145.7594
703.7446, 144.3191
704.2267, 145.4207
704.7088, 148.0419
705.1909, 149.9363
705.6730, 149.4855
706.1552, 149.3842
706.6373, 150.5585
707.1194, 152.6376
707.6015, 153.8911
708.0836, 154.1321
708.5657, 154.0672
709.0479, 153.9532
709.5300, 153.7669
710.0121, 153.3758
710.4942, 152.7836
710.9763, 152.1689
711.4584, 151.5525
711.9406, 151.0286
712.4227, 150.7879
712.9048, 150.8267
713.3869, 150.7876
713.8690, 150.2610
714.3511, 149.7752
714.8333, 149.6870
715.3154, 150.1450
715.7975, 150.7080
716.2796, 151.5415
716.7617, 152.2857
717.2438, 152.7513
717.7260, 152.9702
718.2081, 152.3321
718.6902, 150.5774
719.1723, 148.9113
719.6544, 149.0145
720.1365, 150.3157
720.6187, 151.4109
721.1008, 152.0141
721.5829, 152.2977
722.0650, 152.2228
722.5471, 151.9685
723.0292, 151.7732
723.5114, 151.5278
723.9935, 151.5616
724.4756, 151.8142
724.9577, 152.4062
725.4398, 153.7898
725.9219, 156.5461
726.4041, 158.2406
726.8862, 158.2068
727.3683, 156.9467
727.8504, 155.0685
728.3325, 152.7975
728.8146, 151.7620
729.2968, 153.8479
729.7789, 156.5701
730.2610, 156.7476
730.7431, 155.1058
731.2252, 154.0497
731.7073, 154.5293
732.1895, 155.8947
732.6716, 158.6001
733.1537, 162.4046
733.6358, 164.2919
734.1179, 163.4043
734.6000, 162.0647
735.0822, 161.0828
735.5643, 160.4609
736.0464, 160.3270
736.5285, 160.6939
737.0106, 161.3096
737.4927, 162.6512
737.9749, 163.8791
738.4570, 163.0694
738.9391, 160.2141
739.4212, 157.8027
739.9033, 157.3165
740.3854, 157.8174
740.8676, 158.7369
741.3497, 160.1080
741.8318, 161.5491
742.3139, 163.6415
742.7960, 165.1410
743.2781, 164.9060
743.7603, 162.5383
744.2424, 161.2421
744.7245, 161.1306
745.2066, 161.9638
745.6887, 164.1674
746.1708, 167.0864
746.6530, 168.9245
747.1351, 169.2771
747.6172, 169.0718
748.0993, 168.4027
748.5814, 167.8119
749.0635, 167.9472
749.5457, 169.6720
750.0278, 170.9712
750.5099, 171.1027
750.9920, 170.9860
751.4741, 171.9103
751.9562, 174.4039
752.4384, 175.3804
752.9205, 173.8650
753.4026, 171.8473
753.8847, 172.9420
754.3668, 176.4002
754.8489, 179.2461
755.3311, 180.4454
755.8132, 180.9626
756.2953, 181.3958
756.7774, 181.7690
757.2595, 182.1151
757.7416, 182.4756
758.2238, 182.7793
758.7059, 182.7758
759.1880, 182.7684
759.6701, 183.4358
760.1522, 184.9491
760.6343, 186.6204
761.1165, 188.3128
761.5986, 190.0478
762.0807, 192.0718
762.5628, 194.2802
763.0449, 196.0398
763.5270, 196.4617
764.0092, 196.8286
764.4913, 198.6438
764.9734, 201.4484
765.4555, 203.8444
765.9376, 204.9036
766.4197, 205.8815
766.9019, 207.1079
767.3840, 208.5809
767.8661, 210.4019
768.3482, 212.7937
768.8303, 214.8307
769.3124, 215.8859
769.7946, 216.3723
770.2767, 217.7980
770.7588, 220.1053
771.2409, 222.7561
771.7230, 225.6956
772.2051, 228.6320
772.6873, 231.1682
773.1694, 233.3819
773.6515, 235.7884
774.1336, 237.6400
774.6157, 240.6881
775.0978, 246.4849
775.5800, 254.8457
776.0621, 260.5643
776.5442, 262.8597
777.0263, 264.7366
777.5084, 267.4827
777.9905, 271.1222
778.4727, 276.0980
778.9548, 282.3344
779.4369, 288.5037
779.9190, 293.6296
780.4011, 298.2330
780.8832, 302.8334
781.3654, 307.4312
781.8475, 312.0602
782.3296, 316.2121
782.8117, 320.8796
783.2938, 326.6570
783.7759, 333.6425
784.2581, 340.6831
784.7402, 347.8304
785.2223, 354.7414
785.7044, 361.2043
786.1865, 367.2552
786.6686, 373.1468
787.1508, 378.9206
787.6329, 384.8538
788.1150, 392.3724
788.5971, 399.5087
789.0792, 403.6825
789.5613, 404.2930
790.0435, 405.8671
790.5256, 411.1096
791.0077, 416.1645
791.4898, 418.7900
791.9719, 418.4396
792.4540, 419.5872
792.9362, 422.6198
793.4183, 425.4408
793.9004, 425.8202
794.3825, 424.6190
794.8646, 424.6344
795.3467, 426.0913
795.8289, 426.5931
796.3110, 423.8675
796.7931, 419.8004
797.2752, 415.7455
797.7573, 411.6354
798.2394, 408.5861
798.7216, 407.0675
799.2037, 406.2128
799.6858, 405.7807
800.1679, 405.9803
800.6500, 404.7120
801.1321, 401.7426
801.6143, 398.6854
802.0964, 397.8936
802.5785, 397.8089
803.0606, 394.7549
803.5427, 388.0982
804.0248, 382.2286
804.5070, 380.7756
804.9891, 380.3669
805.4712, 378.4186
805.9533, 374.0819
806.4354, 369.7823
806.9175, 365.2838
807.3997, 361.1897
807.8818, 358.2137
808.3639, 356.3388
808.8460, 353.5130
809.3281, 349.5914
809.8102, 345.6735
810.2924, 342.4576
810.7745, 339.9888
811.2566, 338.7619
811.7387, 339.0662
812.2208, 338.3760
812.7029, 334.4528
813.1851, 330.0776
813.6672, 327.4500
814.1493, 327.4201
814.6314, 325.2920
815.1135, 320.3428
815.5956, 315.1407
816.0778, 311.8077
816.5599, 310.0304
817.0420, 308.5384
817.5241, 307.2582
818.0062, 306.1518
818.4883, 304.9926
818.9705, 304.0873
819.4526, 303.7979
819.9347, 304.2229
820.4168, 304.8050
820.8989, 306.4967
821.3810, 307.2871
821.8632, 305.6708
822.3453, 301.2000
822.8274, 298.9962
823.3095, 299.3643
823.7916, 300.3736
824.2737, 300.3714
824.7559, 299.9607
825.2380, 300.8155
825.7201, 302.9538
826.2022, 304.0865
826.6843, 301.4320
827.1664, 298.3777
827.6486, 297.3307
828.1307, 298.8315
828.6128, 299.9892
829.0949, 300.4698
829.5770, 301.1749
830.0591, 302.8477
830.5413, 305.3310
831.0234, 306.8788
831.5055, 307.4977
831.9876, 307.8283
832.4697, 307.6532
832.9518, 307.8656
833.4340, 309.8230
833.9161, 313.4522
834.3982, 316.7442
834.8803, 319.1217
835.3624, 320.8514
835.8445, 321.8228
836.3267, 322.0947
836.8088, 323.3130
837.2909, 325.6705
837.7730, 328.0744
838.2551, 329.7879
838.7372, 331.1517
839.2194, 333.2512
839.7015, 335.9091
840.1836, 338.0938
840.6657, 338.9318
841.1478, 339.3611
841.6299, 339.3290
842.1121, 339.1156
842.5942, 340.9032
843.0763, 346.1566
843.5584, 350.9614
844.0405, 354.0948
844.5226, 355.8420
845.0048, 357.0225
845.4869, 357.6887
845.9690, 358.7019
846.4511, 361.1681
846.9332, 363.6145
847.4153, 364.1024
847.8975, 363.2296
848.3796, 362.6832
848.8617, 362.9301
849.3438, 363.7863
849.8259, 366.0079
850.3080, 368.5923
850.7902, 368.5239
851.2723, 365.2729
851.7544, 362.6351
852.2365, 361.8575
852.7186, 361.9947
853.2007, 362.1073
853.6829, 361.7703
854.1650, 359.8035
854.6471, 354.5700
855.1292, 349.0945
855.6113, 344.7072
856.0934, 341.0863
856.5756, 337.5947
857.0577, 334.4676
857.5398, 330.8264
858.0219, 326.4035
858.5040, 321.5921
858.9861, 317.1313
859.4683, 312.9142
859.9504, 308.4046
860.4325, 303.4434
860.9146, 298.4037
861.3967, 293.1643
861.8788, 288.3236
862.3610, 284.6528
862.8431, 283.5712
863.3252, 281.4830
863.8073, 277.5453
864.2894, 273.1158
864.7715, 269.5254
865.2537, 266.8073
865.7358, 264.4127
866.2179, 262.3304
866.7000, 260.2582
867.1821, 257.7137
867.6642, 255.0475
868.1464, 252.9741
868.6285, 251.7187
869.1106, 250.0108
869.5927, 246.8114
870.0748, 243.4090
870.5569, 240.5003
871.0391, 237.9810
871.5212, 236.9477
872.0033, 237.7542
872.4854, 238.6274
872.9675, 238.1590
873.4496, 236.7658
873.9318, 235.4260
874.4139, 234.1523
874.8960, 232.7104
875.3781, 231.2423
875.8602, 229.3201
876.3423, 226.2845
876.8245, 222.1876
877.3066, 219.2996
877.7887, 217.9417
878.2708, 217.1298
878.7529, 216.7355
879.2350, 216.4892
879.7172, 215.4353
880.1993, 213.6419
880.6814, 211.4487
881.1635, 208.5156
881.6456, 205.7263
882.1277, 203.7037
882.6099, 202.3523
883.0920, 201.3919
883.5741, 201.2548
884.0562, 200.7742
884.5383, 199.5687
885.0204, 198.0556
885.5026, 197.2563
885.9847, 197.1098
886.4668, 196.8078
886.9489, 196.2128
887.4310, 195.1434
887.9131, 193.0299
888.3953, 190.4444
888.8774, 188.2286
889.3595, 186.7478
889.8416, 185.4811
890.3237, 184.4512
890.8058, 183.5175
891.2880, 182.4744
891.7701, 181.2996
892.2522, 180.5090
892.7343, 180.2309
893.2164, 179.7835
893.6985, 177.8089
894.1807, 175.4858
894.6628, 174.7878
895.1449, 176.3023
895.6270, 177.3266
896.1091, 176.7760
896.5912, 175.5111
897.0734, 174.0291
897.5555, 172.3438
898.0376, 170.2429
898.5197, 167.5842
899.0018, 165.4867
899.4839, 165.1367
899.9661, 165.7460
900.4482, 165.8463
900.9303, 165.4937
901.4124, 165.2609
901.8945, 165.7129
902.3766, 166.0682
902.8588, 165.7823
903.3409, 165.0415
903.8230, 164.7473
904.3051, 165.0227
904.7872, 165.2522
905.2693, 165.2696
905.7515, 165.0720
906.2336, 164.7192
906.7157, 164.1519
907.1978, 163.1676
907.6799, 160.6875
908.1620, 159.0376
908.6442, 160.1634
909.1263, 162.4935
909.6084, 163.3516
910.0905, 162.0467
910.5726, 160.9677
911.0547, 160.2623
911.5369, 159.9698
912.0190, 160.7491
912.5011, 161.9535
912.9832, 161.3537
913.4653, 158.2320
913.9474, 155.5959
914.4296, 155.7966
914.9117, 157.0105
915.3938, 157.6785
915.8759, 157.4697
916.3580, 157.7335
916.8401, 158.7376
917.3223, 159.5440
917.8044, 159.6309
918.2865, 158.9911
918.7686, 157.1909
919.2507, 154.3947
919.7328, 152.0662
920.2150, 151.1008
920.6971, 150.9148
921.1792, 151.3902
921.6613, 152.4167
922.1434, 153.3306
922.6255, 154.4757
923.1077, 154.6080
923.5898, 153.0135
924.0719, 150.5684
924.5540, 149.1419
925.0361, 148.6263
925.5182, 148.6472
926.0004, 149.3489
926.4825, 150.0606
926.9646, 150.1098
927.4467, 149.9908
927.9288, 150.5280
928.4109, 152.5934
928.8931, 153.5248
929.3752, 152.9083
929.8573, 151.7205
930.3394, 150.9380
930.8215, 150.5092
931.3036, 150.2659
931.7858, 150.2008
932.2679, 150.1469
932.7500, 150.1442
933.2321, 149.9928
933.7142, 149.3994
934.1964, 148.2375
934.6785, 147.7210
935.1606, 148.1497
935.6427, 148.4931
936.1248, 148.0577
936.6069, 147.1666
937.0891, 147.0853
937.5712, 147.6370
938.0533, 147.9433
938.5354, 147.5279
939.0175, 146.7221
939.4996, 145.3713
939.9818, 143.7813
940.4639, 142.7612
940.9460, 142.1880
941.4281, 142.8053
941.9102, 145.3912
942.3923, 147.9710
942.8745, 146.2614
943.3566, 141.9066
943.8387, 139.9906
944.3208, 142.3925
944.8029, 144.9422
945.2850, 145.5271
945.7672, 145.0015
946.2493, 143.9243
946.7314, 141.8771
947.2135, 141.4335
947.6956, 143.0262
948.1777, 144.7495
948.6599, 145.1985
949.1420, 144.6430
949.6241, 143.2944
950.1062, 141.3360
950.5883, 140.0380
951.0704, 140.6628
951.5526, 141.5504
952.0347, 141.9148
952.5168, 141.8408
952.9989, 141.6790
953.4810, 141.4520
953.9631, 140.9752
954.4453, 140.0461
954.9274, 139.1131
955.4095, 139.1759
955.8916, 139.7703
956.3737, 139.7954
956.8558, 138.1144
957.3380, 137.3278
957.8201, 139.4859
958.3022, 142.1589
958.7843, 142.9436
959.2664, 141.3727
959.7485, 140.6628
960.2307, 141.0165
960.7128, 141.4415
961.1949, 140.7474
961.6770, 139.7362
962.1591, 139.8013
962.6412, 140.9416
963.1234, 141.5425
963.6055, 140.4834
964.0876, 139.3983
964.5697, 138.9117
965.0518, 138.8559
965.5339, 138.2803
966.0161, 137.1839
966.4982, 136.8094
966.9803, 137.9878
967.4624, 139.5076
967.9445, 139.9210
968.4266, 139.7468
968.9088, 139.8342
969.3909, 141.3165
969.8730, 141.6747
970.3551, 140.1091
970.8372, 138.2396
971.3193, 137.9505
971.8015, 139.0285
972.2836, 139.2362
972.7657, 138.3753
973.2478, 137.6747
973.7299, 138.5363
974.2120, 139.6315
974.6942, 139.8161
975.1763, 138.9854
975.6584, 138.0761
976.1405, 136.8752
976.6226, 136.1778
977.1047, 136.4784
977.5869, 137.3071
978.0690, 137.3840
978.5511, 136.8417
979.0332, 136.1398
979.5153, 134.9012
979.9974, 134.3592
980.4796, 135.9354
980.9617, 138.2717
981.4438, 139.3954
981.9259, 138.7645
982.4080, 138.5777
982.8901, 139.0537
983.3723, 139.5437
983.8544, 139.3293
984.3365, 138.6917
984.8186, 138.2547
985.3007, 138.0516
985.7828, 137.4389
986.2650, 135.1590
986.7471, 133.4639
987.2292, 133.6038
987.7113, 135.1426
988.1934, 135.5741
988.6755, 134.8234
989.1577, 134.7631
989.6398, 136.3993
990.1219, 138.5605
990.6040, 140.4290
991.0861, 141.6727
991.5682, 141.7137
992.0504, 139.3616
992.5325, 137.2876
993.0146, 135.3820
993.4967, 134.2164
993.9788, 134.8013
994.4609, 136.8280
994.9431, 137.1495
995.4252, 135.6174
995.9073, 134.7205
996.3894, 137.9731
996.8715, 141.1390
997.3536, 140.1582
997.8358, 135.3714
998.3179, 133.4668
998.8000, 135.8207
999.2821, 137.7508
999.7642, 137.7834
1000.246, 136.7988
1000.728, 136.2653
1001.211, 136.1800
1001.693, 136.6391
1002.175, 138.0372
1002.657, 139.1741
1003.139, 139.6360
1003.621, 139.4933
1004.103, 138.7512
1004.585, 137.2635
1005.068, 135.8628
1005.550, 134.4739
1006.032, 133.7927
1006.514, 135.0269
1006.996, 136.8158
1007.478, 137.7180
1007.960, 137.6628
1008.442, 136.7159
1008.924, 132.5738
1009.407, 130.7636
1009.889, 133.4451
1010.371, 138.0723
1010.853, 138.9671
1011.335, 136.7464
1011.817, 135.5043
1012.299, 136.3968
1012.781, 137.4828
1013.263, 137.7111
1013.746, 137.1747
1014.228, 135.5353
1014.710, 132.2102
1015.192, 131.4320
1015.674, 133.9724
1016.156, 136.5628
1016.638, 136.9577
1017.120, 136.1603
1017.603, 136.3351
1018.085, 137.2457
1018.567, 138.0564
1019.049, 138.3754
1019.531, 138.5520
1020.013, 138.6842
1020.495, 138.7370
1020.977, 138.6988
1021.459, 138.5725
1021.942, 137.9672
1022.424, 136.7411
1022.906, 135.7494
1023.388, 136.3018
1023.870, 137.1371
1024.352, 136.8024
1024.834, 135.0396
1025.316, 133.9301
1025.799, 133.9198
1026.281, 133.8823
1026.763, 133.1330
1027.245, 132.2618
1027.727, 133.2121
1028.209, 135.4046
1028.691, 136.8569
1029.173, 136.1697
1029.656, 135.5905
1030.138, 137.0474
1030.620, 138.5385
1031.102, 137.5484
1031.584, 133.1503
1032.066, 131.8743
1032.548, 134.1070
1033.030, 136.9253
1033.512, 138.2037
1033.995, 138.4980
1034.477, 138.2796
1034.959, 137.6241
1035.441, 136.7585
1035.923, 135.1504
1036.405, 134.2663
1036.887, 134.6474
1037.369, 135.5986
1037.851, 135.7521
1038.334, 135.2868
1038.816, 134.9084
1039.298, 134.8076
1039.780, 134.6575
1040.262, 133.4492
1040.744, 132.7642
1041.226, 134.5028
1041.708, 138.9730
1042.191, 139.6243
1042.673, 135.9627
1043.155, 132.8690
1043.637, 133.7913
1044.119, 136.0635
1044.601, 136.0558
1045.083, 134.4815
1045.565, 132.9786
1046.047, 131.7046
1046.530, 131.0401
1047.012, 131.1786
1047.494, 131.6766
1047.976, 132.0818
1048.458, 132.4212
1048.940, 132.6868
1049.422, 132.8930
1049.904, 133.4870
1050.386, 135.6754
1050.869, 137.4842
1051.351, 137.2191
1051.833, 135.4910
1052.315, 134.7053
1052.797, 134.9124
1053.279, 135.9231
1053.761, 138.1757
1054.243, 139.9225
1054.726, 138.0565
1055.208, 134.6704
1055.690, 132.7369
1056.172, 133.2855
1056.654, 134.0236
1057.136, 134.9692
1057.618, 135.6099
1058.100, 135.3292
1058.583, 134.5508
1059.065, 135.4853
1059.547, 137.6299
1060.029, 138.6593
1060.511, 135.7035
1060.993, 133.2903
1061.475, 134.0920
1061.957, 136.1541
1062.439, 136.7023
1062.922, 135.4957
1063.404, 135.0750
1063.886, 135.7255
1064.368, 136.3331
1064.850, 135.7909
1065.332, 134.7964
1065.814, 134.0689
1066.296, 133.6261
1066.778, 132.8250
1067.261, 130.9833
1067.743, 130.2252
1068.225, 131.3365
1068.707, 133.3900
1069.189, 135.2028
1069.671, 136.5151
1070.153, 136.4412
1070.635, 134.2673
1071.118, 132.6031
1071.600, 132.7774
1072.082, 133.5767
1072.564, 134.4005
1073.046, 135.2463
1073.528, 136.4844
1074.010, 138.0129
1074.492, 138.4387
1074.974, 135.9191
1075.457, 133.2702
1075.939, 132.3049
1076.421, 132.7271
1076.903, 134.2599
1077.385, 137.8254
1077.867, 139.1289
1078.349, 137.4722
1078.831, 135.7126
1079.313, 137.3379
1079.796, 140.0833
1080.278, 140.1837
1080.760, 137.8729
1081.242, 136.1025
1081.724, 136.5669
1082.206, 136.5827
1082.688, 135.3858
1083.170, 133.7803
1083.652, 133.2447
1084.135, 133.5865
1084.617, 134.1589
1085.099, 134.8730
1085.581, 135.5628
1086.063, 136.6037
1086.545, 137.1165
1087.027, 136.2871
1087.509, 134.3350
1087.992, 133.6112
1088.474, 134.1319
1088.956, 134.4385
1089.438, 133.6202
1089.920, 132.9057
1090.402, 133.8507
1090.884, 135.4953
1091.366, 136.4989
1091.849, 136.4171
1092.331, 136.4537
1092.813, 136.6795
1093.295, 136.7835
1093.777, 136.2919
1094.259, 135.6420
1094.741, 135.7915
1095.223, 136.5250
1095.705, 137.0643
1096.188, 136.9849
1096.670, 136.8519
1097.152, 136.7546
1097.634, 136.6498
1098.116, 136.3620
1098.598, 135.9962
1099.080, 136.3768
1099.562, 137.5542
1100.044, 137.8751
1100.527, 134.4354
1101.009, 131.8066
1101.491, 133.4614
1101.973, 137.6960
1102.455, 138.9479
1102.937, 137.1969
1103.419, 135.6272
1103.901, 134.9560
1104.384, 134.9822
1104.866, 136.0293
1105.348, 137.3490
1105.830, 138.2976
1106.312, 138.8190
1106.794, 138.3881
1107.276, 136.5716
1107.758, 135.5490
1108.240, 136.5566
1108.723, 138.6136
1109.205, 141.1735
1109.687, 143.3992
1110.169, 143.5712
1110.651, 138.7858
1111.133, 136.6151
1111.615, 138.6351
1112.097, 141.3109
1112.579, 141.8652
1113.062, 140.8640
1113.544, 140.0913
1114.026, 139.5688
1114.508, 139.3421
1114.990, 140.3153
1115.472, 140.4535
1115.954, 138.6479
1116.436, 136.1070
1116.919, 134.2255
1117.401, 132.9825
1117.883, 132.2687
1118.365, 132.0749
1118.847, 132.4432
1119.329, 134.0414
1119.811, 135.6174
1120.293, 136.2067
1120.776, 136.0783
1121.258, 136.3623
1121.740, 137.1991
1122.222, 136.7620
1122.704, 134.2937
1123.186, 132.0988
1123.668, 133.1251
1124.150, 135.2705
1124.632, 136.2323
1125.115, 135.5932
1125.597, 135.5284
1126.079, 136.2247
1126.561, 136.9737
1127.043, 137.5741
1127.525, 137.9853
1128.007, 138.5391
1128.489, 138.7419
1128.971, 137.4865
1129.454, 133.3459
1129.936, 131.0617
1130.418, 131.6917
1130.900, 132.9150
1131.382, 133.3082
1131.864, 133.2340
1132.346, 134.2200
1132.828, 135.7663
1133.311, 136.2239
1133.793, 132.8157
1134.275, 131.0663
1134.757, 133.3018
1135.239, 136.4007
1135.721, 137.4077
1136.203, 136.5650
1136.685, 135.8430
1137.167, 135.3256
1137.650, 135.2740
1138.132, 136.5820
1138.614, 137.5832
1139.096, 137.1916
1139.578, 136.0901
1140.060, 135.2016
1140.542, 134.5149
1141.024, 134.6038
1141.506, 135.5867
1141.989, 136.2617
1142.471, 134.8340
1142.953, 133.4719
1143.435, 134.3820
1143.917, 136.9428
1144.399, 137.7724
1144.881, 136.5963
1145.363, 135.4854
1145.846, 134.8996
1146.328, 134.5205
1146.810, 134.0392
1147.292, 133.5683
1147.774, 133.0053
1148.256, 132.3170
1148.738, 133.1406
1149.220, 136.2047
1149.703, 138.1429
1150.185, 137.5285
1150.667, 135.7187
1151.149, 134.1138
1151.631, 132.9174
1152.113, 132.5400
1152.595, 133.3788
1153.077, 133.8937
1153.559, 133.6946
1154.042, 133.8878
1154.524, 135.4949
1155.006, 137.5107
1155.488, 137.3564
1155.970, 135.8153
1156.452, 134.8150
1156.934, 135.5908
1157.416, 135.7905
1157.898, 134.9314
1158.381, 133.8074
1158.863, 132.5835
1159.345, 131.6062
1159.827, 132.8954
1160.309, 135.8450
1160.791, 137.9822
1161.273, 137.9831
1161.755, 137.1636
1162.238, 134.9550
1162.720, 133.0953
1163.202, 134.3464
1163.684, 137.8867
1164.166, 137.6093
1164.648, 133.7254
1165.130, 130.8380
1165.612, 133.1246
1166.094, 135.1645
1166.577, 134.1277
1167.059, 131.8287
1167.541, 131.0777
1168.023, 131.7563
1168.505, 132.6327
1168.987, 133.5894
1169.469, 133.8970
1169.951, 131.9725
1170.433, 130.3094
1170.916, 130.8009
1171.398, 132.5944
1171.880, 133.7145
1172.362, 134.1715
1172.844, 134.2939
1173.326, 134.1311
1173.808, 133.7060
1174.290, 132.3613
1174.773, 131.3279
1175.255, 131.9439
1175.737, 133.8279
1176.219, 134.9950
1176.701, 135.4199
1177.183, 135.8811
1177.665, 136.6706
1178.147, 137.2949
1178.630, 137.0468
1179.112, 136.5718
1179.594, 136.4019
1180.076, 136.5703
1180.558, 137.5986
1181.040, 139.6594
1181.522, 140.9225
1182.004, 140.4346
1182.486, 139.4215
1182.969, 139.0807
1183.451, 139.0497
1183.933, 138.8888
1184.415, 138.5261
1184.897, 138.1612
1185.379, 137.7514
1185.861, 137.6003
1186.343, 138.0259
1186.825, 138.5667
1187.308, 138.5415
1187.790, 138.3100
1188.272, 138.5325
1188.754, 139.8128
1189.236, 139.6701
1189.718, 137.7144
1190.200, 136.3695
1190.682, 138.2900
1191.165, 140.8064
1191.647, 140.0998
1192.129, 137.4558
1192.611, 135.4402
1193.093, 134.6747
1193.575, 134.1905
1194.057, 133.9485
1194.539, 134.1011
1195.021, 134.8068
1195.504, 135.9478
1195.986, 137.8617
1196.468, 140.0697
1196.950, 141.1438
1197.432, 140.6627
1197.914, 139.3732
1198.396, 137.0644
1198.878, 134.8636
1199.360, 133.5828
1199.843, 133.2568
1200.325, 134.4912
1200.807, 136.8349
1201.289, 138.4300
1201.771, 138.5687
1202.253, 138.9649
1202.735, 140.0360
1203.217, 140.6543
1203.700, 138.9971
1204.182, 136.4386
1204.664, 134.7141
1205.146, 133.9520
1205.628, 134.0890
1206.110, 135.4689
1206.592, 136.9883
1207.074, 138.7501
1207.557, 139.8130
1208.039, 138.3602
1208.521, 135.8199
1209.003, 134.1644
1209.485, 133.5405
1209.967, 133.2092
1210.449, 132.5929
1210.931, 133.5688
1211.413, 137.2227
1211.896, 140.7645
1212.378, 139.4573
1212.860, 136.1918
1213.342, 135.5005
1213.824, 137.8855
1214.306, 139.1119
1214.788, 138.3923
1215.270, 137.4895
1215.752, 136.7430
1216.235, 136.3324
1216.717, 136.9524
1217.199, 137.8539
1217.681, 137.6565
1218.163, 138.0564
1218.645, 138.7351
1219.127, 137.9487
1219.609, 139.3733
1220.092, 139.1057
1220.574, 137.9543
1221.056, 136.5278
1221.538, 135.2933
1222.020, 134.9572
1222.502, 135.7304
1222.984, 137.0121
1223.466, 139.1286
1223.948, 140.4118
1224.431, 139.9325
1224.913, 138.9793
1225.395, 139.6234
1225.877, 140.8994
1226.359, 141.4141
1226.841, 140.7175
1227.323, 140.4889
1227.805, 141.0071
1228.287, 140.7774
1228.770, 138.6570
1229.252, 136.4406
1229.734, 137.0001
1230.216, 138.8177
1230.698, 139.8355
1231.180, 139.5819
1231.662, 139.3752
1232.144, 139.2133
1232.627, 139.1262
1233.109, 139.2192
1233.591, 139.2417
1234.073, 138.7005
1234.555, 138.0022
1235.037, 137.7759
1235.519, 138.2165
1236.001, 138.0564
1236.484, 137.1650
1236.966, 136.9606
1237.448, 138.9593
1237.930, 140.7132
1238.412, 138.8674
1238.894, 135.7082
1239.376, 134.5583
1239.858, 135.8971
1240.340, 136.1087
1240.823, 135.1065
1241.305, 134.8518
1241.787, 137.2214
1242.269, 139.5547
1242.751, 139.0406
1243.233, 140.1549
1243.715, 137.3117
1244.197, 138.9109
1244.679, 138.2357
1245.162, 135.3541
1245.644, 133.8079
1246.126, 136.6942
1246.608, 139.9515
1247.090, 141.2709
1247.572, 141.1476
1248.054, 140.0187
1248.536, 137.7912
1249.019, 137.1622
1249.501, 138.0072
1249.983, 138.9604
1250.465, 139.3997
1250.947, 139.5892
1251.429, 139.5521
1251.911, 139.4028
1252.393, 139.1811
1252.875, 138.9023
1253.358, 138.8622
1253.840, 139.0720
1254.322, 139.6094
1254.804, 141.3152
1255.286, 142.3085
1255.768, 142.0625
1256.250, 140.7250
1256.732, 137.2694
1257.214, 132.5686
1257.697, 133.0007
1258.179, 137.4739
1258.661, 140.8576
1259.143, 139.6181
1259.625, 138.8381
1260.107, 139.7322
1260.589, 140.9416
1261.071, 141.1692
1261.554, 140.8256
1262.036, 141.6913
1262.518, 143.1936
1263.000, 143.3926
1263.482, 139.7360
1263.964, 137.5805
1264.446, 137.6213
1264.928, 138.5876
1265.411, 140.0363
1265.893, 141.3449
1266.375, 140.7171
1266.857, 141.5776
1267.339, 141.9531
1267.821, 141.1122
1268.303, 142.0454
1268.785, 140.7173
1269.267, 139.0680
1269.750, 138.3954
1270.232, 138.4834
1270.714, 139.7387
1271.196, 141.4090
1271.678, 141.5946
1272.160, 139.4977
1272.642, 138.2038
1273.124, 137.8624
1273.606, 137.6779
1274.089, 137.1413
1274.571, 136.4417
1275.053, 135.3145
1275.535, 134.3433
1276.017, 134.6123
1276.499, 136.4158
1276.981, 137.3777
1277.463, 137.4631
1277.946, 137.6601
1278.428, 138.9086
1278.910, 140.1382
1279.392, 140.6897
1279.874, 140.8309
1280.356, 140.8936
1280.838, 140.8750
1281.320, 140.4992
1281.802, 139.8137
1282.285, 139.2349
1282.767, 138.2227
1283.249, 138.4205
1283.731, 141.9314
1284.213, 145.2303
1284.695, 144.6193
1285.177, 141.0770
1285.659, 138.8927
1286.141, 138.0545
1286.624, 138.3831
1287.106, 141.6291
1287.588, 143.1249
1288.070, 141.6115
1288.552, 139.7774
1289.034, 140.2861
1289.516, 141.8800
1289.998, 141.3423
1290.481, 139.5398
1290.963, 138.7389
1291.445, 140.6637
1291.927, 141.6882
1292.409, 141.6743
1292.891, 141.2510
1293.373, 140.5867
1293.855, 140.0007
1294.338, 139.7204
1294.820, 139.8731
1295.302, 140.9184
1295.784, 143.4517
1296.266, 144.2398
1296.748, 143.2014
1297.230, 141.8590
1297.712, 140.5602
1298.194, 139.9958
1298.677, 142.1545
1299.159, 144.3679
1299.641, 142.9418
1300.123, 137.7100
1300.605, 136.0710
1301.087, 137.6528
1301.569, 139.1071
1302.051, 138.2532
1302.533, 137.6748
1303.016, 138.2227
##END=



