##NAMES=Kovdorskite
##RRUFFID=R050505
##IDEAL CHEMISTRY=Mg_2_PO_4_(OH)&#183;3H_2_O
##LOCALITY=Kovdor Massif, Kola Peninsula, Russia
##OWNER=RRUFF
##SOURCE=Bob Downs
##DESCRIPTION=Colorless prismatic crystals, slightly pink in color when viewed in bulk. This sample was used in the structural study by Morrison et al (2012)
##STATUS=The identification of this mineral has been confirmed by X-ray diffraction and chemical analysis
##URL=rruff.info/R050505
##MEASURED CHEMISTRY=Mg_2.00_P_1.00_O_4_(OH)Â·2.67H_2_O ; trace amounts of Mn; H_2_O estimated by difference
92.37695, 659.4570
92.85907, 663.7101
93.34119, 664.4018
93.82330, 656.1577
94.30542, 641.7870
94.78754, 622.4689
95.26965, 600.1006
95.75177, 579.2592
96.23389, 562.2231
96.71600, 547.2425
97.19812, 533.0968
97.68024, 519.7148
98.16235, 507.0988
98.64447, 495.1961
99.12659, 483.8939
99.60870, 472.3932
100.0908, 461.4222
100.5729, 451.4544
101.0551, 442.9177
101.5372, 435.9587
102.0193, 430.2640
102.5014, 424.7273
102.9835, 417.8042
103.4656, 412.4902
103.9478, 409.9911
104.4299, 409.4257
104.9120, 409.2783
105.3941, 408.4341
105.8762, 406.8579
106.3583, 404.2653
106.8405, 399.6644
107.3226, 394.9364
107.8047, 390.9183
108.2868, 387.7543
108.7689, 385.4316
109.2510, 384.2631
109.7332, 384.3456
110.2153, 383.9583
110.6974, 381.7417
111.1795, 379.1944
111.6616, 378.9228
112.1437, 382.1849
112.6259, 386.3112
113.1080, 388.3891
113.5901, 388.5826
114.0722, 388.3633
114.5543, 388.5448
115.0364, 389.1068
115.5185, 389.6209
116.0007, 389.5676
116.4828, 389.7940
116.9649, 390.7841
117.4470, 392.6146
117.9291, 395.1205
118.4112, 398.4273
118.8934, 403.4563
119.3755, 406.8891
119.8576, 407.8126
120.3397, 407.5936
120.8218, 407.4962
121.3039, 408.0105
121.7861, 408.4243
122.2682, 406.6526
122.7503, 399.2160
123.2324, 393.2013
123.7145, 389.5866
124.1966, 387.6107
124.6788, 386.1256
125.1609, 384.4175
125.6430, 382.6353
126.1251, 382.1080
126.6072, 382.1571
127.0893, 383.6923
127.5715, 387.2421
128.0536, 392.7017
128.5357, 399.4007
129.0178, 406.8069
129.4999, 415.2727
129.9821, 425.5449
130.4642, 437.3239
130.9463, 451.1832
131.4284, 468.6918
131.9105, 490.6885
132.3926, 512.6570
132.8748, 536.0130
133.3569, 557.3796
133.8390, 567.8025
134.3211, 561.1321
134.8032, 540.2653
135.2853, 513.9559
135.7674, 477.1945
136.2496, 441.8635
136.7317, 412.3422
137.2138, 388.5620
137.6959, 370.1880
138.1780, 357.5720
138.6601, 351.0957
139.1423, 346.4052
139.6244, 344.4496
140.1065, 343.5763
140.5886, 342.1797
141.0707, 345.1296
141.5528, 347.3958
142.0350, 349.0152
142.5171, 348.0497
142.9992, 350.4218
143.4813, 351.4563
143.9634, 352.4360
144.4455, 353.4577
144.9277, 355.0122
145.4098, 357.4236
145.8919, 360.2870
146.3740, 363.5555
146.8561, 367.4909
147.3382, 372.0801
147.8204, 377.3629
148.3025, 383.5374
148.7846, 390.7738
149.2667, 398.5974
149.7488, 405.8120
150.2309, 411.6485
150.7131, 419.1833
151.1952, 429.9019
151.6773, 443.3065
152.1594, 457.5038
152.6415, 471.2991
153.1236, 486.3950
153.6058, 504.7672
154.0879, 526.7292
154.5700, 550.7393
155.0521, 576.3302
155.5342, 603.5213
156.0163, 629.8270
156.4985, 656.2477
156.9806, 679.9101
157.4627, 698.9231
157.9448, 713.2171
158.4269, 721.0455
158.9090, 719.7860
159.3912, 708.8099
159.8733, 689.1485
160.3554, 658.2159
160.8375, 621.5505
161.3196, 582.4391
161.8017, 542.1269
162.2839, 502.0606
162.7660, 466.9209
163.2481, 438.6120
163.7302, 413.3544
164.2123, 390.7162
164.6944, 370.4594
165.1766, 352.5332
165.6587, 336.8106
166.1408, 323.2954
166.6229, 311.7323
167.1050, 303.2257
167.5871, 295.4324
168.0693, 287.8475
168.5514, 280.6176
169.0335, 274.0714
169.5156, 268.4508
169.9977, 263.7161
170.4798, 259.6306
170.9620, 255.8349
171.4441, 252.8475
171.9262, 251.3863
172.4083, 251.1507
172.8904, 250.8335
173.3725, 249.5025
173.8547, 247.1739
174.3368, 244.8069
174.8189, 242.0397
175.3010, 239.4653
175.7831, 237.6541
176.2652, 236.6366
176.7474, 235.8650
177.2295, 234.9255
177.7116, 233.9341
178.1937, 233.2168
178.6758, 232.8401
179.1579, 232.7737
179.6401, 233.1172
180.1222, 234.0841
180.6043, 234.8173
181.0864, 234.2425
181.5685, 233.1180
182.0506, 232.7760
182.5328, 234.4930
183.0149, 237.3625
183.4970, 238.4026
183.9791, 236.4515
184.4612, 234.3555
184.9433, 233.1468
185.4255, 232.6902
185.9076, 232.7725
186.3897, 233.4120
186.8718, 234.5355
187.3539, 235.3041
187.8360, 235.2104
188.3182, 235.2868
188.8003, 235.6770
189.2824, 236.4597
189.7645, 237.7650
190.2466, 239.7656
190.7287, 242.5083
191.2109, 244.9938
191.6930, 247.0319
192.1751, 249.0159
192.6572, 250.6685
193.1393, 252.2977
193.6214, 254.6593
194.1036, 258.5183
194.5857, 264.1805
195.0678, 268.9677
195.5499, 271.8806
196.0320, 275.0255
196.5141, 279.5756
196.9963, 285.3858
197.4784, 291.5750
197.9605, 297.4526
198.4426, 303.0430
198.9247, 307.2674
199.4068, 310.1266
199.8890, 311.7885
200.3711, 312.3565
200.8532, 311.8370
201.3353, 310.1508
201.8174, 307.0201
202.2995, 302.3019
202.7817, 297.4688
203.2638, 292.4095
203.7459, 287.3415
204.2280, 282.0463
204.7101, 276.4146
205.1922, 271.8703
205.6744, 270.3432
206.1565, 271.2505
206.6386, 271.9315
207.1207, 271.3092
207.6028, 270.3948
208.0849, 270.7128
208.5671, 272.6115
209.0492, 274.8389
209.5313, 276.1637
210.0134, 277.0348
210.4955, 278.4778
210.9776, 280.9594
211.4598, 284.2627
211.9419, 287.8921
212.4240, 291.7124
212.9061, 296.1505
213.3882, 301.8202
213.8703, 308.1977
214.3525, 314.3720
214.8346, 320.0331
215.3167, 325.1255
215.7988, 329.2060
216.2809, 331.5125
216.7630, 333.9770
217.2451, 337.5897
217.7273, 341.8893
218.2094, 346.1464
218.6915, 350.0923
219.1736, 353.6331
219.6557, 356.1112
220.1378, 356.9596
220.6200, 357.2903
221.1021, 357.3412
221.5842, 357.1641
222.0663, 356.6541
222.5484, 355.5276
223.0305, 354.0114
223.5127, 354.3106
223.9948, 357.5502
224.4769, 361.6543
224.9590, 366.6675
225.4411, 372.2169
225.9232, 377.8484
226.4054, 383.3567
226.8875, 388.6616
227.3696, 393.1604
227.8517, 399.3531
228.3338, 401.9872
228.8159, 399.6935
229.2981, 392.9865
229.7802, 382.5228
230.2623, 368.4245
230.7444, 351.0499
231.2265, 334.8135
231.7086, 319.8771
232.1908, 305.7837
232.6729, 291.5697
233.1550, 278.1117
233.6371, 267.1752
234.1192, 260.0002
234.6013, 256.1161
235.0835, 252.1675
235.5656, 247.2075
236.0477, 243.1659
236.5298, 241.0390
237.0119, 240.2809
237.4940, 239.8288
237.9762, 239.2622
238.4583, 238.3710
238.9404, 236.1276
239.4225, 231.2281
239.9046, 226.7078
240.3867, 223.6020
240.8689, 221.6623
241.3510, 220.4362
241.8331, 219.9126
242.3152, 219.7256
242.7973, 218.6703
243.2794, 215.7138
243.7616, 213.6321
244.2437, 214.1591
244.7258, 216.6118
245.2079, 219.0439
245.6900, 220.8501
246.1721, 221.9113
246.6543, 221.9079
247.1364, 220.2931
247.6185, 219.1742
248.1006, 219.7507
248.5827, 221.7252
249.0648, 224.1394
249.5470, 226.9701
250.0291, 229.7619
250.5112, 231.6245
250.9933, 232.3154
251.4754, 233.5879
251.9576, 236.9932
252.4397, 241.9869
252.9218, 246.2862
253.4039, 249.2721
253.8860, 251.3024
254.3681, 252.9771
254.8503, 254.3129
255.3324, 254.9742
255.8145, 255.0766
256.2966, 254.4461
256.7787, 252.0101
257.2608, 246.7308
257.7430, 240.6132
258.2251, 235.2780
258.7072, 230.6668
259.1893, 226.3805
259.6714, 221.8400
260.1535, 217.2848
260.6357, 214.0864
261.1178, 212.8993
261.5999, 212.5205
262.0820, 212.3791
262.5641, 212.3515
263.0462, 212.0773
263.5284, 210.9456
264.0105, 209.2202
264.4926, 208.4965
264.9747, 209.1976
265.4568, 210.3929
265.9389, 212.0095
266.4211, 213.7117
266.9032, 214.7751
267.3853, 214.4454
267.8674, 213.1553
268.3495, 212.8869
268.8316, 214.4177
269.3138, 215.8257
269.7959, 216.1976
270.2780, 216.0420
270.7601, 216.1922
271.2422, 217.2332
271.7243, 218.7353
272.2065, 219.1143
272.6886, 217.3408
273.1707, 216.1887
273.6528, 216.5818
274.1349, 217.8359
274.6170, 219.2616
275.0992, 220.5931
275.5813, 221.7572
276.0634, 222.5844
276.5455, 223.1471
277.0276, 223.1774
277.5097, 221.9601
277.9919, 220.6257
278.4740, 220.4108
278.9561, 221.7465
279.4382, 223.7302
279.9203, 224.6390
280.4024, 223.9316
280.8846, 223.2418
281.3667, 222.0392
281.8488, 221.3428
282.3309, 222.3723
282.8130, 225.2537
283.2951, 228.5399
283.7773, 229.8878
284.2594, 228.0661
284.7415, 227.3709
285.2236, 228.6875
285.7057, 230.3947
286.1878, 231.6486
286.6700, 232.2930
287.1521, 232.5686
287.6342, 232.5833
288.1163, 231.9840
288.5984, 232.5789
289.0805, 235.5508
289.5627, 238.5539
290.0448, 240.4415
290.5269, 241.3241
291.0090, 242.0500
291.4911, 243.4771
291.9732, 245.7258
292.4554, 247.0884
292.9375, 246.3109
293.4196, 245.9109
293.9017, 246.4270
294.3838, 247.9725
294.8659, 250.6740
295.3481, 254.7261
295.8302, 260.0202
296.3123, 264.8637
296.7944, 268.8906
297.2765, 272.8459
297.7586, 276.2698
298.2408, 279.8212
298.7229, 284.7027
299.2050, 291.6523
299.6871, 299.8526
300.1692, 306.0963
300.6513, 308.6646
301.1335, 311.1256
301.6156, 314.3690
302.0977, 317.3940
302.5798, 319.2544
303.0619, 319.5494
303.5440, 318.3126
304.0262, 315.5408
304.5083, 310.5881
304.9904, 304.8701
305.4725, 297.6360
305.9546, 290.1989
306.4367, 283.5079
306.9189, 277.8315
307.4010, 272.8723
307.8831, 268.2125
308.3652, 263.7580
308.8473, 259.9473
309.3294, 256.5573
309.8116, 253.8297
310.2937, 252.0097
310.7758, 251.0422
311.2579, 250.6572
311.7400, 250.6135
312.2221, 250.9284
312.7043, 251.4934
313.1864, 252.3999
313.6685, 253.4268
314.1506, 254.4912
314.6327, 255.6070
315.1148, 256.7993
315.5970, 258.0541
316.0791, 259.4010
316.5612, 261.2545
317.0433, 264.8427
317.5254, 267.5863
318.0075, 268.4439
318.4897, 268.2069
318.9718, 268.0704
319.4539, 268.6514
319.9360, 269.7168
320.4181, 270.5329
320.9002, 271.0953
321.3824, 271.3527
321.8645, 270.9525
322.3466, 270.4198
322.8287, 270.3553
323.3108, 270.9324
323.7929, 271.7379
324.2751, 272.0011
324.7572, 271.0391
325.2393, 270.8867
325.7214, 271.4470
326.2035, 272.7480
326.6856, 275.1841
327.1678, 278.5807
327.6499, 282.0281
328.1320, 284.4474
328.6141, 285.4536
329.0962, 287.3889
329.5783, 291.3032
330.0605, 295.0222
330.5426, 297.1536
331.0247, 298.2490
331.5068, 299.8869
331.9889, 303.3382
332.4710, 308.4681
332.9532, 313.0831
333.4353, 317.3983
333.9174, 320.9477
334.3995, 322.8917
334.8816, 324.1768
335.3637, 325.8636
335.8459, 328.4370
336.3280, 332.1637
336.8101, 337.8794
337.2922, 347.5628
337.7743, 356.4013
338.2564, 363.7036
338.7386, 370.2971
339.2206, 376.3716
339.7028, 382.1981
340.1849, 388.7420
340.6670, 397.8423
341.1491, 411.2396
341.6312, 422.7655
342.1133, 431.9078
342.5955, 439.8327
343.0776, 447.4480
343.5597, 454.5700
344.0418, 460.2373
344.5239, 463.6576
345.0060, 464.8454
345.4882, 463.5414
345.9703, 458.8109
346.4524, 452.2119
346.9345, 443.7599
347.4166, 433.7196
347.8987, 422.2467
348.3809, 409.3117
348.8630, 395.3275
349.3451, 382.3048
349.8272, 370.8952
350.3093, 359.2662
350.7914, 346.1293
351.2736, 333.0451
351.7557, 321.4881
352.2378, 311.9390
352.7199, 304.2985
353.2020, 298.7959
353.6841, 296.2433
354.1663, 293.3681
354.6484, 289.6329
355.1305, 285.6158
355.6126, 281.4536
356.0947, 277.2638
356.5768, 273.3600
357.0590, 270.0054
357.5411, 267.2201
358.0232, 264.9586
358.5053, 263.7064
358.9874, 262.4782
359.4695, 261.0058
359.9517, 259.2505
360.4338, 257.0742
360.9159, 254.0468
361.3980, 250.7773
361.8801, 249.2278
362.3622, 250.0169
362.8444, 251.2276
363.3265, 252.1715
363.8086, 253.1496
364.2907, 254.5400
364.7728, 256.5058
365.2549, 258.6591
365.7371, 260.5291
366.2192, 262.1067
366.7013, 263.5170
367.1834, 264.2585
367.6655, 265.3000
368.1476, 267.4083
368.6298, 270.5920
369.1119, 274.2047
369.5940, 277.9484
370.0761, 281.7708
370.5582, 285.4346
371.0403, 289.0696
371.5225, 292.2464
372.0046, 294.4305
372.4867, 295.9675
372.9688, 297.6781
373.4509, 300.1158
373.9330, 302.7367
374.4152, 304.9248
374.8973, 306.7334
375.3794, 307.5913
375.8615, 307.1873
376.3436, 305.5607
376.8257, 302.7792
377.3079, 298.6268
377.7900, 293.8350
378.2721, 288.6814
378.7542, 283.2601
379.2363, 278.0085
379.7184, 273.0695
380.2006, 268.2612
380.6827, 263.2484
381.1648, 258.0463
381.6469, 253.1189
382.1290, 248.1889
382.6111, 243.7688
383.0933, 241.0970
383.5754, 240.4032
384.0575, 239.3646
384.5396, 235.7003
385.0217, 229.8273
385.5038, 225.2974
385.9860, 223.0613
386.4681, 221.4473
386.9502, 219.3663
387.4323, 217.0403
387.9144, 215.3666
388.3965, 214.9453
388.8787, 215.1758
389.3608, 214.4130
389.8429, 212.2201
390.3250, 210.1584
390.8071, 208.2641
391.2892, 206.7892
391.7714, 206.2275
392.2535, 206.6548
392.7356, 207.3725
393.2177, 207.5548
393.6998, 207.0470
394.1819, 206.7227
394.6641, 206.6248
395.1462, 206.6511
395.6283, 206.9177
396.1104, 207.2847
396.5925, 207.3154
397.0746, 206.6577
397.5568, 205.5271
398.0389, 205.1265
398.5210, 206.3575
399.0031, 207.2510
399.4852, 207.1396
399.9673, 206.7913
400.4495, 207.0290
400.9316, 208.1157
401.4137, 209.7852
401.8958, 211.7227
402.3779, 214.2364
402.8600, 216.1491
403.3422, 216.9254
403.8243, 217.6746
404.3064, 218.8036
404.7885, 220.3923
405.2706, 222.5276
405.7527, 225.4331
406.2349, 228.9155
406.7170, 231.2399
407.1991, 231.5306
407.6812, 231.8395
408.1633, 232.7199
408.6454, 233.8444
409.1276, 234.9545
409.6097, 235.9655
410.0918, 236.6294
410.5739, 236.4978
411.0560, 235.4462
411.5381, 234.2633
412.0203, 232.6923
412.5024, 231.3471
412.9845, 230.8865
413.4666, 231.1089
413.9487, 231.0026
414.4308, 229.4122
414.9130, 226.8779
415.3951, 225.6774
415.8772, 226.4825
416.3593, 226.9689
416.8414, 225.1102
417.3235, 222.3615
417.8057, 220.7442
418.2878, 221.0285
418.7699, 221.9948
419.2520, 222.5076
419.7341, 222.6218
420.2162, 222.8819
420.6984, 223.4959
421.1805, 224.2637
421.6626, 224.7707
422.1447, 224.9953
422.6268, 225.7609
423.1089, 228.0440
423.5911, 230.7386
424.0732, 232.0405
424.5553, 231.7385
425.0374, 231.5772
425.5195, 232.7877
426.0016, 235.3454
426.4838, 238.3810
426.9659, 242.5982
427.4480, 246.5359
427.9301, 249.5565
428.4122, 251.8083
428.8943, 253.2760
429.3765, 253.8405
429.8586, 254.4989
430.3407, 257.0614
430.8228, 262.6608
431.3049, 267.8609
431.7870, 272.5233
432.2692, 276.8462
432.7513, 280.8607
433.2334, 284.6282
433.7155, 288.3506
434.1976, 292.1526
434.6797, 296.0327
435.1619, 300.0904
435.6440, 304.3138
436.1261, 308.7550
436.6082, 313.5607
437.0903, 318.5237
437.5724, 323.4469
438.0546, 328.2428
438.5367, 332.9657
439.0188, 337.7349
439.5009, 342.6436
439.9830, 347.2751
440.4651, 351.3062
440.9473, 355.3725
441.4294, 360.0219
441.9115, 364.9781
442.3936, 369.4020
442.8757, 372.5334
443.3578, 374.8368
443.8400, 377.7844
444.3221, 381.5483
444.8042, 385.5740
445.2863, 389.5397
445.7684, 393.7515
446.2505, 398.7275
446.7327, 404.6423
447.2148, 410.2678
447.6969, 414.4027
448.1790, 417.2361
448.6611, 419.8077
449.1432, 422.1557
449.6254, 424.4712
450.1075, 426.8992
450.5896, 429.4192
451.0717, 432.0208
451.5538, 435.5480
452.0359, 438.5363
452.5181, 439.4608
453.0002, 438.4717
453.4823, 436.5081
453.9644, 433.7475
454.4465, 430.5533
454.9286, 427.8291
455.4108, 425.9125
455.8929, 423.4394
456.3750, 420.6380
456.8571, 416.8416
457.3392, 410.6209
457.8214, 402.0630
458.3035, 393.5961
458.7856, 387.4936
459.2677, 383.7851
459.7498, 378.7703
460.2319, 372.2484
460.7141, 364.8884
461.1962, 355.8882
461.6783, 346.4651
462.1604, 338.3302
462.6425, 332.1254
463.1246, 327.2495
463.6068, 322.7882
464.0889, 319.0237
464.5710, 314.9943
465.0531, 310.8632
465.5352, 306.3505
466.0173, 300.5008
466.4995, 294.0926
466.9816, 289.1065
467.4637, 287.1243
467.9458, 287.1333
468.4279, 285.8270
468.9100, 282.6859
469.3922, 279.5586
469.8743, 276.9698
470.3564, 274.6086
470.8385, 272.2459
471.3206, 269.8465
471.8027, 267.5333
472.2849, 265.5081
472.7670, 263.6579
473.2491, 261.5260
473.7312, 258.9508
474.2133, 256.4388
474.6954, 254.3799
475.1776, 252.6540
475.6597, 251.0780
476.1418, 250.1011
476.6239, 248.6890
477.1060, 245.2373
477.5881, 240.6935
478.0703, 238.1304
478.5524, 238.8919
479.0345, 240.8406
479.5166, 240.8363
479.9987, 238.3361
480.4808, 236.3649
480.9630, 235.6627
481.4451, 235.0531
481.9272, 233.6311
482.4093, 231.5693
482.8914, 229.5697
483.3735, 228.0273
483.8557, 226.9041
484.3378, 226.0791
484.8199, 226.2719
485.3020, 225.7011
485.7841, 223.7941
486.2662, 221.4879
486.7484, 219.4465
487.2305, 217.7667
487.7126, 216.2112
488.1947, 214.4638
488.6768, 212.5759
489.1589, 211.4200
489.6411, 211.6032
490.1232, 211.5569
490.6053, 210.5939
491.0874, 209.2587
491.5695, 208.2197
492.0516, 207.6859
492.5338, 207.1748
493.0159, 206.0510
493.4980, 204.4109
493.9801, 203.2166
494.4622, 202.8132
494.9443, 202.4862
495.4265, 201.5292
495.9086, 200.1674
496.3907, 199.0369
496.8728, 198.2283
497.3549, 197.7602
497.8370, 198.0582
498.3192, 198.8066
498.8013, 198.7756
499.2834, 197.4382
499.7655, 195.2574
500.2476, 192.7248
500.7297, 189.3414
501.2119, 187.4822
501.6940, 188.1377
502.1761, 189.6710
502.6582, 191.5438
503.1403, 193.3308
503.6224, 194.0631
504.1045, 193.0155
504.5866, 189.0174
505.0688, 191.9024
505.5509, 193.6934
506.0330, 194.4493
506.5151, 191.0695
506.9972, 193.0301
507.4793, 192.8505
507.9615, 192.5831
508.4436, 195.2953
508.9257, 192.5171
509.4078, 195.1820
509.8899, 195.6741
510.3720, 197.1606
510.8542, 196.4939
511.3363, 195.5754
511.8184, 196.1503
512.3005, 196.6808
512.7827, 196.9811
513.2648, 197.5346
513.7469, 198.7127
514.2290, 200.4274
514.7111, 202.5747
515.1932, 205.2640
515.6754, 207.8381
516.1575, 209.9483
516.6396, 211.5036
517.1217, 212.2945
517.6038, 211.2284
518.0859, 210.6491
518.5681, 211.4776
519.0502, 213.5282
519.5323, 216.9412
520.0144, 221.7296
520.4965, 226.4097
520.9786, 229.0105
521.4608, 228.9753
521.9429, 230.2907
522.4250, 233.5864
522.9071, 237.3333
523.3892, 241.2427
523.8713, 245.1674
524.3535, 248.8429
524.8356, 252.1460
525.3177, 255.5378
525.7998, 259.9837
526.2819, 265.9069
526.7640, 270.6899
527.2462, 272.9188
527.7283, 275.2569
528.2104, 279.0328
528.6925, 283.8905
529.1746, 289.0028
529.6567, 294.2191
530.1389, 299.2037
530.6210, 303.3545
531.1031, 306.7144
531.5852, 310.1732
532.0673, 314.3963
532.5494, 318.1674
533.0316, 319.2038
533.5137, 317.7050
533.9958, 317.8216
534.4779, 321.8938
534.9600, 326.6333
535.4421, 330.1705
535.9243, 332.2274
536.4064, 332.1469
536.8885, 329.4226
537.3706, 325.3468
537.8527, 322.6947
538.3348, 322.3831
538.8170, 321.6784
539.2991, 321.1147
539.7812, 319.7254
540.2633, 316.2330
540.7454, 311.4053
541.2275, 307.3424
541.7097, 305.4767
542.1918, 304.6882
542.6739, 301.8820
543.1560, 296.3296
543.6381, 291.0309
544.1202, 286.1294
544.6024, 282.0675
545.0845, 279.7425
545.5666, 278.7599
546.0487, 277.2128
546.5308, 273.8315
547.0129, 269.3991
547.4951, 264.8706
547.9772, 260.2552
548.4593, 256.3566
548.9414, 253.7468
549.4235, 251.7726
549.9056, 249.1514
550.3878, 245.6653
550.8699, 242.8914
551.3520, 241.6404
551.8341, 240.8400
552.3162, 239.5674
552.7983, 237.9112
553.2805, 236.6133
553.7626, 236.1843
554.2447, 236.0515
554.7268, 234.4433
555.2089, 229.8530
555.6910, 226.4770
556.1732, 225.1227
556.6553, 224.2407
557.1374, 222.7947
557.6195, 220.9334
558.1016, 219.4761
558.5837, 219.0308
559.0659, 219.1683
559.5480, 218.9625
560.0301, 218.4323
560.5122, 217.4302
560.9943, 215.7269
561.4764, 213.6931
561.9586, 211.6964
562.4407, 209.7369
562.9228, 207.7189
563.4049, 205.0978
563.8870, 202.7517
564.3691, 201.8189
564.8513, 202.1199
565.3334, 202.6880
565.8155, 203.1879
566.2976, 203.4201
566.7797, 202.9292
567.2618, 201.0988
567.7440, 200.0019
568.2261, 200.5810
568.7082, 201.0298
569.1903, 199.7102
569.6724, 197.4347
570.1545, 196.3544
570.6367, 197.6934
571.1188, 200.1855
571.6009, 201.0458
572.0830, 199.7924
572.5651, 198.7668
573.0472, 198.3804
573.5294, 198.1184
574.0115, 197.6781
574.4936, 197.1308
574.9757, 196.7366
575.4578, 196.8167
575.9399, 196.8017
576.4221, 196.4115
576.9042, 195.4862
577.3863, 192.6441
577.8684, 186.9002
578.3505, 180.9111
578.8326, 178.0002
579.3148, 178.4482
579.7969, 178.1945
580.2790, 176.9351
580.7611, 175.1757
581.2432, 172.9435
581.7253, 170.4406
582.2075, 167.8258
582.6896, 165.1997
583.1717, 162.7854
583.6538, 160.9509
584.1359, 159.7800
584.6180, 158.5812
585.1002, 157.0196
585.5823, 155.8368
586.0643, 155.8949
586.5464, 156.2006
587.0286, 155.2250
587.5107, 152.4379
587.9928, 149.5312
588.4749, 148.1722
588.9570, 148.0491
589.4391, 148.0315
589.9213, 148.0558
590.4034, 147.9150
590.8855, 147.4310
591.3676, 146.6631
591.8497, 145.8486
592.3318, 144.5856
592.8140, 143.9353
593.2961, 144.8765
593.7782, 146.2395
594.2603, 146.7209
594.7424, 146.1888
595.2245, 145.1623
595.7067, 143.9819
596.1888, 142.7432
596.6709, 141.9982
597.1530, 141.8956
597.6351, 142.0546
598.1172, 142.7069
598.5994, 143.3494
599.0815, 143.6877
599.5636, 143.6749
600.0457, 143.3054
600.5278, 142.2990
601.0099, 141.1187
601.4921, 140.7453
601.9742, 141.1890
602.4563, 141.6440
602.9384, 141.8872
603.4205, 141.9412
603.9026, 141.7507
604.3848, 141.3023
604.8669, 141.0061
605.3490, 140.9409
605.8311, 141.0201
606.3132, 141.2660
606.7953, 141.6024
607.2775, 141.8764
607.7596, 142.0280
608.2417, 142.1308
608.7238, 142.3342
609.2059, 142.7269
609.6880, 142.7748
610.1702, 142.1941
610.6523, 141.5796
611.1344, 140.6484
611.6165, 139.9778
612.0986, 140.6118
612.5807, 142.9476
613.0629, 145.3121
613.5450, 146.1766
614.0271, 145.8178
614.5092, 145.0314
614.9913, 143.8417
615.4734, 142.5636
615.9556, 141.1187
616.4377, 139.8284
616.9198, 139.8775
617.4019, 142.4764
617.8840, 143.9863
618.3661, 142.4926
618.8483, 140.4602
619.3304, 140.4587
619.8125, 142.1924
620.2946, 143.4860
620.7767, 142.8693
621.2589, 140.9907
621.7410, 139.7204
622.2231, 139.1749
622.7052, 138.9075
623.1873, 139.5759
623.6694, 139.8376
624.1516, 138.2578
624.6337, 135.5934
625.1158, 134.1667
625.5979, 135.5361
626.0800, 137.5448
626.5621, 137.9567
627.0443, 137.1697
627.5264, 136.4559
628.0085, 136.0852
628.4906, 136.1714
628.9727, 137.0441
629.4548, 138.7032
629.9370, 139.2027
630.4191, 137.7026
630.9012, 136.2896
631.3833, 135.2561
631.8654, 134.6265
632.3475, 134.6386
632.8297, 135.1653
633.3118, 135.4623
633.7939, 134.6629
634.2760, 133.2146
634.7581, 133.1365
635.2402, 134.7922
635.7224, 136.4143
636.2045, 137.5951
636.6866, 138.3731
637.1687, 138.7635
637.6508, 138.7786
638.1329, 138.6710
638.6151, 138.7050
639.0972, 138.4852
639.5793, 137.4719
640.0614, 135.9453
640.5435, 134.5132
641.0256, 133.3931
641.5078, 132.8141
641.9899, 133.2591
642.4720, 134.9886
642.9541, 135.5963
643.4362, 134.2430
643.9183, 132.6870
644.4005, 130.5450
644.8826, 128.8076
645.3647, 129.0292
645.8468, 131.3432
646.3289, 133.3889
646.8110, 132.7057
647.2932, 130.4169
647.7753, 129.2987
648.2574, 129.4461
648.7395, 130.1456
649.2216, 131.2743
649.7037, 132.5429
650.1859, 133.4877
650.6680, 134.1771
651.1501, 134.2933
651.6322, 133.0953
652.1143, 132.0181
652.5964, 132.1568
653.0786, 132.9648
653.5607, 133.3554
654.0428, 132.9249
654.5249, 132.1186
655.0070, 131.4798
655.4891, 131.0080
655.9713, 130.7034
656.4534, 130.5358
656.9355, 130.5932
657.4176, 131.3128
657.8997, 132.1016
658.3818, 132.0728
658.8640, 130.9793
659.3461, 130.2832
659.8282, 131.0133
660.3103, 132.2329
660.7924, 132.8923
661.2745, 133.0321
661.7567, 133.2171
662.2388, 133.7427
662.7209, 134.3158
663.2030, 134.3824
663.6851, 133.8491
664.1672, 133.1098
664.6494, 131.6424
665.1315, 130.5322
665.6136, 130.1053
666.0957, 130.2740
666.5778, 131.0938
667.0599, 132.6167
667.5421, 133.9366
668.0242, 134.0273
668.5063, 133.3774
668.9884, 133.2552
669.4705, 133.7512
669.9526, 134.2191
670.4348, 134.4381
670.9169, 134.2394
671.3990, 133.1341
671.8811, 130.3298
672.3632, 128.5920
672.8453, 128.4049
673.3275, 128.8690
673.8096, 129.8250
674.2917, 130.9967
674.7738, 132.1140
675.2559, 133.0581
675.7380, 133.6359
676.2202, 133.4185
676.7023, 132.5062
677.1844, 131.9000
677.6665, 131.6337
678.1486, 131.6893
678.6307, 132.1985
679.1129, 132.9550
679.5950, 133.6370
680.0771, 134.3461
680.5592, 134.5741
681.0413, 134.0269
681.5234, 133.1021
682.0056, 131.4886
682.4877, 129.8053
682.9698, 129.6362
683.4519, 131.6325
683.9340, 134.3181
684.4161, 135.4585
684.8983, 134.9064
685.3804, 134.5320
685.8625, 134.5825
686.3446, 134.3764
686.8267, 133.1788
687.3088, 131.7960
687.7910, 131.2203
688.2731, 131.6191
688.7552, 132.0478
689.2373, 132.0946
689.7194, 131.9668
690.2015, 131.9334
690.6837, 131.9270
691.1658, 131.5947
691.6479, 130.7757
692.1300, 129.9100
692.6121, 129.6386
693.0942, 130.0096
693.5764, 130.6927
694.0585, 132.5410
694.5406, 133.5186
695.0227, 132.3551
695.5048, 130.5062
695.9869, 129.5976
696.4691, 129.8411
696.9512, 130.0395
697.4333, 129.2112
697.9154, 128.1084
698.3975, 127.5831
698.8796, 127.6746
699.3618, 128.7408
699.8439, 131.0492
700.3260, 133.1461
700.8081, 132.8196
701.2902, 129.6100
701.7723, 128.3514
702.2545, 131.9960
702.7366, 134.0057
703.2187, 131.3643
703.7008, 127.6581
704.1829, 126.5064
704.6650, 128.1663
705.1472, 130.2897
705.6293, 131.7338
706.1114, 132.4273
706.5935, 131.8281
707.0756, 130.1815
707.5577, 129.1527
708.0399, 129.2905
708.5220, 129.8462
709.0041, 129.9772
709.4862, 129.6807
709.9683, 129.9646
710.4504, 132.0476
710.9326, 133.0826
711.4147, 131.5939
711.8968, 129.6068
712.3789, 128.9482
712.8610, 129.5672
713.3431, 130.2502
713.8253, 130.1801
714.3074, 130.9534
714.7895, 130.5283
715.2716, 131.8459
715.7537, 132.7006
716.2358, 132.8270
716.7180, 132.5382
717.2001, 131.9558
717.6822, 131.1724
718.1643, 130.8083
718.6464, 131.2957
719.1285, 131.5631
719.6107, 131.2946
720.0928, 130.9536
720.5749, 130.9762
721.0570, 131.2146
721.5391, 131.1517
722.0212, 130.4788
722.5034, 129.7038
722.9855, 129.5815
723.4676, 129.9973
723.9497, 130.1843
724.4318, 129.9808
724.9139, 130.1171
725.3961, 131.3074
725.8782, 132.9727
726.3603, 133.4161
726.8424, 132.0292
727.3245, 130.8656
727.8066, 129.8681
728.2888, 129.2777
728.7709, 129.1459
729.2530, 129.5457
729.7351, 130.9198
730.2172, 133.3681
730.6993, 135.4774
731.1815, 135.3355
731.6636, 133.5767
732.1457, 132.5320
732.6278, 132.2851
733.1099, 132.5978
733.5920, 133.6595
734.0742, 134.7560
734.5563, 134.6662
735.0384, 133.0264
735.5205, 132.0323
736.0026, 131.6622
736.4847, 131.9518
736.9669, 133.7142
737.4490, 135.6943
737.9311, 136.2929
738.4132, 135.3833
738.8953, 134.3412
739.3774, 134.2610
739.8596, 134.7005
740.3417, 134.7712
740.8238, 134.4872
741.3059, 134.0153
741.7880, 133.3273
742.2701, 132.7113
742.7523, 132.4010
743.2344, 132.3996
743.7165, 132.7863
744.1986, 134.5473
744.6807, 135.3029
745.1628, 133.6996
745.6450, 131.8627
746.1271, 131.5325
746.6092, 132.4249
747.0913, 133.1773
747.5734, 133.0341
748.0555, 132.8862
748.5377, 134.3250
749.0198, 136.7280
749.5019, 137.3917
749.9840, 135.9141
750.4661, 134.7813
750.9482, 135.7256
751.4304, 137.6608
751.9125, 137.7981
752.3946, 134.6376
752.8767, 133.2442
753.3588, 135.2460
753.8409, 137.0690
754.3231, 136.7363
754.8052, 135.5336
755.2873, 135.4565
755.7694, 136.9493
756.2515, 138.5389
756.7336, 139.0629
757.2158, 139.0019
757.6979, 139.3700
758.1800, 139.9974
758.6621, 139.4930
759.1442, 137.2341
759.6263, 135.0140
760.1085, 135.1093
760.5906, 137.5291
761.0727, 138.8589
761.5548, 137.9601
762.0369, 137.6643
762.5190, 139.3914
763.0012, 141.0176
763.4833, 140.4587
763.9654, 138.2872
764.4475, 137.0611
764.9296, 138.1521
765.4117, 139.8490
765.8939, 141.1675
766.3760, 141.9663
766.8581, 141.7159
767.3402, 140.4996
767.8223, 139.3759
768.3044, 139.0150
768.7866, 139.1918
769.2687, 139.4346
769.7508, 139.8982
770.2329, 139.8157
770.7150, 138.6184
771.1971, 137.6375
771.6793, 137.4244
772.1614, 137.7932
772.6435, 138.6787
773.1256, 140.1540
773.6077, 141.3060
774.0898, 141.8288
774.5720, 141.8455
775.0541, 141.0759
775.5362, 139.9689
776.0183, 139.3658
776.5004, 139.5126
776.9825, 140.1668
777.4647, 141.3242
777.9468, 142.6689
778.4289, 142.2826
778.9110, 139.6591
779.3931, 138.0962
779.8752, 138.9814
780.3574, 137.9491
780.8395, 140.4803
781.3216, 141.9175
781.8037, 142.3196
782.2858, 138.5860
782.7679, 140.1928
783.2501, 139.6594
783.7322, 139.0382
784.2143, 141.3965
784.6964, 138.2645
785.1785, 140.5756
785.6606, 140.7139
786.1428, 141.8467
786.6249, 140.8261
787.1070, 140.4706
787.5891, 142.2691
788.0712, 142.8749
788.5533, 141.6064
789.0355, 142.8024
789.5176, 139.5951
789.9997, 140.5671
790.4818, 139.3247
790.9639, 138.6906
791.4460, 139.2907
791.9282, 139.6748
792.4103, 139.2453
792.8924, 138.6585
793.3745, 138.7328
793.8566, 139.3284
794.3387, 139.3144
794.8209, 137.4496
795.3030, 135.8124
795.7851, 137.1104
796.2672, 139.9968
796.7493, 141.4785
797.2314, 141.1803
797.7136, 140.3533
798.1957, 139.7500
798.6778, 139.4073
799.1599, 139.4936
799.6420, 140.1747
800.1241, 140.6043
800.6063, 140.7691
801.0884, 140.6741
801.5705, 139.8873
802.0526, 139.0592
802.5347, 139.0887
803.0168, 140.0897
803.4990, 141.0805
803.9811, 141.7537
804.4632, 142.3665
804.9453, 143.2160
805.4274, 144.0454
805.9095, 144.6731
806.3917, 144.9346
806.8738, 144.2390
807.3559, 141.7712
807.8380, 138.6744
808.3201, 137.6721
808.8022, 138.6799
809.2844, 140.0002
809.7665, 141.4864
810.2486, 142.6436
810.7307, 142.9847
811.2128, 142.8341
811.6949, 143.2500
812.1771, 145.1920
812.6592, 145.6947
813.1413, 142.9384
813.6234, 140.7815
814.1055, 141.6905
814.5876, 143.8414
815.0698, 142.5019
815.5519, 145.0586
816.0340, 146.5213
816.5161, 146.9489
816.9982, 143.2409
817.4803, 144.8731
817.9625, 144.3652
818.4446, 143.7695
818.9267, 146.1534
819.4088, 143.0468
819.8909, 145.3834
820.3730, 145.5472
820.8552, 146.7055
821.3373, 145.7104
821.8194, 145.3804
822.3015, 147.2044
822.7836, 147.8357
823.2657, 146.5927
823.7479, 147.8142
824.2300, 145.2239
824.7121, 144.4539
825.1942, 144.4766
825.6763, 146.5800
826.1584, 148.4413
826.6406, 148.6578
827.1227, 147.8103
827.6048, 146.5957
828.0869, 145.3030
828.5690, 144.3298
829.0511, 144.0176
829.5333, 144.1763
830.0154, 144.5645
830.4975, 145.1455
830.9796, 145.7996
831.4617, 146.5100
831.9438, 147.0188
832.4260, 147.0946
832.9081, 146.9007
833.3902, 146.9154
833.8723, 147.1156
834.3544, 147.5854
834.8365, 148.3880
835.3187, 149.3827
835.8008, 150.7028
836.2829, 152.0663
836.7650, 153.3074
837.2471, 154.4128
837.7292, 154.6617
838.2114, 152.5665
838.6935, 150.8902
839.1756, 152.0513
839.6577, 154.3712
840.1398, 155.4404
840.6219, 155.0295
841.1041, 154.3079
841.5862, 153.9492
842.0683, 154.0716
842.5504, 155.2390
843.0325, 157.2078
843.5146, 158.2237
843.9968, 158.0359
844.4789, 157.6116
844.9610, 157.4398
845.4431, 157.3865
845.9252, 157.2309
846.4073, 156.9991
846.8895, 156.5120
847.3716, 155.0639
847.8537, 154.3162
848.3358, 154.9049
848.8179, 156.1078
849.3000, 157.7011
849.7822, 159.4129
850.2643, 160.1833
850.7464, 159.0373
851.2285, 157.9139
851.7106, 157.6475
852.1927, 158.1881
852.6749, 160.2323
853.1570, 163.0454
853.6391, 164.1965
854.1212, 162.5736
854.6033, 160.4514
855.0854, 161.1276
855.5676, 163.9038
856.0497, 165.2939
856.5318, 165.2220
857.0139, 165.3851
857.4960, 166.4237
857.9781, 167.4942
858.4603, 167.5580
858.9424, 166.7688
859.4245, 167.0101
859.9066, 169.6768
860.3887, 170.9628
860.8708, 169.1574
861.3530, 167.4052
861.8351, 167.5200
862.3172, 168.7763
862.7993, 169.8395
863.2814, 170.5021
863.7635, 170.8327
864.2457, 170.3025
864.7278, 169.9891
865.2099, 171.3716
865.6920, 173.3471
866.1741, 173.5979
866.6563, 171.9397
867.1384, 170.7135
867.6205, 172.0214
868.1026, 174.2540
868.5847, 174.0736
869.0668, 171.8830
869.5490, 170.1364
870.0311, 169.1552
870.5132, 169.1702
870.9953, 170.5442
871.4774, 172.4374
871.9595, 173.1114
872.4417, 172.3074
872.9238, 171.7078
873.4059, 171.5302
873.8880, 171.2064
874.3701, 170.0748
874.8522, 169.1097
875.3344, 169.5301
875.8165, 171.0152
876.2986, 171.6066
876.7807, 170.5457
877.2628, 169.1041
877.7449, 167.2373
878.2271, 165.5894
878.7092, 165.0263
879.1913, 165.1081
879.6734, 164.6577
880.1555, 163.2830
880.6376, 162.0300
881.1198, 162.1417
881.6019, 162.9081
882.0840, 163.0166
882.5661, 162.5754
883.0482, 162.1627
883.5303, 161.9214
884.0125, 161.4949
884.4946, 160.5322
884.9767, 159.2575
885.4588, 158.5140
885.9409, 158.4951
886.4230, 157.8602
886.9052, 156.2382
887.3873, 154.6009
887.8694, 153.2428
888.3515, 152.2720
888.8336, 152.0391
889.3157, 152.7213
889.7979, 152.7655
890.2800, 151.7673
890.7621, 150.5982
891.2442, 149.1417
891.7263, 147.8909
892.2084, 147.4151
892.6906, 147.5154
893.1727, 147.5165
893.6548, 147.1623
894.1369, 146.7405
894.6190, 146.5050
895.1011, 146.2626
895.5833, 145.8145
896.0654, 145.1624
896.5475, 144.3244
897.0296, 143.3230
897.5117, 142.1953
897.9938, 140.7610
898.4760, 139.4771
898.9581, 140.0141
899.4402, 142.1512
899.9223, 143.0990
900.4044, 142.3210
900.8865, 141.0196
901.3687, 139.8179
901.8508, 138.8729
902.3329, 138.5952
902.8150, 139.1922
903.2971, 139.4126
903.7792, 139.1035
904.2614, 138.6777
904.7435, 138.0947
905.2256, 137.5792
905.7077, 137.4508
906.1898, 137.6106
906.6719, 137.4953
907.1541, 136.6821
907.6362, 136.1590
908.1183, 136.2392
908.6004, 136.6275
909.0825, 137.1257
909.5646, 137.7753
910.0468, 138.9564
910.5289, 140.6823
911.0110, 141.7122
911.4931, 140.1976
911.9752, 138.4404
912.4573, 139.6118
912.9395, 142.2357
913.4216, 142.9745
913.9037, 141.6249
914.3858, 140.4511
914.8679, 140.8023
915.3500, 142.2216
915.8321, 144.5078
916.3142, 147.3633
916.7963, 148.1873
917.2784, 146.7940
917.7606, 145.5813
918.2427, 145.3350
918.7248, 145.7733
919.2069, 146.6729
919.6890, 147.9768
920.1711, 149.3183
920.6533, 150.9724
921.1354, 151.9684
921.6175, 151.5320
922.0996, 151.3488
922.5817, 152.7644
923.0638, 154.7677
923.5460, 155.6281
924.0281, 155.0652
924.5102, 155.5539
924.9923, 158.3255
925.4744, 161.0743
925.9565, 163.2229
926.4387, 164.8016
926.9208, 165.2910
927.4029, 165.2879
927.8850, 166.5726
928.3671, 170.1169
928.8492, 173.2872
929.3314, 173.6907
929.8135, 173.2378
930.2956, 173.4351
930.7777, 174.6783
931.2598, 177.8991
931.7419, 183.0650
932.2241, 188.4581
932.7062, 192.8770
933.1883, 196.4152
933.6704, 199.0475
934.1525, 200.9232
934.6346, 202.2973
935.1168, 203.2830
935.5989, 205.9746
936.0810, 211.4970
936.5631, 217.8812
937.0452, 222.3649
937.5273, 225.1010
938.0095, 228.6474
938.4916, 233.1865
938.9737, 237.8325
939.4558, 242.4381
939.9379, 247.1451
940.4200, 251.8788
940.9022, 256.9205
941.3843, 263.1551
941.8664, 271.4052
942.3485, 278.3611
942.8306, 281.9438
943.3127, 286.9235
943.7949, 295.4370
944.2770, 305.1769
944.7591, 314.2695
945.2412, 322.7047
945.7233, 330.9873
946.2054, 338.9264
946.6876, 347.3867
947.1697, 356.1973
947.6518, 366.1302
948.1339, 378.4846
948.6160, 391.9571
949.0981, 404.2911
949.5803, 415.2112
950.0624, 426.9571
950.5445, 441.6254
951.0266, 456.6605
951.5087, 469.1468
951.9908, 480.6125
952.4730, 493.6842
952.9551, 508.3776
953.4372, 523.3039
953.9193, 537.8906
954.4014, 553.5035
954.8835, 572.5697
955.3657, 593.2859
955.8478, 609.3104
956.3299, 621.5517
956.8120, 637.3531
957.2941, 658.1617
957.7762, 679.9942
958.2584, 700.4266
958.7405, 720.0076
959.2226, 740.1766
959.7047, 761.1698
960.1868, 779.2311
960.6689, 794.1780
961.1511, 807.2607
961.6332, 819.1822
962.1153, 828.7941
962.5974, 835.2331
963.0795, 838.4402
963.5616, 838.1407
964.0438, 834.2305
964.5259, 827.0356
965.0080, 816.4456
965.4901, 802.6666
965.9722, 785.6129
966.4543, 765.6476
966.9365, 743.0018
967.4186, 717.7219
967.9007, 690.5699
968.3828, 660.9565
968.8649, 630.3362
969.3470, 598.4428
969.8292, 566.4567
970.3113, 534.1889
970.7934, 502.9538
971.2755, 474.8579
971.7576, 450.2734
972.2397, 427.0493
972.7219, 404.4818
973.2040, 382.7896
973.6861, 361.7178
974.1682, 341.7606
974.6503, 323.2030
975.1324, 306.2684
975.6146, 291.5189
976.0967, 279.0638
976.5788, 267.9165
977.0609, 257.5385
977.5430, 247.7131
978.0251, 237.7713
978.5073, 228.1982
978.9894, 220.0714
979.4715, 213.4347
979.9536, 207.5912
980.4357, 202.1432
980.9178, 197.1214
981.4000, 192.7222
981.8821, 188.7893
982.3642, 184.8710
982.8463, 180.9561
983.3284, 176.7606
983.8105, 172.2327
984.2927, 167.7227
984.7748, 163.4467
985.2569, 159.5272
985.7390, 156.2885
986.2211, 153.7687
986.7032, 151.2518
987.1854, 148.6560
987.6675, 146.5143
988.1496, 145.0826
988.6317, 143.8246
989.1138, 142.1838
989.5959, 140.3345
990.0781, 139.1434
990.5602, 139.1651
991.0423, 138.1530
991.5244, 135.3763
992.0065, 132.8481
992.4886, 131.1918
992.9708, 130.2424
993.4529, 130.0661
993.9350, 130.5660
994.4171, 130.5826
994.8992, 129.8680
995.3813, 129.0573
995.8635, 127.5928
996.3456, 126.6961
996.8277, 127.5765
997.3098, 128.9189
997.7919, 129.0282
998.2740, 127.8782
998.7562, 126.7976
999.2383, 126.3301
999.7204, 125.5634
1000.203, 123.4595
1000.685, 121.7801
1001.167, 122.2677
1001.649, 123.7688
1002.131, 124.2790
1002.613, 123.5181
1003.095, 122.9269
1003.577, 123.6982
1004.059, 124.1088
1004.542, 122.7270
1005.024, 120.9169
1005.506, 117.8914
1005.988, 120.1148
1006.470, 121.3437
1006.952, 121.6316
1007.434, 118.1598
1007.916, 119.5428
1008.398, 118.9802
1008.881, 118.3378
1009.363, 120.4041
1009.845, 117.4791
1010.327, 119.5025
1010.809, 119.5505
1011.291, 120.5026
1011.773, 119.4972
1012.255, 119.0963
1012.738, 119.8916
1013.220, 120.6452
1013.702, 121.3817
1014.184, 122.4858
1014.666, 123.8500
1015.148, 124.7304
1015.630, 124.7611
1016.112, 124.3788
1016.594, 124.1005
1017.077, 123.8207
1017.559, 123.0394
1018.041, 121.9507
1018.523, 121.7048
1019.005, 122.4094
1019.487, 122.8254
1019.969, 122.2333
1020.451, 121.2307
1020.934, 120.5693
1021.416, 120.2976
1021.898, 120.8757
1022.380, 122.2740
1022.862, 123.3670
1023.344, 123.9323
1023.826, 124.3049
1024.308, 124.7089
1024.791, 124.9995
1025.273, 124.9380
1025.755, 124.5236
1026.237, 123.4823
1026.719, 121.5828
1027.201, 121.0855
1027.683, 122.7983
1028.165, 122.1741
1028.647, 124.6708
1029.130, 126.1734
1029.612, 126.7345
1030.094, 123.5360
1030.576, 125.1923
1031.058, 124.9029
1031.540, 124.5338
1032.022, 126.8733
1032.504, 124.2216
1032.986, 126.5182
1033.469, 126.8400
1033.951, 128.0654
1034.433, 127.3331
1034.915, 127.2055
1035.397, 129.0361
1035.879, 129.7824
1036.361, 128.8248
1036.843, 130.1076
1037.326, 127.3880
1037.808, 128.1805
1038.290, 130.4885
1038.772, 129.6293
1039.254, 130.9479
1039.736, 131.8616
1040.218, 133.1160
1040.700, 131.9665
1041.182, 130.8966
1041.665, 131.6910
1042.147, 133.7938
1042.629, 136.0617
1043.111, 138.7283
1043.593, 140.5603
1044.075, 140.3581
1044.557, 140.9326
1045.039, 143.9955
1045.521, 146.8956
1046.004, 147.0095
1046.486, 145.8631
1046.968, 146.9326
1047.450, 150.8498
1047.932, 154.5894
1048.414, 158.0493
1048.896, 161.0217
1049.378, 163.0705
1049.861, 164.9831
1050.343, 167.1674
1050.825, 169.6880
1051.307, 172.7069
1051.789, 176.3036
1052.271, 179.7303
1052.753, 182.2954
1053.235, 185.3886
1053.718, 190.3194
1054.200, 195.0729
1054.682, 198.4446
1055.164, 200.4237
1055.646, 201.0815
1056.128, 200.3896
1056.610, 199.1239
1057.092, 197.6786
1057.574, 195.4406
1058.057, 192.0102
1058.539, 187.8700
1059.021, 183.0751
1059.503, 177.9701
1059.985, 172.9465
1060.467, 168.0531
1060.949, 163.6663
1061.431, 159.6584
1061.913, 156.4827
1062.396, 155.3354
1062.878, 154.0808
1063.360, 150.1178
1063.842, 145.2983
1064.324, 143.3745
1064.806, 144.7065
1065.288, 145.0632
1065.770, 142.1851
1066.253, 138.9869
1066.735, 136.0958
1067.217, 133.9032
1067.699, 132.6108
1068.181, 132.2616
1068.663, 133.4112
1069.145, 135.8230
1069.627, 137.1748
1070.109, 135.8938
1070.592, 134.5973
1071.074, 134.3752
1071.556, 134.6678
1072.038, 135.3327
1072.520, 136.0791
1073.002, 136.7079
1073.484, 137.0916
1073.966, 136.7803
1074.448, 135.1712
1074.931, 133.8321
1075.413, 133.2635
1075.895, 133.4907
1076.377, 135.0423
1076.859, 137.0859
1077.341, 138.3935
1077.823, 139.0589
1078.305, 140.3749
1078.788, 143.2876
1079.270, 145.2602
1079.752, 143.6057
1080.234, 142.2341
1080.716, 144.7734
1081.198, 148.4088
1081.680, 149.6104
1082.162, 148.5906
1082.644, 147.5788
1083.127, 147.1711
1083.609, 147.2438
1084.091, 148.3149
1084.573, 149.1833
1085.055, 148.5166
1085.537, 147.7372
1086.019, 148.8272
1086.501, 151.0723
1086.984, 152.0749
1087.466, 151.0757
1087.948, 150.4819
1088.430, 149.1171
1088.912, 150.8566
1089.394, 151.8219
1089.876, 152.0499
1090.358, 149.6027
1090.840, 150.4028
1091.323, 149.7743
1091.805, 149.0009
1092.287, 149.9995
1092.769, 147.4760
1093.251, 148.2642
1093.733, 147.6039
1094.215, 147.4749
1094.697, 145.0872
1095.179, 141.9950
1095.662, 140.1043
1096.144, 139.5268
1096.626, 138.4271
1097.108, 135.4088
1097.590, 133.0811
1098.072, 132.9484
1098.554, 133.0589
1099.036, 132.2471
1099.519, 130.9045
1100.001, 129.3055
1100.483, 127.6897
1100.965, 127.0027
1101.447, 127.9833
1101.929, 128.7585
1102.411, 128.5558
1102.893, 128.3937
1103.375, 129.5182
1103.858, 130.3278
1104.340, 128.3132
1104.822, 124.5341
1105.304, 123.0552
1105.786, 125.2085
1106.268, 126.9413
1106.750, 127.1601
1107.232, 127.3523
1107.714, 127.9765
1108.197, 128.7941
1108.679, 129.9685
1109.161, 131.0872
1109.643, 131.1462
1110.125, 129.8968
1110.607, 128.8467
1111.089, 127.8244
1111.571, 127.4606
1112.054, 128.7074
1112.536, 129.7447
1113.018, 129.6900
1113.500, 128.7074
1113.982, 126.4557
1114.464, 122.8938
1114.946, 121.7032
1115.428, 125.1307
1115.911, 127.1836
1116.393, 126.9381
1116.875, 126.1310
1117.357, 124.9739
1117.839, 124.0411
1118.321, 124.0913
1118.803, 124.9343
1119.285, 125.4837
1119.767, 125.9230
1120.250, 125.5450
1120.732, 123.7590
1121.214, 122.3626
1121.696, 121.9178
1122.178, 121.9709
1122.660, 122.3274
1123.142, 122.7666
1123.624, 122.6320
1124.106, 122.8985
1124.589, 123.0055
1125.071, 122.6004
1125.553, 122.8889
1126.035, 121.8641
1126.517, 121.0560
1126.999, 121.4996
1127.481, 120.5064
1127.963, 122.8157
1128.446, 124.1306
1128.928, 124.5043
1129.410, 121.1185
1129.892, 122.5874
1130.374, 122.1107
1130.856, 121.5542
1131.338, 123.7064
1131.820, 120.8674
1132.302, 122.9766
1132.785, 123.1107
1133.267, 124.1487
1133.749, 123.2291
1134.231, 122.9141
1134.713, 124.5574
1135.195, 125.1164
1135.677, 123.9715
1136.159, 125.0669
1136.641, 122.1595
1137.124, 122.7647
1137.606, 124.8854
1138.088, 123.8389
1138.570, 124.9702
1139.052, 125.2720
1139.534, 121.8045
1140.016, 124.8923
1140.498, 125.1451
1140.981, 122.4871
1141.463, 125.3503
1141.945, 123.0936
1142.427, 122.6643
1142.909, 123.6104
1143.391, 123.1227
1143.873, 124.8955
1144.355, 124.4906
1144.838, 123.8913
1145.320, 124.1409
1145.802, 121.9846
1146.284, 124.2918
1146.766, 123.5501
1147.248, 124.3239
1147.730, 125.4413
1148.212, 123.9283
1148.694, 125.2000
1149.177, 122.1533
1149.659, 122.7199
1150.141, 122.8975
1150.623, 125.3847
1151.105, 122.3590
1151.587, 122.8252
1152.069, 124.7784
1152.551, 124.2214
1153.033, 124.8557
1153.516, 125.2280
1153.998, 125.3431
1154.480, 125.3737
1154.962, 125.3758
1155.444, 125.6470
1155.926, 126.7776
1156.408, 127.4576
1156.890, 126.8523
1157.373, 126.1907
1157.855, 126.5199
1158.337, 126.9214
1158.819, 125.8065
1159.301, 123.6680
1159.783, 123.1992
1160.265, 125.5491
1160.747, 127.0828
1161.229, 127.1029
1161.712, 126.9651
1162.194, 127.2496
1162.676, 127.1127
1163.158, 125.5511
1163.640, 123.5219
1164.122, 122.7443
1164.604, 123.2378
1165.086, 124.2853
1165.568, 126.4085
1166.051, 127.3926
1166.533, 126.6111
1167.015, 125.8857
1167.497, 125.8719
1167.979, 126.5708
1168.461, 128.2558
1168.943, 130.2671
1169.425, 130.2594
1169.908, 128.1609
1170.390, 126.5498
1170.872, 125.4616
1171.354, 125.8603
1171.836, 128.0000
1172.318, 130.1187
1172.800, 131.1884
1173.282, 131.3183
1173.765, 130.3203
1174.247, 128.7810
1174.729, 128.4707
1175.211, 129.1436
1175.693, 130.1247
1176.175, 131.2149
1176.657, 131.9430
1177.139, 132.1968
1177.621, 132.4866
1178.104, 133.2255
1178.586, 134.0399
1179.068, 134.6727
1179.550, 134.9522
1180.032, 134.1817
1180.514, 133.1044
1180.996, 133.3127
1181.478, 134.5690
1181.960, 135.0873
1182.443, 134.1750
1182.925, 133.7136
1183.407, 136.0536
1183.889, 137.6157
1184.371, 134.6236
1184.853, 131.4459
1185.335, 132.6276
1185.817, 135.9078
1186.300, 137.4882
1186.782, 136.9914
1187.264, 135.7967
1187.746, 133.4201
1188.228, 131.9881
1188.710, 132.4274
1189.192, 133.1446
1189.674, 133.8270
1190.156, 134.3187
1190.639, 134.2960
1191.121, 134.1055
1191.603, 134.6377
1192.085, 134.5399
1192.567, 134.4771
1193.049, 135.0131
1193.531, 132.3767
1194.013, 135.0226
1194.495, 136.5746
1194.978, 137.0917
1195.460, 133.4729
1195.942, 135.1944
1196.424, 134.7758
1196.906, 134.2694
1197.388, 136.7424
1197.870, 133.7252
1198.352, 136.1510
1198.835, 136.4044
1199.317, 137.6519
1199.799, 136.7460
1200.281, 136.5053
1200.763, 138.4185
1201.245, 139.1391
1201.727, 137.9854
1202.209, 139.2961
1202.692, 136.2039
1203.174, 136.9752
1203.656, 139.4137
1204.138, 138.3682
1204.620, 139.7183
1205.102, 140.1560
1205.584, 136.4474
1206.066, 139.9497
1206.548, 140.3335
1207.031, 137.5156
1207.513, 140.7707
1207.995, 138.3940
1208.477, 138.0275
1208.959, 139.1739
1209.441, 138.7431
1209.923, 140.7988
1210.405, 140.4592
1210.887, 139.9055
1211.370, 140.2861
1211.852, 138.0198
1212.334, 140.6635
1212.816, 139.9532
1213.298, 140.9101
1213.780, 142.2449
1214.262, 140.6863
1214.744, 142.1909
1215.227, 138.9454
1215.709, 139.6744
1216.191, 139.9754
1216.673, 142.8170
1217.155, 139.5944
1217.637, 140.2130
1218.119, 142.4671
1218.601, 142.4327
1219.083, 143.3552
1219.566, 141.4454
1220.048, 142.1962
1220.530, 142.2136
1221.012, 144.7656
1221.494, 145.3166
1221.976, 143.4545
1222.458, 141.6026
1222.940, 144.3370
1223.422, 142.7245
1223.905, 143.4574
1224.387, 141.7680
1224.869, 142.1698
1225.351, 142.5384
1225.833, 143.9791
1226.315, 142.1691
1226.797, 144.5757
1227.279, 144.5453
1227.762, 145.2330
1228.244, 145.8405
1228.726, 143.1778
1229.208, 143.1959
1229.690, 147.0501
1230.172, 145.0541
1230.654, 144.2389
1231.136, 144.2630
1231.619, 148.2488
1232.101, 147.8251
1232.583, 146.7104
1233.065, 143.3058
1233.547, 141.6396
1234.029, 142.2179
1234.511, 142.8595
1234.993, 143.5767
1235.475, 144.3328
1235.958, 145.1309
1236.440, 146.0075
1236.922, 147.0751
1237.404, 147.7336
1237.886, 147.0213
1238.368, 145.4839
1238.850, 144.6775
1239.332, 144.5495
1239.814, 145.3525
1240.297, 146.6370
1240.779, 146.1959
1241.261, 143.9590
1241.743, 142.4496
1242.225, 142.9829
1242.707, 144.4953
1243.189, 147.0752
1243.671, 149.0407
1244.154, 148.1022
1244.636, 146.4426
1245.118, 146.5855
1245.600, 147.6659
1246.082, 147.7241
1246.564, 146.7952
1247.046, 146.7211
1247.528, 148.3577
1248.010, 149.5451
1248.493, 149.4846
1248.975, 149.5694
1249.457, 150.2097
1249.939, 151.0173
1250.421, 152.0454
1250.903, 152.7825
1251.385, 152.4224
1251.867, 151.2011
1252.349, 150.4056
1252.832, 150.0380
1253.314, 150.2011
1253.796, 150.9179
1254.278, 151.3288
1254.760, 151.2510
1255.242, 151.2420
1255.724, 151.6095
1256.206, 151.9765
1256.689, 151.8985
1257.171, 151.5936
1257.653, 151.2672
1258.135, 151.0659
1258.617, 151.7371
1259.099, 152.5229
1259.581, 151.1000
1260.063, 148.1137
1260.546, 147.6137
1261.028, 151.2913
1261.510, 154.2343
1261.992, 153.6102
1262.474, 152.7065
1262.956, 152.4544
1263.438, 152.7330
1263.920, 154.5078
1264.402, 155.9480
1264.885, 154.0576
1265.367, 150.1612
1265.849, 149.1920
1266.331, 151.7813
1266.813, 153.1210
1267.295, 152.8773
1267.777, 153.0105
1268.259, 153.8545
1268.741, 154.9237
1269.224, 156.0744
1269.706, 156.3765
1270.188, 154.7289
1270.670, 152.5519
1271.152, 152.6718
1271.634, 154.1723
1272.116, 155.1730
1272.598, 155.6848
1273.081, 155.5883
1273.563, 155.2174
1274.045, 155.7249
1274.527, 157.2815
1275.009, 158.0697
1275.491, 156.7405
1275.973, 155.4577
1276.455, 155.2537
1276.938, 155.3914
1277.420, 155.2094
1277.902, 155.4167
1278.384, 157.6048
1278.866, 160.1957
1279.348, 159.4107
1279.830, 160.6679
1280.312, 161.6645
1280.794, 160.2985
1281.276, 162.8503
1281.759, 162.2056
1282.241, 161.5604
1282.723, 161.7820
1283.205, 161.4902
1283.687, 159.7422
1284.169, 158.2854
1284.651, 159.5061
1285.133, 162.3071
1285.616, 164.7866
1286.098, 166.9340
##END=



