##NAMES=Krasnovite
##RRUFFID=R080115
##IDEAL CHEMISTRY=Ba(Al,Mg)(PO_4_,CO_3_)(OH)_2_&#183;H_2_O
##LOCALITY=Cerro Sapo Carbonatite dyke, Cochabamba, Bolivia
##OWNER=RRUFF
##SOURCE=William W. Pinch
##DESCRIPTION=Pastel blue, vitreous massive, associated with blue sodalite and white ankerite
##STATUS=The identification of this mineral has been confirmed by single-crystal X-ray diffraction.
##URL=rruff.info/R080115
92.35352, 9.231128
92.83563, 8.957600
93.31775, 8.841311
93.79987, 8.946612
94.28198, 9.217721
94.76410, 9.486128
95.24622, 9.688620
95.72833, 9.900953
96.21045, 10.31997
96.69257, 10.95948
97.17468, 11.61567
97.65680, 12.01757
98.13892, 12.17529
98.62103, 12.55009
99.10315, 13.31890
99.58527, 14.41803
100.0674, 15.34275
100.5495, 16.00954
101.0316, 16.66819
101.5137, 17.57886
101.9958, 18.74031
102.4780, 20.17875
102.9601, 21.91496
103.4422, 23.96993
103.9243, 26.17154
104.4064, 28.52053
104.8885, 31.02661
105.3707, 33.78192
105.8528, 36.85582
106.3349, 40.04942
106.8170, 43.27616
107.2991, 46.56819
107.7813, 49.83457
108.2634, 53.09592
108.7455, 56.35054
109.2276, 59.47337
109.7097, 62.14771
110.1918, 64.95068
110.6740, 68.12631
111.1561, 72.41579
111.6382, 76.25268
112.1203, 79.17050
112.6024, 81.38419
113.0845, 84.03584
113.5667, 87.55435
114.0488, 91.41994
114.5309, 95.32439
115.0130, 98.90804
115.4951, 102.7633
115.9772, 107.1677
116.4594, 112.1482
116.9415, 117.1859
117.4236, 122.1020
117.9057, 126.9776
118.3878, 131.8783
118.8699, 136.9352
119.3521, 141.9988
119.8342, 147.0876
120.3163, 152.2148
120.7984, 157.2134
121.2805, 161.9633
121.7626, 166.5167
122.2448, 170.9625
122.7269, 175.5412
123.2090, 179.9363
123.6911, 183.9245
124.1732, 187.5439
124.6553, 190.4969
125.1375, 192.0155
125.6196, 192.5041
126.1017, 193.2428
126.5838, 195.1834
127.0659, 197.8551
127.5480, 200.4209
128.0302, 202.7543
128.5123, 204.9950
128.9944, 207.1868
129.4765, 209.3654
129.9586, 211.8656
130.4407, 215.1837
130.9229, 219.1017
131.4050, 222.7461
131.8871, 225.8223
132.3692, 228.5501
132.8513, 231.2476
133.3334, 233.5293
133.8156, 234.9463
134.2977, 236.0173
134.7798, 237.5444
135.2619, 239.1971
135.7440, 240.9626
136.2261, 242.7870
136.7083, 244.5307
137.1904, 246.1768
137.6725, 247.8428
138.1546, 249.8040
138.6367, 252.2086
139.1188, 254.1829
139.6010, 255.5581
140.0831, 256.3387
140.5652, 256.5427
141.0473, 256.0191
141.5294, 255.1466
142.0115, 254.3486
142.4937, 253.4797
142.9758, 252.9618
143.4579, 252.7941
143.9400, 252.8170
144.4221, 254.0257
144.9042, 257.2455
145.3864, 261.1580
145.8685, 263.3951
146.3506, 263.0545
146.8327, 262.3091
147.3148, 261.7787
147.7969, 261.3271
148.2791, 261.4106
148.7612, 262.4617
149.2433, 264.0035
149.7254, 264.9361
150.2075, 264.1739
150.6896, 263.7495
151.1718, 264.4492
151.6539, 267.4994
152.1360, 269.8791
152.6181, 271.1101
153.1002, 271.5729
153.5823, 272.3948
154.0645, 274.2492
154.5466, 276.0552
155.0287, 277.3102
155.5108, 277.7423
155.9929, 277.9073
156.4750, 277.6653
156.9572, 277.1449
157.4393, 276.8857
157.9214, 277.1891
158.4035, 277.6680
158.8856, 278.0816
159.3677, 277.9128
159.8499, 278.1385
160.3320, 279.3639
160.8141, 281.3897
161.2962, 283.0143
161.7783, 283.5941
162.2604, 283.6876
162.7426, 283.7560
163.2247, 284.0399
163.7068, 284.2396
164.1889, 284.1705
164.6710, 283.8504
165.1531, 283.5345
165.6353, 283.3709
166.1174, 283.2668
166.5995, 283.1216
167.0816, 282.6208
167.5637, 282.2675
168.0458, 282.5215
168.5280, 283.3798
169.0101, 284.1818
169.4922, 284.5847
169.9743, 284.6495
170.4564, 284.4567
170.9385, 284.0125
171.4207, 283.3425
171.9028, 282.3324
172.3849, 280.9626
172.8670, 279.7245
173.3491, 279.1299
173.8312, 278.9260
174.3134, 278.6270
174.7955, 277.7782
175.2776, 276.8226
175.7597, 276.3996
176.2418, 276.6012
176.7239, 276.8092
177.2061, 276.4416
177.6882, 275.6183
178.1703, 274.6743
178.6524, 273.6409
179.1345, 272.6127
179.6166, 271.8438
180.0988, 271.3976
180.5809, 270.9044
181.0630, 269.8054
181.5451, 268.2375
182.0272, 266.7986
182.5093, 265.7588
182.9915, 265.0594
183.4736, 264.6177
183.9557, 264.4568
184.4378, 264.4212
184.9199, 264.4025
185.4020, 264.3732
185.8842, 264.1390
186.3663, 263.4947
186.8484, 262.5382
187.3305, 261.6815
187.8126, 260.9930
188.2947, 260.2921
188.7769, 259.1215
189.2590, 257.5150
189.7411, 256.1730
190.2232, 255.6707
190.7053, 255.8648
191.1874, 255.7699
191.6696, 255.2259
192.1517, 254.5200
192.6338, 254.1765
193.1159, 254.2033
193.5980, 254.3786
194.0801, 254.7115
194.5623, 255.1689
195.0444, 255.2164
195.5265, 254.6885
196.0086, 253.8907
196.4907, 253.4704
196.9728, 253.4543
197.4550, 253.5735
197.9371, 253.6572
198.4192, 253.7023
198.9013, 253.8954
199.3834, 254.3078
199.8655, 254.8179
200.3477, 255.1622
200.8298, 255.3431
201.3119, 255.3371
201.7940, 255.0450
202.2761, 254.4273
202.7582, 253.9878
203.2404, 253.7908
203.7225, 253.7867
204.2046, 253.8571
204.6867, 254.0186
205.1688, 254.2047
205.6509, 254.3661
206.1331, 254.4944
206.6152, 254.6707
207.0973, 254.9213
207.5794, 255.2151
208.0615, 255.4551
208.5436, 255.6326
209.0258, 255.7796
209.5079, 255.9008
209.9900, 255.9790
210.4721, 256.1007
210.9542, 256.2679
211.4363, 256.4816
211.9185, 256.7870
212.4006, 257.2684
212.8827, 257.6547
213.3648, 257.7613
213.8469, 257.5361
214.3290, 257.1835
214.8112, 256.5443
215.2933, 255.8243
215.7754, 255.8328
216.2575, 256.8880
216.7396, 258.0695
217.2217, 258.8430
217.7038, 259.1342
218.1860, 259.2156
218.6681, 258.9940
219.1502, 258.5918
219.6323, 258.5109
220.1144, 258.9697
220.5965, 259.3816
221.0787, 259.3287
221.5608, 258.4828
222.0429, 258.1130
222.5250, 258.5240
223.0071, 259.4458
223.4892, 259.8325
223.9714, 259.4348
224.4535, 258.9089
224.9356, 258.5786
225.4177, 258.4368
225.8998, 258.5443
226.3819, 259.0361
226.8641, 259.7645
227.3462, 260.1825
227.8283, 260.1306
228.3104, 260.0078
228.7925, 260.0092
229.2746, 260.1553
229.7568, 260.3919
230.2389, 260.8167
230.7210, 261.3145
231.2031, 261.4720
231.6852, 261.0498
232.1673, 260.6383
232.6495, 260.5508
233.1316, 260.9887
233.6137, 261.2956
234.0958, 261.4101
234.5779, 261.3919
235.0600, 261.4224
235.5422, 261.6134
236.0243, 261.6935
236.5064, 261.5102
236.9885, 260.8651
237.4706, 260.4019
237.9527, 260.1860
238.4349, 260.1407
238.9170, 260.0685
239.3991, 259.8821
239.8812, 259.7984
240.3633, 259.9359
240.8454, 260.4347
241.3276, 260.8257
241.8097, 261.2025
242.2918, 261.4319
242.7739, 261.1195
243.2560, 259.7049
243.7381, 258.6203
244.2203, 258.5319
244.7024, 260.0008
245.1845, 260.8641
245.6666, 260.8772
246.1487, 260.4018
246.6308, 260.1323
247.1130, 260.1867
247.5951, 260.2500
248.0772, 260.1630
248.5593, 259.7898
249.0414, 259.7858
249.5235, 260.3609
250.0057, 261.1698
250.4878, 261.6293
250.9699, 261.5311
251.4520, 261.4568
251.9341, 261.6709
252.4162, 262.3303
252.8984, 262.4531
253.3805, 261.7216
253.8626, 260.6936
254.3447, 260.2439
254.8268, 260.6595
255.3089, 261.0514
255.7911, 261.1361
256.2732, 260.8633
256.7553, 260.7320
257.2374, 260.8178
257.7195, 260.9714
258.2017, 261.0347
258.6838, 261.0589
259.1659, 260.8595
259.6480, 260.2350
260.1301, 259.1523
260.6122, 258.7166
261.0944, 258.6062
261.5765, 258.7153
262.0586, 258.5064
262.5407, 257.9965
263.0228, 256.2842
263.5049, 256.1245
263.9871, 255.3426
264.4692, 254.5352
264.9513, 254.5941
265.4334, 253.0566
265.9155, 253.1018
266.3976, 252.5152
266.8798, 252.2177
267.3619, 251.3965
267.8440, 250.9620
268.3261, 250.3230
268.8082, 249.4186
269.2903, 248.4401
269.7725, 247.5963
270.2546, 246.9826
270.7367, 246.0891
271.2188, 244.7542
271.7009, 243.1106
272.1830, 241.7014
272.6652, 240.5916
273.1473, 239.5641
273.6294, 238.4525
274.1115, 237.2351
274.5936, 236.0686
275.0757, 234.9588
275.5579, 233.9025
276.0400, 232.9935
276.5221, 232.3061
277.0042, 231.4585
277.4863, 230.1105
277.9684, 228.2059
278.4506, 226.5881
278.9327, 225.3778
279.4148, 224.4024
279.8969, 223.2746
280.3790, 221.9635
280.8611, 220.7286
281.3433, 219.7450
281.8254, 219.0080
282.3075, 218.2585
282.7896, 217.5308
283.2717, 216.6916
283.7538, 215.3968
284.2360, 213.6232
284.7181, 212.0208
285.2002, 211.0056
285.6823, 210.4920
286.1644, 209.6247
286.6465, 208.3219
287.1287, 206.9881
287.6108, 206.3205
288.0929, 206.2675
288.5750, 205.8870
289.0571, 204.5779
289.5392, 202.6485
290.0214, 201.4696
290.5035, 201.1236
290.9856, 200.8792
291.4677, 199.9121
291.9498, 198.3246
292.4319, 196.7653
292.9141, 195.3098
293.3962, 194.0624
293.8783, 193.3881
294.3604, 193.2994
294.8425, 193.2947
295.3246, 192.9583
295.8068, 192.3555
296.2889, 191.6845
296.7710, 190.9109
297.2531, 190.1823
297.7352, 189.7796
298.2173, 189.6814
298.6995, 189.6935
299.1816, 189.8381
299.6637, 189.9787
300.1458, 189.7609
300.6279, 188.9866
301.1100, 188.1216
301.5922, 187.8142
302.0743, 187.9494
302.5564, 188.0691
303.0385, 187.8934
303.5206, 187.5345
304.0027, 187.1391
304.4849, 186.7224
304.9670, 186.2890
305.4491, 185.7554
305.9312, 185.2054
306.4133, 184.8400
306.8954, 185.0596
307.3776, 185.3563
307.8597, 185.1665
308.3418, 184.4242
308.8239, 183.5662
309.3060, 182.8298
309.7881, 182.2015
310.2703, 181.6813
310.7524, 181.3830
311.2345, 181.1031
311.7166, 180.7395
312.1987, 180.2861
312.6808, 179.6816
313.1630, 178.6276
313.6451, 177.4945
314.1272, 176.6720
314.6093, 176.4474
315.0914, 176.4163
315.5735, 176.3920
316.0557, 176.3930
316.5378, 176.5229
317.0199, 176.9729
317.5020, 177.4813
317.9841, 177.8442
318.4662, 177.8156
318.9484, 177.9279
319.4305, 178.4400
319.9126, 179.2344
320.3947, 180.0021
320.8768, 180.6944
321.3589, 181.3080
321.8411, 181.8082
322.3232, 182.0772
322.8053, 182.5013
323.2874, 183.1400
323.7695, 183.9796
324.2516, 184.9987
324.7338, 186.5547
325.2159, 187.9563
325.6980, 188.8812
326.1801, 189.1407
326.6622, 189.7286
327.1443, 190.9249
327.6265, 192.3921
328.1086, 193.7975
328.5907, 195.0803
329.0728, 196.3463
329.5549, 197.5788
330.0370, 198.7827
330.5192, 200.0922
331.0013, 201.5586
331.4834, 203.0978
331.9655, 204.6654
332.4476, 206.2353
332.9297, 207.8828
333.4119, 209.5767
333.8940, 211.3411
334.3761, 213.3071
334.8582, 215.6080
335.3403, 217.8267
335.8224, 219.7012
336.3046, 221.0687
336.7867, 222.5686
337.2688, 224.1960
337.7509, 225.9808
338.2330, 228.1524
338.7151, 230.9234
339.1973, 233.3612
339.6794, 235.0035
340.1615, 235.7906
340.6436, 236.8528
341.1257, 238.2430
341.6078, 239.7789
342.0899, 241.2558
342.5721, 242.6506
343.0542, 244.0130
343.5363, 245.3547
344.0184, 246.6646
344.5005, 247.9451
344.9826, 249.1983
345.4648, 250.3393
345.9469, 251.3886
346.4290, 252.3090
346.9111, 252.6543
347.3932, 252.1701
347.8753, 251.3004
348.3575, 250.9876
348.8396, 251.1749
349.3217, 251.2404
349.8038, 250.6594
350.2859, 249.6437
350.7680, 248.6927
351.2502, 247.8556
351.7323, 247.1129
352.2144, 246.4778
352.6965, 245.9234
353.1786, 245.3883
353.6607, 244.9318
354.1429, 244.4400
354.6250, 243.7467
355.1071, 242.8445
355.5892, 241.8858
356.0713, 241.0353
356.5534, 240.1994
357.0356, 239.2332
357.5177, 237.8380
357.9998, 236.4995
358.4819, 235.6289
358.9640, 235.1664
359.4461, 234.8070
359.9283, 234.5239
360.4104, 234.2017
360.8925, 233.7215
361.3746, 232.9222
361.8567, 232.1882
362.3388, 231.8153
362.8210, 231.6243
363.3031, 231.2023
363.7852, 230.2136
364.2673, 229.1280
364.7494, 228.1497
365.2315, 227.3080
365.7137, 226.5410
366.1958, 225.8843
366.6779, 225.2881
367.1600, 224.6872
367.6421, 223.8253
368.1242, 223.2172
368.6064, 223.1779
369.0885, 223.7557
369.5706, 223.7729
370.0527, 222.5323
370.5348, 221.2732
371.0169, 220.8269
371.4991, 221.8330
371.9812, 222.5704
372.4633, 222.8104
372.9454, 222.7101
373.4275, 222.8085
373.9096, 223.1440
374.3918, 223.6174
374.8739, 224.1572
375.3560, 224.7310
375.8381, 225.6066
376.3202, 226.9614
376.8023, 228.3734
377.2845, 229.0352
377.7666, 228.7442
378.2487, 228.7762
378.7308, 229.5914
379.2129, 231.0988
379.6950, 232.6727
380.1772, 234.3398
380.6593, 235.9963
381.1414, 237.6385
381.6235, 239.2318
382.1056, 240.5514
382.5877, 241.4370
383.0699, 242.1644
383.5520, 243.1960
384.0341, 244.5358
384.5162, 246.1202
384.9983, 248.1411
385.4804, 250.3619
385.9626, 252.2203
386.4447, 253.5993
386.9268, 254.9460
387.4089, 256.7260
387.8910, 258.8289
388.3731, 260.9673
388.8553, 262.9915
389.3374, 265.0100
389.8195, 267.0532
390.3016, 269.1056
390.7837, 271.3439
391.2658, 274.1950
391.7480, 277.1283
392.2301, 279.5479
392.7122, 280.7923
393.1943, 282.1864
393.6764, 284.4720
394.1585, 287.4201
394.6407, 290.3248
395.1228, 292.8838
395.6049, 295.4082
396.0870, 298.0359
396.5691, 300.7085
397.0512, 303.6894
397.5334, 307.0426
398.0155, 310.7424
398.4976, 314.7076
398.9797, 319.6735
399.4618, 324.1369
399.9439, 327.7037
400.4261, 330.3737
400.9082, 332.9767
401.3903, 335.2788
401.8724, 337.7258
402.3545, 340.6825
402.8366, 344.5629
403.3188, 348.0200
403.8009, 351.1499
404.2830, 353.7377
404.7651, 355.0345
405.2472, 354.5628
405.7293, 354.1474
406.2115, 354.8104
406.6936, 356.6123
407.1757, 357.0516
407.6578, 355.8479
408.1399, 354.0454
408.6220, 353.0344
409.1042, 352.7833
409.5863, 351.7429
410.0684, 349.3079
410.5505, 345.9802
411.0326, 342.7937
411.5147, 339.7276
411.9969, 336.5873
412.4790, 333.2163
412.9611, 329.6261
413.4432, 325.8651
413.9253, 321.8620
414.4074, 317.8450
414.8896, 314.0827
415.3717, 310.4842
415.8538, 306.8567
416.3359, 303.3723
416.8180, 299.6736
417.3001, 295.2502
417.7823, 290.0755
418.2644, 285.2615
418.7465, 281.5147
419.2286, 278.2871
419.7107, 275.1076
420.1928, 271.9021
420.6750, 268.5902
421.1571, 265.0135
421.6392, 261.2754
422.1213, 257.7396
422.6034, 254.6387
423.0855, 251.6531
423.5677, 248.6727
424.0498, 245.7746
424.5319, 242.6553
425.0140, 238.8085
425.4961, 234.9391
425.9782, 231.7658
426.4604, 229.8558
426.9425, 227.8148
427.4246, 225.3676
427.9067, 222.5848
428.3888, 220.1244
428.8709, 218.1165
429.3531, 216.2097
429.8352, 214.1021
430.3173, 211.6908
430.7994, 209.8191
431.2815, 208.6786
431.7636, 207.8071
432.2458, 206.4772
432.7279, 204.6655
433.2100, 202.7280
433.6921, 200.6504
434.1742, 198.5534
434.6563, 197.0188
435.1385, 196.0399
435.6206, 195.1770
436.1027, 193.9137
436.5848, 192.4642
437.0669, 191.5396
437.5490, 191.5107
438.0312, 191.4466
438.5133, 189.9994
438.9954, 187.6113
439.4775, 185.5073
439.9596, 184.2939
440.4417, 183.6637
440.9239, 183.5697
441.4060, 184.0100
441.8881, 184.2063
442.3702, 183.4275
442.8523, 182.3215
443.3344, 181.5060
443.8166, 181.3339
444.2987, 181.2522
444.7808, 181.0848
445.2629, 180.8750
445.7450, 180.7516
446.2271, 180.8669
446.7093, 180.9619
447.1914, 180.9012
447.6735, 180.5751
448.1556, 180.4483
448.6377, 180.7309
449.1198, 181.0717
449.6020, 181.0505
450.0841, 180.2599
450.5662, 179.9973
451.0483, 180.6771
451.5304, 182.0280
452.0125, 182.8118
452.4947, 182.9463
452.9768, 182.7883
453.4589, 182.4216
453.9410, 181.8328
454.4231, 181.5139
454.9052, 181.4924
455.3874, 181.6637
455.8695, 182.0552
456.3516, 182.6012
456.8337, 182.7659
457.3158, 182.0335
457.7979, 181.1089
458.2801, 181.4869
458.7622, 182.9956
459.2443, 184.4437
459.7264, 184.8733
460.2085, 184.8056
460.6906, 184.8610
461.1728, 185.1076
461.6549, 185.5905
462.1370, 186.2608
462.6191, 187.4123
463.1012, 188.2845
463.5833, 188.8924
464.0655, 188.4446
464.5476, 189.3601
465.0297, 189.7292
465.5118, 190.0759
465.9939, 191.1832
466.4760, 190.8889
466.9582, 191.9843
467.4403, 192.5249
467.9224, 193.3193
468.4045, 193.5640
468.8866, 193.9785
469.3687, 194.9430
469.8509, 195.6030
470.3330, 195.7845
470.8151, 196.5950
471.2972, 196.2815
471.7793, 196.9544
472.2614, 198.0529
472.7436, 198.2621
473.2257, 199.0827
473.7078, 199.8034
474.1899, 200.7378
474.6720, 201.1384
475.1541, 201.5372
475.6363, 202.8875
476.1184, 205.0406
476.6005, 207.0509
477.0826, 208.5153
477.5647, 209.6203
478.0468, 210.6030
478.5290, 211.4847
479.0111, 212.4586
479.4932, 213.6135
479.9753, 214.9576
480.4574, 216.5512
480.9395, 218.4867
481.4217, 220.4133
481.9038, 222.0799
482.3859, 223.5791
482.8680, 225.0240
483.3501, 226.4138
483.8322, 227.7892
484.3144, 229.3354
484.7965, 230.9901
485.2786, 232.1172
485.7607, 232.1995
486.2428, 232.0403
486.7249, 232.0233
487.2071, 232.1541
487.6892, 232.4341
488.1713, 233.0407
488.6534, 233.6757
489.1355, 233.9116
489.6176, 233.6868
490.0998, 233.2478
490.5819, 232.6244
491.0640, 231.8372
491.5461, 230.9771
492.0282, 230.0352
492.5103, 229.0822
492.9925, 228.0611
493.4746, 227.0349
493.9567, 226.5530
494.4388, 226.7617
494.9209, 226.8869
495.4030, 225.8757
495.8852, 224.0759
496.3673, 222.3212
496.8494, 220.7464
497.3315, 219.5280
497.8136, 219.1007
498.2957, 219.2594
498.7779, 219.1882
499.2600, 218.3126
499.7421, 217.1504
500.2242, 215.9583
500.7063, 214.6609
501.1884, 213.7906
501.6706, 213.9103
502.1527, 214.3657
502.6348, 214.4959
503.1169, 214.1663
503.5990, 213.5654
504.0811, 212.5297
504.5633, 211.2292
505.0454, 210.2825
505.5275, 209.8487
506.0096, 209.5259
506.4917, 209.1760
506.9738, 208.7952
507.4560, 208.3288
507.9381, 207.6904
508.4202, 207.1954
508.9023, 207.3613
509.3844, 208.1301
509.8665, 208.4458
510.3487, 208.0036
510.8308, 207.2254
511.3129, 206.8121
511.7950, 206.6955
512.2772, 206.5542
512.7593, 206.1237
513.2414, 205.6274
513.7235, 205.3134
514.2056, 205.1861
514.6877, 205.1907
515.1699, 205.3240
515.6520, 205.5547
516.1341, 205.8605
516.6162, 206.2669
517.0983, 206.6842
517.5804, 207.3615
518.0626, 208.0945
518.5447, 208.7140
519.0268, 209.2262
519.5089, 209.3098
519.9910, 209.9469
520.4731, 210.3621
520.9553, 210.7684
521.4374, 211.4833
521.9195, 211.6292
522.4016, 212.3392
522.8837, 212.8298
523.3658, 214.0496
523.8480, 215.1233
524.3301, 216.1406
524.8122, 217.2517
525.2943, 218.4409
525.7764, 219.4275
526.2585, 219.9168
526.7407, 220.4172
527.2228, 222.0983
527.7049, 224.7823
528.1870, 227.3636
528.6691, 229.1111
529.1512, 230.4522
529.6334, 231.7904
530.1155, 233.1579
530.5976, 234.7492
531.0797, 236.5861
531.5618, 238.7670
532.0439, 241.4147
532.5261, 245.3498
533.0082, 248.6524
533.4903, 250.2871
533.9724, 251.0307
534.4545, 252.5977
534.9366, 255.8580
535.4188, 259.1147
535.9009, 261.9240
536.3830, 264.3027
536.8651, 266.9248
537.3472, 269.8368
537.8293, 272.8990
538.3115, 276.0396
538.7936, 279.2621
539.2757, 282.4299
539.7578, 285.5671
540.2399, 288.5046
540.7220, 290.9078
541.2042, 292.8549
541.6863, 294.9817
542.1684, 297.6040
542.6505, 300.3869
543.1326, 303.0201
543.6147, 305.4415
544.0969, 307.4796
544.5790, 308.7298
545.0611, 309.6989
545.5432, 310.8492
546.0253, 312.2315
546.5074, 313.3839
546.9896, 313.8418
547.4717, 314.1281
547.9538, 314.6788
548.4359, 316.1814
548.9180, 317.1117
549.4001, 317.3009
549.8823, 316.8846
550.3644, 316.0029
550.8465, 314.2294
551.3286, 312.8152
551.8107, 312.2901
552.2928, 312.4435
552.7750, 311.6610
553.2571, 309.8033
553.7392, 307.6938
554.2213, 305.6310
554.7034, 303.7141
555.1855, 302.5367
555.6677, 302.1911
556.1498, 302.0918
556.6319, 301.7408
557.1140, 301.1689
557.5961, 300.4782
558.0782, 299.8628
558.5604, 298.8490
559.0425, 296.9943
559.5246, 294.4585
560.0067, 291.5956
560.4888, 287.9487
560.9709, 284.5778
561.4531, 282.0107
561.9352, 280.2531
562.4173, 278.8765
562.8994, 278.3492
563.3815, 277.7658
563.8636, 276.6363
564.3458, 274.7296
564.8279, 272.8893
565.3100, 270.9977
565.7921, 269.2984
566.2742, 268.2548
566.7563, 267.9529
567.2385, 267.3875
567.7206, 266.2498
568.2027, 264.8539
568.6848, 263.9778
569.1669, 263.5472
569.6490, 263.0994
570.1312, 262.2338
570.6133, 261.2612
571.0954, 260.6382
571.5775, 260.3570
572.0596, 260.2574
572.5417, 260.3130
573.0239, 260.4515
573.5060, 260.6108
573.9881, 260.7782
574.4702, 260.9761
574.9523, 261.1032
575.4344, 261.3092
575.9166, 261.7774
576.3987, 262.5134
576.8808, 263.5410
577.3629, 265.0116
577.8450, 266.7670
578.3271, 268.2571
578.8093, 269.3337
579.2914, 270.5745
579.7735, 272.3238
580.2556, 274.4581
580.7377, 276.1473
581.2198, 277.3415
581.7020, 278.4999
582.1841, 280.1561
582.6662, 282.0411
583.1483, 283.4193
583.6304, 284.0603
584.1125, 284.8114
584.5947, 286.6274
585.0768, 288.9802
585.5589, 291.1010
586.0410, 292.7903
586.5231, 294.1390
587.0052, 294.8625
587.4873, 295.2544
587.9694, 296.0779
588.4515, 298.0724
588.9337, 299.9228
589.4158, 301.2178
589.8979, 301.9557
590.3800, 302.7765
590.8621, 303.9108
591.3442, 304.7157
591.8264, 304.7682
592.3085, 304.0434
592.7906, 302.8549
593.2727, 301.1393
593.7548, 299.1777
594.2369, 297.2776
594.7191, 295.3818
595.2012, 293.3471
595.6833, 291.1621
596.1654, 288.7380
596.6475, 286.1043
597.1296, 283.1695
597.6118, 279.6628
598.0939, 274.8287
598.5760, 269.9683
599.0581, 265.8201
599.5402, 262.4022
600.0223, 258.9913
600.5045, 255.4401
600.9866, 251.8691
601.4687, 248.2857
601.9508, 244.6686
602.4329, 241.1146
602.9150, 237.5440
603.3972, 234.1815
603.8793, 231.3324
604.3614, 229.0444
604.8435, 226.5553
605.3256, 223.7534
605.8077, 220.8161
606.2899, 217.9952
606.7720, 215.2874
607.2541, 212.8058
607.7362, 210.5607
608.2183, 208.5833
608.7004, 207.2192
609.1826, 206.2401
609.6647, 204.9039
610.1468, 202.3959
610.6289, 199.7431
611.1110, 197.5879
611.5931, 195.9531
612.0753, 194.4692
612.5574, 193.0493
613.0395, 191.7600
613.5216, 190.6751
614.0037, 189.9815
614.4858, 188.9368
614.9680, 187.3310
615.4501, 185.6545
615.9322, 184.5806
616.4143, 184.1524
616.8964, 183.5403
617.3785, 182.5756
617.8607, 181.3920
618.3428, 180.2344
618.8249, 179.0674
619.3070, 177.7436
619.7891, 175.9697
620.2712, 174.1677
620.7534, 172.8227
621.2355, 171.8448
621.7176, 170.8690
622.1997, 169.4938
622.6818, 168.2558
623.1639, 167.5504
623.6461, 167.5184
624.1282, 167.2519
624.6103, 166.6124
625.0924, 165.7559
625.5745, 164.7288
626.0566, 163.3533
626.5388, 162.3067
627.0209, 161.7041
627.5030, 161.2717
627.9851, 160.5680
628.4672, 159.6214
628.9493, 158.9907
629.4315, 158.9414
629.9136, 159.0191
630.3957, 158.3212
630.8778, 157.1359
631.3599, 156.3375
631.8420, 156.7879
632.3242, 157.4352
632.8063, 157.4473
633.2884, 156.9241
633.7705, 156.4726
634.2526, 156.7795
634.7347, 156.8024
635.2169, 155.8393
635.6990, 153.6158
636.1811, 152.0477
636.6632, 151.4408
637.1453, 151.0990
637.6274, 150.4790
638.1096, 149.4756
638.5917, 148.9199
639.0738, 148.9130
639.5559, 149.1542
640.0380, 149.3606
640.5201, 149.5075
641.0023, 149.4813
641.4844, 149.2298
641.9665, 148.8428
642.4486, 148.3071
642.9307, 147.7080
643.4128, 147.2387
643.8950, 147.1560
644.3771, 147.0484
644.8592, 146.5663
645.3413, 145.8337
645.8234, 145.4954
646.3055, 146.2732
646.7877, 146.8203
647.2698, 146.6060
647.7519, 145.5924
648.2340, 144.9214
648.7161, 144.6811
649.1982, 144.5408
649.6804, 144.2124
650.1625, 143.7352
650.6446, 143.5545
651.1267, 143.7266
651.6088, 143.9170
652.0909, 143.7489
652.5731, 143.3644
653.0552, 142.9846
653.5373, 142.6057
654.0194, 142.3928
654.5015, 142.6649
654.9836, 143.1058
655.4658, 143.2529
655.9479, 142.6097
656.4300, 141.5377
656.9121, 142.1422
657.3942, 142.4674
657.8763, 142.5283
658.3585, 141.5334
658.8406, 141.9019
659.3227, 141.7240
659.8048, 141.5237
660.2869, 142.0841
660.7690, 141.2428
661.2512, 141.7911
661.7333, 141.7847
662.2154, 142.0322
662.6975, 141.7299
663.1796, 141.5974
663.6617, 142.0149
664.1439, 142.1278
664.6260, 141.7623
665.1081, 142.0259
665.5902, 141.1654
666.0723, 141.2913
666.5544, 141.8428
667.0366, 141.5049
667.5187, 141.7785
668.0008, 141.8193
668.4829, 140.8015
668.9650, 141.6246
669.4471, 141.8495
669.9293, 141.9275
670.4114, 141.4619
670.8935, 141.1784
671.3756, 141.3534
671.8577, 141.1641
672.3398, 141.7800
672.8220, 142.1166
673.3041, 142.1890
673.7862, 141.2055
674.2683, 141.5854
674.7504, 141.4189
675.2325, 141.2300
675.7147, 141.8018
676.1968, 141.1674
676.6789, 140.7692
677.1610, 140.6590
677.6431, 140.8476
678.1252, 141.0523
678.6074, 141.2732
679.0895, 141.5076
679.5716, 141.7892
680.0537, 142.1205
680.5358, 142.2829
681.0179, 142.2670
681.5001, 142.1281
681.9822, 141.8724
682.4643, 141.5412
682.9464, 141.2024
683.4285, 140.8414
683.9106, 140.5733
684.3928, 140.4902
684.8749, 140.5396
685.3570, 140.6543
685.8391, 140.9956
686.3212, 141.1839
686.8033, 140.9390
687.2855, 140.5793
687.7676, 140.6661
688.2497, 141.4941
688.7318, 142.0134
689.2139, 141.9363
689.6960, 141.4880
690.1782, 141.2308
690.6603, 141.1618
691.1424, 141.2144
691.6245, 141.4331
692.1066, 141.7080
692.5887, 141.8775
693.0709, 141.9518
693.5530, 141.9738
694.0351, 141.9389
694.5172, 141.8783
694.9993, 141.7168
695.4814, 141.4432
695.9636, 141.5112
696.4457, 142.3520
696.9278, 143.1893
697.4099, 143.6227
697.8920, 143.5543
698.3741, 143.7751
698.8563, 144.3716
699.3384, 144.9909
699.8205, 145.3313
700.3026, 145.4232
700.7847, 145.3665
701.2668, 145.1437
701.7490, 144.9874
702.2311, 145.1308
702.7132, 145.4764
703.1953, 145.9214
703.6774, 146.5681
704.1595, 147.0398
704.6417, 147.0596
705.1238, 146.8715
705.6059, 146.8167
706.0880, 147.0339
706.5701, 147.1794
707.0522, 147.1657
707.5344, 147.1034
708.0165, 147.2949
708.4986, 147.7699
708.9807, 148.0049
709.4628, 147.7495
709.9449, 147.2824
710.4271, 147.1245
710.9092, 147.2146
711.3913, 147.3194
711.8734, 147.2091
712.3555, 147.1628
712.8376, 147.3813
713.3198, 147.8430
713.8019, 148.4109
714.2840, 149.3091
714.7661, 150.0471
715.2482, 150.4008
715.7303, 150.3849
716.2125, 150.4002
716.6946, 150.4200
717.1767, 150.5444
717.6588, 150.9014
718.1409, 151.4458
718.6230, 151.7767
719.1052, 151.8932
719.5873, 151.9953
720.0694, 152.2922
720.5515, 152.6511
721.0336, 152.8708
721.5157, 152.9030
721.9979, 153.0172
722.4800, 153.6166
722.9621, 154.1745
723.4442, 154.2366
723.9263, 153.4523
724.4084, 152.8201
724.8906, 152.2505
725.3727, 151.9305
725.8548, 152.2595
726.3369, 153.3284
726.8190, 153.5989
727.3011, 152.7786
727.7833, 151.5409
728.2654, 150.6218
728.7475, 149.9803
729.2296, 149.5551
729.7117, 149.4521
730.1938, 149.3018
730.6760, 148.7640
731.1581, 148.0441
731.6402, 147.4500
732.1223, 147.2693
732.6044, 146.9486
733.0865, 146.3000
733.5687, 145.5112
734.0508, 145.0405
734.5329, 145.0246
735.0150, 144.7218
735.4971, 143.8211
735.9792, 142.6466
736.4614, 141.9048
736.9435, 141.5506
737.4256, 141.3506
737.9077, 141.2743
738.3898, 141.2332
738.8719, 141.2254
739.3541, 141.2003
739.8362, 140.9802
740.3183, 140.0901
740.8004, 139.4004
741.2825, 139.4427
741.7646, 140.0884
742.2468, 140.2302
742.7289, 139.6444
743.2110, 139.1183
743.6931, 139.0829
744.1752, 139.4237
744.6573, 139.4305
745.1395, 139.1143
745.6216, 138.8471
746.1037, 139.0592
746.5858, 139.3775
747.0679, 139.2489
747.5500, 138.6721
748.0322, 138.2462
748.5143, 138.5526
748.9964, 138.8511
749.4785, 138.5668
749.9606, 137.4411
750.4427, 136.9961
750.9249, 137.5926
751.4070, 138.2462
751.8891, 138.1525
752.3712, 137.3289
752.8533, 137.0168
753.3354, 137.2990
753.8176, 137.5902
754.2997, 137.2021
754.7818, 136.5156
755.2639, 136.1180
755.7460, 136.1275
756.2281, 136.2676
756.7103, 136.5723
757.1924, 136.8392
757.6745, 136.8815
758.1566, 136.5563
758.6387, 136.2288
759.1208, 135.8323
759.6030, 135.5089
760.0851, 135.4001
760.5672, 135.5064
761.0493, 135.8452
761.5314, 136.5015
762.0135, 137.0286
762.4957, 136.6277
762.9778, 135.7669
763.4599, 135.3579
763.9420, 135.7829
764.4241, 136.3250
764.9063, 136.6534
765.3884, 136.8510
765.8705, 137.0213
766.3526, 137.3893
766.8347, 137.3951
767.3168, 136.8235
767.7990, 136.0556
768.2811, 135.6651
768.7632, 135.6658
769.2453, 135.7953
769.7274, 136.0575
770.2095, 136.2844
770.6917, 136.1459
771.1738, 135.7957
771.6559, 135.5779
772.1380, 135.7260
772.6201, 135.8808
773.1022, 135.7057
773.5844, 135.4379
774.0665, 135.5140
774.5486, 136.4007
775.0307, 137.0268
775.5128, 137.2193
775.9949, 137.1072
776.4771, 136.9624
776.9592, 136.7866
777.4413, 136.5015
777.9234, 136.0067
778.4055, 135.5143
778.8876, 135.2419
779.3698, 135.2325
779.8519, 135.5983
780.3340, 137.1260
780.8161, 138.2724
781.2982, 138.0179
781.7803, 136.8383
782.2625, 136.0216
782.7446, 135.7263
783.2267, 135.7024
783.7088, 135.9929
784.1909, 136.4736
784.6730, 136.8145
785.1552, 137.0173
785.6373, 137.0969
786.1194, 136.9910
786.6015, 136.8406
787.0836, 136.8744
787.5657, 137.0365
788.0479, 137.1732
788.5300, 137.2949
789.0121, 137.2886
789.4942, 136.9217
789.9763, 136.3553
790.4584, 136.2330
790.9406, 136.8192
791.4227, 137.3473
791.9048, 137.5850
792.3869, 137.6289
792.8690, 137.7910
793.3511, 138.0652
793.8333, 138.3361
794.3154, 138.6291
794.7975, 138.8248
795.2796, 138.6902
795.7617, 138.3202
796.2438, 138.0227
796.7260, 138.1214
797.2081, 138.1101
797.6902, 137.6023
798.1723, 136.7978
798.6544, 136.5187
799.1365, 136.9748
799.6187, 137.4078
800.1008, 137.5707
800.5829, 137.5370
801.0650, 137.4400
801.5471, 137.3111
802.0292, 137.3587
802.5114, 137.9885
802.9935, 138.6116
803.4756, 138.5448
803.9577, 137.9904
804.4398, 137.6330
804.9219, 137.7782
805.4041, 138.0417
805.8862, 138.3412
806.3683, 138.6633
806.8504, 138.9795
807.3325, 139.3171
807.8146, 139.5051
808.2968, 139.4034
808.7789, 139.1783
809.2610, 139.2031
809.7431, 139.4395
810.2252, 139.7300
810.7073, 140.1505
811.1895, 140.4528
811.6716, 140.4326
812.1537, 140.1584
812.6358, 139.8794
813.1179, 139.4972
813.6000, 139.3145
814.0822, 139.4891
814.5643, 139.8884
815.0464, 140.0486
815.5285, 139.9692
816.0106, 139.6936
816.4927, 139.0072
816.9749, 138.3770
817.4570, 138.6934
817.9391, 139.6728
818.4212, 140.5089
818.9033, 140.8416
819.3854, 140.9409
819.8676, 140.7595
820.3497, 140.4153
820.8318, 140.2749
821.3139, 140.3146
821.7960, 140.6682
822.2781, 141.5854
822.7603, 142.6284
823.2424, 142.5637
823.7245, 141.5660
824.2066, 140.7796
824.6887, 140.8168
825.1708, 141.0647
825.6530, 140.9170
826.1351, 140.5522
826.6172, 140.3703
827.0993, 140.4650
827.5814, 140.8068
828.0635, 141.6345
828.5457, 142.5891
829.0278, 142.8820
829.5099, 142.4253
829.9920, 141.8528
830.4741, 141.2422
830.9562, 140.7407
831.4384, 140.6265
831.9205, 140.8089
832.4026, 141.0546
832.8847, 141.2936
833.3668, 141.5553
833.8489, 141.9030
834.3311, 142.2691
834.8132, 142.5385
835.2953, 142.7330
835.7774, 142.7618
836.2595, 142.5322
836.7416, 142.2368
837.2238, 142.2070
837.7059, 142.4172
838.1880, 142.6393
838.6701, 142.8292
839.1522, 142.9980
839.6343, 143.1063
840.1165, 143.2191
840.5986, 143.4420
841.0807, 143.9886
841.5628, 144.3366
842.0449, 144.2417
842.5270, 143.9978
843.0092, 143.8941
843.4913, 143.9610
843.9734, 143.9882
844.4555, 143.9424
844.9376, 143.9121
845.4197, 144.0984
845.9019, 144.3609
846.3840, 144.3363
846.8661, 143.8655
847.3482, 143.5569
847.8303, 144.0385
848.3124, 144.6673
848.7946, 144.8113
849.2767, 144.1071
849.7588, 143.7755
850.2409, 143.8878
850.7230, 144.2361
851.2051, 144.7914
851.6873, 145.4691
852.1694, 145.6268
852.6515, 145.1995
853.1336, 144.8442
853.6157, 145.2498
854.0978, 145.8925
854.5800, 146.2871
855.0621, 146.3613
855.5442, 146.2908
856.0263, 145.7818
856.5084, 145.4946
856.9905, 145.8929
857.4727, 146.9775
857.9548, 147.4568
858.4369, 147.2950
858.9190, 146.9445
859.4011, 146.5767
859.8832, 146.2935
860.3654, 146.3376
860.8475, 146.6718
861.3296, 146.9451
861.8117, 146.8700
862.2938, 146.8172
862.7759, 147.0437
863.2581, 147.4920
863.7402, 147.6776
864.2223, 147.4722
864.7044, 147.4509
865.1865, 147.9777
865.6686, 148.7663
866.1508, 149.0990
866.6329, 149.0264
867.1150, 148.7565
867.5971, 147.9938
868.0792, 147.4584
868.5613, 147.6763
869.0435, 148.4703
869.5256, 149.3083
870.0077, 150.3443
870.4898, 151.0481
870.9719, 151.3038
871.4540, 151.1998
871.9362, 150.6968
872.4183, 149.9011
872.9004, 149.7106
873.3825, 150.6179
873.8646, 151.7706
874.3467, 152.4837
874.8289, 152.8587
875.3110, 153.0364
875.7931, 152.9111
876.2752, 152.7715
876.7573, 152.5508
877.2394, 152.4107
877.7216, 152.6245
878.2037, 153.2239
878.6858, 153.5241
879.1679, 153.3792
879.6500, 153.2669
880.1321, 153.7775
880.6143, 154.6284
881.0964, 155.4706
881.5785, 156.3013
882.0606, 156.8308
882.5427, 156.7106
883.0248, 156.4409
883.5070, 156.3200
883.9891, 156.3156
884.4712, 156.7323
884.9533, 157.6487
885.4354, 158.5622
885.9175, 159.0915
886.3997, 159.3269
886.8818, 159.2521
887.3639, 158.9293
887.8460, 159.0378
888.3281, 160.5320
888.8102, 162.0288
889.2924, 162.6753
889.7745, 162.5129
890.2566, 162.4554
890.7387, 162.5190
891.2208, 162.6402
891.7029, 162.7735
892.1851, 162.9614
892.6672, 163.2910
893.1493, 163.7731
893.6314, 164.4370
894.1135, 165.7588
894.5956, 166.8140
895.0778, 166.7168
895.5599, 165.9796
896.0420, 165.9467
896.5241, 167.0111
897.0062, 168.1026
897.4883, 169.1024
897.9705, 169.9651
898.4526, 170.4807
898.9347, 170.7408
899.4168, 171.1983
899.8989, 172.0473
900.3810, 172.8877
900.8632, 173.3713
901.3453, 173.6880
901.8274, 174.0473
902.3095, 174.2847
902.7916, 175.0076
903.2737, 176.5487
903.7559, 178.0904
904.2380, 178.7484
904.7201, 178.6470
905.2022, 178.9232
905.6843, 179.6411
906.1664, 180.6131
906.6486, 181.9837
907.1307, 183.3192
907.6128, 184.0532
908.0949, 184.0779
908.5770, 184.6991
909.0591, 186.4124
909.5413, 188.3051
910.0234, 190.1043
910.5055, 191.7797
910.9876, 193.0525
911.4697, 193.9439
911.9518, 194.8305
912.4340, 195.8704
912.9161, 197.0531
913.3982, 198.2188
913.8803, 199.4932
914.3624, 201.2173
914.8445, 204.1584
915.3267, 206.6739
915.8088, 208.3080
916.2909, 209.4930
916.7730, 211.0282
917.2551, 212.9188
917.7372, 215.1472
918.2194, 217.8460
918.7015, 220.4801
919.1836, 222.1790
919.6657, 223.5631
920.1478, 225.4872
920.6299, 228.3107
921.1121, 231.3882
921.5942, 234.8173
922.0763, 238.3004
922.5584, 241.5392
923.0405, 244.5160
923.5226, 247.7988
924.0048, 251.3849
924.4869, 255.3427
924.9690, 259.8501
925.4511, 264.7375
925.9332, 269.8605
926.4153, 275.2046
926.8975, 280.4255
927.3796, 284.8154
927.8617, 289.7742
928.3438, 295.9288
928.8259, 303.0552
929.3080, 310.0590
929.7902, 316.9727
930.2723, 324.2388
930.7544, 331.9008
931.2365, 340.1040
931.7186, 349.1192
932.2007, 358.6951
932.6829, 368.2762
933.1650, 377.3951
933.6471, 387.0697
934.1292, 397.2749
934.6113, 408.1162
935.0934, 419.6018
935.5756, 431.8211
936.0577, 444.4132
936.5398, 457.1715
937.0219, 470.3471
937.5040, 484.0360
937.9861, 498.1482
938.4683, 512.3587
938.9504, 526.4958
939.4325, 541.2348
939.9146, 556.5806
940.3967, 572.2491
940.8788, 588.3399
941.3610, 604.7457
941.8431, 620.6926
942.3252, 636.3304
942.8073, 652.3653
943.2894, 669.8440
943.7715, 687.2070
944.2537, 703.0749
944.7358, 717.6457
945.2179, 731.9913
945.7000, 746.8745
946.1821, 760.8197
946.6642, 773.9064
947.1464, 785.8269
947.6285, 795.9744
948.1106, 804.3854
948.5927, 810.9886
949.0748, 815.8348
949.5569, 818.6454
950.0391, 819.0331
950.5212, 817.3088
951.0033, 813.8573
951.4854, 808.7808
951.9675, 801.5527
952.4496, 791.9636
952.9318, 780.6221
953.4139, 767.9935
953.8960, 754.0209
954.3781, 738.1213
954.8602, 720.4648
955.3423, 701.8627
955.8245, 682.4323
956.3066, 662.6699
956.7887, 642.6863
957.2708, 622.5352
957.7529, 603.0302
958.2350, 584.0205
958.7172, 565.7261
959.1993, 548.1700
959.6814, 531.1057
960.1635, 514.0867
960.6456, 497.2799
961.1277, 481.4539
961.6099, 466.9306
962.0920, 453.1897
962.5741, 439.9717
963.0562, 427.3227
963.5383, 415.4641
964.0204, 404.2862
964.5026, 393.9380
964.9847, 384.5517
965.4668, 375.8464
965.9489, 367.7539
966.4310, 360.1826
966.9131, 352.4723
967.3953, 344.6943
967.8774, 337.3876
968.3595, 331.0165
968.8416, 325.0990
969.3237, 319.4609
969.8058, 314.1098
970.2880, 309.1600
970.7701, 304.5702
971.2522, 300.4118
971.7343, 296.7089
972.2164, 293.3581
972.6985, 290.2433
973.1807, 287.2915
973.6628, 284.4001
974.1449, 281.4961
974.6270, 278.6241
975.1091, 275.6489
975.5912, 272.7968
976.0734, 270.3331
976.5555, 268.2790
977.0376, 266.0080
977.5197, 263.5060
978.0018, 261.1239
978.4839, 259.2055
978.9661, 257.4939
979.4482, 255.7433
979.9303, 253.9412
980.4124, 252.1583
980.8945, 250.1385
981.3766, 248.5396
981.8588, 247.6455
982.3409, 247.2078
982.8230, 246.4120
983.3051, 245.3895
983.7872, 244.8780
984.2693, 245.3530
984.7515, 245.9928
985.2336, 246.2159
985.7157, 246.2636
986.1978, 246.4748
986.6799, 247.1175
987.1620, 247.4478
987.6442, 247.6147
988.1263, 247.0373
988.6084, 245.3192
989.0905, 242.4280
989.5726, 237.8642
990.0547, 231.7772
990.5369, 226.0153
991.0190, 221.4884
991.5011, 217.5761
991.9832, 213.9522
992.4653, 210.7021
992.9474, 208.2331
993.4296, 206.6531
993.9117, 204.9790
994.3938, 202.7663
994.8759, 200.6852
995.3580, 199.8913
995.8401, 199.7698
996.3223, 199.3007
996.8044, 198.1043
997.2865, 196.7898
997.7686, 195.2287
998.2507, 193.8332
998.7328, 192.9604
999.2150, 192.5943
999.6971, 192.2839
1000.179, 192.0234
1000.661, 191.6434
1001.143, 190.8841
1001.626, 190.0861
1002.108, 189.5763
1002.590, 189.2812
1003.072, 188.7352
1003.554, 187.7373
1004.036, 186.9675
1004.518, 186.6447
1005.000, 186.4745
1005.482, 185.8530
1005.965, 184.9905
1006.447, 184.5107
1006.929, 184.6630
1007.411, 184.7719
1007.893, 184.3396
1008.375, 183.8746
1008.857, 183.7935
1009.339, 184.1402
1009.822, 184.2181
1010.304, 184.0042
1010.786, 183.7757
1011.268, 183.7693
1011.750, 183.8078
1012.232, 183.6420
1012.714, 183.3298
1013.196, 183.0395
1013.678, 183.4389
1014.161, 184.4506
1014.643, 185.1822
1015.125, 185.6495
1015.607, 185.0610
1016.089, 185.8359
1016.571, 186.0644
1017.053, 186.2705
1017.535, 187.2373
1018.018, 186.8032
1018.500, 187.7579
1018.982, 188.1579
1019.464, 188.2662
1019.946, 189.3118
1020.428, 189.6029
1020.910, 189.9894
1021.392, 190.8303
1021.874, 191.9983
1022.357, 193.3691
1022.839, 194.8478
1023.321, 196.2010
1023.803, 197.3233
1024.285, 198.3238
1024.767, 198.9669
1025.249, 199.7210
1025.731, 201.0312
1026.214, 202.9035
1026.696, 205.1660
1027.178, 207.8399
1027.660, 210.2043
1028.142, 211.3508
1028.624, 212.2523
1029.106, 213.6381
1029.588, 215.5592
1030.070, 218.0275
1030.553, 221.3937
1031.035, 224.3986
1031.517, 226.5956
1031.999, 228.5310
1032.481, 231.3547
1032.963, 234.7342
1033.445, 237.7420
1033.927, 239.9524
1034.410, 242.5963
1034.892, 246.3790
1035.374, 250.6594
1035.856, 254.9897
1036.338, 259.3900
1036.820, 263.6247
1037.302, 267.6215
1037.784, 271.7881
1038.266, 276.3654
1038.749, 281.1730
1039.231, 285.9118
1039.713, 290.7159
1040.195, 295.8081
1040.677, 301.3233
1041.159, 306.9715
1041.641, 312.8226
1042.123, 318.7296
1042.605, 324.6008
1043.088, 330.4188
1043.570, 335.8435
1044.052, 340.8436
1044.534, 346.1296
1045.016, 352.4839
1045.498, 358.8155
1045.980, 364.4981
1046.462, 369.6528
1046.945, 374.7376
1047.427, 379.7856
1047.909, 385.1327
1048.391, 391.0492
1048.873, 396.8016
1049.355, 402.0363
1049.837, 406.4722
1050.319, 409.6687
1050.802, 410.8227
1051.284, 412.4579
1051.766, 414.9533
1052.248, 417.1084
1052.730, 418.0548
1053.212, 417.9596
1053.694, 417.3913
1054.176, 416.2802
1054.658, 414.3110
1055.141, 411.0714
1055.623, 407.2196
1056.105, 402.8344
1056.587, 398.0336
1057.069, 392.8732
1057.551, 387.3410
1058.033, 381.9444
1058.515, 376.7783
1058.997, 371.2903
1059.480, 364.4908
1059.962, 357.4086
1060.444, 351.1115
1060.926, 345.7494
1061.408, 339.7897
1061.890, 332.7208
1062.372, 326.3173
1062.854, 321.3178
1063.337, 317.1968
1063.819, 313.2701
1064.301, 309.4879
1064.783, 305.7930
1065.265, 302.2224
1065.747, 298.5810
1066.229, 294.2032
1066.711, 290.2887
1067.193, 287.7094
1067.676, 286.4126
1068.158, 284.9604
1068.640, 283.3698
1069.122, 281.9857
1069.604, 280.9533
1070.086, 280.2435
1070.568, 279.9858
1071.050, 279.9881
1071.532, 279.8016
1072.015, 279.2959
1072.497, 279.0755
1072.979, 279.2705
1073.461, 279.4434
1073.943, 278.8672
1074.425, 278.1206
1074.907, 278.0973
1075.389, 278.8431
1075.872, 279.5421
1076.354, 280.0683
1076.836, 280.3792
1077.318, 280.3499
1077.800, 280.2019
1078.282, 280.6400
1078.764, 281.4193
1079.246, 281.6166
1079.729, 280.8974
1080.211, 279.9103
1080.693, 279.0192
1081.175, 277.9676
1081.657, 276.6017
1082.139, 274.9187
1082.621, 273.1193
1083.103, 271.1938
1083.585, 268.9161
1084.068, 265.8817
1084.550, 262.7285
1085.032, 260.3978
1085.514, 258.3204
1085.996, 255.4895
1086.478, 251.4698
1086.960, 247.4501
1087.442, 243.5184
1087.924, 239.4303
1088.406, 234.3089
1088.889, 229.1657
1089.371, 226.3386
1089.853, 225.4875
1090.335, 223.8274
1090.817, 219.6245
1091.299, 215.3264
1091.781, 211.3210
1092.263, 207.7270
1092.746, 204.8720
1093.228, 202.6688
1093.710, 200.8961
1094.192, 199.5777
1094.674, 198.0512
1095.156, 195.7127
1095.638, 193.1538
1096.120, 190.5964
1096.603, 188.1395
1097.085, 186.6076
1097.567, 186.0379
1098.049, 185.3963
1098.531, 184.2904
1099.013, 182.9877
1099.495, 181.5340
1099.977, 180.1536
1100.459, 179.1659
1100.942, 178.8523
1101.424, 178.1797
1101.906, 177.0241
1102.388, 175.9097
1102.870, 175.1421
1103.352, 174.6539
1103.834, 174.5632
1104.316, 174.6387
1104.798, 174.2303
1105.281, 172.4407
1105.763, 171.0982
1106.245, 170.5031
1106.727, 170.3242
1107.209, 170.3678
1107.691, 170.5323
1108.173, 170.3540
1108.655, 169.8220
1109.138, 169.2066
1109.620, 168.4155
1110.102, 167.8466
1110.584, 167.8486
1111.066, 168.1180
1111.548, 167.9661
1112.030, 167.4014
1112.512, 166.9728
1112.995, 166.7729
1113.477, 166.7293
1113.959, 167.0628
1114.441, 167.3045
1114.923, 166.9236
1115.405, 165.9306
1115.887, 165.2896
1116.369, 165.0644
1116.851, 164.7903
1117.333, 164.2677
1117.816, 163.6950
1118.298, 163.4020
1118.780, 163.2045
1119.262, 162.7879
1119.744, 161.8884
1120.226, 161.4799
1120.708, 161.8598
1121.190, 162.0655
1121.673, 161.3285
1122.155, 160.1329
1122.637, 159.6911
1123.119, 159.7550
1123.601, 159.6395
1124.083, 158.7261
1124.565, 158.1327
1125.047, 158.2407
1125.530, 158.4259
1126.012, 157.9089
1126.494, 156.9152
1126.976, 156.9758
1127.458, 157.9671
1127.940, 158.4651
1128.422, 157.1007
1128.904, 155.6833
1129.386, 154.8557
1129.869, 154.5537
1130.351, 155.0534
1130.833, 156.3214
1131.315, 156.2742
1131.797, 154.6054
1132.279, 152.7229
1132.761, 151.4225
1133.243, 150.6100
1133.725, 150.4558
1134.208, 150.7834
1134.690, 150.7818
1135.172, 150.4207
1135.654, 149.9138
1136.136, 149.2592
1136.618, 148.6581
1137.100, 148.2674
1137.582, 148.0900
1138.065, 148.1710
1138.547, 148.5554
1139.029, 149.0094
1139.511, 149.7219
1139.993, 149.8319
1140.475, 148.8561
1140.957, 147.3329
1141.439, 145.7189
1141.922, 144.2867
1142.404, 143.5515
1142.886, 144.0511
1143.368, 144.1296
1143.850, 143.4684
1144.332, 142.8161
1144.814, 142.7446
1145.296, 142.9629
1145.778, 142.6669
1146.260, 142.0112
1146.743, 141.4390
1147.225, 141.2292
1147.707, 140.9943
1148.189, 140.7395
1148.671, 140.3504
1149.153, 139.6299
1149.635, 138.6782
1150.117, 137.9115
1150.600, 137.3520
1151.082, 137.0546
1151.564, 137.3983
1152.046, 137.5724
1152.528, 137.1653
1153.010, 136.5361
1153.492, 136.1287
1153.974, 135.9348
1154.457, 135.9125
1154.939, 136.0554
1155.421, 136.1040
1155.903, 135.7948
1156.385, 135.4263
1156.867, 135.1333
1157.349, 134.9213
1157.831, 134.8767
1158.313, 135.0038
1158.796, 134.8199
1159.278, 134.2038
1159.760, 133.5991
1160.242, 133.2559
1160.724, 133.1822
1161.206, 133.5312
1161.688, 134.2138
1162.170, 134.6024
1162.652, 134.6772
1163.135, 134.6953
1163.617, 134.7288
1164.099, 134.7287
1164.581, 134.6215
1165.063, 134.4680
1165.545, 134.3027
1166.027, 134.1208
1166.509, 134.1546
1166.992, 134.4731
1167.474, 134.5964
1167.956, 134.2185
1168.438, 133.7510
1168.920, 133.7963
1169.402, 134.0669
1169.884, 134.1247
1170.366, 133.7526
1170.849, 133.6760
1171.331, 134.0102
1171.813, 134.2285
1172.295, 133.8794
1172.777, 133.3860
1173.259, 133.6082
1173.741, 134.1741
1174.223, 134.3357
1174.705, 133.4521
1175.188, 132.9574
1175.670, 132.9689
1176.152, 133.0962
1176.634, 133.0626
1177.116, 132.9298
1177.598, 132.7374
1178.080, 132.5479
1178.562, 132.5431
1179.044, 133.0088
1179.527, 133.3254
1180.009, 133.4485
1180.491, 133.4116
1180.973, 133.1562
1181.455, 132.8001
1181.937, 132.6393
1182.419, 132.6504
1182.901, 132.6556
1183.384, 132.5560
1183.866, 132.4986
1184.348, 132.5146
1184.830, 132.5706
1185.312, 132.5645
1185.794, 132.5780
1186.276, 132.8943
1186.758, 133.5023
1187.240, 134.0300
1187.723, 134.6093
1188.205, 134.6011
1188.687, 133.5659
1189.169, 132.2844
1189.651, 132.2081
1190.133, 132.9386
1190.615, 133.2011
1191.097, 132.8267
1191.579, 132.5619
1192.062, 132.9589
1192.544, 133.2412
1193.026, 133.1268
1193.508, 132.7789
1193.990, 132.5042
1194.472, 132.3027
1194.954, 132.1884
1195.436, 132.1716
1195.919, 132.1699
1196.401, 132.1471
1196.883, 132.1341
1197.365, 132.1386
1197.847, 132.1672
1198.329, 132.2877
1198.811, 132.4530
1199.293, 132.4180
1199.776, 132.0228
1200.258, 131.8882
1200.740, 132.7892
1201.222, 133.4759
1201.704, 133.1722
1202.186, 132.2228
1202.668, 132.0792
1203.150, 132.5440
1203.632, 132.8138
1204.115, 132.5649
1204.597, 132.2965
1205.079, 132.2097
1205.561, 132.2067
1206.043, 132.2437
1206.525, 132.3171
1207.007, 132.4320
1207.489, 132.5698
1207.971, 132.6449
1208.454, 132.5855
1208.936, 132.5330
1209.418, 132.4643
1209.900, 132.5144
1210.382, 132.9099
1210.864, 133.5280
1211.346, 133.3658
1211.828, 132.5774
1212.311, 131.9192
1212.793, 131.7021
1213.275, 131.7093
1213.757, 132.0143
1214.239, 132.3652
1214.721, 132.5646
1215.203, 132.6371
1215.685, 132.8071
1216.167, 133.0429
1216.650, 133.1784
1217.132, 133.0894
1217.614, 132.9400
1218.096, 132.7710
1218.578, 132.5750
1219.060, 132.2942
1219.542, 131.9653
1220.024, 131.8665
1220.506, 131.9674
1220.989, 132.0651
1221.471, 132.0572
1221.953, 132.0296
1222.435, 131.9247
1222.917, 131.9064
1223.399, 132.2619
1223.881, 132.8693
1224.363, 133.0048
1224.846, 132.7422
1225.328, 132.6680
1225.810, 133.5531
1226.292, 133.9669
1226.774, 133.3165
1227.256, 132.4353
1227.738, 132.3821
1228.220, 132.9207
1228.703, 133.2253
1229.185, 133.2688
1229.667, 133.2097
1230.149, 133.0140
1230.631, 132.8695
1231.113, 132.8446
1231.595, 132.8409
1232.077, 132.5819
1232.559, 132.2704
1233.042, 132.7088
1233.524, 133.8108
1234.006, 134.4655
1234.488, 133.8611
1234.970, 133.2041
1235.452, 132.6778
1235.934, 132.2866
1236.416, 132.0943
1236.898, 132.0321
1237.381, 131.9278
1237.863, 131.7840
1238.345, 131.7514
1238.827, 132.0152
1239.309, 132.1733
1239.791, 132.0970
1240.273, 132.0362
1240.755, 132.5391
1241.238, 133.2079
1241.720, 133.1609
1242.202, 132.4012
1242.684, 131.9530
1243.166, 132.1869
1243.648, 132.3518
1244.130, 132.2569
1244.612, 132.1816
1245.094, 132.6383
1245.577, 133.2767
1246.059, 133.5121
1246.541, 133.3291
1247.023, 133.3097
1247.505, 133.6144
1247.987, 133.7769
1248.469, 133.7025
1248.951, 133.4433
1249.433, 132.8461
1249.916, 132.2511
1250.398, 132.1607
1250.880, 132.5751
1251.362, 132.6919
1251.844, 132.3824
1252.326, 132.2567
1252.808, 132.4792
1253.290, 132.7964
1253.773, 133.0602
1254.255, 133.1873
1254.737, 132.9751
1255.219, 132.4857
1255.701, 132.4245
1256.183, 132.8770
1256.665, 132.9264
1257.147, 132.2737
1257.630, 131.6930
1258.112, 132.0682
1258.594, 132.6889
1259.076, 132.9099
1259.558, 132.8346
1260.040, 133.0783
1260.522, 133.6312
1261.004, 133.7662
1261.486, 133.2696
1261.969, 132.7088
1262.451, 132.2776
1262.933, 132.1809
1263.415, 132.7669
1263.897, 133.7128
1264.379, 133.8798
1264.861, 133.3736
1265.343, 132.9620
1265.825, 132.8222
1266.308, 132.7025
1266.790, 132.3926
1267.272, 132.1452
1267.754, 132.0980
1268.236, 132.1804
1268.718, 132.1740
1269.200, 132.1349
1269.682, 132.3260
1270.165, 132.8389
1270.647, 133.1640
1271.129, 132.8659
1271.611, 132.6309
1272.093, 132.7395
1272.575, 132.9516
1273.057, 132.6464
1273.539, 132.1045
1274.021, 132.0173
1274.504, 132.5457
1274.986, 132.9291
1275.468, 132.9641
1275.950, 132.9900
1276.432, 133.1236
1276.914, 133.2629
1277.396, 133.2827
1277.878, 133.1880
1278.360, 132.9299
1278.843, 132.4952
1279.325, 132.2643
1279.807, 132.2997
1280.289, 132.3475
1280.771, 132.3015
1281.253, 132.3631
1281.735, 133.1499
1282.217, 133.9188
1282.700, 133.5936
1283.182, 132.2275
1283.664, 131.8495
1284.146, 132.5565
1284.628, 133.1163
1285.110, 133.2104
1285.592, 133.1619
1286.074, 133.2086
1286.557, 133.2746
1287.039, 133.3025
1287.521, 133.2969
1288.003, 133.2610
1288.485, 133.2017
1288.967, 133.2252
1289.449, 133.3658
1289.931, 133.4919
1290.413, 133.5189
1290.896, 133.5151
1291.378, 133.5187
1291.860, 133.5197
1292.342, 133.4405
1292.824, 133.3365
1293.306, 133.4493
1293.788, 133.8410
1294.270, 134.1065
1294.752, 134.2239
1295.235, 133.9053
1295.717, 132.8371
1296.199, 131.6958
1296.681, 131.9493
1297.163, 132.8559
1297.645, 132.9304
1298.127, 131.9884
1298.609, 131.6134
1299.092, 132.1365
1299.574, 132.8102
1300.056, 133.5687
1300.538, 134.0840
1301.020, 133.6740
1301.502, 133.0101
1301.984, 132.9494
1302.466, 133.4773
1302.948, 133.6748
1303.431, 133.4846
1303.913, 133.3680
1304.395, 133.4203
1304.877, 133.5621
##END=



