##NAMES=Krasnovite
##RRUFFID=R080115
##IDEAL CHEMISTRY=Ba(Al,Mg)(PO_4_,CO_3_)(OH)_2_&#183;H_2_O
##LOCALITY=Cerro Sapo Carbonatite dyke, Cochabamba, Bolivia
##OWNER=RRUFF
##SOURCE=William W. Pinch
##DESCRIPTION=Pastel blue, vitreous massive, associated with blue sodalite and white ankerite
##STATUS=The identification of this mineral has been confirmed by single-crystal X-ray diffraction.
##URL=rruff.info/R080115
92.52344, 304.5734
93.00555, 298.7264
93.48767, 299.4361
93.96979, 315.4004
94.45190, 331.9519
94.93402, 347.4088
95.41614, 357.4817
95.89825, 364.1090
96.38037, 370.2858
96.86249, 375.8193
97.34460, 380.3095
97.82672, 384.0907
98.30884, 387.4980
98.79095, 390.6634
99.27307, 393.0766
99.75519, 394.5334
100.2373, 396.2162
100.7194, 398.2935
101.2015, 400.0743
101.6837, 401.1117
102.1658, 402.0551
102.6479, 403.5099
103.1300, 405.5301
103.6121, 407.3913
104.0942, 408.1364
104.5764, 408.3132
105.0585, 408.7960
105.5406, 410.2380
106.0227, 412.2249
106.5048, 413.4273
106.9869, 413.2257
107.4691, 412.8143
107.9512, 412.8364
108.4333, 413.1498
108.9154, 413.3815
109.3975, 413.1255
109.8796, 412.2413
110.3618, 411.6918
110.8439, 411.7343
111.3260, 411.8626
111.8081, 411.9089
112.2902, 411.8253
112.7723, 411.6202
113.2544, 411.2800
113.7366, 410.5557
114.2187, 410.1956
114.7008, 410.4428
115.1829, 410.8907
115.6650, 411.2066
116.1471, 411.2728
116.6293, 411.1327
117.1114, 410.8649
117.5935, 410.4859
118.0756, 409.9767
118.5577, 409.0687
119.0398, 407.9961
119.5220, 407.3653
120.0041, 407.6015
120.4862, 408.3360
120.9683, 408.7261
121.4504, 408.7611
121.9325, 408.4853
122.4147, 407.8209
122.8968, 406.7328
123.3789, 405.6530
123.8610, 404.8212
124.3431, 404.0997
124.8252, 403.3586
125.3074, 402.5256
125.7895, 401.6879
126.2716, 401.0434
126.7537, 400.7003
127.2358, 400.3755
127.7179, 399.9552
128.2001, 399.4981
128.6822, 399.0411
129.1643, 398.5646
129.6464, 398.1020
130.1285, 398.1026
130.6107, 399.3291
131.0928, 400.3220
131.5749, 400.5979
132.0570, 400.3332
132.5391, 400.0078
133.0212, 400.0688
133.5034, 400.6292
133.9855, 400.7777
134.4676, 400.1574
134.9497, 399.5060
135.4318, 399.1685
135.9139, 399.2022
136.3960, 399.5501
136.8782, 400.2027
137.3603, 401.2347
137.8424, 402.2296
138.3245, 403.2842
138.8066, 404.2418
139.2887, 404.7858
139.7709, 404.7427
140.2530, 404.6786
140.7351, 405.5401
141.2172, 407.2305
141.6993, 408.5877
142.1814, 408.7108
142.6636, 407.9926
143.1457, 407.9266
143.6278, 409.0961
144.1099, 410.7594
144.5920, 412.2558
145.0741, 413.5704
145.5563, 414.9135
146.0384, 416.5111
146.5205, 418.3994
147.0026, 420.2134
147.4847, 421.7916
147.9668, 423.3457
148.4490, 425.1091
148.9311, 427.0909
149.4132, 428.9719
149.8953, 430.1290
150.3774, 429.8346
150.8595, 430.3531
151.3417, 432.2400
151.8238, 434.6221
152.3059, 436.8204
152.7880, 438.5642
153.2701, 440.0644
153.7522, 441.8302
154.2344, 444.3932
154.7165, 446.6020
155.1986, 448.0837
155.6807, 449.2803
156.1628, 450.8132
156.6449, 453.0194
157.1271, 455.6622
157.6092, 457.7479
158.0913, 458.7271
158.5734, 459.8929
159.0555, 461.8413
159.5376, 464.2908
160.0198, 466.4839
160.5019, 467.9532
160.9840, 468.8582
161.4661, 469.9002
161.9482, 471.1588
162.4303, 472.4635
162.9125, 473.7380
163.3946, 474.9797
163.8767, 476.1186
164.3588, 477.0909
164.8409, 477.9206
165.3230, 478.6684
165.8052, 479.3712
166.2873, 479.9655
166.7694, 480.2820
167.2515, 480.2081
167.7336, 480.2518
168.2157, 480.7534
168.6979, 481.4851
169.1800, 482.2436
169.6621, 483.0508
170.1442, 483.7527
170.6263, 483.8910
171.1084, 483.2169
171.5906, 482.3177
172.0727, 481.1372
172.5548, 479.9330
173.0369, 479.1068
173.5190, 478.9911
174.0011, 479.4558
174.4833, 479.4032
174.9654, 478.1373
175.4475, 477.0025
175.9296, 476.3848
176.4117, 476.1057
176.8938, 475.7954
177.3760, 475.1720
177.8581, 474.2255
178.3402, 473.3486
178.8223, 472.5206
179.3044, 471.7744
179.7865, 471.2548
180.2687, 470.8618
180.7508, 470.3510
181.2329, 469.5419
181.7150, 468.4138
182.1971, 466.8758
182.6792, 464.2456
183.1614, 461.8275
183.6435, 460.5485
184.1256, 460.3742
184.6077, 460.4204
185.0898, 459.9188
185.5719, 458.8149
186.0541, 457.7817
186.5362, 457.1321
187.0183, 456.3810
187.5004, 454.8801
187.9825, 452.5111
188.4646, 450.2140
188.9468, 448.9728
189.4289, 448.5697
189.9110, 448.1629
190.3931, 447.6867
190.8752, 447.0642
191.3573, 446.0721
191.8395, 444.5383
192.3216, 443.0806
192.8037, 442.2858
193.2858, 441.9367
193.7679, 441.5638
194.2500, 441.0090
194.7322, 440.2791
195.2143, 439.3173
195.6964, 437.8499
196.1785, 436.6053
196.6606, 436.0504
197.1427, 435.9779
197.6249, 435.9424
198.1070, 435.6458
198.5891, 435.1171
199.0712, 434.6772
199.5533, 434.5948
200.0354, 434.2775
200.5176, 433.2999
200.9997, 431.9042
201.4818, 430.6258
201.9639, 429.8996
202.4460, 429.7353
202.9281, 429.6496
203.4103, 429.7281
203.8924, 429.8142
204.3745, 429.9449
204.8566, 430.0574
205.3387, 429.9938
205.8208, 429.5588
206.3030, 428.6606
206.7851, 428.2744
207.2672, 428.8539
207.7493, 429.4633
208.2314, 429.8284
208.7135, 429.9065
209.1957, 429.6842
209.6778, 429.0668
210.1599, 427.9141
210.6420, 427.5766
211.1241, 428.7269
211.6062, 429.9330
212.0884, 430.3727
212.5705, 430.0974
213.0526, 429.7451
213.5347, 429.9073
214.0168, 430.6667
214.4989, 431.1368
214.9811, 431.1371
215.4632, 431.0179
215.9453, 430.8734
216.4274, 430.7537
216.9095, 430.9441
217.3916, 431.8746
217.8737, 433.5324
218.3559, 434.4278
218.8380, 433.8264
219.3201, 432.9235
219.8022, 432.7935
220.2843, 433.5176
220.7664, 434.4166
221.2486, 434.9877
221.7307, 435.2868
222.2128, 435.5443
222.6949, 435.7381
223.1770, 435.9323
223.6591, 436.2761
224.1413, 436.8179
224.6234, 437.1854
225.1055, 436.7181
225.5876, 435.9027
226.0697, 435.6942
226.5518, 436.8323
227.0340, 438.4557
227.5161, 439.1782
227.9982, 438.7288
228.4803, 438.3126
228.9624, 438.7900
229.4445, 439.6913
229.9267, 440.4449
230.4088, 440.8672
230.8909, 441.0052
231.3730, 440.8606
231.8551, 440.2609
232.3372, 439.8277
232.8194, 439.7473
233.3015, 439.9798
233.7836, 440.5675
234.2657, 441.6313
234.7478, 442.8989
235.2299, 443.7295
235.7121, 443.9366
236.1942, 444.0695
236.6763, 444.2260
237.1584, 444.4323
237.6405, 444.7502
238.1227, 445.2265
238.6048, 445.7577
239.0869, 446.0451
239.5690, 445.8386
240.0511, 445.8361
240.5332, 446.4262
241.0154, 447.1408
241.4975, 447.4349
241.9796, 447.0688
242.4617, 446.3739
242.9438, 446.2198
243.4259, 447.1590
243.9081, 447.7766
244.3902, 447.5567
244.8723, 447.1467
245.3544, 447.2684
245.8365, 448.1881
246.3186, 449.4553
246.8008, 450.0274
247.2829, 449.2541
247.7650, 448.6736
248.2471, 448.5771
248.7292, 448.5766
249.2113, 448.2084
249.6935, 447.3382
250.1756, 446.3350
250.6577, 445.9400
251.1398, 446.8340
251.6219, 447.3744
252.1040, 447.4846
252.5862, 447.2970
253.0683, 446.8297
253.5504, 446.1147
254.0325, 445.3420
254.5146, 444.8299
254.9967, 444.7846
255.4789, 444.6475
255.9610, 444.3187
256.4431, 443.9618
256.9252, 443.7770
257.4073, 443.7978
257.8894, 443.8146
258.3716, 443.5503
258.8537, 442.9214
259.3358, 442.1569
259.8179, 440.9260
260.3000, 439.7552
260.7821, 439.2077
261.2643, 439.3540
261.7464, 439.6717
262.2285, 439.5761
262.7106, 438.9394
263.1927, 438.4588
263.6748, 438.2407
264.1570, 438.1184
264.6391, 438.0221
265.1212, 437.9280
265.6033, 437.6960
266.0854, 437.1642
266.5675, 436.3091
267.0497, 435.4907
267.5318, 434.4760
268.0139, 433.6690
268.4960, 433.5792
268.9781, 434.1892
269.4602, 434.7539
269.9424, 434.7370
270.4245, 434.1479
270.9066, 433.4282
271.3887, 432.1887
271.8708, 431.1235
272.3529, 430.9622
272.8351, 431.6319
273.3172, 432.2109
273.7993, 432.1544
274.2814, 431.5604
274.7635, 430.9083
275.2456, 430.1577
275.7278, 429.4116
276.2099, 428.7321
276.6920, 428.1184
277.1741, 427.5607
277.6562, 427.0573
278.1383, 426.6160
278.6205, 426.2285
279.1026, 425.8798
279.5847, 425.6063
280.0668, 425.5198
280.5489, 425.5695
281.0310, 425.4551
281.5132, 425.0409
281.9953, 424.4254
282.4774, 423.6873
282.9595, 422.7545
283.4416, 422.0993
283.9237, 422.2233
284.4059, 422.9241
284.8880, 423.3659
285.3701, 423.3594
285.8522, 422.9865
286.3343, 422.2484
286.8164, 421.1672
287.2986, 420.2223
287.7807, 419.7974
288.2628, 419.7254
288.7449, 419.4161
289.2270, 418.6265
289.7091, 417.8905
290.1913, 417.7442
290.6734, 418.0382
291.1555, 418.2392
291.6376, 418.1261
292.1197, 417.7437
292.6018, 417.0891
293.0840, 415.9619
293.5661, 415.0552
294.0482, 415.1181
294.5303, 415.6937
295.0124, 415.9254
295.4945, 415.1616
295.9767, 414.0325
296.4588, 413.8658
296.9409, 415.0415
297.4230, 415.8721
297.9051, 415.0677
298.3872, 413.5362
298.8694, 412.2646
299.3515, 411.5072
299.8336, 411.1591
300.3157, 411.2762
300.7978, 412.0010
301.2799, 412.3217
301.7621, 411.4342
302.2442, 410.1639
302.7263, 409.2034
303.2084, 408.6891
303.6905, 408.4008
304.1726, 408.1987
304.6548, 408.0933
305.1369, 407.7878
305.6190, 406.7061
306.1011, 405.8350
306.5832, 406.1618
307.0653, 407.7030
307.5475, 409.2202
308.0296, 409.6941
308.5117, 409.1969
308.9938, 408.5386
309.4759, 407.5412
309.9580, 406.7494
310.4402, 406.7338
310.9223, 407.2808
311.4044, 407.5748
311.8865, 406.8927
312.3686, 405.4829
312.8507, 404.3816
313.3329, 403.5253
313.8150, 403.1546
314.2971, 403.6827
314.7792, 404.6920
315.2613, 405.4008
315.7434, 405.3200
316.2256, 404.8085
316.7077, 404.6504
317.1898, 404.9432
317.6719, 405.3181
318.1540, 405.6100
318.6361, 405.8942
319.1183, 406.3373
319.6004, 407.1010
320.0825, 407.7269
320.5646, 407.3670
321.0467, 405.7948
321.5288, 404.6918
322.0110, 405.0919
322.4931, 405.8832
322.9752, 406.1317
323.4573, 405.6800
323.9394, 405.2545
324.4215, 405.7799
324.9037, 407.2231
325.3858, 407.9743
325.8679, 407.2901
326.3500, 406.2697
326.8321, 405.5734
327.3142, 405.2249
327.7964, 405.2009
328.2785, 405.6211
328.7606, 406.3948
329.2427, 407.1618
329.7248, 408.1707
330.2069, 408.6774
330.6891, 407.8584
331.1712, 406.2723
331.6533, 405.0986
332.1354, 404.9796
332.6175, 405.5483
333.0996, 406.0882
333.5818, 406.5773
334.0639, 407.1168
334.5460, 407.7990
335.0281, 408.5438
335.5102, 409.3037
335.9923, 410.1415
336.4745, 410.8263
336.9566, 410.9789
337.4387, 410.5589
337.9208, 410.2769
338.4029, 410.4141
338.8850, 410.7678
339.3671, 411.2342
339.8492, 411.8306
340.3314, 412.2059
340.8135, 411.8928
341.2956, 411.0333
341.7777, 410.5427
342.2598, 410.6638
342.7419, 411.0954
343.2241, 411.7015
343.7062, 412.4222
344.1883, 412.9161
344.6704, 413.0848
345.1525, 412.9051
345.6346, 412.1346
346.1168, 410.4995
346.5989, 409.1225
347.0810, 409.1143
347.5631, 409.9105
348.0452, 410.6094
348.5273, 411.1051
349.0095, 411.2994
349.4916, 410.9970
349.9737, 410.1913
350.4558, 409.2633
350.9379, 408.2490
351.4200, 407.3095
351.9022, 406.7053
352.3843, 406.5459
352.8664, 406.4595
353.3485, 406.2349
353.8306, 405.8881
354.3127, 405.4677
354.7949, 404.9497
355.2770, 404.4210
355.7591, 404.0097
356.2412, 403.7142
356.7233, 403.3753
357.2054, 403.0748
357.6876, 402.6514
358.1697, 401.7295
358.6518, 400.1922
359.1339, 398.6421
359.6160, 397.5973
360.0981, 397.0022
360.5803, 396.5729
361.0624, 396.4080
361.5445, 396.3026
362.0266, 396.1659
362.5087, 395.9752
362.9908, 395.5871
363.4730, 394.9082
363.9551, 393.9721
364.4372, 392.8625
364.9193, 391.2120
365.4014, 389.9994
365.8835, 389.9577
366.3657, 390.6093
366.8478, 391.0279
367.3299, 390.9210
367.8120, 390.4240
368.2941, 389.6605
368.7762, 388.5484
369.2584, 387.5541
369.7405, 386.7990
370.2226, 386.1591
370.7047, 385.5234
371.1868, 384.8731
371.6689, 384.2614
372.1511, 383.7653
372.6332, 383.3896
373.1153, 382.7829
373.5974, 381.5298
374.0795, 380.4714
374.5616, 380.1791
375.0438, 380.4181
375.5259, 380.5492
376.0080, 380.2121
376.4901, 379.5490
376.9722, 379.0625
377.4543, 379.1906
377.9365, 378.9298
378.4186, 377.7454
378.9007, 376.3129
379.3828, 375.4131
379.8649, 375.2489
380.3470, 375.4379
380.8292, 375.4644
381.3113, 375.2948
381.7934, 375.0335
382.2755, 374.6675
382.7576, 374.2351
383.2397, 373.7797
383.7219, 373.2842
384.2040, 372.6429
384.6861, 371.7143
385.1682, 370.5531
385.6503, 370.0591
386.1324, 371.1701
386.6146, 371.9372
387.0967, 371.8500
387.5788, 371.2878
388.0609, 370.7244
388.5430, 370.3637
389.0251, 370.1241
389.5073, 369.8230
389.9894, 369.3446
390.4715, 369.0536
390.9536, 369.0422
391.4357, 369.1327
391.9178, 369.2505
392.4000, 369.3649
392.8821, 369.4384
393.3642, 369.4074
393.8463, 369.2641
394.3284, 369.2463
394.8105, 369.5975
395.2927, 369.7824
395.7748, 369.5375
396.2569, 369.0270
396.7390, 368.4911
397.2211, 368.0073
397.7032, 367.6601
398.1854, 367.7156
398.6675, 368.3600
399.1496, 368.8471
399.6317, 368.9653
400.1138, 368.8509
400.5959, 368.4711
401.0781, 367.8354
401.5602, 367.3155
402.0423, 367.4085
402.5244, 368.0369
403.0065, 368.3141
403.4886, 368.0177
403.9708, 367.5139
404.4529, 367.1237
404.9350, 366.7638
405.4171, 366.1719
405.8992, 364.8685
406.3813, 363.4582
406.8635, 363.0817
407.3456, 363.8695
407.8277, 364.4712
408.3098, 364.0750
408.7919, 363.1442
409.2740, 362.4971
409.7562, 362.2714
410.2383, 362.0831
410.7204, 361.8798
411.2025, 361.5413
411.6846, 360.5703
412.1667, 358.6436
412.6489, 356.6131
413.1310, 355.6777
413.6131, 355.7924
414.0952, 355.6816
414.5773, 354.8569
415.0594, 353.8962
415.5416, 353.4182
416.0237, 353.3950
416.5058, 353.2625
416.9879, 352.5803
417.4700, 350.3495
417.9521, 351.1213
418.4343, 351.3353
418.9164, 351.0217
419.3985, 348.6001
419.8806, 348.9005
420.3627, 348.1101
420.8448, 347.2750
421.3270, 347.9585
421.8091, 345.8434
422.2912, 346.5030
422.7733, 346.0549
423.2554, 346.1138
423.7375, 345.0750
424.2197, 344.3751
424.7018, 344.7733
425.1839, 344.5636
425.6660, 343.2152
426.1481, 343.3380
426.6302, 343.2287
427.1124, 342.8169
427.5945, 342.2313
428.0766, 341.3881
428.5587, 340.4370
429.0408, 339.4228
429.5229, 338.3931
430.0051, 337.5521
430.4872, 337.2690
430.9693, 337.7228
431.4514, 337.9950
431.9335, 338.0880
432.4156, 337.9610
432.8978, 337.4908
433.3799, 336.7757
433.8620, 336.0367
434.3441, 335.4036
434.8262, 334.8515
435.3083, 334.3221
435.7905, 333.8317
436.2726, 333.3211
436.7547, 332.4063
437.2368, 331.6519
437.7189, 331.8520
438.2010, 333.2341
438.6832, 334.3855
439.1653, 333.7269
439.6474, 331.6511
440.1295, 330.3369
440.6116, 330.3346
441.0938, 330.7297
441.5759, 330.8489
442.0580, 330.7418
442.5401, 330.5140
443.0222, 330.0498
443.5043, 329.5776
443.9865, 329.3981
444.4686, 329.4722
444.9507, 329.3991
445.4328, 328.8971
445.9149, 328.2317
446.3970, 328.0481
446.8792, 328.4942
447.3613, 328.8943
447.8434, 329.0826
448.3255, 329.1188
448.8076, 329.0800
449.2897, 328.9787
449.7719, 328.7729
450.2540, 328.4227
450.7361, 327.9222
451.2182, 327.3163
451.7003, 326.1826
452.1824, 325.4166
452.6646, 325.7285
453.1467, 326.5442
453.6288, 326.8234
454.1109, 326.1088
454.5930, 324.9321
455.0751, 324.3595
455.5573, 324.7308
456.0394, 325.0679
456.5215, 324.4657
457.0036, 325.6788
457.4857, 326.3343
457.9678, 326.4620
458.4500, 324.4818
458.9321, 325.2236
459.4142, 324.8745
459.8963, 324.4808
460.3784, 325.6057
460.8605, 323.9321
461.3427, 325.0330
461.8248, 325.0263
462.3069, 325.5265
462.7890, 324.9291
463.2711, 324.6707
463.7532, 325.5103
464.2354, 325.7420
464.7175, 325.0182
465.1996, 325.5507
465.6817, 323.8387
466.1638, 324.0962
466.6459, 325.2036
467.1281, 324.5349
467.6102, 325.3216
468.0923, 326.0852
468.5744, 326.3210
469.0565, 324.4489
469.5386, 325.2988
470.0208, 325.0579
470.5029, 324.7722
470.9850, 326.0052
471.4671, 324.4397
471.9492, 325.6487
472.4313, 325.7501
472.9135, 326.3584
473.3956, 325.8691
473.8777, 325.7188
474.3598, 326.6665
474.8419, 324.0989
475.3240, 325.2855
475.8062, 325.9143
476.2883, 326.0156
476.7704, 324.0088
477.2525, 324.7241
477.7346, 324.3485
478.2167, 323.9281
478.6989, 325.0266
479.1810, 323.3263
479.6631, 324.7528
480.1452, 325.2503
480.6273, 325.2189
481.1094, 323.7232
481.5916, 322.6567
482.0737, 322.9819
482.5558, 324.1041
483.0379, 324.9320
483.5200, 324.9157
484.0021, 324.4965
484.4843, 324.5858
484.9664, 325.3576
485.4485, 325.8247
485.9306, 325.4919
486.4127, 325.0522
486.8948, 325.0119
487.3770, 325.3180
487.8591, 325.5548
488.3412, 325.4063
488.8233, 325.0561
489.3054, 324.8610
489.7875, 324.8370
490.2697, 324.8540
490.7518, 324.8554
491.2339, 324.8565
491.7160, 324.8818
492.1981, 324.9269
492.6802, 325.0093
493.1624, 325.1899
493.6445, 325.3921
494.1266, 325.4596
494.6087, 325.3714
495.0908, 325.3116
495.5729, 323.7232
496.0551, 324.9322
496.5372, 325.5835
497.0193, 325.7072
497.5014, 323.7228
497.9835, 324.4606
498.4656, 324.1075
498.9478, 323.7096
499.4299, 324.8305
499.9120, 323.1527
500.3941, 324.2496
500.8762, 324.2388
501.3583, 324.9779
501.8405, 324.2452
502.3226, 323.6664
502.8047, 323.9085
503.2868, 324.5677
503.7689, 324.8469
504.2510, 324.3172
504.7331, 323.3956
505.2152, 322.7800
505.6974, 322.4648
506.1795, 322.4983
506.6616, 323.1875
507.1437, 323.9591
507.6258, 324.5009
508.1079, 324.7863
508.5901, 324.7171
509.0722, 323.9226
509.5543, 322.9091
510.0364, 322.4685
510.5185, 322.5986
511.0006, 322.7640
511.4828, 322.7088
511.9649, 322.5463
512.4470, 322.5865
512.9291, 323.0073
513.4113, 323.0191
513.8934, 321.8843
514.3755, 320.5644
514.8576, 320.1871
515.3397, 320.7567
515.8218, 321.4627
516.3040, 321.7489
516.7861, 321.6232
517.2682, 321.1430
517.7503, 319.8191
518.2324, 318.7491
518.7145, 317.9561
519.1967, 317.4977
519.6788, 317.6280
520.1609, 318.2639
520.6430, 318.7871
521.1251, 318.4442
521.6072, 317.2753
522.0894, 316.8661
522.5715, 318.0834
523.0536, 318.6606
523.5357, 317.4004
524.0178, 315.3615
524.4999, 313.7307
524.9821, 312.8149
525.4642, 312.2087
525.9463, 311.4319
526.4284, 310.6173
526.9105, 310.5044
527.3926, 311.4573
527.8748, 312.3292
528.3569, 312.0561
528.8390, 310.9520
529.3211, 310.1117
529.8032, 309.9184
530.2853, 309.6977
530.7675, 309.0319
531.2496, 308.0904
531.7317, 307.1926
532.2138, 306.4277
532.6959, 305.7312
533.1780, 305.0316
533.6602, 304.3283
534.1423, 303.6131
534.6244, 302.6625
535.1065, 301.9349
535.5886, 301.8292
536.0707, 301.9931
536.5529, 301.8602
537.0350, 301.2123
537.5171, 300.3366
537.9992, 299.6879
538.4813, 299.3028
538.9634, 298.9588
539.4456, 298.5893
539.9277, 298.3376
540.4098, 297.2919
540.8919, 298.2836
541.3740, 298.7177
541.8561, 298.6241
542.3383, 296.4224
542.8204, 296.9429
543.3025, 296.3725
543.7846, 295.7574
544.2667, 296.6609
544.7488, 294.7660
545.2310, 295.6454
545.7131, 295.4174
546.1952, 295.6963
546.6773, 294.8776
547.1594, 294.3978
547.6415, 295.0161
548.1237, 295.0264
548.6058, 293.0267
549.0879, 293.1986
549.5700, 293.5867
550.0521, 293.5028
550.5342, 292.7059
551.0164, 292.1771
551.4985, 292.0277
551.9806, 291.9922
552.4627, 292.0918
552.9448, 292.1934
553.4269, 292.0290
553.9091, 291.4513
554.3912, 290.7584
554.8733, 290.5035
555.3554, 290.7523
555.8375, 290.9843
556.3196, 291.2205
556.8018, 291.3145
557.2839, 291.1274
557.7660, 290.7365
558.2481, 290.3640
558.7302, 290.1340
559.2123, 289.9024
559.6945, 289.4673
560.1766, 288.8876
560.6587, 288.4665
561.1408, 288.3401
561.6229, 288.2450
562.1050, 287.7544
562.5872, 286.7506
563.0693, 286.3508
563.5514, 286.9974
564.0335, 287.8207
564.5156, 288.6742
564.9977, 289.3253
565.4799, 289.3188
565.9620, 288.4857
566.4441, 287.2928
566.9262, 286.4428
567.4083, 285.9452
567.8904, 285.7527
568.3726, 286.3131
568.8547, 286.7173
569.3368, 286.6631
569.8189, 286.2412
570.3010, 285.5190
570.7831, 284.4306
571.2653, 283.4931
571.7474, 283.5558
572.2295, 284.4518
572.7116, 284.7178
573.1937, 283.8784
573.6758, 282.9896
574.1580, 283.1173
574.6401, 283.9628
575.1222, 284.3448
575.6043, 283.7376
576.0864, 283.1186
576.5685, 283.0145
577.0507, 283.2047
577.5328, 283.3800
578.0149, 283.4502
578.4970, 283.3569
578.9791, 283.0163
579.4612, 282.4174
579.9434, 281.8605
580.4255, 281.1685
580.9076, 280.7379
581.3897, 279.2470
581.8718, 280.4219
582.3539, 281.0392
582.8361, 281.1288
583.3182, 279.1104
583.8003, 279.8141
584.2824, 279.4269
584.7645, 278.9950
585.2466, 280.0818
585.7288, 278.3700
586.2108, 279.4327
586.6929, 279.3879
587.1750, 279.8500
587.6572, 279.2144
588.1393, 278.9178
588.6214, 279.7193
589.1035, 279.3717
589.5856, 279.6185
590.0677, 279.6750
590.5499, 279.7459
591.0320, 279.9932
591.5141, 280.3150
591.9962, 280.3274
592.4783, 279.7555
592.9604, 279.2494
593.4426, 278.8918
593.9247, 278.5429
594.4068, 278.0760
594.8889, 277.5266
595.3710, 277.0401
595.8531, 276.7368
596.3353, 276.5101
596.8174, 276.0015
597.2995, 275.0948
597.7816, 274.6453
598.2637, 275.3205
598.7458, 275.9936
599.2280, 275.3864
599.7101, 273.8068
600.1922, 272.9383
600.6743, 274.0995
601.1564, 275.4947
601.6385, 275.6619
602.1207, 274.8256
602.6028, 273.5722
603.0849, 272.0707
603.5670, 270.5617
604.0491, 269.3883
604.5313, 268.6393
605.0134, 267.6639
605.4955, 265.8878
605.9776, 264.5692
606.4597, 264.5441
606.9418, 265.0147
607.4240, 264.8244
607.9061, 263.6948
608.3882, 262.5143
608.8703, 262.5494
609.3524, 263.6573
609.8345, 263.7558
610.3167, 262.3707
610.7988, 261.1076
611.2809, 260.9630
611.7630, 261.3206
612.2451, 261.3484
612.7272, 260.9296
613.2094, 260.4276
613.6915, 259.8726
614.1736, 259.3986
614.6557, 259.2875
615.1378, 259.4852
615.6199, 259.5384
616.1021, 259.1510
616.5842, 258.4871
617.0663, 258.0282
617.5484, 258.0125
618.0305, 257.7851
618.5126, 257.2782
618.9948, 256.6415
619.4769, 255.7557
619.9590, 254.8235
620.4411, 254.3100
620.9232, 254.5048
621.4053, 254.9895
621.8875, 255.0742
622.3696, 254.7677
622.8517, 254.5955
623.3338, 254.7067
623.8159, 254.8532
624.2980, 254.9197
624.7802, 254.8645
625.2623, 254.5039
625.7444, 253.3769
626.2265, 252.5097
626.7086, 252.7244
627.1907, 253.3373
627.6729, 253.2986
628.1550, 252.4624
628.6371, 251.4796
629.1192, 250.9150
629.6013, 250.7204
630.0834, 250.5186
630.5656, 250.2744
631.0477, 250.0813
631.5298, 250.1020
632.0119, 250.0577
632.4940, 249.6417
632.9761, 248.9219
633.4583, 248.3138
633.9404, 248.0977
634.4225, 248.1066
634.9046, 248.1358
635.3867, 248.1755
635.8688, 248.0809
636.3510, 247.7822
636.8331, 247.3915
637.3152, 247.0136
637.7973, 246.6429
638.2794, 246.3923
638.7615, 246.3730
639.2437, 246.3513
639.7258, 246.1978
640.2079, 245.9948
640.6900, 245.8520
641.1721, 245.8005
641.6542, 245.8260
642.1364, 245.9536
642.6185, 246.1613
643.1006, 246.1098
643.5827, 245.5813
644.0648, 245.2773
644.5469, 245.9026
645.0291, 246.5734
645.5112, 246.3692
645.9933, 245.2363
646.4754, 244.1601
646.9575, 243.3237
647.4396, 242.9491
647.9218, 243.7124
648.4039, 245.2598
648.8860, 246.1047
649.3681, 245.6216
649.8502, 244.4074
650.3323, 243.3129
650.8145, 242.3135
651.2966, 241.5556
651.7787, 241.1720
652.2608, 240.8663
652.7429, 240.5597
653.2250, 240.2778
653.7072, 240.0821
654.1893, 239.9814
654.6714, 239.8813
655.1535, 239.6535
655.6356, 239.3555
656.1177, 239.1344
656.5999, 238.9741
657.0820, 239.1377
657.5641, 240.0103
658.0462, 241.0356
658.5283, 241.0773
659.0104, 239.9925
659.4926, 238.9329
659.9747, 237.7602
660.4568, 236.9403
660.9389, 237.0024
661.4210, 237.6032
661.9031, 238.0665
662.3853, 238.1235
662.8674, 237.9463
663.3495, 237.7876
663.8316, 237.6596
664.3137, 237.2806
664.7958, 236.4065
665.2780, 235.7250
665.7601, 235.6310
666.2422, 235.8495
666.7243, 236.1523
667.2064, 236.5424
667.6885, 236.7505
668.1707, 236.5301
668.6528, 236.1443
669.1349, 235.9052
669.6170, 235.7902
670.0991, 235.5506
670.5812, 235.0478
671.0634, 234.5920
671.5455, 234.8142
672.0276, 236.0761
672.5097, 236.6358
672.9918, 235.9040
673.4739, 235.0979
673.9561, 234.5315
674.4382, 234.1193
674.9203, 233.6943
675.4024, 233.2177
675.8845, 232.8810
676.3666, 232.9604
676.8488, 233.2580
677.3309, 233.2953
677.8130, 233.0562
678.2951, 232.9492
678.7772, 233.2447
679.2593, 233.6293
679.7415, 233.4963
680.2236, 232.5824
680.7057, 231.9531
681.1878, 231.7219
681.6699, 231.6409
682.1520, 231.7010
682.6342, 231.7973
683.1163, 231.7687
683.5984, 231.5742
684.0805, 231.3637
684.5626, 231.3416
685.0447, 231.4545
685.5269, 231.3864
686.0090, 231.0985
686.4911, 230.8322
686.9732, 230.7252
687.4553, 230.6684
687.9374, 230.5001
688.4196, 230.2294
688.9017, 229.8430
689.3838, 229.0248
689.8659, 228.4062
690.3480, 228.5243
690.8301, 229.0609
691.3123, 229.4709
691.7944, 229.5746
692.2765, 229.5243
692.7586, 229.4457
693.2407, 229.3538
693.7228, 229.5194
694.2050, 230.1194
694.6871, 230.4962
695.1692, 230.2891
695.6513, 229.8406
696.1334, 229.4695
696.6155, 229.1828
697.0977, 229.0327
697.5798, 229.2660
698.0619, 229.4217
698.5440, 229.0010
699.0261, 228.2808
699.5082, 227.9038
699.9904, 228.0296
700.4725, 228.1835
700.9546, 227.7966
701.4367, 226.9297
701.9188, 226.5464
702.4009, 226.9980
702.8831, 227.2360
703.3652, 226.7334
703.8473, 226.1208
704.3294, 225.8664
704.8115, 225.9498
705.2936, 226.0721
705.7758, 226.0916
706.2579, 226.1277
706.7400, 226.3904
707.2221, 226.7256
707.7042, 226.7446
708.1863, 226.3700
708.6685, 225.9162
709.1506, 225.6804
709.6327, 225.6176
710.1148, 225.3504
710.5969, 224.4709
711.0790, 224.1498
711.5612, 225.1458
712.0433, 226.1840
712.5254, 226.3317
713.0075, 225.8183
713.4896, 225.5040
713.9717, 225.8188
714.4539, 226.2517
714.9360, 226.3578
715.4181, 226.2380
715.9002, 226.1067
716.3823, 226.0007
716.8644, 225.8961
717.3466, 225.7803
717.8287, 225.6454
718.3108, 225.4458
718.7929, 225.0307
719.2750, 224.8425
719.7571, 225.1052
720.2393, 225.3702
720.7214, 225.4351
721.2035, 225.3347
721.6856, 225.1574
722.1677, 224.9281
722.6498, 224.6465
723.1320, 224.2746
723.6141, 223.8612
724.0962, 223.5125
724.5783, 223.2323
725.0604, 222.9478
725.5425, 222.5952
726.0247, 221.4063
726.5068, 222.5578
726.9889, 223.1516
727.4710, 223.2178
727.9531, 221.1760
728.4352, 221.8562
728.9174, 221.4456
729.3995, 220.9902
729.8816, 222.0536
730.3637, 220.3183
730.8458, 221.3576
731.3279, 221.2894
731.8101, 221.7280
732.2922, 221.0690
732.7743, 220.7490
733.2564, 221.5270
733.7385, 221.6970
734.2206, 220.9117
734.7028, 221.3825
735.1849, 219.8631
735.6670, 219.7245
736.1491, 219.9099
736.6312, 219.9049
737.1133, 219.4932
737.5955, 218.9559
738.0776, 218.4082
738.5597, 217.9404
739.0418, 217.8426
739.5239, 218.5197
740.0060, 219.3192
740.4882, 219.4236
740.9703, 219.0281
741.4524, 218.7300
741.9345, 218.6540
742.4166, 218.6057
742.8987, 218.4343
743.3809, 218.1488
743.8630, 217.7755
744.3451, 217.0823
744.8272, 216.7307
745.3093, 217.0614
745.7914, 217.4210
746.2736, 217.4299
746.7557, 217.2125
747.2378, 217.0417
747.7199, 216.9844
748.2020, 217.0693
748.6841, 217.5870
749.1663, 218.1477
749.6484, 217.9162
750.1305, 216.9587
750.6126, 216.1640
751.0947, 216.0033
751.5768, 216.1484
752.0590, 215.9922
752.5411, 215.4334
753.0232, 215.0597
753.5053, 215.0118
753.9874, 214.9659
754.4695, 214.8929
754.9517, 214.7319
755.4338, 214.3266
755.9159, 213.6827
756.3980, 213.2348
756.8801, 213.3441
757.3622, 213.6042
757.8444, 213.6124
758.3265, 213.4596
758.8086, 213.4281
759.2907, 213.5743
759.7728, 213.6143
760.2549, 213.2427
760.7371, 212.5450
761.2192, 212.0447
761.7013, 211.7316
762.1834, 211.6502
762.6655, 211.9872
763.1476, 212.3804
763.6298, 212.6813
764.1119, 212.8456
764.5940, 212.7234
765.0761, 212.0843
765.5582, 211.5674
766.0403, 211.7084
766.5225, 211.9835
767.0046, 211.7186
767.4867, 211.0027
767.9688, 210.3599
768.4509, 210.0517
768.9330, 210.0081
769.4152, 210.1898
769.8973, 210.6119
770.3794, 210.8216
770.8615, 210.7288
771.3436, 210.6452
771.8257, 210.7604
772.3079, 210.9174
772.7900, 210.8393
773.2721, 210.4968
773.7542, 210.3161
774.2363, 210.6123
774.7184, 210.8121
775.2006, 210.5872
775.6827, 210.1137
776.1648, 209.5504
776.6469, 208.9835
777.1290, 208.5658
777.6111, 208.4257
778.0933, 208.5050
778.5754, 208.7589
779.0575, 209.1744
779.5396, 209.3640
780.0217, 209.2306
780.5038, 208.9251
780.9860, 208.4771
781.4681, 207.9678
781.9502, 207.7545
782.4323, 207.9999
782.9144, 208.2658
783.3965, 208.7556
783.8787, 209.0417
784.3608, 208.6754
784.8429, 207.9956
785.3250, 207.6855
785.8071, 207.9635
786.2892, 208.1670
786.7714, 207.4452
787.2535, 206.3927
787.7356, 206.2466
788.2177, 206.9113
788.6998, 207.4680
789.1819, 207.5884
789.6641, 207.4354
790.1462, 207.1967
790.6283, 206.8722
791.1104, 206.4164
791.5925, 205.6752
792.0746, 205.0687
792.5568, 204.6198
793.0389, 204.3649
793.5210, 204.3694
794.0031, 204.5957
794.4852, 204.9556
794.9673, 205.6087
795.4495, 206.0226
795.9316, 205.4712
796.4137, 204.7148
796.8958, 204.9853
797.3779, 206.0929
797.8600, 206.8042
798.3422, 206.4753
798.8243, 205.5822
799.3064, 204.7818
799.7885, 204.0592
800.2706, 203.8592
800.7527, 204.4178
801.2349, 204.7653
801.7170, 204.3588
802.1991, 203.6941
802.6812, 203.4771
803.1633, 203.7069
803.6454, 203.8714
804.1276, 203.7752
804.6097, 203.7915
805.0918, 204.3783
805.5739, 204.9317
806.0560, 204.7013
806.5381, 203.7795
807.0203, 202.8326
807.5024, 202.1862
807.9845, 201.8897
808.4666, 202.2350
808.9487, 203.0093
809.4308, 203.3338
809.9130, 203.1008
810.3951, 202.7490
810.8772, 202.4978
811.3593, 202.3583
811.8414, 202.3879
812.3235, 202.7168
812.8057, 202.7128
813.2878, 201.8901
813.7699, 201.3403
814.2520, 201.7092
814.7341, 202.2503
815.2162, 202.0330
815.6984, 201.0894
816.1805, 200.5301
816.6626, 201.1489
817.1447, 201.9563
817.6268, 202.3244
818.1089, 202.3568
818.5911, 202.1152
819.0732, 201.6812
819.5553, 201.3368
820.0374, 201.2837
820.5195, 201.3264
821.0016, 200.9209
821.4838, 200.0387
821.9659, 199.9018
822.4480, 200.9172
822.9301, 201.5696
823.4122, 200.8145
823.8943, 199.4897
824.3765, 199.1511
824.8586, 200.0707
825.3407, 200.5334
825.8228, 200.2130
826.3049, 199.7553
826.7870, 199.2023
827.2692, 198.7383
827.7513, 198.5667
828.2334, 198.6773
828.7155, 198.9208
829.1976, 199.3279
829.6797, 199.6264
830.1619, 199.3092
830.6440, 198.6900
831.1261, 198.6396
831.6082, 199.1887
832.0903, 199.5440
832.5724, 199.2210
833.0546, 198.5999
833.5367, 198.4813
834.0188, 198.9916
834.5009, 199.0813
834.9830, 198.5124
835.4651, 198.0033
835.9473, 197.9085
836.4294, 197.9247
836.9115, 197.6443
837.3936, 197.0939
837.8757, 196.7920
838.3578, 197.0714
838.8400, 197.2975
839.3221, 197.0859
839.8042, 196.8175
840.2863, 197.0329
840.7684, 197.5598
841.2505, 197.7042
841.7327, 197.0930
842.2148, 196.2560
842.6969, 195.7824
843.1790, 195.5919
843.6611, 195.4922
844.1432, 195.4613
844.6254, 195.3804
845.1075, 195.1857
845.5896, 195.0032
846.0717, 195.0037
846.5538, 195.1869
847.0359, 195.4086
847.5181, 195.7176
848.0002, 195.9685
848.4823, 196.3329
848.9644, 196.4347
849.4465, 195.7752
849.9286, 194.6495
850.4108, 193.9439
850.8929, 193.9001
851.3750, 194.0571
851.8571, 194.5604
852.3392, 194.9290
852.8214, 194.5159
853.3035, 193.7223
853.7856, 193.4626
854.2677, 193.9887
854.7498, 194.5971
855.2319, 194.5716
855.7141, 194.1771
856.1962, 194.0240
856.6783, 194.0775
857.1604, 194.1177
857.6425, 194.1005
858.1246, 193.9074
858.6068, 193.3980
859.0889, 192.6879
859.5710, 192.2124
860.0531, 192.0426
860.5352, 191.9167
861.0173, 191.7610
861.4995, 191.7360
861.9816, 191.9898
862.4637, 192.3715
862.9458, 192.7158
863.4279, 193.0138
863.9100, 193.1894
864.3922, 193.2431
864.8743, 193.1468
865.3564, 192.7744
865.8385, 192.3116
866.3206, 191.9026
866.8027, 191.6174
867.2849, 191.6043
867.7670, 192.0087
868.2491, 192.4785
868.7312, 192.5935
869.2133, 192.4014
869.6954, 191.9431
870.1776, 191.2561
870.6597, 190.7030
871.1418, 190.4541
871.6239, 190.3496
872.1060, 190.1538
872.5881, 189.8696
873.0703, 189.7897
873.5524, 190.0315
874.0345, 190.1772
874.5166, 190.0785
874.9987, 189.9233
875.4808, 189.9160
875.9630, 189.9737
876.4451, 189.8164
876.9272, 189.2233
877.4093, 188.8557
877.8914, 189.0535
878.3735, 189.2973
878.8557, 189.3192
879.3378, 189.1511
879.8199, 188.7987
880.3020, 188.3023
880.7841, 187.9507
881.2662, 188.0594
881.7484, 188.3014
882.2305, 188.2197
882.7126, 187.9638
883.1947, 187.9993
883.6768, 188.3302
884.1589, 188.3556
884.6411, 187.6544
885.1232, 186.6469
885.6053, 186.2071
886.0874, 186.3515
886.5695, 186.3574
887.0516, 186.1613
887.5338, 186.0310
888.0159, 186.0781
888.4980, 186.2173
888.9801, 186.3338
889.4622, 186.4288
889.9443, 186.6702
890.4265, 187.4282
890.9086, 187.7982
891.3907, 187.5172
891.8728, 187.0002
892.3549, 186.2489
892.8370, 185.5229
893.3192, 185.3764
893.8013, 186.0151
894.2834, 186.4805
894.7655, 186.2786
895.2476, 185.7362
895.7297, 184.8581
896.2119, 183.9423
896.6940, 183.5135
897.1761, 183.6118
897.6582, 183.8237
898.1403, 183.8722
898.6224, 183.8462
899.1046, 183.8435
899.5867, 183.8894
900.0688, 184.1740
900.5509, 184.7036
901.0330, 185.0509
901.5151, 185.0034
901.9973, 184.7450
902.4794, 184.5452
902.9615, 184.4045
903.4436, 184.1418
903.9257, 183.6638
904.4078, 183.3020
904.8900, 183.0939
905.3721, 183.0628
905.8542, 183.3517
906.3363, 183.8262
906.8184, 184.0838
907.3005, 184.1431
907.7827, 183.9239
908.2648, 183.0497
908.7469, 182.3065
909.2290, 182.1925
909.7111, 182.3588
910.1932, 182.3105
910.6754, 182.0272
911.1575, 181.9243
911.6396, 182.3457
912.1217, 182.8054
912.6038, 182.9365
913.0859, 182.8440
913.5681, 182.3882
914.0502, 181.8345
914.5323, 181.3098
915.0144, 182.6856
915.4965, 183.5039
915.9786, 183.7944
916.4607, 181.9770
916.9428, 182.8816
917.4249, 182.6953
917.9070, 182.4643
918.3892, 183.7521
918.8713, 182.2412
919.3534, 183.5049
919.8355, 183.6610
920.3176, 184.3240
920.7997, 183.8894
921.2819, 183.7938
921.7640, 184.7962
922.2461, 184.0205
922.7282, 183.9111
923.2103, 183.7656
923.6924, 184.1748
924.1746, 185.0886
924.6567, 185.4960
925.1388, 184.7648
925.6209, 184.3528
926.1030, 184.7005
926.5851, 185.2721
927.0673, 185.6785
927.5494, 186.0491
928.0315, 186.7770
928.5136, 187.9696
928.9957, 188.8706
929.4778, 188.7832
929.9600, 188.5467
930.4421, 188.9004
930.9242, 189.5382
931.4063, 190.0052
931.8884, 190.2322
932.3705, 190.2860
932.8527, 190.1749
933.3348, 190.1306
933.8169, 190.4895
934.2990, 191.1451
934.7811, 191.8242
935.2632, 192.5144
935.7454, 193.2865
936.2275, 194.1654
936.7096, 194.8843
937.1917, 195.1312
937.6738, 195.0802
938.1559, 195.4067
938.6381, 196.1358
939.1202, 197.0380
939.6023, 198.1192
940.0844, 199.2820
940.5665, 200.5495
941.0486, 201.7679
941.5308, 202.6338
942.0129, 203.0911
942.4950, 203.8510
942.9771, 205.3358
943.4592, 206.4865
943.9413, 206.9553
944.4235, 207.2559
944.9056, 207.6483
945.3877, 208.1245
945.8698, 208.6556
946.3519, 209.2553
946.8340, 209.8250
947.3162, 210.3706
947.7983, 210.8458
948.2804, 211.3146
948.7625, 211.6396
949.2446, 211.6309
949.7267, 211.3232
950.2089, 210.9209
950.6910, 210.5007
951.1731, 210.0500
951.6552, 209.5889
952.1373, 209.0702
952.6194, 208.4432
953.1016, 207.7082
953.5837, 206.8697
954.0658, 205.9307
954.5479, 204.8754
955.0300, 203.6366
955.5121, 202.3670
955.9943, 201.3858
956.4764, 200.6182
956.9585, 199.8418
957.4406, 199.0046
957.9227, 197.8096
958.4048, 196.0867
958.8870, 194.3124
959.3691, 193.1499
959.8512, 192.5163
960.3333, 191.7264
960.8154, 190.7483
961.2975, 189.8684
961.7797, 189.1411
962.2618, 188.5374
962.7439, 188.1134
963.2260, 187.7209
963.7081, 187.0195
964.1902, 185.9241
964.6724, 184.9592
965.1545, 184.0799
965.6366, 183.4158
966.1187, 183.1980
966.6008, 183.0167
967.0829, 182.5468
967.5651, 181.8616
968.0472, 181.1577
968.5293, 180.3254
969.0114, 179.7933
969.4935, 179.8936
969.9756, 179.9799
970.4578, 179.8103
970.9399, 179.4484
971.4220, 178.9004
971.9041, 178.2267
972.3862, 177.6511
972.8683, 177.3193
973.3505, 176.9429
973.8326, 176.1243
974.3147, 175.4194
974.7968, 175.5494
975.2789, 176.0770
975.7610, 176.1350
976.2432, 175.5923
976.7253, 175.0685
977.2074, 175.0473
977.6895, 175.0753
978.1716, 174.5921
978.6537, 173.8529
979.1359, 173.2581
979.6180, 172.8261
980.1001, 172.3909
980.5822, 171.9058
981.0643, 171.6548
981.5464, 172.0711
982.0286, 172.7648
982.5107, 172.7533
982.9928, 172.1784
983.4749, 171.7027
983.9570, 171.4207
984.4391, 171.2298
984.9213, 171.0894
985.4034, 170.8783
985.8855, 170.3478
986.3676, 169.5745
986.8497, 169.2510
987.3318, 169.3958
987.8140, 169.8917
988.2961, 170.8640
988.7782, 171.4511
989.2603, 170.9743
989.7424, 169.9571
990.2245, 169.5018
990.7067, 169.6996
991.1888, 169.7301
991.6709, 169.6112
992.1530, 169.2419
992.6351, 168.2870
993.1172, 167.5482
993.5994, 167.8447
994.0815, 168.7765
994.5636, 169.1038
995.0457, 168.6065
995.5278, 168.1219
996.0099, 167.3873
996.4921, 167.0023
996.9742, 167.4182
997.4563, 167.9899
997.9384, 168.1802
998.4205, 168.0636
998.9026, 167.9524
999.3848, 167.8645
999.8669, 167.8337
1000.349, 168.0824
1000.831, 168.1391
1001.313, 167.6382
1001.795, 166.9270
1002.277, 166.2709
1002.760, 165.7665
1003.242, 165.6041
1003.724, 165.9602
1004.206, 166.3787
1004.688, 166.7699
1005.170, 167.0264
1005.652, 167.0360
1006.134, 166.8728
1006.617, 166.6630
1007.099, 166.4121
1007.581, 165.9815
1008.063, 165.1521
1008.545, 164.4976
1009.027, 164.6348
1009.509, 165.0763
1009.991, 165.3363
1010.473, 165.4006
1010.956, 165.2920
1011.438, 165.0506
1011.920, 164.8397
1012.402, 164.7768
1012.884, 164.7754
1013.366, 164.7827
1013.848, 164.7489
1014.330, 164.4858
1014.813, 164.0900
1015.295, 163.9746
1015.777, 164.2361
1016.259, 164.4538
1016.741, 164.2051
1017.223, 163.8297
1017.705, 164.0886
1018.187, 164.7495
1018.669, 164.9425
1019.152, 164.6581
1019.634, 164.4470
1020.116, 164.5116
1020.598, 164.5343
1021.080, 164.1340
1021.562, 163.5512
1022.044, 163.6108
1022.526, 164.2185
1023.008, 164.3369
1023.491, 163.8640
1023.973, 163.1826
1024.455, 162.4022
1024.937, 161.9920
1025.419, 162.6182
1025.901, 163.9549
1026.383, 164.4339
1026.865, 163.9898
1027.348, 163.6678
1027.830, 163.5725
1028.312, 163.6025
1028.794, 163.7543
1029.276, 163.8630
1029.758, 163.6853
1030.240, 163.2823
1030.722, 163.2132
1031.204, 163.6488
1031.687, 163.5366
1032.169, 162.4123
1032.651, 161.8722
1033.133, 162.9352
1033.615, 164.4664
1034.097, 164.9686
1034.579, 164.5135
1035.061, 164.1980
1035.544, 164.1428
1036.026, 163.8602
1036.508, 162.9066
1036.990, 162.5136
1037.472, 163.6983
1037.954, 165.2724
1038.436, 165.5467
1038.918, 164.5834
1039.401, 164.2763
1039.883, 165.2821
1040.365, 165.7090
1040.847, 164.9656
1041.329, 164.2659
1041.811, 164.1340
1042.293, 164.3381
1042.775, 164.6908
1043.257, 165.1808
1043.740, 165.3651
1044.222, 164.8102
1044.704, 164.6222
1045.186, 165.2547
1045.668, 165.8025
1046.150, 165.6785
1046.632, 165.3784
1047.114, 165.6014
1047.596, 166.3067
1048.079, 166.6770
1048.561, 166.4471
1049.043, 166.1743
1049.525, 165.8499
1050.007, 165.5775
1050.489, 165.2899
1050.971, 165.1554
1051.453, 165.5200
1051.936, 166.3026
1052.418, 166.7476
1052.900, 166.6382
1053.382, 166.3523
1053.864, 165.7507
1054.346, 165.2289
1054.828, 165.1558
1055.310, 165.1670
1055.792, 164.6766
1056.275, 163.7906
1056.757, 163.3877
1057.239, 164.0072
1057.721, 164.3990
1058.203, 163.9386
1058.685, 163.4873
1059.167, 163.5207
1059.649, 163.8233
1060.131, 164.3139
1060.614, 164.8341
1061.096, 164.8005
1061.578, 163.7655
1062.060, 162.9561
1062.542, 163.0098
1063.024, 163.1541
1063.506, 162.9822
1063.988, 162.6392
1064.471, 162.2399
1064.953, 161.8486
1065.435, 161.6024
1065.917, 161.5554
1066.399, 161.5854
1066.881, 161.7105
1067.363, 161.8222
1067.845, 161.9024
1068.328, 161.9026
1068.810, 161.6641
1069.292, 161.3076
1069.774, 161.2644
1070.256, 161.7535
1070.738, 161.9730
1071.220, 161.2039
1071.702, 160.5066
1072.184, 160.6037
1072.667, 161.0038
1073.149, 161.2891
1073.631, 161.3926
1074.113, 161.2435
1074.595, 160.7871
1075.077, 160.5339
1075.559, 160.9115
1076.041, 161.3158
1076.523, 161.5425
1077.006, 161.5206
1077.488, 161.0164
1077.970, 160.2638
1078.452, 159.7200
1078.934, 159.4937
1079.416, 159.5176
1079.898, 160.0941
1080.380, 160.4922
1080.862, 160.1381
1081.345, 159.6144
1081.827, 159.3822
1082.309, 159.4081
1082.791, 159.7099
1083.273, 160.2258
1083.755, 160.2274
1084.237, 158.8035
1084.719, 157.6541
1085.202, 157.9393
1085.684, 158.4802
1086.166, 158.2906
1086.648, 157.7256
1087.130, 157.5153
1087.612, 157.6875
1088.094, 157.5136
1088.576, 156.3786
1089.058, 155.5463
1089.541, 155.9332
1090.023, 156.4197
1090.505, 156.3185
1090.987, 155.7714
1091.469, 154.8561
1091.951, 153.7218
1092.433, 152.8286
1092.915, 152.3040
1093.397, 152.0786
1093.880, 152.1751
1094.362, 152.5078
1094.844, 153.3426
1095.326, 154.1490
1095.808, 154.3066
1096.290, 153.9248
1096.772, 153.4786
1097.254, 153.0431
1097.737, 152.7373
1098.219, 152.7955
1098.701, 152.7487
1099.183, 152.2472
1099.665, 151.6681
1100.147, 151.3421
1100.629, 151.2142
1101.111, 151.1549
1101.594, 151.1631
1102.076, 150.9455
1102.558, 150.0841
1103.040, 149.4563
1103.522, 149.5191
1104.004, 149.7383
1104.486, 149.8071
1104.968, 149.7438
1105.450, 149.5102
1105.932, 149.1259
1106.415, 149.1154
1106.897, 150.1753
1107.379, 150.7211
1107.861, 149.8668
1108.343, 149.0928
1108.825, 149.4209
1109.307, 150.0766
1109.789, 149.9746
1110.272, 149.2209
1110.754, 148.9422
1111.236, 149.6900
1111.718, 150.0401
1112.200, 149.5955
1112.682, 149.0840
1113.164, 148.6994
1113.646, 148.4022
1114.129, 148.1489
1114.611, 147.9492
1115.093, 147.8566
1115.575, 147.9399
1116.057, 147.9141
1116.539, 147.6220
1117.021, 147.4610
1117.503, 147.5918
1117.985, 147.7771
1118.468, 147.9279
1118.950, 147.9917
1119.432, 147.8451
1119.914, 147.4662
1120.396, 147.1275
1120.878, 146.7802
1121.360, 146.5724
1121.842, 145.4621
1122.324, 146.6402
1122.807, 147.2604
1123.289, 147.3533
1123.771, 145.3380
1124.253, 146.0449
1124.735, 145.6608
1125.217, 145.2321
1125.699, 146.3221
1126.181, 144.6134
1126.664, 145.6792
1127.146, 145.6375
1127.628, 146.1028
1128.110, 145.4704
1128.592, 145.1770
1129.074, 145.9817
1129.556, 146.1784
1130.038, 145.4196
1130.521, 145.9169
1131.003, 144.1699
1131.485, 144.3925
1131.967, 145.4648
1132.449, 144.7613
1132.931, 145.2789
1133.413, 145.3314
1133.895, 143.2703
1134.377, 144.8849
1134.859, 144.9099
1135.342, 143.3026
1135.824, 144.7912
1136.306, 143.4091
1136.788, 143.0517
1137.270, 143.4654
1137.752, 143.0752
1138.234, 143.9524
1138.716, 143.6087
1139.199, 143.1556
1139.681, 143.1788
1140.163, 141.8530
1140.645, 143.0824
1141.127, 143.8709
1141.609, 144.3217
1142.091, 143.7532
1142.573, 142.9140
1143.056, 142.8701
1143.538, 143.2980
1144.020, 143.7319
1144.502, 144.0370
1144.984, 143.7831
1145.466, 143.0666
1145.948, 142.5141
1146.430, 142.3916
1146.912, 142.4495
1147.395, 141.3170
1147.877, 142.5791
1148.359, 143.2836
1148.841, 143.4604
1149.323, 141.5291
1149.805, 142.3200
1150.287, 142.0200
1150.769, 141.6752
1151.251, 142.8492
1151.734, 141.2246
1152.216, 142.3745
1152.698, 142.4169
1153.180, 142.9662
1153.662, 142.4178
1154.144, 141.2938
1154.626, 141.1519
1155.108, 141.5045
1155.591, 141.7736
1156.073, 141.8002
1156.555, 141.7801
1157.037, 141.8865
1157.519, 141.8225
1158.001, 141.0286
1158.483, 140.4504
1158.965, 141.2947
1159.448, 142.6231
1159.930, 142.5586
1160.412, 140.9872
1160.894, 140.2262
1161.376, 141.3201
1161.858, 141.9833
1162.340, 141.6960
1162.822, 141.3688
1163.304, 141.2645
1163.786, 141.3379
1164.269, 141.7247
1164.751, 142.2139
1165.233, 142.0122
1165.715, 140.8517
1166.197, 140.2013
1166.679, 140.1988
1167.161, 140.3543
1167.643, 140.6763
1168.126, 140.8172
1168.608, 140.4555
1169.090, 140.0915
1169.572, 140.5987
1170.054, 141.7621
1170.536, 141.7175
1171.018, 139.3504
1171.500, 140.5971
1171.983, 141.2860
1172.465, 141.4474
1172.947, 139.5006
1173.429, 140.2760
1173.911, 139.9605
1174.393, 139.6003
1174.875, 140.7588
1175.357, 139.1187
1175.839, 140.2532
1176.322, 140.2800
1176.804, 140.8138
1177.286, 140.2499
1177.768, 140.0251
1178.250, 140.8983
1178.732, 141.1635
1179.214, 140.4733
1179.696, 141.0393
1180.178, 139.3609
1180.661, 140.1379
1181.143, 140.0753
1181.625, 139.7823
1182.107, 139.5213
1182.589, 139.3626
1183.071, 139.3250
1183.553, 139.4914
1184.035, 139.4794
1184.518, 138.7559
1185.000, 138.1053
1185.482, 138.1324
1185.964, 138.4795
1186.446, 138.9048
1186.928, 139.2731
1187.410, 139.3809
1187.892, 139.1907
1188.375, 138.9017
1188.857, 138.3377
1189.339, 138.0145
1189.821, 138.1347
1190.303, 138.4025
1190.785, 138.8448
1191.267, 139.2287
1191.749, 139.3075
1192.231, 139.1267
1192.714, 138.8477
1193.196, 138.4223
1193.678, 138.0727
1194.160, 137.7556
1194.642, 137.6739
1195.124, 137.9974
1195.606, 138.1634
1196.088, 137.7910
1196.570, 137.2468
1197.053, 137.0364
1197.535, 137.1075
1198.017, 137.2494
1198.499, 137.4561
1198.981, 137.4480
1199.463, 137.2184
1199.945, 137.0534
1200.427, 137.0341
1200.910, 137.1117
1201.392, 137.2647
1201.874, 137.3858
1202.356, 137.2803
1202.838, 137.0574
1203.320, 136.9100
1203.802, 136.8486
1204.284, 136.9503
1204.766, 137.1538
1205.249, 137.2825
1205.731, 137.2726
1206.213, 137.1083
1206.695, 136.7324
1207.177, 136.3158
1207.659, 135.8410
1208.141, 135.5385
1208.623, 135.8344
1209.105, 136.2647
1209.588, 136.0501
1210.070, 135.4614
1210.552, 135.5792
1211.034, 136.7381
1211.516, 137.4845
1211.998, 137.2770
1212.480, 136.9213
1212.962, 136.4660
1213.445, 136.0786
1213.927, 135.9391
1214.409, 135.8262
1214.891, 135.3507
1215.373, 134.7081
1215.855, 134.8605
1216.337, 136.1375
1216.819, 136.7048
1217.302, 136.3569
1217.784, 136.1118
1218.266, 136.2225
1218.748, 136.2284
1219.230, 135.8634
1219.712, 135.2985
1220.194, 134.6831
1220.676, 134.1458
1221.158, 134.2165
1221.641, 134.7522
1222.123, 135.0069
1222.605, 134.9691
1223.087, 134.8079
1223.569, 134.5912
1224.051, 134.4341
1224.533, 134.4016
1225.015, 134.4220
1225.497, 134.4715
1225.980, 134.4846
1226.462, 134.3119
1226.944, 134.1104
1227.426, 134.0922
1227.908, 134.2089
1228.390, 134.3986
1228.872, 134.5974
1229.354, 134.5383
1229.837, 133.9679
1230.319, 133.6073
1230.801, 133.9258
1231.283, 134.2112
1231.765, 134.2137
1232.247, 134.0141
1232.729, 133.3696
1233.211, 132.7319
1233.693, 133.0692
1234.176, 134.3245
1234.658, 134.7338
1235.140, 133.9311
1235.622, 133.3857
1236.104, 133.1680
1236.586, 133.2083
1237.068, 133.5442
1237.550, 133.8563
1238.032, 133.9052
1238.515, 133.8314
1238.997, 133.9041
1239.479, 134.0328
1239.961, 133.7373
1240.443, 133.1598
1240.925, 133.0450
1241.407, 133.3264
1241.889, 133.2843
1242.372, 132.7806
1242.854, 132.4615
1243.336, 132.7611
1243.818, 133.1502
1244.300, 133.1177
1244.782, 132.9551
1245.264, 132.9978
1245.746, 133.0376
1246.229, 132.7761
1246.711, 132.3231
1247.193, 131.8655
1247.675, 131.4686
1248.157, 131.3677
1248.639, 131.8289
1249.121, 132.1663
1249.603, 132.1663
1250.085, 132.1560
1250.568, 132.2737
1251.050, 132.3658
1251.532, 132.3225
1252.014, 132.1996
1252.496, 132.0976
1252.978, 132.0060
1253.460, 131.7701
1253.942, 131.3540
1254.424, 131.1928
1254.907, 131.3181
1255.389, 131.5805
1255.871, 131.9347
1256.353, 132.2607
1256.835, 132.4846
1257.317, 132.5879
1257.799, 132.4917
1258.281, 132.3174
1258.764, 132.3112
1259.246, 132.3712
1259.728, 132.3238
1260.210, 132.1807
1260.692, 131.9708
1261.174, 131.7341
1261.656, 131.6105
1262.138, 131.6950
1262.620, 131.6851
1263.103, 131.1865
1263.585, 130.9065
1264.067, 131.5239
1264.549, 132.0807
1265.031, 131.7135
1265.513, 131.0003
1265.995, 130.7740
1266.477, 130.9575
1266.959, 131.1281
1267.442, 131.2970
1267.924, 131.4029
1268.406, 131.4374
1268.888, 131.4376
1269.370, 131.4016
1269.852, 131.4239
1270.334, 131.5651
1270.816, 131.6151
1271.299, 131.2846
1271.781, 130.8962
1272.263, 131.3288
1272.745, 132.1138
1273.227, 131.9508
1273.709, 131.2193
1274.191, 130.9996
1274.673, 131.2790
1275.156, 131.2947
1275.638, 130.8244
1276.120, 130.5904
1276.602, 131.2294
1277.084, 131.7661
1277.566, 131.6356
1278.048, 131.3524
1278.530, 131.1189
1279.012, 130.9722
1279.495, 131.0250
1279.977, 131.1524
1280.459, 131.0197
1280.941, 130.6096
1281.423, 130.4555
1281.905, 130.6609
1282.387, 130.8118
1282.869, 130.8725
1283.351, 130.9676
1283.834, 131.1547
1284.316, 131.1542
1284.798, 130.7457
1285.280, 130.2877
1285.762, 130.2184
1286.244, 130.6034
##END=



