##NAMES=Krauskopfite
##RRUFFID=R070657
##IDEAL CHEMISTRY=BaSi_2_O_5_&#183;3H_2_O
##LOCALITY=Rush Creek, Fresno County, California, USA
##OWNER=RRUFF
##SOURCE=Michael Scott
##DESCRIPTION=Colorless to white bladed crystals associated with witherite and quartz.
##STATUS=The identification of this mineral has been confirmed by single-crystal X-ray diffraction.
##URL=rruff.info/R070657
97.45238, 1291.833
97.93450, 1372.705
98.41662, 1444.228
98.89874, 1506.451
99.38085, 1572.446
99.86297, 1643.003
100.3451, 1714.631
100.8272, 1778.172
101.3093, 1829.842
101.7914, 1886.745
102.2736, 1955.691
102.7557, 2033.166
103.2378, 2137.924
103.7199, 2290.012
104.2020, 2475.759
104.6841, 2583.544
105.1663, 2564.397
105.6484, 2527.545
106.1305, 2574.483
106.6126, 2760.366
107.0947, 2940.115
107.5768, 3082.366
108.0590, 3178.295
108.5411, 3275.252
109.0232, 3351.449
109.5053, 3433.524
109.9874, 3568.627
110.4695, 3865.967
110.9517, 4129.800
111.4338, 4296.121
111.9159, 4257.442
112.3980, 4261.456
112.8801, 4352.874
113.3622, 4512.350
113.8444, 4638.418
114.3265, 4680.076
114.8086, 4701.498
115.2907, 4746.659
115.7728, 4854.441
116.2549, 4960.129
116.7370, 5043.334
117.2192, 5100.680
117.7013, 5155.858
118.1834, 5209.971
118.6655, 5268.348
119.1476, 5338.573
119.6297, 5435.325
120.1119, 5537.658
120.5940, 5630.710
121.0761, 5707.360
121.5582, 5785.261
122.0403, 5877.055
122.5224, 5979.695
123.0046, 6083.016
123.4867, 6181.749
123.9688, 6277.586
124.4509, 6372.462
124.9330, 6465.258
125.4151, 6558.626
125.8973, 6656.023
126.3794, 6757.407
126.8615, 6859.919
127.3436, 6957.375
127.8257, 7052.885
128.3078, 7153.877
128.7900, 7273.433
129.2721, 7398.723
129.7542, 7500.482
130.2363, 7569.410
130.7184, 7602.455
131.2005, 7631.412
131.6827, 7677.365
132.1648, 7709.532
132.6469, 7694.733
133.1290, 7643.948
133.6111, 7616.227
134.0932, 7624.764
134.5754, 7656.838
135.0575, 7678.697
135.5396, 7688.780
136.0217, 7699.572
136.5038, 7721.006
136.9859, 7752.783
137.4681, 7794.279
137.9502, 7848.519
138.4323, 7914.795
138.9144, 7976.093
139.3965, 8034.570
139.8786, 8086.140
140.3608, 8126.024
140.8429, 8155.432
141.3250, 8171.459
141.8071, 8168.805
142.2892, 8138.517
142.7713, 8121.768
143.2535, 8118.280
143.7356, 8127.925
144.2177, 8153.458
144.6998, 8205.190
145.1819, 8256.880
145.6640, 8293.037
146.1461, 8309.438
146.6283, 8318.964
147.1104, 8321.584
147.5925, 8317.463
148.0746, 8311.411
148.5567, 8298.315
149.0388, 8286.869
149.5210, 8285.379
150.0031, 8309.348
150.4852, 8325.844
150.9673, 8330.428
151.4494, 8324.295
151.9315, 8302.168
152.4137, 8242.727
152.8958, 8171.375
153.3779, 8126.844
153.8600, 8126.774
154.3421, 8139.676
154.8242, 8157.103
155.3064, 8187.871
155.7885, 8207.432
156.2706, 8209.729
156.7527, 8198.230
157.2348, 8183.476
157.7169, 8167.184
158.1991, 8148.478
158.6812, 8127.052
159.1633, 8087.690
159.6454, 8060.760
160.1275, 8057.717
160.6096, 8077.141
161.0918, 8100.748
161.5739, 8137.892
162.0560, 8171.137
162.5381, 8183.631
163.0202, 8147.444
163.5023, 8107.575
163.9845, 8087.064
164.4666, 8089.662
164.9487, 8091.226
165.4308, 8077.637
165.9129, 8056.096
166.3951, 8038.270
166.8772, 8036.338
167.3593, 8035.551
167.8414, 8024.624
168.3235, 7999.166
168.8056, 7970.695
169.2878, 7938.623
169.7699, 7907.635
170.2520, 7891.318
170.7341, 7905.920
171.2162, 7935.932
171.6983, 7967.094
172.1805, 8005.976
172.6626, 8032.850
173.1447, 8023.820
173.6268, 7982.494
174.1089, 7937.517
174.5910, 7903.341
175.0732, 7879.531
175.5553, 7865.370
176.0374, 7859.753
176.5195, 7864.042
177.0016, 7887.530
177.4837, 7931.900
177.9659, 7969.096
178.4480, 7968.276
178.9301, 7939.281
179.4122, 7909.266
179.8943, 7883.496
180.3764, 7866.235
180.8586, 7868.378
181.3407, 7894.072
181.8228, 7925.308
182.3049, 7940.934
182.7870, 7942.993
183.2691, 7942.604
183.7513, 7945.398
184.2334, 7950.803
184.7155, 7957.095
185.1976, 7963.333
185.6797, 7971.492
186.1618, 7988.882
186.6440, 8015.171
187.1261, 8035.542
187.6082, 8034.778
188.0903, 8017.059
188.5724, 8001.650
189.0545, 7992.079
189.5366, 7988.237
190.0188, 7994.906
190.5009, 8013.539
190.9830, 8027.013
191.4651, 8009.129
191.9472, 7963.331
192.4293, 7931.530
192.9115, 7932.229
193.3936, 7958.688
193.8757, 7984.224
194.3578, 8010.646
194.8399, 8029.469
195.3220, 8024.214
195.8042, 7994.030
196.2863, 7967.540
196.7684, 7954.451
197.2505, 7954.958
197.7326, 7973.542
198.2147, 8016.894
198.6969, 8067.220
199.1790, 8087.525
199.6611, 8072.975
200.1432, 8062.215
200.6253, 8081.662
201.1074, 8133.379
201.5896, 8171.553
202.0717, 8192.705
202.5538, 8198.014
203.0359, 8184.490
203.5180, 8145.075
204.0001, 8111.674
204.4823, 8112.263
204.9644, 8153.676
205.4465, 8180.682
205.9286, 8181.753
206.4107, 8163.146
206.8928, 8156.001
207.3750, 8163.138
207.8571, 8175.677
208.3392, 8185.431
208.8213, 8190.986
209.3034, 8201.518
209.7855, 8221.827
210.2677, 8251.171
210.7498, 8270.759
211.2319, 8279.079
211.7140, 8280.125
212.1961, 8275.851
212.6782, 8261.883
213.1604, 8255.814
213.6425, 8266.078
214.1246, 8294.972
214.6067, 8310.031
215.0888, 8306.281
215.5709, 8293.694
216.0531, 8287.782
216.5352, 8291.061
217.0173, 8295.238
217.4994, 8297.850
217.9815, 8299.140
218.4636, 8297.586
218.9458, 8290.033
219.4279, 8281.765
219.9100, 8286.690
220.3921, 8316.518
220.8742, 8338.073
221.3563, 8333.242
221.8385, 8287.781
222.3206, 8254.805
222.8027, 8237.240
223.2848, 8232.239
223.7669, 8229.989
224.2490, 8228.492
224.7312, 8232.482
225.2133, 8245.749
225.6954, 8273.079
226.1775, 8297.957
226.6596, 8320.552
227.1417, 8339.920
227.6239, 8351.885
228.1060, 8355.779
228.5881, 8352.955
229.0702, 8342.251
229.5523, 8315.738
230.0344, 8299.256
230.5165, 8297.896
230.9987, 8311.081
231.4808, 8326.840
231.9629, 8347.614
232.4450, 8368.525
232.9271, 8385.143
233.4092, 8396.418
233.8914, 8405.361
234.3735, 8412.876
234.8556, 8419.176
235.3377, 8420.825
235.8198, 8415.613
236.3019, 8407.802
236.7841, 8402.057
237.2662, 8399.177
237.7483, 8397.201
238.2304, 8397.218
238.7125, 8400.801
239.1946, 8394.317
239.6768, 8365.571
240.1589, 8335.561
240.6410, 8335.244
241.1231, 8383.899
241.6052, 8431.303
242.0873, 8462.678
242.5695, 8473.372
243.0516, 8485.696
243.5337, 8498.868
244.0158, 8513.925
244.4979, 8534.485
244.9800, 8570.061
245.4622, 8595.968
245.9443, 8600.907
246.4264, 8574.665
246.9085, 8555.573
247.3906, 8540.600
247.8727, 8533.664
248.3549, 8545.333
248.8370, 8585.799
249.3191, 8629.607
249.8012, 8669.032
250.2833, 8717.036
250.7654, 8728.698
251.2476, 8687.022
251.7297, 8612.336
252.2118, 8563.348
252.6939, 8546.302
253.1760, 8545.863
253.6581, 8557.476
254.1403, 8590.880
254.6224, 8612.788
255.1045, 8618.076
255.5866, 8611.272
256.0687, 8608.256
256.5508, 8609.222
257.0330, 8614.077
257.5151, 8624.697
257.9972, 8647.128
258.4793, 8659.284
258.9614, 8655.733
259.4435, 8640.066
259.9257, 8629.123
260.4078, 8616.903
260.8899, 8618.344
261.3720, 8651.488
261.8541, 8739.386
262.3362, 8791.846
262.8184, 8787.422
263.3005, 8736.465
263.7826, 8706.626
264.2647, 8704.460
264.7468, 8712.448
265.2289, 8716.189
265.7111, 8711.111
266.1932, 8716.108
266.6753, 8736.248
267.1574, 8769.604
267.6395, 8805.969
268.1216, 8854.462
268.6038, 8889.061
269.0859, 8879.479
269.5680, 8810.930
270.0501, 8753.258
270.5322, 8718.483
271.0143, 8705.550
271.4965, 8709.108
271.9786, 8734.721
272.4607, 8765.460
272.9428, 8786.105
273.4249, 8796.604
273.9070, 8796.687
274.3892, 8782.471
274.8713, 8755.971
275.3534, 8737.801
275.8355, 8727.813
276.3176, 8726.248
276.7997, 8733.338
277.2819, 8748.947
277.7640, 8775.424
278.2461, 8822.354
278.7282, 8884.809
279.2103, 8905.885
279.6924, 8877.038
280.1746, 8830.571
280.6567, 8798.178
281.1388, 8780.064
281.6209, 8774.595
282.1030, 8786.957
282.5851, 8813.398
283.0673, 8825.209
283.5494, 8819.373
284.0315, 8809.871
284.5136, 8812.450
284.9957, 8827.238
285.4778, 8846.672
285.9600, 8873.166
286.4421, 8903.054
286.9242, 8915.633
287.4063, 8908.255
287.8884, 8894.860
288.3705, 8885.454
288.8527, 8880.704
289.3348, 8894.478
289.8169, 8943.858
290.2990, 9016.363
290.7811, 9062.474
291.2632, 9079.327
291.7453, 9083.412
292.2274, 9093.461
292.7096, 9107.863
293.1917, 9115.254
293.6738, 9107.807
294.1559, 9090.214
294.6380, 9074.242
295.1201, 9059.216
295.6023, 9050.073
296.0844, 9052.669
296.5665, 9065.970
297.0486, 9085.068
297.5307, 9111.431
298.0128, 9142.180
298.4950, 9174.269
298.9771, 9209.225
299.4592, 9233.659
299.9413, 9218.025
300.4234, 9178.120
300.9055, 9159.126
301.3877, 9200.525
301.8698, 9267.654
302.3519, 9305.881
302.8340, 9313.880
303.3161, 9313.502
303.7982, 9322.103
304.2804, 9336.890
304.7625, 9352.156
305.2446, 9362.824
305.7267, 9373.564
306.2088, 9392.543
306.6909, 9420.308
307.1731, 9443.067
307.6552, 9444.896
308.1373, 9434.799
308.6194, 9428.079
309.1015, 9437.115
309.5836, 9448.382
310.0658, 9445.300
310.5479, 9427.350
311.0300, 9418.385
311.5121, 9443.584
311.9942, 9485.479
312.4763, 9519.931
312.9585, 9533.262
313.4406, 9539.774
313.9227, 9547.661
314.4048, 9557.190
314.8869, 9566.540
315.3690, 9576.144
315.8512, 9584.580
316.3333, 9590.280
316.8154, 9593.076
317.2975, 9592.446
317.7796, 9584.021
318.2617, 9567.796
318.7439, 9559.744
319.2260, 9571.446
319.7081, 9591.788
320.1902, 9610.236
320.6723, 9632.415
321.1544, 9644.306
321.6366, 9632.807
322.1187, 9598.705
322.6008, 9579.887
323.0829, 9602.125
323.5650, 9634.793
324.0471, 9653.483
324.5293, 9634.432
325.0114, 9621.593
325.4935, 9625.524
325.9756, 9645.935
326.4577, 9666.934
326.9398, 9691.186
327.4220, 9712.826
327.9041, 9727.806
328.3862, 9733.397
328.8683, 9734.803
329.3504, 9733.410
329.8326, 9728.853
330.3147, 9716.228
330.7968, 9681.467
331.2789, 9649.788
331.7610, 9638.105
332.2431, 9665.351
332.7253, 9683.286
333.2074, 9685.144
333.6895, 9673.692
334.1716, 9665.632
334.6537, 9659.416
335.1358, 9659.046
335.6180, 9667.495
336.1001, 9686.794
336.5822, 9710.952
337.0643, 9745.152
337.5464, 9783.130
338.0285, 9799.589
338.5107, 9785.884
338.9928, 9769.026
339.4749, 9764.518
339.9570, 9774.210
340.4391, 9786.779
340.9212, 9802.586
341.4034, 9819.892
341.8855, 9834.600
342.3676, 9846.283
342.8497, 9857.182
343.3318, 9870.017
343.8139, 9884.934
344.2961, 9890.633
344.7782, 9881.030
345.2603, 9871.338
345.7424, 9898.053
346.2245, 9962.170
346.7066, 10016.88
347.1888, 10027.54
347.6709, 10004.92
348.1530, 10002.54
348.6351, 10026.51
349.1172, 10060.98
349.5993, 10091.91
350.0815, 10117.48
350.5636, 10127.79
351.0457, 10105.17
351.5278, 10066.27
352.0099, 10048.68
352.4920, 10056.63
352.9742, 10067.90
353.4563, 10057.39
353.9384, 10032.00
354.4205, 10009.80
354.9026, 10009.48
355.3847, 10011.18
355.8669, 9982.690
356.3490, 9921.386
356.8311, 9872.963
357.3132, 9887.329
357.7953, 9934.337
358.2774, 9967.001
358.7596, 9940.944
359.2417, 9914.016
359.7238, 9935.739
360.2059, 10005.02
360.6880, 10061.92
361.1701, 10066.05
361.6523, 10045.43
362.1344, 10028.45
362.6165, 10015.80
363.0986, 10015.90
363.5807, 10041.71
364.0628, 10089.17
364.5450, 10122.87
365.0271, 10118.39
365.5092, 10104.14
365.9913, 10099.89
366.4734, 10130.79
366.9555, 10148.41
367.4377, 10132.99
367.9198, 10093.41
368.4019, 10073.14
368.8840, 10108.33
369.3661, 10140.38
369.8482, 10140.35
370.3304, 10057.88
370.8125, 10013.71
371.2946, 10025.41
371.7767, 10074.83
372.2588, 10112.15
372.7409, 10135.21
373.2230, 10148.78
373.7051, 10152.88
374.1873, 10141.54
374.6694, 10136.81
375.1515, 10138.87
375.6336, 10147.08
376.1157, 10161.43
376.5978, 10184.37
377.0800, 10206.32
377.5621, 10224.42
378.0442, 10238.90
378.5263, 10245.38
379.0084, 10242.35
379.4905, 10234.32
379.9727, 10223.25
380.4548, 10208.13
380.9369, 10204.91
381.4190, 10223.30
381.9011, 10258.13
382.3832, 10288.90
382.8654, 10315.63
383.3475, 10333.92
383.8296, 10334.51
384.3117, 10320.90
384.7938, 10308.49
385.2759, 10301.55
385.7581, 10298.81
386.2402, 10299.41
386.7223, 10303.27
387.2044, 10307.35
387.6865, 10315.01
388.1686, 10320.65
388.6508, 10311.13
389.1329, 10270.88
389.6150, 10234.97
390.0971, 10250.69
390.5792, 10303.89
391.0613, 10343.61
391.5435, 10320.03
392.0256, 10281.72
392.5077, 10275.53
392.9898, 10321.59
393.4719, 10369.36
393.9540, 10387.33
394.4362, 10387.97
394.9183, 10396.94
395.4004, 10450.08
395.8825, 10491.76
396.3646, 10484.19
396.8467, 10402.92
397.3289, 10352.70
397.8110, 10384.00
398.2931, 10450.82
398.7752, 10494.79
399.2573, 10489.52
399.7394, 10479.81
400.2216, 10472.74
400.7037, 10467.77
401.1858, 10472.81
401.6679, 10493.51
402.1500, 10520.44
402.6321, 10547.97
403.1143, 10591.29
403.5964, 10606.02
404.0785, 10570.86
404.5606, 10497.19
405.0427, 10469.16
405.5248, 10504.34
406.0070, 10551.92
406.4891, 10578.54
406.9712, 10583.04
407.4533, 10574.83
407.9354, 10548.11
408.4175, 10516.03
408.8997, 10511.94
409.3818, 10537.80
409.8639, 10571.33
410.3460, 10601.52
410.8281, 10629.03
411.3102, 10657.08
411.7924, 10686.88
412.2745, 10713.68
412.7566, 10731.49
413.2387, 10740.59
413.7208, 10743.51
414.2029, 10736.08
414.6851, 10724.69
415.1672, 10719.54
415.6493, 10720.80
416.1314, 10724.66
416.6135, 10724.29
417.0956, 10725.20
417.5778, 10736.34
418.0599, 10772.42
418.5420, 10810.10
419.0241, 10834.31
419.5062, 10846.13
419.9883, 10852.90
420.4705, 10854.76
420.9526, 10855.09
421.4347, 10856.16
421.9168, 10855.75
422.3989, 10860.25
422.8810, 10874.32
423.3632, 10894.84
423.8453, 10913.30
424.3274, 10925.20
424.8095, 10936.83
425.2916, 10951.65
425.7737, 10974.58
426.2559, 10988.68
426.7380, 10992.22
427.2201, 10987.39
427.7022, 10976.23
428.1843, 10949.80
428.6664, 10930.92
429.1486, 10924.95
429.6307, 10932.05
430.1128, 10951.97
430.5949, 10993.91
431.0770, 11033.01
431.5591, 11039.94
432.0413, 11007.80
432.5234, 10992.21
433.0055, 11010.68
433.4876, 11048.76
433.9697, 11055.94
434.4518, 11029.90
434.9340, 11004.88
435.4161, 11004.40
435.8982, 11024.95
436.3803, 11052.56
436.8624, 11087.47
437.3445, 11123.38
437.8267, 11157.26
438.3088, 11186.26
438.7909, 11199.51
439.2730, 11179.71
439.7551, 11146.43
440.2372, 11122.37
440.7194, 11109.14
441.2015, 11101.54
441.6836, 11089.90
442.1657, 11083.16
442.6478, 11093.14
443.1299, 11136.28
443.6121, 11186.11
444.0942, 11237.54
444.5763, 11287.91
445.0584, 11320.45
445.5405, 11324.83
446.0226, 11312.34
446.5048, 11289.54
446.9869, 11233.84
447.4690, 11199.10
447.9511, 11205.33
448.4332, 11236.85
448.9153, 11250.64
449.3975, 11228.36
449.8796, 11210.16
450.3617, 11211.93
450.8438, 11240.85
451.3259, 11261.76
451.8080, 11275.06
452.2902, 11280.54
452.7723, 11270.96
453.2544, 11237.03
453.7365, 11230.88
454.2186, 11281.16
454.7007, 11370.64
455.1828, 11400.85
455.6649, 11365.51
456.1471, 11316.59
456.6292, 11295.31
457.1113, 11298.20
457.5934, 11309.66
458.0755, 11328.87
458.5576, 11351.66
459.0398, 11373.37
459.5219, 11393.82
460.0040, 11413.24
460.4861, 11435.72
460.9682, 11455.31
461.4503, 11464.82
461.9325, 11463.49
462.4146, 11452.47
462.8967, 11421.01
463.3788, 11382.97
463.8609, 11358.22
464.3430, 11357.15
464.8252, 11367.77
465.3073, 11394.37
465.7894, 11434.21
466.2715, 11457.12
466.7536, 11444.60
467.2357, 11419.75
467.7179, 11396.89
468.2000, 11364.89
468.6821, 11351.87
469.1642, 11370.39
469.6463, 11407.55
470.1284, 11428.71
470.6106, 11424.56
471.0927, 11419.72
471.5748, 11423.22
472.0569, 11436.10
472.5390, 11449.49
473.0211, 11465.42
473.5033, 11477.48
473.9854, 11472.60
474.4675, 11449.12
474.9496, 11438.13
475.4317, 11452.55
475.9138, 11481.79
476.3960, 11497.41
476.8781, 11499.58
477.3602, 11495.11
477.8423, 11482.52
478.3244, 11468.05
478.8065, 11466.38
479.2887, 11482.29
479.7708, 11504.39
480.2529, 11523.82
480.7350, 11541.02
481.2171, 11556.91
481.6992, 11566.56
482.1814, 11578.68
482.6635, 11602.29
483.1456, 11638.13
483.6277, 11668.85
484.1098, 11681.86
484.5919, 11688.80
485.0741, 11700.04
485.5562, 11740.42
486.0383, 11758.87
486.5204, 11729.36
487.0025, 11665.22
487.4846, 11631.86
487.9668, 11646.52
488.4489, 11673.09
488.9310, 11699.70
489.4131, 11730.44
489.8952, 11747.21
490.3773, 11745.67
490.8595, 11736.39
491.3416, 11733.37
491.8237, 11736.93
492.3058, 11745.88
492.7879, 11762.52
493.2701, 11784.04
493.7522, 11800.91
494.2343, 11813.63
494.7164, 11815.71
495.1985, 11792.44
495.6806, 11754.53
496.1628, 11730.44
496.6449, 11727.09
497.1270, 11733.88
497.6091, 11741.63
498.0912, 11750.64
498.5733, 11761.40
499.0555, 11780.58
499.5376, 11797.19
500.0197, 11802.34
500.5018, 11794.97
500.9839, 11785.16
501.4660, 11765.00
501.9482, 11750.48
502.4303, 11755.56
502.9124, 11803.54
503.3945, 11848.05
503.8766, 11885.54
504.3587, 11915.05
504.8409, 11933.50
505.3230, 11934.31
505.8051, 11932.42
506.2872, 11932.52
506.7693, 11933.64
507.2514, 11944.42
507.7336, 11973.60
508.2157, 11999.20
508.6978, 11983.42
509.1799, 11920.68
509.6620, 11880.69
510.1441, 11884.42
510.6263, 11920.14
511.1084, 11959.98
511.5905, 12003.54
512.0726, 12044.13
512.5547, 12087.67
513.0368, 12122.37
513.5189, 12117.83
514.0010, 12059.35
514.4832, 12004.44
514.9653, 12014.66
515.4474, 12061.99
515.9295, 12095.85
516.4116, 12082.39
516.8937, 12061.33
517.3759, 12057.46
517.8580, 12070.31
518.3401, 12071.78
518.8222, 12035.33
519.3043, 11997.82
519.7864, 11982.82
520.2686, 12018.34
520.7507, 12041.04
521.2328, 12038.91
521.7149, 12027.58
522.1970, 12038.79
522.6791, 12083.12
523.1613, 12127.91
523.6434, 12169.10
524.1255, 12205.39
524.6076, 12204.20
525.0897, 12158.59
525.5718, 12102.23
526.0540, 12060.72
526.5361, 12034.20
527.0182, 12026.57
527.5003, 12039.99
527.9824, 12069.55
528.4645, 12121.72
528.9467, 12187.25
529.4288, 12235.39
529.9109, 12236.93
530.3930, 12220.12
530.8751, 12214.38
531.3572, 12222.16
531.8394, 12221.42
532.3215, 12180.63
532.8036, 12135.27
533.2857, 12117.68
533.7678, 12166.05
534.2499, 12209.06
534.7321, 12234.83
535.2142, 12245.33
535.6963, 12245.74
536.1784, 12223.63
536.6605, 12207.04
537.1426, 12205.74
537.6248, 12221.28
538.1069, 12245.69
538.5890, 12288.85
539.0711, 12324.34
539.5532, 12317.10
540.0353, 12264.04
540.5175, 12221.73
540.9996, 12196.46
541.4817, 12193.17
541.9638, 12240.76
542.4459, 12332.06
542.9280, 12401.78
543.4102, 12386.40
543.8923, 12334.77
544.3744, 12321.86
544.8565, 12354.46
545.3386, 12394.32
545.8207, 12418.66
546.3029, 12433.24
546.7850, 12444.93
547.2671, 12450.29
547.7492, 12458.74
548.2313, 12475.03
548.7134, 12497.08
549.1956, 12518.26
549.6777, 12548.36
550.1598, 12567.11
550.6419, 12565.89
551.1240, 12540.82
551.6061, 12512.10
552.0883, 12471.30
552.5704, 12437.63
553.0525, 12435.50
553.5346, 12471.45
554.0167, 12496.35
554.4988, 12498.43
554.9810, 12488.47
555.4631, 12494.63
555.9452, 12515.87
556.4273, 12530.76
556.9094, 12517.96
557.3915, 12493.43
557.8737, 12484.38
558.3558, 12492.18
558.8379, 12511.96
559.3200, 12556.24
559.8021, 12605.05
560.2842, 12631.20
560.7664, 12607.59
561.2485, 12586.51
561.7306, 12591.77
562.2127, 12615.49
562.6948, 12636.17
563.1769, 12643.79
563.6591, 12653.70
564.1412, 12670.45
564.6233, 12694.44
565.1054, 12723.08
565.5875, 12762.15
566.0696, 12797.80
566.5518, 12812.92
567.0339, 12800.35
567.5160, 12811.77
567.9981, 12863.28
568.4802, 12927.24
568.9623, 12945.31
569.4445, 12921.46
569.9266, 12902.97
570.4087, 12925.84
570.8908, 12964.40
571.3729, 12971.25
571.8550, 12947.20
572.3372, 12920.70
572.8193, 12897.55
573.3014, 12889.51
573.7835, 12914.53
574.2656, 13003.35
574.7477, 13073.02
575.2299, 13076.85
575.7120, 13043.60
576.1941, 13023.71
576.6762, 13022.06
577.1583, 13037.61
577.6404, 13077.17
578.1226, 13139.48
578.6047, 13181.92
579.0868, 13193.18
579.5689, 13204.71
580.0510, 13241.59
580.5331, 13306.74
581.0153, 13354.58
581.4974, 13383.07
581.9795, 13394.24
582.4616, 13375.49
582.9437, 13336.79
583.4258, 13326.04
583.9080, 13375.64
584.3901, 13447.38
584.8722, 13495.13
585.3543, 13522.85
585.8364, 13549.20
586.3185, 13593.21
586.8007, 13634.01
587.2828, 13651.36
587.7649, 13634.43
588.2470, 13630.40
588.7291, 13664.45
589.2112, 13711.21
589.6934, 13745.09
590.1755, 13767.98
590.6576, 13773.06
591.1397, 13747.15
591.6218, 13706.28
592.1039, 13704.07
592.5861, 13752.89
593.0682, 13794.51
593.5503, 13798.70
594.0324, 13771.30
594.5145, 13754.73
594.9966, 13749.55
595.4788, 13748.57
595.9609, 13749.64
596.4430, 13749.40
596.9251, 13740.25
597.4072, 13718.67
597.8893, 13692.81
598.3715, 13660.48
598.8536, 13629.69
599.3357, 13615.92
599.8178, 13643.07
600.2999, 13670.66
600.7820, 13681.09
601.2642, 13674.64
601.7463, 13673.15
602.2284, 13683.82
602.7105, 13694.05
603.1926, 13698.58
603.6747, 13698.35
604.1569, 13687.30
604.6390, 13663.04
605.1211, 13631.25
605.6032, 13589.81
606.0853, 13539.64
606.5674, 13520.00
607.0496, 13553.83
607.5317, 13607.47
608.0138, 13622.78
608.4959, 13605.57
608.9780, 13582.93
609.4601, 13565.60
609.9423, 13553.92
610.4244, 13551.55
610.9065, 13559.18
611.3886, 13562.66
611.8707, 13548.50
612.3528, 13531.85
612.8350, 13524.78
613.3171, 13537.13
613.7992, 13546.94
614.2813, 13549.53
614.7634, 13549.96
615.2455, 13559.21
615.7277, 13584.50
616.2098, 13596.38
616.6919, 13578.83
617.1740, 13542.30
617.6561, 13543.49
618.1382, 13584.47
618.6204, 13622.44
619.1025, 13619.35
619.5846, 13593.44
620.0667, 13589.16
620.5488, 13612.66
621.0309, 13633.41
621.5131, 13625.88
621.9952, 13601.99
622.4773, 13576.22
622.9594, 13540.48
623.4415, 13520.63
623.9236, 13542.43
624.4058, 13586.99
624.8879, 13605.66
625.3700, 13568.58
625.8521, 13535.20
626.3342, 13522.58
626.8163, 13529.92
627.2985, 13525.89
627.7806, 13503.46
628.2627, 13487.93
628.7448, 13507.33
629.2269, 13556.52
629.7090, 13575.93
630.1912, 13556.81
630.6733, 13525.74
631.1554, 13503.24
631.6375, 13491.77
632.1196, 13498.07
632.6017, 13539.44
633.0839, 13581.01
633.5660, 13602.17
634.0481, 13604.77
634.5302, 13593.61
635.0123, 13548.58
635.4944, 13510.90
635.9766, 13504.98
636.4587, 13537.09
636.9408, 13540.43
637.4229, 13496.50
637.9050, 13447.73
638.3871, 13423.31
638.8693, 13426.07
639.3514, 13431.69
639.8335, 13438.28
640.3156, 13448.48
640.7977, 13469.55
641.2798, 13498.80
641.7620, 13523.54
642.2441, 13542.02
642.7262, 13551.18
643.2083, 13542.75
643.6904, 13520.95
644.1725, 13499.69
644.6547, 13477.87
645.1368, 13464.99
645.6189, 13473.24
646.1010, 13505.63
646.5831, 13521.16
647.0652, 13492.45
647.5474, 13462.28
648.0295, 13455.61
648.5116, 13483.00
648.9937, 13505.79
649.4758, 13524.57
649.9579, 13537.27
650.4401, 13536.45
650.9222, 13523.05
651.4043, 13521.75
651.8864, 13546.00
652.3685, 13576.29
652.8506, 13583.03
653.3328, 13569.04
653.8149, 13544.70
654.2970, 13490.96
654.7791, 13447.96
655.2612, 13453.98
655.7433, 13509.77
656.2255, 13557.78
656.7076, 13589.58
657.1897, 13601.38
657.6718, 13585.79
658.1539, 13522.05
658.6360, 13484.87
659.1182, 13478.61
659.6003, 13493.57
660.0824, 13527.43
660.5645, 13583.88
661.0466, 13611.56
661.5287, 13590.66
662.0108, 13551.17
662.4929, 13548.16
662.9750, 13574.57
663.4572, 13600.63
663.9393, 13610.59
664.4214, 13613.70
664.9035, 13618.17
665.3856, 13623.59
665.8677, 13626.20
666.3499, 13618.76
666.8320, 13612.24
667.3141, 13612.65
667.7962, 13621.38
668.2783, 13635.91
668.7604, 13662.63
669.2426, 13688.83
669.7247, 13700.28
670.2068, 13693.78
670.6889, 13694.64
671.1710, 13708.38
671.6531, 13726.17
672.1353, 13734.52
672.6174, 13734.13
673.0995, 13727.65
673.5816, 13705.59
674.0637, 13687.41
674.5458, 13702.63
675.0280, 13742.12
675.5101, 13770.30
675.9922, 13764.87
676.4743, 13748.58
676.9564, 13729.15
677.4385, 13704.90
677.9207, 13695.87
678.4028, 13712.66
678.8849, 13733.67
679.3670, 13747.06
679.8491, 13754.65
680.3312, 13742.63
680.8134, 13703.49
681.2955, 13662.69
681.7776, 13658.75
682.2597, 13684.15
682.7418, 13702.13
683.2239, 13696.95
683.7061, 13690.72
684.1882, 13718.62
684.6703, 13764.20
685.1524, 13788.97
685.6345, 13756.83
686.1166, 13717.86
686.5988, 13686.42
687.0809, 13664.37
687.5630, 13668.86
688.0451, 13723.75
688.5272, 13775.89
689.0093, 13800.16
689.4915, 13793.42
689.9736, 13795.68
690.4557, 13808.99
690.9378, 13824.66
691.4199, 13832.49
691.9020, 13835.65
692.3842, 13846.47
692.8663, 13867.97
693.3484, 13892.83
693.8305, 13922.40
694.3126, 13948.75
694.7947, 13959.57
695.2769, 13928.88
695.7590, 13904.61
696.2411, 13904.18
696.7232, 13922.08
697.2053, 13944.40
697.6874, 13983.55
698.1696, 14005.94
698.6517, 13996.34
699.1338, 13960.37
699.6159, 13942.06
700.0980, 13942.85
700.5801, 13952.37
701.0623, 13972.79
701.5444, 13996.51
702.0265, 13995.95
702.5086, 13969.73
702.9907, 13950.64
703.4728, 13978.69
703.9550, 14019.89
704.4371, 14037.20
704.9192, 14012.97
705.4013, 13989.36
705.8834, 13984.30
706.3655, 13983.03
706.8477, 13965.49
707.3298, 13912.57
707.8119, 13883.70
708.2940, 13893.13
708.7761, 13924.22
709.2582, 13942.99
709.7404, 13949.36
710.2225, 13947.06
710.7046, 13929.01
711.1867, 13909.68
711.6688, 13924.72
712.1509, 13965.58
712.6331, 13992.29
713.1152, 13955.48
713.5973, 13916.86
714.0794, 13928.95
714.5615, 14000.10
715.0436, 14041.95
715.5258, 14001.13
716.0079, 13955.84
716.4900, 13949.03
716.9721, 13997.05
717.4542, 14019.94
717.9363, 14011.33
718.4185, 13992.46
718.9006, 13987.50
719.3827, 13993.75
719.8648, 13994.13
720.3469, 13983.96
720.8290, 13972.38
721.3112, 13964.40
721.7933, 13963.19
722.2754, 13974.37
722.7575, 14027.37
723.2396, 14064.95
723.7217, 14052.79
724.2039, 14007.85
724.6860, 13985.70
725.1681, 14003.80
725.6502, 14020.80
726.1323, 14025.04
726.6144, 14018.33
727.0966, 14011.94
727.5787, 14005.20
728.0608, 14003.76
728.5429, 14017.19
729.0250, 14036.85
729.5071, 14039.90
729.9893, 14026.01
730.4714, 14016.25
730.9535, 14026.75
731.4356, 14047.09
731.9177, 14073.04
732.3998, 14114.45
732.8820, 14129.23
733.3641, 14078.81
733.8462, 14018.50
734.3283, 13995.80
734.8104, 14025.23
735.2925, 14044.98
735.7747, 14049.21
736.2568, 14044.02
736.7389, 14032.24
737.2210, 14017.07
737.7031, 14018.42
738.1852, 14052.54
738.6674, 14090.48
739.1495, 14095.29
739.6316, 14080.12
740.1137, 14076.03
740.5958, 14119.47
741.0779, 14152.03
741.5601, 14144.76
742.0422, 14101.74
742.5243, 14065.38
743.0064, 14027.15
743.4885, 14010.81
743.9706, 14034.20
744.4528, 14091.58
744.9349, 14120.53
745.4170, 14119.48
745.8991, 14115.98
746.3812, 14134.14
746.8633, 14162.50
747.3455, 14185.58
747.8276, 14202.57
748.3097, 14206.47
748.7918, 14167.69
749.2739, 14130.07
749.7560, 14134.95
750.2382, 14230.36
750.7203, 14281.37
751.2024, 14263.28
751.6845, 14219.50
752.1666, 14195.91
752.6487, 14195.70
753.1309, 14187.82
753.6130, 14162.83
754.0951, 14140.99
754.5772, 14165.72
755.0593, 14219.58
755.5414, 14252.88
756.0236, 14235.29
756.5057, 14205.70
756.9878, 14185.39
757.4699, 14173.63
757.9520, 14169.76
758.4341, 14178.09
758.9163, 14189.50
759.3984, 14205.67
759.8805, 14223.85
760.3626, 14228.48
760.8447, 14217.20
761.3268, 14203.20
761.8090, 14188.55
762.2911, 14177.02
762.7732, 14188.49
763.2553, 14220.26
763.7374, 14243.25
764.2195, 14230.37
764.7017, 14204.08
765.1838, 14180.22
765.6659, 14159.66
766.1480, 14153.32
766.6301, 14166.26
767.1122, 14193.09
767.5944, 14237.07
768.0765, 14314.15
768.5586, 14337.97
769.0407, 14291.15
769.5228, 14232.96
770.0049, 14221.63
770.4871, 14249.51
770.9692, 14283.81
771.4513, 14323.58
771.9334, 14352.99
772.4155, 14350.14
772.8976, 14330.10
773.3798, 14313.23
773.8619, 14303.43
774.3440, 14299.53
774.8261, 14308.35
775.3082, 14320.12
775.7903, 14319.46
776.2725, 14299.59
776.7546, 14283.42
777.2367, 14272.66
777.7188, 14269.88
778.2009, 14284.26
778.6830, 14313.57
779.1652, 14343.16
779.6473, 14371.42
780.1294, 14393.09
780.6115, 14402.43
781.0936, 14400.70
781.5757, 14390.99
782.0579, 14355.01
782.5400, 14331.46
783.0221, 14347.24
783.5042, 14392.50
783.9863, 14411.23
784.4684, 14395.56
784.9506, 14372.76
785.4327, 14354.77
785.9148, 14339.17
786.3969, 14304.42
786.8790, 14252.83
787.3611, 14226.90
787.8433, 14282.46
788.3254, 14362.57
788.8075, 14408.08
789.2896, 14414.01
789.7717, 14417.28
790.2538, 14438.49
790.7360, 14454.32
791.2181, 14447.86
791.7002, 14411.32
792.1823, 14395.01
792.6644, 14403.75
793.1465, 14421.79
793.6287, 14440.10
794.1108, 14457.04
794.5929, 14461.66
795.0750, 14452.04
795.5571, 14438.20
796.0392, 14422.37
796.5214, 14410.38
797.0035, 14410.05
797.4856, 14426.71
797.9677, 14445.54
798.4498, 14474.06
798.9319, 14496.09
799.4141, 14492.78
799.8962, 14454.85
800.3783, 14424.55
800.8604, 14406.47
801.3425, 14395.21
801.8246, 14378.08
802.3068, 14360.33
802.7889, 14363.52
803.2710, 14404.50
803.7531, 14446.07
804.2352, 14459.03
804.7173, 14452.45
805.1995, 14440.69
805.6816, 14411.51
806.1637, 14398.69
806.6458, 14418.63
807.1279, 14452.65
807.6100, 14456.35
808.0922, 14421.62
808.5743, 14406.90
809.0564, 14436.84
809.5385, 14483.46
810.0206, 14486.07
810.5027, 14457.25
810.9849, 14441.55
811.4670, 14471.95
811.9491, 14511.53
812.4312, 14553.04
812.9133, 14588.13
813.3954, 14584.69
813.8776, 14494.53
814.3597, 14422.78
814.8418, 14397.52
815.3239, 14411.79
815.8060, 14435.80
816.2881, 14470.13
816.7703, 14501.97
817.2524, 14531.70
817.7345, 14551.51
818.2166, 14540.27
818.6987, 14503.82
819.1808, 14472.18
819.6630, 14456.43
820.1451, 14453.59
820.6272, 14465.42
821.1093, 14492.36
821.5914, 14518.16
822.0735, 14541.72
822.5557, 14566.75
823.0378, 14602.74
823.5199, 14644.50
824.0020, 14637.26
824.4841, 14581.45
824.9662, 14534.98
825.4483, 14549.99
825.9304, 14590.42
826.4125, 14616.31
826.8947, 14624.97
827.3768, 14630.31
827.8589, 14636.92
828.3410, 14641.96
828.8231, 14644.05
829.3052, 14643.05
829.7874, 14638.85
830.2695, 14628.58
830.7516, 14624.87
831.2337, 14650.26
831.7158, 14689.64
832.1979, 14690.80
832.6801, 14650.12
833.1622, 14602.93
833.6443, 14561.02
834.1264, 14533.74
834.6085, 14532.63
835.0906, 14568.91
835.5728, 14594.77
836.0549, 14607.27
836.5370, 14608.40
837.0191, 14592.98
837.5012, 14558.27
837.9833, 14553.35
838.4655, 14583.01
838.9476, 14622.54
839.4297, 14654.89
839.9118, 14678.59
840.3939, 14691.65
840.8760, 14693.62
841.3582, 14684.16
841.8403, 14646.68
842.3224, 14607.95
842.8045, 14591.69
843.2866, 14606.82
843.7687, 14621.81
844.2509, 14639.29
844.7330, 14650.89
845.2151, 14646.74
845.6972, 14628.85
846.1793, 14602.01
846.6614, 14563.77
847.1436, 14539.66
847.6257, 14566.60
848.1078, 14613.09
848.5899, 14643.81
849.0720, 14649.52
849.5541, 14644.78
850.0363, 14623.01
850.5184, 14600.12
851.0005, 14592.48
851.4826, 14602.77
851.9647, 14602.04
852.4468, 14584.07
852.9290, 14570.34
853.4111, 14595.95
853.8932, 14640.25
854.3753, 14663.80
854.8574, 14652.32
855.3395, 14637.32
855.8217, 14623.80
856.3038, 14619.43
856.7859, 14635.00
857.2680, 14689.70
857.7501, 14718.31
858.2322, 14712.65
858.7144, 14694.77
859.1965, 14693.21
859.6786, 14703.36
860.1607, 14699.99
860.6428, 14676.90
861.1249, 14651.51
861.6071, 14628.92
862.0892, 14616.73
862.5713, 14625.39
863.0534, 14679.79
863.5355, 14712.29
864.0176, 14708.87
864.4998, 14690.41
864.9819, 14673.84
865.4640, 14658.42
865.9461, 14657.62
866.4282, 14675.22
866.9103, 14695.91
867.3925, 14706.44
867.8746, 14707.30
868.3567, 14695.69
868.8388, 14661.22
869.3209, 14643.34
869.8030, 14677.36
870.2852, 14723.08
870.7673, 14740.47
871.2494, 14720.07
871.7315, 14697.25
872.2136, 14670.30
872.6957, 14650.13
873.1779, 14656.00
873.6600, 14678.83
874.1421, 14688.47
874.6242, 14676.83
875.1063, 14668.65
875.5884, 14687.21
876.0706, 14714.32
876.5527, 14731.15
877.0348, 14719.22
877.5169, 14731.15
877.9990, 14786.55
878.4811, 14837.16
878.9633, 14825.15
879.4454, 14756.98
879.9275, 14716.80
880.4096, 14713.46
880.8917, 14724.79
881.3738, 14736.79
881.8560, 14749.16
882.3381, 14761.58
882.8202, 14774.17
883.3023, 14787.84
883.7844, 14812.75
884.2665, 14830.39
884.7487, 14825.35
885.2308, 14794.17
885.7129, 14765.79
886.1950, 14739.05
886.6771, 14724.49
887.1592, 14736.26
887.6414, 14764.38
888.1235, 14797.82
888.6056, 14836.44
889.0877, 14863.24
889.5698, 14860.23
890.0519, 14850.16
890.5341, 14847.83
891.0162, 14854.44
891.4983, 14864.99
891.9804, 14882.63
892.4625, 14893.15
892.9446, 14875.76
893.4268, 14844.29
893.9089, 14835.95
894.3910, 14852.73
894.8731, 14875.24
895.3552, 14899.64
895.8373, 14919.57
896.3195, 14933.98
896.8016, 14944.07
897.2837, 14927.30
897.7658, 14865.49
898.2479, 14814.97
898.7300, 14813.21
899.2122, 14850.85
899.6943, 14886.68
900.1764, 14920.05
900.6585, 14945.27
901.1406, 14956.97
901.6227, 14959.77
902.1049, 14951.68
902.5870, 14933.64
903.0691, 14929.14
903.5512, 14954.27
904.0333, 14970.33
904.5154, 14958.98
904.9976, 14926.31
905.4797, 14905.45
905.9618, 14895.92
906.4439, 14892.69
906.9260, 14883.95
907.4081, 14886.51
907.8903, 14932.90
908.3724, 15008.91
908.8545, 15055.85
909.3366, 15035.91
909.8187, 15009.04
910.3008, 14987.75
910.7830, 14970.64
911.2651, 14949.99
911.7472, 14925.88
912.2293, 14912.26
912.7114, 14923.83
913.1935, 14938.13
913.6757, 14916.24
914.1578, 14874.82
914.6399, 14852.01
915.1220, 14875.58
915.6041, 14903.36
916.0862, 14931.23
916.5684, 14954.39
917.0505, 14960.28
917.5326, 14946.49
918.0147, 14937.41
918.4968, 14938.65
918.9789, 14945.60
919.4611, 14951.50
919.9432, 14958.31
920.4253, 14970.82
920.9074, 15001.04
921.3895, 15019.69
921.8716, 15000.18
922.3538, 14974.28
922.8359, 14980.72
923.3180, 15028.49
923.8001, 15064.21
924.2822, 15081.43
924.7643, 15092.06
925.2465, 15108.24
925.7286, 15128.55
926.2107, 15151.00
926.6928, 15176.36
927.1749, 15199.20
927.6570, 15213.62
928.1392, 15227.33
928.6213, 15248.28
929.1034, 15282.28
929.5855, 15297.68
930.0676, 15292.14
930.5497, 15276.96
931.0319, 15254.08
931.5140, 15230.97
931.9961, 15224.63
932.4782, 15236.42
932.9603, 15251.41
933.4424, 15267.48
933.9246, 15280.12
934.4067, 15285.58
934.8888, 15284.05
935.3709, 15285.64
935.8530, 15292.33
936.3351, 15294.64
936.8173, 15285.43
937.2994, 15268.35
937.7815, 15249.85
938.2636, 15230.62
938.7457, 15214.56
939.2278, 15197.62
939.7100, 15190.01
940.1921, 15207.52
940.6742, 15239.92
941.1563, 15246.47
941.6384, 15221.42
942.1205, 15191.42
942.6027, 15163.73
943.0848, 15136.87
943.5669, 15102.62
944.0490, 15066.87
944.5311, 15045.32
945.0132, 15064.59
945.4954, 15077.20
945.9775, 15049.13
946.4596, 15007.60
946.9417, 15003.02
947.4238, 15053.03
947.9059, 15077.06
948.3881, 15061.53
948.8702, 15025.48
949.3523, 14978.05
949.8344, 14932.67
950.3165, 14922.79
950.7986, 14965.33
951.2808, 15011.62
951.7629, 15058.13
952.2450, 15085.85
952.7271, 15073.95
953.2092, 15001.12
953.6913, 14970.46
954.1735, 14990.45
954.6556, 15018.17
955.1377, 15013.37
955.6198, 14989.88
956.1019, 14967.87
956.5840, 14949.33
957.0662, 14949.04
957.5483, 14991.59
958.0304, 15038.38
958.5125, 15072.68
958.9946, 15093.65
959.4767, 15087.98
959.9589, 15050.37
960.4410, 15020.71
960.9231, 15030.99
961.4052, 15056.07
961.8873, 15050.19
962.3694, 15020.74
962.8516, 14993.06
963.3337, 14968.23
963.8158, 14958.95
964.2979, 14979.20
964.7800, 15014.53
965.2621, 15032.22
965.7443, 15030.63
966.2264, 15023.93
966.7085, 15011.57
967.1906, 15004.55
967.6727, 15027.67
968.1548, 15063.50
968.6370, 15081.55
969.1191, 15057.03
969.6012, 15040.96
970.0833, 15051.00
970.5654, 15067.89
971.0475, 15075.28
971.5297, 15073.20
972.0118, 15058.61
972.4939, 15029.10
972.9760, 15007.20
973.4581, 15025.89
973.9402, 15056.78
974.4224, 15065.57
974.9045, 15044.84
975.3866, 15029.40
975.8687, 15027.51
976.3508, 15028.96
976.8329, 15028.16
977.3151, 15026.01
977.7972, 15032.21
978.2793, 15046.47
978.7614, 15064.78
979.2435, 15099.40
979.7256, 15125.19
980.2078, 15114.99
980.6899, 15076.71
981.1720, 15041.04
981.6541, 14998.38
982.1362, 14986.14
982.6183, 15023.92
983.1005, 15082.51
983.5826, 15096.49
984.0647, 15074.87
984.5468, 15056.93
985.0289, 15052.80
985.5110, 15059.85
985.9932, 15094.94
986.4753, 15131.64
986.9574, 15132.28
987.4395, 15060.91
987.9216, 15036.90
988.4037, 15077.42
988.8859, 15123.99
989.3680, 15114.47
989.8500, 15067.36
990.3322, 15024.80
990.8143, 14990.56
991.2964, 14973.79
991.7785, 14989.40
992.2606, 15015.38
992.7427, 15045.02
993.2249, 15077.02
993.7070, 15077.21
994.1891, 15036.92
994.6712, 15016.54
995.1533, 15066.78
995.6354, 15138.11
996.1176, 15138.20
996.5997, 15088.57
997.0818, 15050.32
997.5639, 15056.61
998.0460, 15065.76
998.5281, 15067.69
999.0103, 15066.30
999.4924, 15066.18
999.9745, 15067.39
1000.457, 15083.41
1000.939, 15123.95
1001.421, 15152.08
1001.903, 15101.77
1002.385, 15030.37
1002.867, 15012.32
1003.349, 15090.42
1003.831, 15136.96
1004.314, 15129.01
1004.796, 15109.68
1005.278, 15115.79
1005.760, 15139.68
1006.242, 15110.40
1006.724, 15032.14
1007.206, 14985.62
1007.688, 15067.91
1008.170, 15160.19
1008.653, 15181.10
1009.135, 15136.05
1009.617, 15098.76
1010.099, 15067.19
1010.581, 15055.85
1011.063, 15077.59
1011.545, 15109.60
1012.027, 15110.95
1012.510, 15088.34
1012.992, 15055.80
1013.474, 15001.04
1013.956, 14967.26
1014.438, 14999.95
1014.920, 15042.03
1015.402, 15026.12
1015.884, 14937.79
1016.366, 14906.86
1016.849, 14944.58
1017.331, 14996.35
1017.813, 15008.82
1018.295, 15007.63
1018.777, 15025.23
1019.259, 15064.42
1019.741, 15099.65
1020.223, 15138.26
1020.706, 15152.45
1021.188, 15121.46
1021.670, 15061.35
1022.152, 15042.66
1022.634, 15059.88
1023.116, 15073.92
1023.598, 15060.45
1024.080, 15045.63
1024.563, 15051.51
1025.045, 15066.86
1025.527, 15068.46
1026.009, 15042.99
1026.491, 15040.16
1026.973, 15069.08
1027.455, 15108.18
1027.937, 15138.74
1028.419, 15158.29
1028.901, 15152.60
1029.384, 15115.78
1029.866, 15101.04
1030.348, 15161.58
1030.830, 15221.36
1031.312, 15243.26
1031.794, 15228.34
1032.276, 15184.85
1032.758, 15112.42
1033.241, 15054.34
1033.723, 15035.49
1034.205, 15042.89
1034.687, 15077.09
1035.169, 15126.67
1035.651, 15162.28
1036.133, 15175.73
1036.615, 15177.40
1037.098, 15164.30
1037.580, 15146.23
1038.062, 15138.55
1038.544, 15138.24
1039.026, 15138.00
1039.508, 15138.66
1039.990, 15124.65
1040.472, 15058.88
1040.954, 14997.27
1041.437, 14981.60
1041.919, 15013.20
1042.401, 15059.26
1042.883, 15122.62
1043.365, 15176.06
1043.847, 15203.56
1044.329, 15210.70
1044.811, 15193.85
1045.293, 15162.85
1045.776, 15147.14
1046.258, 15182.63
1046.740, 15197.06
1047.222, 15174.15
1047.704, 15131.86
1048.186, 15090.62
1048.668, 15054.25
1049.150, 15050.01
1049.633, 15087.33
1050.115, 15127.34
1050.597, 15139.28
1051.079, 15143.28
1051.561, 15160.83
1052.043, 15195.93
1052.525, 15201.73
1053.007, 15171.54
1053.490, 15141.04
1053.972, 15126.47
1054.454, 15127.38
1054.936, 15155.03
1055.418, 15198.54
1055.900, 15224.85
1056.382, 15220.25
1056.864, 15196.11
1057.346, 15139.13
1057.828, 15081.29
1058.311, 15075.93
1058.793, 15118.36
1059.275, 15178.55
1059.757, 15257.95
1060.239, 15304.80
1060.721, 15247.79
1061.203, 15162.73
1061.685, 15115.35
1062.168, 15113.18
1062.650, 15107.84
1063.132, 15097.35
1063.614, 15091.07
1064.096, 15093.72
1064.578, 15103.51
1065.060, 15128.46
1065.542, 15158.08
1066.025, 15163.65
1066.507, 15105.87
1066.989, 15061.77
1067.471, 15049.46
1067.953, 15049.86
1068.435, 15033.37
1068.917, 15004.04
1069.399, 14995.53
1069.881, 15013.43
1070.364, 15038.94
1070.846, 15074.72
1071.328, 15100.05
1071.810, 15090.72
1072.292, 15047.12
1072.774, 15023.63
1073.256, 15021.22
1073.738, 15036.64
1074.220, 15079.73
1074.703, 15126.30
1075.185, 15134.70
1075.667, 15117.17
1076.149, 15099.36
1076.631, 15079.59
1077.113, 15074.01
1077.595, 15086.77
1078.077, 15108.27
1078.559, 15131.25
1079.042, 15154.54
1079.524, 15173.62
1080.006, 15188.20
1080.488, 15191.95
1080.970, 15163.84
1081.452, 15139.53
1081.934, 15153.13
1082.416, 15192.70
1082.899, 15192.44
1083.381, 15147.14
1083.863, 15110.98
1084.345, 15100.95
1084.827, 15110.10
1085.309, 15149.99
1085.791, 15196.09
1086.273, 15209.11
1086.755, 15154.61
1087.238, 15116.47
1087.720, 15100.13
1088.202, 15094.30
1088.684, 15084.72
1089.166, 15078.82
1089.648, 15107.85
1090.130, 15167.60
1090.612, 15221.95
1091.094, 15265.41
1091.577, 15283.13
1092.059, 15249.45
1092.541, 15195.34
1093.023, 15197.85
1093.505, 15255.42
1093.987, 15287.25
1094.469, 15270.91
1094.951, 15247.88
1095.434, 15258.61
1095.916, 15280.67
1096.398, 15290.34
1096.880, 15282.63
1097.362, 15279.15
1097.844, 15280.36
1098.326, 15284.64
1098.808, 15293.65
1099.291, 15303.40
1099.773, 15302.08
1100.255, 15295.04
1100.737, 15297.05
1101.219, 15336.74
1101.701, 15350.17
1102.183, 15314.31
1102.665, 15268.07
1103.147, 15268.66
1103.630, 15304.50
1104.112, 15313.21
1104.594, 15287.89
1105.076, 15267.49
1105.558, 15279.78
1106.040, 15301.64
1106.522, 15325.12
1107.004, 15347.07
1107.486, 15350.18
1107.969, 15334.33
1108.451, 15310.08
1108.933, 15277.60
1109.415, 15246.25
1109.897, 15225.77
1110.379, 15213.08
1110.861, 15203.85
1111.343, 15190.92
1111.826, 15201.96
1112.308, 15246.25
1112.790, 15286.49
1113.272, 15292.96
1113.754, 15276.21
1114.236, 15237.94
1114.718, 15190.32
1115.200, 15184.78
1115.682, 15309.56
1116.165, 15384.75
1116.647, 15353.83
1117.129, 15278.34
1117.611, 15268.66
1118.093, 15309.30
1118.575, 15326.69
1119.057, 15306.06
1119.539, 15285.00
1120.021, 15292.22
1120.504, 15301.54
1120.986, 15297.80
1121.468, 15281.24
1121.950, 15247.38
1122.432, 15196.37
1122.914, 15164.55
1123.396, 15173.57
1123.878, 15201.04
1124.361, 15246.04
1124.843, 15289.07
1125.325, 15295.48
1125.807, 15248.99
1126.289, 15202.07
1126.771, 15150.42
1127.253, 15119.66
1127.735, 15154.18
1128.218, 15211.08
1128.700, 15218.36
1129.182, 15182.16
1129.664, 15160.76
1130.146, 15188.33
1130.628, 15202.97
1131.110, 15188.95
1131.592, 15162.96
1132.074, 15154.88
1132.557, 15158.81
1133.039, 15155.34
1133.521, 15137.78
1134.003, 15131.49
1134.485, 15168.27
1134.967, 15198.21
1135.449, 15192.88
1135.931, 15157.95
1136.413, 15126.53
1136.896, 15100.03
1137.378, 15086.51
1137.860, 15102.40
1138.342, 15114.84
1138.824, 15089.24
1139.306, 15056.73
1139.788, 15059.98
1140.270, 15108.93
1140.753, 15143.35
1141.235, 15161.64
1141.717, 15171.96
1142.199, 15184.61
1142.681, 15189.57
1143.163, 15168.36
1143.645, 15128.39
1144.127, 15110.68
1144.609, 15125.47
1145.092, 15135.93
1145.574, 15134.57
1146.056, 15127.61
1146.538, 15112.31
1147.020, 15101.65
1147.502, 15126.50
1147.984, 15201.15
1148.466, 15227.80
1148.948, 15166.20
1149.431, 15110.36
1149.913, 15102.34
1150.395, 15124.32
1150.877, 15134.31
1151.359, 15135.33
1151.841, 15136.07
1152.323, 15142.35
1152.805, 15143.40
1153.288, 15123.96
1153.770, 15112.13
1154.252, 15138.19
1154.734, 15196.45
1155.216, 15229.66
1155.698, 15238.58
1156.180, 15237.73
1156.662, 15222.22
1157.145, 15213.35
1157.627, 15244.45
1158.109, 15278.56
1158.591, 15237.43
1159.073, 15121.85
1159.555, 15066.96
1160.037, 15095.54
1160.519, 15137.80
1161.001, 15129.99
1161.484, 15118.30
1161.966, 15151.79
1162.448, 15222.28
1162.930, 15247.53
1163.412, 15222.26
1163.894, 15199.76
1164.376, 15200.90
1164.858, 15202.47
1165.340, 15165.66
1165.823, 15119.04
1166.305, 15100.27
1166.787, 15118.21
1167.269, 15153.21
1167.751, 15211.55
1168.233, 15258.79
1168.715, 15265.74
1169.197, 15254.36
1169.680, 15267.55
1170.162, 15289.69
1170.644, 15282.69
1171.126, 15195.58
1171.608, 15150.75
1172.090, 15167.62
1172.572, 15196.26
1173.054, 15178.15
1173.536, 15138.44
1174.019, 15131.27
1174.501, 15155.71
1174.983, 15176.99
1175.465, 15185.37
1175.947, 15182.92
1176.429, 15158.96
1176.911, 15139.24
1177.393, 15192.26
1177.875, 15283.67
1178.358, 15312.59
1178.840, 15253.16
1179.322, 15196.20
1179.804, 15175.68
1180.286, 15173.14
1180.768, 15186.37
1181.250, 15208.88
1181.732, 15221.83
1182.215, 15224.10
1182.697, 15207.98
1183.179, 15154.29
1183.661, 15117.28
1184.143, 15134.61
1184.625, 15169.76
1185.107, 15202.90
1185.589, 15232.86
1186.072, 15214.26
1186.554, 15154.35
1187.036, 15122.32
1187.518, 15196.33
1188.000, 15267.68
1188.482, 15271.08
1188.964, 15241.61
1189.446, 15225.90
1189.928, 15224.12
1190.411, 15230.51
1190.893, 15244.99
1191.375, 15251.86
1191.857, 15222.04
1192.339, 15196.14
1192.821, 15210.67
1193.303, 15252.04
1193.785, 15279.31
1194.267, 15293.01
1194.750, 15280.93
1195.232, 15235.68
1195.714, 15193.73
1196.196, 15193.92
1196.678, 15210.32
1197.160, 15224.34
1197.642, 15233.95
1198.124, 15221.09
1198.607, 15180.86
1199.089, 15163.96
1199.571, 15199.10
1200.053, 15239.78
1200.535, 15224.31
1201.017, 15189.14
1201.499, 15183.13
1201.981, 15220.27
1202.464, 15233.38
1202.946, 15216.96
1203.428, 15208.88
1203.910, 15241.63
1204.392, 15283.96
1204.874, 15304.97
1205.356, 15306.97
1205.838, 15291.36
1206.320, 15243.16
1206.802, 15224.39
1207.285, 15243.64
1207.767, 15261.47
1208.249, 15229.72
1208.731, 15187.76
1209.213, 15194.41
1209.695, 15237.67
1210.177, 15257.54
1210.659, 15231.28
1211.142, 15228.58
1211.624, 15264.89
1212.106, 15301.91
1212.588, 15293.90
1213.070, 15260.82
1213.552, 15219.44
1214.034, 15173.55
1214.516, 15162.86
1214.999, 15198.80
1215.481, 15248.24
1215.963, 15315.51
1216.445, 15364.85
1216.927, 15311.18
1217.409, 15219.50
1217.891, 15193.67
1218.373, 15265.36
1218.855, 15300.11
1219.338, 15276.87
1219.820, 15246.88
1220.302, 15226.38
1220.784, 15218.42
1221.266, 15242.04
1221.748, 15278.03
1222.230, 15291.46
1222.712, 15266.98
1223.194, 15230.38
1223.677, 15170.39
1224.159, 15132.94
1224.641, 15169.50
1225.123, 15231.47
1225.605, 15217.08
1226.087, 15155.50
1226.569, 15115.43
1227.051, 15128.47
1227.534, 15150.21
1228.016, 15184.59
1228.498, 15214.07
1228.980, 15221.00
1229.462, 15214.50
1229.944, 15203.07
1230.426, 15191.50
1230.908, 15197.94
1231.391, 15249.35
1231.873, 15278.51
1232.355, 15274.41
1232.837, 15257.97
1233.319, 15253.98
1233.801, 15253.81
1234.283, 15243.12
1234.765, 15221.46
1235.247, 15196.58
1235.729, 15158.73
1236.212, 15143.97
1236.694, 15165.83
1237.176, 15198.79
1237.658, 15206.32
1238.140, 15201.06
1238.622, 15202.98
1239.104, 15215.01
1239.586, 15226.00
1240.068, 15236.21
1240.551, 15237.52
1241.033, 15218.36
1241.515, 15205.35
1241.997, 15268.89
1242.479, 15355.67
1242.961, 15376.03
1243.443, 15289.53
1243.925, 15247.00
1244.408, 15268.48
1244.890, 15292.62
1245.372, 15289.19
1245.854, 15275.08
1246.336, 15280.47
1246.818, 15293.57
1247.300, 15294.19
1247.782, 15273.77
1248.265, 15248.00
1248.747, 15211.75
1249.229, 15190.44
1249.711, 15217.34
1250.193, 15254.77
1250.675, 15244.33
1251.157, 15205.73
1251.639, 15180.15
1252.121, 15171.10
1252.604, 15183.85
1253.086, 15222.73
1253.568, 15262.76
1254.050, 15290.50
1254.532, 15304.61
1255.014, 15302.61
1255.496, 15285.98
1255.978, 15256.25
1256.460, 15205.57
1256.943, 15174.97
1257.425, 15168.91
1257.907, 15178.22
1258.389, 15217.86
1258.871, 15250.02
1259.353, 15224.17
1259.835, 15156.58
1260.317, 15125.13
1260.800, 15135.37
1261.282, 15158.57
1261.764, 15193.23
1262.246, 15219.59
1262.728, 15214.01
1263.210, 15195.63
1263.692, 15172.41
1264.174, 15149.88
1264.656, 15154.73
1265.139, 15188.81
1265.621, 15205.10
1266.103, 15190.04
1266.585, 15173.96
1267.067, 15190.13
1267.549, 15209.19
1268.031, 15203.21
1268.513, 15178.86
1268.995, 15169.58
1269.478, 15175.03
1269.960, 15189.34
1270.442, 15216.68
1270.924, 15233.19
1271.406, 15214.40
1271.888, 15185.80
1272.370, 15163.17
1272.852, 15147.79
1273.335, 15149.11
1273.817, 15165.50
1274.299, 15188.57
1274.781, 15225.22
1275.263, 15242.75
1275.745, 15193.15
1276.227, 15149.64
1276.709, 15164.99
1277.192, 15225.70
1277.674, 15266.52
1278.156, 15286.82
1278.638, 15284.91
1279.120, 15238.11
1279.602, 15207.98
1280.084, 15216.16
1280.566, 15237.37
1281.048, 15258.36
1281.531, 15277.76
1282.013, 15294.66
1282.495, 15306.01
1282.977, 15301.22
1283.459, 15254.50
1283.941, 15226.85
1284.423, 15234.15
1284.905, 15241.53
1285.387, 15202.63
1285.870, 15149.84
1286.352, 15163.31
1286.834, 15224.22
1287.316, 15265.26
1287.798, 15256.79
1288.280, 15246.59
1288.762, 15236.58
1289.244, 15227.25
1289.727, 15216.81
1290.209, 15208.91
1290.691, 15211.76
1291.173, 15221.89
1291.655, 15224.24
1292.137, 15214.56
1292.619, 15208.29
1293.101, 15207.73
1293.583, 15206.00
1294.066, 15196.66
1294.548, 15183.23
1295.030, 15156.89
1295.512, 15130.14
1295.994, 15153.99
1296.476, 15240.35
1296.958, 15272.35
1297.440, 15231.26
1297.922, 15177.45
1298.405, 15147.79
1298.887, 15135.51
1299.369, 15146.67
1299.851, 15168.05
1300.333, 15164.23
1300.815, 15139.14
1301.297, 15142.92
1301.779, 15185.72
1302.262, 15218.58
1302.744, 15203.35
1303.226, 15176.42
1303.708, 15154.41
1304.190, 15135.33
1304.672, 15115.67
1305.154, 15098.82
##END=



