##NAMES=Kristiansenite
##RRUFFID=R090022
##IDEAL CHEMISTRY=Ca_2_Sc^3+^Sn^4+^(Si_2_O_7_)(Si_2_O_6_OH)
##LOCALITY=Heftetjern, TÃ¸rdal, Telemark, Norway
##OWNER=RRUFF
##SOURCE=William W. Pinch
##DESCRIPTION=Pale tan colored, tapering prismatic crystals, associated with albite and quartz
##STATUS=The identification of this mineral has been confirmed by single-crystal X-ray diffraction.
##URL=rruff.info/R090022
90.92609, 0.0000000E+00
91.40820, 94.41930
91.89032, 94.35872
92.37244, 94.78893
92.85455, 95.52153
93.33667, 95.43496
93.81879, 92.30418
94.30090, 87.50312
94.78302, 85.44020
95.26514, 88.28174
95.74725, 93.42973
96.22937, 94.38965
96.71149, 90.78970
97.19360, 87.12077
97.67572, 88.88496
98.15784, 95.93272
98.63995, 100.5551
99.12207, 99.68810
99.60419, 94.11087
100.0863, 90.83741
100.5684, 90.38857
101.0505, 91.20069
101.5327, 90.92723
102.0148, 88.81219
102.4969, 88.22495
102.9790, 91.02945
103.4611, 98.32051
103.9432, 102.5071
104.4253, 101.8081
104.9075, 98.94381
105.3896, 99.37584
105.8717, 104.4536
106.3538, 111.0123
106.8359, 118.0576
107.3180, 125.8297
107.8002, 133.5637
108.2823, 141.3956
108.7644, 149.2034
109.2465, 156.8540
109.7286, 162.9765
110.2107, 169.8268
110.6929, 178.4967
111.1750, 190.7730
111.6571, 202.8015
112.1392, 212.4518
112.6213, 220.5552
113.1034, 233.5655
113.5856, 254.8576
114.0677, 280.3745
114.5498, 306.9971
115.0319, 333.1062
115.5140, 361.3983
115.9961, 392.1487
116.4783, 425.3912
116.9604, 461.6976
117.4425, 503.6633
117.9246, 548.5579
118.4067, 592.9694
118.8888, 636.7869
119.3710, 679.4431
119.8531, 720.5654
120.3352, 759.9272
120.8173, 798.2678
121.2994, 837.9810
121.7815, 876.5432
122.2637, 909.7011
122.7458, 931.9477
123.2279, 949.1671
123.7100, 966.3603
124.1921, 983.8015
124.6742, 1002.274
125.1564, 1022.202
125.6385, 1043.681
126.1206, 1067.116
126.6027, 1091.403
127.0848, 1117.832
127.5669, 1148.873
128.0491, 1185.580
128.5312, 1225.583
129.0133, 1266.463
129.4954, 1307.810
129.9775, 1349.235
130.4596, 1391.488
130.9418, 1433.570
131.4239, 1473.000
131.9060, 1508.760
132.3881, 1542.216
132.8702, 1575.026
133.3523, 1607.168
133.8345, 1640.845
134.3166, 1678.912
134.7987, 1721.661
135.2808, 1762.976
135.7629, 1801.512
136.2450, 1838.223
136.7272, 1877.375
137.2093, 1920.121
137.6914, 1962.453
138.1735, 1999.632
138.6556, 2030.356
139.1377, 2061.475
139.6199, 2094.693
140.1020, 2129.721
140.5841, 2166.539
141.0662, 2203.755
141.5483, 2244.026
142.0304, 2290.216
142.5126, 2340.969
142.9947, 2399.055
143.4768, 2457.511
143.9589, 2511.669
144.4410, 2568.181
144.9231, 2628.376
145.4053, 2690.348
145.8874, 2752.075
146.3695, 2809.388
146.8516, 2871.903
147.3337, 2941.750
147.8158, 3023.167
148.2980, 3103.659
148.7801, 3179.727
149.2622, 3255.855
149.7443, 3338.958
150.2264, 3429.665
150.7085, 3528.091
151.1907, 3632.966
151.6728, 3747.037
152.1549, 3865.752
152.6370, 3990.340
153.1191, 4120.069
153.6012, 4249.992
154.0834, 4394.476
154.5655, 4527.478
155.0476, 4640.427
155.5297, 4734.825
156.0118, 4803.037
156.4939, 4844.344
156.9761, 4859.556
157.4582, 4848.812
157.9403, 4793.623
158.4224, 4724.974
158.9045, 4660.318
159.3866, 4599.610
159.8688, 4548.173
160.3509, 4504.829
160.8330, 4471.018
161.3151, 4453.988
161.7972, 4459.984
162.2793, 4481.575
162.7615, 4513.093
163.2436, 4554.258
163.7257, 4603.645
164.2078, 4662.147
164.6899, 4729.204
165.1720, 4801.223
165.6541, 4874.993
166.1363, 4953.284
166.6184, 5038.833
167.1005, 5134.334
167.5826, 5235.713
168.0647, 5339.622
168.5468, 5446.477
169.0290, 5562.713
169.5111, 5689.508
169.9932, 5828.570
170.4753, 5982.877
170.9574, 6154.104
171.4395, 6338.562
171.9217, 6535.856
172.4038, 6745.925
172.8859, 6965.353
173.3680, 7196.938
173.8501, 7434.881
174.3322, 7673.365
174.8144, 7922.699
175.2965, 8167.273
175.7786, 8390.629
176.2607, 8595.918
176.7428, 8760.243
177.2249, 8876.031
177.7071, 8935.923
178.1892, 8924.563
178.6713, 8814.627
179.1534, 8634.304
179.6355, 8418.613
180.1176, 8163.232
180.5998, 7902.047
181.0819, 7653.109
181.5640, 7422.603
182.0461, 7223.647
182.5282, 7067.028
183.0103, 6947.326
183.4925, 6855.478
183.9746, 6792.240
184.4567, 6754.182
184.9388, 6741.920
185.4209, 6753.407
185.9030, 6776.961
186.3852, 6809.488
186.8673, 6849.864
187.3494, 6896.615
187.8315, 6950.756
188.3136, 7007.288
188.7957, 7064.131
189.2779, 7120.376
189.7600, 7169.352
190.2421, 7207.395
190.7242, 7234.839
191.2063, 7252.593
191.6884, 7258.817
192.1706, 7259.551
192.6527, 7263.083
193.1348, 7269.308
193.6169, 7278.337
194.0990, 7291.332
194.5811, 7307.839
195.0633, 7324.107
195.5454, 7341.001
196.0275, 7355.455
196.5096, 7366.979
196.9917, 7377.505
197.4738, 7366.060
197.9560, 7326.562
198.4381, 7259.677
198.9202, 7149.673
199.4023, 6991.969
199.8844, 6797.130
200.3665, 6582.142
200.8487, 6342.683
201.3308, 6103.438
201.8129, 5872.655
202.2950, 5649.276
202.7771, 5448.322
203.2592, 5269.089
203.7414, 5110.909
204.2235, 4970.148
204.7056, 4847.734
205.1877, 4743.523
205.6698, 4658.993
206.1519, 4595.233
206.6341, 4543.167
207.1162, 4502.905
207.5983, 4474.196
208.0804, 4459.504
208.5625, 4462.767
209.0446, 4468.217
209.5268, 4468.662
210.0089, 4463.554
210.4910, 4455.922
210.9731, 4445.155
211.4552, 4432.406
211.9373, 4420.113
212.4195, 4407.753
212.9016, 4397.409
213.3837, 4389.071
213.8658, 4380.921
214.3479, 4381.927
214.8300, 4393.862
215.3121, 4414.066
215.7943, 4435.705
216.2764, 4456.704
216.7585, 4482.981
217.2406, 4518.150
217.7227, 4564.094
218.2048, 4611.426
218.6870, 4660.014
219.1691, 4709.752
219.6512, 4761.201
220.1333, 4813.308
220.6154, 4869.366
221.0975, 4932.403
221.5797, 5003.789
222.0618, 5076.619
222.5439, 5152.563
223.0260, 5229.103
223.5081, 5303.473
223.9902, 5377.935
224.4724, 5445.790
224.9545, 5503.612
225.4366, 5553.583
225.9187, 5590.359
226.4008, 5614.007
226.8829, 5624.859
227.3651, 5623.299
227.8472, 5606.674
228.3293, 5581.922
228.8114, 5551.309
229.2935, 5514.526
229.7757, 5472.980
230.2578, 5426.915
230.7399, 5376.281
231.2220, 5319.733
231.7041, 5255.381
232.1862, 5188.516
232.6684, 5121.401
233.1505, 5055.560
233.6326, 4984.060
234.1147, 4905.104
234.5968, 4821.302
235.0789, 4738.564
235.5611, 4655.901
236.0432, 4576.272
236.5253, 4499.154
237.0074, 4424.807
237.4895, 4356.410
237.9716, 4294.142
238.4538, 4237.745
238.9359, 4187.052
239.4180, 4141.919
239.9001, 4101.893
240.3822, 4066.799
240.8643, 4037.140
241.3465, 4011.529
241.8286, 3989.876
242.3107, 3972.305
242.7928, 3959.414
243.2749, 3953.424
243.7570, 3948.203
244.2392, 3941.909
244.7213, 3934.053
245.2034, 3927.901
245.6855, 3923.445
246.1676, 3920.666
246.6497, 3919.350
247.1319, 3918.538
247.6140, 3921.110
248.0961, 3928.364
248.5782, 3940.867
249.0603, 3953.476
249.5424, 3965.588
250.0246, 3978.562
250.5067, 3994.152
250.9888, 4013.149
251.4709, 4033.291
251.9530, 4054.356
252.4351, 4076.558
252.9173, 4098.315
253.3994, 4119.990
253.8815, 4141.023
254.3636, 4161.252
254.8457, 4181.487
255.3278, 4198.411
255.8100, 4211.380
256.2921, 4220.398
256.7742, 4226.234
257.2563, 4230.075
257.7384, 4229.138
258.2205, 4221.124
258.7026, 4205.603
259.1848, 4184.184
259.6669, 4157.725
260.1490, 4125.792
260.6311, 4085.183
261.1132, 4031.964
261.5953, 3976.801
262.0775, 3928.657
262.5596, 3889.562
263.0417, 3850.167
263.5238, 3807.921
264.0059, 3764.457
264.4880, 3725.890
264.9702, 3693.243
265.4523, 3663.875
265.9344, 3635.885
266.4165, 3608.128
266.8986, 3584.930
267.3807, 3566.580
267.8629, 3552.844
268.3450, 3542.931
268.8271, 3537.174
269.3092, 3534.274
269.7913, 3532.764
270.2734, 3531.717
270.7556, 3537.194
271.2377, 3550.251
271.7198, 3569.599
272.2019, 3592.817
272.6840, 3620.544
273.1661, 3650.261
273.6483, 3680.502
274.1304, 3710.827
274.6125, 3744.514
275.0946, 3781.818
275.5767, 3821.802
276.0588, 3862.812
276.5410, 3904.461
277.0231, 3948.066
277.5052, 3993.819
277.9873, 4041.867
278.4694, 4089.108
278.9515, 4135.292
279.4337, 4180.865
279.9158, 4227.001
280.3979, 4273.721
280.8800, 4318.667
281.3621, 4359.693
281.8442, 4397.376
282.3264, 4434.680
282.8085, 4471.109
283.2906, 4509.162
283.7727, 4553.569
284.2548, 4604.488
284.7369, 4652.391
285.2191, 4694.717
285.7012, 4731.800
286.1833, 4765.976
286.6654, 4797.071
287.1475, 4826.664
287.6296, 4856.412
288.1118, 4886.159
288.5939, 4912.917
289.0760, 4935.466
289.5581, 4954.872
290.0402, 4975.250
290.5223, 4996.767
291.0045, 5015.196
291.4866, 5029.235
291.9687, 5038.143
292.4508, 5038.392
292.9329, 5029.136
293.4150, 5011.292
293.8972, 4986.527
294.3793, 4954.744
294.8614, 4913.950
295.3435, 4861.522
295.8256, 4799.337
296.3077, 4732.631
296.7899, 4662.721
297.2720, 4588.289
297.7541, 4505.242
298.2362, 4416.067
298.7183, 4330.013
299.2004, 4252.038
299.6826, 4181.073
300.1647, 4112.969
300.6468, 4047.468
301.1289, 3987.017
301.6110, 3932.825
302.0931, 3885.319
302.5753, 3844.094
303.0574, 3810.428
303.5395, 3782.656
304.0216, 3760.076
304.5037, 3742.523
304.9858, 3727.756
305.4680, 3713.831
305.9501, 3701.399
306.4322, 3691.618
306.9143, 3685.813
307.3964, 3682.160
307.8785, 3678.900
308.3607, 3676.165
308.8428, 3674.757
309.3249, 3675.919
309.8070, 3678.466
310.2891, 3680.945
310.7712, 3682.490
311.2534, 3684.422
311.7355, 3687.190
312.2176, 3690.931
312.6997, 3696.226
313.1818, 3704.159
313.6639, 3713.173
314.1461, 3721.611
314.6282, 3727.450
315.1103, 3736.196
315.5924, 3749.830
316.0745, 3768.266
316.5566, 3791.646
317.0388, 3821.692
317.5209, 3855.319
318.0030, 3891.113
318.4851, 3928.820
318.9672, 3969.069
319.4493, 4013.297
319.9315, 4059.726
320.4136, 4106.623
320.8957, 4149.910
321.3778, 4196.380
321.8599, 4250.014
322.3420, 4311.604
322.8242, 4372.797
323.3063, 4431.719
323.7884, 4489.547
324.2705, 4547.310
324.7526, 4601.470
325.2347, 4659.975
325.7169, 4723.656
326.1990, 4792.788
326.6811, 4864.705
327.1632, 4943.737
327.6453, 5022.428
328.1274, 5096.576
328.6096, 5158.663
329.0917, 5225.926
329.5738, 5301.490
330.0559, 5382.233
330.5380, 5459.508
331.0201, 5532.700
331.5023, 5603.101
331.9844, 5670.866
332.4665, 5732.750
332.9486, 5798.780
333.4307, 5870.926
333.9128, 5945.880
334.3950, 6016.390
334.8771, 6081.485
335.3592, 6145.100
335.8413, 6208.120
336.3234, 6271.128
336.8055, 6330.397
337.2877, 6384.304
337.7698, 6435.814
338.2519, 6489.008
338.7340, 6544.036
339.2161, 6598.651
339.6982, 6653.010
340.1803, 6706.639
340.6624, 6753.474
341.1446, 6793.920
341.6267, 6828.012
342.1088, 6857.508
342.5909, 6882.320
343.0730, 6898.641
343.5551, 6906.214
344.0373, 6904.456
344.5194, 6892.623
345.0015, 6870.692
345.4836, 6836.534
345.9657, 6784.488
346.4478, 6717.549
346.9300, 6651.620
347.4121, 6586.764
347.8942, 6524.224
348.3763, 6462.936
348.8584, 6403.909
349.3405, 6351.176
349.8227, 6304.632
350.3048, 6266.122
350.7869, 6239.528
351.2690, 6224.972
351.7511, 6221.116
352.2332, 6228.145
352.7154, 6245.117
353.1975, 6270.174
353.6796, 6304.114
354.1617, 6344.371
354.6438, 6386.814
355.1259, 6432.252
355.6081, 6485.143
356.0902, 6550.086
356.5723, 6623.703
357.0544, 6702.929
357.5365, 6786.590
358.0186, 6874.573
358.5008, 6964.539
358.9829, 7058.458
359.4650, 7160.674
359.9471, 7278.610
360.4292, 7401.484
360.9113, 7522.875
361.3935, 7640.647
361.8756, 7760.147
362.3577, 7885.327
362.8398, 8012.777
363.3219, 8138.627
363.8040, 8272.540
364.2862, 8394.540
364.7683, 8500.613
365.2504, 8590.808
365.7325, 8660.670
366.2146, 8710.607
366.6967, 8740.187
367.1789, 8749.146
367.6610, 8750.518
368.1431, 8715.732
368.6252, 8640.556
369.1073, 8526.703
369.5894, 8383.575
370.0716, 8201.099
370.5537, 7998.472
371.0358, 7778.555
371.5179, 7535.528
372.0000, 7291.082
372.4821, 7044.334
372.9643, 6799.035
373.4464, 6560.249
373.9285, 6328.490
374.4106, 6105.849
374.8927, 5890.157
375.3748, 5680.850
375.8570, 5488.428
376.3391, 5312.847
376.8212, 5150.718
377.3033, 4998.289
377.7854, 4857.144
378.2675, 4720.069
378.7497, 4584.367
379.2318, 4452.627
379.7139, 4326.968
380.1960, 4208.405
380.6781, 4096.756
381.1602, 3995.418
381.6424, 3902.964
382.1245, 3810.009
382.6066, 3714.804
383.0887, 3621.485
383.5708, 3532.652
384.0529, 3449.111
384.5351, 3370.496
385.0172, 3298.292
385.4993, 3231.423
385.9814, 3165.639
386.4635, 3101.520
386.9456, 3039.476
387.4278, 2979.015
387.9099, 2921.935
388.3920, 2870.734
388.8741, 2827.781
389.3562, 2788.524
389.8383, 2748.483
390.3205, 2708.225
390.8026, 2670.508
391.2847, 2636.733
391.7668, 2606.113
392.2489, 2578.092
392.7310, 2553.073
393.2132, 2528.970
393.6953, 2503.249
394.1774, 2478.655
394.6595, 2458.352
395.1416, 2444.879
395.6237, 2434.646
396.1059, 2426.698
396.5880, 2420.997
397.0701, 2417.421
397.5522, 2415.281
398.0343, 2415.776
398.5164, 2419.626
398.9986, 2426.929
399.4807, 2437.615
399.9628, 2452.493
400.4449, 2470.679
400.9270, 2490.211
401.4091, 2510.234
401.8913, 2532.430
402.3734, 2557.435
402.8555, 2585.492
403.3376, 2614.832
403.8197, 2644.688
404.3018, 2676.702
404.7840, 2712.555
405.2661, 2752.496
405.7482, 2795.929
406.2303, 2843.738
406.7124, 2894.816
407.1945, 2946.672
407.6767, 2999.330
408.1588, 3052.428
408.6409, 3104.708
409.1230, 3156.297
409.6051, 3212.488
410.0872, 3274.148
410.5694, 3340.278
411.0515, 3410.097
411.5336, 3483.225
412.0157, 3555.441
412.4978, 3622.841
412.9799, 3688.807
413.4621, 3761.595
413.9442, 3841.704
414.4263, 3921.977
414.9084, 3995.969
415.3905, 4067.050
415.8727, 4142.512
416.3548, 4227.094
416.8369, 4312.304
417.3190, 4389.545
417.8011, 4461.412
418.2832, 4536.284
418.7654, 4619.030
419.2475, 4704.944
419.7296, 4789.091
420.2117, 4871.021
420.6938, 4955.741
421.1759, 5045.290
421.6581, 5138.266
422.1402, 5234.368
422.6223, 5336.432
423.1044, 5437.443
423.5865, 5536.813
424.0686, 5633.503
424.5508, 5723.842
425.0329, 5812.843
425.5150, 5890.126
425.9971, 5951.272
426.4792, 5995.773
426.9613, 6025.425
427.4435, 6040.958
427.9256, 6041.093
428.4077, 6023.026
428.8898, 5982.987
429.3719, 5932.175
429.8540, 5871.628
430.3362, 5802.119
430.8183, 5728.708
431.3004, 5649.960
431.7825, 5572.616
432.2646, 5501.889
432.7467, 5438.029
433.2289, 5378.071
433.7110, 5322.151
434.1931, 5271.011
434.6752, 5226.997
435.1573, 5189.848
435.6394, 5157.029
436.1216, 5126.053
436.6036, 5098.543
437.0858, 5079.890
437.5679, 5070.214
438.0500, 5063.491
438.5321, 5053.991
439.0142, 5043.929
439.4963, 5036.894
439.9785, 5033.280
440.4606, 5034.046
440.9427, 5041.081
441.4248, 5053.385
441.9069, 5067.893
442.3890, 5084.373
442.8712, 5101.799
443.3533, 5119.275
443.8354, 5136.418
444.3175, 5155.334
444.7996, 5176.826
445.2817, 5200.163
445.7639, 5224.742
446.2460, 5252.663
446.7281, 5279.386
447.2102, 5302.387
447.6923, 5322.532
448.1744, 5345.617
448.6566, 5374.837
449.1387, 5403.563
449.6208, 5428.720
450.1029, 5449.439
450.5850, 5469.577
451.0671, 5489.300
451.5493, 5507.990
452.0314, 5523.845
452.5135, 5535.494
452.9956, 5550.267
453.4777, 5571.870
453.9598, 5597.677
454.4420, 5616.102
454.9241, 5626.510
455.4062, 5634.295
455.8883, 5642.363
456.3704, 5650.891
456.8525, 5662.450
457.3347, 5678.932
457.8168, 5691.513
458.2989, 5688.582
458.7810, 5672.450
459.2631, 5650.049
459.7452, 5623.340
460.2274, 5592.203
460.7095, 5557.310
461.1916, 5518.147
461.6737, 5474.035
462.1558, 5424.006
462.6379, 5368.547
463.1201, 5306.953
463.6022, 5234.815
464.0843, 5165.126
464.5664, 5102.856
465.0485, 5046.288
465.5306, 4992.707
466.0128, 4940.898
466.4949, 4892.486
466.9770, 4847.790
467.4591, 4806.833
467.9412, 4771.662
468.4233, 4741.143
468.9055, 4717.040
469.3876, 4700.420
469.8697, 4693.778
470.3518, 4689.372
470.8339, 4686.952
471.3160, 4686.808
471.7982, 4690.234
472.2803, 4698.485
472.7624, 4705.327
473.2445, 4707.905
473.7266, 4707.167
474.2087, 4709.742
474.6909, 4716.159
475.1730, 4720.964
475.6551, 4718.449
476.1372, 4710.018
476.6193, 4701.247
477.1014, 4692.593
477.5836, 4685.000
478.0657, 4679.925
478.5478, 4676.909
479.0299, 4674.764
479.5120, 4672.134
479.9941, 4670.610
480.4763, 4669.013
480.9584, 4668.216
481.4405, 4676.463
481.9226, 4699.158
482.4047, 4732.302
482.8868, 4773.023
483.3690, 4820.731
483.8511, 4875.170
484.3332, 4939.719
484.8153, 5010.072
485.2974, 5080.598
485.7795, 5146.377
486.2617, 5215.758
486.7438, 5293.432
487.2259, 5379.390
487.7080, 5457.791
488.1901, 5535.391
488.6722, 5597.662
489.1544, 5638.865
489.6365, 5661.776
490.1186, 5651.718
490.6007, 5607.112
491.0828, 5530.907
491.5649, 5422.419
492.0471, 5281.856
492.5292, 5123.707
493.0113, 4947.168
493.4934, 4761.118
493.9755, 4582.857
494.4576, 4413.990
494.9398, 4257.078
495.4219, 4115.071
495.9040, 3986.862
496.3861, 3876.659
496.8682, 3784.009
497.3503, 3704.154
497.8325, 3633.010
498.3146, 3571.300
498.7967, 3518.681
499.2788, 3477.163
499.7609, 3443.562
500.2430, 3417.971
500.7252, 3399.643
501.2073, 3384.649
501.6894, 3368.185
502.1715, 3358.086
502.6536, 3358.666
503.1357, 3373.259
503.6179, 3390.490
504.1000, 3408.824
504.5821, 3430.315
505.0642, 3457.005
505.5463, 3489.242
506.0284, 3525.509
506.5106, 3564.944
506.9927, 3608.180
507.4748, 3657.584
507.9569, 3713.415
508.4390, 3773.868
508.9211, 3838.081
509.4033, 3906.079
509.8854, 3978.545
510.3675, 4055.581
510.8496, 4136.025
511.3317, 4218.559
511.8138, 4303.948
512.2960, 4392.350
512.7781, 4485.511
513.2602, 4581.712
513.7423, 4679.705
514.2244, 4779.656
514.7065, 4881.938
515.1887, 4988.814
515.6708, 5096.927
516.1529, 5204.466
516.6350, 5311.634
517.1171, 5414.300
517.5992, 5507.419
518.0814, 5596.851
518.5635, 5686.252
519.0456, 5778.417
519.5277, 5866.859
520.0098, 5946.442
520.4919, 6023.619
520.9741, 6107.377
521.4562, 6196.318
521.9383, 6292.789
522.4204, 6397.401
522.9025, 6509.885
523.3846, 6629.321
523.8668, 6755.219
524.3489, 6886.860
524.8310, 7024.380
525.3131, 7168.476
525.7952, 7319.582
526.2773, 7478.688
526.7595, 7643.894
527.2416, 7812.045
527.7237, 7982.633
528.2058, 8157.167
528.6879, 8332.141
529.1700, 8513.495
529.6522, 8706.113
530.1343, 8908.484
530.6164, 9122.325
531.0985, 9351.793
531.5806, 9588.380
532.0627, 9823.448
532.5449, 10054.98
533.0270, 10296.31
533.5091, 10554.36
533.9912, 10819.76
534.4733, 11082.24
534.9554, 11345.72
535.4376, 11605.91
535.9197, 11866.23
536.4018, 12119.87
536.8839, 12347.40
537.3660, 12548.06
537.8481, 12729.95
538.3303, 12900.18
538.8124, 13054.31
539.2945, 13172.74
539.7766, 13254.73
540.2587, 13307.39
540.7408, 13337.03
541.2230, 13341.87
541.7051, 13314.27
542.1872, 13253.84
542.6693, 13161.83
543.1514, 13034.34
543.6335, 12876.56
544.1157, 12694.79
544.5978, 12491.91
545.0799, 12265.18
545.5620, 12010.51
546.0441, 11731.98
546.5262, 11439.63
547.0084, 11123.62
547.4905, 10808.11
547.9726, 10494.58
548.4547, 10184.06
548.9368, 9886.817
549.4189, 9600.014
549.9011, 9329.138
550.3832, 9078.136
550.8653, 8852.036
551.3474, 8632.052
551.8295, 8416.030
552.3116, 8211.165
552.7938, 8032.047
553.2759, 7880.619
553.7580, 7736.117
554.2401, 7593.129
554.7222, 7453.581
555.2043, 7322.491
555.6865, 7200.598
556.1686, 7083.176
556.6507, 6965.338
557.1328, 6851.697
557.6149, 6749.061
558.0970, 6657.943
558.5792, 6568.744
559.0613, 6475.941
559.5434, 6382.142
560.0255, 6289.692
560.5076, 6198.775
560.9897, 6111.953
561.4719, 6031.315
561.9540, 5954.800
562.4361, 5880.154
562.9182, 5802.712
563.4003, 5731.269
563.8824, 5667.273
564.3646, 5610.622
564.8467, 5557.203
565.3288, 5507.020
565.8109, 5459.604
566.2930, 5413.811
566.7751, 5369.721
567.2573, 5329.099
567.7394, 5291.273
568.2215, 5258.217
568.7036, 5232.144
569.1857, 5212.405
569.6678, 5194.952
570.1500, 5177.787
570.6321, 5166.081
571.1142, 5166.109
571.5963, 5176.358
572.0784, 5193.329
572.5605, 5213.682
573.0427, 5241.994
573.5248, 5280.767
574.0069, 5329.820
574.4890, 5389.878
574.9711, 5461.682
575.4532, 5543.068
575.9354, 5632.648
576.4175, 5730.266
576.8996, 5835.646
577.3817, 5947.765
577.8638, 6067.351
578.3459, 6196.741
578.8281, 6333.886
579.3102, 6482.036
579.7923, 6641.740
580.2744, 6811.691
580.7565, 6985.792
581.2386, 7164.236
581.7208, 7350.365
582.2029, 7547.554
582.6850, 7753.719
583.1671, 7970.741
583.6492, 8198.294
584.1313, 8433.503
584.6134, 8677.438
585.0955, 8929.345
585.5776, 9192.500
586.0598, 9469.627
586.5419, 9742.584
587.0240, 10019.95
587.5061, 10283.55
587.9882, 10518.46
588.4703, 10723.33
588.9525, 10897.66
589.4346, 11053.36
589.9167, 11174.55
590.3988, 11236.60
590.8809, 11238.45
591.3630, 11181.64
591.8452, 11063.31
592.3273, 10887.31
592.8094, 10663.46
593.2915, 10390.55
593.7736, 10087.72
594.2557, 9756.081
594.7379, 9405.179
595.2200, 9046.058
595.7021, 8682.101
596.1842, 8323.303
596.6663, 7974.234
597.1484, 7637.647
597.6306, 7313.338
598.1127, 7005.475
598.5948, 6717.824
599.0769, 6456.523
599.5590, 6216.160
600.0411, 5988.990
600.5233, 5774.269
601.0054, 5575.531
601.4875, 5393.758
601.9696, 5228.061
602.4517, 5074.404
602.9338, 4931.899
603.4160, 4800.660
603.8981, 4680.694
604.3802, 4571.025
604.8623, 4467.661
605.3444, 4369.838
605.8265, 4277.062
606.3087, 4187.492
606.7908, 4102.732
607.2729, 4027.574
607.7550, 3962.883
608.2371, 3901.318
608.7192, 3834.668
609.2014, 3766.882
609.6835, 3702.039
610.1656, 3643.644
610.6477, 3586.949
611.1298, 3529.718
611.6119, 3472.741
612.0941, 3416.132
612.5762, 3359.168
613.0583, 3304.322
613.5404, 3251.905
614.0225, 3202.303
614.5046, 3152.150
614.9868, 3100.706
615.4689, 3051.253
615.9510, 3004.579
616.4331, 2960.888
616.9152, 2920.938
617.3973, 2885.184
617.8795, 2850.177
618.3616, 2813.401
618.8437, 2775.678
619.3258, 2739.673
619.8079, 2705.660
620.2900, 2672.165
620.7722, 2636.248
621.2543, 2600.319
621.7364, 2568.236
622.2185, 2541.971
622.7006, 2518.453
623.1827, 2499.106
623.6649, 2481.584
624.1470, 2460.023
624.6291, 2428.727
625.1112, 2399.410
625.5933, 2374.904
626.0754, 2354.670
626.5576, 2335.749
627.0397, 2318.063
627.5218, 2301.845
628.0039, 2287.872
628.4860, 2275.789
628.9681, 2262.615
629.4503, 2248.256
629.9324, 2233.291
630.4145, 2216.642
630.8966, 2200.010
631.3787, 2186.679
631.8608, 2177.946
632.3430, 2170.119
632.8251, 2160.906
633.3072, 2151.181
633.7893, 2141.883
634.2714, 2132.841
634.7535, 2124.782
635.2357, 2118.989
635.7178, 2114.101
636.1999, 2106.711
636.6820, 2094.104
637.1641, 2084.190
637.6462, 2079.974
638.1284, 2080.063
638.6105, 2077.076
639.0926, 2070.605
639.5747, 2064.482
640.0568, 2061.373
640.5389, 2060.320
641.0211, 2058.867
641.5032, 2056.977
641.9853, 2054.603
642.4674, 2051.482
642.9495, 2048.027
643.4316, 2044.853
643.9138, 2042.343
644.3959, 2039.116
644.8780, 2032.706
645.3601, 2026.283
645.8422, 2023.105
646.3243, 2028.654
646.8065, 2030.589
647.2886, 2026.386
647.7707, 2019.595
648.2528, 2016.859
648.7349, 2019.372
649.2170, 2020.842
649.6992, 2019.087
650.1813, 2015.806
650.6634, 2016.322
651.1455, 2020.143
651.6276, 2022.371
652.1097, 2017.655
652.5919, 2011.271
653.0740, 2011.096
653.5561, 2016.434
654.0382, 2020.950
654.5203, 2019.971
655.0024, 2017.767
655.4846, 2017.270
655.9667, 2019.254
656.4488, 2020.701
656.9309, 2020.522
657.4130, 2020.162
657.8951, 2020.599
658.3773, 2022.095
658.8594, 2023.596
659.3415, 2025.067
659.8236, 2026.526
660.3057, 2028.177
660.7878, 2029.945
661.2700, 2031.182
661.7521, 2031.835
662.2342, 2031.727
662.7163, 2029.174
663.1984, 2025.631
663.6805, 2024.690
664.1627, 2031.502
664.6448, 2038.168
665.1269, 2039.268
665.6090, 2036.181
666.0911, 2034.249
666.5732, 2034.890
667.0554, 2036.806
667.5375, 2039.975
668.0196, 2044.379
668.5017, 2047.720
668.9838, 2049.791
669.4659, 2051.292
669.9481, 2052.442
670.4302, 2053.247
670.9123, 2054.308
671.3944, 2055.614
671.8765, 2057.098
672.3586, 2058.190
672.8408, 2059.518
673.3229, 2062.677
673.8050, 2068.452
674.2871, 2073.507
674.7692, 2075.112
675.2513, 2075.015
675.7335, 2075.127
676.2156, 2075.913
676.6977, 2077.019
677.1798, 2078.939
677.6619, 2081.004
678.1440, 2081.847
678.6262, 2080.136
679.1083, 2081.006
679.5904, 2086.238
680.0725, 2094.001
680.5546, 2099.830
681.0367, 2103.831
681.5189, 2108.104
682.0010, 2114.199
682.4831, 2120.749
682.9652, 2125.078
683.4473, 2127.732
683.9294, 2131.769
684.4116, 2140.265
684.8937, 2149.461
685.3758, 2157.193
685.8579, 2163.202
686.3400, 2168.720
686.8221, 2172.299
687.3043, 2176.908
687.7864, 2183.982
688.2685, 2193.790
688.7506, 2205.251
689.2327, 2219.554
689.7148, 2232.677
690.1970, 2239.048
690.6791, 2240.199
691.1612, 2245.937
691.6433, 2257.729
692.1254, 2271.754
692.6075, 2285.145
693.0897, 2298.014
693.5718, 2310.500
694.0539, 2322.000
694.5360, 2334.300
695.0181, 2348.605
695.5002, 2364.181
695.9824, 2380.163
696.4645, 2395.233
696.9466, 2412.586
697.4287, 2434.095
697.9108, 2457.498
698.3929, 2476.046
698.8751, 2488.678
699.3572, 2504.282
699.8393, 2527.006
700.3214, 2553.828
700.8035, 2577.931
701.2856, 2599.556
701.7678, 2620.121
702.2499, 2639.020
702.7320, 2658.284
703.2141, 2679.983
703.6962, 2703.994
704.1783, 2728.462
704.6605, 2753.424
705.1426, 2777.987
705.6247, 2801.555
706.1068, 2824.034
706.5889, 2846.427
707.0710, 2868.279
707.5532, 2890.428
708.0353, 2912.853
708.5174, 2935.556
708.9995, 2962.777
709.4816, 2995.170
709.9637, 3028.968
710.4459, 3059.467
710.9280, 3089.323
711.4101, 3122.569
711.8922, 3160.099
712.3743, 3201.095
712.8564, 3247.176
713.3386, 3295.425
713.8207, 3343.399
714.3028, 3386.045
714.7849, 3434.546
715.2670, 3492.181
715.7491, 3554.470
716.2313, 3616.841
716.7134, 3678.274
717.1955, 3741.434
717.6776, 3807.005
718.1597, 3874.256
718.6418, 3941.120
719.1240, 4008.147
719.6061, 4080.466
720.0882, 4161.746
720.5703, 4245.755
721.0524, 4323.912
721.5345, 4399.000
722.0167, 4477.748
722.4988, 4563.663
722.9809, 4652.748
723.4630, 4742.629
723.9451, 4833.646
724.4272, 4929.565
724.9094, 5031.729
725.3915, 5134.950
725.8736, 5236.729
726.3557, 5337.130
726.8378, 5441.388
727.3199, 5550.461
727.8021, 5659.761
728.2842, 5772.359
728.7663, 5881.334
729.2484, 5974.273
729.7305, 6050.298
730.2126, 6113.219
730.6948, 6169.432
731.1769, 6209.623
731.6590, 6228.568
732.1411, 6226.481
732.6232, 6195.896
733.1053, 6136.015
733.5875, 6050.028
734.0696, 5939.491
734.5517, 5803.022
735.0338, 5648.792
735.5159, 5474.079
735.9980, 5287.921
736.4802, 5092.468
736.9623, 4891.644
737.4444, 4699.268
737.9265, 4516.155
738.4086, 4340.657
738.8907, 4169.079
739.3729, 4004.988
739.8550, 3854.345
740.3371, 3718.916
740.8192, 3592.783
741.3013, 3475.793
741.7834, 3368.240
742.2656, 3271.684
742.7477, 3187.328
743.2298, 3109.590
743.7119, 3038.937
744.1940, 2974.163
744.6761, 2914.615
745.1583, 2859.756
745.6404, 2808.421
746.1225, 2760.688
746.6046, 2715.771
747.0867, 2673.017
747.5688, 2632.589
748.0510, 2595.335
748.5331, 2562.495
749.0152, 2531.194
749.4973, 2500.435
749.9794, 2470.808
750.4615, 2443.578
750.9437, 2418.797
751.4258, 2397.122
751.9079, 2379.285
752.3900, 2364.145
752.8721, 2348.531
753.3542, 2332.732
753.8364, 2316.939
754.3185, 2300.592
754.8006, 2285.157
755.2827, 2272.649
755.7648, 2262.612
756.2469, 2254.119
756.7291, 2246.899
757.2112, 2240.996
757.6933, 2237.180
758.1754, 2234.950
758.6575, 2231.291
759.1396, 2225.680
759.6218, 2219.664
760.1039, 2213.442
760.5860, 2207.289
761.0681, 2201.699
761.5502, 2196.731
762.0323, 2193.118
762.5145, 2192.128
762.9966, 2192.270
763.4787, 2191.818
763.9608, 2190.738
764.4429, 2188.987
764.9250, 2185.967
765.4072, 2182.811
765.8893, 2180.071
766.3714, 2177.764
766.8535, 2175.719
767.3356, 2174.085
767.8177, 2172.386
768.2999, 2170.353
768.7820, 2167.999
769.2641, 2165.449
769.7462, 2162.665
770.2283, 2160.499
770.7104, 2159.633
771.1926, 2159.712
771.6747, 2160.977
772.1568, 2163.304
772.6389, 2163.960
773.1210, 2159.932
773.6031, 2155.187
774.0853, 2152.476
774.5674, 2152.558
775.0495, 2150.847
775.5316, 2145.995
776.0137, 2141.788
776.4958, 2141.047
776.9780, 2143.613
777.4601, 2145.785
777.9422, 2147.571
778.4243, 2148.414
778.9064, 2147.015
779.3885, 2144.796
779.8707, 2143.468
780.3528, 2143.211
780.8349, 2144.046
781.3170, 2146.885
781.7991, 2150.147
782.2812, 2152.723
782.7633, 2154.487
783.2454, 2155.870
783.7275, 2156.851
784.2097, 2157.419
784.6918, 2156.821
785.1739, 2155.399
785.6560, 2157.191
786.1381, 2162.731
786.6202, 2168.273
787.1024, 2169.910
787.5845, 2169.777
788.0666, 2170.510
788.5487, 2172.688
789.0308, 2175.022
789.5129, 2176.897
789.9951, 2178.884
790.4772, 2181.506
790.9593, 2185.324
791.4414, 2187.860
791.9235, 2188.371
792.4056, 2189.309
792.8878, 2194.347
793.3699, 2202.287
793.8520, 2206.111
794.3341, 2204.673
794.8162, 2203.521
795.2983, 2208.508
795.7805, 2215.902
796.2626, 2221.749
796.7447, 2225.188
797.2268, 2227.307
797.7089, 2227.104
798.1910, 2226.648
798.6732, 2227.245
799.1553, 2228.565
799.6374, 2232.618
800.1195, 2239.945
800.6016, 2248.484
801.0837, 2256.805
801.5659, 2264.635
802.0480, 2271.066
802.5301, 2275.810
803.0122, 2279.989
803.4943, 2283.928
803.9764, 2288.012
804.4586, 2292.538
804.9407, 2297.197
805.4228, 2303.284
805.9049, 2312.286
806.3870, 2321.196
806.8691, 2327.063
807.3513, 2329.161
807.8334, 2334.998
808.3155, 2345.630
808.7976, 2356.411
809.2797, 2361.341
809.7618, 2363.168
810.2440, 2367.213
810.7261, 2374.501
811.2082, 2382.802
811.6903, 2391.390
812.1724, 2400.152
812.6545, 2408.647
813.1367, 2415.645
813.6188, 2426.258
814.1009, 2443.130
814.5830, 2459.186
815.0651, 2466.376
815.5472, 2465.575
816.0294, 2469.704
816.5115, 2479.828
816.9936, 2492.499
817.4757, 2505.680
817.9578, 2518.849
818.4399, 2530.775
818.9221, 2540.595
819.4042, 2552.659
819.8863, 2570.249
820.3684, 2589.277
820.8505, 2607.188
821.3326, 2624.019
821.8148, 2639.060
822.2969, 2651.097
822.7790, 2665.017
823.2611, 2686.763
823.7432, 2713.619
824.2253, 2736.598
824.7075, 2754.823
825.1896, 2772.048
825.6717, 2788.897
826.1538, 2807.250
826.6359, 2829.513
827.1180, 2856.810
827.6002, 2881.854
828.0823, 2901.289
828.5644, 2921.487
829.0465, 2946.872
829.5286, 2977.379
830.0107, 3003.825
830.4929, 3025.688
830.9750, 3048.170
831.4571, 3077.265
831.9392, 3108.597
832.4213, 3134.606
832.9034, 3154.738
833.3856, 3174.629
833.8677, 3197.547
834.3498, 3220.093
834.8319, 3241.625
835.3140, 3262.319
835.7961, 3275.902
836.2783, 3280.848
836.7604, 3282.761
837.2425, 3285.225
837.7246, 3287.149
838.2067, 3283.687
838.6888, 3275.061
839.1710, 3264.095
839.6531, 3251.750
840.1352, 3238.402
840.6173, 3224.806
841.0994, 3210.762
841.5815, 3194.842
842.0637, 3175.152
842.5458, 3155.089
843.0279, 3135.330
843.5100, 3115.987
843.9921, 3097.845
844.4742, 3081.103
844.9564, 3064.761
845.4385, 3047.446
845.9206, 3030.989
846.4027, 3018.785
846.8848, 3010.003
847.3669, 3001.655
847.8491, 2993.511
848.3312, 2984.505
848.8133, 2972.974
849.2954, 2960.145
849.7775, 2950.102
850.2596, 2943.098
850.7418, 2938.133
851.2239, 2935.781
851.7060, 2934.183
852.1881, 2928.029
852.6702, 2918.640
853.1523, 2911.753
853.6345, 2911.446
854.1166, 2911.954
854.5987, 2908.140
855.0808, 2902.501
855.5629, 2899.879
856.0450, 2904.510
856.5272, 2907.191
857.0093, 2906.554
857.4914, 2904.055
857.9735, 2901.577
858.4556, 2899.271
858.9377, 2898.928
859.4199, 2901.439
859.9020, 2904.781
860.3841, 2905.634
860.8662, 2906.331
861.3483, 2910.565
861.8304, 2921.868
862.3126, 2932.083
862.7947, 2937.940
863.2768, 2942.661
863.7589, 2948.785
864.2410, 2956.291
864.7231, 2965.199
865.2053, 2975.495
865.6874, 2987.172
866.1695, 3001.703
866.6516, 3017.331
867.1337, 3030.042
867.6158, 3038.724
868.0980, 3048.574
868.5801, 3064.683
869.0622, 3081.517
869.5443, 3094.031
870.0264, 3100.619
870.5085, 3111.742
870.9907, 3128.829
871.4728, 3146.602
871.9549, 3160.933
872.4370, 3172.637
872.9191, 3184.270
873.4012, 3196.098
873.8834, 3209.431
874.3655, 3227.026
874.8476, 3245.003
875.3297, 3260.240
875.8118, 3272.553
876.2939, 3285.781
876.7761, 3298.946
877.2582, 3314.965
877.7403, 3336.374
878.2224, 3361.377
878.7045, 3380.085
879.1866, 3392.945
879.6688, 3404.917
880.1509, 3417.659
880.6330, 3431.573
881.1151, 3447.744
881.5972, 3465.534
882.0793, 3482.796
882.5615, 3499.769
883.0436, 3515.244
883.5257, 3529.148
884.0078, 3541.437
884.4899, 3551.394
884.9720, 3558.865
885.4542, 3567.391
885.9363, 3578.010
886.4184, 3589.898
886.9005, 3602.900
887.3826, 3616.198
887.8647, 3628.071
888.3469, 3636.218
888.8290, 3645.997
889.3111, 3661.780
889.7932, 3678.116
890.2753, 3688.834
890.7574, 3691.751
891.2396, 3699.699
891.7217, 3714.471
892.2038, 3730.003
892.6859, 3738.135
893.1680, 3742.594
893.6501, 3750.814
894.1323, 3764.007
894.6144, 3779.455
895.0965, 3799.190
895.5786, 3818.190
896.0607, 3832.252
896.5428, 3840.587
897.0250, 3852.422
897.5071, 3868.845
897.9892, 3885.258
898.4713, 3898.839
898.9534, 3910.236
899.4355, 3921.090
899.9177, 3931.527
900.3998, 3943.021
900.8819, 3955.796
901.3640, 3970.087
901.8461, 3986.310
902.3282, 4004.085
902.8104, 4022.024
903.2925, 4040.931
903.7746, 4057.313
904.2567, 4069.526
904.7388, 4079.038
905.2209, 4089.798
905.7031, 4101.068
906.1852, 4109.415
906.6673, 4110.335
907.1494, 4113.144
907.6315, 4126.054
908.1136, 4144.385
908.5958, 4160.723
909.0779, 4172.960
909.5600, 4185.938
910.0421, 4200.420
910.5242, 4215.008
911.0063, 4227.372
911.4885, 4238.198
911.9706, 4251.905
912.4527, 4269.368
912.9348, 4286.126
913.4169, 4298.210
913.8990, 4308.143
914.3812, 4318.080
914.8633, 4328.306
915.3454, 4338.301
915.8275, 4348.691
916.3096, 4357.511
916.7917, 4362.778
917.2739, 4365.214
917.7560, 4371.717
918.2381, 4381.605
918.7202, 4387.162
919.2023, 4379.761
919.6844, 4369.027
920.1666, 4363.659
920.6487, 4362.183
921.1308, 4355.375
921.6129, 4338.712
922.0950, 4322.159
922.5771, 4307.771
923.0593, 4295.382
923.5414, 4285.037
924.0235, 4276.673
924.5056, 4269.052
924.9877, 4262.471
925.4698, 4255.434
925.9520, 4246.291
926.4341, 4236.027
926.9162, 4226.071
927.3983, 4215.873
927.8804, 4207.534
928.3625, 4201.936
928.8447, 4197.021
929.3268, 4190.479
929.8089, 4182.595
930.2910, 4175.103
930.7731, 4168.025
931.2552, 4162.159
931.7374, 4158.913
932.2195, 4156.367
932.7016, 4153.092
933.1837, 4148.973
933.6658, 4143.130
934.1479, 4133.979
934.6301, 4125.812
935.1122, 4120.847
935.5943, 4118.278
936.0764, 4114.430
936.5585, 4109.523
937.0406, 4105.319
937.5228, 4105.375
938.0049, 4104.033
938.4870, 4094.851
938.9691, 4081.232
939.4512, 4071.442
939.9333, 4068.490
940.4155, 4065.929
940.8976, 4063.526
941.3797, 4060.386
941.8618, 4054.500
942.3439, 4046.425
942.8260, 4039.157
943.3082, 4033.073
943.7903, 4027.948
944.2724, 4022.152
944.7545, 4018.097
945.2366, 4019.240
945.7188, 4029.549
946.2009, 4031.319
946.6830, 4021.410
947.1651, 4010.060
947.6472, 4003.873
948.1293, 4001.852
948.6115, 3999.613
949.0936, 3997.397
949.5757, 3996.698
950.0578, 3999.127
950.5399, 4002.782
951.0220, 4006.750
951.5042, 4011.075
951.9863, 4015.929
952.4684, 4021.331
952.9505, 4026.952
953.4326, 4031.940
953.9147, 4038.537
954.3969, 4053.409
954.8790, 4073.219
955.3611, 4088.198
955.8432, 4093.326
956.3253, 4098.964
956.8074, 4111.437
957.2896, 4126.336
957.7717, 4139.237
958.2538, 4148.702
958.7359, 4160.784
959.2180, 4175.527
959.7001, 4191.848
960.1823, 4210.872
960.6644, 4230.135
961.1465, 4242.779
961.6286, 4249.518
962.1107, 4257.368
962.5928, 4270.646
963.0750, 4284.736
963.5571, 4298.427
964.0392, 4311.520
964.5213, 4322.844
965.0034, 4332.385
965.4855, 4341.087
965.9677, 4348.894
966.4498, 4357.197
966.9319, 4367.459
967.4140, 4379.741
967.8961, 4394.088
968.3782, 4412.840
968.8604, 4429.696
969.3425, 4442.529
969.8246, 4454.253
970.3067, 4466.752
970.7888, 4479.799
971.2709, 4497.253
971.7531, 4519.334
972.2352, 4540.648
972.7173, 4555.351
973.1994, 4568.042
973.6815, 4583.611
974.1636, 4601.846
974.6458, 4618.334
975.1279, 4631.151
975.6100, 4643.422
976.0921, 4655.638
976.5742, 4668.085
977.0563, 4682.399
977.5385, 4698.124
978.0206, 4711.733
978.5027, 4721.950
978.9848, 4729.958
979.4669, 4736.425
979.9490, 4741.409
980.4311, 4744.957
980.9132, 4747.770
981.3953, 4747.600
981.8774, 4743.525
982.3596, 4738.916
982.8417, 4736.935
983.3238, 4736.825
983.8059, 4736.740
984.2880, 4736.494
984.7701, 4735.364
985.2523, 4732.650
985.7344, 4729.151
986.2165, 4724.733
986.6986, 4719.776
987.1807, 4715.705
987.6628, 4712.458
988.1450, 4710.935
988.6271, 4712.475
989.1092, 4713.692
989.5913, 4708.517
990.0734, 4699.654
990.5555, 4692.202
991.0377, 4689.226
991.5198, 4684.564
992.0019, 4674.892
992.4840, 4664.966
992.9661, 4658.519
993.4482, 4655.689
993.9304, 4653.129
994.4125, 4650.820
994.8946, 4646.827
995.3767, 4637.605
995.8588, 4627.588
996.3409, 4622.128
996.8231, 4620.247
997.3052, 4614.460
997.7873, 4600.340
998.2694, 4588.251
998.7515, 4580.756
999.2336, 4575.956
999.7158, 4571.053
1000.198, 4565.761
1000.680, 4558.824
1001.162, 4549.363
1001.644, 4540.201
1002.126, 4535.083
1002.608, 4529.932
1003.091, 4520.175
1003.573, 4503.916
1004.055, 4494.550
1004.537, 4493.417
1005.019, 4492.525
1005.501, 4485.541
1005.983, 4475.746
1006.465, 4468.968
1006.948, 4464.450
1007.430, 4458.800
1007.912, 4448.270
1008.394, 4439.580
1008.876, 4434.777
1009.358, 4432.515
1009.840, 4432.076
1010.322, 4433.246
1010.804, 4427.935
1011.287, 4414.079
1011.769, 4397.457
1012.251, 4380.804
1012.733, 4365.824
1013.215, 4355.746
1013.697, 4352.627
1014.179, 4342.272
1014.661, 4321.792
1015.143, 4299.780
1015.626, 4281.099
1016.108, 4263.811
1016.590, 4240.804
1017.072, 4213.830
1017.554, 4188.605
1018.036, 4168.958
1018.518, 4150.337
1019.000, 4132.645
1019.483, 4114.165
1019.965, 4091.034
1020.447, 4060.516
1020.929, 4041.637
1021.411, 4036.763
1021.893, 4035.664
1022.375, 4027.433
1022.857, 4017.784
1023.339, 4014.302
1023.822, 4017.417
1024.304, 4021.459
1024.786, 4022.579
1025.268, 4028.223
1025.750, 4041.403
1026.232, 4059.966
1026.714, 4078.790
1027.196, 4097.740
1027.679, 4116.011
1028.161, 4133.227
1028.643, 4149.680
1029.125, 4165.789
1029.607, 4181.213
1030.089, 4195.673
1030.571, 4209.522
1031.053, 4221.208
1031.536, 4230.779
1032.018, 4238.087
1032.500, 4242.404
1032.982, 4244.684
1033.464, 4246.727
1033.946, 4248.163
1034.428, 4247.512
1034.910, 4243.347
1035.392, 4238.130
1035.875, 4233.265
1036.357, 4227.090
1036.839, 4215.959
1037.321, 4200.424
1037.803, 4185.925
1038.285, 4173.230
1038.767, 4161.824
1039.249, 4152.984
1039.731, 4143.978
1040.214, 4131.368
1040.696, 4114.713
1041.178, 4102.813
1041.660, 4097.409
1042.142, 4090.266
1042.624, 4076.440
1043.106, 4060.105
1043.588, 4048.074
1044.071, 4039.162
1044.553, 4030.610
1045.035, 4021.388
1045.517, 4012.589
1045.999, 4006.314
1046.481, 3998.581
1046.963, 3984.530
1047.445, 3964.721
1047.927, 3949.526
1048.410, 3939.065
1048.892, 3929.096
1049.374, 3916.418
1049.856, 3903.174
1050.338, 3892.374
1050.820, 3882.514
1051.302, 3867.258
1051.784, 3844.224
1052.266, 3824.356
1052.749, 3810.720
1053.231, 3798.534
1053.713, 3780.990
1054.195, 3760.503
1054.677, 3740.031
1055.159, 3719.919
1055.641, 3701.932
1056.123, 3687.608
1056.606, 3674.379
1057.088, 3661.574
1057.570, 3648.851
1058.052, 3634.191
1058.534, 3617.996
1059.016, 3602.460
1059.498, 3589.210
1059.980, 3576.153
1060.463, 3561.546
1060.945, 3546.565
1061.427, 3532.718
1061.909, 3520.130
1062.391, 3509.080
1062.873, 3499.979
1063.355, 3490.586
1063.837, 3479.061
1064.319, 3465.971
1064.802, 3451.372
1065.284, 3435.786
1065.766, 3421.707
1066.248, 3410.823
1066.730, 3400.072
1067.212, 3388.632
1067.694, 3377.238
1068.176, 3367.940
1068.658, 3359.989
1069.141, 3351.237
1069.623, 3341.514
1070.105, 3329.584
1070.587, 3312.211
1071.069, 3294.671
1071.551, 3280.255
1072.033, 3268.917
1072.515, 3258.743
1072.998, 3249.978
1073.480, 3239.478
1073.962, 3224.501
1074.444, 3209.390
1074.926, 3201.335
1075.408, 3195.560
1075.890, 3184.507
1076.372, 3161.106
1076.854, 3144.050
1077.337, 3135.399
1077.819, 3127.651
1078.301, 3114.981
1078.783, 3098.626
1079.265, 3080.310
1079.747, 3060.852
1080.229, 3043.892
1080.711, 3033.873
1081.193, 3022.927
1081.676, 3008.175
1082.158, 2992.070
1082.640, 2979.909
1083.122, 2970.976
1083.604, 2957.520
1084.086, 2938.048
1084.568, 2919.239
1085.050, 2906.926
1085.532, 2896.530
1086.015, 2885.946
1086.497, 2874.623
1086.979, 2857.218
1087.461, 2831.993
1087.943, 2813.231
1088.425, 2807.692
1088.907, 2806.202
1089.389, 2798.340
1089.872, 2786.180
1090.354, 2772.005
1090.836, 2753.821
1091.318, 2741.570
1091.800, 2738.481
1092.282, 2734.984
1092.764, 2723.456
1093.246, 2707.576
1093.729, 2699.102
1094.211, 2696.263
1094.693, 2692.887
1095.175, 2684.976
1095.657, 2677.605
1096.139, 2672.032
1096.621, 2667.691
1097.103, 2664.475
1097.585, 2662.288
1098.068, 2658.758
1098.550, 2653.818
1099.032, 2648.975
1099.514, 2645.160
1099.996, 2642.028
1100.478, 2639.805
1100.960, 2638.078
1101.442, 2635.449
1101.924, 2631.830
1102.407, 2627.398
1102.889, 2621.703
1103.371, 2617.051
1103.853, 2617.039
1104.335, 2618.867
1104.817, 2619.171
1105.299, 2617.323
1105.781, 2615.711
1106.264, 2614.566
1106.746, 2613.438
1107.228, 2611.984
1107.710, 2610.612
1108.192, 2611.527
1108.674, 2612.965
1109.156, 2610.346
1109.638, 2599.526
1110.120, 2591.784
1110.603, 2591.567
1111.085, 2593.432
1111.567, 2595.165
1112.049, 2596.302
1112.531, 2591.583
1113.013, 2582.282
1113.495, 2576.030
1113.977, 2579.933
1114.459, 2584.286
1114.942, 2584.115
1115.424, 2581.973
1115.906, 2581.346
1116.388, 2582.507
1116.870, 2581.737
1117.352, 2578.735
1117.834, 2576.927
1118.316, 2581.491
1118.799, 2586.255
1119.281, 2585.045
1119.763, 2579.293
1120.245, 2576.196
1120.727, 2577.025
1121.209, 2576.226
1121.691, 2572.280
1122.173, 2568.732
1122.656, 2572.013
1123.138, 2577.045
1123.620, 2575.539
1124.102, 2566.275
1124.584, 2562.273
1125.066, 2568.579
1125.548, 2572.262
1126.030, 2567.940
1126.512, 2560.720
1126.995, 2561.930
1127.477, 2568.182
1127.959, 2571.390
1128.441, 2568.861
1128.923, 2566.202
1129.405, 2565.275
1129.887, 2564.499
1130.369, 2563.082
1130.851, 2561.167
1131.334, 2558.373
1131.816, 2555.382
1132.298, 2555.624
1132.780, 2563.848
1133.262, 2570.323
1133.744, 2568.448
1134.226, 2564.190
1134.708, 2563.342
1135.191, 2566.196
1135.673, 2567.013
1136.155, 2565.842
1136.637, 2564.337
1137.119, 2563.458
1137.601, 2562.761
1138.083, 2562.151
1138.565, 2561.505
1139.047, 2560.560
1139.530, 2559.266
1140.012, 2558.196
1140.494, 2557.445
1140.976, 2556.763
1141.458, 2555.938
1141.940, 2555.071
1142.422, 2553.788
1142.904, 2552.433
1143.386, 2553.047
1143.869, 2556.891
1144.351, 2558.870
1144.833, 2557.810
1145.315, 2555.463
1145.797, 2552.752
1146.279, 2550.863
1146.761, 2552.476
1147.243, 2558.013
1147.726, 2560.568
1148.208, 2557.304
1148.690, 2555.338
1149.172, 2557.680
1149.654, 2561.093
1150.136, 2557.930
1150.618, 2551.497
1151.100, 2548.617
1151.583, 2551.302
1152.065, 2555.533
1152.547, 2562.578
1153.029, 2567.587
1153.511, 2567.579
1153.993, 2564.187
1154.475, 2562.448
1154.957, 2562.045
1155.439, 2561.975
1155.922, 2562.225
1156.404, 2562.128
1156.886, 2560.463
1157.368, 2559.406
1157.850, 2560.956
1158.332, 2564.675
1158.814, 2565.807
1159.296, 2564.755
1159.778, 2564.086
1160.261, 2566.347
1160.743, 2567.885
1161.225, 2565.511
1161.707, 2562.474
1162.189, 2561.963
1162.671, 2563.966
1163.153, 2568.874
1163.635, 2576.488
1164.118, 2581.780
1164.600, 2579.815
1165.082, 2575.970
1165.564, 2572.781
1166.046, 2570.375
1166.528, 2568.627
1167.010, 2567.435
1167.492, 2568.829
1167.974, 2573.230
1168.457, 2576.735
1168.939, 2574.344
1169.421, 2571.354
1169.903, 2572.622
1170.385, 2577.135
1170.867, 2579.478
1171.349, 2579.364
1171.831, 2578.743
1172.313, 2577.881
1172.796, 2576.898
1173.278, 2575.345
1173.760, 2574.174
1174.242, 2575.093
1174.724, 2577.940
1175.206, 2577.574
1175.688, 2572.659
1176.170, 2570.764
1176.653, 2574.652
1177.135, 2579.783
1177.617, 2579.560
1178.099, 2577.697
1178.581, 2579.488
1179.063, 2586.231
1179.545, 2588.826
1180.027, 2585.407
1180.510, 2583.785
1180.992, 2587.837
1181.474, 2593.095
1181.956, 2591.989
1182.438, 2587.934
1182.920, 2586.500
1183.402, 2589.759
1183.884, 2591.445
1184.366, 2590.557
1184.849, 2590.376
1185.331, 2592.985
1185.813, 2596.812
1186.295, 2598.908
1186.777, 2600.050
1187.259, 2601.839
1187.741, 2606.273
1188.223, 2607.197
1188.705, 2602.879
1189.188, 2598.668
1189.670, 2598.462
1190.152, 2600.435
1190.634, 2600.424
1191.116, 2599.402
1191.598, 2599.736
1192.080, 2603.347
1192.562, 2606.519
1193.045, 2608.806
1193.527, 2611.077
1194.009, 2614.159
1194.491, 2617.670
1194.973, 2620.715
1195.455, 2623.375
1195.937, 2625.982
1196.419, 2629.021
1196.901, 2631.421
1197.384, 2633.093
1197.866, 2634.080
1198.348, 2633.994
1198.830, 2633.430
1199.312, 2634.022
1199.794, 2635.597
1200.276, 2636.978
1200.758, 2637.477
1201.240, 2638.233
1201.723, 2639.889
1202.205, 2641.104
1202.687, 2638.731
1203.169, 2635.094
1203.651, 2636.910
1204.133, 2643.910
1204.615, 2649.695
1205.097, 2651.392
1205.580, 2652.132
1206.062, 2652.245
1206.544, 2652.115
1207.026, 2652.407
1207.508, 2652.843
1207.990, 2652.132
1208.472, 2650.283
1208.954, 2650.433
1209.437, 2655.744
1209.919, 2660.565
1210.401, 2663.735
1210.883, 2665.663
1211.365, 2666.997
1211.847, 2667.705
1212.329, 2667.051
1212.811, 2664.889
1213.293, 2665.129
1213.776, 2673.703
1214.258, 2678.158
1214.740, 2673.499
1215.222, 2665.314
1215.704, 2664.868
1216.186, 2669.280
1216.668, 2672.138
1217.150, 2672.283
1217.632, 2671.344
1218.115, 2668.180
1218.597, 2666.440
1219.079, 2667.558
1219.561, 2670.429
1220.043, 2673.872
1220.525, 2677.111
1221.007, 2678.254
1221.489, 2676.593
1221.972, 2674.816
1222.454, 2673.310
1222.936, 2672.194
1223.418, 2671.791
1223.900, 2671.419
1224.382, 2668.681
1224.864, 2665.082
1225.346, 2664.101
1225.828, 2667.382
1226.311, 2669.896
1226.793, 2671.815
1227.275, 2670.892
1227.757, 2664.617
1228.239, 2656.678
1228.721, 2655.708
1229.203, 2658.717
1229.685, 2659.555
1230.167, 2655.908
1230.650, 2652.823
1231.132, 2651.156
1231.614, 2649.026
1232.096, 2644.852
1232.578, 2640.290
1233.060, 2638.969
1233.542, 2639.562
1234.024, 2639.584
1234.507, 2638.049
1234.989, 2637.027
1235.471, 2637.016
1235.953, 2636.155
1236.435, 2632.683
1236.917, 2628.439
1237.399, 2626.565
1237.881, 2626.145
1238.364, 2625.611
1238.846, 2624.738
1239.328, 2623.289
1239.810, 2620.989
1240.292, 2619.394
1240.774, 2620.069
1241.256, 2621.430
1241.738, 2622.255
1242.220, 2621.872
1242.703, 2618.497
1243.185, 2609.275
1243.667, 2605.871
1244.149, 2609.260
1244.631, 2612.507
1245.113, 2610.647
1245.595, 2606.660
1246.077, 2602.375
1246.559, 2598.762
1247.042, 2598.180
1247.524, 2602.905
1248.006, 2601.167
1248.488, 2592.417
1248.970, 2584.272
1249.452, 2582.605
1249.934, 2582.972
1250.416, 2581.254
1250.899, 2579.389
1251.381, 2580.999
1251.863, 2587.583
1252.345, 2588.895
1252.827, 2584.915
1253.309, 2580.154
1253.791, 2576.795
1254.273, 2574.534
1254.755, 2574.010
1255.238, 2573.933
1255.720, 2572.263
1256.202, 2568.828
1256.684, 2566.802
1257.166, 2566.207
1257.648, 2566.673
1258.130, 2569.472
1258.612, 2571.520
1259.094, 2570.145
1259.577, 2567.986
1260.059, 2568.426
1260.541, 2571.107
1261.023, 2570.016
1261.505, 2565.619
1261.987, 2562.505
1262.469, 2565.249
1262.951, 2566.960
1263.434, 2564.038
1263.916, 2560.665
1264.398, 2561.527
1264.880, 2565.499
1265.362, 2567.827
1265.844, 2568.496
1266.326, 2568.379
1266.808, 2565.637
1267.291, 2565.585
1267.773, 2570.098
1268.255, 2575.431
1268.737, 2577.690
1269.219, 2577.986
1269.701, 2579.620
1270.183, 2582.016
1270.665, 2582.532
1271.147, 2577.884
1271.630, 2575.456
1272.112, 2576.602
1272.594, 2577.742
1273.076, 2574.253
1273.558, 2569.425
1274.040, 2568.319
1274.522, 2570.284
1275.004, 2572.931
1275.486, 2576.544
1275.969, 2579.011
1276.451, 2580.201
1276.933, 2580.142
1277.415, 2577.820
1277.897, 2575.129
1278.379, 2573.818
1278.861, 2573.828
1279.343, 2575.133
1279.825, 2578.383
1280.308, 2578.809
1280.790, 2575.984
1281.272, 2574.149
1281.754, 2577.801
1282.236, 2582.173
1282.718, 2583.899
1283.200, 2584.027
1283.682, 2584.446
1284.165, 2585.165
1284.647, 2585.980
1285.129, 2586.754
1285.611, 2585.678
1286.093, 2578.899
1286.575, 2573.271
1287.057, 2571.905
1287.539, 2573.343
1288.021, 2565.719
1288.504, 2578.790
1288.986, 2586.099
1289.468, 2587.955
1289.950, 2568.025
1290.432, 2576.227
1290.914, 2573.155
1291.396, 2569.621
1291.878, 2581.782
1292.360, 2565.021
1292.843, 2576.933
1293.325, 2577.400
1293.807, 2583.105
1294.289, 2577.466
1294.771, 2575.332
1295.253, 2584.544
1295.735, 2587.473
1296.217, 2580.529
1296.700, 2586.566
1297.182, 2569.409
1297.664, 2572.606
1298.146, 2584.585
1298.628, 2578.211
1299.110, 2584.456
1299.592, 2585.896
1300.074, 2565.493
1300.557, 2583.075
1301.039, 2584.231
1301.521, 2568.519
1302.003, 2584.800
1302.485, 2571.413
1302.967, 2568.616
1303.449, 2578.770
##END=



