##NAMES=Kryzhanovskite
##RRUFFID=R140111
##IDEAL CHEMISTRY=(Fe^3+^,Mn^2+^)_3_(PO_4_)_2_(OH,H_2_O)_3_
##LOCALITY=Hagendorf, Waidhaus, Vohenstrauß, Oberpfälzer Wald, Upper Palatinate, Bavaria, Germany
##OWNER=RRUFF
##SOURCE=Rock Currier
##DESCRIPTION=Deep red vitreous, almost black, blocky crystals and massive. Golden-brown, bronze on cleavage surfaces
##STATUS=The identification of this mineral is confirmed by single-crystal X-ray diffraction and chemical analysis.
##URL=rruff.info/R140111
##MEASURED CHEMISTRY=(Fe^3+^_1.90_Mn_0.96_Mg_0.01_)_Σ=2.87_(PO_4_)_2_(OH)_1.62_·1.36H_2_O
90.23535, 233.5529
90.71747, 232.4882
91.19958, 231.2166
91.68170, 233.6860
92.16382, 235.1920
92.64594, 235.1854
93.12805, 234.4504
93.61017, 233.6708
94.09229, 232.5703
94.57440, 230.8813
95.05652, 229.2890
95.53863, 228.0139
96.02074, 226.9254
96.50286, 225.8352
96.98498, 224.5042
97.46709, 222.6899
97.94921, 221.6092
98.43133, 222.0742
98.91344, 222.2181
99.39556, 221.3653
99.87768, 219.7432
100.3598, 217.9673
100.8419, 216.1825
101.3240, 214.6039
101.8061, 213.7677
102.2883, 214.0589
102.7704, 214.7865
103.2525, 215.3471
103.7346, 215.7095
104.2167, 216.0276
104.6988, 216.2639
105.1810, 216.4760
105.6631, 216.7861
106.1452, 217.3811
106.6273, 218.1326
107.1094, 218.5433
107.5915, 218.6482
108.0737, 218.2734
108.5558, 217.0607
109.0379, 215.3008
109.5200, 213.6717
110.0021, 212.7995
110.4842, 212.8180
110.9664, 212.9285
111.4485, 213.5069
111.9306, 213.8792
112.4127, 213.5199
112.8948, 212.4622
113.3769, 211.2701
113.8591, 210.7882
114.3412, 211.7078
114.8233, 212.1101
115.3054, 211.8211
115.7875, 211.1264
116.2696, 210.2635
116.7517, 209.3077
117.2339, 208.2695
117.7160, 207.1640
118.1981, 205.9624
118.6802, 204.7598
119.1623, 203.4394
119.6444, 202.1129
120.1266, 201.1178
120.6087, 200.7332
121.0908, 200.6968
121.5729, 200.4575
122.0550, 200.0470
122.5371, 199.3812
123.0193, 198.2946
123.5014, 196.7342
123.9835, 195.1820
124.4656, 193.7981
124.9477, 192.5750
125.4298, 191.5386
125.9120, 190.7288
126.3941, 190.0902
126.8762, 189.5025
127.3583, 188.9185
127.8404, 188.4865
128.3225, 188.2727
128.8047, 188.2027
129.2868, 188.2111
129.7689, 188.2950
130.2510, 188.4297
130.7331, 188.2403
131.2152, 187.2268
131.6974, 186.3514
132.1795, 185.8624
132.6616, 185.7167
133.1437, 185.7556
133.6258, 185.8522
134.1079, 186.0174
134.5901, 186.1779
135.0722, 186.3969
135.5543, 186.5652
136.0364, 186.6123
136.5185, 186.5356
137.0006, 186.3944
137.4828, 186.2863
137.9649, 186.2537
138.4470, 185.9339
138.9291, 185.1270
139.4112, 184.0929
139.8933, 183.0331
140.3755, 181.9310
140.8576, 181.0625
141.3397, 180.9830
141.8218, 181.6165
142.3039, 182.1523
142.7860, 182.0748
143.2681, 181.5887
143.7503, 181.4783
144.2324, 182.1610
144.7145, 182.9966
145.1966, 183.4513
145.6787, 183.5145
146.1608, 183.3478
146.6430, 182.9835
147.1251, 182.3813
147.6072, 181.9680
148.0893, 181.9842
148.5714, 182.1190
149.0535, 182.2188
149.5357, 182.2503
150.0178, 182.2717
150.4999, 182.3745
150.9820, 182.6038
151.4641, 182.8229
151.9462, 182.9111
152.4284, 183.0429
152.9105, 183.4029
153.3926, 184.0507
153.8747, 184.8496
154.3568, 185.4515
154.8389, 185.4729
155.3211, 185.7559
155.8032, 186.4392
156.2853, 187.3713
156.7674, 188.3777
157.2495, 189.3739
157.7316, 190.3725
158.2138, 191.4323
158.6959, 192.5531
159.1780, 193.7233
159.6601, 194.9203
160.1422, 196.1604
160.6243, 197.5287
161.1065, 199.1391
161.5886, 200.8596
162.0707, 202.1287
162.5528, 202.8291
163.0349, 203.2434
163.5170, 203.4663
163.9991, 203.5082
164.4813, 203.4579
164.9634, 203.3468
165.4455, 203.1786
165.9276, 202.9769
166.4097, 202.7876
166.8918, 202.5298
167.3740, 202.1994
167.8561, 201.8645
168.3382, 201.1331
168.8203, 199.4626
169.3024, 197.3366
169.7845, 195.2816
170.2667, 193.4475
170.7488, 191.8400
171.2309, 190.4853
171.7130, 189.4310
172.1951, 188.5754
172.6772, 187.9686
173.1594, 187.4739
173.6415, 186.8938
174.1236, 186.1110
174.6057, 185.1520
175.0878, 184.1601
175.5699, 182.7982
176.0521, 181.8227
176.5342, 181.9296
177.0163, 182.5349
177.4984, 182.5895
177.9805, 181.2298
178.4626, 178.4371
178.9448, 176.2822
179.4269, 174.9970
179.9090, 174.1055
180.3911, 173.8602
180.8732, 173.9609
181.3553, 173.7439
181.8375, 172.5808
182.3196, 170.3224
182.8017, 168.5841
183.2838, 167.6341
183.7659, 166.8329
184.2480, 165.9518
184.7301, 164.9489
185.2123, 163.8098
185.6944, 162.4852
186.1765, 160.9332
186.6586, 159.6445
187.1407, 159.0590
187.6228, 158.4307
188.1050, 157.0366
188.5871, 154.8389
189.0692, 152.6344
189.5513, 151.3168
190.0334, 150.8608
190.5155, 150.0252
190.9977, 148.2664
191.4798, 146.2608
191.9619, 144.7948
192.4440, 144.0101
192.9261, 143.4767
193.4082, 142.8138
193.8904, 142.0694
194.3725, 141.4109
194.8546, 140.8638
195.3367, 140.4390
195.8188, 140.2282
196.3009, 140.3929
196.7831, 140.4235
197.2652, 139.7305
197.7473, 138.5829
198.2294, 137.6944
198.7115, 137.6617
199.1936, 138.2462
199.6758, 138.3819
200.1579, 137.7249
200.6400, 137.0485
201.1221, 136.8537
201.6042, 136.9810
202.0863, 137.0225
202.5685, 136.5391
203.0506, 135.5883
203.5327, 135.2101
204.0148, 135.9201
204.4969, 136.7184
204.9790, 137.2659
205.4612, 137.5905
205.9433, 137.8382
206.4254, 138.1537
206.9075, 138.5529
207.3896, 138.6974
207.8717, 138.1322
208.3539, 137.7168
208.8360, 137.8567
209.3181, 138.4122
209.8002, 138.9534
210.2823, 139.0673
210.7644, 138.6752
211.2466, 138.5618
211.7287, 138.7887
212.2108, 139.2026
212.6929, 139.8536
213.1750, 140.6660
213.6571, 141.4683
214.1393, 142.1005
214.6214, 142.5384
215.1035, 142.9692
215.5856, 143.4224
216.0677, 143.8470
216.5498, 144.1972
217.0320, 144.4862
217.5141, 144.7769
217.9962, 145.1185
218.4783, 145.5140
218.9604, 145.9843
219.4425, 146.5548
219.9247, 147.1701
220.4068, 147.8598
220.8889, 148.5971
221.3710, 149.2296
221.8531, 149.5885
222.3352, 149.6532
222.8174, 149.8828
223.2995, 150.4474
223.7816, 151.0504
224.2637, 151.4972
224.7458, 151.7740
225.2279, 151.9123
225.7100, 151.9172
226.1922, 151.7856
226.6743, 151.5818
227.1564, 151.3354
227.6385, 151.0016
228.1206, 150.4256
228.6027, 149.5881
229.0849, 148.9380
229.5670, 148.9765
230.0491, 149.4662
230.5312, 149.7400
231.0133, 149.7014
231.4954, 149.3928
231.9776, 148.7329
232.4597, 147.6536
232.9418, 146.7036
233.4239, 146.3570
233.9060, 146.3478
234.3881, 146.2887
234.8703, 146.0375
235.3524, 145.7341
235.8345, 145.5852
236.3166, 145.6266
236.7987, 145.6691
237.2808, 145.8065
237.7630, 145.8306
238.2451, 145.4135
238.7272, 144.2901
239.2093, 142.9201
239.6914, 142.0451
240.1735, 141.7622
240.6557, 141.6646
241.1378, 141.7801
241.6199, 141.9180
242.1020, 141.8922
242.5841, 141.6336
243.0662, 141.2061
243.5484, 140.6294
244.0305, 139.7168
244.5126, 139.1882
244.9947, 139.6790
245.4768, 140.3843
245.9589, 140.5780
246.4410, 139.9989
246.9232, 139.0323
247.4053, 138.3122
247.8874, 137.8968
248.3695, 137.6127
248.8516, 137.4775
249.3337, 137.4125
249.8159, 137.3552
250.2980, 137.2871
250.7801, 137.2430
251.2622, 137.3109
251.7443, 137.6189
252.2264, 137.7357
252.7086, 137.5334
253.1907, 137.2190
253.6728, 136.7748
254.1549, 136.2581
254.6370, 135.9875
255.1191, 136.5923
255.6013, 138.8640
256.0834, 140.2702
256.5655, 140.4075
257.0476, 140.1038
257.5297, 139.8374
258.0118, 139.7231
258.4940, 139.6317
258.9761, 139.3428
259.4582, 138.5914
259.9403, 138.3508
260.4224, 138.9824
260.9045, 139.7319
261.3867, 140.1342
261.8688, 140.1468
262.3509, 140.0187
262.8330, 140.0345
263.3151, 140.2449
263.7972, 140.4207
264.2794, 140.5872
264.7615, 140.7064
265.2436, 140.7839
265.7257, 140.8033
266.2078, 140.7075
266.6899, 140.4206
267.1721, 139.8953
267.6542, 139.4878
268.1363, 139.1833
268.6184, 138.9804
269.1005, 138.9980
269.5826, 139.1510
270.0648, 139.1610
270.5469, 138.7655
271.0290, 137.9445
271.5111, 137.3876
271.9932, 137.2747
272.4753, 137.1882
272.9575, 136.9151
273.4396, 136.5155
273.9217, 136.1910
274.4038, 136.0897
274.8859, 136.1880
275.3680, 136.1943
275.8501, 136.2142
276.3322, 136.0594
276.8144, 135.5097
277.2965, 134.7323
277.7786, 134.0761
278.2607, 133.7182
278.7428, 133.6396
279.2249, 133.7942
279.7071, 134.6474
280.1892, 135.1498
280.6713, 134.7018
281.1534, 133.7662
281.6355, 133.1966
282.1176, 133.3907
282.5998, 134.0551
283.0819, 134.4373
283.5640, 134.3915
284.0461, 134.3935
284.5282, 134.6119
285.0103, 134.9170
285.4925, 135.1152
285.9746, 135.1396
286.4567, 135.0634
286.9388, 135.0054
287.4209, 134.9809
287.9030, 134.9243
288.3852, 134.7783
288.8673, 134.6138
289.3494, 134.5144
289.8315, 134.4986
290.3136, 134.5465
290.7957, 134.6703
291.2779, 134.8941
291.7600, 134.9765
292.2421, 134.8288
292.7242, 134.5647
293.2063, 134.2819
293.6884, 133.9927
294.1706, 133.6845
294.6527, 133.3118
295.1348, 132.8819
295.6169, 132.6098
296.0990, 132.6859
296.5811, 132.7906
297.0633, 132.7000
297.5454, 132.4050
298.0275, 131.9603
298.5096, 131.3769
298.9917, 130.6628
299.4738, 129.9333
299.9560, 129.1785
300.4381, 128.4237
300.9202, 127.6648
301.4023, 126.9100
301.8844, 126.1900
302.3665, 125.5351
302.8487, 124.9106
303.3308, 124.2064
303.8129, 123.3512
304.2950, 122.5323
304.7771, 121.8064
305.2592, 121.1776
305.7414, 120.6761
306.2235, 120.3416
306.7056, 120.0888
307.1877, 119.7394
307.6698, 119.2538
308.1519, 118.8391
308.6341, 118.6989
309.1162, 118.6465
309.5983, 118.3087
310.0804, 117.5478
310.5625, 116.6817
311.0446, 116.1737
311.5268, 116.0297
312.0089, 115.8223
312.4910, 115.3302
312.9731, 114.7954
313.4552, 114.5649
313.9373, 114.7002
314.4195, 114.8553
314.9016, 114.7160
315.3837, 114.2870
315.8658, 113.7983
316.3479, 113.0548
316.8300, 112.4082
317.3121, 112.2788
317.7943, 112.6321
318.2764, 112.9060
318.7585, 112.7196
319.2406, 112.1331
319.7227, 111.5651
320.2048, 110.9923
320.6870, 110.4578
321.1691, 109.9901
321.6512, 109.5827
322.1333, 109.1881
322.6154, 108.7553
323.0975, 108.3638
323.5797, 108.2448
324.0618, 108.5230
324.5439, 108.7502
325.0260, 108.6606
325.5081, 108.4274
325.9902, 108.4399
326.4724, 108.8738
326.9545, 109.3852
327.4366, 109.3718
327.9187, 108.7464
328.4008, 108.2313
328.8829, 108.0989
329.3651, 108.0804
329.8472, 107.8301
330.3293, 107.2882
330.8114, 106.6967
331.2935, 106.2909
331.7756, 106.0900
332.2578, 105.8960
332.7399, 105.6996
333.2220, 105.5115
333.7041, 105.3930
334.1862, 105.3197
334.6683, 105.1329
335.1505, 104.7209
335.6326, 104.0922
336.1147, 103.3890
336.5968, 102.4730
337.0789, 101.6285
337.5610, 100.9779
338.0432, 100.4879
338.5253, 100.0968
339.0074, 99.78760
339.4895, 99.53374
339.9716, 99.26833
340.4537, 98.99411
340.9359, 98.70809
341.4180, 98.33444
341.9001, 97.97527
342.3822, 97.80331
342.8643, 97.86869
343.3464, 98.00427
343.8286, 97.97626
344.3107, 97.70943
344.7928, 97.47836
345.2749, 97.20517
345.7570, 97.02451
346.2391, 97.15006
346.7213, 97.53996
347.2034, 97.82970
347.6855, 97.63509
348.1676, 96.91579
348.6497, 96.67249
349.1318, 97.30112
349.6140, 97.92205
350.0961, 98.10782
350.5782, 97.98603
351.0603, 97.91734
351.5424, 98.12556
352.0245, 98.51546
352.5067, 98.67363
352.9888, 98.20122
353.4709, 97.99123
353.9530, 98.28074
354.4351, 98.83706
354.9172, 99.44202
355.3994, 100.0111
355.8815, 100.4928
356.3636, 100.7896
356.8457, 100.7369
357.3278, 100.8327
357.8099, 101.1538
358.2920, 101.5502
358.7741, 101.9670
359.2563, 102.3718
359.7384, 102.6922
360.2205, 102.8380
360.7026, 102.7752
361.1847, 102.8705
361.6668, 103.0858
362.1490, 103.4837
362.6311, 104.2082
363.1132, 105.1257
363.5953, 105.9963
364.0774, 106.6797
364.5595, 107.1966
365.0417, 107.6267
365.5238, 107.8437
366.0059, 108.1479
366.4880, 108.7126
366.9701, 109.3058
367.4522, 109.6649
367.9344, 109.7159
368.4165, 109.6478
368.8986, 109.7573
369.3807, 110.1120
369.8628, 110.4658
370.3449, 110.8464
370.8271, 111.1961
371.3092, 111.5004
371.7913, 111.7495
372.2734, 111.9256
372.7555, 111.9699
373.2376, 111.8914
373.7198, 112.0104
374.2019, 112.6282
374.6840, 113.0678
375.1661, 112.9748
375.6482, 112.6002
376.1303, 112.3437
376.6125, 112.4187
377.0946, 112.6708
377.5767, 112.7069
378.0588, 112.3677
378.5409, 112.2680
379.0230, 112.8459
379.5052, 113.5622
379.9873, 113.9847
380.4694, 114.0292
380.9515, 113.9641
381.4336, 114.1170
381.9157, 114.4790
382.3979, 114.5649
382.8800, 114.0788
383.3621, 113.5763
383.8442, 113.4489
384.3263, 113.6249
384.8084, 113.8303
385.2906, 113.9111
385.7727, 113.9200
386.2548, 113.9991
386.7369, 114.1845
387.2190, 114.3063
387.7011, 114.1319
388.1833, 113.8701
388.6654, 113.8647
389.1475, 114.3450
389.6296, 114.7931
390.1117, 114.6533
390.5938, 114.0055
391.0760, 113.4763
391.5581, 113.2814
392.0402, 113.2850
392.5223, 113.3094
393.0044, 113.3572
393.4865, 113.3981
393.9687, 113.3733
394.4508, 113.3497
394.9329, 113.4651
395.4150, 113.7531
395.8971, 114.0433
396.3792, 114.1991
396.8614, 114.2175
397.3435, 114.1682
397.8256, 113.9030
398.3077, 113.7013
398.7898, 113.7571
399.2719, 114.0354
399.7540, 114.4329
400.2361, 114.9415
400.7183, 115.4646
401.2004, 115.6741
401.6825, 115.2365
402.1646, 115.1143
402.6467, 115.7729
403.1288, 116.6972
403.6110, 117.2209
404.0931, 117.2130
404.5752, 117.1402
405.0573, 117.5704
405.5394, 118.6378
406.0215, 119.5466
406.5037, 120.2379
406.9858, 120.8471
407.4679, 121.4217
407.9500, 121.9715
408.4321, 122.5176
408.9142, 123.0878
409.3964, 123.6436
409.8785, 124.0130
410.3606, 123.8892
410.8427, 123.9759
411.3248, 124.4999
411.8069, 125.1625
412.2891, 125.7153
412.7712, 126.0795
413.2533, 126.2787
413.7354, 126.3084
414.2175, 126.1011
414.6996, 125.9949
415.1818, 126.1333
415.6639, 126.2419
416.1460, 126.2493
416.6281, 126.1405
417.1102, 125.9058
417.5923, 125.5278
418.0745, 125.0297
418.5566, 124.4769
419.0387, 123.8594
419.5208, 123.2148
420.0029, 122.5433
420.4850, 121.8623
420.9672, 121.2328
421.4493, 120.6761
421.9314, 120.0172
422.4135, 119.0638
422.8956, 117.8260
423.3777, 116.4491
423.8599, 114.8023
424.3420, 113.2383
424.8241, 112.0601
425.3062, 111.1845
425.7883, 110.3045
426.2704, 109.3560
426.7526, 108.2987
427.2347, 107.0223
427.7168, 105.5037
428.1989, 104.0193
428.6810, 102.6322
429.1631, 101.4384
429.6453, 100.6167
430.1274, 100.3482
430.6095, 100.0396
431.0916, 99.28333
431.5737, 98.29908
432.0558, 97.52946
432.5380, 97.09590
433.0201, 96.82497
433.5022, 96.51659
433.9843, 96.15566
434.4664, 95.92700
434.9485, 96.06664
435.4307, 96.14400
435.9128, 95.70302
436.3949, 94.91467
436.8770, 94.41807
437.3591, 94.62755
437.8412, 95.32122
438.3234, 95.64909
438.8055, 95.07506
439.2876, 94.82210
439.7697, 95.13477
440.2518, 95.71168
440.7339, 96.39251
441.2160, 97.08138
441.6982, 97.56676
442.1803, 97.53353
442.6624, 96.85461
443.1445, 96.59074
443.6266, 97.15849
444.1087, 97.71638
444.5909, 98.05608
445.0730, 98.20137
445.5551, 98.18209
446.0372, 97.98687
446.5193, 97.76515
447.0014, 97.90462
447.4836, 98.58582
447.9657, 99.08814
448.4478, 99.08131
448.9299, 99.00015
449.4120, 99.12605
449.8941, 99.46648
450.3763, 99.83304
450.8584, 100.1734
451.3405, 100.4387
451.8226, 100.3350
452.3047, 99.68237
452.7868, 99.09933
453.2690, 98.99525
453.7511, 99.18145
454.2332, 99.46150
454.7153, 99.91935
455.1974, 100.2161
455.6795, 99.84669
456.1617, 99.01104
456.6438, 98.66211
457.1259, 99.23048
457.6080, 100.0298
458.0901, 100.0558
458.5722, 99.31562
459.0544, 98.82999
459.5365, 98.95509
460.0186, 99.28365
460.5007, 99.64600
460.9828, 99.94428
461.4649, 99.75874
461.9471, 98.70206
462.4292, 97.09354
462.9113, 96.25325
463.3934, 96.97869
463.8755, 97.37261
464.3576, 96.91361
464.8398, 96.19008
465.3219, 95.77935
465.8040, 95.80078
466.2861, 96.06652
466.7682, 96.41326
467.2503, 96.87968
467.7325, 97.06618
468.2146, 96.71415
468.6967, 96.35170
469.1788, 96.15041
469.6609, 96.01802
470.1430, 95.74087
470.6252, 95.21099
471.1073, 94.71120
471.5894, 94.86827
472.0715, 95.92318
472.5536, 96.57142
473.0357, 96.26625
473.5179, 95.79890
474.0000, 95.57717
474.4821, 95.59161
474.9642, 95.67455
475.4463, 95.79140
475.9284, 95.88838
476.4106, 95.81197
476.8927, 95.52909
477.3748, 95.28743
477.8569, 95.25753
478.3390, 95.30633
478.8211, 95.22327
479.3033, 94.97677
479.7854, 94.68433
480.2675, 94.31805
480.7496, 93.96677
481.2317, 93.86105
481.7138, 94.05392
482.1959, 94.20660
482.6780, 94.00661
483.1602, 93.44991
483.6423, 92.89995
484.1244, 92.17215
484.6065, 91.64924
485.0886, 91.62493
485.5707, 91.88073
486.0529, 92.06092
486.5350, 92.03197
487.0171, 91.83643
487.4992, 91.52866
487.9813, 91.02645
488.4634, 90.63390
488.9456, 90.43456
489.4277, 90.24688
489.9098, 89.98183
490.3919, 89.65804
490.8740, 89.34786
491.3561, 89.10659
491.8383, 88.87730
492.3204, 88.46461
492.8025, 87.74509
493.2846, 87.18764
493.7667, 87.07017
494.2488, 87.02217
494.7310, 86.75598
495.2131, 86.28075
495.6952, 85.87340
496.1773, 85.83154
496.6594, 85.99639
497.1415, 85.89378
497.6237, 85.45286
498.1058, 85.03679
498.5879, 84.88773
499.0700, 84.87178
499.5521, 84.71727
500.0342, 84.34124
500.5164, 83.99561
500.9985, 83.84709
501.4806, 83.80036
501.9627, 83.66946
502.4448, 83.41596
502.9269, 83.15709
503.4091, 83.01311
503.8912, 82.98843
504.3733, 82.90320
504.8554, 82.68035
505.3375, 82.49034
505.8196, 82.45359
506.3018, 82.47068
506.7839, 82.31353
507.2660, 81.91653
507.7481, 81.56990
508.2302, 81.78770
508.7123, 82.83352
509.1945, 83.48934
509.6766, 83.54704
510.1587, 83.41850
510.6408, 83.15588
511.1229, 82.83328
511.6050, 82.54157
512.0872, 82.31300
512.5693, 82.17915
513.0514, 82.21766
513.5335, 82.44805
514.0156, 82.69994
514.4977, 82.91145
514.9799, 83.16504
515.4620, 83.60577
515.9441, 84.18494
516.4262, 84.58418
516.9083, 84.49543
517.3904, 84.25548
517.8726, 84.30561
518.3547, 84.63567
518.8368, 85.02703
519.3189, 85.41081
519.8010, 85.75431
520.2831, 85.94956
520.7653, 85.93094
521.2474, 85.98889
521.7295, 86.24538
522.2116, 86.54591
522.6937, 86.74738
523.1758, 86.85126
523.6580, 86.94749
524.1401, 87.09950
524.6222, 87.29697
525.1043, 87.49341
525.5864, 87.73208
526.0685, 87.90093
526.5507, 87.84128
527.0328, 87.81509
527.5149, 88.07616
527.9970, 88.62363
528.4791, 89.23328
528.9612, 89.73746
529.4434, 90.13696
529.9255, 90.42266
530.4076, 90.54074
530.8897, 90.66896
531.3718, 90.89520
531.8539, 91.16547
532.3361, 91.43628
532.8182, 91.70382
533.3003, 91.95321
533.7824, 92.16894
534.2645, 92.36182
534.7466, 92.54614
535.2288, 92.72082
535.7109, 92.92941
536.1930, 93.21736
536.6751, 93.56915
537.1572, 93.87682
537.6393, 94.01421
538.1215, 94.26562
538.6036, 94.81796
539.0857, 95.48084
539.5678, 96.02823
540.0499, 96.40928
540.5320, 96.69615
541.0142, 96.95572
541.4963, 97.18730
541.9784, 97.40483
542.4605, 97.54175
542.9426, 97.74488
543.4247, 98.10033
543.9068, 98.50863
544.3889, 98.83353
544.8710, 99.04460
545.3531, 99.27263
545.8353, 99.74116
546.3174, 100.4120
546.7995, 100.7574
547.2816, 100.5732
547.7637, 100.4371
548.2458, 100.7602
548.7280, 101.3596
549.2101, 101.9927
549.6922, 102.6932
550.1743, 103.2615
550.6564, 103.5191
551.1385, 103.5659
551.6207, 103.5672
552.1028, 103.5542
552.5849, 103.6372
553.0670, 103.9492
553.5491, 104.4932
554.0313, 104.9007
554.5134, 105.0197
554.9955, 105.2066
555.4776, 105.6158
555.9597, 106.1234
556.4418, 106.5861
556.9240, 106.9622
557.4061, 107.2633
557.8882, 107.4658
558.3703, 107.5576
558.8524, 107.8627
559.3345, 108.5230
559.8167, 109.1956
560.2988, 109.8736
560.7809, 110.4498
561.2630, 110.7613
561.7451, 110.7479
562.2272, 110.6591
562.7094, 110.7085
563.1915, 110.8573
563.6736, 110.9254
564.1557, 110.8444
564.6378, 110.9513
565.1199, 111.6595
565.6021, 112.7536
566.0842, 113.2967
566.5663, 113.0378
567.0484, 112.5964
567.5305, 112.0651
568.0126, 111.5250
568.4948, 111.0254
568.9769, 110.6015
569.4590, 110.3654
569.9411, 110.4513
570.4232, 110.8396
570.9053, 111.1464
571.3875, 111.4035
571.8696, 111.5262
572.3517, 111.4426
572.8338, 111.2632
573.3159, 111.0106
573.7980, 110.7266
574.2802, 110.6055
574.7623, 110.9081
575.2444, 111.5255
575.7265, 112.0326
576.2086, 112.4444
576.6907, 112.6668
577.1729, 112.4838
577.6550, 112.1794
578.1371, 112.2406
578.6192, 112.7653
579.1013, 113.2475
579.5834, 113.4013
580.0656, 113.4690
580.5477, 113.6963
581.0298, 114.1094
581.5119, 114.7036
581.9940, 115.5038
582.4761, 116.4304
582.9583, 117.2107
583.4404, 117.6563
583.9225, 118.2453
584.4046, 119.3488
584.8867, 120.2879
585.3688, 120.5011
585.8510, 120.1283
586.3331, 119.7064
586.8152, 119.5520
587.2973, 119.5927
587.7794, 119.7418
588.2615, 120.0532
588.7437, 120.0929
589.2258, 119.6927
589.7079, 119.0434
590.1900, 118.3908
590.6721, 117.7002
591.1542, 116.7222
591.6364, 114.9757
592.1185, 113.2593
592.6006, 112.6161
593.0827, 112.6046
593.5648, 111.7700
594.0469, 109.5447
594.5291, 106.8003
595.0112, 104.7242
595.4933, 103.4333
595.9754, 102.2967
596.4575, 101.4383
596.9396, 100.5740
597.4218, 99.65215
597.9039, 98.64096
598.3860, 97.46078
598.8681, 96.09034
599.3502, 94.71061
599.8323, 93.48854
600.3145, 92.42259
600.7966, 91.66273
601.2787, 91.39396
601.7608, 91.05458
602.2429, 90.15266
602.7250, 89.02691
603.2072, 88.24898
603.6893, 88.01987
604.1714, 87.72725
604.6535, 86.98270
605.1356, 86.01545
605.6177, 85.20647
606.0999, 84.57785
606.5820, 83.79917
607.0641, 82.57930
607.5462, 81.08524
608.0283, 80.07180
608.5104, 80.09299
608.9926, 79.81852
609.4747, 79.08096
609.9568, 78.13965
610.4389, 77.07207
610.9210, 75.95952
611.4031, 74.97523
611.8853, 74.27693
612.3674, 73.69254
612.8495, 72.73600
613.3316, 71.33574
613.8137, 70.41340
614.2958, 70.49384
614.7780, 70.72326
615.2601, 70.11694
615.7422, 68.83033
616.2243, 67.80021
616.7064, 67.40030
617.1885, 67.13054
617.6707, 66.73013
618.1528, 66.21755
618.6349, 65.58857
619.1170, 64.85128
619.5991, 64.18260
620.0812, 63.82492
620.5634, 63.81134
621.0455, 63.57862
621.5276, 62.84706
622.0097, 62.23626
622.4918, 62.06498
622.9739, 61.96839
623.4561, 61.51191
623.9382, 60.63939
624.4203, 59.75083
624.9024, 59.14150
625.3845, 58.77020
625.8666, 58.56591
626.3487, 58.53849
626.8308, 58.55834
627.3129, 58.64105
627.7950, 58.66598
628.2772, 58.31517
628.7593, 57.46909
629.2414, 56.88475
629.7235, 56.98740
630.2056, 57.10395
630.6877, 56.63530
631.1699, 55.80684
631.6520, 55.20775
632.1341, 55.11049
632.6162, 55.31725
633.0983, 55.58448
633.5804, 56.00903
634.0626, 55.97228
634.5447, 55.08162
635.0268, 54.22797
635.5089, 53.75956
635.9910, 53.58495
636.4731, 53.60930
636.9553, 53.85929
637.4374, 54.08266
637.9195, 54.08594
638.4016, 53.94260
638.8837, 53.78675
639.3658, 53.63379
639.8480, 53.43394
640.3301, 53.13722
640.8122, 52.78947
641.2943, 52.54332
641.7764, 52.49061
642.2585, 52.40901
642.7407, 52.17192
643.2228, 52.01775
643.7049, 52.19898
644.1870, 52.58737
644.6691, 52.86570
645.1512, 52.87537
645.6334, 52.66083
646.1155, 52.14545
646.5976, 51.33520
647.0797, 51.01054
647.5618, 51.50014
648.0439, 52.03941
648.5261, 51.92648
649.0082, 51.39553
649.4903, 51.19179
649.9724, 51.59040
650.4545, 51.98230
650.9366, 52.18774
651.4188, 52.22537
651.9009, 52.04158
652.3830, 51.68038
652.8651, 51.34962
653.3472, 51.20546
653.8293, 51.20568
654.3115, 51.17756
654.7936, 51.03997
655.2757, 51.07128
655.7578, 51.59740
656.2399, 52.05328
656.7220, 52.03194
657.2042, 51.67104
657.6863, 51.43389
658.1684, 51.57798
658.6505, 51.77467
659.1326, 51.67297
659.6147, 51.37718
660.0969, 51.18252
660.5790, 51.15423
661.0611, 51.18538
661.5432, 51.19961
662.0253, 51.19071
662.5074, 51.09135
662.9896, 50.74329
663.4717, 50.51586
663.9538, 50.55656
664.4359, 50.64019
664.9180, 50.53003
665.4001, 50.27896
665.8823, 50.17234
666.3644, 50.45400
666.8465, 50.86521
667.3286, 50.90845
667.8107, 50.59433
668.2928, 50.25240
668.7750, 49.87602
669.2571, 49.68932
669.7392, 50.03300
670.2213, 50.83271
670.7034, 51.29354
671.1855, 51.28854
671.6677, 51.08454
672.1498, 50.47524
672.6319, 49.87984
673.1140, 49.89180
673.5961, 50.46498
674.0782, 50.95858
674.5604, 50.86844
675.0425, 50.36576
675.5246, 49.97079
676.0067, 49.66145
676.4888, 49.57541
676.9709, 49.91539
677.4531, 50.29106
677.9352, 50.33541
678.4173, 50.14898
678.8994, 50.09947
679.3815, 50.47048
679.8636, 50.74169
680.3458, 50.49974
680.8279, 50.00183
681.3100, 49.59350
681.7921, 49.36036
682.2742, 49.34768
682.7563, 49.63470
683.2385, 50.12351
683.7206, 50.31869
684.2027, 50.07890
684.6848, 49.85332
685.1669, 49.66139
685.6490, 49.53549
686.1312, 49.52303
686.6133, 49.59502
687.0954, 49.67732
687.5775, 49.78558
688.0596, 49.81768
688.5417, 49.55478
689.0239, 49.16679
689.5060, 49.12214
689.9881, 49.49567
690.4702, 49.84998
690.9523, 49.82164
691.4344, 49.50600
691.9166, 49.39024
692.3987, 49.69964
692.8808, 49.84906
693.3629, 49.67784
693.8450, 49.47124
694.3271, 49.40827
694.8093, 49.45316
695.2914, 49.48101
695.7735, 49.43550
696.2556, 49.35849
696.7377, 49.25819
697.2198, 49.16225
697.7020, 49.23578
698.1841, 49.52441
698.6662, 49.64898
699.1483, 49.28334
699.6304, 48.58513
700.1125, 48.15727
700.5947, 48.05719
701.0768, 48.15876
701.5589, 48.69941
702.0410, 49.22059
702.5231, 49.46983
703.0052, 49.47365
703.4874, 49.32652
703.9695, 49.06020
704.4516, 48.74198
704.9337, 48.35781
705.4158, 47.97411
705.8979, 48.01403
706.3801, 48.59289
706.8622, 49.04626
707.3442, 48.92309
707.8264, 48.46413
708.3085, 48.30113
708.7906, 48.61343
709.2727, 48.74531
709.7548, 48.46562
710.2369, 48.17705
710.7191, 48.13996
711.2012, 48.25878
711.6833, 48.33681
712.1654, 48.30303
712.6475, 48.23449
713.1296, 48.22596
713.6118, 48.26321
714.0939, 48.26460
714.5760, 48.22472
715.0581, 48.16531
715.5402, 48.06932
716.0223, 47.98798
716.5045, 48.04186
716.9866, 48.27421
717.4687, 48.37141
717.9508, 48.15211
718.4329, 47.95736
718.9150, 48.04226
719.3972, 48.22311
719.8793, 48.17287
720.3614, 47.83731
720.8435, 47.52915
721.3256, 47.58518
721.8077, 47.90929
722.2899, 48.13093
722.7720, 48.24552
723.2541, 48.30992
723.7362, 48.35885
724.2183, 48.33664
724.7004, 48.09743
725.1826, 47.64874
725.6647, 47.47203
726.1468, 47.84538
726.6289, 48.19136
727.1110, 48.28223
727.5931, 48.24866
728.0753, 48.24822
728.5574, 48.29167
729.0395, 48.27370
729.5216, 48.09945
730.0037, 47.84666
730.4858, 47.67841
730.9680, 47.59515
731.4501, 47.62767
731.9322, 47.85590
732.4143, 48.02166
732.8964, 47.81733
733.3785, 47.35564
733.8607, 47.23095
734.3428, 47.72288
734.8249, 48.11634
735.3070, 48.20460
735.7891, 48.19057
736.2712, 48.21324
736.7534, 48.28571
737.2355, 48.39167
737.7176, 48.52785
738.1997, 48.65531
738.6818, 48.66535
739.1639, 48.58558
739.6461, 48.74441
740.1282, 49.24418
740.6103, 49.61556
741.0924, 49.51731
741.5745, 49.18066
742.0566, 49.14394
742.5388, 49.52478
743.0209, 49.77143
743.5030, 49.72465
743.9851, 49.65331
744.4672, 49.70757
744.9493, 49.82768
745.4315, 49.89643
745.9136, 49.88641
746.3957, 49.89188
746.8778, 50.08401
747.3599, 50.34892
747.8420, 50.25043
748.3242, 49.77573
748.8063, 49.48268
749.2884, 49.59375
749.7705, 49.86876
750.2526, 50.05642
750.7347, 50.15428
751.2169, 50.15769
751.6990, 49.92352
752.1811, 49.78857
752.6632, 49.98920
753.1453, 50.20223
753.6274, 50.04497
754.1096, 49.59253
754.5917, 49.28519
755.0738, 49.42067
755.5559, 49.71255
756.0380, 49.74949
756.5201, 49.58989
757.0023, 49.47664
757.4844, 49.44735
757.9665, 49.50430
758.4486, 49.69189
758.9307, 49.92596
759.4128, 49.91925
759.8950, 49.49996
760.3771, 49.14706
760.8592, 48.84620
761.3413, 48.62254
761.8234, 48.50054
762.3055, 48.45912
762.7877, 48.47837
763.2698, 48.55538
763.7519, 48.63601
764.2340, 48.71997
764.7161, 48.76154
765.1982, 48.65214
765.6804, 48.41795
766.1625, 48.23010
766.6446, 48.15809
767.1267, 48.09877
767.6088, 47.91205
768.0909, 47.59029
768.5731, 47.29557
769.0552, 46.97956
769.5373, 46.77029
770.0194, 46.77016
770.5015, 46.82258
770.9836, 46.79935
771.4658, 46.71317
771.9479, 46.66040
772.4300, 46.59208
772.9121, 46.67749
773.3942, 47.34985
773.8763, 48.11466
774.3585, 48.02495
774.8406, 47.10443
775.3227, 46.28233
775.8048, 46.18221
776.2869, 46.50261
776.7690, 46.48566
777.2512, 46.03824
777.7333, 45.91746
778.2154, 46.39824
778.6975, 46.78901
779.1796, 46.64793
779.6617, 46.20778
780.1439, 45.83121
780.6260, 45.51259
781.1081, 45.32213
781.5902, 45.41750
782.0723, 45.50473
782.5544, 45.33912
783.0366, 45.05362
783.5187, 44.89378
784.0008, 44.91460
784.4829, 44.96240
784.9650, 44.84809
785.4471, 44.68201
785.9293, 44.90580
786.4114, 45.52858
786.8935, 45.80852
787.3756, 45.48026
787.8577, 45.00330
788.3398, 44.76441
788.8220, 44.74857
789.3041, 44.83672
789.7861, 45.24216
790.2682, 45.44106
790.7504, 45.24753
791.2325, 44.97290
791.7146, 44.73352
792.1967, 44.58880
792.6788, 44.65195
793.1609, 44.98832
793.6431, 45.31935
794.1252, 45.39256
794.6073, 45.29764
795.0894, 45.18517
795.5715, 45.06409
796.0536, 44.89947
796.5358, 44.66676
797.0179, 44.48717
797.5000, 44.55434
797.9821, 44.88498
798.4642, 45.05021
798.9464, 44.95285
799.4285, 44.86699
799.9106, 44.84599
800.3927, 44.87211
800.8748, 45.00751
801.3569, 45.19990
801.8391, 45.19876
802.3212, 44.73484
802.8033, 44.36373
803.2854, 44.50386
803.7675, 44.81489
804.2496, 44.85859
804.7318, 44.66929
805.2139, 44.57626
805.6960, 44.76432
806.1781, 45.04009
806.6602, 45.07899
807.1423, 44.90026
807.6245, 44.75673
808.1066, 44.65239
808.5887, 44.62262
809.0708, 44.71993
809.5529, 44.84934
810.0350, 44.85486
810.5172, 44.70554
810.9993, 44.63716
811.4814, 44.70555
811.9635, 44.78251
812.4456, 44.80135
812.9277, 44.83627
813.4099, 45.03289
813.8920, 45.32966
814.3741, 45.42725
814.8562, 45.05254
815.3383, 44.68684
815.8204, 44.96785
816.3026, 45.60397
816.7847, 45.93807
817.2668, 45.91206
817.7489, 45.82264
818.2310, 45.84249
818.7131, 45.87164
819.1953, 45.66044
819.6774, 45.11207
820.1595, 44.96856
820.6416, 45.48403
821.1237, 45.92141
821.6058, 45.92587
822.0880, 45.77172
822.5701, 45.76408
823.0522, 45.90070
823.5343, 45.99772
824.0164, 46.04010
824.4985, 46.01035
824.9807, 45.81208
825.4628, 45.59550
825.9449, 45.55151
826.4270, 45.66141
826.9091, 45.78157
827.3912, 45.84685
827.8734, 45.81611
828.3555, 45.51552
828.8376, 45.05695
829.3197, 44.96736
829.8018, 45.29468
830.2839, 45.62543
830.7661, 45.76593
831.2482, 45.76595
831.7303, 45.69117
832.2124, 45.52181
832.6945, 45.42076
833.1766, 45.33511
833.6588, 45.40081
834.1409, 45.89285
834.6230, 46.34342
835.1051, 46.26585
835.5872, 45.76376
836.0693, 45.44120
836.5515, 45.58439
837.0336, 45.77507
837.5157, 45.83471
837.9978, 45.78710
838.4799, 45.58216
838.9620, 45.29403
839.4442, 45.13469
839.9263, 45.20457
840.4084, 45.38791
840.8905, 45.57053
841.3726, 45.73642
841.8547, 45.78823
842.3369, 45.72289
842.8190, 45.54185
843.3011, 45.19473
843.7832, 44.88055
844.2653, 44.85295
844.7474, 45.10342
845.2296, 45.27386
845.7117, 45.26825
846.1938, 45.32192
846.6759, 45.59850
847.1580, 45.80324
847.6401, 45.66600
848.1223, 45.32991
848.6044, 45.14162
849.0865, 45.22063
849.5686, 45.30798
850.0507, 45.27648
850.5328, 45.17528
851.0150, 44.95643
851.4971, 44.72738
851.9792, 44.77473
852.4613, 45.15564
852.9434, 45.56102
853.4255, 45.69604
853.9077, 45.61157
854.3898, 45.38324
854.8719, 45.01066
855.3540, 44.94088
855.8361, 45.33908
856.3182, 45.71176
856.8004, 45.66643
857.2825, 45.33252
857.7646, 45.12532
858.2467, 45.10170
858.7288, 45.08355
859.2109, 45.12252
859.6931, 45.10655
860.1752, 44.87592
860.6573, 44.63702
861.1394, 44.71173
861.6215, 45.10978
862.1036, 45.35734
862.5858, 45.07629
863.0679, 44.78735
863.5500, 44.91059
864.0321, 45.21352
864.5142, 45.39747
864.9963, 45.41934
865.4785, 45.32161
865.9606, 45.11596
866.4427, 44.90830
866.9248, 44.91571
867.4069, 45.07868
867.8890, 45.04878
868.3712, 44.79946
868.8533, 44.57955
869.3354, 44.49194
869.8175, 44.47761
870.2996, 44.46825
870.7817, 44.46416
871.2639, 44.41166
871.7460, 44.19916
872.2280, 44.13497
872.7101, 44.37011
873.1923, 44.67623
873.6744, 45.00386
874.1565, 45.28652
874.6386, 45.34923
875.1207, 45.06437
875.6028, 44.86416
876.0850, 45.01556
876.5671, 45.19385
877.0492, 45.11493
877.5313, 44.90911
878.0134, 44.86039
878.4955, 45.00622
878.9777, 45.06397
879.4598, 44.69572
879.9419, 44.25326
880.4240, 44.46430
880.9061, 45.10894
881.3882, 45.32428
881.8704, 44.99367
882.3525, 44.62350
882.8346, 44.53181
883.3167, 44.60372
883.7988, 44.59516
884.2809, 44.48491
884.7631, 44.46661
885.2452, 44.59969
885.7273, 44.67323
886.2094, 44.56676
886.6915, 44.41841
887.1736, 44.40369
887.6558, 44.50964
888.1379, 44.53230
888.6200, 44.41605
889.1021, 44.28678
889.5842, 44.03080
890.0663, 43.89507
890.5485, 44.15313
891.0306, 44.63201
891.5127, 44.96478
891.9948, 45.04670
892.4769, 45.13671
892.9590, 45.43808
893.4412, 45.79892
893.9233, 46.13413
894.4054, 46.38090
894.8875, 46.38119
895.3696, 46.12971
895.8517, 45.79298
896.3339, 45.47389
896.8160, 45.22174
897.2981, 45.16690
897.7802, 45.29021
898.2623, 45.39447
898.7444, 45.45825
899.2266, 45.55655
899.7087, 45.74030
900.1908, 45.93519
900.6729, 46.03756
901.1550, 46.04698
901.6371, 45.95475
902.1193, 45.61832
902.6014, 45.44708
903.0835, 45.69976
903.5656, 45.96106
904.0477, 45.82924
904.5298, 45.50229
905.0120, 45.53010
905.4941, 46.14442
905.9762, 46.61372
906.4583, 46.69892
906.9404, 46.65491
907.4225, 46.50858
907.9047, 46.39164
908.3868, 46.51004
908.8689, 46.85925
909.3510, 47.19019
909.8331, 47.35910
910.3152, 47.44189
910.7974, 47.46002
911.2795, 47.47099
911.7616, 47.61700
912.2437, 47.87413
912.7258, 48.04229
913.2079, 48.02607
913.6901, 48.03383
914.1722, 48.46375
914.6543, 49.17372
915.1364, 49.23132
915.6185, 48.60506
916.1006, 48.25309
916.5828, 48.44363
917.0649, 48.82280
917.5470, 49.10091
918.0291, 49.33525
918.5112, 49.76498
918.9933, 50.60123
919.4755, 51.08989
919.9576, 50.96372
920.4397, 50.87327
920.9218, 51.17435
921.4039, 51.57405
921.8860, 51.65313
922.3682, 51.43658
922.8503, 51.59442
923.3324, 52.55090
923.8145, 53.44207
924.2966, 54.04230
924.7787, 54.47237
925.2609, 54.72697
925.7430, 54.91312
926.2251, 55.20333
926.7072, 55.64749
927.1893, 56.21261
927.6714, 57.07795
928.1536, 57.87101
928.6357, 58.02108
929.1178, 57.88734
929.5999, 58.20272
930.0820, 59.04041
930.5641, 59.97729
931.0463, 60.75623
931.5284, 61.42293
932.0105, 62.00584
932.4926, 62.53199
932.9747, 63.07539
933.4568, 63.64844
933.9390, 64.43240
934.4211, 65.50587
934.9032, 66.63155
935.3853, 67.53535
935.8674, 68.27242
936.3495, 69.17940
936.8317, 70.30418
937.3138, 71.36389
937.7959, 72.19278
938.2780, 73.27835
938.7601, 75.07346
939.2422, 77.15368
939.7244, 78.70933
940.2065, 79.57692
940.6886, 80.86531
941.1707, 82.92818
941.6528, 84.91483
942.1349, 86.44650
942.6171, 88.04527
943.0992, 90.16183
943.5813, 92.64966
944.0634, 95.03783
944.5455, 97.15251
945.0276, 99.50220
945.5098, 102.2406
945.9919, 105.3166
946.4740, 108.9207
946.9561, 112.6882
947.4382, 115.9288
947.9203, 118.7430
948.4025, 122.1512
948.8846, 126.8467
949.3667, 131.9395
949.8488, 136.6467
950.3309, 141.1887
950.8130, 145.7552
951.2952, 150.5107
951.7773, 155.9499
952.2594, 162.2045
952.7415, 168.7469
953.2236, 175.0752
953.7057, 181.3859
954.1879, 188.2692
954.6699, 195.6358
955.1520, 202.8741
955.6342, 209.9378
956.1163, 217.0197
956.5984, 224.2563
957.0805, 231.6049
957.5626, 238.9600
958.0447, 246.3711
958.5269, 253.6453
959.0090, 260.7909
959.4911, 267.9248
959.9732, 275.1573
960.4553, 282.1593
960.9374, 288.5546
961.4196, 294.5287
961.9017, 300.6420
962.3838, 307.1367
962.8659, 312.9947
963.3480, 318.0301
963.8301, 322.6367
964.3123, 326.9580
964.7944, 330.8621
965.2765, 334.3316
965.7586, 337.3120
966.2407, 339.6131
966.7228, 341.4263
967.2050, 342.1418
967.6871, 341.0052
968.1692, 339.4124
968.6513, 338.7851
969.1334, 337.8391
969.6155, 334.8704
970.0977, 329.7256
970.5798, 323.3413
971.0619, 315.8602
971.5440, 307.7114
972.0261, 299.3463
972.5082, 290.3078
972.9904, 279.9333
973.4725, 268.5616
973.9546, 256.8609
974.4367, 245.1081
974.9188, 233.4899
975.4009, 222.0652
975.8831, 211.0459
976.3652, 200.6517
976.8473, 190.9127
977.3294, 181.7548
977.8115, 173.1744
978.2936, 165.4628
978.7758, 158.7095
979.2579, 152.6988
979.7400, 147.2669
980.2221, 142.2930
980.7042, 137.4102
981.1863, 132.6975
981.6685, 128.8235
982.1506, 125.9349
982.6327, 123.3427
983.1148, 120.6268
983.5969, 117.8827
984.0790, 115.2371
984.5612, 112.6921
985.0433, 110.6520
985.5254, 109.2332
986.0075, 107.5445
986.4896, 105.1565
986.9717, 103.0972
987.4539, 102.3754
987.9360, 102.4573
988.4181, 101.5749
988.9002, 99.22987
989.3823, 97.73247
989.8644, 97.50091
990.3466, 97.31291
990.8287, 96.79170
991.3108, 96.15752
991.7929, 95.60657
992.2750, 95.12585
992.7571, 94.64119
993.2393, 94.12952
993.7214, 93.65964
994.2035, 93.20338
994.6856, 92.82197
995.1677, 92.62968
995.6498, 92.46318
996.1320, 92.05412
996.6141, 91.46107
997.0962, 91.18167
997.5783, 91.61301
998.0604, 91.85722
998.5425, 91.54089
999.0247, 91.12374
999.5068, 90.87032
999.9889, 90.71139
1000.471, 90.50330
1000.953, 90.24060
1001.435, 90.07441
1001.917, 90.07012
1002.399, 90.17237
1002.882, 90.55621
1003.364, 90.85477
1003.846, 90.64193
1004.328, 90.10231
1004.810, 89.63026
1005.292, 89.32280
1005.774, 89.03406
1006.256, 88.74150
1006.739, 88.33353
1007.221, 87.54678
1007.703, 86.68092
1008.185, 86.28734
1008.667, 86.20169
1009.149, 85.80330
1009.631, 84.89505
1010.113, 83.88396
1010.595, 83.09238
1011.078, 82.45055
1011.560, 81.97316
1012.042, 81.53008
1012.524, 80.74232
1013.006, 79.64967
1013.488, 78.69930
1013.970, 78.07529
1014.452, 77.37346
1014.935, 75.99431
1015.417, 74.31398
1015.899, 73.35706
1016.381, 72.96935
1016.863, 72.49306
1017.345, 71.82186
1017.827, 70.93348
1018.309, 69.80361
1018.791, 68.69443
1019.274, 68.00767
1019.756, 67.64346
1020.238, 67.06736
1020.720, 66.29365
1021.202, 65.67606
1021.684, 65.28527
1022.166, 64.81758
1022.648, 64.06000
1023.130, 63.32127
1023.613, 63.16542
1024.095, 63.53834
1024.577, 63.50735
1025.059, 63.02446
1025.541, 62.49663
1026.023, 61.93959
1026.505, 61.61891
1026.987, 61.74699
1027.469, 62.11332
1027.952, 62.35215
1028.434, 62.46698
1028.916, 62.38514
1029.398, 62.07979
1029.880, 61.61755
1030.362, 60.81907
1030.844, 60.35389
1031.326, 60.85789
1031.809, 61.75811
1032.291, 61.82312
1032.773, 60.89405
1033.255, 60.49331
1033.737, 60.82985
1034.219, 61.25963
1034.701, 61.81934
1035.183, 62.20564
1035.666, 62.14134
1036.148, 61.80777
1036.630, 61.53963
1037.112, 61.28654
1037.594, 61.39392
1038.076, 62.31727
1038.558, 62.85972
1039.040, 62.44483
1039.522, 61.99394
1040.005, 62.11983
1040.487, 62.61769
1040.969, 63.09224
1041.451, 63.57354
1041.933, 63.87974
1042.415, 63.81030
1042.897, 63.84489
1043.379, 64.17883
1043.861, 64.53703
1044.344, 64.77981
1044.826, 64.90896
1045.308, 64.88438
1045.790, 64.65465
1046.272, 64.63217
1046.754, 65.17719
1047.236, 65.49783
1047.718, 65.30960
1048.201, 64.92387
1048.683, 64.41613
1049.165, 63.91809
1049.647, 63.68054
1050.129, 63.76085
1050.611, 63.75276
1051.093, 63.56273
1051.575, 63.29456
1052.057, 62.87105
1052.540, 62.48240
1053.022, 62.24180
1053.504, 62.14257
1053.986, 62.18166
1054.468, 62.36140
1054.950, 62.53655
1055.432, 62.69064
1055.914, 62.80489
1056.396, 62.86263
1056.879, 62.88871
1057.361, 62.84891
1057.843, 62.81322
1058.325, 62.94374
1058.807, 63.25701
1059.289, 63.42957
1059.771, 63.35469
1060.253, 63.12396
1060.736, 62.64513
1061.218, 62.14746
1061.700, 61.92098
1062.182, 61.74143
1062.664, 61.15652
1063.146, 60.13401
1063.628, 59.23781
1064.110, 58.75071
1064.593, 58.30931
1065.075, 57.85649
1065.557, 57.30136
1066.039, 56.40034
1066.521, 55.43718
1067.003, 54.92316
1067.485, 54.87376
1067.967, 54.71941
1068.449, 54.21997
1068.932, 53.62822
1069.414, 52.96369
1069.896, 52.34375
1070.378, 51.81807
1070.860, 51.41269
1071.342, 51.16053
1071.824, 51.05598
1072.306, 51.05587
1072.788, 51.25866
1073.271, 51.29980
1073.753, 50.84251
1074.235, 50.33613
1074.717, 50.11763
1075.199, 50.04248
1075.681, 49.90474
1076.163, 49.69113
1076.645, 49.47877
1077.128, 49.24750
1077.610, 49.16836
1078.092, 49.52728
1078.574, 49.83864
1079.056, 49.67041
1079.538, 49.34093
1080.020, 49.20861
1080.502, 49.29414
1080.984, 49.51275
1081.467, 49.88607
1081.949, 50.14725
1082.431, 50.06034
1082.913, 49.96139
1083.395, 50.07257
1083.877, 50.26513
1084.359, 50.36666
1084.841, 50.42448
1085.323, 50.60938
1085.806, 50.97317
1086.288, 51.38453
1086.770, 51.88160
1087.252, 52.29534
1087.734, 52.54372
1088.216, 52.66801
1088.698, 52.70122
1089.180, 52.64527
1089.662, 52.47569
1090.145, 52.18622
1090.627, 51.89109
1091.109, 51.51212
1091.591, 51.29507
1092.073, 51.47639
1092.555, 51.73298
1093.037, 51.87121
1093.519, 51.87538
1094.002, 51.70556
1094.484, 51.37806
1094.966, 51.13401
1095.448, 51.17676
1095.930, 51.12606
1096.412, 50.76513
1096.894, 50.37207
1097.376, 50.17038
1097.859, 50.01331
1098.341, 49.63251
1098.823, 49.06285
1099.305, 48.67867
1099.787, 48.64154
1100.269, 48.63551
1100.751, 48.62947
1101.233, 48.57759
1101.715, 48.48537
1102.198, 48.31428
1102.680, 47.96145
1103.162, 47.49276
1103.644, 47.14404
1104.126, 46.94434
1104.608, 46.87844
1105.090, 47.17363
1105.572, 47.30366
1106.054, 47.07473
1106.537, 46.62146
1107.019, 45.84144
1107.501, 44.97052
1107.983, 44.63797
1108.465, 45.04358
1108.947, 45.08218
1109.429, 44.26912
1109.911, 43.63413
1110.394, 43.60323
1110.876, 43.57528
1111.358, 43.04421
1111.840, 42.34903
1112.322, 42.11614
1112.804, 42.38486
1113.286, 42.41969
1113.768, 42.10241
1114.250, 41.74662
1114.733, 41.38053
1115.215, 40.96559
1115.697, 40.39781
1116.179, 39.85230
1116.661, 39.51374
1117.143, 39.37768
1117.625, 39.43300
1118.107, 39.89548
1118.589, 40.02893
1119.072, 39.72673
1119.554, 39.27063
1120.036, 38.57665
1120.518, 38.05333
1121.000, 38.16486
1121.482, 38.63011
1121.964, 38.58155
1122.446, 37.88689
1122.929, 37.51924
1123.411, 37.63256
1123.893, 37.49905
1124.375, 36.83773
1124.857, 36.30535
1125.339, 36.37174
1125.821, 36.70096
1126.303, 36.71650
1126.786, 36.43574
1127.268, 36.17633
1127.750, 35.94233
1128.232, 35.71015
1128.714, 35.48350
1129.196, 35.20254
1129.678, 34.82632
1130.160, 34.48198
1130.642, 34.33474
1131.125, 34.30636
1131.607, 34.08418
1132.089, 33.68745
1132.571, 33.47749
1133.053, 33.46917
1133.535, 33.46776
1134.017, 33.41346
1134.499, 33.31429
1134.981, 33.17670
1135.464, 32.99648
1135.946, 32.73242
1136.428, 32.42288
1136.910, 32.22770
1137.392, 32.12847
1137.874, 32.05207
1138.356, 31.97009
1138.838, 31.75970
1139.321, 31.35553
1139.803, 31.06353
1140.285, 31.36805
1140.767, 31.87631
1141.249, 31.80106
1141.731, 31.39565
1142.213, 31.21714
1142.695, 31.25528
1143.177, 31.23207
1143.660, 31.06842
1144.142, 30.91704
1144.624, 30.89777
1145.106, 30.90585
1145.588, 30.79743
1146.070, 30.68059
1146.552, 30.77967
1147.034, 30.93469
1147.516, 30.78991
1147.999, 30.36769
1148.481, 30.01998
1148.963, 29.89164
1149.445, 29.86793
1149.927, 29.98435
1150.409, 30.05652
1150.891, 29.80988
1151.373, 29.56235
1151.856, 29.79413
1152.338, 30.27629
1152.820, 30.39646
1153.302, 30.02796
1153.784, 29.68891
1154.266, 29.58051
1154.748, 29.48834
1155.230, 29.32032
1155.713, 29.17079
1156.195, 29.11528
1156.677, 29.10195
1157.159, 29.07155
1157.641, 29.01809
1158.123, 28.93023
1158.605, 28.73816
1159.087, 28.65884
1159.569, 28.82821
1160.052, 28.94247
1160.534, 28.86022
1161.016, 28.76743
1161.498, 28.83879
1161.980, 28.97327
1162.462, 28.92784
1162.944, 28.67118
1163.426, 28.57254
1163.908, 28.66428
1164.391, 28.84893
1164.873, 29.20170
1165.355, 29.36535
1165.837, 29.10879
1166.319, 28.75415
1166.801, 28.69513
1167.283, 28.84329
1167.765, 28.80858
1168.247, 28.58084
1168.730, 28.51191
1169.212, 28.62271
1169.694, 28.66155
1170.176, 28.55907
1170.658, 28.39837
1171.140, 28.22129
1171.622, 28.13078
1172.104, 28.39871
1172.587, 28.84799
1173.069, 28.78001
1173.551, 28.36789
1174.033, 28.35508
1174.515, 28.72317
1174.997, 28.79544
1175.479, 28.34769
1175.961, 27.97735
1176.443, 28.25165
1176.926, 28.67463
1177.408, 28.59636
1177.890, 28.29832
1178.372, 28.15878
1178.854, 28.13826
1179.336, 28.11547
1179.818, 28.06586
1180.300, 28.00982
1180.782, 27.95721
1181.265, 27.88883
1181.747, 27.68143
1182.229, 27.58993
1182.711, 27.92084
1183.193, 28.32257
1183.675, 28.47875
1184.157, 28.44021
1184.639, 28.32638
1185.122, 28.16233
1185.604, 28.02881
1186.086, 27.90357
1186.568, 27.87459
1187.050, 28.06088
1187.532, 28.21611
1188.014, 28.29429
1188.496, 28.24020
1188.979, 27.88445
1189.461, 27.39271
1189.943, 27.28294
1190.425, 27.65206
1190.907, 27.82209
1191.389, 27.71074
1191.871, 27.62293
1192.353, 27.59096
1192.835, 27.64401
1193.318, 27.82274
1193.800, 28.02253
1194.282, 28.12774
1194.764, 28.13123
1195.246, 27.96130
1195.728, 27.62897
1196.210, 27.45649
1196.692, 27.44983
1197.174, 27.40357
1197.657, 27.26676
1198.139, 27.06693
1198.621, 26.81182
1199.103, 26.63857
1199.585, 26.80516
1200.067, 27.12319
1200.549, 27.19149
1201.031, 27.12628
1201.514, 27.22074
1201.996, 27.42368
1202.478, 27.45560
1202.960, 27.27229
1203.442, 27.16026
1203.924, 27.32602
1204.406, 27.48996
1204.888, 27.43345
1205.370, 27.29554
1205.853, 27.08763
1206.335, 26.94460
1206.817, 27.11759
1207.299, 27.46547
1207.781, 27.57550
1208.263, 27.35177
1208.745, 27.16726
1209.227, 27.17511
1209.709, 27.13471
1210.192, 26.87935
1210.674, 26.70181
1211.156, 26.84942
1211.638, 27.05766
1212.120, 27.06485
1212.602, 26.91038
1213.084, 26.72111
1213.566, 26.44032
1214.049, 26.45292
1214.531, 26.88425
1215.013, 27.09831
1215.495, 26.94953
1215.977, 26.67353
1216.459, 26.36225
1216.941, 26.17031
1217.423, 26.33353
1217.906, 26.69010
1218.388, 26.70937
1218.870, 26.46251
1219.352, 26.27155
1219.834, 26.16408
1220.316, 26.18911
1220.798, 26.33860
1221.280, 26.51117
1221.762, 26.65555
1222.245, 26.73026
1222.727, 26.60921
1223.209, 26.48206
1223.691, 26.67196
1224.173, 26.90640
1224.655, 26.76778
1225.137, 26.41138
1225.619, 26.17433
1226.101, 26.11468
1226.584, 26.12604
1227.066, 26.19135
1227.548, 26.26970
1228.030, 26.36292
1228.512, 26.44569
1228.994, 26.56372
1229.476, 26.61205
1229.958, 26.44199
1230.441, 26.18026
1230.923, 26.07108
1231.405, 26.10701
1231.887, 26.04275
1232.369, 25.86128
1232.851, 25.59024
1233.333, 25.11600
1233.815, 25.00064
1234.297, 25.48777
1234.780, 26.05560
1235.262, 26.34837
1235.744, 26.40915
1236.226, 26.24887
1236.708, 25.95205
1237.190, 25.93600
1237.672, 26.10830
1238.154, 25.99442
1238.636, 25.63067
1239.119, 25.42351
1239.601, 25.48544
1240.083, 25.67178
1240.565, 25.91333
1241.047, 26.13322
1241.529, 26.31992
1242.011, 26.38509
1242.493, 26.17718
1242.975, 25.84921
1243.458, 25.52150
1243.940, 25.25431
1244.422, 25.14555
1244.904, 25.19809
1245.386, 25.24899
1245.868, 25.24276
1246.350, 25.25739
1246.832, 25.25987
1247.315, 25.35108
1247.797, 25.69076
1248.279, 25.97699
1248.761, 25.98724
1249.243, 25.81333
1249.725, 25.58734
1250.207, 25.32243
1250.689, 25.27065
1251.172, 25.45688
1251.654, 25.58861
1252.136, 25.64377
1252.618, 25.61693
1253.100, 25.50740
1253.582, 25.50915
1254.064, 25.77172
1254.546, 26.03703
1255.028, 25.86342
1255.510, 25.50683
1255.993, 25.46951
1256.475, 25.59623
1256.957, 25.63144
1257.439, 25.56384
1257.921, 25.39148
1258.403, 25.16071
1258.885, 25.08987
1259.367, 25.31700
1259.850, 25.53981
1260.332, 25.67501
1260.814, 25.69784
1261.296, 25.55955
1261.778, 25.34229
1262.260, 25.00051
1262.742, 24.68318
1263.224, 24.63549
1263.707, 24.83032
1264.189, 25.06276
1264.671, 25.41337
1265.153, 25.49308
1265.635, 25.20933
1266.117, 25.07636
1266.599, 25.22930
1267.081, 25.40628
1267.563, 25.46493
1268.046, 25.44896
1268.528, 25.40711
1269.010, 25.33470
1269.492, 25.20546
1269.974, 25.04372
1270.456, 24.85455
1270.938, 24.70214
1271.420, 24.80590
1271.902, 25.11785
1272.385, 25.33715
1272.867, 25.34845
1273.349, 25.25203
1273.831, 24.89820
1274.313, 24.74341
1274.795, 25.26541
1275.277, 25.77881
1275.759, 25.79228
1276.242, 25.57850
1276.724, 25.40257
1277.206, 25.29219
1277.688, 25.29372
1278.170, 25.42649
1278.652, 25.47745
1279.134, 25.39233
1279.616, 25.45384
1280.099, 25.74442
1280.581, 25.88938
##END=



