##NAMES=Kryzhanovskite
##RRUFFID=R130691
##IDEAL CHEMISTRY=(Fe^3+^,Mn^2+^)_3_(PO_4_)_2_(OH,H_2_O)_3_
##LOCALITY=Rapid Creek, Dawson Mining District, Yukon Territory, Canada
##OWNER=RRUFF
##SOURCE=Rob Lavinsky
##DESCRIPTION=Euhedral reddish brown crystals
##STATUS=The identification of this mineral is confirmed by single-crystal X-ray diffraction and chemical analysis.
##URL=rruff.info/R130691
##MEASURED CHEMISTRY=(Fe^3+^_1.69_Mg_1.18_Mn_0.09_)(PO_4_)_2_(OH)_1.61_Â·1.35H_2_O
203.1412, 188.7503
203.6233, 189.4475
204.1054, 189.5004
204.5875, 188.6075
205.0696, 186.9335
205.5518, 186.1408
206.0339, 186.5455
206.5160, 187.0955
206.9981, 186.5679
207.4802, 184.7002
207.9623, 183.0378
208.4445, 182.0559
208.9266, 181.7041
209.4087, 180.8442
209.8908, 179.2786
210.3729, 177.5556
210.8550, 176.3427
211.3372, 175.8507
211.8193, 175.1433
212.3014, 173.8870
212.7835, 172.0910
213.2656, 170.6338
213.7477, 169.5451
214.2299, 168.7381
214.7120, 168.1149
215.1941, 167.6384
215.6762, 167.4259
216.1583, 167.5613
216.6404, 168.0623
217.1226, 168.4559
217.6047, 168.5925
218.0868, 168.7952
218.5689, 169.5145
219.0510, 170.9885
219.5331, 172.4327
220.0153, 173.6983
220.4974, 174.7928
220.9795, 175.6555
221.4616, 176.1005
221.9437, 176.5212
222.4258, 177.5097
222.9080, 179.4588
223.3901, 181.1376
223.8722, 182.2668
224.3543, 182.8846
224.8364, 182.6066
225.3185, 180.5038
225.8007, 178.3632
226.2828, 178.6926
226.7649, 182.9484
227.2470, 186.7981
227.7291, 189.0896
228.2112, 189.7586
228.6934, 189.5794
229.1755, 188.2229
229.6576, 186.3102
230.1397, 184.5763
230.6218, 182.7265
231.1039, 181.5824
231.5861, 181.5809
232.0682, 182.9776
232.5503, 183.6940
233.0324, 183.3651
233.5145, 182.6765
233.9966, 182.5188
234.4788, 183.2357
234.9609, 183.8724
235.4430, 184.0981
235.9251, 183.7938
236.4072, 183.9723
236.8893, 184.9861
237.3715, 186.1897
237.8536, 186.7057
238.3357, 185.9782
238.8178, 185.5464
239.2999, 185.9028
239.7820, 187.1830
240.2642, 188.1507
240.7463, 188.6539
241.2284, 188.9652
241.7105, 189.4198
242.1926, 190.0997
242.6747, 190.7607
243.1569, 191.3165
243.6390, 191.7429
244.1211, 192.2818
244.6032, 193.0230
245.0853, 193.8001
245.5674, 194.3867
246.0496, 194.5750
246.5317, 194.9698
247.0138, 195.7859
247.4959, 197.0841
247.9780, 198.1839
248.4601, 199.1168
248.9423, 199.8426
249.4244, 200.2588
249.9065, 200.1026
250.3886, 200.1773
250.8707, 200.7605
251.3528, 201.8833
251.8350, 202.7089
252.3171, 203.1458
252.7992, 203.3766
253.2813, 203.5634
253.7634, 203.6630
254.2455, 203.7996
254.7277, 203.9919
255.2098, 204.2387
255.6919, 204.5126
256.1740, 204.7329
256.6561, 205.0715
257.1382, 205.7272
257.6204, 206.8670
258.1025, 207.9346
258.5846, 208.8681
259.0667, 209.6646
259.5488, 210.0969
260.0309, 209.9762
260.5131, 209.7587
260.9952, 209.8682
261.4773, 210.4409
261.9594, 210.9696
262.4415, 211.3666
262.9236, 211.6474
263.4058, 211.9358
263.8879, 212.3049
264.3700, 212.5682
264.8521, 212.4391
265.3342, 211.6091
265.8163, 211.4867
266.2985, 212.5486
266.7806, 214.5103
267.2627, 215.7446
267.7448, 216.0600
268.2269, 216.0261
268.7090, 216.0415
269.1912, 216.1387
269.6733, 216.1261
270.1554, 215.9425
270.6375, 215.6373
271.1196, 215.3882
271.6017, 215.1539
272.0839, 215.0832
272.5660, 215.3015
273.0481, 215.8391
273.5302, 216.5072
274.0123, 217.4205
274.4944, 218.3782
274.9766, 218.7742
275.4587, 218.5376
275.9408, 218.0288
276.4229, 217.3064
276.9050, 216.3094
277.3871, 215.8864
277.8693, 216.2538
278.3514, 217.0496
278.8335, 217.4353
279.3156, 217.3460
279.7977, 217.2567
280.2798, 217.4945
280.7620, 218.0599
281.2441, 218.3858
281.7262, 218.3767
282.2083, 218.2376
282.6904, 218.3867
283.1725, 218.8484
283.6547, 219.2239
284.1368, 219.1572
284.6189, 218.7168
285.1010, 218.8229
285.5831, 219.6177
286.0652, 220.6135
286.5474, 221.1042
287.0295, 221.0973
287.5116, 220.9553
287.9937, 220.7310
288.4758, 220.4700
288.9579, 220.5101
289.4401, 220.9028
289.9222, 221.3339
290.4043, 221.4197
290.8864, 221.1888
291.3685, 220.8567
291.8506, 220.4134
292.3328, 219.9404
292.8149, 219.7450
293.2970, 219.8449
293.7791, 219.9821
294.2612, 219.9127
294.7433, 219.6609
295.2255, 219.3188
295.7076, 218.9167
296.1897, 218.4448
296.6718, 217.8900
297.1539, 217.2554
297.6360, 216.5502
298.1182, 215.7003
298.6003, 214.7865
299.0824, 213.9956
299.5645, 213.4074
300.0466, 212.9324
300.5287, 212.4839
301.0109, 212.0544
301.4930, 211.5684
301.9751, 210.9851
302.4572, 210.3102
302.9393, 209.5449
303.4214, 208.6255
303.9036, 207.7194
304.3857, 207.0116
304.8678, 206.4749
305.3499, 205.9926
305.8320, 205.5836
306.3141, 205.1609
306.7963, 204.6332
307.2784, 203.9827
307.7605, 203.2157
308.2426, 202.1876
308.7247, 201.0297
309.2068, 200.0587
309.6890, 199.6680
310.1711, 199.3941
310.6532, 198.8209
311.1353, 197.8614
311.6174, 196.8138
312.0995, 195.7395
312.5817, 194.7294
313.0638, 193.9145
313.5459, 193.6605
314.0280, 193.3767
314.5101, 192.6048
314.9922, 191.2869
315.4744, 190.0668
315.9565, 189.3066
316.4386, 188.8042
316.9207, 188.3380
317.4028, 188.0582
317.8849, 187.6008
318.3671, 186.7418
318.8492, 185.4939
319.3313, 184.2680
319.8134, 182.9798
320.2955, 181.8779
320.7776, 181.1724
321.2598, 181.4222
321.7419, 181.5112
322.2240, 181.0639
322.7061, 180.1845
323.1882, 179.4329
323.6703, 179.0627
324.1525, 178.7423
324.6346, 178.2873
325.1167, 177.4359
325.5988, 176.7751
326.0809, 176.5213
326.5630, 176.5114
327.0452, 176.2959
327.5273, 175.6698
328.0094, 174.9948
328.4915, 174.4001
328.9736, 173.9604
329.4557, 173.4452
329.9379, 172.6640
330.4200, 171.8654
330.9021, 171.4864
331.3842, 172.0169
331.8663, 172.3064
332.3484, 171.9686
332.8306, 170.8877
333.3127, 169.9458
333.7948, 169.0381
334.2769, 168.3594
334.7590, 168.2530
335.2411, 169.2174
335.7233, 169.5981
336.2054, 168.7859
336.6875, 166.8955
337.1696, 165.9722
337.6517, 166.3337
338.1339, 167.0569
338.6160, 167.4036
339.0981, 167.3156
339.5802, 167.1411
340.0623, 166.8692
340.5444, 166.5705
341.0266, 166.5360
341.5087, 166.8122
341.9908, 167.1106
342.4729, 167.2877
342.9550, 167.3395
343.4371, 167.1550
343.9193, 166.6178
344.4014, 166.0405
344.8835, 166.0786
345.3656, 166.7276
345.8477, 167.4057
346.3298, 167.9018
346.8120, 168.2083
347.2941, 168.1825
347.7762, 167.7693
348.2583, 167.3201
348.7404, 167.3101
349.2225, 167.6480
349.7047, 167.9346
350.1868, 167.8766
350.6689, 167.7344
351.1510, 168.0845
351.6331, 168.9142
352.1152, 169.6908
352.5974, 169.8148
353.0795, 169.5892
353.5616, 169.5958
354.0437, 170.1252
354.5258, 170.7785
355.0079, 171.1859
355.4901, 171.3737
355.9722, 171.4692
356.4543, 171.4233
356.9364, 171.3864
357.4185, 171.5137
357.9006, 171.8481
358.3828, 172.3099
358.8649, 172.9339
359.3470, 173.6506
359.8291, 174.3243
360.3112, 174.8243
360.7933, 175.3160
361.2755, 175.9303
361.7576, 176.7028
362.2397, 177.4104
362.7218, 177.9005
363.2039, 178.3033
363.6860, 178.7644
364.1682, 179.5703
364.6503, 180.2005
365.1324, 180.2968
365.6145, 179.8937
366.0966, 179.8646
366.5787, 180.7572
367.0609, 181.8164
367.5430, 182.5583
368.0251, 182.5518
368.5072, 182.6943
368.9893, 183.0994
369.4714, 183.7038
369.9536, 184.2950
370.4357, 184.8613
370.9178, 185.4310
371.3999, 186.0153
371.8820, 186.6439
372.3641, 187.2498
372.8463, 187.9977
373.3284, 188.6080
373.8105, 188.5363
374.2926, 187.3358
374.7747, 186.4619
375.2568, 186.4041
375.7390, 187.1722
376.2211, 187.8271
376.7032, 188.3595
377.1853, 188.8068
377.6674, 189.2020
378.1495, 189.5392
378.6317, 189.8904
379.1138, 190.3022
379.5959, 190.7203
380.0780, 190.9987
380.5601, 191.1361
381.0422, 191.1432
381.5244, 190.8805
382.0065, 190.4407
382.4886, 190.4278
382.9707, 191.0169
383.4528, 191.7186
383.9349, 191.7768
384.4171, 191.2918
384.8992, 190.8153
385.3813, 190.5495
385.8634, 190.4822
386.3455, 190.7240
386.8276, 191.2959
387.3098, 191.6923
387.7919, 191.1867
388.2740, 190.2378
388.7561, 189.6761
389.2382, 189.9743
389.7203, 190.5596
390.2025, 191.0221
390.6846, 191.3721
391.1667, 191.6754
391.6488, 192.2880
392.1309, 192.6870
392.6130, 192.2997
393.0952, 190.5451
393.5773, 189.0637
394.0594, 188.7919
394.5415, 189.2588
395.0236, 189.5898
395.5057, 189.2916
395.9879, 189.0110
396.4700, 189.0799
396.9521, 189.6064
397.4342, 189.9318
397.9163, 189.8950
398.3984, 189.6433
398.8806, 189.3111
399.3627, 188.7041
399.8448, 188.2517
400.3269, 188.0727
400.8090, 188.1226
401.2911, 188.0738
401.7733, 187.8852
402.2554, 187.6458
402.7375, 187.4058
403.2196, 187.1952
403.7017, 186.8957
404.1838, 186.4541
404.6660, 185.9663
405.1481, 185.6168
405.6302, 185.4119
406.1123, 185.3141
406.5944, 185.3078
407.0765, 185.3948
407.5587, 185.6169
408.0408, 185.9919
408.5229, 186.4327
409.0050, 187.0175
409.4871, 187.6992
409.9692, 187.7827
410.4514, 186.8295
410.9335, 185.5116
411.4156, 185.3748
411.8977, 186.3275
412.3798, 187.3013
412.8619, 187.5540
413.3441, 187.3274
413.8262, 187.0018
414.3083, 186.5621
414.7904, 186.3152
415.2725, 186.8453
415.7546, 187.7815
416.2368, 188.3662
416.7189, 187.8459
417.2010, 187.1290
417.6831, 186.9941
418.1652, 187.4211
418.6473, 187.8200
419.1295, 187.7022
419.6116, 187.4941
420.0937, 187.6013
420.5758, 188.4668
421.0579, 189.1563
421.5400, 189.2520
422.0222, 188.9503
422.5043, 188.7390
422.9864, 188.8346
423.4685, 188.9525
423.9506, 188.9980
424.4327, 188.9685
424.9149, 188.8563
425.3970, 188.5878
425.8791, 188.2800
426.3612, 188.0452
426.8433, 187.9174
427.3254, 187.8107
427.8076, 187.7339
428.2897, 187.6715
428.7718, 187.5028
429.2539, 187.1482
429.7360, 186.8436
430.2181, 186.8293
430.7003, 187.2088
431.1824, 187.1258
431.6645, 186.4328
432.1466, 185.4596
432.6287, 184.7664
433.1108, 184.3649
433.5930, 184.0036
434.0751, 183.6053
434.5572, 183.1761
435.0393, 182.7088
435.5214, 182.2052
436.0035, 181.7382
436.4857, 181.4292
436.9678, 181.2125
437.4499, 180.9461
437.9320, 180.6578
438.4141, 180.1893
438.8962, 179.2021
439.3784, 177.8602
439.8605, 176.6473
440.3426, 175.8243
440.8247, 175.2396
441.3068, 174.7145
441.7889, 174.2213
442.2711, 174.0098
442.7532, 174.6427
443.2353, 175.4443
443.7174, 175.7127
444.1995, 174.8075
444.6816, 173.8095
445.1638, 172.8530
445.6459, 172.0041
446.1280, 171.5049
446.6101, 171.6431
447.0922, 171.9306
447.5743, 172.1438
448.0565, 172.1564
448.5386, 172.4121
449.0207, 173.1246
449.5028, 173.9447
449.9849, 174.4034
450.4670, 174.3893
450.9492, 174.2718
451.4313, 174.1138
451.9134, 173.9189
452.3955, 173.7060
452.8776, 173.4811
453.3597, 173.2404
453.8419, 172.9314
454.3240, 172.5630
454.8061, 172.3881
455.2882, 172.4555
455.7703, 172.6536
456.2524, 172.8114
456.7346, 172.9438
457.2167, 173.1367
457.6988, 173.5335
458.1809, 173.9673
458.6630, 174.1425
459.1451, 174.0654
459.6273, 173.8854
460.1094, 173.4953
460.5915, 173.1470
461.0736, 173.2399
461.5557, 174.0981
462.0378, 174.8873
462.5200, 174.9556
463.0021, 174.5791
463.4842, 174.2913
463.9663, 174.3674
464.4484, 174.5230
464.9305, 174.6240
465.4127, 174.6581
465.8948, 174.7343
466.3769, 174.9311
466.8590, 175.1452
467.3411, 175.3002
467.8232, 175.2025
468.3054, 175.3065
468.7875, 175.7516
469.2696, 176.3819
469.7517, 176.8051
470.2338, 176.9118
470.7159, 177.0035
471.1981, 177.1778
471.6802, 177.4357
472.1623, 177.7640
472.6444, 178.2061
473.1265, 178.5892
473.6086, 178.6883
474.0908, 178.5080
474.5729, 178.3518
475.0550, 178.2330
475.5371, 178.2266
476.0192, 178.5911
476.5013, 179.2706
476.9835, 179.8274
477.4656, 179.8511
477.9477, 179.6586
478.4298, 179.8522
478.9119, 180.4691
479.3940, 180.9931
479.8762, 180.9315
480.3583, 180.5593
480.8404, 180.2435
481.3225, 180.1430
481.8046, 180.0517
482.2867, 179.7539
482.7689, 179.3792
483.2510, 179.2568
483.7331, 179.9551
484.2152, 180.5419
484.6973, 180.5060
485.1794, 179.6441
485.6616, 179.0529
486.1437, 179.1620
486.6258, 179.3740
487.1079, 179.1932
487.5900, 178.1251
488.0721, 177.5591
488.5543, 177.8308
489.0364, 178.6107
489.5185, 178.9594
490.0006, 178.8036
490.4827, 178.4196
490.9648, 177.7994
491.4470, 176.9675
491.9291, 176.6042
492.4112, 176.7868
492.8933, 177.0773
493.3754, 177.1039
493.8575, 176.8768
494.3397, 176.3562
494.8218, 175.3834
495.3039, 174.4167
495.7860, 174.2321
496.2681, 174.6350
496.7502, 174.9563
497.2324, 174.8404
497.7145, 174.4778
498.1966, 174.0454
498.6787, 173.5492
499.1608, 172.9145
499.6429, 171.8628
500.1251, 170.7739
500.6072, 169.9678
501.0893, 169.7809
501.5714, 169.5246
502.0535, 168.9573
502.5356, 168.2165
503.0178, 167.6171
503.4999, 167.3523
503.9820, 167.0401
504.4641, 166.6091
504.9462, 166.0631
505.4283, 165.3480
505.9105, 164.3269
506.3926, 163.3631
506.8747, 162.8161
507.3568, 162.7910
507.8389, 162.4354
508.3210, 161.5640
508.8032, 160.5341
509.2853, 160.0345
509.7674, 160.0322
510.2495, 159.9935
510.7316, 159.6873
511.2137, 159.1984
511.6959, 158.6829
512.1780, 158.1444
512.6601, 157.5978
513.1422, 157.0631
513.6243, 156.5230
514.1064, 155.9042
514.5886, 155.1186
515.0707, 154.5341
515.5528, 154.6116
516.0349, 154.9791
516.5170, 155.0986
516.9991, 154.5070
517.4813, 153.9432
517.9634, 153.6586
518.4455, 153.6326
518.9276, 153.6387
519.4097, 153.4341
519.8918, 153.4576
520.3740, 153.9542
520.8561, 155.1701
521.3382, 156.0306
521.8203, 156.3625
522.3024, 156.5343
522.7845, 157.0119
523.2667, 157.8657
523.7488, 158.5832
524.2309, 158.9575
524.7130, 159.2199
525.1951, 160.0174
525.6772, 161.3453
526.1594, 162.7665
526.6415, 164.1853
527.1236, 165.5107
527.6057, 166.3700
528.0878, 166.7426
528.5699, 167.2767
529.0521, 168.7672
529.5342, 170.6476
530.0163, 172.1179
530.4984, 172.6610
530.9805, 173.3048
531.4626, 174.8585
531.9448, 176.8841
532.4269, 178.5258
532.9090, 179.1131
533.3911, 179.7010
533.8732, 180.6778
534.3553, 182.0614
534.8375, 183.4153
535.3196, 184.7787
535.8017, 186.0403
536.2838, 187.1425
536.7659, 188.1099
537.2480, 188.8093
537.7302, 189.0675
538.2123, 189.2888
538.6944, 190.2069
539.1765, 191.9009
539.6586, 193.2818
540.1407, 194.0136
540.6229, 194.2767
541.1050, 194.3662
541.5871, 194.3027
542.0692, 194.2650
542.5513, 194.4603
543.0334, 194.7230
543.5156, 194.7327
543.9977, 194.4579
544.4798, 194.2759
544.9619, 194.6416
545.4440, 195.1647
545.9261, 195.3942
546.4083, 194.8662
546.8904, 194.5179
547.3725, 194.8467
547.8546, 195.5596
548.3367, 196.0405
548.8188, 196.1178
549.3010, 196.0255
549.7831, 195.7893
550.2652, 195.4091
550.7473, 194.9943
551.2294, 194.5242
551.7115, 194.0543
552.1937, 193.5939
552.6758, 193.1334
553.1579, 192.8625
553.6400, 192.8769
554.1221, 192.8511
554.6042, 192.2251
555.0864, 191.1052
555.5685, 190.1436
556.0506, 189.5604
556.5327, 189.2117
557.0148, 189.0234
557.4969, 188.9302
557.9791, 188.6903
558.4612, 188.1336
558.9433, 187.3922
559.4254, 186.4692
559.9075, 185.3554
560.3896, 184.4863
560.8718, 184.2188
561.3539, 184.1627
561.8360, 184.0490
562.3181, 184.0632
562.8002, 183.6630
563.2823, 182.5224
563.7645, 181.0981
564.2466, 180.0608
564.7287, 179.4359
565.2108, 179.2071
565.6929, 179.5667
566.1750, 180.2974
566.6572, 180.3175
567.1393, 179.5279
567.6214, 178.7330
568.1035, 178.4894
568.5856, 178.6407
569.0677, 178.4896
569.5499, 177.9857
570.0320, 177.6100
570.5141, 178.1546
570.9962, 179.0473
571.4783, 179.2798
571.9604, 178.2813
572.4426, 177.2550
572.9247, 176.9574
573.4068, 177.1673
573.8889, 177.4822
574.3710, 178.0157
574.8531, 178.3920
575.3353, 178.3692
575.8174, 177.9879
576.2995, 177.8504
576.7816, 178.1462
577.2637, 178.4782
577.7458, 178.5905
578.2280, 178.3303
578.7101, 178.7468
579.1922, 180.0388
579.6743, 181.5692
580.1564, 182.5842
580.6385, 183.1200
581.1207, 183.9736
581.6028, 185.3497
582.0849, 186.9336
582.5670, 188.3384
583.0491, 189.5543
583.5313, 190.6201
584.0134, 191.4194
584.4955, 192.1553
584.9776, 192.9336
585.4597, 193.7827
585.9418, 194.8522
586.4240, 196.3212
586.9061, 197.9402
587.3882, 199.6258
587.8703, 201.3984
588.3524, 203.0693
588.8345, 204.4964
589.3167, 205.8918
589.7988, 207.4360
590.2809, 209.2551
590.7630, 210.9060
591.2451, 212.2311
591.7272, 213.5161
592.2094, 215.4341
592.6915, 218.0217
593.1736, 220.3973
593.6557, 222.1655
594.1378, 223.5899
594.6199, 225.4629
595.1021, 227.6814
595.5842, 229.5280
596.0663, 230.1224
596.5484, 230.2991
597.0305, 231.0669
597.5126, 232.5211
597.9948, 234.0965
598.4769, 235.7740
598.9590, 237.2488
599.4411, 238.2376
599.9232, 238.2720
600.4053, 238.5038
600.8875, 239.4604
601.3696, 240.5793
601.8517, 241.0495
602.3338, 240.5784
602.8159, 240.0157
603.2980, 239.4521
603.7802, 238.9269
604.2623, 238.6826
604.7444, 238.7879
605.2265, 238.5972
605.7086, 237.5804
606.1907, 235.9958
606.6729, 234.8044
607.1550, 233.9992
607.6371, 233.0862
608.1192, 231.6433
608.6013, 229.8745
609.0834, 228.0398
609.5656, 226.1393
610.0477, 224.2867
610.5298, 222.6811
611.0119, 221.1087
611.4940, 219.3082
611.9761, 216.9522
612.4583, 214.7224
612.9404, 212.8505
613.4225, 211.1531
613.9046, 209.1464
614.3867, 206.7445
614.8688, 204.2809
615.3510, 201.7518
615.8331, 199.2194
616.3152, 197.0662
616.7973, 195.3253
617.2794, 193.6648
617.7615, 191.9407
618.2437, 190.1365
618.7258, 188.1673
619.2079, 186.0075
619.6900, 183.7152
620.1721, 181.0747
620.6542, 178.4274
621.1364, 176.2975
621.6185, 175.1143
622.1006, 173.6922
622.5827, 171.1360
623.0648, 168.1298
623.5469, 165.6292
624.0291, 164.3045
624.5112, 162.9036
624.9933, 161.2951
625.4754, 159.4839
625.9575, 157.4622
626.4396, 155.0923
626.9218, 152.8905
627.4039, 151.0815
627.8860, 149.6128
628.3681, 148.2242
628.8502, 146.9208
629.3323, 145.5391
629.8145, 143.8461
630.2966, 142.0191
630.7787, 140.4191
631.2608, 139.1006
631.7429, 137.7170
632.2250, 135.7971
632.7072, 133.7746
633.1893, 132.1121
633.6714, 131.2055
634.1535, 130.2169
634.6356, 128.8651
635.1177, 127.3212
635.5999, 125.8348
636.0820, 124.4308
636.5641, 123.0534
637.0462, 121.6722
637.5283, 120.3168
638.0104, 119.1008
638.4926, 118.0416
638.9747, 116.9528
639.4568, 115.7509
639.9389, 114.4428
640.4210, 113.0190
640.9031, 111.4800
641.3853, 110.0252
641.8674, 108.8030
642.3495, 107.7379
642.8316, 106.7617
643.3137, 105.8554
643.7958, 105.0591
644.2780, 104.5472
644.7601, 104.0551
645.2422, 103.3463
645.7243, 102.1339
646.2064, 101.0864
646.6885, 100.3117
647.1707, 99.66800
647.6528, 98.97897
648.1349, 98.20725
648.6170, 97.49684
649.0991, 96.89188
649.5812, 96.33370
650.0634, 95.65929
650.5455, 94.86959
651.0276, 94.05708
651.5097, 93.09040
651.9918, 92.22195
652.4739, 92.01390
652.9561, 92.33748
653.4382, 92.49953
653.9203, 91.96223
654.4024, 91.22381
654.8845, 90.60379
655.3666, 90.14462
655.8488, 89.69907
656.3309, 89.27748
656.8130, 88.82591
657.2951, 88.28536
657.7772, 87.52116
658.2593, 87.07453
658.7415, 87.09677
659.2236, 87.19287
659.7057, 86.82026
660.1878, 85.99463
660.6699, 85.40614
661.1520, 85.23235
661.6342, 85.22762
662.1163, 85.02364
662.5984, 84.70937
663.0805, 84.52500
663.5626, 84.72849
664.0447, 84.92850
664.5269, 84.83224
665.0090, 84.50892
665.4911, 84.16023
665.9732, 83.77291
666.4553, 83.44552
666.9374, 83.15601
667.4196, 82.91599
667.9017, 83.03047
668.3838, 83.75166
668.8659, 84.35902
669.3480, 84.44408
669.8301, 84.01542
670.3123, 83.67161
670.7944, 83.41972
671.2765, 83.19134
671.7586, 82.87536
672.2407, 82.54063
672.7228, 82.40237
673.2050, 82.53120
673.6871, 82.56622
674.1692, 82.03693
674.6513, 81.34241
675.1334, 80.96242
675.6155, 81.23013
676.0977, 81.49040
676.5798, 81.55595
677.0619, 81.54081
677.5440, 81.62068
678.0261, 81.86742
678.5082, 82.05901
678.9904, 82.16332
679.4725, 82.18740
679.9546, 82.10371
680.4367, 81.91250
680.9188, 81.81300
681.4009, 81.91126
681.8831, 82.14285
682.3652, 82.49340
682.8473, 82.91174
683.3294, 83.12354
683.8115, 82.84328
684.2936, 82.39600
684.7758, 81.89794
685.2579, 81.36910
685.7400, 81.17078
686.2221, 81.83168
686.7042, 82.48248
687.1863, 82.64231
687.6685, 82.15195
688.1506, 81.86168
688.6327, 81.82542
689.1148, 81.86773
689.5969, 81.80225
690.0790, 81.64254
690.5612, 81.63986
691.0433, 81.83842
691.5254, 82.09075
692.0075, 82.15787
692.4896, 82.16545
692.9717, 82.40445
693.4539, 83.21165
693.9360, 83.74856
694.4181, 83.20467
694.9002, 82.15696
695.3823, 81.49898
695.8644, 81.77125
696.3466, 82.04351
696.8287, 82.23136
697.3108, 82.32328
697.7929, 82.24172
698.2750, 81.91297
698.7571, 81.70699
699.2393, 81.80231
699.7214, 82.07178
700.2035, 82.09839
700.6856, 81.90898
701.1677, 81.73270
701.6498, 81.71598
702.1320, 81.77527
702.6141, 81.84840
703.0962, 81.92326
703.5783, 81.92995
704.0604, 81.65922
704.5425, 81.45207
705.0247, 81.57674
705.5068, 82.15907
705.9889, 82.42699
706.4710, 82.17789
706.9531, 81.87023
707.4352, 81.83031
707.9174, 82.09377
708.3995, 82.20838
708.8816, 82.15138
709.3637, 82.02264
709.8458, 81.93839
710.3279, 81.86388
710.8101, 81.67106
711.2922, 81.29565
711.7743, 81.00100
712.2564, 80.94605
712.7385, 81.10205
713.2206, 81.45232
713.7028, 82.40435
714.1849, 82.97523
714.6670, 82.69657
715.1491, 82.04832
715.6312, 81.66368
716.1133, 81.64010
716.5955, 81.61285
717.0776, 81.50700
717.5597, 81.38027
718.0418, 81.39865
718.5239, 81.54048
719.0060, 81.59653
719.4882, 81.45284
719.9703, 81.21534
720.4524, 80.96468
720.9345, 80.72256
721.4166, 80.54746
721.8987, 80.47676
722.3809, 80.47131
722.8630, 80.54110
723.3451, 80.67427
723.8272, 80.77905
724.3093, 80.82637
724.7914, 80.88509
725.2736, 80.99795
725.7557, 81.15538
726.2378, 81.24566
726.7199, 81.27646
727.2020, 81.18726
727.6841, 80.87345
728.1663, 80.42717
728.6484, 80.02269
729.1305, 79.67045
729.6126, 79.43284
730.0947, 79.31953
730.5768, 79.35986
731.0590, 79.67337
731.5411, 80.38526
732.0232, 80.76781
732.5053, 80.46464
732.9874, 79.97111
733.4695, 79.52353
733.9517, 79.03510
734.4338, 78.98717
734.9159, 79.51603
735.3980, 80.09404
735.8801, 80.10007
736.3622, 79.65695
736.8444, 79.21864
737.3265, 78.81356
737.8086, 78.64511
738.2907, 79.16411
738.7728, 79.94032
739.2549, 80.41279
739.7371, 80.37917
740.2192, 80.12312
740.7013, 79.45496
741.1834, 78.72048
741.6655, 78.40304
742.1476, 78.79428
742.6298, 78.86792
743.1119, 78.35320
743.5940, 77.66353
744.0761, 77.62649
744.5582, 78.17700
745.0403, 78.66519
745.5225, 78.91249
746.0046, 78.98283
746.4867, 78.89114
746.9688, 78.68865
747.4509, 78.48711
747.9330, 78.20818
748.4152, 78.07049
748.8973, 78.34447
749.3794, 78.84196
749.8615, 78.93216
750.3436, 78.36143
750.8257, 77.82279
751.3079, 77.46917
751.7900, 77.28110
752.2721, 77.23260
752.7542, 77.32395
753.2363, 77.42149
753.7184, 77.41393
754.2006, 77.40425
754.6827, 77.63239
755.1648, 78.02858
755.6469, 78.29160
756.1290, 78.15610
756.6111, 77.94933
757.0933, 77.82890
757.5754, 77.80210
758.0575, 77.80882
758.5396, 77.91315
759.0217, 77.94742
759.5038, 77.83848
759.9860, 77.59619
760.4681, 77.23829
760.9502, 76.73634
761.4323, 76.48501
761.9144, 77.02828
762.3965, 77.89684
762.8787, 78.22767
763.3608, 78.01932
763.8429, 77.60674
764.3250, 76.82289
764.8071, 76.18578
765.2892, 76.17041
765.7714, 76.92238
766.2535, 77.37385
766.7356, 77.35995
767.2177, 77.17757
767.6998, 76.94348
768.1819, 76.64494
768.6641, 76.48235
769.1462, 76.45560
769.6283, 76.57690
770.1104, 77.00230
770.5925, 77.54259
771.0746, 77.82717
771.5568, 77.81618
772.0389, 77.67648
772.5210, 77.33932
773.0031, 77.03053
773.4852, 76.95747
773.9673, 77.26765
774.4495, 77.40987
774.9316, 77.23815
775.4137, 77.04713
775.8958, 77.08433
776.3779, 77.37486
776.8600, 77.58253
777.3422, 77.70328
777.8243, 77.70490
778.3064, 77.46223
778.7885, 77.10184
779.2706, 76.90980
779.7527, 76.97913
780.2349, 76.92471
780.7170, 76.20126
781.1991, 75.44032
781.6812, 75.24149
782.1633, 76.21605
782.6454, 76.72132
783.1276, 76.56087
783.6097, 76.16626
784.0918, 75.91165
784.5739, 75.79607
785.0560, 75.91182
785.5381, 76.30712
786.0203, 76.71629
786.5024, 76.83916
786.9845, 76.77193
787.4666, 76.66957
787.9487, 76.54607
788.4308, 76.45296
788.9130, 76.42121
789.3951, 76.42646
789.8772, 76.44298
790.3593, 76.44511
790.8414, 76.50539
791.3235, 76.65983
791.8057, 76.82048
792.2878, 76.85810
792.7699, 76.78281
793.2520, 76.75751
793.7341, 76.80983
794.2162, 76.89338
794.6984, 77.02424
795.1805, 77.13270
795.6626, 77.09093
796.1447, 76.78183
796.6268, 76.52361
797.1089, 76.44106
797.5911, 76.46336
798.0732, 76.51160
798.5553, 76.60935
799.0374, 76.68121
799.5195, 76.73326
800.0016, 76.74313
800.4838, 76.61536
800.9659, 76.39688
801.4480, 76.35204
801.9301, 76.53609
802.4122, 76.87489
802.8943, 77.48215
803.3765, 78.12577
803.8586, 78.49571
804.3407, 78.36051
804.8228, 78.22729
805.3049, 78.21037
805.7870, 78.23677
806.2692, 78.24361
806.7513, 78.23820
807.2334, 78.15615
807.7155, 77.95556
808.1976, 77.77759
808.6797, 77.86052
809.1619, 78.11586
809.6440, 78.28381
810.1261, 78.29641
810.6082, 78.26238
811.0903, 78.22607
811.5724, 78.20430
812.0546, 78.21778
812.5367, 78.30723
813.0188, 78.37061
813.5009, 78.36129
813.9830, 78.36926
814.4651, 78.58223
814.9473, 79.03810
815.4294, 78.98942
815.9115, 78.25601
816.3936, 77.51116
816.8757, 77.63676
817.3578, 78.26475
817.8400, 78.74310
818.3221, 78.88271
818.8042, 79.04445
819.2863, 79.55725
819.7684, 80.08276
820.2505, 80.27326
820.7327, 79.93491
821.2148, 79.64624
821.6969, 79.33852
822.1790, 79.20291
822.6611, 79.61787
823.1432, 80.45679
823.6254, 80.81407
824.1075, 80.55037
824.5896, 80.20400
825.0717, 80.24601
825.5538, 80.49223
826.0359, 80.75966
826.5181, 81.04768
827.0002, 81.24203
827.4823, 81.16298
827.9644, 81.11082
828.4465, 81.32043
828.9286, 81.88551
829.4108, 82.23375
829.8929, 82.32809
830.3750, 82.36523
830.8571, 82.54272
831.3392, 82.79522
831.8214, 82.99678
832.3035, 83.13360
832.7856, 83.19789
833.2677, 83.14724
833.7498, 83.04504
834.2319, 82.90001
834.7141, 82.65365
835.1962, 82.67049
835.6783, 83.12924
836.1604, 83.54440
836.6425, 83.48587
837.1246, 83.00603
837.6068, 82.96163
838.0889, 83.35905
838.5710, 83.85493
839.0531, 84.35624
839.5352, 84.71107
840.0173, 84.60900
840.4995, 84.04835
840.9816, 83.76890
841.4637, 84.38283
841.9458, 84.97304
842.4279, 85.06166
842.9100, 84.66305
843.3922, 84.66749
843.8743, 85.15732
844.3564, 85.59427
844.8385, 85.62305
845.3206, 85.37609
845.8027, 85.13976
846.2849, 84.90834
846.7670, 84.65568
847.2491, 84.24135
847.7312, 83.91822
848.2133, 83.92271
848.6954, 84.20847
849.1776, 84.27306
849.6597, 83.99068
850.1418, 83.72179
850.6239, 83.58845
851.1060, 83.55784
851.5881, 83.47275
852.0703, 83.35836
852.5524, 83.42831
853.0345, 83.98650
853.5166, 84.59004
853.9987, 84.86453
854.4808, 84.86512
854.9630, 84.73243
855.4451, 84.34724
855.9272, 84.02319
856.4093, 83.81147
856.8914, 83.70150
857.3735, 83.68598
857.8557, 83.77454
858.3378, 83.84892
858.8199, 83.91459
859.3020, 83.87740
859.7841, 83.41928
860.2662, 82.77614
860.7484, 82.46496
861.2305, 83.01018
861.7126, 83.39647
862.1947, 83.02515
862.6768, 82.37051
863.1589, 82.12643
863.6411, 82.48167
864.1232, 82.71123
864.6053, 82.74703
865.0874, 82.64936
865.5695, 82.43714
866.0516, 82.15453
866.5338, 81.93472
867.0159, 81.79919
867.4980, 81.73374
867.9801, 81.74770
868.4622, 81.81412
868.9443, 81.91877
869.4265, 82.12403
869.9086, 82.19188
870.3907, 82.02372
870.8728, 81.87349
871.3549, 81.99548
871.8370, 82.35996
872.3192, 82.62839
872.8013, 82.79278
873.2834, 82.80330
873.7655, 82.44614
874.2476, 82.02722
874.7297, 81.92361
875.2119, 82.17829
875.6940, 82.25215
876.1761, 81.84071
876.6582, 81.39236
877.1403, 81.00344
877.6224, 80.69717
878.1046, 80.92686
878.5867, 81.72192
879.0688, 82.39568
879.5509, 82.41065
880.0330, 82.12329
880.5151, 81.98827
880.9973, 81.98833
881.4794, 82.04614
881.9615, 82.15257
882.4436, 82.28901
882.9257, 82.47410
883.4078, 82.68088
883.8900, 82.82649
884.3721, 82.88786
884.8542, 83.01604
885.3363, 83.27548
885.8184, 83.58822
886.3005, 83.82326
886.7827, 84.00115
887.2648, 84.17590
887.7469, 84.41138
888.2290, 84.57858
888.7111, 84.49574
889.1932, 84.36036
889.6754, 84.48672
890.1575, 85.06847
890.6396, 85.35448
891.1217, 85.16775
891.6038, 84.95361
892.0859, 85.45797
892.5681, 86.39194
893.0502, 86.78770
893.5323, 86.41673
894.0144, 86.03691
894.4965, 86.17147
894.9786, 86.52790
895.4608, 86.87129
895.9429, 87.16686
896.4250, 87.45936
896.9071, 87.70362
897.3892, 88.02930
897.8713, 88.65321
898.3535, 89.47083
898.8356, 89.77944
899.3177, 89.60017
899.7998, 89.31304
900.2819, 88.91365
900.7640, 88.71888
901.2462, 89.12439
901.7283, 90.05866
902.2104, 90.72096
902.6925, 90.85738
903.1746, 91.00281
903.6567, 91.36032
904.1389, 91.81309
904.6210, 91.87862
905.1031, 91.62160
905.5852, 91.64442
906.0673, 92.42271
906.5494, 93.26222
907.0316, 93.42419
907.5137, 93.22374
907.9958, 93.21989
908.4779, 93.68484
908.9600, 94.19756
909.4421, 94.82967
909.9243, 95.37231
910.4064, 95.44903
910.8885, 95.09548
911.3706, 94.96706
911.8527, 95.16808
912.3348, 95.55698
912.8170, 96.20310
913.2991, 96.85214
913.7812, 97.15520
914.2633, 96.92715
914.7454, 96.90585
915.2275, 97.19951
915.7097, 97.72964
916.1918, 98.57890
916.6739, 99.73579
917.1560, 100.3206
917.6381, 100.3239
918.1202, 100.3487
918.6024, 100.9073
919.0845, 101.6389
919.5666, 102.1135
920.0487, 102.3776
920.5308, 102.7919
921.0129, 103.7022
921.4951, 104.4728
921.9772, 104.8653
922.4593, 105.0441
922.9414, 105.5376
923.4235, 106.3348
923.9056, 107.1058
924.3878, 107.7170
924.8699, 108.3079
925.3520, 109.0577
925.8341, 109.8966
926.3162, 110.7251
926.7983, 111.4739
927.2805, 112.2752
927.7626, 113.1276
928.2447, 114.0644
928.7268, 115.1915
929.2089, 116.5101
929.6910, 117.4741
930.1732, 118.0081
930.6553, 118.5443
931.1374, 119.5335
931.6195, 120.7034
932.1016, 121.7843
932.5837, 122.7255
933.0659, 123.6140
933.5480, 124.2609
934.0301, 125.1021
934.5122, 126.3920
934.9943, 128.0355
935.4764, 129.1837
935.9586, 129.8694
936.4407, 130.8576
936.9228, 132.9286
937.4049, 135.1447
937.8870, 136.4008
938.3691, 137.0643
938.8513, 137.9507
939.3334, 139.7209
939.8155, 141.1275
940.2976, 141.7440
940.7797, 142.1882
941.2618, 143.4881
941.7440, 145.5821
942.2261, 147.6419
942.7082, 149.5734
943.1903, 151.3178
943.6724, 152.6043
944.1545, 153.7786
944.6367, 155.2364
945.1188, 157.1175
945.6009, 158.9145
946.0830, 160.5190
946.5651, 162.1216
947.0472, 163.8201
947.5294, 165.6243
948.0115, 167.5563
948.4936, 169.5885
948.9757, 171.3246
949.4578, 172.0305
949.9399, 172.7709
950.4221, 174.5681
950.9042, 177.1507
951.3863, 179.3462
951.8684, 180.9169
952.3505, 182.3724
952.8326, 183.7726
953.3148, 185.1601
953.7969, 186.6220
954.2790, 188.1442
954.7611, 189.6493
955.2432, 191.0855
955.7253, 192.5704
956.2075, 194.4840
956.6896, 196.3051
957.1717, 197.3929
957.6538, 197.1958
958.1359, 197.9801
958.6180, 200.0378
959.1002, 202.3464
959.5823, 204.2005
960.0644, 205.7026
960.5465, 207.1705
961.0286, 208.5891
961.5107, 209.7661
961.9929, 210.4208
962.4750, 210.9920
962.9571, 211.6726
963.4392, 212.4656
963.9213, 213.4255
964.4034, 214.6596
964.8856, 215.5821
965.3677, 215.9991
965.8498, 216.1507
966.3319, 216.4042
966.8140, 216.6915
967.2961, 216.8677
967.7783, 216.8949
968.2604, 216.8126
968.7425, 216.5768
969.2246, 216.2802
969.7067, 215.9944
970.1888, 215.7309
970.6710, 215.4179
971.1531, 215.0528
971.6352, 214.6732
972.1173, 214.5857
972.5994, 214.3347
973.0815, 213.0428
973.5637, 210.9069
974.0458, 209.1512
974.5279, 208.3540
975.0100, 207.8193
975.4921, 207.4908
975.9742, 207.2256
976.4564, 206.6605
976.9385, 205.8037
977.4206, 204.8493
977.9027, 203.8649
978.3848, 202.7935
978.8669, 201.4863
979.3491, 200.1024
979.8312, 198.8389
980.3133, 197.8202
980.7954, 196.6726
981.2775, 195.2063
981.7596, 193.8957
982.2418, 193.1506
982.7239, 192.8520
983.2060, 192.3420
983.6881, 191.6463
984.1702, 191.0493
984.6523, 190.9792
985.1345, 190.8078
985.6166, 189.9427
986.0987, 188.6451
986.5808, 187.9181
987.0629, 187.9686
987.5450, 187.9795
988.0272, 187.8608
988.5093, 187.4787
988.9914, 186.4488
989.4735, 185.0517
989.9556, 183.8301
990.4377, 182.8767
990.9199, 182.2251
991.4020, 182.1856
991.8841, 182.2089
992.3662, 181.9336
992.8483, 181.3587
993.3304, 180.7017
993.8126, 179.9593
994.2947, 179.1903
994.7768, 178.3079
995.2589, 177.5077
995.7410, 177.1188
996.2231, 177.0029
996.7053, 176.7491
997.1874, 176.2537
997.6695, 175.5472
998.1516, 174.4464
998.6337, 173.3537
999.1158, 173.0038
999.5980, 173.2705
1000.080, 173.2855
1000.562, 172.9103
1001.044, 172.3656
1001.526, 171.7689
1002.009, 171.1095
1002.491, 170.3504
1002.973, 169.4667
1003.455, 168.7404
1003.937, 168.2359
1004.419, 167.6843
1004.901, 166.8718
1005.383, 166.0069
1005.865, 165.6295
1006.348, 165.5762
1006.830, 165.3679
1007.312, 164.6460
1007.794, 163.9282
1008.276, 163.3381
1008.758, 162.8424
1009.240, 162.4374
1009.722, 162.1442
1010.205, 161.6882
1010.687, 161.0261
1011.169, 160.3898
1011.651, 159.9807
1012.133, 159.7007
1012.615, 159.4845
1013.097, 159.3190
1013.579, 159.0754
1014.061, 158.7656
1014.544, 158.3339
1015.026, 157.7745
1015.508, 157.0770
1015.990, 155.9964
1016.472, 154.7024
1016.954, 153.9361
1017.436, 154.0818
1017.918, 154.3814
1018.401, 154.6107
1018.883, 154.5937
1019.365, 154.0700
1019.847, 152.8384
1020.329, 152.1905
1020.811, 152.2238
1021.293, 152.3139
1021.775, 151.8692
1022.257, 151.2794
1022.740, 151.1487
1023.222, 151.4169
1023.704, 151.8145
1024.186, 152.6175
1024.668, 153.0414
1025.150, 152.8830
1025.632, 152.3273
1026.114, 151.5637
1026.596, 150.6414
1027.079, 149.9051
1027.561, 149.4138
1028.043, 149.0789
1028.525, 148.9789
1029.007, 148.8942
1029.489, 148.6187
1029.971, 148.1258
1030.453, 147.6616
1030.936, 147.2203
1031.418, 146.8379
1031.900, 146.5802
1032.382, 146.3277
1032.864, 145.7928
1033.346, 145.0786
1033.828, 144.4371
1034.310, 143.9065
1034.792, 143.5472
1035.275, 143.5818
1035.757, 143.6091
1036.239, 143.1868
1036.721, 142.3189
1037.203, 141.8038
1037.685, 141.6735
1038.167, 141.6972
1038.649, 141.9073
1039.132, 142.0355
1039.614, 141.6703
1040.096, 140.9816
1040.578, 140.9118
1041.060, 141.9665
1041.542, 142.3333
1042.024, 141.4850
1042.506, 140.2284
1042.989, 139.8248
1043.471, 139.9080
1043.953, 139.6389
1044.435, 138.7549
1044.917, 138.1172
1045.399, 138.3722
1045.881, 138.6318
1046.363, 138.4126
1046.845, 137.7929
1047.328, 137.4392
1047.810, 137.3282
1048.292, 137.1035
1048.774, 136.4787
1049.256, 135.8468
1049.738, 135.4963
1050.220, 135.3544
1050.702, 135.3255
1051.184, 135.5285
1051.667, 135.5069
1052.149, 135.2161
1052.631, 134.8124
1053.113, 134.3371
1053.595, 133.8754
1054.077, 133.7215
1054.559, 133.8015
1055.041, 133.5795
1055.523, 132.3046
1056.006, 131.3770
1056.488, 131.3169
1056.970, 131.6916
1057.452, 131.5713
1057.934, 131.0255
1058.416, 130.7143
1058.898, 130.7939
1059.380, 130.9296
1059.863, 130.9190
1060.345, 130.7981
1060.827, 130.4945
1061.309, 129.9964
1061.791, 130.0074
1062.273, 130.6872
1062.755, 131.1041
1063.237, 130.7716
1063.719, 130.0504
1064.202, 129.3676
1064.684, 128.7386
1065.166, 128.1824
1065.648, 127.5719
1066.130, 127.3261
1066.612, 127.6909
1067.094, 128.0963
1067.576, 128.0202
1068.059, 127.5612
1068.541, 127.4102
1069.023, 127.5034
1069.505, 127.2513
1069.987, 125.7290
1070.469, 124.3778
1070.951, 124.1751
1071.433, 124.6061
1071.916, 124.7559
1072.398, 124.6030
1072.880, 124.3529
1073.362, 124.0404
1073.844, 123.5999
1074.326, 122.8366
1074.808, 122.0027
1075.290, 121.3659
1075.772, 120.9571
1076.255, 120.5970
1076.737, 120.2408
1077.219, 119.9709
1077.701, 119.7112
1078.183, 119.7113
1078.665, 121.1632
1079.147, 123.1613
1079.629, 123.4035
1080.111, 120.5895
1080.594, 118.0740
1081.076, 117.1260
1081.558, 116.7380
1082.040, 116.4719
1082.522, 116.3093
1083.004, 116.0886
1083.486, 115.8092
1083.968, 115.4869
1084.450, 115.1130
1084.933, 114.7170
1085.415, 114.2776
1085.897, 113.8484
1086.379, 113.4948
1086.861, 113.2195
1087.343, 113.0415
1087.825, 112.9777
1088.307, 112.9128
1088.790, 112.8506
1089.272, 112.6616
1089.754, 112.0198
1090.236, 111.0460
1090.718, 110.4479
1091.200, 110.5864
1091.682, 110.6724
1092.164, 110.5490
1092.646, 110.3631
1093.129, 110.3563
1093.611, 110.4615
1094.093, 110.5414
1094.575, 110.5805
1095.057, 110.4872
1095.539, 110.1332
1096.021, 109.7209
1096.503, 109.2984
1096.986, 108.9016
1097.468, 108.6569
1097.950, 108.5581
1098.432, 108.5822
1098.914, 108.7998
1099.396, 108.9260
1099.878, 108.7365
1100.360, 108.3621
1100.843, 107.8999
1101.325, 107.3338
1101.807, 106.8953
1102.289, 106.5840
1102.771, 106.3831
1103.253, 106.3276
1103.735, 106.3369
1104.217, 106.2731
1104.699, 106.2155
1105.182, 106.3294
1105.664, 106.9623
1106.146, 107.1136
1106.628, 106.5948
1107.110, 106.0316
1107.592, 106.1095
1108.074, 106.4943
1108.556, 106.3854
1109.038, 105.8773
1109.521, 105.6161
1110.003, 106.3690
1110.485, 106.6550
1110.967, 105.9201
1111.449, 104.8917
1111.931, 104.7961
1112.413, 105.3971
1112.895, 105.5630
1113.377, 105.1549
1113.860, 104.7900
1114.342, 104.9918
1114.824, 105.1878
1115.306, 104.9855
1115.788, 104.5486
1116.270, 104.4577
1116.752, 104.7053
1117.234, 104.9192
1117.717, 105.0302
1118.199, 104.9818
1118.681, 104.5625
1119.163, 104.0714
1119.645, 103.8054
1120.127, 103.7860
1120.609, 103.7780
1121.091, 103.7923
1121.573, 103.7472
1122.056, 103.6321
1122.538, 103.4004
1123.020, 102.8753
1123.502, 102.2300
1123.984, 101.7311
1124.466, 101.4767
1124.948, 101.3156
1125.430, 101.3031
1125.913, 101.2359
1126.395, 100.8739
1126.877, 100.4136
1127.359, 100.3819
1127.841, 100.6272
1128.323, 100.7268
1128.805, 100.4454
1129.287, 100.1207
1129.770, 99.86264
1130.252, 99.49231
1130.734, 98.60714
1131.216, 97.45227
1131.698, 97.15955
1132.180, 97.65170
1132.662, 98.03316
1133.144, 97.65377
1133.626, 97.28300
1134.109, 97.26246
1134.591, 97.35684
1135.073, 97.19486
1135.555, 96.79667
1136.037, 96.39164
1136.519, 96.00481
1137.001, 95.59566
1137.483, 95.16286
1137.965, 94.67531
1138.448, 94.02596
1138.930, 93.30974
1139.412, 92.83871
1139.894, 92.61968
1140.376, 92.51203
1140.858, 92.53184
1141.340, 92.41776
1141.822, 91.68066
1142.304, 90.87424
1142.787, 90.65137
1143.269, 91.03235
1143.751, 90.70250
1144.233, 89.46497
1144.715, 88.65101
1145.197, 88.85579
1145.679, 89.36789
1146.161, 89.46162
1146.644, 89.21079
1147.126, 88.63961
1147.608, 87.60126
1148.090, 86.88746
1148.572, 86.58167
1149.054, 86.37936
1149.536, 86.16814
1150.018, 85.93149
1150.500, 85.62320
1150.983, 85.26899
1151.465, 84.91784
1151.947, 84.59743
1152.429, 84.23332
1152.911, 83.73556
1153.393, 83.37579
1153.875, 83.51630
1154.357, 83.87088
1154.840, 83.54732
1155.322, 82.74580
1155.804, 82.12006
1156.286, 82.11449
1156.768, 82.02940
1157.250, 81.69455
1157.732, 81.34888
1158.214, 81.25881
1158.697, 81.34849
1159.179, 81.28709
1159.661, 81.08662
1160.143, 80.87313
1160.625, 80.69634
1161.107, 80.52213
1161.589, 80.20421
1162.071, 80.01070
1162.553, 80.53491
1163.036, 81.58741
1163.518, 81.69077
1164.000, 80.79430
1164.482, 79.88578
1164.964, 79.63316
1165.446, 79.43364
1165.928, 78.92825
1166.410, 78.33208
1166.892, 78.12673
1167.375, 78.27299
1167.857, 78.17455
1168.339, 77.74252
1168.821, 77.32092
1169.303, 77.14089
1169.785, 77.06905
1170.267, 77.00101
1170.749, 76.97212
1171.231, 77.21586
1171.714, 77.72803
1172.196, 77.72428
1172.678, 76.94749
1173.160, 76.26237
1173.642, 76.57232
1174.124, 77.14186
1174.606, 77.41181
1175.088, 77.39914
1175.571, 77.18911
1176.053, 76.75919
1176.535, 76.62937
1177.017, 77.06915
1177.499, 77.41846
1177.981, 76.78655
1178.463, 75.93167
1178.945, 75.57555
1179.427, 75.75396
1179.910, 76.31880
1180.392, 77.36447
1180.874, 77.83679
1181.356, 77.17038
1181.838, 76.17753
1182.320, 75.48466
1182.802, 75.09573
1183.284, 75.09478
1183.767, 75.54796
1184.249, 75.81453
1184.731, 75.87637
1185.213, 75.89175
1185.695, 75.93621
1186.177, 75.97038
1186.659, 75.89194
1187.141, 75.79910
1187.624, 75.85341
1188.106, 76.13498
1188.588, 76.36156
1189.070, 76.56157
1189.552, 76.53098
1190.034, 75.97410
1190.516, 75.31544
1190.998, 75.15591
1191.480, 75.25103
1191.963, 75.14770
1192.445, 74.50943
1192.927, 74.46232
1193.409, 75.15087
1193.891, 75.76315
1194.373, 75.64106
1194.855, 75.19805
1195.337, 74.86643
1195.819, 74.65527
1196.302, 74.60153
1196.784, 74.79956
1197.266, 74.93762
1197.748, 75.00949
1198.230, 75.02261
1198.712, 75.00602
1199.194, 74.91805
1199.676, 74.57101
1200.158, 74.11497
1200.641, 73.99224
1201.123, 74.54703
1201.605, 74.74383
1202.087, 74.46094
1202.569, 74.09676
1203.051, 73.98144
1203.533, 74.02332
1204.015, 74.15823
1204.498, 74.34593
1204.980, 74.47382
1205.462, 74.59834
1205.944, 74.46399
1206.426, 73.99345
1206.908, 73.47419
1207.390, 73.15577
1207.872, 72.97952
1208.354, 72.86987
1208.837, 72.82952
1209.319, 72.90716
1209.801, 73.16527
1210.283, 73.39361
1210.765, 73.59587
1211.247, 73.65689
1211.729, 73.21490
1212.211, 72.72643
1212.694, 72.94432
1213.176, 73.73584
1213.658, 74.07698
1214.140, 73.74564
1214.622, 73.37439
1215.104, 73.01424
1215.586, 72.80913
1216.068, 73.11195
1216.551, 73.52551
1217.033, 73.53425
1217.515, 73.15916
1217.997, 72.82018
1218.479, 72.49953
1218.961, 72.31297
1219.443, 72.21043
1219.925, 72.54329
1220.407, 74.33320
1220.890, 76.33918
1221.372, 77.15617
1221.854, 76.71400
1222.336, 75.83681
1222.818, 74.38394
1223.300, 73.24242
1223.782, 72.56987
1224.264, 72.30965
1224.746, 72.74229
1225.229, 73.30647
1225.711, 73.35557
1226.193, 72.89169
1226.675, 72.62940
1227.157, 72.61507
1227.639, 72.55772
1228.121, 72.36683
1228.603, 72.25913
1229.085, 72.65112
1229.568, 73.09549
1230.050, 73.06963
1230.532, 72.61703
1231.014, 72.50126
1231.496, 72.78182
1231.978, 72.83411
1232.460, 72.47224
1232.942, 72.06630
1233.425, 71.95004
1233.907, 71.96529
1234.389, 72.00248
1234.871, 72.04644
1235.353, 72.00298
1235.835, 71.85761
1236.317, 72.04403
1236.799, 72.74628
1237.281, 73.35366
1237.764, 73.21486
1238.246, 72.88998
1238.728, 72.89791
1239.210, 73.11877
1239.692, 72.91069
1240.174, 72.30006
1240.656, 71.89405
1241.138, 71.84630
1241.621, 71.98568
1242.103, 72.39223
1242.585, 72.74088
1243.067, 72.77901
1243.549, 72.59470
1244.031, 72.48641
1244.513, 72.44855
1244.995, 72.46321
1245.478, 72.54053
1245.960, 72.57391
1246.442, 72.40553
1246.924, 72.27644
1247.406, 72.31599
1247.888, 72.48519
1248.370, 72.72058
1248.852, 72.98526
1249.334, 73.13221
1249.817, 73.13028
1250.299, 72.98827
1250.781, 72.41178
1251.263, 72.07901
1251.745, 72.37109
1252.227, 72.97042
1252.709, 73.06422
1253.191, 72.81412
1253.673, 72.70989
1254.156, 72.87903
1254.638, 72.95618
1255.120, 72.69375
1255.602, 72.53003
1256.084, 72.65219
1256.566, 72.89446
1257.048, 72.87129
1257.530, 72.73191
1258.012, 72.83135
1258.495, 73.26812
1258.977, 73.51694
1259.459, 73.49113
1259.941, 73.28677
1260.423, 72.85606
1260.905, 72.42709
1261.387, 72.43501
1261.869, 72.64779
1262.352, 72.71084
1262.834, 72.56209
1263.316, 72.47903
1263.798, 72.47307
1264.280, 72.56608
1264.762, 72.80807
1265.244, 73.01577
1265.726, 72.89350
1266.208, 72.66367
1266.691, 72.54640
1267.173, 72.57372
1267.655, 72.81588
1268.137, 73.33633
1268.619, 73.49387
1269.101, 73.02550
1269.583, 72.56956
1270.065, 72.94524
1270.548, 73.42960
1271.030, 73.22198
1271.512, 72.52818
1271.994, 72.34484
1272.476, 72.66093
1272.958, 72.90420
1273.440, 72.94860
1273.922, 72.90611
1274.405, 72.75678
1274.887, 72.65291
1275.369, 72.70239
1275.851, 72.85036
1276.333, 72.95005
1276.815, 73.00922
1277.297, 73.08683
1277.779, 73.19926
1278.261, 73.22543
1278.744, 72.97456
1279.226, 72.78323
1279.708, 72.78669
1280.190, 72.89517
1280.672, 73.00755
1281.154, 73.06890
1281.636, 72.88626
1282.118, 72.43202
1282.600, 72.07443
1283.083, 71.86780
1283.565, 71.91191
1284.047, 72.35416
1284.529, 72.76709
1285.011, 72.26885
1285.493, 71.48314
1285.975, 71.49770
1286.457, 72.34222
1286.939, 72.85209
1287.422, 72.88791
1287.904, 72.70323
1288.386, 72.28865
1288.868, 71.93344
1289.350, 72.01139
1289.832, 72.25826
1290.314, 72.44495
1290.796, 72.55397
1291.279, 72.57658
1291.761, 72.48123
1292.243, 72.70720
1292.725, 73.34671
1293.207, 73.80476
1293.689, 73.43739
1294.171, 72.88946
1294.653, 72.53439
1295.135, 72.32661
1295.618, 72.16092
1296.100, 72.05631
1296.582, 72.24351
1297.064, 72.73848
1297.546, 73.29499
1298.028, 74.20721
1298.510, 74.46706
1298.992, 73.47919
1299.475, 72.22627
1299.957, 72.05433
1300.439, 72.64687
1300.921, 73.19352
1301.403, 73.61848
1301.885, 73.86620
##END=



