##NAMES=Ktenasite
##RRUFFID=R090002
##IDEAL CHEMISTRY=Zn^2+^Cu^2+^_4_(S^6+^O_4_)_2_(OH)_6_&#183;6H_2_O
##LOCALITY=Oh mine, Gila County, Arizona, USA
##OWNER=RRUFF
##SOURCE=Michael Scott
##DESCRIPTION=Radial aggregates of bluish green tabular crystals associated with serpierite, R060475
##STATUS=The identification of this mineral has been confirmed by single-crystal X-ray diffraction.
##URL=rruff.info/R090002
93.30109, 0.0000000E+00
93.78320, 149.8933
94.26532, 149.6745
94.74744, 150.1915
95.22955, 151.0736
95.71167, 152.3867
96.19379, 153.4679
96.67590, 154.7486
97.15802, 155.5831
97.64014, 155.7251
98.12225, 155.4005
98.60437, 154.9936
99.08649, 154.6460
99.56860, 154.3707
100.0507, 154.2121
100.5328, 154.0041
101.0150, 153.5557
101.4971, 152.5204
101.9792, 150.8526
102.4613, 149.6838
102.9434, 150.0981
103.4255, 150.8461
103.9077, 151.0531
104.3898, 150.4486
104.8719, 149.2397
105.3540, 147.6198
105.8361, 144.5171
106.3182, 142.9410
106.8004, 144.1955
107.2825, 146.8873
107.7646, 149.6008
108.2467, 151.6038
108.7288, 152.8163
109.2109, 151.9510
109.6931, 146.0864
110.1752, 141.0759
110.6573, 138.8540
111.1394, 138.9065
111.6215, 139.4628
112.1036, 138.8997
112.5858, 136.9400
113.0679, 136.4172
113.5500, 138.2443
114.0321, 140.7138
114.5142, 142.7784
114.9964, 144.2684
115.4785, 145.2818
115.9606, 145.7911
116.4427, 145.8304
116.9248, 145.7045
117.4069, 145.5165
117.8891, 145.2058
118.3712, 144.6243
118.8533, 143.6818
119.3354, 142.5332
119.8175, 140.8894
120.2996, 138.8439
120.7818, 137.7487
121.2639, 139.3801
121.7460, 143.8887
122.2281, 146.9323
122.7102, 146.3546
123.1923, 144.9246
123.6745, 143.8885
124.1566, 143.4921
124.6387, 143.3906
125.1208, 143.1453
125.6029, 142.8770
126.0850, 142.1451
126.5672, 140.4385
127.0493, 138.6043
127.5314, 137.4336
128.0135, 137.2204
128.4956, 137.5701
128.9777, 137.3623
129.4599, 135.4333
129.9420, 134.2361
130.4241, 134.4225
130.9062, 135.3767
131.3883, 136.1677
131.8704, 136.2624
132.3526, 135.8233
132.8347, 135.7837
133.3168, 136.9528
133.7989, 137.6472
134.2810, 136.6554
134.7632, 134.3138
135.2453, 132.3985
135.7274, 132.1465
136.2095, 133.2817
136.6916, 134.3846
137.1737, 135.5625
137.6559, 136.5797
138.1380, 137.1690
138.6201, 137.2816
139.1022, 137.1909
139.5843, 137.3113
140.0664, 137.3295
140.5486, 136.6399
141.0307, 134.3940
141.5128, 131.3429
141.9949, 129.7877
142.4770, 130.3615
142.9591, 131.6514
143.4413, 133.3922
143.9234, 135.2898
144.4055, 136.8544
144.8876, 137.7063
145.3697, 137.8426
145.8518, 137.7609
146.3340, 137.3003
146.8161, 136.7442
147.2982, 136.2469
147.7803, 135.7451
148.2624, 134.9956
148.7445, 133.6091
149.2267, 131.1150
149.7088, 130.1254
150.1909, 131.1599
150.6730, 132.8950
151.1551, 135.0327
151.6372, 137.3383
152.1194, 139.2010
152.6015, 139.8404
153.0836, 138.7198
153.5657, 137.5360
154.0478, 136.0603
154.5299, 134.6263
155.0121, 133.4432
155.4942, 132.5364
155.9763, 132.1669
156.4584, 133.2082
156.9405, 135.8689
157.4226, 137.6960
157.9048, 137.6715
158.3869, 136.3654
158.8690, 134.8143
159.3511, 132.9420
159.8332, 131.4897
160.3153, 131.5195
160.7975, 133.0658
161.2796, 134.5215
161.7617, 134.4803
162.2438, 133.1117
162.7259, 132.7176
163.2081, 135.0475
163.6902, 137.5545
164.1723, 138.3022
164.6544, 137.1136
165.1365, 135.0871
165.6186, 133.2024
166.1008, 131.3988
166.5829, 130.0685
167.0650, 129.3683
167.5471, 129.0884
168.0292, 129.1878
168.5113, 129.6433
168.9935, 130.3832
169.4756, 131.4016
169.9577, 133.2701
170.4398, 134.2520
170.9219, 133.7855
171.4040, 132.7781
171.8862, 131.9383
172.3683, 131.5356
172.8504, 131.4043
173.3325, 131.1516
173.8146, 130.8282
174.2967, 130.2893
174.7789, 128.9422
175.2610, 127.5651
175.7431, 127.3534
176.2252, 128.9131
176.7073, 131.4221
177.1894, 132.0916
177.6716, 128.8738
178.1537, 126.5374
178.6358, 126.6596
179.1179, 128.2493
179.6000, 129.3857
180.0821, 129.0753
180.5643, 127.7506
181.0464, 126.7976
181.5285, 126.3530
182.0106, 125.9875
182.4927, 125.5457
182.9748, 125.0275
183.4570, 124.3225
183.9391, 122.9284
184.4212, 121.6791
184.9033, 122.2806
185.3854, 125.9678
185.8675, 129.5117
186.3497, 129.8165
186.8318, 126.7847
187.3139, 123.9506
187.7960, 123.0690
188.2781, 123.1742
188.7602, 123.2026
189.2424, 122.8238
189.7245, 122.6095
190.2066, 123.5761
190.6887, 126.2096
191.1708, 128.2425
191.6530, 128.6216
192.1351, 128.1829
192.6172, 127.4438
193.0993, 126.5198
193.5814, 125.6425
194.0635, 125.3550
194.5457, 126.0410
195.0278, 126.5634
195.5099, 126.6142
195.9920, 126.4401
196.4741, 126.3093
196.9562, 126.3501
197.4384, 126.4295
197.9205, 126.1191
198.4026, 124.7979
198.8847, 123.9535
199.3668, 123.6608
199.8489, 123.9417
200.3311, 125.1039
200.8132, 127.3461
201.2953, 130.1178
201.7774, 131.2141
202.2595, 128.3060
202.7416, 126.2201
203.2238, 125.6488
203.7059, 126.1353
204.1880, 127.1954
204.6701, 128.6446
205.1522, 130.2076
205.6343, 130.5795
206.1165, 127.8799
206.5986, 126.2610
207.0807, 127.5674
207.5628, 130.5171
208.0449, 132.6421
208.5270, 132.5544
209.0092, 130.8501
209.4913, 129.9804
209.9734, 130.2548
210.4555, 130.7762
210.9376, 131.3978
211.4197, 132.0476
211.9019, 132.4167
212.3840, 132.1053
212.8661, 131.6554
213.3482, 132.6069
213.8303, 136.1173
214.3124, 139.0923
214.7946, 139.4306
215.2767, 137.5381
215.7588, 135.5780
216.2409, 134.4041
216.7230, 133.8060
217.2052, 133.2696
217.6873, 132.8277
218.1694, 132.3749
218.6515, 131.3906
219.1336, 129.9342
219.6157, 129.7787
220.0979, 132.6908
220.5800, 136.5957
221.0621, 139.1745
221.5442, 140.0079
222.0263, 140.2255
222.5084, 140.8630
222.9906, 141.9609
223.4727, 143.0537
223.9548, 143.5360
224.4369, 144.2603
224.9190, 146.3085
225.4011, 149.9767
225.8833, 153.4421
226.3654, 154.4795
226.8475, 152.7171
227.3296, 150.2670
227.8117, 146.3207
228.2938, 142.6122
228.7760, 140.6954
229.2581, 140.7819
229.7402, 141.2229
230.2223, 139.5208
230.7044, 134.6261
231.1865, 130.9412
231.6687, 129.2195
232.1508, 128.5305
232.6329, 128.7917
233.1150, 129.8037
233.5971, 130.7937
234.0792, 130.5208
234.5614, 128.1467
235.0435, 126.5943
235.5256, 125.9314
236.0077, 125.9538
236.4898, 126.9065
236.9719, 128.6507
237.4541, 130.4687
237.9362, 131.3694
238.4183, 131.0185
238.9004, 130.4707
239.3825, 129.5980
239.8646, 128.6657
240.3468, 127.6866
240.8289, 126.7412
241.3110, 126.1166
241.7931, 126.2168
242.2752, 127.4109
242.7573, 128.2921
243.2395, 128.8561
243.7216, 129.1646
244.2037, 129.1844
244.6858, 128.9465
245.1679, 128.5874
245.6501, 128.2416
246.1322, 127.8888
246.6143, 127.6681
247.0964, 127.4216
247.5785, 127.4044
248.0606, 128.1129
248.5428, 129.4299
249.0249, 130.4039
249.5070, 129.9718
249.9891, 127.8180
250.4712, 126.5644
250.9533, 126.5853
251.4355, 127.1447
251.9176, 128.0274
252.3997, 129.1148
252.8818, 129.9761
253.3639, 130.3636
253.8460, 130.1710
254.3282, 128.9767
254.8103, 125.1098
255.2924, 121.5725
255.7745, 120.9532
256.2566, 123.0614
256.7387, 125.3047
257.2209, 125.9774
257.7030, 125.1108
258.1851, 123.9612
258.6672, 121.4589
259.1493, 119.5398
259.6314, 120.1745
260.1136, 123.0697
260.5957, 125.5191
261.0778, 126.0140
261.5599, 124.7383
262.0420, 122.8356
262.5241, 118.9910
263.0063, 116.0815
263.4884, 117.1438
263.9705, 121.6555
264.4526, 124.9301
264.9347, 124.1107
265.4168, 121.0698
265.8990, 119.6415
266.3811, 120.3685
266.8632, 121.6107
267.3453, 122.5492
267.8274, 123.1362
268.3095, 122.8057
268.7917, 120.4197
269.2738, 117.8827
269.7559, 117.7922
270.2380, 120.5607
270.7201, 123.7330
271.2022, 125.9534
271.6844, 127.2339
272.1665, 127.5772
272.6486, 126.5562
273.1307, 124.9839
273.6128, 123.2159
274.0949, 121.2675
274.5771, 120.6289
275.0592, 123.5024
275.5413, 129.0504
276.0234, 132.2159
276.5055, 131.2282
276.9876, 128.9215
277.4698, 127.4309
277.9519, 126.6612
278.4340, 126.1116
278.9161, 125.2341
279.3982, 124.2579
279.8803, 124.3562
280.3625, 126.3149
280.8446, 128.2377
281.3267, 128.7895
281.8088, 128.4246
282.2909, 128.2044
282.7730, 128.7068
283.2552, 129.7893
283.7373, 131.0669
284.2194, 132.7933
284.7015, 134.2147
285.1836, 135.0529
285.6658, 135.4038
286.1479, 135.2789
286.6300, 134.3721
287.1121, 133.2979
287.5942, 133.5755
288.0764, 135.7195
288.5585, 138.0425
289.0406, 139.7184
289.5227, 141.3111
290.0048, 143.6647
290.4869, 147.3383
290.9691, 151.0450
291.4512, 152.3834
291.9333, 150.6207
292.4154, 148.8025
292.8975, 147.3865
293.3796, 146.4261
293.8618, 146.3131
294.3439, 147.1407
294.8260, 147.8923
295.3081, 147.0317
295.7902, 144.1379
296.2723, 141.6445
296.7545, 140.0956
297.2366, 138.9671
297.7187, 138.2736
298.2008, 137.8948
298.6829, 137.2643
299.1650, 135.5088
299.6472, 132.4094
300.1293, 130.2099
300.6114, 129.6418
301.0935, 129.5364
301.5756, 129.9024
302.0577, 130.4043
302.5399, 130.1673
303.0220, 128.0048
303.5041, 124.0676
303.9862, 121.7813
304.4683, 122.3895
304.9504, 123.3463
305.4326, 124.2913
305.9147, 124.8575
306.3968, 124.3372
306.8789, 121.9621
307.3610, 118.3716
307.8431, 116.4750
308.3253, 117.4859
308.8074, 118.3557
309.2895, 118.0779
309.7716, 117.2541
310.2537, 116.5967
310.7358, 116.4177
311.2180, 116.5486
311.7001, 116.6933
312.1822, 117.0674
312.6643, 116.9413
313.1464, 115.8930
313.6285, 114.5239
314.1107, 113.1803
314.5928, 111.9785
315.0749, 111.0719
315.5570, 110.7857
316.0391, 111.3373
316.5212, 111.7159
317.0034, 111.0869
317.4855, 110.8203
317.9676, 112.3911
318.4497, 115.5151
318.9318, 118.0433
319.4139, 117.2016
319.8961, 112.4728
320.3782, 109.5367
320.8603, 110.0722
321.3424, 110.9741
321.8245, 110.9245
322.3066, 110.2523
322.7888, 110.0359
323.2709, 111.3465
323.7530, 113.8391
324.2351, 114.8019
324.7172, 112.8938
325.1993, 111.2837
325.6815, 111.1348
326.1636, 111.8075
326.6457, 112.3621
327.1278, 112.3033
327.6099, 111.9608
328.0920, 112.2017
328.5742, 113.3970
329.0563, 114.3765
329.5384, 115.1643
330.0205, 115.4932
330.5026, 114.8989
330.9847, 113.2557
331.4669, 111.3535
331.9490, 110.3222
332.4311, 110.3465
332.9132, 110.4333
333.3953, 111.1309
333.8774, 111.3304
334.3596, 109.7734
334.8417, 106.7094
335.3238, 104.0934
335.8059, 104.2176
336.2880, 107.1343
336.7701, 108.9215
337.2523, 108.5495
337.7344, 108.0533
338.2165, 108.3656
338.6986, 109.2858
339.1807, 110.3246
339.6628, 111.4442
340.1450, 112.3851
340.6271, 112.0181
341.1092, 109.5845
341.5913, 107.2913
342.0735, 105.8943
342.5556, 105.1245
343.0377, 104.6261
343.5198, 104.2093
344.0019, 104.1911
344.4840, 105.4069
344.9662, 108.3238
345.4483, 110.4543
345.9304, 110.5918
346.4125, 109.8847
346.8946, 108.7492
347.3767, 107.2656
347.8589, 106.1861
348.3410, 106.4960
348.8231, 108.1537
349.3052, 109.5027
349.7873, 110.6829
350.2694, 111.0010
350.7516, 109.3542
351.2337, 106.2882
351.7158, 104.0896
352.1979, 104.9600
352.6800, 107.8049
353.1621, 108.6756
353.6443, 106.4377
354.1264, 104.6979
354.6085, 106.4142
355.0906, 109.8469
355.5727, 112.2885
356.0548, 112.6173
356.5370, 111.8630
357.0191, 111.2356
357.5012, 110.7327
357.9833, 110.4424
358.4654, 110.7503
358.9475, 111.0771
359.4297, 110.6910
359.9118, 109.4262
360.3939, 107.9373
360.8760, 106.4940
361.3581, 105.1710
361.8402, 104.3389
362.3224, 104.1494
362.8045, 104.4019
363.2866, 105.2387
363.7687, 106.5556
364.2508, 107.0735
364.7329, 105.4821
365.2151, 103.0230
365.6972, 101.7686
366.1793, 101.9615
366.6614, 102.9321
367.1435, 104.6420
367.6256, 106.7644
368.1078, 108.2791
368.5899, 109.0473
369.0720, 109.1771
369.5541, 108.2854
370.0362, 106.5864
370.5183, 105.5534
371.0005, 105.9894
371.4826, 107.4402
371.9647, 108.9435
372.4468, 110.7955
372.9289, 111.9808
373.4110, 111.8671
373.8932, 110.8604
374.3753, 109.4830
374.8574, 107.7727
375.3395, 106.3264
375.8216, 105.9832
376.3037, 106.8404
376.7859, 107.9693
377.2680, 110.1352
377.7501, 111.9627
378.2322, 111.6817
378.7143, 109.4978
379.1964, 107.8773
379.6786, 108.9547
380.1607, 112.3526
380.6428, 113.6943
381.1249, 111.5058
381.6070, 109.2131
382.0891, 107.9343
382.5713, 107.4082
383.0534, 107.1044
383.5355, 106.8001
384.0176, 106.5431
384.4997, 106.4146
384.9818, 106.0770
385.4640, 106.4986
385.9461, 108.4808
386.4282, 110.7477
386.9103, 112.1907
387.3924, 112.6606
387.8745, 112.7407
388.3567, 113.1068
388.8388, 113.9378
389.3209, 113.6961
389.8030, 111.2722
390.2851, 109.0856
390.7672, 107.9848
391.2494, 107.8335
391.7315, 108.3453
392.2136, 109.4148
392.6957, 110.7643
393.1778, 111.2618
393.6599, 109.8064
394.1421, 109.0553
394.6242, 109.4691
395.1063, 110.5073
395.5884, 112.0372
396.0706, 113.8815
396.5527, 115.2912
397.0348, 114.8565
397.5169, 111.6256
397.9990, 110.3671
398.4811, 113.6971
398.9633, 116.6668
399.4454, 117.0868
399.9275, 115.4690
400.4096, 113.4666
400.8917, 112.0695
401.3738, 111.2433
401.8560, 110.8485
402.3381, 110.9066
402.8202, 111.3946
403.3023, 112.6960
403.7844, 114.1851
404.2665, 115.0524
404.7487, 115.0055
405.2308, 114.9892
405.7129, 116.6359
406.1950, 120.1246
406.6771, 122.0986
407.1592, 121.2423
407.6414, 119.3495
408.1235, 117.3803
408.6056, 115.4685
409.0877, 114.0852
409.5698, 113.8050
410.0519, 114.2052
410.5341, 114.2451
411.0162, 113.7928
411.4983, 113.3951
411.9804, 113.4126
412.4625, 113.7018
412.9446, 114.0713
413.4268, 114.6099
413.9089, 115.0211
414.3910, 115.0990
414.8731, 114.8525
415.3552, 114.2168
415.8373, 112.9426
416.3195, 111.6548
416.8016, 111.6211
417.2837, 112.9693
417.7658, 113.4251
418.2479, 111.7613
418.7300, 109.2243
419.2122, 106.8857
419.6943, 104.9247
420.1764, 103.9924
420.6585, 104.9358
421.1406, 107.5181
421.6227, 108.8741
422.1049, 107.9754
422.5870, 107.1224
423.0691, 107.6094
423.5512, 108.7079
424.0333, 109.0204
424.5154, 107.9740
424.9976, 106.1140
425.4797, 104.3928
425.9618, 102.4148
426.4439, 101.5141
426.9260, 102.4712
427.4081, 103.8562
427.8903, 104.7933
428.3724, 105.1871
428.8545, 105.2641
429.3366, 105.1628
429.8187, 104.9053
430.3008, 104.9680
430.7830, 105.2255
431.2651, 106.0009
431.7472, 108.4875
432.2293, 111.0820
432.7114, 111.4376
433.1935, 108.7580
433.6757, 105.0506
434.1578, 103.8443
434.6399, 106.0922
435.1220, 107.4623
435.6041, 106.6029
436.0862, 105.6665
436.5684, 105.9644
437.0505, 107.1587
437.5326, 107.8463
438.0147, 106.5631
438.4968, 104.1816
438.9789, 104.1685
439.4611, 107.7335
439.9432, 110.6045
440.4253, 110.8083
440.9074, 109.5088
441.3895, 107.5192
441.8716, 104.8313
442.3538, 102.4561
442.8359, 101.2201
443.3180, 101.0632
443.8001, 101.8765
444.2822, 104.1331
444.7643, 106.4556
445.2465, 107.3891
445.7286, 107.2094
446.2107, 106.9257
446.6928, 106.6430
447.1749, 106.4952
447.6570, 106.6721
448.1392, 107.1486
448.6213, 107.7811
449.1034, 108.7203
449.5855, 109.5568
450.0677, 108.9204
450.5498, 105.6542
451.0319, 103.5931
451.5140, 104.9139
451.9961, 107.4174
452.4782, 108.4038
452.9604, 107.3808
453.4425, 105.4854
453.9246, 103.7696
454.4067, 102.2100
454.8888, 101.1437
455.3709, 100.6222
455.8531, 100.4412
456.3352, 100.8516
456.8173, 101.4859
457.2994, 101.7133
457.7815, 101.2379
458.2636, 100.4032
458.7458, 99.98175
459.2279, 100.4319
459.7100, 100.3174
460.1921, 98.72146
460.6742, 97.35791
461.1563, 97.48293
461.6385, 98.85469
462.1206, 100.2727
462.6027, 100.8449
463.0848, 100.6917
463.5669, 100.4020
464.0490, 99.87813
464.5312, 99.41885
465.0133, 99.24612
465.4954, 99.12328
465.9775, 98.60858
466.4596, 97.53693
466.9417, 96.90984
467.4239, 98.28192
467.9060, 101.2162
468.3881, 102.6501
468.8702, 101.6943
469.3523, 100.0504
469.8344, 98.95131
470.3166, 98.29338
470.7987, 97.87598
471.2808, 97.68889
471.7629, 97.69128
472.2450, 97.89483
472.7271, 98.27560
473.2093, 98.78522
473.6914, 99.52332
474.1735, 100.1647
474.6556, 99.96905
475.1377, 98.71104
475.6198, 97.54005
476.1020, 96.16670
476.5841, 95.25624
477.0662, 95.87058
477.5483, 97.77197
478.0304, 99.30939
478.5125, 99.13737
478.9947, 97.49779
479.4768, 96.53635
479.9589, 96.55006
480.4410, 96.88930
480.9231, 98.04891
481.4052, 99.19700
481.8874, 99.40632
482.3695, 98.49619
482.8516, 97.05519
483.3337, 95.61620
483.8158, 94.07372
484.2979, 93.45969
484.7801, 94.52791
485.2622, 95.72228
485.7443, 96.78074
486.2264, 97.53944
486.7085, 97.72877
487.1906, 97.16882
487.6728, 96.24360
488.1549, 95.40229
488.6370, 94.63375
489.1191, 94.18944
489.6012, 94.33386
490.0833, 94.59056
490.5655, 94.16409
491.0476, 93.26478
491.5297, 93.36751
492.0118, 96.24641
492.4939, 99.78540
492.9760, 101.3906
493.4582, 101.0375
493.9403, 99.29317
494.4224, 95.79309
494.9045, 91.66920
495.3866, 90.02827
495.8687, 91.70075
496.3509, 93.22044
496.8330, 93.51638
497.3151, 93.42336
497.7972, 93.89305
498.2793, 94.98701
498.7614, 96.17021
499.2436, 97.09898
499.7257, 97.72179
500.2078, 97.11183
500.6899, 93.24950
501.1720, 90.60112
501.6541, 90.33893
502.1363, 91.42078
502.6184, 93.14519
503.1005, 95.13878
503.5826, 96.57608
504.0647, 96.08191
504.5468, 93.35277
505.0290, 91.81256
505.5111, 92.66259
505.9932, 93.22243
506.4753, 91.77798
506.9575, 89.54613
507.4396, 88.64022
507.9217, 90.10764
508.4038, 92.20577
508.8859, 92.50938
509.3680, 91.15685
509.8502, 90.91628
510.3323, 93.35289
510.8144, 95.51048
511.2965, 93.25905
511.7786, 87.60228
512.2607, 84.22103
512.7429, 86.36141
513.2250, 89.87360
513.7071, 91.61362
514.1892, 91.66057
514.6713, 90.53274
515.1534, 88.18536
515.6356, 85.57326
516.1177, 84.65843
516.5998, 86.48008
517.0819, 87.70811
517.5640, 87.46220
518.0461, 87.25033
518.5283, 88.58469
519.0104, 90.97365
519.4925, 92.58508
519.9746, 92.14387
520.4567, 90.21861
520.9388, 88.91012
521.4210, 88.45074
521.9031, 88.20443
522.3852, 88.30815
522.8673, 88.40713
523.3494, 88.19757
523.8315, 87.70327
524.3137, 87.20177
524.7958, 86.79208
525.2779, 86.55888
525.7600, 87.04869
526.2421, 88.63854
526.7242, 89.50649
527.2064, 88.13189
527.6885, 85.96834
528.1706, 84.98527
528.6527, 85.56100
529.1348, 85.96248
529.6169, 84.60476
530.0991, 82.75138
530.5812, 82.79469
531.0633, 84.99469
531.5454, 87.36555
532.0275, 88.57045
532.5096, 88.68887
532.9918, 88.22245
533.4739, 86.05562
533.9560, 84.82104
534.4381, 85.82805
534.9202, 87.62348
535.4023, 88.77369
535.8845, 88.94365
536.3666, 88.36668
536.8487, 87.04669
537.3308, 84.98579
537.8129, 84.54380
538.2950, 87.70456
538.7772, 89.89489
539.2593, 89.38882
539.7414, 87.79814
540.2235, 86.86217
540.7056, 87.02480
541.1877, 87.43133
541.6699, 87.28310
542.1520, 86.62936
542.6341, 85.64705
543.1162, 83.99789
543.5983, 82.89394
544.0804, 83.93970
544.5626, 85.91769
545.0447, 86.40502
545.5268, 84.24067
546.0089, 82.16692
546.4910, 82.08443
546.9731, 83.13063
547.4553, 83.40276
547.9374, 82.48573
548.4195, 81.97937
548.9016, 83.73218
549.3837, 87.84010
549.8658, 89.79655
550.3480, 88.33207
550.8301, 86.65162
551.3122, 85.46164
551.7943, 84.61929
552.2764, 83.83829
552.7585, 83.06770
553.2407, 82.56503
553.7228, 82.67649
554.2049, 83.42764
554.6870, 84.36308
555.1691, 85.85031
555.6512, 86.98087
556.1334, 87.44599
556.6155, 87.40107
557.0976, 86.96325
557.5797, 86.11760
558.0618, 85.23239
558.5439, 84.32976
559.0261, 83.62378
559.5082, 84.22224
559.9903, 86.61479
560.4724, 88.78859
560.9545, 89.21619
561.4366, 88.05273
561.9188, 86.59261
562.4009, 84.33442
562.8830, 82.42854
563.3651, 81.27489
563.8472, 80.73283
564.3293, 80.70891
564.8115, 81.14079
565.2936, 81.76933
565.7757, 82.30233
566.2578, 82.74031
566.7399, 83.68169
567.2220, 86.25345
567.7042, 87.94814
568.1863, 88.10831
568.6684, 87.32848
569.1505, 85.89554
569.6326, 84.00780
570.1147, 82.38707
570.5969, 81.81865
571.0790, 82.17258
571.5611, 82.72617
572.0432, 83.59935
572.5253, 84.30327
573.0074, 84.63670
573.4896, 84.61264
573.9717, 84.10706
574.4538, 82.84802
574.9359, 82.05797
575.4180, 82.72385
575.9001, 84.01503
576.3823, 84.98984
576.8644, 85.47759
577.3465, 85.01871
577.8286, 82.94904
578.3107, 79.92238
578.7928, 79.17221
579.2750, 83.54099
579.7571, 86.49527
580.2392, 86.56636
580.7213, 85.94091
581.2034, 86.55618
581.6855, 88.28516
582.1677, 89.50790
582.6498, 88.83088
583.1319, 86.90250
583.6140, 86.01897
584.0961, 86.45161
584.5782, 87.00661
585.0604, 87.75584
585.5425, 88.17317
586.0246, 87.44453
586.5067, 85.70088
586.9889, 84.63828
587.4710, 85.61214
587.9531, 87.24197
588.4352, 88.06752
588.9174, 88.09798
589.3995, 87.45156
589.8816, 85.97298
590.3637, 84.46778
590.8458, 84.46352
591.3279, 86.92625
591.8101, 88.11805
592.2922, 87.09573
592.7743, 85.75846
593.2564, 84.80669
593.7385, 84.34960
594.2206, 84.46297
594.7028, 85.18404
595.1849, 86.28677
595.6670, 87.56604
596.1491, 89.14600
596.6312, 89.93134
597.1133, 89.36226
597.5955, 88.61561
598.0776, 88.05138
598.5597, 87.82220
599.0418, 88.36311
599.5239, 90.21835
600.0060, 91.88351
600.4882, 91.93709
600.9703, 90.91556
601.4524, 89.97953
601.9345, 89.33074
602.4166, 89.25068
602.8987, 90.13007
603.3809, 91.88087
603.8630, 93.14824
604.3451, 93.87037
604.8272, 94.26778
605.3093, 93.87729
605.7914, 93.48967
606.2736, 94.22787
606.7557, 95.97890
607.2378, 97.34306
607.7199, 97.10259
608.2020, 95.49773
608.6841, 93.46597
609.1663, 90.43500
609.6484, 88.64355
610.1305, 89.59877
610.6126, 91.50493
611.0947, 93.08456
611.5768, 94.24928
612.0590, 94.84476
612.5411, 94.61987
613.0232, 93.93122
613.5053, 93.25317
613.9874, 92.50703
614.4695, 91.08128
614.9517, 88.57240
615.4338, 85.86835
615.9159, 84.35085
616.3980, 84.12671
616.8801, 84.88674
617.3622, 88.37554
617.8444, 90.89497
618.3265, 90.33485
618.8086, 87.94115
619.2907, 85.50121
619.7728, 83.68652
620.2549, 82.64278
620.7371, 82.92075
621.2192, 84.44334
621.7013, 85.18171
622.1834, 84.82335
622.6655, 84.15907
623.1476, 83.19520
623.6298, 82.36602
624.1119, 82.64931
624.5940, 84.75526
625.0761, 86.03848
625.5582, 84.40788
626.0403, 81.76903
626.5225, 80.56802
627.0046, 80.90345
627.4867, 81.59705
627.9688, 81.96859
628.4509, 81.96320
628.9330, 81.34032
629.4152, 79.35968
629.8973, 78.13071
630.3794, 78.05920
630.8615, 78.32796
631.3436, 78.62782
631.8257, 78.87843
632.3079, 79.03488
632.7900, 79.10261
633.2721, 78.99413
633.7542, 78.46400
634.2363, 77.57460
634.7184, 76.89175
635.2006, 76.51013
635.6827, 76.39001
636.1648, 76.50514
636.6469, 76.87309
637.1290, 77.47630
637.6111, 78.51517
638.0933, 79.54297
638.5754, 80.78966
639.0575, 81.73592
639.5396, 81.49731
640.0217, 80.15596
640.5038, 78.87724
640.9860, 78.65814
641.4681, 79.24519
641.9502, 79.20326
642.4323, 77.78685
642.9144, 77.62052
643.3965, 81.24733
643.8787, 84.73156
644.3608, 85.06519
644.8429, 82.68232
645.3250, 80.32995
645.8071, 78.81973
646.2892, 78.13133
646.7714, 79.03127
647.2535, 80.80817
647.7356, 80.66235
648.2177, 77.63809
648.6998, 74.52639
649.1819, 74.70842
649.6641, 78.42103
650.1462, 80.48660
650.6283, 79.70082
651.1104, 78.86736
651.5925, 78.68275
652.0746, 78.62547
652.5568, 77.95546
653.0389, 76.69833
653.5210, 75.76906
654.0031, 76.10612
654.4852, 77.22705
654.9673, 77.79356
655.4495, 77.77382
655.9316, 77.56736
656.4137, 77.37527
656.8958, 76.96779
657.3779, 75.64672
657.8600, 73.43001
658.3422, 72.38199
658.8243, 73.39081
659.3064, 75.00938
659.7885, 76.93246
660.2706, 78.76624
660.7527, 79.95610
661.2349, 80.34138
661.7170, 80.18736
662.1991, 79.69131
662.6812, 78.87885
663.1633, 78.42526
663.6454, 78.68200
664.1276, 78.59370
664.6097, 77.13669
665.0918, 75.63013
665.5739, 75.41008
666.0560, 76.51005
666.5381, 77.55578
667.0203, 78.13145
667.5024, 78.19889
667.9845, 77.50601
668.4666, 76.24516
668.9487, 74.83327
669.4308, 73.37218
669.9130, 72.58409
670.3951, 73.65448
670.8772, 76.98470
671.3593, 78.90072
671.8414, 78.39619
672.3235, 77.61466
672.8057, 76.68188
673.2878, 75.87832
673.7699, 75.53764
674.2520, 75.68159
674.7341, 75.92876
675.2162, 76.00056
675.6984, 75.97615
676.1805, 76.22828
676.6626, 76.72149
677.1447, 76.29774
677.6268, 74.19710
678.1089, 71.77047
678.5911, 70.98497
679.0732, 72.23123
679.5553, 72.97682
680.0374, 72.65337
680.5195, 72.49861
681.0016, 73.56417
681.4838, 74.77986
681.9659, 74.40127
682.4480, 72.25876
682.9301, 70.27562
683.4122, 70.42519
683.8943, 72.16949
684.3765, 73.41788
684.8586, 74.13768
685.3407, 74.50605
685.8228, 74.56194
686.3049, 74.31339
686.7870, 73.73097
687.2692, 72.83231
687.7513, 71.75093
688.2334, 69.60009
688.7155, 68.23024
689.1976, 69.10805
689.6797, 71.24729
690.1619, 73.37961
690.6440, 75.06642
691.1261, 76.08006
691.6082, 76.13067
692.0903, 75.31231
692.5724, 74.11648
693.0546, 72.13178
693.5367, 71.02687
694.0188, 72.12680
694.5009, 73.55112
694.9830, 73.31967
695.4651, 71.67778
695.9473, 70.73550
696.4294, 71.81029
696.9116, 73.07683
697.3937, 73.01906
697.8758, 72.33998
698.3579, 72.44868
698.8400, 73.61638
699.3221, 75.00983
699.8043, 75.89259
700.2864, 76.26659
700.7685, 76.12541
701.2506, 75.34422
701.7327, 74.30946
702.2148, 72.64329
702.6970, 71.12245
703.1791, 70.24105
703.6612, 69.95741
704.1433, 69.98962
704.6254, 70.34206
705.1075, 70.83932
705.5897, 71.67418
706.0718, 72.47408
706.5539, 72.30119
707.0360, 71.03029
707.5181, 69.44148
708.0002, 68.02744
708.4824, 66.96261
708.9645, 67.26950
709.4466, 70.49249
709.9287, 72.11923
710.4108, 70.19740
710.8929, 68.10460
711.3751, 67.96358
711.8572, 69.15901
712.3393, 69.83892
712.8214, 69.12703
713.3035, 68.28952
713.7856, 68.68125
714.2678, 69.68719
714.7499, 69.88886
715.2320, 69.13818
715.7141, 68.28156
716.1962, 67.78600
716.6783, 67.76186
717.1605, 68.65329
717.6426, 71.56129
718.1247, 73.20790
718.6068, 72.97185
719.0889, 72.18948
719.5710, 71.01539
720.0532, 69.83357
720.5353, 69.17843
721.0174, 69.21244
721.4995, 69.76323
721.9816, 71.28520
722.4637, 73.02837
722.9459, 73.26013
723.4280, 71.99446
723.9101, 70.80906
724.3922, 70.47477
724.8743, 70.66188
725.3564, 70.79387
725.8386, 70.95161
726.3207, 70.75673
726.8028, 69.21350
727.2849, 68.47977
727.7670, 70.20839
728.2491, 72.59596
728.7313, 73.43882
729.2134, 72.35108
729.6955, 70.60808
730.1776, 68.30996
730.6597, 66.33778
731.1418, 66.36881
731.6240, 68.13357
732.1061, 70.25958
732.5882, 72.39870
733.0703, 73.72874
733.5524, 73.03673
734.0345, 70.19953
734.5167, 68.31444
734.9988, 67.92259
735.4809, 67.82288
735.9630, 67.92681
736.4451, 68.18440
736.9272, 68.86145
737.4094, 69.73824
737.8915, 69.87569
738.3736, 68.31935
738.8557, 66.44945
739.3378, 65.89984
739.8199, 66.29811
740.3021, 66.32738
740.7842, 65.73071
741.2663, 65.68469
741.7484, 67.29629
742.2305, 70.10741
742.7126, 71.87691
743.1948, 72.33487
743.6769, 72.20715
744.1590, 71.16314
744.6411, 69.94569
745.1232, 68.83048
745.6053, 67.85390
746.0875, 67.05244
746.5696, 66.47430
747.0517, 65.93069
747.5338, 64.93254
748.0159, 64.02852
748.4980, 64.44829
748.9802, 66.07109
749.4623, 67.36051
749.9444, 67.47310
750.4265, 67.26976
750.9086, 68.61964
751.3907, 72.35069
751.8729, 73.61211
752.3550, 69.75591
752.8371, 66.93828
753.3192, 67.98720
753.8013, 70.47693
754.2834, 72.06259
754.7656, 72.42756
755.2477, 71.59531
755.7298, 68.00986
756.2119, 64.56670
756.6940, 64.56905
757.1761, 66.85207
757.6583, 68.61044
758.1404, 69.05331
758.6225, 68.84216
759.1046, 68.58864
759.5867, 68.28648
760.0688, 67.88024
760.5510, 67.37744
761.0331, 66.74651
761.5152, 65.77422
761.9973, 64.88132
762.4794, 64.44838
762.9615, 64.34279
763.4437, 64.12877
763.9258, 63.65155
764.4079, 63.17290
764.8900, 62.47618
765.3721, 62.06517
765.8542, 62.70683
766.3364, 64.23653
766.8185, 65.95875
767.3006, 67.52905
767.7827, 68.66090
768.2648, 68.58821
768.7469, 67.24223
769.2291, 66.60696
769.7112, 66.90706
770.1933, 67.55208
770.6754, 68.57127
771.1575, 69.56625
771.6396, 69.84741
772.1218, 69.35976
772.6039, 68.67045
773.0860, 67.13482
773.5681, 66.21025
774.0502, 67.45772
774.5323, 69.43431
775.0145, 69.82710
775.4966, 68.36230
775.9787, 66.99972
776.4608, 67.68187
776.9429, 69.30146
777.4250, 68.93256
777.9072, 66.63264
778.3893, 64.79642
778.8714, 63.94288
779.3535, 63.76284
779.8356, 64.11816
780.3177, 64.92789
780.7999, 65.63036
781.2820, 65.99584
781.7641, 66.59309
782.2462, 67.89471
782.7283, 69.02121
783.2104, 69.36942
783.6926, 69.12203
784.1747, 68.73872
784.6568, 68.38258
785.1389, 67.85893
785.6210, 66.54928
786.1031, 65.11947
786.5853, 65.13998
787.0674, 66.48340
787.5495, 67.71060
788.0316, 68.23815
788.5137, 67.99870
788.9958, 66.60035
789.4780, 63.81373
789.9601, 63.27476
790.4422, 66.73418
790.9243, 69.63459
791.4064, 71.18350
791.8885, 71.56993
792.3707, 70.08208
792.8528, 67.28381
793.3349, 66.08038
793.8170, 69.13110
794.2991, 71.72271
794.7813, 70.06377
795.2634, 66.62322
795.7455, 64.66399
796.2276, 64.51503
796.7097, 65.14326
797.1918, 65.96973
797.6740, 66.88367
798.1561, 67.86048
798.6382, 68.93813
799.1203, 68.83397
799.6024, 66.94846
800.0845, 65.41975
800.5667, 65.50508
801.0488, 66.42769
801.5309, 66.75874
802.0130, 66.38812
802.4951, 66.25069
802.9772, 66.85954
803.4594, 67.22093
803.9415, 66.83864
804.4236, 66.01534
804.9057, 64.96837
805.3878, 63.84005
805.8699, 62.93715
806.3521, 62.36508
806.8342, 62.27396
807.3163, 63.10840
807.7985, 64.66276
808.2806, 66.39069
808.7627, 68.21635
809.2448, 68.67152
809.7269, 66.30760
810.2090, 62.45023
810.6912, 61.30748
811.1733, 64.32940
811.6554, 66.61304
812.1375, 68.44421
812.6196, 69.14406
813.1017, 67.56338
813.5839, 65.15012
814.0660, 63.85368
814.5481, 63.96041
815.0302, 64.24290
815.5123, 63.80930
815.9944, 63.70751
816.4766, 65.59920
816.9587, 68.16296
817.4408, 68.51336
817.9229, 66.34062
818.4050, 64.29515
818.8871, 64.62695
819.3693, 66.55966
819.8514, 68.46958
820.3335, 70.42606
820.8156, 70.16780
821.2977, 66.59483
821.7798, 63.09158
822.2620, 62.02283
822.7441, 62.60780
823.2262, 62.44247
823.7083, 60.35493
824.1904, 60.25758
824.6725, 64.81779
825.1547, 68.55922
825.6368, 68.11974
826.1189, 65.81089
826.6010, 64.86731
827.0831, 65.83387
827.5652, 66.82910
828.0474, 66.15030
828.5295, 65.23505
829.0116, 66.61348
829.4937, 69.05663
829.9758, 68.69577
830.4579, 64.98814
830.9401, 61.96632
831.4222, 62.96162
831.9043, 66.33757
832.3864, 66.88666
832.8685, 63.77620
833.3506, 62.05904
833.8328, 62.61249
834.3149, 63.68268
834.7970, 64.83233
835.2791, 65.66017
835.7612, 65.24541
836.2433, 63.22483
836.7255, 62.02753
837.2076, 63.09571
837.6897, 63.88385
838.1718, 62.51593
838.6539, 60.54305
839.1360, 60.05844
839.6182, 61.17167
840.1003, 62.30209
840.5824, 62.35252
841.0645, 62.07099
841.5466, 62.42853
842.0287, 63.31153
842.5109, 64.68182
842.9930, 66.45046
843.4751, 67.17848
843.9572, 65.85803
844.4393, 63.47188
844.9214, 62.13902
845.4036, 62.06788
845.8857, 61.94785
846.3678, 61.54974
846.8499, 61.51251
847.3320, 62.35389
847.8141, 63.47024
848.2963, 64.12889
848.7784, 64.35989
849.2605, 64.98789
849.7426, 67.29245
850.2247, 68.61839
850.7068, 67.25686
851.1890, 64.89465
851.6711, 62.83268
852.1532, 61.39095
852.6353, 60.80021
853.1174, 61.24257
853.5995, 62.05138
854.0817, 62.58245
854.5638, 62.86474
855.0459, 62.85784
855.5280, 62.60690
856.0101, 62.66299
856.4922, 63.30987
856.9744, 63.72564
857.4565, 62.67435
857.9386, 60.24742
858.4207, 59.20014
858.9028, 60.06878
859.3849, 61.05093
859.8671, 62.18642
860.3492, 62.91298
860.8313, 62.21543
861.3134, 60.82794
861.7955, 60.94319
862.2776, 63.84042
862.7598, 65.71968
863.2419, 64.55727
863.7240, 63.08752
864.2061, 63.54959
864.6882, 64.86276
865.1703, 64.90666
865.6525, 63.22195
866.1346, 61.29628
866.6167, 59.98491
867.0988, 59.37119
867.5809, 59.93311
868.0630, 61.32178
868.5452, 62.42449
869.0273, 63.00507
869.5094, 63.06902
869.9915, 62.58881
870.4736, 61.70023
870.9557, 60.62550
871.4379, 59.19653
871.9200, 58.57921
872.4021, 59.12539
872.8842, 59.80546
873.3663, 60.34506
873.8484, 60.64509
874.3306, 60.42055
874.8127, 59.64568
875.2948, 59.17061
875.7769, 59.26368
876.2590, 59.38674
876.7411, 59.38159
877.2233, 59.34890
877.7054, 59.07653
878.1875, 58.87322
878.6696, 59.80793
879.1517, 62.71785
879.6339, 64.89655
880.1160, 63.07613
880.5981, 59.91293
881.0802, 59.36160
881.5623, 60.90434
882.0444, 61.89552
882.5266, 61.45818
883.0087, 60.85353
883.4908, 61.50881
883.9729, 62.98010
884.4550, 63.52119
884.9371, 63.10563
885.4193, 62.01510
885.9014, 60.01096
886.3835, 58.40824
886.8656, 58.30872
887.3477, 59.11907
887.8298, 59.13213
888.3120, 57.65568
888.7941, 57.23994
889.2762, 59.03603
889.7583, 60.48295
890.2404, 60.97994
890.7225, 60.65598
891.2047, 59.01334
891.6868, 56.39309
892.1689, 55.24747
892.6510, 57.69104
893.1331, 60.01073
893.6152, 59.93117
894.0974, 59.07386
894.5795, 59.07571
895.0616, 59.90604
895.5437, 61.23380
896.0258, 62.92612
896.5079, 63.54519
896.9901, 59.99072
897.4722, 54.77952
897.9543, 54.62983
898.4364, 58.66891
898.9185, 61.39943
899.4006, 61.28047
899.8828, 60.02287
900.3649, 58.95275
900.8470, 58.21544
901.3291, 58.57557
901.8112, 60.48829
902.2933, 61.08277
902.7755, 59.44277
903.2576, 58.07907
903.7397, 58.63015
904.2218, 59.88664
904.7039, 59.62673
905.1860, 57.46647
905.6682, 56.76677
906.1503, 59.51279
906.6324, 61.16873
907.1145, 59.80085
907.5966, 57.63943
908.0787, 56.10799
908.5609, 55.38816
909.0430, 55.55974
909.5251, 56.85731
910.0072, 58.19197
910.4893, 58.88538
910.9714, 59.35361
911.4536, 60.13804
911.9357, 60.99481
912.4178, 61.34783
912.8999, 61.08221
913.3820, 60.57633
913.8641, 60.14898
914.3463, 59.65411
914.8284, 58.46799
915.3105, 56.91720
915.7926, 56.78890
916.2748, 58.27061
916.7569, 59.41337
917.2390, 59.09237
917.7211, 58.18599
918.2032, 58.28164
918.6854, 59.45344
919.1675, 59.41376
919.6496, 57.51241
920.1317, 56.46929
920.6138, 57.41735
921.0959, 58.79709
921.5781, 59.42854
922.0602, 59.36134
922.5423, 58.77520
923.0244, 56.80621
923.5065, 55.94041
923.9886, 57.57597
924.4708, 58.85643
924.9529, 58.05202
925.4350, 56.44912
925.9171, 55.77901
926.3992, 56.16741
926.8813, 56.33456
927.3635, 55.07636
927.8456, 54.30498
928.3277, 55.93029
928.8098, 58.03689
929.2919, 58.44981
929.7740, 57.37891
930.2562, 55.86889
930.7383, 54.35436
931.2204, 53.45118
931.7025, 54.29479
932.1846, 55.88280
932.6667, 56.10453
933.1489, 55.37757
933.6310, 55.62755
934.1131, 57.17476
934.5952, 58.03582
935.0773, 56.55408
935.5594, 54.11343
936.0416, 54.27705
936.5237, 57.07381
937.0058, 58.67822
937.4879, 58.78837
937.9700, 58.40293
938.4521, 57.74308
938.9343, 57.18483
939.4164, 57.33359
939.8985, 56.41608
940.3806, 57.73054
940.8627, 55.27888
941.3448, 53.60348
941.8270, 53.37320
942.3091, 53.49750
942.7912, 53.39849
943.2733, 53.28456
943.7554, 53.50133
944.2375, 54.09138
944.7197, 54.78737
945.2018, 56.14198
945.6839, 56.84443
946.1660, 55.34670
946.6481, 53.82313
947.1302, 54.85579
947.6124, 57.61341
948.0945, 59.11046
948.5766, 58.16331
949.0587, 56.80427
949.5408, 56.09725
950.0229, 55.75254
950.5051, 55.52802
950.9872, 55.42219
951.4693, 55.50504
951.9514, 55.76107
952.4335, 56.05338
952.9156, 56.31710
953.3978, 56.48645
953.8799, 56.39894
954.3620, 56.15614
954.8441, 56.24801
955.3262, 56.55953
955.8083, 55.89421
956.2905, 53.77595
956.7726, 51.66294
957.2547, 51.19120
957.7368, 52.12244
958.2189, 53.79916
958.7010, 56.32989
959.1832, 57.02362
959.6653, 55.05621
960.1474, 53.46731
960.6295, 54.14946
961.1116, 56.02035
961.5938, 57.15033
962.0759, 57.50509
962.5580, 57.39278
963.0401, 56.24548
963.5222, 55.87491
964.0043, 57.36972
964.4865, 58.90822
964.9686, 58.92490
965.4507, 57.90490
965.9328, 57.33824
966.4149, 57.17335
966.8970, 57.59988
967.3792, 59.19913
967.8613, 60.69960
968.3434, 61.10436
968.8255, 61.58775
969.3076, 63.67613
969.7897, 67.04213
970.2719, 69.82533
970.7540, 71.81699
971.2361, 72.53870
971.7182, 70.33702
972.2003, 68.20113
972.6824, 68.74963
973.1646, 70.87253
973.6467, 72.66370
974.1288, 73.73491
974.6109, 74.75374
975.0930, 76.00523
975.5751, 77.53273
976.0573, 80.00713
976.5394, 82.42338
977.0215, 82.85034
977.5036, 81.81499
977.9857, 81.40090
978.4678, 82.34713
978.9500, 83.75256
979.4321, 85.07070
979.9142, 85.93038
980.3963, 85.03577
980.8784, 83.02095
981.3605, 82.47905
981.8427, 83.61176
982.3248, 84.37376
982.8069, 83.66499
983.2890, 83.16656
983.7711, 80.94035
984.2532, 79.83755
984.7354, 77.71147
985.2175, 74.52885
985.6996, 71.43105
986.1817, 68.59673
986.6638, 66.21779
987.1459, 64.40868
987.6281, 63.21405
988.1102, 62.89352
988.5923, 63.65995
989.0744, 63.64754
989.5565, 62.62382
990.0386, 61.49433
990.5208, 60.46134
991.0029, 59.47398
991.4850, 58.40310
991.9671, 57.37514
992.4492, 56.91022
992.9313, 57.38522
993.4135, 57.50854
993.8956, 56.57478
994.3777, 56.24094
994.8598, 57.72115
995.3419, 59.49007
995.8240, 60.21268
996.3062, 59.95686
996.7883, 59.25090
997.2704, 57.30795
997.7525, 56.40005
998.2346, 58.10877
998.7167, 59.47656
999.1989, 58.87524
999.6810, 57.20103
1000.163, 55.21258
1000.645, 53.17624
1001.127, 52.15101
1001.609, 53.11733
1002.092, 54.05766
1002.574, 54.20446
1003.056, 53.97985
1003.538, 53.32762
1004.020, 52.70441
1004.502, 53.01622
1004.984, 54.29174
1005.466, 55.17484
1005.948, 54.43496
1006.431, 53.79456
1006.913, 55.19225
1007.395, 56.88986
1007.877, 56.33892
1008.359, 54.39878
1008.841, 53.75071
1009.323, 55.09164
1009.805, 56.40804
1010.288, 56.10560
1010.770, 55.01240
1011.252, 53.57903
1011.734, 52.32829
1012.216, 52.70817
1012.698, 54.28429
1013.180, 54.80373
1013.662, 53.40359
1014.144, 52.00919
1014.627, 53.02504
1015.109, 54.99554
1015.591, 54.79787
1016.073, 53.05922
1016.555, 51.63521
1017.037, 50.84148
1017.519, 50.68610
1018.001, 51.18250
1018.484, 52.01007
1018.966, 52.81543
1019.448, 53.57582
1019.930, 54.34163
1020.412, 55.04483
1020.894, 54.90252
1021.376, 53.79838
1021.858, 52.89140
1022.340, 52.83386
1022.823, 53.44636
1023.305, 54.73282
1023.787, 56.49510
1024.269, 56.72866
1024.751, 55.38359
1025.233, 53.06825
1025.715, 49.56303
1026.197, 47.76869
1026.680, 49.91490
1027.162, 53.72624
1027.644, 54.78176
1028.126, 53.00385
1028.608, 52.01637
1029.090, 51.89845
1029.572, 52.36526
1030.054, 53.74260
1030.536, 54.45196
1031.019, 53.04781
1031.501, 50.78162
1031.983, 50.50898
1032.465, 52.65351
1032.947, 53.25085
1033.429, 51.03891
1033.911, 50.80923
1034.393, 55.05598
1034.875, 58.90887
1035.358, 58.59304
1035.840, 55.63007
1036.322, 53.56360
1036.804, 52.47784
1037.286, 51.89370
1037.768, 52.29219
1038.250, 52.28550
1038.732, 50.81263
1039.215, 49.79263
1039.697, 51.18605
1040.179, 53.88381
1040.661, 55.00755
1041.143, 54.09405
1041.625, 53.34177
1042.107, 52.70253
1042.589, 52.29229
1043.072, 52.45641
1043.554, 52.55006
1044.036, 51.87161
1044.518, 50.83524
1045.000, 50.53487
1045.482, 51.29673
1045.964, 51.61307
1046.446, 50.63327
1046.928, 50.21134
1047.411, 51.46482
1047.893, 52.83339
1048.375, 53.20321
1048.857, 52.79058
1049.339, 52.18197
1049.821, 51.41203
1050.303, 50.55463
1050.785, 49.02742
1051.267, 48.19680
1051.750, 48.83764
1052.232, 50.03155
1052.714, 51.66671
1053.196, 53.12893
1053.678, 52.83688
1054.160, 50.13460
1054.642, 48.70159
1055.124, 50.59274
1055.607, 52.32265
1056.089, 52.49316
1056.571, 52.09136
1057.053, 51.66158
1057.535, 51.40017
1058.017, 51.58123
1058.499, 52.27912
1058.981, 53.13055
1059.464, 54.68676
1059.946, 55.51384
1060.428, 54.68763
1060.910, 53.19920
1061.392, 51.32461
1061.874, 49.62891
1062.356, 49.32211
1062.838, 50.70718
1063.320, 51.43478
1063.802, 49.91296
1064.285, 48.53777
1064.767, 47.69953
1065.249, 48.06542
1065.731, 51.70311
1066.213, 56.42859
1066.695, 57.62822
1067.177, 54.46790
1067.659, 51.97601
1068.142, 52.79348
1068.624, 53.87205
1069.106, 53.67697
1069.588, 53.25819
1070.070, 53.81350
1070.552, 54.68354
1071.034, 54.38902
1071.516, 52.74366
1071.999, 51.40053
1072.481, 51.40731
1072.963, 51.38705
1073.445, 50.10592
1073.927, 49.10253
1074.409, 50.08909
1074.891, 52.04186
1075.373, 53.37009
1075.855, 53.74685
1076.338, 53.30955
1076.820, 51.38743
1077.302, 49.86330
1077.784, 49.96833
1078.266, 50.50599
1078.748, 50.72955
1079.230, 50.65953
1079.712, 50.23804
1080.194, 49.60303
1080.677, 49.46835
1081.159, 50.22941
1081.641, 51.25808
1082.123, 52.76387
1082.605, 53.89890
1083.087, 53.70945
1083.569, 52.96534
1084.052, 52.88168
1084.534, 53.36009
1085.016, 53.08660
1085.498, 51.15469
1085.980, 49.80893
1086.462, 50.83163
1086.944, 51.87549
1087.426, 50.98288
1087.908, 49.54255
1088.391, 49.19810
1088.873, 49.94865
1089.355, 51.22863
1089.837, 53.22145
1090.319, 54.20681
1090.801, 52.79196
1091.283, 51.02677
1091.765, 49.60012
1092.247, 48.75481
1092.730, 48.99987
1093.212, 49.93045
1093.694, 50.44595
1094.176, 50.21861
1094.658, 50.18974
1095.140, 51.18403
1095.622, 51.81776
1096.104, 50.70992
1096.587, 49.65370
1097.069, 50.99473
1097.551, 53.34480
1098.033, 53.36025
1098.515, 50.36228
1098.997, 48.18848
1099.479, 47.79867
1099.961, 48.60624
1100.443, 52.36916
1100.926, 55.28520
1101.408, 53.20208
1101.890, 49.17466
1102.372, 48.56847
1102.854, 51.77232
1103.336, 53.99519
1103.818, 52.96078
1104.300, 52.66025
1104.782, 55.28874
1105.265, 57.36575
1105.747, 56.16047
1106.229, 53.88710
1106.711, 53.55643
1107.193, 55.01388
1107.675, 55.64283
1108.157, 53.78815
1108.639, 53.67275
1109.122, 58.31561
1109.604, 61.69076
1110.086, 60.62200
1110.568, 57.89660
1111.050, 55.66048
1111.532, 54.07378
1112.014, 53.33873
1112.496, 53.46993
1112.979, 54.44052
1113.461, 58.18831
1113.943, 60.11404
1114.425, 56.75751
1114.907, 53.62085
1115.389, 55.80075
1115.871, 60.59097
1116.353, 61.65174
1116.835, 58.14489
1117.318, 55.93285
1117.800, 56.31263
1118.282, 55.49401
1118.764, 51.39309
1119.246, 48.33248
1119.728, 49.09559
1120.210, 51.93895
1120.692, 54.58367
1121.174, 57.00575
1121.657, 57.41639
1122.139, 54.71208
1122.621, 53.17151
1123.103, 53.83596
1123.585, 53.90344
1124.067, 51.87350
1124.549, 49.33746
1125.031, 47.89283
1125.514, 47.54927
1125.996, 48.64349
1126.478, 51.71307
1126.960, 53.22054
1127.442, 52.84573
1127.924, 51.78864
1128.406, 50.19355
1128.888, 48.91880
1129.370, 48.75461
1129.853, 49.11267
1130.335, 48.39475
1130.817, 48.52335
1131.299, 49.04835
1131.781, 48.47006
1132.263, 49.89086
1132.745, 50.41369
1133.227, 49.90168
1133.709, 48.12135
1134.192, 46.47144
1134.674, 47.19730
1135.156, 49.62393
1135.638, 50.98226
1136.120, 51.39561
1136.602, 51.85473
1137.084, 52.45161
1137.566, 52.76720
1138.049, 52.64375
1138.531, 52.57494
1139.013, 53.27502
1139.495, 53.72261
1139.977, 51.00912
1140.459, 46.66349
1140.941, 45.10272
1141.423, 46.05303
1141.906, 47.67173
1142.388, 49.31390
1142.870, 50.40758
1143.352, 50.52754
1143.834, 50.49519
1144.316, 51.77803
1144.798, 53.16134
1145.280, 52.29671
1145.762, 50.31446
1146.245, 49.76328
1146.727, 50.49446
1147.209, 50.41050
1147.691, 48.70731
1148.173, 47.20375
1148.655, 47.26784
1149.137, 48.12300
1149.619, 49.78581
1150.101, 51.30440
1150.584, 51.34086
1151.066, 50.42262
1151.548, 49.81477
1152.030, 49.71602
1152.512, 49.30814
1152.994, 47.85441
1153.476, 46.81340
1153.958, 47.17950
1154.441, 47.88877
1154.923, 48.39913
1155.405, 48.71827
1155.887, 48.74821
1156.369, 48.64621
1156.851, 49.04677
1157.333, 50.40244
1157.815, 50.94475
1158.297, 49.01723
1158.780, 47.95629
1159.262, 50.02795
1159.744, 52.12534
1160.226, 51.74397
1160.708, 49.94819
1161.190, 48.72383
1161.672, 48.13204
1162.154, 47.82606
1162.636, 47.94917
1163.119, 48.07608
1163.601, 48.00200
1164.083, 48.29033
1164.565, 49.61121
1165.047, 50.72461
1165.529, 50.13729
1166.011, 48.35067
1166.493, 47.41121
1166.976, 47.47032
1167.458, 47.69614
1167.940, 48.22426
1168.422, 48.07323
1168.904, 46.79408
1169.386, 46.04773
1169.868, 47.08193
1170.350, 46.56262
1170.833, 48.73324
1171.315, 47.58838
1171.797, 47.71832
1172.279, 48.92795
1172.761, 48.63430
1173.243, 46.72105
1173.725, 46.08114
1174.207, 47.77435
1174.689, 49.02922
1175.172, 47.05903
1175.654, 43.98394
1176.136, 43.40039
1176.618, 44.51539
1177.100, 46.01391
1177.582, 47.50686
1178.064, 48.27227
1178.546, 48.20799
1179.028, 47.47106
1179.511, 46.07430
1179.993, 45.10963
1180.475, 45.97587
1180.957, 47.23079
1181.439, 47.04741
1181.921, 46.71306
1182.403, 48.40301
1182.885, 51.13524
1183.368, 52.59514
1183.850, 52.29858
1184.332, 51.20417
1184.814, 49.16290
1185.296, 47.39193
1185.778, 45.95410
1186.260, 45.44087
1186.742, 47.16901
1187.224, 49.26331
1187.707, 49.86293
1188.189, 49.03340
1188.671, 47.23048
1189.153, 43.73676
1189.635, 42.24343
1190.117, 44.16851
1190.599, 46.35206
1191.081, 49.18620
1191.564, 50.93953
1192.046, 50.30481
1192.528, 48.49518
1193.010, 46.95336
1193.492, 45.75037
1193.974, 45.56199
1194.456, 46.62467
1194.938, 47.49044
1195.421, 48.10867
1195.903, 48.37620
1196.385, 48.21038
1196.867, 48.14066
1197.349, 48.67264
1197.831, 49.02692
1198.313, 47.27032
1198.795, 47.55840
1199.277, 47.03085
1199.760, 45.97654
1200.242, 46.19749
1200.724, 44.48624
1201.206, 43.53354
1201.688, 44.30653
1202.170, 45.33497
1202.652, 45.37610
1203.134, 45.16430
1203.616, 45.59521
1204.099, 46.38245
1204.581, 47.32098
1205.063, 48.19932
1205.545, 48.80037
1206.027, 49.00655
1206.509, 48.48937
1206.991, 47.05520
1207.473, 45.87788
1207.956, 45.79945
1208.438, 45.85455
1208.920, 45.48977
1209.402, 45.11695
1209.884, 44.82339
1210.366, 44.88195
1210.848, 46.02163
1211.330, 48.07593
1211.813, 49.13073
1212.295, 48.87264
1212.777, 47.78642
1213.259, 44.66624
1213.741, 42.73829
1214.223, 43.05542
1214.705, 44.47260
1215.187, 46.65257
1215.669, 48.87524
1216.151, 49.80330
1216.634, 49.48164
1217.116, 48.24929
1217.598, 45.89658
1218.080, 45.66423
1218.562, 47.99928
1219.044, 49.55430
1219.526, 49.14411
1220.008, 48.46949
1220.491, 48.97961
1220.973, 49.69221
1221.455, 48.47467
1221.937, 48.77976
1222.419, 46.25160
1222.901, 47.32997
1223.383, 46.61639
1223.865, 44.44395
1224.348, 43.75729
1224.830, 45.45488
1225.312, 47.16549
1225.794, 47.05797
1226.276, 46.84142
1226.758, 48.32459
1227.240, 49.77048
1227.722, 49.30669
1228.204, 48.07023
1228.687, 47.74628
1229.169, 48.12411
1229.651, 47.68921
1230.133, 45.79792
1230.615, 45.29490
1231.097, 48.61003
1231.579, 50.48075
1232.061, 48.33574
1232.543, 46.56687
1233.026, 47.99073
1233.508, 49.71284
1233.990, 48.01381
1234.472, 44.07838
1234.954, 43.12682
1235.436, 45.76476
1235.918, 47.13925
1236.400, 47.13132
1236.883, 47.14076
1237.365, 47.45393
1237.847, 47.78382
1238.329, 47.99769
1238.811, 47.76862
1239.293, 46.48676
1239.775, 44.92805
1240.257, 45.08858
1240.740, 46.05596
1241.222, 45.60838
1241.704, 44.08270
1242.186, 42.51423
1242.668, 41.28304
1243.150, 40.77773
1243.632, 41.18235
1244.114, 42.08939
1244.596, 43.41520
1245.078, 44.91928
1245.561, 46.88821
1246.043, 48.53328
1246.525, 49.13277
1247.007, 48.99872
1247.489, 48.62702
1247.971, 48.04495
1248.453, 46.97263
1248.935, 44.44008
1249.418, 43.92933
1249.900, 47.53742
1250.382, 48.96059
1250.864, 45.68320
1251.346, 42.74577
1251.828, 43.09954
1252.310, 44.96435
1252.792, 46.06628
1253.275, 46.57817
1253.757, 47.42171
1254.239, 47.14958
1254.721, 47.99970
1255.203, 46.12424
1255.685, 44.50241
1256.167, 43.60196
1256.649, 43.97271
1257.131, 45.91357
1257.614, 47.85453
1258.096, 48.08841
1258.578, 47.71104
1259.060, 47.81887
1259.542, 48.22157
1260.024, 49.09303
1260.506, 49.86290
1260.988, 49.31594
1261.470, 47.71120
1261.953, 46.82057
1262.435, 47.35094
1262.917, 47.45813
1263.399, 45.68261
1263.881, 44.87061
1264.363, 46.89702
1264.845, 48.71651
1265.327, 48.71436
1265.810, 47.84658
1266.292, 47.14583
1266.774, 46.52236
1267.256, 45.37003
1267.738, 45.76558
1268.220, 43.81227
1268.702, 46.51328
1269.184, 48.44570
1269.667, 49.03511
1270.149, 48.54160
1270.631, 47.09438
1271.113, 45.48701
1271.595, 44.38309
1272.077, 43.75967
1272.559, 43.58145
1273.041, 43.85926
1273.523, 44.87885
1274.005, 46.22175
1274.488, 47.28790
1274.970, 47.97044
1275.452, 48.24923
1275.934, 48.11930
1276.416, 48.03689
1276.898, 48.50524
1277.380, 48.53742
1277.862, 47.53079
1278.345, 46.44973
1278.827, 45.16636
1279.309, 44.66901
1279.791, 46.69904
1280.273, 44.57777
1280.755, 47.99764
1281.237, 42.69015
1281.719, 39.87752
1282.202, 39.58702
1282.684, 42.24737
1283.166, 47.86831
1283.648, 51.15586
1284.130, 50.48808
1284.612, 48.59280
1285.094, 47.25253
1285.576, 46.41823
1286.058, 46.22060
1286.541, 46.29414
1287.023, 46.23557
##END=



