##NAMES=Ktenasite
##RRUFFID=R070081
##IDEAL CHEMISTRY=Zn^2+^Cu^2+^_4_(S^6+^O_4_)_2_(OH)_6_&#183;6H_2_O
##LOCALITY=Amot, Modum, Norway
##OWNER=RRUFF
##SOURCE=Bob Jenkins
##DESCRIPTION=Radial aggregates of bluish green tabular crystals, associated with colorless tabular gypsum crystals.
##STATUS=The identification of this mineral has been confirmed only by single crystal X-ray diffraction.
##URL=rruff.info/R070081
158.3766, 594.7115
158.8587, 597.9503
159.3408, 601.4891
159.8230, 602.4390
160.3051, 594.3487
160.7872, 585.1691
161.2693, 582.7881
161.7514, 598.4175
162.2335, 614.4489
162.7157, 621.6190
163.1978, 618.6816
163.6799, 615.2706
164.1620, 613.9983
164.6441, 615.5293
165.1262, 620.8170
165.6084, 634.1443
166.0905, 648.9007
166.5726, 661.1970
167.0547, 670.9539
167.5368, 676.7515
168.0189, 674.7512
168.5011, 667.8176
168.9832, 662.4634
169.4653, 662.4523
169.9474, 665.4705
170.4295, 669.6857
170.9116, 675.4507
171.3938, 680.8373
171.8759, 684.1783
172.3580, 685.6944
172.8401, 686.3079
173.3222, 687.1558
173.8043, 687.3041
174.2865, 684.8024
174.7686, 676.9521
175.2507, 669.4188
175.7328, 670.1506
176.2149, 678.2161
176.6970, 686.5026
177.1792, 688.8438
177.6613, 687.4700
178.1434, 687.0704
178.6255, 690.1204
179.1076, 693.9933
179.5897, 694.8564
180.0719, 692.7042
180.5540, 688.4849
181.0361, 680.3969
181.5182, 670.3981
182.0003, 664.4894
182.4824, 667.2343
182.9646, 674.9059
183.4467, 679.3278
183.9288, 680.4064
184.4109, 679.4268
184.8930, 676.2021
185.3751, 671.3755
185.8573, 668.8588
186.3394, 671.1982
186.8215, 677.3041
187.3036, 683.8193
187.7857, 691.3528
188.2678, 697.2115
188.7500, 696.0121
189.2321, 688.0743
189.7142, 681.6098
190.1963, 682.7702
190.6784, 689.9499
191.1605, 690.0847
191.6427, 680.9265
192.1248, 668.8168
192.6069, 664.6267
193.0890, 668.6151
193.5711, 675.3765
194.0532, 683.4446
194.5354, 692.6570
195.0175, 698.9888
195.4996, 701.9692
195.9817, 702.3121
196.4638, 701.1993
196.9460, 698.4655
197.4281, 695.3497
197.9102, 693.1342
198.3923, 691.9665
198.8744, 687.8512
199.3565, 678.4135
199.8387, 667.1430
200.3208, 664.5256
200.8029, 671.5394
201.2850, 683.5659
201.7671, 700.3561
202.2492, 723.6743
202.7314, 737.1573
203.2135, 735.8847
203.6956, 723.5948
204.1777, 716.3925
204.6598, 715.0519
205.1419, 716.7762
205.6241, 719.7114
206.1062, 723.9972
206.5883, 728.8163
207.0704, 734.6440
207.5525, 741.0692
208.0346, 744.7943
208.5168, 745.3765
208.9989, 744.1058
209.4810, 741.2872
209.9631, 735.6282
210.4452, 733.0102
210.9273, 735.0201
211.4095, 741.5027
211.8916, 748.8754
212.3737, 758.1970
212.8558, 766.8705
213.3379, 772.0615
213.8200, 772.6443
214.3022, 772.6379
214.7843, 772.2258
215.2664, 771.2822
215.7485, 773.8422
216.2306, 781.1619
216.7127, 790.5508
217.1949, 799.6983
217.6770, 810.3846
218.1591, 816.6837
218.6412, 815.5229
219.1233, 805.5564
219.6054, 801.3425
220.0876, 805.5245
220.5697, 813.0448
221.0518, 817.0182
221.5339, 815.4754
222.0160, 814.1842
222.4981, 814.1364
222.9803, 814.7927
223.4624, 820.2505
223.9445, 833.1203
224.4266, 848.8409
224.9087, 860.4603
225.3908, 867.4662
225.8730, 871.2372
226.3551, 871.4688
226.8372, 866.8724
227.3193, 863.8508
227.8014, 861.5074
228.2835, 861.2596
228.7657, 865.9446
229.2478, 878.5412
229.7299, 891.3777
230.2120, 901.8788
230.6941, 909.9019
231.1762, 916.5018
231.6584, 921.0992
232.1405, 924.5633
232.6226, 928.4413
233.1047, 932.7762
233.5868, 937.4785
234.0689, 942.6758
234.5511, 949.1311
235.0332, 953.8958
235.5153, 956.3628
235.9974, 957.3840
236.4795, 958.7266
236.9616, 960.6959
237.4438, 962.5198
237.9259, 963.2769
238.4080, 960.6397
238.8901, 963.4689
239.3722, 975.4863
239.8543, 991.8335
240.3365, 1000.362
240.8186, 994.4913
241.3007, 990.3755
241.7828, 996.3358
242.2649, 1021.497
242.7470, 1034.304
243.2292, 1029.016
243.7113, 1012.901
244.1934, 1004.168
244.6755, 1004.477
245.1576, 1009.741
245.6397, 1019.666
246.1219, 1039.971
246.6040, 1051.155
247.0861, 1049.542
247.5682, 1039.687
248.0503, 1033.947
248.5324, 1034.918
249.0146, 1036.139
249.4967, 1034.649
249.9788, 1029.072
250.4609, 1024.070
250.9430, 1020.612
251.4251, 1017.467
251.9073, 1010.615
252.3894, 996.6188
252.8715, 984.3579
253.3536, 978.4145
253.8357, 982.0701
254.3178, 984.1190
254.8000, 984.5665
255.2821, 983.2534
255.7642, 979.5652
256.2463, 972.5757
256.7284, 964.7396
257.2105, 956.5771
257.6927, 946.0022
258.1748, 941.6779
258.6569, 948.8354
259.1390, 960.3345
259.6211, 954.2104
260.1032, 919.6587
260.5854, 888.1288
261.0675, 875.6456
261.5496, 889.6295
262.0317, 900.4369
262.5138, 908.3103
262.9959, 912.2457
263.4781, 908.4294
263.9602, 893.2779
264.4423, 878.2957
264.9244, 869.5486
265.4065, 868.8071
265.8886, 867.4315
266.3708, 864.9639
266.8529, 861.9325
267.3350, 859.7866
267.8171, 858.9151
268.2992, 857.8561
268.7813, 856.2928
269.2635, 854.6044
269.7456, 849.9434
270.2277, 840.8947
270.7098, 830.1349
271.1919, 824.1713
271.6740, 824.2367
272.1562, 824.8997
272.6383, 823.3836
273.1204, 819.2405
273.6025, 816.7633
274.0846, 817.4473
274.5667, 818.1568
275.0489, 810.3292
275.5310, 791.0938
276.0131, 776.7957
276.4952, 779.3491
276.9773, 800.9199
277.4594, 807.9380
277.9416, 795.9550
278.4237, 775.3992
278.9058, 763.8159
279.3879, 762.0411
279.8700, 762.7637
280.3521, 763.6344
280.8343, 764.6509
281.3164, 763.6357
281.7985, 760.3582
282.2806, 755.4578
282.7627, 748.3531
283.2448, 738.7151
283.7270, 733.0195
284.2091, 736.9954
284.6912, 749.3785
285.1733, 755.0823
285.6554, 752.8574
286.1375, 747.5223
286.6197, 746.7529
287.1018, 750.2421
287.5839, 750.8447
288.0660, 740.6380
288.5481, 723.6070
289.0303, 722.8029
289.5124, 741.0182
289.9945, 762.5626
290.4766, 766.8970
290.9587, 756.0129
291.4409, 743.9226
291.9230, 735.3008
292.4051, 729.7996
292.8872, 726.7114
293.3693, 726.0782
293.8514, 727.5323
294.3336, 732.8954
294.8157, 740.7036
295.2978, 745.0130
295.7799, 739.9444
296.2620, 731.1110
296.7441, 731.7053
297.2263, 742.0689
297.7084, 752.3098
298.1905, 750.4036
298.6726, 740.7021
299.1547, 734.1807
299.6368, 735.8619
300.1190, 742.0975
300.6011, 749.7953
301.0832, 758.7689
301.5653, 763.7949
302.0474, 757.3497
302.5295, 744.4484
303.0117, 733.5561
303.4938, 724.5342
303.9759, 721.4462
304.4580, 733.7792
304.9401, 759.4488
305.4222, 781.5839
305.9044, 786.9146
306.3865, 782.1755
306.8686, 776.3531
307.3507, 770.5028
307.8328, 765.9986
308.3149, 765.7420
308.7971, 768.4969
309.2792, 768.7995
309.7613, 758.4921
310.2434, 746.3870
310.7255, 741.6412
311.2076, 749.4092
311.6898, 759.6514
312.1719, 767.4526
312.6540, 773.0062
313.1361, 776.8660
313.6182, 780.2896
314.1003, 781.5503
314.5825, 778.8976
315.0646, 770.2171
315.5467, 761.7222
316.0288, 755.3035
316.5109, 750.9501
316.9930, 748.5485
317.4752, 749.1483
317.9573, 750.8914
318.4394, 752.0221
318.9215, 750.6212
319.4036, 753.7839
319.8857, 772.8883
320.3679, 796.1264
320.8500, 805.3917
321.3321, 776.6715
321.8142, 749.7954
322.2963, 742.7066
322.7784, 762.4281
323.2606, 776.6312
323.7427, 776.9534
324.2248, 770.5135
324.7069, 765.6548
325.1890, 767.3888
325.6711, 766.7303
326.1533, 759.8845
326.6354, 745.1191
327.1175, 735.3291
327.5996, 731.8942
328.0817, 732.9666
328.5638, 737.0381
329.0460, 746.7710
329.5281, 756.2940
330.0102, 767.0195
330.4923, 778.7366
330.9744, 780.5696
331.4565, 763.3553
331.9387, 745.0716
332.4208, 739.8472
332.9029, 756.6008
333.3850, 768.8698
333.8671, 772.2181
334.3492, 768.4706
334.8314, 768.2183
335.3135, 773.5196
335.7956, 778.8275
336.2777, 780.0887
336.7598, 775.2962
337.2419, 774.0235
337.7241, 778.4388
338.2062, 785.9557
338.6883, 788.9445
339.1704, 786.6847
339.6525, 782.7059
340.1346, 777.4009
340.6168, 770.4071
341.0989, 768.8159
341.5810, 773.8409
342.0631, 782.7903
342.5452, 792.6124
343.0273, 803.7117
343.5095, 810.2006
343.9916, 806.1410
344.4737, 793.6295
344.9558, 788.4471
345.4379, 791.6703
345.9200, 798.0836
346.4022, 801.7608
346.8843, 803.0105
347.3664, 803.9116
347.8485, 806.5939
348.3306, 809.1044
348.8127, 804.9724
349.2949, 793.9127
349.7770, 784.0677
350.2591, 784.0810
350.7412, 791.1973
351.2233, 798.8264
351.7054, 804.6398
352.1876, 810.2621
352.6697, 819.6978
353.1518, 832.1208
353.6339, 840.7486
354.1160, 838.3914
354.5981, 830.0970
355.0803, 821.8671
355.5624, 813.5053
356.0445, 808.1586
356.5266, 811.6989
357.0087, 821.0020
357.4908, 826.4601
357.9730, 818.1349
358.4551, 806.8300
358.9372, 800.9539
359.4193, 802.7560
359.9014, 807.3138
360.3835, 813.0445
360.8657, 819.8878
361.3478, 827.7396
361.8299, 840.0268
362.3120, 850.4459
362.7941, 856.3679
363.2762, 857.4205
363.7584, 854.7857
364.2405, 845.9056
364.7226, 834.5633
365.2047, 824.8046
365.6868, 815.7520
366.1689, 809.9161
366.6511, 807.6481
367.1332, 808.9083
367.6153, 814.2192
368.0974, 828.5343
368.5795, 843.8641
369.0616, 854.9631
369.5438, 862.6635
370.0259, 864.7549
370.5080, 856.4949
370.9901, 841.2623
371.4722, 837.8548
371.9543, 855.2930
372.4365, 872.2117
372.9186, 876.3952
373.4007, 862.1180
373.8828, 850.9907
374.3649, 842.8364
374.8470, 838.8045
375.3292, 843.6599
375.8113, 860.7731
376.2934, 874.9935
376.7755, 877.9055
377.2576, 869.0382
377.7397, 866.8076
378.2219, 873.1617
378.7040, 881.2954
379.1861, 881.3416
379.6682, 873.3415
380.1503, 865.9202
380.6324, 860.0816
381.1146, 857.2895
381.5967, 863.8093
382.0788, 880.0668
382.5609, 898.8458
383.0430, 916.3691
383.5251, 931.4835
384.0073, 940.0342
384.4894, 938.2538
384.9715, 933.0574
385.4536, 934.2255
385.9357, 940.9212
386.4178, 948.9858
386.9000, 957.3717
387.3821, 964.8455
387.8642, 969.3701
388.3463, 969.7945
388.8284, 969.8731
389.3105, 973.9919
389.7927, 979.9271
390.2748, 983.1611
390.7569, 977.6714
391.2390, 971.6165
391.7211, 969.8582
392.2032, 972.7858
392.6854, 979.9609
393.1675, 995.3607
393.6496, 1013.318
394.1317, 1027.804
394.6138, 1034.523
395.0959, 1040.191
395.5781, 1047.960
396.0602, 1057.392
396.5423, 1062.688
397.0244, 1058.170
397.5065, 1052.355
397.9886, 1050.238
398.4708, 1049.171
398.9529, 1055.673
399.4350, 1075.023
399.9171, 1101.950
400.3992, 1122.036
400.8813, 1133.967
401.3635, 1140.689
401.8456, 1142.020
402.3277, 1135.563
402.8098, 1133.518
403.2919, 1137.512
403.7740, 1144.219
404.2562, 1147.431
404.7383, 1144.033
405.2204, 1149.294
405.7025, 1171.884
406.1846, 1208.098
406.6667, 1228.790
407.1489, 1231.657
407.6310, 1228.709
408.1131, 1231.634
408.5952, 1239.648
409.0773, 1241.633
409.5594, 1233.039
410.0416, 1220.837
410.5237, 1219.135
411.0058, 1227.015
411.4879, 1234.682
411.9700, 1236.068
412.4521, 1232.973
412.9343, 1228.906
413.4164, 1224.139
413.8985, 1218.584
414.3806, 1210.260
414.8628, 1201.090
415.3449, 1195.139
415.8270, 1197.633
416.3091, 1201.875
416.7912, 1201.888
417.2733, 1197.659
417.7555, 1193.632
418.2376, 1191.389
418.7197, 1190.847
419.2018, 1192.062
419.6839, 1199.901
420.1660, 1203.881
420.6482, 1195.764
421.1303, 1179.865
421.6124, 1171.322
422.0945, 1179.752
422.5766, 1191.198
423.0587, 1199.750
423.5409, 1205.183
424.0230, 1207.345
424.5051, 1202.310
424.9872, 1195.430
425.4693, 1194.550
425.9514, 1206.149
426.4336, 1213.957
426.9157, 1212.476
427.3978, 1201.583
427.8799, 1197.376
428.3620, 1204.062
428.8441, 1210.839
429.3263, 1205.229
429.8084, 1182.684
430.2905, 1175.628
430.7726, 1193.434
431.2547, 1224.926
431.7368, 1240.804
432.2190, 1240.116
432.7011, 1236.529
433.1832, 1235.733
433.6653, 1238.124
434.1474, 1247.740
434.6295, 1266.252
435.1117, 1284.224
435.5938, 1286.199
436.0759, 1277.622
436.5580, 1275.989
437.0401, 1294.205
437.5222, 1319.023
438.0044, 1332.813
438.4865, 1336.830
438.9686, 1342.431
439.4507, 1362.269
439.9328, 1385.535
440.4149, 1399.349
440.8971, 1394.879
441.3792, 1391.960
441.8613, 1404.484
442.3434, 1426.080
442.8255, 1443.192
443.3076, 1446.481
443.7898, 1447.994
444.2719, 1453.539
444.7540, 1464.704
445.2361, 1473.747
445.7182, 1477.773
446.2003, 1479.853
446.6825, 1482.971
447.1646, 1488.859
447.6467, 1493.479
448.1288, 1494.372
448.6109, 1492.947
449.0930, 1499.059
449.5752, 1519.030
450.0573, 1535.877
450.5394, 1538.984
451.0215, 1524.512
451.5036, 1513.032
451.9857, 1504.514
452.4679, 1499.647
452.9500, 1502.368
453.4321, 1513.454
453.9142, 1518.104
454.3963, 1506.763
454.8784, 1485.527
455.3606, 1477.043
455.8427, 1481.780
456.3248, 1488.142
456.8069, 1486.498
457.2890, 1478.739
457.7711, 1468.843
458.2533, 1456.303
458.7354, 1444.461
459.2175, 1438.737
459.6996, 1436.864
460.1817, 1432.126
460.6638, 1415.510
461.1460, 1398.316
461.6281, 1390.123
462.1102, 1392.643
462.5923, 1395.601
463.0744, 1397.684
463.5565, 1396.384
464.0387, 1389.138
464.5208, 1366.087
465.0029, 1346.810
465.4850, 1339.981
465.9671, 1342.583
466.4492, 1338.178
466.9314, 1312.083
467.4135, 1291.053
467.8956, 1287.782
468.3777, 1313.584
468.8598, 1327.132
469.3419, 1324.806
469.8241, 1313.318
470.3062, 1300.710
470.7883, 1286.124
471.2704, 1273.404
471.7525, 1262.858
472.2346, 1254.951
472.7168, 1254.456
473.1989, 1262.684
473.6810, 1269.451
474.1631, 1263.841
474.6452, 1248.898
475.1273, 1241.247
475.6095, 1244.665
476.0916, 1250.881
476.5737, 1247.689
477.0558, 1237.858
477.5379, 1230.260
478.0201, 1230.298
478.5022, 1234.056
478.9843, 1239.508
479.4664, 1246.317
479.9485, 1248.781
480.4306, 1236.299
480.9128, 1221.167
481.3949, 1215.691
481.8770, 1231.677
482.3591, 1244.749
482.8412, 1244.806
483.3233, 1236.118
483.8055, 1228.571
484.2876, 1222.004
484.7697, 1218.826
485.2518, 1222.385
485.7339, 1235.419
486.2160, 1237.883
486.6982, 1220.066
487.1803, 1200.487
487.6624, 1196.464
488.1445, 1215.457
488.6266, 1229.777
489.1087, 1235.814
489.5909, 1234.940
490.0730, 1229.901
490.5551, 1220.004
491.0372, 1210.073
491.5193, 1200.901
492.0014, 1193.238
492.4836, 1194.346
492.9657, 1205.953
493.4478, 1215.357
493.9299, 1203.443
494.4120, 1178.364
494.8941, 1162.700
495.3763, 1169.574
495.8584, 1181.212
496.3405, 1177.310
496.8226, 1161.385
497.3047, 1145.735
497.7868, 1137.819
498.2690, 1132.165
498.7511, 1123.890
499.2332, 1111.065
499.7153, 1102.467
500.1974, 1104.787
500.6795, 1111.474
501.1617, 1115.529
501.6438, 1117.494
502.1259, 1114.766
502.6080, 1102.782
503.0901, 1084.567
503.5722, 1074.705
504.0544, 1079.728
504.5365, 1084.306
505.0186, 1080.587
505.5007, 1065.537
505.9828, 1058.331
506.4649, 1062.031
506.9471, 1067.932
507.4292, 1062.724
507.9113, 1045.903
508.3934, 1036.666
508.8755, 1043.848
509.3576, 1058.032
509.8398, 1056.899
510.3219, 1041.661
510.8040, 1025.097
511.2861, 1014.384
511.7682, 1008.100
512.2504, 1004.984
512.7325, 1005.255
513.2146, 1005.509
513.6967, 1004.979
514.1788, 1002.362
514.6609, 995.9105
515.1431, 975.8446
515.6252, 960.8282
516.1073, 965.2659
516.5894, 983.2627
517.0715, 990.0955
517.5536, 967.7149
518.0358, 943.5770
518.5179, 930.2025
519.0000, 931.5015
519.4821, 932.1071
519.9642, 932.5419
520.4464, 931.8405
520.9285, 927.7726
521.4106, 917.2580
521.8927, 913.6869
522.3748, 922.3801
522.8569, 938.0086
523.3391, 943.1471
523.8212, 936.9857
524.3033, 928.4308
524.7854, 919.9390
525.2675, 912.9070
525.7496, 914.5722
526.2318, 925.9586
526.7139, 937.9900
527.1960, 941.3412
527.6781, 938.9832
528.1602, 936.8696
528.6423, 938.8334
529.1245, 938.7358
529.6066, 929.3564
530.0887, 913.9669
530.5708, 901.4460
531.0529, 896.8834
531.5350, 895.1470
532.0172, 894.2900
532.4993, 894.3336
532.9814, 893.7559
533.4635, 890.9957
533.9456, 888.3728
534.4277, 887.5775
534.9099, 888.7819
535.3920, 891.9012
535.8741, 898.8558
536.3562, 906.7572
536.8383, 907.2206
537.3204, 898.0299
537.8026, 890.6487
538.2847, 891.2306
538.7668, 898.0150
539.2489, 898.7579
539.7310, 892.8533
540.2131, 886.6456
540.6953, 886.5270
541.1774, 890.3335
541.6595, 892.0515
542.1416, 889.8537
542.6237, 887.5431
543.1058, 890.3028
543.5880, 895.6819
544.0701, 898.7227
544.5522, 895.7971
545.0343, 891.2416
545.5164, 885.9590
545.9985, 880.3722
546.4807, 878.5250
546.9628, 886.0185
547.4449, 894.2817
547.9270, 898.5980
548.4091, 897.3754
548.8912, 894.4890
549.3734, 888.4496
549.8555, 881.7401
550.3376, 877.4857
550.8197, 875.7322
551.3018, 876.7508
551.7839, 882.3391
552.2661, 890.0757
552.7482, 889.0554
553.2303, 878.5417
553.7124, 870.0844
554.1945, 874.6837
554.6766, 886.9529
555.1588, 888.0132
555.6409, 875.8725
556.1230, 865.1993
556.6051, 873.2471
557.0872, 890.6453
557.5693, 902.6047
558.0515, 902.6288
558.5336, 899.1630
559.0157, 895.9196
559.4978, 892.9782
559.9799, 890.6000
560.4620, 886.9758
560.9442, 885.6855
561.4263, 889.9953
561.9084, 901.2242
562.3905, 906.1587
562.8726, 901.4013
563.3547, 893.5895
563.8369, 885.6019
564.3190, 874.7786
564.8011, 874.3325
565.2832, 888.9164
565.7653, 908.4848
566.2474, 915.1968
566.7296, 908.8846
567.2117, 904.3325
567.6938, 908.6677
568.1759, 916.2231
568.6580, 913.2775
569.1401, 901.1359
569.6223, 890.0901
570.1044, 888.2604
570.5865, 890.8519
571.0686, 891.5406
571.5507, 888.9124
572.0328, 890.0424
572.5150, 903.4811
572.9971, 920.5480
573.4792, 932.4550
573.9613, 929.4502
574.4434, 929.7239
574.9255, 943.6196
575.4077, 963.2143
575.8898, 965.8519
576.3719, 937.2280
576.8540, 913.8706
577.3361, 908.4112
577.8182, 920.5416
578.3004, 931.2883
578.7825, 940.8781
579.2646, 947.8580
579.7467, 949.5801
580.2288, 946.8846
580.7109, 945.8511
581.1931, 947.3511
581.6752, 949.7616
582.1573, 951.0287
582.6394, 951.6700
583.1215, 952.9866
583.6036, 957.1513
584.0858, 960.5646
584.5679, 955.4113
585.0500, 945.8504
585.5321, 947.3827
586.0142, 981.1552
586.4963, 1015.044
586.9785, 1032.346
587.4606, 1028.402
587.9427, 1024.317
588.4248, 1019.145
588.9069, 1015.882
589.3890, 1017.073
589.8712, 1024.102
590.3533, 1031.179
590.8354, 1036.613
591.3175, 1043.611
591.7996, 1061.455
592.2817, 1090.257
592.7639, 1111.756
593.2460, 1115.886
593.7281, 1110.642
594.2102, 1112.142
594.6923, 1119.914
595.1744, 1131.032
595.6566, 1149.347
596.1387, 1166.870
596.6208, 1172.907
597.1029, 1164.544
597.5850, 1158.703
598.0671, 1163.102
598.5493, 1174.089
599.0314, 1188.203
599.5135, 1211.881
599.9956, 1229.942
600.4777, 1238.516
600.9598, 1241.316
601.4420, 1245.216
601.9241, 1249.465
602.4062, 1256.467
602.8883, 1267.741
603.3704, 1282.373
603.8525, 1297.470
604.3347, 1313.853
604.8168, 1323.557
605.2989, 1316.799
605.7810, 1299.185
606.2631, 1286.620
606.7452, 1280.379
607.2274, 1277.890
607.7095, 1278.811
608.1916, 1281.546
608.6737, 1283.663
609.1558, 1282.575
609.6379, 1283.665
610.1201, 1294.780
610.6022, 1309.276
611.0843, 1313.704
611.5664, 1289.960
612.0485, 1272.591
612.5306, 1273.476
613.0128, 1290.620
613.4949, 1297.234
613.9770, 1288.774
614.4591, 1279.211
614.9412, 1277.856
615.4233, 1284.958
615.9055, 1284.124
616.3876, 1273.590
616.8697, 1263.149
617.3518, 1267.531
617.8339, 1280.489
618.3160, 1282.722
618.7982, 1265.165
619.2803, 1246.542
619.7624, 1248.937
620.2445, 1262.714
620.7266, 1268.805
621.2087, 1251.516
621.6909, 1232.734
622.1730, 1220.393
622.6551, 1214.274
623.1372, 1211.526
623.6193, 1219.573
624.1014, 1222.786
624.5836, 1212.645
625.0657, 1185.299
625.5478, 1170.102
626.0299, 1170.013
626.5120, 1174.927
626.9941, 1177.748
627.4763, 1178.152
627.9584, 1170.038
628.4405, 1150.613
628.9226, 1128.527
629.4047, 1116.612
629.8868, 1111.315
630.3690, 1103.651
630.8511, 1084.467
631.3332, 1066.916
631.8153, 1062.368
632.2974, 1067.679
632.7795, 1071.871
633.2617, 1071.356
633.7438, 1068.767
634.2259, 1065.585
634.7080, 1062.169
635.1901, 1054.457
635.6722, 1039.257
636.1544, 1024.040
636.6365, 1014.097
637.1186, 1010.413
637.6007, 1005.486
638.0828, 998.2190
638.5649, 992.0461
639.0471, 992.0272
639.5292, 997.1605
640.0113, 1004.058
640.4934, 1014.818
640.9755, 1021.517
641.4576, 1008.963
641.9398, 985.1703
642.4219, 969.6798
642.9040, 981.3829
643.3861, 994.0050
643.8682, 991.2516
644.3503, 974.5397
644.8325, 964.9560
645.3146, 973.0344
645.7967, 981.9522
646.2788, 985.1906
646.7609, 981.9154
647.2430, 977.8137
647.7252, 972.0387
648.2073, 967.2145
648.6894, 966.0240
649.1715, 968.2582
649.6536, 972.1844
650.1357, 978.5858
650.6179, 983.1957
651.1000, 977.7211
651.5821, 966.4287
652.0642, 959.4299
652.5463, 964.5175
653.0284, 970.2921
653.5106, 969.2142
653.9927, 963.0281
654.4748, 956.5513
654.9569, 948.8809
655.4390, 943.3258
655.9211, 941.1809
656.4033, 942.3239
656.8854, 945.9775
657.3675, 954.7462
657.8496, 961.4217
658.3317, 960.3103
658.8138, 950.9972
659.2960, 947.2856
659.7781, 949.9120
660.2602, 954.7114
660.7423, 959.1044
661.2244, 962.3327
661.7065, 961.8934
662.1887, 956.0686
662.6708, 950.2789
663.1529, 947.2310
663.6350, 947.5162
664.1171, 951.9635
664.5992, 968.9052
665.0814, 981.1871
665.5635, 981.8438
666.0456, 973.6678
666.5277, 966.8867
667.0098, 959.8708
667.4919, 957.1228
667.9741, 961.1375
668.4562, 971.0174
668.9383, 980.4519
669.4204, 990.1282
669.9025, 994.2289
670.3846, 984.7802
670.8668, 966.9648
671.3489, 955.1517
671.8310, 950.1862
672.3131, 948.4346
672.7952, 946.2488
673.2773, 946.1531
673.7595, 952.2561
674.2416, 970.2943
674.7237, 982.8874
675.2058, 979.0071
675.6879, 968.5056
676.1700, 963.7963
676.6522, 969.6523
677.1343, 973.6230
677.6164, 973.2249
678.0985, 970.8668
678.5806, 972.2362
679.0627, 977.5800
679.5449, 984.3896
680.0270, 993.2375
680.5091, 1001.952
680.9912, 1005.119
681.4733, 1003.282
681.9554, 999.5421
682.4376, 991.4195
682.9197, 985.2501
683.4018, 989.5772
683.8839, 1004.757
684.3660, 1013.777
684.8481, 1004.771
685.3303, 991.8624
685.8124, 984.2362
686.2945, 984.3751
686.7766, 982.5305
687.2587, 976.4289
687.7408, 971.5143
688.2230, 975.8449
688.7051, 990.1636
689.1872, 993.9832
689.6693, 981.6485
690.1514, 966.7763
690.6335, 971.9409
691.1157, 990.1522
691.5978, 1003.234
692.0799, 1001.691
692.5620, 996.4432
693.0441, 996.6937
693.5262, 999.3923
694.0084, 997.2142
694.4905, 974.7159
694.9726, 960.8547
695.4547, 972.0245
695.9368, 1002.997
696.4189, 1015.745
696.9011, 1002.060
697.3832, 988.2961
697.8653, 987.0439
698.3474, 997.1246
698.8295, 1006.747
699.3116, 1016.029
699.7938, 1023.354
700.2759, 1030.023
700.7580, 1033.002
701.2401, 1023.342
701.7222, 997.8889
702.2043, 979.4277
702.6865, 987.6095
703.1686, 1006.039
703.6507, 1019.675
704.1328, 1026.161
704.6149, 1026.560
705.0970, 1015.650
705.5792, 1002.212
706.0613, 998.8197
706.5434, 1008.917
707.0255, 1014.192
707.5076, 1010.020
707.9897, 1001.903
708.4719, 1001.816
708.9540, 1008.267
709.4361, 1012.564
709.9182, 1009.136
710.4003, 1003.624
710.8824, 1002.730
711.3646, 1004.954
711.8467, 1005.341
712.3288, 996.4207
712.8109, 990.1522
713.2930, 995.0442
713.7751, 1011.274
714.2573, 1018.533
714.7394, 1011.683
715.2215, 1003.357
715.7036, 999.0264
716.1857, 998.6750
716.6678, 1001.754
717.1500, 1008.700
717.6321, 1016.321
718.1142, 1024.237
718.5963, 1030.521
719.0784, 1030.346
719.5605, 1022.617
720.0427, 1013.060
720.5248, 1001.680
721.0070, 992.6116
721.4891, 990.8014
721.9712, 1002.137
722.4533, 1012.144
722.9354, 1016.672
723.4175, 1020.053
723.8997, 1028.909
724.3818, 1048.237
724.8639, 1054.836
725.3460, 1041.331
725.8281, 1019.534
726.3102, 1012.436
726.7924, 1017.737
727.2745, 1019.832
727.7566, 1008.466
728.2387, 996.5200
728.7208, 1002.606
729.2029, 1020.190
729.6851, 1031.303
730.1672, 1022.149
730.6493, 1011.353
731.1314, 1006.634
731.6135, 1007.682
732.0956, 1007.066
732.5778, 1002.597
733.0599, 1000.354
733.5420, 1004.057
734.0241, 1012.742
734.5062, 1016.057
734.9883, 1013.805
735.4705, 1009.583
735.9526, 1004.099
736.4347, 999.0741
736.9168, 998.2086
737.3989, 1001.753
737.8810, 1004.980
738.3632, 1005.389
738.8453, 1004.085
739.3274, 1001.796
739.8095, 998.3481
740.2916, 994.6198
740.7737, 990.1409
741.2559, 985.9806
741.7380, 981.8712
742.2201, 976.6426
742.7022, 981.8430
743.1843, 1002.145
743.6664, 1021.283
744.1486, 1011.770
744.6307, 983.3554
745.1128, 965.5881
745.5949, 967.5646
746.0770, 977.5042
746.5591, 990.9590
747.0413, 1004.950
747.5234, 1014.925
748.0055, 1017.674
748.4876, 1018.336
748.9697, 1016.961
749.4518, 1014.409
749.9340, 1013.588
750.4161, 1017.019
750.8982, 1012.153
751.3803, 991.5484
751.8624, 964.3860
752.3445, 955.8292
752.8267, 963.3003
753.3088, 972.4584
753.7909, 977.2230
754.2730, 979.4615
754.7551, 980.6402
755.2372, 980.7992
755.7194, 980.0901
756.2015, 978.1446
756.6836, 975.7274
757.1657, 971.2594
757.6478, 965.1608
758.1299, 967.9576
758.6121, 983.7891
759.0942, 998.1984
759.5763, 1002.104
760.0584, 997.4063
760.5405, 996.8762
761.0226, 1000.489
761.5048, 1003.688
761.9869, 1002.186
762.4690, 998.8434
762.9511, 997.4542
763.4332, 998.5505
763.9153, 998.4033
764.3975, 994.6255
764.8796, 989.7220
765.3617, 984.8109
765.8438, 978.4449
766.3259, 977.5118
766.8080, 984.3860
767.2902, 992.3627
767.7723, 994.5508
768.2544, 991.7242
768.7365, 992.2269
769.2186, 997.3599
769.7007, 1002.540
770.1829, 1004.361
770.6650, 1002.812
771.1471, 996.8434
771.6292, 982.9425
772.1113, 973.0580
772.5934, 972.2000
773.0756, 977.5892
773.5577, 986.9036
774.0398, 1007.491
774.5219, 1015.120
775.0040, 1003.081
775.4861, 984.7462
775.9683, 981.7123
776.4504, 992.6532
776.9325, 1002.335
777.4146, 1008.954
777.8967, 1008.881
778.3788, 988.8513
778.8610, 960.4548
779.3431, 945.0858
779.8252, 963.4218
780.3073, 981.8427
780.7894, 988.5116
781.2715, 987.7828
781.7537, 990.6107
782.2358, 1002.659
782.7179, 1004.989
783.2000, 989.9719
783.6821, 966.4279
784.1642, 957.9288
784.6464, 963.1016
785.1285, 968.8732
785.6106, 968.5161
786.0927, 967.3274
786.5748, 973.5327
787.0569, 984.0541
787.5391, 990.3891
788.0212, 981.1228
788.5033, 975.1895
788.9854, 984.7980
789.4675, 1004.993
789.9496, 1011.578
790.4318, 998.0637
790.9139, 988.7035
791.3960, 995.3595
791.8781, 1011.372
792.3602, 1011.931
792.8423, 998.4278
793.3245, 983.9729
793.8066, 973.9816
794.2887, 968.7014
794.7708, 970.2192
795.2529, 977.5797
795.7350, 985.1133
796.2172, 992.3516
796.6993, 997.7853
797.1814, 1001.333
797.6635, 1002.888
798.1456, 1000.318
798.6277, 992.6378
799.1099, 984.0728
799.5920, 974.7517
800.0741, 966.4847
800.5562, 968.1830
801.0383, 979.0478
801.5204, 988.2238
802.0026, 986.9586
802.4847, 982.1368
802.9668, 978.7121
803.4489, 977.1175
803.9310, 976.7899
804.4131, 979.1930
804.8953, 981.2881
805.3774, 981.2913
805.8595, 979.0490
806.3416, 979.6027
806.8237, 983.2548
807.3058, 987.8407
807.7880, 994.0260
808.2701, 999.4701
808.7522, 995.8066
809.2343, 983.1614
809.7164, 974.8152
810.1985, 987.0338
810.6807, 1000.994
811.1628, 1001.061
811.6449, 981.7966
812.1270, 971.3093
812.6091, 975.4659
813.0912, 982.1793
813.5734, 984.2018
814.0555, 981.3855
814.5376, 980.2156
815.0197, 980.9868
815.5018, 980.1060
815.9839, 969.7668
816.4661, 957.9008
816.9482, 958.5320
817.4303, 973.9962
817.9124, 985.8654
818.3945, 980.7183
818.8766, 972.5988
819.3588, 972.4052
819.8409, 983.2027
820.3230, 987.8165
820.8051, 983.6127
821.2872, 979.2288
821.7693, 983.1254
822.2515, 993.3381
822.7336, 998.9990
823.2157, 999.4846
823.6978, 996.0972
824.1799, 983.8963
824.6620, 971.9852
825.1442, 971.3364
825.6263, 986.1511
826.1084, 997.2050
826.5905, 1000.321
827.0726, 997.7240
827.5547, 988.9196
828.0369, 971.9073
828.5190, 960.5558
829.0011, 954.7166
829.4832, 954.8138
829.9653, 966.3986
830.4474, 983.1183
830.9296, 989.5347
831.4117, 983.7435
831.8938, 977.0488
832.3759, 978.9988
832.8580, 981.1217
833.3401, 974.9733
833.8223, 953.4377
834.3044, 945.8713
834.7865, 959.0313
835.2686, 975.8762
835.7507, 983.4999
836.2328, 982.5473
836.7150, 986.6504
837.1971, 996.7224
837.6792, 1002.847
838.1613, 989.4089
838.6434, 970.8914
839.1255, 968.4258
839.6077, 986.9139
840.0898, 996.3239
840.5719, 974.1431
841.0540, 950.7133
841.5361, 944.2170
842.0182, 957.7432
842.5004, 969.9701
842.9825, 981.4908
843.4646, 989.4906
843.9467, 989.9569
844.4288, 985.5662
844.9109, 983.6688
845.3931, 984.6490
845.8752, 984.4136
846.3573, 975.3273
846.8394, 967.6826
847.3215, 972.5727
847.8036, 995.6052
848.2858, 1000.359
848.7679, 974.2883
849.2500, 948.9504
849.7321, 944.7585
850.2142, 960.1801
850.6964, 968.7976
851.1785, 970.6538
851.6606, 969.1299
852.1427, 964.9891
852.6248, 959.9345
853.1069, 954.1116
853.5891, 947.7952
854.0712, 947.5005
854.5533, 962.3367
855.0354, 977.2023
855.5175, 986.3771
855.9996, 989.9153
856.4818, 982.6982
856.9639, 961.8159
857.4460, 947.2008
857.9281, 959.9216
858.4102, 984.8654
858.8923, 986.2045
859.3745, 967.1194
859.8566, 951.8267
860.3387, 958.4260
860.8208, 968.5552
861.3029, 972.3933
861.7850, 969.3827
862.2672, 965.1725
862.7493, 957.7758
863.2314, 953.8486
863.7135, 958.0399
864.1956, 967.2822
864.6777, 968.5259
865.1599, 962.6877
865.6420, 957.5496
866.1241, 959.1402
866.6062, 961.8930
867.0883, 958.7905
867.5704, 952.2707
868.0526, 952.4308
868.5347, 970.4060
869.0168, 985.1073
869.4989, 991.9835
869.9810, 992.1017
870.4631, 986.5829
870.9453, 975.1956
871.4274, 969.6907
871.9095, 978.1938
872.3916, 990.7639
872.8737, 996.6002
873.3558, 995.7051
873.8380, 988.4174
874.3201, 963.6049
874.8022, 945.2254
875.2843, 944.5063
875.7664, 953.9189
876.2485, 960.1140
876.7307, 963.0185
877.2128, 962.3213
877.6949, 956.4025
878.1770, 949.9860
878.6591, 951.3869
879.1412, 958.5593
879.6234, 966.6614
880.1055, 976.3281
880.5876, 982.7097
881.0697, 981.2131
881.5518, 975.8320
882.0339, 972.0072
882.5161, 968.1907
882.9982, 971.2933
883.4803, 985.7447
883.9624, 999.9379
884.4445, 993.9908
884.9266, 973.1484
885.4088, 960.0781
885.8909, 959.6899
886.3730, 963.5259
886.8551, 966.6160
887.3372, 969.5600
887.8193, 973.1512
888.3015, 978.5367
888.7836, 982.5059
889.2657, 986.9006
889.7478, 987.2105
890.2299, 975.6073
890.7120, 953.5164
891.1942, 945.6602
891.6763, 954.2435
892.1584, 964.7449
892.6405, 962.2211
893.1226, 956.7712
893.6047, 960.5083
894.0869, 976.2365
894.5690, 987.5910
895.0511, 989.1855
895.5332, 987.5264
896.0153, 985.2235
896.4974, 982.2810
896.9796, 976.8145
897.4617, 968.4617
897.9438, 964.0373
898.4259, 971.6603
898.9080, 983.7992
899.3901, 991.6832
899.8723, 995.0369
900.3544, 994.3630
900.8365, 984.6865
901.3186, 976.5542
901.8007, 973.8539
902.2828, 975.8086
902.7650, 978.6342
903.2471, 982.4894
903.7292, 986.5447
904.2113, 992.0771
904.6934, 995.9352
905.1755, 988.8322
905.6577, 975.5233
906.1398, 968.5097
906.6219, 981.5975
907.1040, 992.5685
907.5861, 992.3848
908.0682, 985.3946
908.5504, 977.7397
909.0325, 966.8812
909.5146, 967.8483
909.9967, 986.7108
910.4788, 1010.260
910.9609, 1017.860
911.4431, 1014.129
911.9252, 1009.112
912.4073, 1005.599
912.8894, 1001.099
913.3715, 993.4810
913.8536, 984.7903
914.3358, 976.3336
914.8179, 964.6976
915.3000, 965.7602
915.7821, 984.0985
916.2642, 1002.195
916.7463, 997.7973
917.2285, 979.7918
917.7106, 971.9475
918.1927, 977.2405
918.6748, 981.8759
919.1569, 972.0463
919.6390, 962.8792
920.1212, 967.9003
920.6033, 989.8521
921.0854, 1001.836
921.5675, 1001.418
922.0496, 998.2933
922.5317, 998.3047
923.0139, 999.9348
923.4960, 997.8012
923.9781, 992.4851
924.4602, 987.5009
924.9423, 985.3853
925.4244, 983.6921
925.9066, 980.8455
926.3887, 977.1287
926.8708, 974.1198
927.3529, 971.1881
927.8350, 970.8397
928.3171, 974.3690
928.7993, 980.1259
929.2814, 983.9076
929.7635, 986.7564
930.2456, 992.8397
930.7277, 1007.233
931.2098, 1019.802
931.6920, 1027.284
932.1741, 1028.432
932.6562, 1020.001
933.1383, 994.2021
933.6204, 979.1996
934.1025, 979.4554
934.5847, 985.2554
935.0668, 985.1431
935.5489, 980.6840
936.0310, 975.9301
936.5131, 971.0258
936.9952, 969.4124
937.4774, 974.8033
937.9595, 983.2955
938.4416, 993.1085
938.9237, 1005.565
939.4058, 1009.063
939.8879, 999.8207
940.3701, 991.6607
940.8522, 995.9740
941.3343, 1008.233
941.8164, 1014.151
942.2985, 1014.262
942.7806, 1012.404
943.2628, 1008.243
943.7449, 1005.206
944.2270, 1007.393
944.7091, 1013.035
945.1912, 1011.335
945.6733, 997.9697
946.1555, 990.9738
946.6376, 997.7089
947.1197, 1010.371
947.6018, 1011.792
948.0839, 1006.194
948.5660, 1006.014
949.0482, 1022.934
949.5303, 1034.700
950.0124, 1023.647
950.4945, 1004.598
950.9766, 998.3245
951.4587, 1011.479
951.9409, 1016.258
952.4230, 1009.238
952.9051, 999.9301
953.3872, 997.0498
953.8693, 1000.085
954.3514, 1010.248
954.8336, 1028.339
955.3157, 1042.405
955.7978, 1040.620
956.2799, 1037.874
956.7620, 1044.981
957.2441, 1062.273
957.7263, 1070.509
958.2084, 1068.753
958.6905, 1064.038
959.1726, 1056.830
959.6547, 1051.225
960.1368, 1056.741
960.6190, 1070.398
961.1011, 1081.698
961.5832, 1082.267
962.0653, 1084.091
962.5474, 1091.183
963.0295, 1101.882
963.5117, 1113.989
963.9938, 1127.812
964.4759, 1139.763
964.9580, 1148.648
965.4401, 1157.023
965.9222, 1168.702
966.4044, 1181.766
966.8865, 1192.099
967.3686, 1195.491
967.8507, 1205.401
968.3329, 1229.414
968.8150, 1255.789
969.2971, 1273.731
969.7792, 1282.440
970.2614, 1311.001
970.7435, 1359.768
971.2256, 1408.602
971.7077, 1438.050
972.1898, 1462.078
972.6719, 1490.969
973.1541, 1526.082
973.6362, 1574.572
974.1183, 1649.682
974.6004, 1720.907
975.0825, 1778.081
975.5646, 1827.899
976.0468, 1889.245
976.5289, 1960.263
977.0110, 2031.485
977.4931, 2097.550
977.9752, 2164.835
978.4573, 2241.205
978.9395, 2321.697
979.4216, 2397.534
979.9037, 2462.777
980.3858, 2535.363
980.8679, 2621.096
981.3500, 2702.904
981.8322, 2760.570
982.3143, 2799.333
982.7964, 2830.449
983.2785, 2854.987
983.7606, 2877.970
984.2427, 2913.611
984.7249, 2939.273
985.2070, 2932.312
985.6891, 2895.798
986.1712, 2874.669
986.6533, 2870.904
987.1354, 2873.486
987.6176, 2879.741
988.0997, 2887.243
988.5818, 2887.590
989.0639, 2885.520
989.5460, 2893.393
990.0281, 2924.590
990.5103, 2956.084
990.9924, 2981.829
991.4745, 3005.026
991.9566, 3029.782
992.4387, 3056.372
992.9208, 3084.609
993.4030, 3116.152
993.8851, 3136.890
994.3672, 3125.568
994.8493, 3099.560
995.3314, 3082.910
995.8135, 3081.990
996.2957, 3058.168
996.7778, 2999.344
997.2599, 2927.633
997.7420, 2848.086
998.2241, 2763.418
998.7062, 2693.230
999.1884, 2634.398
999.6705, 2568.383
1000.153, 2485.297
1000.635, 2391.534
1001.117, 2285.717
1001.599, 2173.615
1002.081, 2070.732
1002.563, 1981.479
1003.045, 1888.567
1003.527, 1786.463
1004.010, 1686.739
1004.492, 1602.334
1004.974, 1532.094
1005.456, 1473.437
1005.938, 1427.094
1006.420, 1386.845
1006.902, 1352.630
1007.384, 1321.693
1007.866, 1290.214
1008.349, 1258.461
1008.831, 1243.477
1009.313, 1246.563
1009.795, 1246.632
1010.277, 1229.734
1010.759, 1205.547
1011.241, 1185.011
1011.723, 1167.514
1012.206, 1151.498
1012.688, 1132.613
1013.170, 1121.629
1013.652, 1122.526
1014.134, 1128.253
1014.616, 1129.475
1015.098, 1126.641
1015.580, 1123.122
1016.062, 1119.453
1016.545, 1114.235
1017.027, 1103.257
1017.509, 1092.631
1017.991, 1089.136
1018.473, 1094.129
1018.955, 1090.165
1019.437, 1073.296
1019.919, 1061.447
1020.401, 1066.766
1020.884, 1080.110
1021.366, 1083.267
1021.848, 1078.190
1022.330, 1070.711
1022.812, 1056.245
1023.294, 1048.609
1023.776, 1058.750
1024.258, 1072.568
1024.740, 1069.961
1025.223, 1050.099
1025.705, 1042.929
1026.187, 1052.922
1026.669, 1062.951
1027.151, 1053.196
1027.633, 1038.467
1028.115, 1033.873
1028.597, 1041.473
1029.080, 1048.342
1029.562, 1053.945
1030.044, 1057.547
1030.526, 1058.379
1031.008, 1057.441
1031.490, 1056.759
1031.972, 1056.596
1032.454, 1058.301
1032.937, 1069.410
1033.419, 1072.408
1033.901, 1048.442
1034.383, 1018.680
1034.865, 1009.031
1035.347, 1023.738
1035.829, 1034.438
1036.311, 1039.663
1036.793, 1041.137
1037.276, 1038.252
1037.758, 1033.793
1038.240, 1030.037
1038.722, 1027.410
1039.204, 1028.585
1039.686, 1039.156
1040.168, 1045.500
1040.650, 1041.811
1041.132, 1033.539
1041.615, 1034.911
1042.097, 1043.855
1042.579, 1051.867
1043.061, 1057.245
1043.543, 1059.010
1044.025, 1052.812
1044.507, 1045.094
1044.989, 1042.897
1045.472, 1047.778
1045.954, 1050.409
1046.436, 1050.356
1046.918, 1050.793
1047.400, 1056.539
1047.882, 1062.732
1048.364, 1060.010
1048.846, 1050.837
1049.328, 1046.708
1049.811, 1058.534
1050.293, 1065.073
1050.775, 1058.979
1051.257, 1049.843
1051.739, 1059.920
1052.221, 1083.639
1052.703, 1094.352
1053.185, 1084.860
1053.667, 1072.950
1054.150, 1069.657
1054.632, 1069.229
1055.114, 1065.318
1055.596, 1057.140
1056.078, 1063.614
1056.560, 1087.219
1057.042, 1106.251
1057.524, 1107.966
1058.007, 1099.708
1058.489, 1084.638
1058.971, 1068.259
1059.453, 1063.454
1059.935, 1087.476
1060.417, 1104.333
1060.899, 1111.044
1061.381, 1109.597
1061.864, 1096.720
1062.346, 1076.994
1062.828, 1075.041
1063.310, 1092.720
1063.792, 1104.472
1064.274, 1085.575
1064.756, 1064.549
1065.238, 1057.295
1065.720, 1062.361
1066.203, 1076.459
1066.685, 1101.084
1067.167, 1121.388
1067.649, 1134.362
1068.131, 1138.424
1068.613, 1126.066
1069.095, 1105.787
1069.577, 1089.167
1070.059, 1077.380
1070.542, 1073.566
1071.024, 1081.155
1071.506, 1089.327
1071.988, 1089.677
1072.470, 1084.482
1072.952, 1079.394
1073.434, 1075.197
1073.916, 1075.931
1074.399, 1088.524
1074.881, 1100.698
1075.363, 1105.946
1075.845, 1109.128
1076.327, 1120.122
1076.809, 1139.216
1077.291, 1149.303
1077.773, 1147.637
1078.255, 1138.993
1078.738, 1119.336
1079.220, 1100.695
1079.702, 1093.260
1080.184, 1099.074
1080.666, 1114.488
1081.148, 1144.964
1081.630, 1166.660
1082.112, 1167.279
1082.594, 1158.103
1083.077, 1160.033
1083.559, 1167.777
1084.041, 1169.448
1084.523, 1152.237
1085.005, 1146.993
1085.487, 1168.966
1085.969, 1191.371
1086.451, 1190.188
1086.934, 1168.982
1087.416, 1154.163
1087.898, 1146.292
1088.380, 1145.519
1088.862, 1153.646
1089.344, 1167.159
1089.826, 1190.015
1090.308, 1215.551
1090.791, 1226.903
1091.273, 1221.431
1091.755, 1222.888
1092.237, 1236.953
1092.719, 1249.433
1093.201, 1240.954
1093.683, 1225.972
1094.165, 1219.957
1094.647, 1225.352
1095.130, 1236.047
1095.612, 1256.327
1096.094, 1269.753
1096.576, 1266.592
1097.058, 1256.017
1097.540, 1256.665
1098.022, 1265.686
1098.504, 1275.940
1098.987, 1284.908
1099.469, 1295.569
1099.951, 1312.654
1100.433, 1327.409
1100.915, 1331.285
1101.397, 1325.310
1101.879, 1325.694
1102.361, 1332.324
1102.844, 1342.920
1103.326, 1358.965
1103.808, 1375.306
1104.290, 1389.533
1104.772, 1401.504
1105.254, 1409.668
1105.736, 1412.271
1106.218, 1424.088
1106.700, 1448.592
1107.182, 1473.104
1107.665, 1484.254
1108.147, 1488.958
1108.629, 1492.075
1109.111, 1494.219
1109.593, 1504.688
1110.075, 1526.554
1110.557, 1550.176
1111.039, 1575.001
1111.522, 1594.890
1112.004, 1591.690
1112.486, 1576.535
1112.968, 1574.443
1113.450, 1601.640
1113.932, 1616.113
1114.414, 1600.091
1114.896, 1580.258
1115.379, 1575.915
1115.861, 1582.217
1116.343, 1563.804
1116.825, 1526.162
1117.307, 1502.255
1117.789, 1531.407
1118.271, 1553.416
1118.753, 1530.660
1119.235, 1490.745
1119.718, 1471.311
1120.200, 1474.131
1120.682, 1467.501
1121.164, 1448.566
1121.646, 1430.131
1122.128, 1426.349
1122.610, 1423.979
1123.092, 1409.781
1123.574, 1385.962
1124.057, 1369.920
1124.539, 1362.558
1125.021, 1361.558
1125.503, 1369.434
1125.985, 1374.167
1126.467, 1352.498
1126.949, 1322.078
1127.431, 1309.404
1127.914, 1322.839
1128.396, 1326.530
1128.878, 1313.641
1129.360, 1298.698
1129.842, 1286.697
1130.324, 1277.643
1130.806, 1272.860
1131.288, 1270.946
1131.771, 1268.386
1132.253, 1263.697
1132.735, 1258.829
1133.217, 1255.442
1133.699, 1250.505
1134.181, 1240.049
1134.663, 1225.292
1135.145, 1217.462
1135.627, 1215.538
1136.109, 1212.367
1136.592, 1202.308
1137.074, 1192.024
1137.556, 1184.858
1138.038, 1179.111
1138.520, 1172.328
1139.002, 1164.545
1139.484, 1156.477
1139.966, 1148.218
1140.449, 1142.190
1140.931, 1138.562
1141.413, 1139.494
1141.895, 1152.798
1142.377, 1173.450
1142.859, 1174.132
1143.341, 1151.501
1143.823, 1129.421
1144.306, 1112.040
1144.788, 1102.140
1145.270, 1108.067
1145.752, 1120.161
1146.234, 1127.097
1146.716, 1126.333
1147.198, 1128.466
1147.680, 1135.948
1148.162, 1137.903
1148.645, 1125.954
1149.127, 1110.825
1149.609, 1114.197
1150.091, 1126.867
1150.573, 1131.406
1151.055, 1118.996
1151.537, 1106.142
1152.019, 1092.228
1152.501, 1081.769
1152.984, 1080.721
1153.466, 1085.066
1153.948, 1081.232
1154.430, 1072.054
1154.912, 1067.910
1155.394, 1078.867
1155.876, 1087.656
1156.358, 1094.056
1156.841, 1093.710
1157.323, 1075.155
1157.805, 1044.761
1158.287, 1034.246
1158.769, 1043.986
1159.251, 1055.280
1159.733, 1061.321
1160.215, 1062.669
1160.698, 1057.668
1161.180, 1049.791
1161.662, 1045.373
1162.144, 1044.310
1162.626, 1047.309
1163.108, 1055.341
1163.590, 1057.657
1164.072, 1034.157
1164.554, 1014.301
1165.036, 1022.101
1165.519, 1050.511
1166.001, 1067.313
1166.483, 1072.521
1166.965, 1064.013
1167.447, 1035.131
1167.929, 1011.002
1168.411, 1019.475
1168.893, 1038.257
1169.376, 1044.382
1169.858, 1036.853
1170.340, 1033.336
1170.822, 1034.274
1171.304, 1032.236
1171.786, 1018.767
1172.268, 1007.719
1172.750, 1017.916
1173.233, 1037.548
1173.715, 1049.070
1174.197, 1049.933
1174.679, 1047.285
1175.161, 1040.998
1175.643, 1031.739
1176.125, 1012.429
1176.607, 996.2496
1177.089, 1004.816
1177.572, 1028.669
1178.054, 1041.906
1178.536, 1034.738
1179.018, 1034.521
1179.500, 1045.187
1179.982, 1054.427
1180.464, 1048.799
1180.946, 1035.003
1181.428, 1018.106
1181.911, 1000.440
1182.393, 992.8305
1182.875, 1000.661
1183.357, 1011.140
1183.839, 1023.847
1184.321, 1034.465
1184.803, 1036.472
1185.285, 1033.254
1185.768, 1028.674
1186.250, 1023.308
1186.732, 1024.899
1187.214, 1040.689
1187.696, 1052.899
1188.178, 1056.945
1188.660, 1054.507
1189.142, 1045.403
1189.625, 1032.967
1190.107, 1023.957
1190.589, 1019.991
1191.071, 1017.620
1191.553, 1015.750
1192.035, 1015.690
1192.517, 1018.075
1192.999, 1022.571
1193.481, 1031.813
1193.964, 1042.144
1194.446, 1042.984
1194.928, 1025.167
1195.410, 1014.485
1195.892, 1020.202
1196.374, 1028.791
1196.856, 1033.153
1197.338, 1034.229
1197.820, 1037.072
1198.303, 1039.679
1198.785, 1035.322
1199.267, 1014.230
1199.749, 996.8267
1200.231, 984.7601
1200.713, 980.6832
1201.195, 991.1525
1201.677, 1011.995
1202.160, 1025.216
1202.642, 1030.438
1203.124, 1026.253
1203.606, 994.7339
1204.088, 977.7361
1204.570, 991.9183
1205.052, 1015.463
1205.534, 1024.742
1206.016, 1022.286
1206.499, 1017.588
1206.981, 1011.786
1207.463, 1009.567
1207.945, 1017.532
1208.427, 1024.474
1208.909, 1028.298
1209.391, 1027.967
1209.873, 1017.664
1210.355, 1001.256
1210.838, 999.8461
1211.320, 1014.901
1211.802, 1024.986
1212.284, 1012.366
1212.766, 1000.019
1213.248, 996.9703
1213.730, 999.1530
1214.212, 999.1329
1214.695, 997.2195
1215.177, 993.4920
1215.659, 987.4765
1216.141, 986.3333
1216.623, 994.7375
1217.105, 1008.969
1217.587, 1032.829
1218.069, 1057.263
1218.552, 1051.441
1219.034, 1023.663
1219.516, 1007.362
1219.998, 1013.020
1220.480, 1018.292
1220.962, 1009.713
1221.444, 1001.512
1221.926, 1001.347
1222.408, 1006.408
1222.891, 1005.966
1223.373, 1001.555
1223.855, 999.5032
1224.337, 1002.587
1224.819, 1005.593
1225.301, 1005.236
1225.783, 1005.558
1226.265, 1010.015
1226.747, 1016.592
1227.230, 1014.587
1227.712, 1006.437
1228.194, 1000.794
1228.676, 998.7202
1229.158, 1004.407
1229.640, 1032.003
1230.122, 1052.165
1230.604, 1039.118
1231.087, 1002.749
1231.569, 990.8329
1232.051, 997.5229
1232.533, 1001.417
1233.015, 987.1822
1233.497, 978.3359
1233.979, 980.8715
1234.461, 988.5018
1234.943, 999.9646
1235.426, 1012.122
1235.908, 1007.576
1236.390, 990.9988
1236.872, 981.8187
1237.354, 1000.154
1237.836, 1009.483
1238.318, 999.8405
1238.800, 986.8165
1239.282, 988.1404
1239.765, 997.6455
1240.247, 994.7202
1240.729, 982.2624
1241.211, 977.3240
1241.693, 994.2142
1242.175, 1008.540
1242.657, 1016.257
1243.139, 1021.538
1243.622, 1032.886
1244.104, 1044.042
1244.586, 1036.292
1245.068, 1012.431
1245.550, 997.0620
1246.032, 1006.936
1246.514, 1009.630
1246.996, 996.8728
1247.479, 985.4956
1247.961, 1007.655
1248.443, 1040.235
1248.925, 1036.643
1249.407, 998.6478
1249.889, 977.2300
1250.371, 991.0893
1250.853, 998.5466
1251.335, 990.3389
1251.818, 978.8795
1252.300, 979.5099
1252.782, 987.0040
1253.264, 994.9084
1253.746, 1002.556
1254.228, 1010.847
1254.710, 1022.219
1255.192, 1025.811
1255.674, 1017.466
1256.157, 1007.014
1256.639, 1005.426
1257.121, 1009.109
1257.603, 1015.434
1258.085, 1023.833
1258.567, 1028.561
1259.049, 1029.008
1259.531, 1029.486
1260.014, 1032.415
1260.496, 1030.616
1260.978, 1006.626
1261.460, 980.7902
1261.942, 977.0515
1262.424, 994.6293
1262.906, 1008.546
1263.388, 1018.968
1263.870, 1022.791
1264.353, 1017.669
1264.835, 1011.546
1265.317, 1015.359
1265.799, 1018.317
1266.281, 1006.606
1266.763, 983.9097
1267.245, 980.2422
1267.727, 994.5609
1268.209, 1008.804
1268.692, 1018.591
1269.174, 1022.895
1269.656, 1013.503
1270.138, 1005.893
1270.620, 1014.757
1271.102, 1034.523
1271.584, 1030.161
1272.066, 1006.336
1272.549, 989.7610
1273.031, 990.4011
1273.513, 995.2111
1273.995, 999.5477
1274.477, 1004.667
1274.959, 1013.394
1275.441, 1022.615
1275.923, 1016.685
1276.406, 1000.873
1276.888, 993.2574
1277.370, 1003.899
1277.852, 1011.052
1278.334, 1006.883
1278.816, 1001.748
1279.298, 1001.372
1279.780, 1003.301
1280.262, 1002.607
1280.745, 998.8985
1281.227, 990.2912
1281.709, 970.9880
1282.191, 961.7194
1282.673, 965.6483
1283.155, 974.5264
1283.637, 985.1067
1284.119, 996.6522
1284.601, 1011.536
1285.084, 1025.204
1285.566, 1028.719
1286.048, 1013.197
1286.530, 1011.245
1287.012, 1025.899
1287.494, 1037.992
1287.976, 1036.212
1288.458, 1027.656
1288.941, 1017.320
1289.423, 1006.889
1289.905, 998.6671
1290.387, 992.4001
1290.869, 990.4304
1291.351, 992.8509
1291.833, 995.9319
1292.315, 996.0322
1292.797, 998.3231
1293.280, 1011.914
1293.762, 1025.758
1294.244, 1026.332
1294.726, 1013.605
1295.208, 1011.858
1295.690, 1019.665
1296.172, 1024.230
1296.654, 1014.211
1297.136, 1007.377
1297.619, 1019.193
1298.101, 1029.696
1298.583, 1020.980
1299.065, 998.1112
1299.547, 990.9955
1300.029, 996.4442
1300.511, 1003.693
1300.993, 1011.361
1301.476, 1015.329
1301.958, 1014.772
1302.440, 1011.794
1302.922, 1005.122
1303.404, 998.6583
1303.886, 1002.903
1304.368, 1014.442
1304.850, 1025.302
1305.333, 1035.582
1305.815, 1040.398
1306.297, 1039.573
1306.779, 1033.936
1307.261, 1017.970
1307.743, 1002.911
1308.225, 1008.371
1308.707, 1022.579
1309.189, 1022.378
1309.672, 1000.158
1310.154, 993.9941
1310.636, 1004.411
1311.118, 1014.880
1311.600, 1016.527
1312.082, 1013.051
1312.564, 1000.594
1313.046, 989.0390
1313.528, 991.3692
1314.011, 1007.569
1314.493, 1014.096
1314.975, 1012.009
1315.457, 1008.704
1315.939, 1005.340
1316.421, 1005.239
1316.903, 1011.713
1317.385, 1019.457
##END=



