##NAMES=Kulanite
##RRUFFID=R060240
##IDEAL CHEMISTRY=BaFe^2+^_2_Al_2_(PO_4_)_3_(OH)_3_
##LOCALITY=Big Fish River, Yukon Territory, Canada
##OWNER=RRUFF
##SOURCE=Rock Currier
##DESCRIPTION=Dark green tabular crystals
##STATUS=The identification of this mineral is confirmed by single-crystal X-ray diffraction and chemical analysis.
##URL=rruff.info/R060240
##MEASURED CHEMISTRY=(Ba_0.97_Sr_0.03_)_Σ=1_(Fe^2+^_1.06_Mn_0.54_Mg_0.35_Ca_0.03_Ti_0.01_[box]_0.01_)_Σ=2_(Al_1.67_Fe^3+^_0.33_)_Σ=2_(P_1.00_O_4_)_3_((OH)_2.68_F_0.32_)_Σ=3_; OH estimated by difference and charge balance
91.82715, 322.4633
92.30927, 321.1441
92.79138, 321.7803
93.27350, 321.6588
93.75562, 319.8198
94.23773, 316.1503
94.71985, 311.4832
95.20197, 307.4484
95.68408, 305.1748
96.16620, 303.5435
96.64832, 301.6829
97.13043, 299.4539
97.61255, 297.3809
98.09467, 296.3570
98.57678, 297.0318
99.05890, 296.2616
99.54102, 293.8816
100.0231, 290.8735
100.5052, 287.8013
100.9874, 284.7791
101.4695, 281.9827
101.9516, 280.6334
102.4337, 282.9282
102.9158, 284.4621
103.3979, 283.9110
103.8801, 282.0409
104.3622, 280.3643
104.8443, 280.0786
105.3264, 281.3133
105.8085, 282.5508
106.2906, 284.9061
106.7728, 286.3393
107.2549, 285.0780
107.7370, 281.1601
108.2191, 276.7488
108.7012, 274.1662
109.1833, 273.5020
109.6655, 273.4174
110.1476, 273.8771
110.6297, 274.7827
111.1118, 276.1998
111.5939, 278.4595
112.0760, 280.4933
112.5582, 280.7712
113.0403, 279.4647
113.5224, 278.5916
114.0045, 279.6946
114.4866, 282.6740
114.9688, 285.4283
115.4509, 287.9688
115.9330, 289.7626
116.4151, 290.1629
116.8972, 289.1202
117.3793, 287.6955
117.8615, 287.4274
118.3436, 289.0780
118.8257, 290.0154
119.3078, 288.6582
119.7899, 287.2611
120.2720, 287.6135
120.7542, 290.4257
121.2363, 295.0863
121.7184, 299.9045
122.2005, 307.4395
122.6826, 312.0814
123.1647, 311.4295
123.6468, 307.9720
124.1290, 305.3202
124.6111, 305.6399
125.0932, 308.4477
125.5753, 309.6261
126.0574, 307.9131
126.5395, 306.2553
127.0217, 306.2257
127.5038, 307.5192
127.9859, 308.3918
128.4680, 307.2603
128.9501, 304.5547
129.4323, 303.0315
129.9144, 303.7607
130.3965, 305.1962
130.8786, 305.7098
131.3607, 305.1097
131.8428, 304.2482
132.3250, 303.8367
132.8071, 303.6333
133.2892, 303.1901
133.7713, 302.2103
134.2534, 300.8283
134.7355, 299.5696
135.2177, 298.8933
135.6998, 297.6422
136.1819, 295.0269
136.6640, 291.4194
137.1461, 287.7690
137.6282, 284.8706
138.1104, 282.8167
138.5925, 280.4824
139.0746, 277.7005
139.5567, 274.7612
140.0388, 271.6617
140.5209, 268.4672
141.0031, 265.2504
141.4852, 261.9393
141.9673, 257.7904
142.4494, 255.7715
142.9315, 257.4550
143.4136, 259.7660
143.8958, 260.5705
144.3779, 259.3893
144.8600, 257.3826
145.3421, 256.4212
145.8242, 257.2431
146.3063, 257.8122
146.7885, 257.8491
147.2706, 257.6614
147.7527, 257.6532
148.2348, 257.9884
148.7169, 258.4655
149.1990, 258.6591
149.6812, 258.5369
150.1633, 258.3676
150.6454, 258.0898
151.1275, 257.8075
151.6096, 257.9926
152.0917, 259.3185
152.5739, 260.6568
153.0560, 260.3087
153.5381, 257.8484
154.0202, 255.0469
154.5023, 253.3077
154.9844, 252.6708
155.4665, 252.2539
155.9487, 252.1631
156.4308, 251.9339
156.9129, 250.9936
157.3950, 249.0762
157.8771, 247.0162
158.3592, 246.3205
158.8414, 247.9255
159.3235, 248.4899
159.8056, 246.0007
160.2877, 242.8094
160.7698, 241.1047
161.2519, 241.9015
161.7341, 244.2938
162.2162, 245.6263
162.6983, 245.2164
163.1804, 244.5368
163.6625, 243.7609
164.1446, 242.8754
164.6268, 241.7468
165.1089, 240.2577
165.5910, 238.5663
166.0731, 237.6884
166.5552, 239.6053
167.0373, 240.1885
167.5195, 236.7202
168.0016, 231.2934
168.4837, 228.2358
168.9658, 230.7356
169.4479, 238.2797
169.9300, 242.5697
170.4122, 242.4139
170.8943, 240.9384
171.3764, 238.8018
171.8585, 236.3149
172.3406, 234.4691
172.8227, 234.2733
173.3049, 235.4883
173.7870, 235.6387
174.2691, 233.6007
174.7512, 231.2839
175.2333, 230.2229
175.7154, 230.4883
176.1976, 231.3455
176.6797, 232.9288
177.1618, 234.6968
177.6439, 235.2339
178.1260, 233.0284
178.6081, 229.8710
179.0903, 228.6522
179.5724, 230.0447
180.0545, 231.4152
180.5366, 230.7234
181.0187, 228.9469
181.5008, 227.6173
181.9830, 227.6463
182.4651, 228.5984
182.9472, 229.2205
183.4293, 229.7947
183.9114, 229.4678
184.3935, 227.0674
184.8757, 223.7278
185.3578, 221.4220
185.8399, 221.7077
186.3220, 224.3052
186.8041, 226.1927
187.2862, 226.9130
187.7684, 227.3239
188.2505, 227.7876
188.7326, 228.1452
189.2147, 227.9855
189.6968, 226.8537
190.1789, 224.6795
190.6611, 223.3765
191.1432, 223.8892
191.6253, 224.3453
192.1074, 223.7609
192.5895, 222.5333
193.0716, 221.9297
193.5538, 223.2977
194.0359, 227.1830
194.5180, 228.3096
195.0001, 224.4446
195.4822, 220.5182
195.9643, 218.8667
196.4465, 219.4130
196.9286, 220.7928
197.4107, 221.8904
197.8928, 222.6977
198.3749, 222.7965
198.8570, 221.4528
199.3392, 220.0309
199.8213, 219.4027
200.3034, 219.6329
200.7855, 220.3059
201.2676, 221.1433
201.7497, 222.1536
202.2319, 223.0105
202.7140, 223.8719
203.1961, 224.4783
203.6782, 224.4162
204.1603, 223.6116
204.6424, 222.7914
205.1246, 222.6694
205.6067, 223.1144
206.0888, 223.5446
206.5709, 223.7647
207.0530, 223.9417
207.5351, 224.6642
208.0173, 226.3608
208.4994, 227.1298
208.9815, 224.2025
209.4636, 219.1620
209.9457, 215.3025
210.4278, 214.7896
210.9100, 216.1537
211.3921, 216.0464
211.8742, 213.9287
212.3563, 211.3632
212.8384, 208.9862
213.3205, 206.8645
213.8027, 205.2208
214.2848, 204.7517
214.7669, 204.8286
215.2490, 202.8901
215.7311, 197.0577
216.2132, 192.1299
216.6954, 190.4950
217.1775, 190.9730
217.6596, 191.5283
218.1417, 190.9099
218.6238, 189.3511
219.1059, 188.2909
219.5881, 188.5786
220.0702, 188.2945
220.5523, 186.2680
221.0344, 183.3959
221.5165, 181.1641
221.9986, 180.6748
222.4808, 181.6959
222.9629, 182.0378
223.4450, 181.1089
223.9271, 180.0514
224.4092, 178.8653
224.8913, 177.7332
225.3735, 176.9372
225.8556, 176.6900
226.3377, 176.9350
226.8198, 177.0165
227.3019, 176.7157
227.7840, 176.4739
228.2662, 176.3813
228.7483, 176.4133
229.2304, 176.6167
229.7125, 177.0861
230.1946, 177.7132
230.6767, 177.2675
231.1589, 174.0913
231.6410, 171.7346
232.1231, 171.4239
232.6052, 172.5604
233.0873, 174.1158
233.5694, 175.6168
234.0516, 176.8788
234.5337, 176.3914
235.0158, 172.2199
235.4979, 168.7732
235.9800, 167.7430
236.4621, 168.4242
236.9443, 169.2708
237.4264, 169.4925
237.9085, 169.1741
238.3906, 168.6980
238.8727, 167.8325
239.3548, 167.1006
239.8370, 166.4237
240.3191, 165.9893
240.8012, 166.5542
241.2833, 168.9607
241.7654, 172.0549
242.2475, 172.3374
242.7297, 168.0108
243.2118, 164.2706
243.6939, 163.9809
244.1760, 166.1619
244.6581, 167.8935
245.1402, 167.9664
245.6224, 166.9068
246.1045, 165.7205
246.5866, 164.1570
247.0687, 163.1192
247.5508, 163.6514
248.0329, 165.2262
248.5151, 165.8378
248.9972, 164.3971
249.4793, 162.1841
249.9614, 161.1534
250.4435, 161.4487
250.9256, 161.8226
251.4078, 161.4362
251.8899, 160.4956
252.3720, 159.9871
252.8541, 160.5264
253.3362, 161.1031
253.8183, 160.2935
254.3005, 158.1052
254.7826, 156.5564
255.2647, 157.3086
255.7468, 159.9203
256.2289, 162.3421
256.7110, 164.9954
257.1931, 166.2097
257.6753, 163.9099
258.1574, 158.7015
258.6395, 154.4500
259.1216, 154.2738
259.6037, 157.4194
260.0858, 159.7019
260.5680, 160.5100
261.0501, 160.6794
261.5322, 160.7016
262.0143, 160.6004
262.4964, 160.4345
262.9785, 160.2067
263.4607, 159.9337
263.9428, 159.6726
264.4249, 159.2327
264.9070, 159.1176
265.3891, 159.7456
265.8712, 160.8220
266.3534, 161.7631
266.8355, 162.2471
267.3176, 162.3227
267.7997, 162.1964
268.2818, 161.8765
268.7639, 161.3017
269.2461, 159.5878
269.7282, 157.8106
270.2103, 157.8216
270.6924, 161.1054
271.1745, 166.2619
271.6566, 168.4960
272.1388, 166.0551
272.6209, 163.4856
273.1030, 161.6484
273.5851, 160.4998
274.0672, 160.0929
274.5493, 160.4881
275.0315, 161.4267
275.5136, 162.3859
275.9957, 163.8535
276.4778, 164.3399
276.9599, 162.6210
277.4420, 160.4775
277.9242, 159.8894
278.4063, 161.5324
278.8884, 163.8623
279.3705, 163.7865
279.8526, 159.7202
280.3347, 156.5928
280.8169, 155.2861
281.2990, 154.6819
281.7811, 154.0636
282.2632, 153.2246
282.7453, 152.3073
283.2274, 151.5015
283.7096, 150.7883
284.1917, 150.2521
284.6738, 150.2287
285.1559, 150.1040
285.6380, 149.2497
286.1201, 147.7555
286.6023, 146.4203
287.0844, 146.2696
287.5665, 147.7305
288.0486, 148.6829
288.5307, 148.8396
289.0128, 148.7895
289.4950, 148.8845
289.9771, 149.0426
290.4592, 148.8871
290.9413, 148.0218
291.4234, 146.3806
291.9055, 144.9335
292.3877, 142.6368
292.8698, 141.5579
293.3519, 143.3408
293.8340, 146.9124
294.3161, 150.0589
294.7982, 151.2168
295.2804, 150.5064
295.7625, 149.4127
296.2446, 146.8734
296.7267, 145.0962
297.2088, 144.4510
297.6909, 144.8494
298.1731, 146.4705
298.6552, 149.5006
299.1373, 153.2412
299.6194, 154.9748
300.1015, 151.9307
300.5836, 150.1373
301.0658, 150.8629
301.5479, 152.7473
302.0300, 154.3889
302.5121, 155.2237
302.9942, 155.5244
303.4763, 155.8503
303.9585, 156.1785
304.4406, 156.5723
304.9227, 157.3194
305.4048, 157.9529
305.8869, 157.7145
306.3690, 156.6001
306.8512, 155.7394
307.3333, 156.8906
307.8154, 161.4618
308.2975, 164.2829
308.7796, 164.5802
309.2617, 164.0956
309.7439, 163.7063
310.2260, 163.5546
310.7081, 163.4313
311.1902, 163.1128
311.6723, 162.5398
312.1544, 162.1992
312.6366, 161.7243
313.1187, 161.7876
313.6008, 163.4684
314.0829, 165.9765
314.5650, 167.3143
315.0471, 165.8212
315.5293, 161.8372
316.0114, 159.8865
316.4935, 162.3126
316.9756, 164.1499
317.4577, 164.1278
317.9398, 162.9237
318.4220, 161.6287
318.9041, 160.8014
319.3862, 159.4029
319.8683, 159.1957
320.3504, 156.9717
320.8326, 155.2323
321.3147, 154.2049
321.7968, 153.6201
322.2789, 153.3664
322.7610, 153.3667
323.2431, 153.3216
323.7253, 152.7100
324.2074, 151.2588
324.6895, 149.7195
325.1716, 147.7406
325.6537, 145.9296
326.1358, 144.5722
326.6180, 143.7685
327.1001, 143.6307
327.5822, 144.4592
328.0643, 146.7024
328.5464, 147.5473
329.0285, 145.4935
329.5107, 143.6718
329.9928, 143.8417
330.4749, 145.4131
330.9570, 146.5199
331.4391, 145.6109
331.9212, 142.9197
332.4034, 141.9393
332.8855, 145.1609
333.3676, 147.4464
333.8497, 146.9943
334.3318, 145.2160
334.8139, 144.2965
335.2961, 145.3591
335.7782, 147.5236
336.2603, 148.1524
336.7424, 145.9081
337.2245, 144.0425
337.7066, 142.4212
338.1888, 141.4429
338.6709, 141.8199
339.1530, 143.6063
339.6351, 145.7329
340.1172, 146.5171
340.5993, 145.2753
341.0815, 144.4057
341.5636, 143.9760
342.0457, 143.8080
342.5278, 144.1640
343.0099, 144.8046
343.4920, 144.9624
343.9742, 143.8035
344.4563, 141.2366
344.9384, 139.0609
345.4205, 136.7930
345.9026, 135.4715
346.3847, 136.2302
346.8669, 138.0635
347.3490, 139.1745
347.8311, 138.3894
348.3132, 136.2279
348.7953, 134.8159
349.2774, 134.8163
349.7596, 134.5303
350.2417, 133.4054
350.7238, 131.9917
351.2059, 130.7588
351.6880, 129.8703
352.1701, 129.3627
352.6523, 129.4742
353.1344, 130.6301
353.6165, 131.0836
354.0986, 129.6910
354.5807, 128.3050
355.0628, 128.3085
355.5450, 129.6093
356.0271, 130.8156
356.5092, 130.2721
356.9913, 127.8861
357.4734, 126.5933
357.9555, 127.2559
358.4377, 128.1334
358.9198, 128.6350
359.4019, 128.7992
359.8840, 128.7283
360.3661, 128.3499
360.8482, 127.8740
361.3304, 128.1359
361.8125, 129.8477
362.2946, 130.6845
362.7767, 128.6469
363.2588, 125.9306
363.7409, 125.0356
364.2231, 126.8860
364.7052, 129.5583
365.1873, 130.4697
365.6694, 129.4073
366.1515, 128.5964
366.6336, 128.8356
367.1158, 129.2522
367.5979, 129.2618
368.0800, 128.8354
368.5621, 128.1638
369.0442, 126.9688
369.5263, 125.5232
370.0085, 125.3291
370.4906, 127.1416
370.9727, 129.0555
371.4548, 129.6370
371.9369, 129.3479
372.4190, 129.2147
372.9012, 129.8675
373.3833, 130.7275
373.8654, 130.7278
374.3475, 129.7225
374.8296, 129.1518
375.3117, 130.3549
375.7939, 132.1067
376.2760, 132.4749
376.7581, 130.8247
377.2402, 129.0009
377.7223, 128.2222
378.2044, 128.3696
378.6866, 129.1257
379.1687, 130.8626
379.6508, 132.4032
380.1329, 131.7645
380.6150, 129.0141
381.0971, 127.1683
381.5793, 128.3705
382.0614, 130.5481
382.5435, 130.1982
383.0256, 126.7863
383.5077, 123.9071
383.9898, 124.9411
384.4720, 129.2754
384.9541, 131.7850
385.4362, 131.2697
385.9183, 129.8418
386.4004, 128.2840
386.8825, 126.7821
387.3647, 125.9802
387.8468, 126.3497
388.3289, 127.3383
388.8110, 127.4366
389.2931, 126.0654
389.7752, 125.2262
390.2574, 125.1993
390.7395, 125.9751
391.2216, 128.0930
391.7037, 131.5673
392.1858, 134.7245
392.6679, 135.5234
393.1501, 133.4063
393.6322, 131.4483
394.1143, 129.2548
394.5964, 127.5450
395.0785, 126.8010
395.5606, 126.9089
396.0428, 127.5550
396.5249, 128.6064
397.0070, 129.9292
397.4891, 130.8297
397.9712, 130.8870
398.4533, 131.0099
398.9355, 131.7173
399.4176, 132.3452
399.8997, 131.9511
400.3818, 130.3177
400.8639, 128.3161
401.3460, 127.1276
401.8282, 126.4661
402.3103, 127.5481
402.7924, 132.7209
403.2745, 137.3014
403.7566, 138.6624
404.2387, 137.2710
404.7209, 135.0491
405.2030, 133.2410
405.6851, 131.9287
406.1672, 131.9858
406.6493, 135.0895
407.1314, 137.1316
407.6136, 136.0940
408.0957, 134.0849
408.5778, 133.5988
409.0599, 135.5367
409.5420, 138.3857
410.0241, 139.7686
410.5063, 139.2720
410.9884, 139.5084
411.4705, 141.2283
411.9526, 143.5125
412.4347, 146.4778
412.9168, 149.7462
413.3990, 151.9738
413.8811, 151.9370
414.3632, 150.0839
414.8453, 147.6776
415.3274, 143.9055
415.8095, 141.6141
416.2917, 143.5704
416.7738, 147.5653
417.2559, 150.8513
417.7380, 152.7632
418.2201, 153.8172
418.7022, 154.1775
419.1844, 153.9449
419.6665, 154.2001
420.1486, 155.6570
420.6307, 157.1906
421.1128, 156.9757
421.5949, 155.0063
422.0771, 154.0112
422.5592, 155.8699
423.0413, 158.8654
423.5234, 160.4444
424.0055, 160.3255
424.4876, 160.3815
424.9698, 162.3155
425.4519, 165.6734
425.9340, 167.4787
426.4161, 166.4059
426.8982, 165.2367
427.3803, 165.2222
427.8625, 166.0103
428.3446, 166.8898
428.8267, 167.6052
429.3088, 168.2388
429.7909, 168.8994
430.2730, 169.4303
430.7552, 170.4221
431.2373, 172.1898
431.7194, 174.1822
432.2015, 175.9672
432.6836, 177.5592
433.1657, 179.3491
433.6479, 181.7307
434.1300, 184.5944
434.6121, 186.4985
435.0942, 186.4581
435.5763, 186.5722
436.0584, 187.0533
436.5406, 187.9066
437.0227, 189.2916
437.5048, 191.2154
437.9869, 193.1833
438.4690, 194.3736
438.9511, 194.5283
439.4333, 194.7363
439.9154, 194.5815
440.3975, 194.8866
440.8796, 196.3406
441.3617, 198.6086
441.8438, 200.7671
442.3260, 202.1592
442.8081, 203.0279
443.2902, 204.2276
443.7723, 206.0875
444.2544, 207.4558
444.7365, 207.3705
445.2187, 206.9191
445.7008, 207.0355
446.1829, 207.9073
446.6650, 209.2176
447.1471, 210.6355
447.6292, 212.2226
448.1114, 214.5983
448.5935, 218.4762
449.0756, 221.8936
449.5577, 222.8947
450.0398, 222.0784
450.5219, 221.0063
451.0041, 219.2168
451.4862, 217.9772
451.9683, 219.3026
452.4504, 222.7225
452.9325, 224.8693
453.4146, 223.8806
453.8968, 221.1852
454.3789, 219.8742
454.8610, 220.1384
455.3431, 220.7545
455.8252, 222.6110
456.3073, 224.0518
456.7895, 222.7872
457.2716, 218.7298
457.7537, 214.1705
458.2358, 211.0270
458.7179, 209.2969
459.2000, 207.8100
459.6822, 207.2870
460.1643, 206.1428
460.6464, 203.5983
461.1285, 200.2737
461.6106, 196.8710
462.0927, 193.6858
462.5748, 190.9583
463.0569, 189.2604
463.5391, 189.3558
464.0212, 188.4162
464.5033, 185.9217
464.9854, 182.9560
465.4675, 179.5477
465.9496, 176.0649
466.4318, 173.2646
466.9139, 171.7735
467.3960, 171.1281
467.8781, 169.7758
468.3602, 167.3088
468.8423, 165.1901
469.3245, 163.9175
469.8066, 163.1035
470.2887, 162.6559
470.7708, 162.5359
471.2529, 162.2216
471.7350, 160.8263
472.2172, 158.8322
472.6993, 158.3011
473.1814, 159.8351
473.6635, 161.5859
474.1456, 162.2945
474.6277, 162.2440
475.1099, 161.9820
475.5920, 161.5074
476.0741, 160.9494
476.5562, 160.5549
477.0383, 160.1657
477.5204, 158.9009
478.0026, 156.1385
478.4847, 153.8007
478.9668, 155.2865
479.4489, 162.0175
479.9310, 165.3526
480.4131, 161.6363
480.8953, 157.0745
481.3774, 155.9185
481.8595, 157.6739
482.3416, 159.8904
482.8237, 161.2127
483.3058, 161.6994
483.7880, 161.5185
484.2701, 159.4783
484.7522, 158.5139
485.2343, 159.9530
485.7164, 161.5743
486.1985, 161.4774
486.6807, 159.6343
487.1628, 157.4850
487.6449, 156.3757
488.1270, 156.1952
488.6091, 155.3038
489.0912, 153.1360
489.5734, 151.1431
490.0555, 149.6569
490.5376, 148.5975
491.0197, 147.8440
491.5018, 147.3533
491.9839, 147.3198
492.4661, 148.7171
492.9482, 151.1884
493.4303, 151.0994
493.9124, 146.6763
494.3945, 142.0712
494.8766, 141.3147
495.3588, 143.0702
495.8409, 143.8673
496.3230, 142.4139
496.8051, 140.1370
497.2872, 138.0659
497.7693, 136.1505
498.2515, 134.0061
498.7336, 131.2814
499.2157, 128.9063
499.6978, 128.5195
500.1799, 130.7147
500.6620, 132.6685
501.1442, 134.9413
501.6263, 136.3220
502.1084, 135.3090
502.5905, 132.5601
503.0726, 130.1392
503.5547, 129.3006
504.0369, 129.7254
504.5190, 130.3677
505.0011, 132.0134
505.4832, 132.5742
505.9653, 130.5852
506.4474, 128.5962
506.9296, 128.8040
507.4117, 131.0507
507.8938, 133.4188
508.3759, 134.4309
508.8580, 134.2084
509.3401, 133.2464
509.8223, 130.8962
510.3044, 129.2337
510.7865, 129.7742
511.2686, 130.9507
511.7507, 130.8855
512.2328, 129.1056
512.7150, 128.1245
513.1971, 131.3891
513.6792, 136.9089
514.1613, 138.1936
514.6434, 133.6519
515.1255, 128.8586
515.6077, 128.0997
516.0898, 130.6136
516.5719, 132.5780
517.0540, 134.4607
517.5361, 135.0667
518.0182, 132.5972
518.5004, 128.8227
518.9825, 126.9840
519.4646, 127.9352
519.9467, 129.7244
520.4288, 129.9677
520.9109, 128.3103
521.3931, 127.4912
521.8752, 128.2508
522.3573, 128.8892
522.8394, 128.6894
523.3215, 128.0232
523.8036, 127.3162
524.2858, 126.7607
524.7679, 126.6996
525.2500, 128.0213
525.7321, 131.2274
526.2142, 133.2673
526.6964, 133.4093
527.1785, 132.8816
527.6606, 131.7699
528.1427, 130.4789
528.6248, 129.8192
529.1069, 130.2063
529.5891, 131.2442
530.0712, 132.5619
530.5533, 134.1392
531.0354, 135.7210
531.5175, 137.4910
531.9996, 138.8399
532.4818, 138.4295
532.9639, 136.4332
533.4460, 135.7278
533.9281, 137.9142
534.4102, 140.7446
534.8923, 142.6326
535.3745, 143.6665
535.8566, 144.4704
536.3387, 145.3352
536.8208, 146.0821
537.3029, 146.2405
537.7850, 144.7610
538.2672, 144.9866
538.7493, 149.0354
539.2314, 152.7374
539.7135, 152.6760
540.1956, 150.2313
540.6777, 149.6194
541.1599, 153.6428
541.6420, 160.0121
542.1241, 162.5656
542.6062, 159.8597
543.0883, 158.0204
543.5704, 159.0284
544.0526, 160.5302
544.5347, 161.3357
545.0168, 161.3776
545.4989, 160.7872
545.9810, 158.8774
546.4631, 156.7997
546.9453, 156.7384
547.4274, 158.6283
547.9095, 160.0537
548.3916, 159.7864
548.8737, 158.8528
549.3558, 159.2123
549.8380, 161.0773
550.3201, 162.4776
550.8022, 162.7214
551.2843, 162.6072
551.7664, 162.9481
552.2485, 163.5632
552.7307, 163.6718
553.2128, 162.8245
553.6949, 161.1946
554.1770, 159.1862
554.6591, 156.0405
555.1412, 153.9202
555.6234, 153.9849
556.1055, 153.9742
556.5876, 152.0338
557.0697, 148.7392
557.5518, 146.2468
558.0339, 146.1833
558.5161, 147.2552
558.9982, 146.1736
559.4803, 142.4699
559.9624, 139.4413
560.4445, 137.8224
560.9266, 137.4262
561.4088, 138.4704
561.8909, 140.7763
562.3730, 142.3516
562.8551, 141.7877
563.3372, 140.6136
563.8193, 140.5088
564.3015, 141.3163
564.7836, 142.0550
565.2657, 142.3360
565.7478, 142.1983
566.2299, 141.6819
566.7120, 140.6058
567.1942, 139.5607
567.6763, 138.7779
568.1584, 137.8194
568.6405, 136.1457
569.1226, 134.1125
569.6047, 132.3995
570.0869, 131.3502
570.5690, 131.0305
571.0511, 131.7456
571.5332, 133.8324
572.0153, 135.7041
572.4974, 137.6938
572.9796, 138.9001
573.4617, 138.6142
573.9438, 137.1890
574.4259, 135.3849
574.9080, 132.7218
575.3901, 130.9783
575.8723, 133.4971
576.3544, 139.2693
576.8365, 142.1646
577.3186, 139.8030
577.8007, 136.2103
578.2828, 136.0271
578.7650, 139.4911
579.2471, 142.2083
579.7292, 143.8750
580.2113, 144.9732
580.6934, 145.5688
581.1755, 145.8018
581.6577, 145.7986
582.1398, 145.6214
582.6219, 145.4905
583.1040, 145.9237
583.5861, 147.2126
584.0682, 146.7304
584.5504, 142.9949
585.0325, 139.1859
585.5146, 136.3624
585.9967, 133.9803
586.4788, 131.1539
586.9609, 127.5828
587.4431, 124.3366
587.9252, 122.9097
588.4073, 122.7126
588.8894, 121.2733
589.3715, 118.0874
589.8536, 114.8526
590.3358, 112.6349
590.8179, 111.2490
591.3000, 109.8880
591.7821, 108.1501
592.2642, 107.1219
592.7463, 107.7559
593.2285, 108.9257
593.7106, 109.2568
594.1927, 108.7058
594.6748, 108.3044
595.1569, 108.9712
595.6390, 110.3350
596.1212, 110.2526
596.6033, 106.8572
597.0854, 105.3160
597.5675, 107.4508
598.0496, 110.4569
598.5317, 112.5255
599.0139, 113.5546
599.4960, 114.2351
599.9781, 114.8744
600.4602, 115.5262
600.9423, 116.2070
601.4244, 116.9126
601.9066, 118.1420
602.3887, 120.4366
602.8708, 122.7991
603.3529, 123.6786
603.8350, 123.0966
604.3171, 122.6350
604.7993, 122.3875
605.2814, 122.4393
605.7635, 122.5938
606.2456, 123.1230
606.7277, 124.9657
607.2098, 128.4212
607.6920, 131.9852
608.1741, 133.1237
608.6562, 131.1594
609.1383, 130.4859
609.6204, 132.3088
610.1025, 134.0762
610.5847, 134.8130
611.0668, 135.1028
611.5489, 135.8902
612.0310, 137.4754
612.5131, 138.8625
612.9952, 138.8879
613.4774, 137.9759
613.9595, 137.4448
614.4416, 137.4143
614.9237, 137.8143
615.4058, 138.8840
615.8879, 140.2473
616.3701, 140.7257
616.8522, 140.2232
617.3343, 139.1745
617.8164, 136.8393
618.2985, 134.5854
618.7806, 134.1436
619.2628, 135.0743
619.7449, 135.3282
620.2270, 133.5509
620.7091, 130.3848
621.1912, 127.4278
621.6733, 124.2224
622.1555, 122.6185
622.6376, 124.3717
623.1197, 126.3927
623.6018, 127.3886
624.0839, 127.2918
624.5660, 126.0217
625.0482, 122.9497
625.5303, 119.6616
626.0124, 117.8703
626.4945, 117.2218
626.9766, 116.6984
627.4587, 116.1295
627.9409, 115.0066
628.4230, 112.4253
628.9051, 108.4579
629.3872, 106.8304
629.8693, 109.6280
630.3514, 111.7432
630.8336, 111.8357
631.3157, 110.8960
631.7978, 109.8657
632.2799, 108.9331
632.7620, 107.8055
633.2441, 106.0241
633.7263, 103.9791
634.2084, 103.5487
634.6905, 105.3212
635.1726, 106.3252
635.6547, 105.0082
636.1368, 103.1716
636.6190, 102.7530
637.1011, 103.6551
637.5832, 104.3328
638.0653, 104.1105
638.5474, 103.6537
639.0295, 103.4729
639.5117, 103.5012
639.9938, 103.6184
640.4759, 103.7846
640.9580, 103.7073
641.4401, 102.8557
641.9222, 101.0173
642.4044, 100.4045
642.8865, 102.6770
643.3686, 104.2423
643.8507, 103.8803
644.3328, 102.6949
644.8149, 101.7810
645.2971, 101.3781
645.7792, 101.2497
646.2613, 101.3654
646.7434, 101.5854
647.2255, 101.5155
647.7076, 101.1380
648.1898, 100.7781
648.6719, 100.5363
649.1540, 100.4389
649.6361, 100.6177
650.1182, 101.1970
650.6003, 101.4036
651.0825, 100.5326
651.5646, 99.91301
652.0467, 100.6170
652.5288, 102.0369
653.0109, 103.2157
653.4930, 103.7636
653.9752, 103.5024
654.4573, 101.6165
654.9394, 98.01496
655.4215, 96.88940
655.9036, 99.64637
656.3857, 102.1053
656.8679, 101.9130
657.3500, 100.6197
657.8321, 99.82732
658.3142, 99.70968
658.7963, 99.88168
659.2784, 100.6635
659.7606, 101.3179
660.2427, 100.7673
660.7248, 99.25449
661.2069, 97.95804
661.6890, 97.44032
662.1711, 97.36052
662.6533, 97.07833
663.1354, 96.41343
663.6175, 96.18255
664.0996, 96.33168
664.5817, 96.99006
665.0638, 99.52263
665.5460, 102.0515
666.0281, 101.5816
666.5102, 97.27940
666.9923, 92.62524
667.4744, 90.48648
667.9565, 90.22282
668.4387, 90.59538
668.9208, 91.53756
669.4029, 91.99444
669.8850, 91.31524
670.3671, 89.97152
670.8492, 88.85734
671.3314, 87.76492
671.8135, 87.52496
672.2956, 88.91434
672.7777, 90.39703
673.2598, 91.43186
673.7419, 91.91161
674.2241, 91.60847
674.7062, 90.46383
675.1883, 89.18893
675.6704, 88.90347
676.1525, 89.43444
676.6346, 88.86918
677.1168, 86.76372
677.5989, 84.87743
678.0810, 83.82949
678.5631, 83.69250
679.0452, 84.70630
679.5273, 87.17683
680.0095, 89.19076
680.4916, 90.39693
680.9737, 90.87693
681.4558, 90.60472
681.9379, 89.66297
682.4200, 87.95257
682.9022, 85.46970
683.3843, 83.08061
683.8664, 82.07265
684.3485, 82.53060
684.8306, 83.21719
685.3127, 84.36453
685.7949, 85.32079
686.2770, 86.22856
686.7591, 86.58260
687.2412, 85.33118
687.7233, 82.24133
688.2054, 80.08167
688.6876, 80.70263
689.1697, 82.36722
689.6518, 83.27039
690.1339, 83.60617
690.6160, 84.51862
691.0981, 86.49110
691.5803, 88.38233
692.0624, 88.45535
692.5445, 86.42561
693.0266, 84.94802
693.5087, 84.13059
693.9908, 83.76295
694.4730, 83.87727
694.9551, 84.32718
695.4372, 85.00919
695.9193, 85.89617
696.4014, 86.89754
696.8835, 88.85434
697.3657, 90.33710
697.8478, 88.22778
698.3299, 83.54160
698.8120, 81.85159
699.2941, 85.39392
699.7762, 89.91577
700.2584, 89.74909
700.7405, 84.35108
701.2226, 81.13926
701.7047, 81.48223
702.1868, 82.41285
702.6689, 84.15172
703.1511, 85.77934
703.6332, 86.30883
704.1153, 85.77106
704.5974, 85.14339
705.0795, 84.93484
705.5616, 85.10253
706.0438, 85.96987
706.5259, 87.31570
707.0080, 87.43957
707.4901, 85.62173
707.9722, 83.76669
708.4543, 83.93507
708.9365, 86.07928
709.4186, 87.73293
709.9007, 89.08870
710.3828, 89.73850
710.8649, 88.96435
711.3470, 87.94920
711.8292, 87.80069
712.3113, 88.39884
712.7934, 88.82144
713.2755, 88.44802
713.7576, 87.77859
714.2397, 87.58619
714.7219, 87.81070
715.2040, 88.12875
715.6861, 88.57484
716.1682, 88.57626
716.6503, 87.45354
717.1324, 85.50153
717.6146, 84.37743
718.0967, 84.58129
718.5788, 84.84166
719.0609, 85.15785
719.5430, 85.40830
720.0251, 85.57281
720.5073, 85.59431
720.9894, 85.26499
721.4715, 84.41967
721.9536, 83.64713
722.4357, 83.87389
722.9178, 84.91985
723.4000, 85.58503
723.8821, 85.63322
724.3642, 86.24325
724.8463, 88.73142
725.3284, 91.77503
725.8105, 91.74255
726.2927, 87.02799
726.7748, 83.37401
727.2569, 80.90367
727.7390, 79.72588
728.2211, 80.63281
728.7032, 82.64785
729.1854, 84.32559
729.6675, 85.17416
730.1496, 85.48144
730.6317, 85.37064
731.1138, 84.95795
731.5959, 84.79997
732.0781, 84.95531
732.5602, 84.47761
733.0423, 82.56657
733.5244, 80.56114
734.0065, 80.64265
734.4886, 83.36108
734.9708, 84.79787
735.4529, 83.21627
735.9350, 82.43462
736.4171, 84.98354
736.8992, 88.30228
737.3813, 89.31321
737.8635, 87.74477
738.3456, 85.75426
738.8277, 84.75118
739.3098, 84.54031
739.7919, 84.99229
740.2740, 86.03883
740.7562, 86.60885
741.2383, 86.41318
741.7204, 85.73408
742.2025, 84.52625
742.6846, 82.95081
743.1667, 82.79916
743.6489, 85.34011
744.1310, 87.40931
744.6131, 88.76901
745.0952, 89.45314
745.5773, 89.34105
746.0594, 88.57764
746.5416, 87.32368
747.0237, 85.50096
747.5058, 84.00167
747.9879, 84.38953
748.4700, 86.05641
748.9521, 86.43555
749.4343, 85.17934
749.9164, 84.61765
750.3985, 86.39046
750.8806, 89.24673
751.3627, 90.25841
751.8448, 88.23475
752.3270, 87.43497
752.8091, 89.62115
753.2912, 90.95806
753.7733, 89.03083
754.2554, 85.77467
754.7375, 83.82218
755.2197, 83.73844
755.7018, 84.14736
756.1839, 84.00831
756.6660, 83.72681
757.1481, 84.00927
757.6302, 84.79168
758.1124, 85.83017
758.5945, 87.11735
759.0766, 87.93434
759.5587, 87.29897
760.0408, 85.26534
760.5229, 84.29134
761.0051, 85.37902
761.4872, 86.02631
761.9693, 85.30299
762.4514, 84.55887
762.9335, 84.87793
763.4156, 86.03930
763.8978, 87.12096
764.3799, 87.90697
764.8620, 88.23579
765.3441, 87.49955
765.8262, 86.38345
766.3083, 86.55994
766.7905, 87.96391
767.2726, 88.34980
767.7547, 86.17939
768.2368, 82.95530
768.7189, 82.47043
769.2010, 85.86912
769.6832, 87.64462
770.1653, 86.40298
770.6474, 85.45602
771.1295, 86.85229
771.6116, 89.00219
772.0938, 89.88264
772.5759, 89.22063
773.0580, 88.23958
773.5401, 86.56804
774.0222, 85.52590
774.5043, 87.28005
774.9865, 90.17789
775.4686, 90.35181
775.9507, 87.08968
776.4328, 84.10072
776.9149, 85.31058
777.3970, 89.58569
777.8792, 91.70408
778.3613, 91.37185
778.8434, 90.49444
779.3255, 89.22549
779.8076, 87.89940
780.2897, 86.39870
780.7719, 85.02990
781.2540, 85.17631
781.7361, 88.08752
782.2182, 90.59351
782.7003, 92.33438
783.1824, 93.04088
783.6646, 91.71744
784.1467, 89.25204
784.6288, 87.68741
785.1109, 87.90569
785.5930, 88.98050
786.0751, 90.56462
786.5573, 92.10953
787.0394, 90.47961
787.5215, 85.37463
788.0036, 82.26934
788.4857, 83.99245
788.9678, 87.65353
789.4500, 89.01933
789.9321, 87.68027
790.4142, 87.34473
790.8963, 89.15568
791.3784, 90.44803
791.8605, 90.01672
792.3427, 89.33448
792.8248, 89.89725
793.3069, 91.54076
793.7890, 92.87424
794.2711, 93.11877
794.7532, 93.01649
795.2354, 93.64270
795.7175, 94.36121
796.1996, 93.34703
796.6817, 90.60607
797.1638, 88.37968
797.6459, 88.03941
798.1281, 89.06388
798.6102, 90.42709
799.0923, 92.32687
799.5744, 93.79574
800.0565, 95.21169
800.5386, 95.60102
801.0208, 93.33163
801.5029, 90.46315
801.9850, 89.55653
802.4671, 90.81895
802.9492, 91.85144
803.4313, 91.99063
803.9135, 91.69605
804.3956, 90.96693
804.8777, 90.11361
805.3598, 89.43995
805.8419, 89.07126
806.3240, 89.18076
806.8062, 89.95656
807.2883, 91.17121
807.7704, 92.62886
808.2525, 94.27976
808.7346, 94.60831
809.2167, 93.11763
809.6989, 91.50859
810.1810, 90.79691
810.6631, 90.84875
811.1452, 91.40354
811.6273, 93.13455
812.1094, 93.78659
812.5916, 92.58810
813.0737, 91.20332
813.5558, 90.07238
814.0379, 89.27773
814.5200, 88.88435
815.0021, 88.89711
815.4843, 89.23926
815.9664, 90.10372
816.4485, 91.08317
816.9306, 92.05929
817.4127, 92.72664
817.8948, 91.91186
818.3770, 89.52016
818.8591, 87.31929
819.3412, 86.66685
819.8233, 87.43608
820.3054, 89.64233
820.7875, 94.01756
821.2697, 96.43965
821.7518, 95.57291
822.2339, 94.40711
822.7160, 94.92723
823.1981, 96.11744
823.6802, 96.04784
824.1624, 94.34291
824.6445, 92.98339
825.1266, 92.66965
825.6087, 92.47156
826.0908, 91.36674
826.5729, 90.31133
827.0551, 91.19138
827.5372, 93.93137
828.0193, 95.97849
828.5014, 95.25498
828.9835, 93.02068
829.4656, 90.77501
829.9478, 88.78724
830.4299, 88.70044
830.9120, 90.84837
831.3941, 93.20670
831.8762, 94.47542
832.3583, 94.80466
832.8404, 94.54721
833.3225, 93.44301
833.8046, 92.47288
834.2867, 91.28722
834.7689, 90.71769
835.2510, 91.58170
835.7331, 92.87638
836.2152, 93.49217
836.6973, 93.33309
837.1794, 92.84190
837.6616, 91.43812
838.1437, 90.53356
838.6258, 91.45103
839.1079, 93.14391
839.5900, 94.51378
840.0721, 95.21243
840.5543, 94.77859
841.0364, 92.74313
841.5185, 90.24139
842.0006, 89.17784
842.4827, 89.39438
842.9648, 90.08339
843.4470, 91.24162
843.9291, 91.90610
844.4112, 91.46886
844.8933, 90.54843
845.3754, 90.18511
845.8575, 90.48177
846.3397, 90.68114
846.8218, 90.46905
847.3039, 90.59330
847.7860, 91.84680
848.2681, 92.96854
848.7502, 92.44415
849.2324, 90.74962
849.7145, 90.10656
850.1966, 91.68905
850.6787, 93.52422
851.1608, 95.03030
851.6429, 95.81865
852.1251, 95.14083
852.6072, 93.35047
853.0893, 91.28561
853.5714, 89.34345
854.0535, 88.18501
854.5356, 89.28682
855.0178, 91.92966
855.4999, 92.36617
855.9820, 90.51934
856.4641, 89.83732
856.9462, 91.55595
857.4283, 93.95016
857.9105, 95.48976
858.3926, 96.17388
858.8747, 95.99160
859.3568, 94.30186
859.8389, 92.86579
860.3210, 91.26929
860.8032, 90.46115
861.2853, 91.73475
861.7674, 93.80666
862.2495, 94.46763
862.7316, 93.23235
863.2137, 91.73452
863.6959, 89.45885
864.1780, 88.34412
864.6601, 91.49704
865.1422, 96.19334
865.6243, 97.38211
866.1064, 94.62296
866.5886, 91.90978
867.0707, 92.25145
867.5528, 94.07182
868.0349, 94.37466
868.5170, 93.47858
868.9991, 93.65477
869.4813, 95.24133
869.9634, 96.16075
870.4455, 95.16599
870.9276, 93.13615
871.4097, 91.53990
871.8918, 90.24490
872.3740, 90.40858
872.8561, 93.93043
873.3382, 95.82895
873.8203, 93.41663
874.3024, 89.97944
874.7845, 87.60517
875.2667, 86.37394
875.7488, 86.33851
876.2309, 88.31287
876.7130, 90.10941
877.1951, 90.86513
877.6772, 91.20972
878.1594, 91.33864
878.6415, 91.55369
879.1236, 92.73769
879.6057, 95.05972
880.0878, 96.55948
880.5699, 94.69872
881.0521, 91.21298
881.5342, 88.76023
882.0163, 87.45408
882.4984, 88.16586
882.9805, 91.01424
883.4626, 93.94480
883.9448, 95.42764
884.4269, 95.58261
884.9090, 94.51602
885.3911, 91.90440
885.8732, 89.86553
886.3553, 88.39957
886.8375, 87.78745
887.3196, 88.64290
887.8017, 90.02048
888.2838, 90.48579
888.7659, 89.95699
889.2480, 89.54823
889.7302, 88.86992
890.2123, 88.86819
890.6944, 90.72762
891.1765, 92.54810
891.6586, 92.74013
892.1407, 91.57080
892.6229, 89.91254
893.1050, 87.79301
893.5871, 86.50614
894.0692, 87.58410
894.5513, 89.44254
895.0334, 90.13465
895.5156, 90.08887
895.9977, 90.84030
896.4798, 92.67227
896.9619, 94.07150
897.4440, 93.59606
897.9261, 91.90104
898.4083, 90.38054
898.8904, 89.06824
899.3725, 88.38713
899.8546, 88.42768
900.3367, 88.85059
900.8188, 89.55415
901.3010, 90.28630
901.7831, 90.50122
902.2652, 90.05008
902.7473, 90.05740
903.2294, 90.89155
903.7115, 91.53423
904.1937, 91.54868
904.6758, 91.41660
905.1579, 91.96255
905.6400, 92.78336
906.1221, 92.07337
906.6042, 88.18712
907.0864, 85.42843
907.5685, 85.08884
908.0506, 85.99912
908.5327, 88.08973
909.0148, 90.58113
909.4969, 92.63029
909.9791, 93.95617
910.4612, 94.25171
910.9433, 92.42712
911.4254, 90.34481
911.9075, 89.98029
912.3896, 90.82695
912.8718, 92.31234
913.3539, 94.05063
913.8360, 94.86317
914.3181, 94.04390
914.8002, 92.58726
915.2823, 92.00596
915.7645, 92.21190
916.2466, 92.54614
916.7287, 92.99821
917.2108, 93.59905
917.6929, 94.34374
918.1750, 95.37267
918.6572, 97.02856
919.1393, 99.02225
919.6214, 99.57474
920.1035, 97.77982
920.5856, 96.76460
921.0677, 97.06288
921.5499, 97.67257
922.0320, 98.84427
922.5141, 99.67379
922.9962, 98.50118
923.4783, 95.11858
923.9604, 92.92922
924.4426, 92.48183
924.9247, 93.17237
925.4068, 96.24574
925.8889, 99.18315
926.3710, 99.48418
926.8531, 97.80895
927.3353, 96.11992
927.8174, 94.95564
928.2995, 94.72395
928.7816, 96.36136
929.2637, 98.52789
929.7458, 100.1449
930.2280, 101.0390
930.7101, 100.6833
931.1922, 99.21081
931.6743, 97.96801
932.1564, 97.98391
932.6385, 98.62114
933.1207, 98.87776
933.6028, 98.79659
934.0849, 98.37862
934.5670, 97.66698
935.0491, 97.59915
935.5313, 98.64517
936.0134, 99.85049
936.4955, 99.91099
936.9776, 99.01986
937.4597, 99.31042
937.9418, 101.3226
938.4240, 102.0776
938.9061, 100.3552
939.3882, 98.97081
939.8703, 100.1634
940.3524, 102.5851
940.8345, 103.1352
941.3167, 101.0104
941.7988, 100.0643
942.2809, 101.4472
942.7630, 102.4437
943.2451, 101.6065
943.7272, 100.8195
944.2094, 101.8496
944.6915, 104.2819
945.1736, 106.5475
945.6557, 108.5102
946.1378, 109.7657
946.6199, 109.5203
947.1021, 109.1714
947.5842, 110.1993
948.0663, 111.5281
948.5484, 111.0654
949.0305, 108.8333
949.5126, 107.3926
949.9948, 108.4553
950.4769, 110.4147
950.9590, 112.1960
951.4411, 113.5737
951.9232, 113.9152
952.4053, 113.4952
952.8875, 113.2877
953.3696, 113.6792
953.8517, 114.5136
954.3338, 115.6740
954.8159, 117.1131
955.2980, 118.9556
955.7802, 121.0506
956.2623, 122.2440
956.7444, 122.3352
957.2265, 122.2937
957.7086, 122.7346
958.1907, 123.1810
958.6729, 122.5580
959.1550, 120.8081
959.6371, 120.5899
960.1192, 122.2950
960.6013, 123.9501
961.0834, 125.1779
961.5656, 125.9747
962.0477, 126.2184
962.5298, 126.0774
963.0119, 126.2028
963.4940, 127.1785
963.9761, 126.9159
964.4583, 123.8578
964.9404, 121.6329
965.4225, 122.1781
965.9046, 123.3772
966.3867, 123.2927
966.8688, 122.0402
967.3510, 120.6783
967.8331, 119.2627
968.3152, 117.8812
968.7973, 116.0721
969.2794, 114.8211
969.7615, 115.3245
970.2437, 116.4559
970.7258, 116.3113
971.2079, 114.8130
971.6900, 114.1705
972.1721, 116.2466
972.6542, 118.2862
973.1364, 118.7273
973.6185, 118.0918
974.1006, 116.2218
974.5827, 113.9271
975.0648, 113.0696
975.5469, 114.1584
976.0291, 115.3932
976.5112, 115.1609
976.9933, 114.3532
977.4754, 113.8895
977.9575, 113.8804
978.4396, 115.0249
978.9218, 117.0309
979.4039, 118.0965
979.8860, 117.3150
980.3681, 115.6832
980.8502, 114.1296
981.3323, 112.8839
981.8145, 112.9602
982.2966, 114.2292
982.7787, 115.8587
983.2608, 117.6658
983.7429, 118.6576
984.2250, 117.9464
984.7072, 116.9123
985.1893, 118.9016
985.6714, 119.7684
986.1535, 120.7738
986.6356, 124.6426
987.1177, 124.6662
987.5999, 128.2906
988.0820, 132.4431
988.5641, 134.4499
989.0462, 134.9377
989.5283, 135.9918
990.0104, 137.6257
990.4926, 139.8425
990.9747, 143.0583
991.4568, 145.9987
991.9389, 147.6225
992.4210, 149.5087
992.9031, 153.9956
993.3853, 160.4089
993.8674, 164.1322
994.3495, 162.6204
994.8316, 162.7400
995.3137, 165.0562
995.7958, 168.4887
996.2780, 172.8740
996.7601, 177.9566
997.2422, 183.8011
997.7243, 190.2388
998.2064, 196.1604
998.6885, 201.0336
999.1707, 205.8420
999.6528, 209.5760
1000.135, 214.6261
1000.617, 223.3369
1001.099, 233.9063
1001.581, 243.9926
1002.063, 253.1796
1002.545, 261.1280
1003.028, 265.8729
1003.510, 272.0392
1003.992, 283.1740
1004.474, 295.9846
1004.956, 307.0168
1005.438, 317.3404
1005.920, 330.2734
1006.402, 346.2823
1006.885, 361.6366
1007.367, 373.1978
1007.849, 383.9923
1008.331, 397.7798
1008.813, 411.9258
1009.295, 422.7659
1009.777, 430.4597
1010.259, 436.4318
1010.741, 441.3382
1011.224, 446.7246
1011.706, 454.5466
1012.188, 462.9640
1012.670, 469.3697
1013.152, 474.1927
1013.634, 478.5521
1014.116, 482.4276
1014.598, 484.6079
1015.081, 484.6194
1015.563, 484.9877
1016.045, 489.6352
1016.527, 495.8066
1017.009, 496.6805
1017.491, 492.8416
1017.973, 487.0290
1018.455, 479.6456
1018.937, 469.6841
1019.420, 456.4883
1019.902, 441.9229
1020.384, 428.7943
1020.866, 412.1294
1021.348, 399.3419
1021.830, 378.1817
1022.312, 358.3166
1022.794, 340.5804
1023.276, 324.5687
1023.759, 310.1593
1024.241, 296.3348
1024.723, 281.2822
1025.205, 265.1312
1025.687, 250.4476
1026.169, 237.2383
1026.651, 225.3760
1027.133, 214.7547
1027.616, 205.9730
1028.098, 199.6584
1028.580, 194.8295
1029.062, 189.8791
1029.544, 184.7846
1030.026, 179.8141
1030.508, 175.0985
1030.990, 169.8275
1031.473, 163.1703
1031.955, 157.6151
1032.437, 155.1034
1032.919, 154.1933
1033.401, 152.0362
1033.883, 148.4125
1034.365, 145.9190
1034.847, 145.5706
1035.329, 143.9695
1035.812, 139.2997
1036.294, 135.1242
1036.776, 133.9437
1037.258, 134.5767
1037.740, 134.8318
1038.222, 134.7052
1038.704, 134.2409
1039.186, 133.9966
1039.668, 132.4733
1040.151, 127.9802
1040.633, 123.7823
1041.115, 122.2324
1041.597, 122.2321
1042.079, 121.7905
1042.561, 120.8852
1043.043, 119.6897
1043.525, 116.6222
1044.008, 115.5281
1044.490, 119.8198
1044.972, 123.4168
1045.454, 121.6657
1045.936, 117.0521
1046.418, 114.1248
1046.900, 113.3269
1047.382, 112.5729
1047.865, 111.3186
1048.347, 110.5372
1048.829, 110.7504
1049.311, 111.1955
1049.793, 111.4431
1050.275, 111.5547
1050.757, 111.6077
1051.239, 111.5970
1051.721, 111.8892
1052.203, 113.5565
1052.686, 114.1399
1053.168, 112.2997
1053.650, 109.7983
1054.132, 107.3142
1054.614, 105.2374
1055.096, 103.7542
1055.578, 102.9262
1056.060, 103.9745
1056.543, 109.6786
1057.025, 113.8890
1057.507, 113.3583
1057.989, 111.9862
1058.471, 113.2171
1058.953, 115.1630
1059.435, 113.8607
1059.917, 109.0990
1060.400, 106.3255
1060.882, 108.6396
1061.364, 111.3419
1061.846, 113.7000
1062.328, 114.9202
1062.810, 113.5063
1063.292, 111.0465
1063.774, 109.8173
1064.256, 110.0981
1064.739, 110.9503
1065.221, 112.5861
1065.703, 113.8279
1066.185, 114.3192
1066.667, 114.1171
1067.149, 112.3382
1067.631, 110.4162
1068.113, 110.6208
1068.595, 112.8787
1069.078, 114.8569
1069.560, 115.7952
1070.042, 116.2408
1070.524, 115.9757
1071.006, 115.8020
1071.488, 116.9052
1071.970, 118.0644
1072.452, 117.3812
1072.935, 115.0404
1073.417, 112.8730
1073.899, 111.2051
1074.381, 110.6507
1074.863, 112.8091
1075.345, 114.7535
1075.827, 113.7782
1076.309, 111.9326
1076.792, 111.7857
1077.274, 113.2848
1077.756, 115.1703
1078.238, 117.3692
1078.720, 118.4158
1079.202, 116.1147
1079.684, 114.1661
1080.166, 115.2528
1080.648, 117.6521
1081.130, 120.1847
1081.613, 122.1451
1082.095, 122.0561
1082.577, 119.1991
1083.059, 117.1548
1083.541, 117.9425
1084.023, 119.4376
1084.505, 120.8313
1084.987, 122.0156
1085.469, 123.1709
1085.952, 123.9971
1086.434, 123.8747
1086.916, 122.6576
1087.398, 120.6864
1087.880, 116.9525
1088.362, 113.9799
1088.844, 113.1775
1089.326, 113.4658
1089.809, 114.5808
1090.291, 115.8093
1090.773, 115.8322
1091.255, 114.5341
1091.737, 113.8539
1092.219, 115.2829
1092.701, 116.3499
1093.183, 115.4021
1093.666, 114.4741
1094.148, 115.7212
1094.630, 117.5568
1095.112, 116.9682
1095.594, 114.1730
1096.076, 113.2762
1096.558, 116.6451
1097.040, 119.6699
1097.522, 120.7094
1098.005, 121.1514
1098.487, 121.6936
1098.969, 122.1565
1099.451, 122.4016
1099.933, 122.3317
1100.415, 121.4424
1100.897, 118.7145
1101.379, 117.9075
1101.861, 122.5332
1102.344, 126.0758
1102.826, 124.7909
1103.308, 122.0019
1103.790, 120.0902
1104.272, 119.4096
1104.754, 120.5052
1105.236, 123.9115
1105.718, 126.6543
1106.201, 128.3347
1106.683, 129.1176
1107.165, 128.6613
1107.647, 127.7217
1108.129, 126.8407
1108.611, 125.8355
1109.093, 123.8814
1109.575, 120.7370
1110.057, 119.7491
1110.540, 124.4928
1111.022, 126.5391
1111.504, 121.5145
1111.986, 117.1428
1112.468, 118.0875
1112.950, 121.3307
1113.432, 123.0344
1113.914, 123.2344
1114.396, 123.2769
1114.879, 123.4255
1115.361, 122.9441
1115.843, 121.2259
1116.325, 119.7506
1116.807, 119.3125
1117.289, 119.0119
1117.771, 117.9267
1118.253, 116.2801
1118.736, 114.8949
1119.218, 113.6314
1119.700, 113.1037
1120.182, 113.4659
1120.664, 114.3092
1121.146, 115.9711
1121.628, 117.3293
1122.110, 117.5670
1122.593, 116.9501
1123.075, 115.8274
1123.557, 114.0795
1124.039, 114.0210
1124.521, 116.4179
1125.003, 117.6149
1125.485, 116.6584
1125.967, 115.6762
1126.449, 115.5942
1126.932, 116.5479
1127.414, 119.0874
1127.896, 122.6940
1128.378, 123.5468
1128.860, 121.2549
1129.342, 120.0780
1129.824, 120.4398
1130.306, 121.2137
1130.788, 122.0944
1131.271, 122.4000
1131.753, 121.2333
1132.235, 119.7073
1132.717, 121.5255
1133.199, 120.5367
1133.681, 120.5008
1134.163, 122.4225
1134.645, 121.5593
1135.128, 125.6069
1135.610, 129.5939
1136.092, 130.4380
1136.574, 129.2742
1137.056, 126.8597
1137.538, 124.2373
1138.020, 126.1144
1138.502, 131.0107
1138.984, 131.9560
1139.467, 128.6864
1139.949, 125.7362
1140.431, 124.9697
1140.913, 125.3185
1141.395, 126.1236
1141.877, 126.7876
1142.359, 125.9413
1142.841, 124.4284
1143.323, 124.2051
1143.806, 124.8794
1144.288, 124.9790
1144.770, 124.1740
1145.252, 122.9513
1145.734, 121.5370
1146.216, 120.1270
1146.698, 118.5282
1147.180, 117.3809
1147.663, 118.0899
1148.145, 119.3852
1148.627, 119.2750
1149.109, 117.7597
1149.591, 115.5341
1150.073, 112.7957
1150.555, 111.0635
1151.037, 112.3218
1151.520, 113.5347
1152.002, 112.3201
1152.484, 110.5471
1152.966, 109.7884
1153.448, 109.8791
1153.930, 110.8793
1154.412, 112.4319
1154.894, 111.8918
1155.376, 106.1370
1155.859, 102.7559
1156.341, 106.5841
1156.823, 110.2764
1157.305, 109.8441
1157.787, 107.6508
1158.269, 105.7864
1158.751, 104.4100
1159.233, 103.5115
1159.715, 103.1270
1160.198, 103.0406
1160.680, 103.7570
1161.162, 104.0078
1161.644, 103.6023
1162.126, 102.6359
1162.608, 100.8885
1163.090, 98.83287
1163.572, 97.12962
1164.055, 95.76406
1164.537, 94.65710
1165.019, 93.78975
1165.501, 93.18761
1165.983, 92.68803
1166.465, 93.16062
1166.947, 95.38083
1167.429, 97.22765
1167.911, 96.68563
1168.394, 94.66490
1168.876, 93.33684
1169.358, 92.70961
1169.840, 92.69629
1170.322, 93.29738
1170.804, 94.90992
1171.286, 97.62943
1171.768, 98.66760
1172.250, 96.47988
1172.733, 93.43002
1173.215, 92.39021
1173.697, 92.58973
1174.179, 92.11479
1174.661, 91.19433
1175.143, 90.48312
1175.625, 90.08651
1176.107, 90.21326
1176.590, 90.86431
1177.072, 91.73829
1177.554, 92.76524
1178.036, 93.22237
1178.518, 91.85588
1179.000, 89.81496
1179.482, 88.54885
1179.964, 87.72771
1180.447, 86.30169
1180.929, 84.74819
1181.411, 85.32115
1181.893, 88.57082
1182.375, 90.25208
1182.857, 86.30882
1183.339, 82.31870
1183.821, 80.91673
1184.303, 81.24552
1184.786, 83.89570
1185.268, 87.04101
1185.750, 88.06294
1186.232, 87.14687
1186.714, 86.67571
1187.196, 87.42944
1187.678, 87.64274
1188.160, 86.94413
1188.642, 85.76225
1189.125, 83.47028
1189.607, 81.53444
1190.089, 81.33944
1190.571, 81.87753
1191.053, 81.43633
1191.535, 80.02722
1192.017, 78.50195
1192.499, 76.32287
1192.982, 75.79430
1193.464, 77.58699
1193.946, 79.48720
1194.428, 80.92148
1194.910, 81.49006
1195.392, 80.78640
1195.874, 79.06896
1196.356, 76.36401
1196.839, 72.93047
1197.321, 73.33824
1197.803, 77.21779
1198.285, 78.93977
1198.767, 77.74027
1199.249, 76.38260
1199.731, 76.11255
1200.213, 76.23866
1200.695, 76.23869
1201.177, 75.86873
1201.660, 73.95054
1202.142, 71.78608
1202.624, 72.76441
1203.106, 71.60831
1203.588, 71.30105
1204.070, 72.76685
1204.552, 71.75352
1205.034, 74.49908
1205.517, 76.85255
1205.999, 75.39657
1206.481, 73.12660
1206.963, 71.16845
1207.445, 70.35632
1207.927, 73.02703
1208.409, 76.61716
1208.891, 75.81663
1209.374, 70.70845
1209.856, 68.25184
1210.338, 71.67873
1210.820, 74.22334
1211.302, 74.46232
1211.784, 74.15520
1212.266, 73.76917
1212.748, 73.14338
1213.230, 71.66821
1213.713, 70.21751
1214.195, 70.75978
1214.677, 73.32487
1215.159, 74.25082
1215.641, 73.02480
1216.123, 72.45665
1216.605, 72.91699
1217.087, 73.45569
1217.569, 73.80031
1218.052, 73.50723
1218.534, 72.03848
1219.016, 70.29054
1219.498, 70.33982
1219.980, 71.68520
1220.462, 71.96954
1220.944, 71.52144
1221.426, 71.86266
1221.909, 73.05327
1222.391, 74.39356
1222.873, 75.53754
1223.355, 75.80312
1223.837, 74.13485
1224.319, 72.64492
1224.801, 74.39553
1225.283, 73.18592
1225.766, 75.91084
1226.248, 73.90943
1226.730, 73.94131
1227.212, 75.48608
1227.694, 75.35665
1228.176, 72.52886
1228.658, 70.96967
1229.140, 73.94804
1229.622, 75.52405
1230.104, 71.73481
1230.587, 68.60635
1231.069, 70.84520
1231.551, 74.42624
1232.033, 74.45346
1232.515, 72.03499
1232.997, 71.50850
1233.479, 73.46926
1233.961, 74.11311
1234.444, 73.00761
1234.926, 72.27731
1235.408, 72.28372
1235.890, 72.78507
1236.372, 73.70654
1236.854, 74.87691
1237.336, 76.28220
1237.818, 77.38087
1238.301, 76.23717
1238.783, 73.68021
1239.265, 72.99184
1239.747, 73.87219
1240.229, 74.56992
1240.711, 74.86240
1241.193, 75.86387
1241.675, 78.02775
1242.157, 79.21078
1242.640, 76.60989
1243.122, 73.80492
1243.604, 74.43063
1244.086, 75.82497
1244.568, 75.21902
1245.050, 73.70097
1245.532, 73.18983
1246.014, 73.57422
1246.496, 73.53236
1246.979, 72.79553
1247.461, 71.67088
1247.943, 69.07273
1248.425, 67.82387
1248.907, 69.19316
1249.389, 71.00001
1249.871, 72.71961
1250.353, 73.65560
1250.836, 72.40929
1251.318, 70.23552
1251.800, 72.47312
1252.282, 79.69209
1252.764, 81.96166
1253.246, 79.18823
1253.728, 76.19695
1254.210, 73.89898
1254.693, 73.37418
1255.175, 75.08488
1255.657, 76.78083
1256.139, 76.21268
1256.621, 74.67820
1257.103, 74.10049
1257.585, 73.88165
1258.067, 72.73318
1258.549, 71.37487
1259.031, 71.22533
1259.514, 72.22955
1259.996, 73.90843
1260.478, 76.09863
1260.960, 76.76026
1261.442, 73.65150
1261.924, 70.87295
1262.406, 69.42744
1262.888, 69.14483
1263.371, 70.68940
1263.853, 72.70860
1264.335, 74.05634
1264.817, 74.78523
1265.299, 74.94569
1265.781, 74.48743
1266.263, 74.33224
1266.745, 74.53151
1267.228, 74.84412
1267.710, 75.30299
1268.192, 75.42995
1268.674, 75.07015
1269.156, 73.89148
1269.638, 71.41710
1270.120, 69.30653
1270.602, 70.94897
1271.084, 74.47644
1271.567, 75.77213
1272.049, 75.68485
1272.531, 76.09734
1273.013, 76.83318
1273.495, 76.75974
1273.977, 75.71150
1274.459, 74.52947
1274.941, 73.51595
1275.423, 72.66102
1275.906, 71.61749
1276.388, 71.16837
1276.870, 71.96235
1277.352, 73.21507
1277.834, 75.40487
1278.316, 76.94676
1278.798, 74.55067
1279.280, 69.20022
1279.763, 67.83395
1280.245, 71.54252
1280.727, 75.13205
1281.209, 79.05791
1281.691, 79.40612
1282.173, 75.05688
1282.655, 71.32729
1283.137, 70.91501
1283.620, 71.40721
1284.102, 69.98957
1284.584, 68.46903
1285.066, 69.53712
##END=



