##NAMES=Kurnakovite
##RRUFFID=R050105
##IDEAL CHEMISTRY=MgB_3_O_3_(OH)_5_&#183;5H_2_O
##LOCALITY=Kramer deposit, Boron, Kern County, California, USA
##OWNER=RRUFF
##SOURCE=Rock Currier
##DESCRIPTION=Tabular single crystal
##STATUS=The identification of this mineral has been confirmed by X-ray diffraction and chemical analysis
##URL=rruff.info/R050105
##MEASURED CHEMISTRY=MgB_3_O_3_(OH)_5_Â·5H_2_O
121.4606, 4075.817
121.9427, 4300.234
122.4248, 4478.840
122.9070, 4619.513
123.3891, 4740.013
123.8712, 4826.551
124.3533, 4903.704
124.8354, 5009.507
125.3175, 5148.332
125.7996, 5319.456
126.2818, 5531.631
126.7639, 5784.848
127.2460, 6047.004
127.7281, 6300.894
128.2102, 6548.641
128.6924, 6797.492
129.1745, 7045.024
129.6566, 7296.281
130.1387, 7576.040
130.6208, 7888.795
131.1029, 8195.334
131.5850, 8474.434
132.0672, 8726.738
132.5493, 8900.951
133.0314, 8978.297
133.5135, 8959.281
133.9956, 8858.567
134.4777, 8669.151
134.9599, 8408.661
135.4420, 8101.685
135.9241, 7738.913
136.4062, 7375.354
136.8883, 7029.697
137.3704, 6697.063
137.8526, 6426.676
138.3347, 6230.304
138.8168, 6100.548
139.2989, 5995.064
139.7810, 5915.650
140.2631, 5857.875
140.7453, 5815.809
141.2274, 5780.328
141.7095, 5782.309
142.1916, 5834.281
142.6737, 5942.508
143.1558, 6047.767
143.6380, 6138.071
144.1201, 6234.132
144.6022, 6366.369
145.0843, 6546.886
145.5664, 6685.945
146.0485, 6827.806
146.5307, 6982.838
147.0128, 7122.310
147.4949, 7252.854
147.9770, 7368.529
148.4591, 7448.493
148.9412, 7515.963
149.4234, 7533.015
149.9055, 7484.929
150.3876, 7350.532
150.8697, 7179.327
151.3518, 6943.515
151.8339, 6656.497
152.3161, 6428.222
152.7982, 6298.652
153.2803, 6210.907
153.7624, 6124.375
154.2445, 6021.219
154.7266, 5929.747
155.2087, 5860.308
155.6909, 5815.482
156.1730, 5771.690
156.6551, 5714.145
157.1372, 5657.423
157.6193, 5617.812
158.1014, 5617.526
158.5836, 5621.525
159.0657, 5608.394
159.5478, 5562.456
160.0299, 5539.075
160.5120, 5565.520
160.9941, 5628.638
161.4763, 5701.446
161.9584, 5780.728
162.4405, 5861.097
162.9226, 5938.418
163.4047, 6009.151
163.8868, 6080.788
164.3690, 6170.707
164.8511, 6270.844
165.3332, 6345.578
165.8153, 6363.385
166.2974, 6350.660
166.7795, 6335.449
167.2617, 6348.695
167.7438, 6347.216
168.2259, 6288.127
168.7080, 6173.506
169.1901, 6055.527
169.6722, 5967.927
170.1544, 5901.502
170.6365, 5840.991
171.1186, 5783.054
171.6007, 5726.330
172.0828, 5663.104
172.5649, 5590.333
173.0471, 5528.216
173.5292, 5506.327
174.0113, 5512.315
174.4934, 5512.763
174.9755, 5488.947
175.4576, 5448.204
175.9397, 5402.579
176.4219, 5353.784
176.9040, 5299.120
177.3861, 5232.246
177.8682, 5155.003
178.3503, 5074.558
178.8324, 4994.101
179.3146, 4914.478
179.7967, 4833.754
180.2788, 4748.362
180.7609, 4667.247
181.2430, 4606.175
181.7251, 4565.498
182.2073, 4539.023
182.6894, 4530.951
183.1715, 4535.955
183.6536, 4530.945
184.1357, 4499.301
184.6178, 4455.416
185.1000, 4437.712
185.5821, 4447.815
186.0642, 4470.923
186.5463, 4495.034
187.0284, 4519.522
187.5105, 4540.083
187.9927, 4550.456
188.4748, 4553.585
188.9569, 4570.758
189.4390, 4607.598
189.9211, 4642.517
190.4032, 4640.700
190.8854, 4601.417
191.3675, 4552.210
191.8496, 4508.289
192.3317, 4468.550
192.8138, 4414.057
193.2959, 4336.750
193.7781, 4254.114
194.2602, 4203.653
194.7423, 4188.598
195.2244, 4184.623
195.7065, 4179.687
196.1886, 4174.030
196.6708, 4161.723
197.1529, 4140.803
197.6350, 4113.569
198.1171, 4085.405
198.5992, 4054.709
199.0813, 4029.380
199.5634, 4016.608
200.0456, 4017.313
200.5277, 4023.291
201.0098, 4033.586
201.4919, 4048.009
201.9740, 4065.011
202.4561, 4085.430
202.9383, 4106.397
203.4204, 4124.655
203.9025, 4139.640
204.3846, 4153.974
204.8667, 4166.157
205.3488, 4176.104
205.8310, 4195.932
206.3131, 4226.245
206.7952, 4265.379
207.2773, 4313.660
207.7594, 4375.246
208.2415, 4432.956
208.7237, 4475.979
209.2058, 4499.127
209.6879, 4543.049
210.1700, 4613.854
210.6521, 4700.229
211.1342, 4782.386
211.6164, 4861.089
212.0985, 4932.086
212.5806, 4991.555
213.0627, 5034.520
213.5448, 5083.334
214.0269, 5144.389
214.5091, 5209.511
214.9912, 5255.637
215.4733, 5279.825
215.9554, 5289.641
216.4375, 5289.275
216.9196, 5280.229
217.4018, 5256.162
217.8839, 5212.343
218.3660, 5153.012
218.8481, 5094.575
219.3302, 5033.628
219.8123, 4979.378
220.2945, 4938.598
220.7766, 4912.176
221.2587, 4897.831
221.7408, 4899.496
222.2229, 4915.562
222.7050, 4922.072
223.1871, 4905.041
223.6693, 4895.252
224.1514, 4923.363
224.6335, 5014.129
225.1156, 5091.441
225.5977, 5139.290
226.0798, 5156.339
226.5620, 5181.016
227.0441, 5207.790
227.5262, 5247.188
228.0083, 5316.146
228.4904, 5440.828
228.9725, 5545.773
229.4547, 5609.198
229.9368, 5624.757
230.4189, 5649.864
230.9010, 5702.569
231.3831, 5751.650
231.8652, 5753.214
232.3474, 5687.308
232.8295, 5606.116
233.3116, 5523.839
233.7937, 5440.907
234.2758, 5353.972
234.7579, 5261.660
235.2401, 5166.467
235.7222, 5071.835
236.2043, 4973.327
236.6864, 4882.055
237.1685, 4798.928
237.6507, 4715.536
238.1328, 4666.980
238.6149, 4675.510
239.0970, 4711.274
239.5791, 4703.323
240.0612, 4624.358
240.5434, 4541.793
241.0255, 4484.455
241.5076, 4461.822
241.9897, 4442.284
242.4718, 4425.820
242.9539, 4412.402
243.4360, 4400.418
243.9182, 4382.373
244.4003, 4376.413
244.8824, 4395.274
245.3645, 4457.194
245.8466, 4502.038
246.3287, 4519.814
246.8109, 4518.267
247.2930, 4530.597
247.7751, 4562.648
248.2572, 4600.215
248.7393, 4633.319
249.2214, 4652.458
249.7036, 4688.363
250.1857, 4748.140
250.6678, 4827.498
251.1499, 4904.723
251.6320, 4979.388
252.1141, 5052.710
252.5963, 5126.271
253.0784, 5206.603
253.5605, 5273.397
254.0426, 5325.013
254.5247, 5361.208
255.0068, 5384.229
255.4890, 5395.677
255.9711, 5391.693
256.4532, 5369.087
256.9353, 5325.914
257.4174, 5267.191
257.8995, 5186.935
258.3817, 5088.168
258.8638, 5004.983
259.3459, 4948.260
259.8280, 4891.729
260.3101, 4806.939
260.7922, 4680.780
261.2744, 4563.221
261.7565, 4464.592
262.2386, 4383.406
262.7207, 4317.601
263.2028, 4268.999
263.6849, 4231.951
264.1671, 4198.355
264.6492, 4164.251
265.1313, 4147.816
265.6134, 4161.111
266.0955, 4202.491
266.5776, 4218.636
267.0598, 4199.850
267.5419, 4171.647
268.0240, 4162.177
268.5061, 4175.441
268.9882, 4193.122
269.4703, 4211.233
269.9525, 4229.831
270.4346, 4248.984
270.9167, 4268.555
271.3988, 4289.493
271.8809, 4312.665
272.3630, 4337.740
272.8452, 4366.386
273.3273, 4398.206
273.8094, 4433.099
274.2915, 4477.895
274.7736, 4535.608
275.2557, 4596.428
275.7379, 4645.854
276.2200, 4682.430
276.7021, 4718.521
277.1842, 4759.359
277.6663, 4804.065
278.1484, 4843.675
278.6305, 4877.042
279.1126, 4908.008
279.5948, 4939.743
280.0769, 4971.961
280.5590, 5008.722
281.0411, 5057.017
281.5232, 5114.538
282.0053, 5153.673
282.4875, 5173.168
282.9696, 5179.015
283.4517, 5178.239
283.9338, 5170.856
284.4159, 5156.440
284.8980, 5137.843
285.3802, 5113.194
285.8623, 5069.378
286.3444, 5003.773
286.8265, 4928.808
287.3086, 4854.231
287.7907, 4781.068
288.2729, 4721.837
288.7550, 4694.847
289.2371, 4688.779
289.7192, 4655.382
290.2013, 4589.966
290.6834, 4518.627
291.1656, 4471.645
291.6477, 4447.191
292.1298, 4436.564
292.6119, 4443.819
293.0940, 4461.681
293.5761, 4469.339
294.0583, 4464.501
294.5404, 4459.231
295.0225, 4471.037
295.5046, 4495.418
295.9867, 4514.508
296.4688, 4510.454
296.9510, 4497.828
297.4331, 4506.503
297.9152, 4539.167
298.3973, 4579.292
298.8794, 4610.551
299.3615, 4636.066
299.8437, 4665.214
300.3258, 4705.823
300.8079, 4751.211
301.2900, 4791.114
301.7721, 4823.401
302.2542, 4859.952
302.7364, 4917.575
303.2185, 4986.617
303.7006, 5048.209
304.1827, 5082.611
304.6648, 5110.719
305.1469, 5155.993
305.6291, 5220.955
306.1112, 5285.954
306.5933, 5339.004
307.0754, 5382.207
307.5575, 5418.065
308.0396, 5440.900
308.5218, 5461.492
309.0039, 5489.104
309.4860, 5524.802
309.9681, 5559.199
310.4502, 5577.762
310.9323, 5593.589
311.4145, 5624.664
311.8966, 5691.242
312.3787, 5765.279
312.8608, 5828.611
313.3429, 5879.530
313.8250, 5936.355
314.3072, 6010.899
314.7893, 6095.497
315.2714, 6181.504
315.7535, 6272.062
316.2356, 6358.040
316.7177, 6430.019
317.1999, 6486.425
317.6820, 6554.706
318.1641, 6661.889
318.6462, 6777.992
319.1283, 6872.181
319.6104, 6910.564
320.0926, 6951.964
320.5747, 7016.954
321.0568, 7107.588
321.5389, 7193.053
322.0210, 7263.963
322.5031, 7329.184
322.9852, 7395.206
323.4673, 7480.569
323.9495, 7549.067
324.4316, 7591.725
324.9137, 7608.048
325.3958, 7618.217
325.8779, 7624.231
326.3600, 7623.546
326.8422, 7614.185
327.3243, 7596.131
327.8064, 7569.501
328.2885, 7534.174
328.7706, 7490.075
329.2527, 7437.597
329.7349, 7381.640
330.2170, 7313.179
330.6991, 7221.577
331.1812, 7079.386
331.6633, 6965.837
332.1454, 6900.419
332.6276, 6873.904
333.1097, 6820.440
333.5918, 6725.360
334.0739, 6626.696
334.5560, 6547.143
335.0381, 6488.093
335.5203, 6446.582
336.0024, 6425.174
336.4845, 6420.769
336.9666, 6422.128
337.4487, 6428.304
337.9308, 6443.375
338.4130, 6473.237
338.8951, 6520.316
339.3772, 6560.005
339.8593, 6587.452
340.3414, 6609.146
340.8235, 6639.826
341.3057, 6679.035
341.7878, 6728.774
342.2699, 6791.413
342.7520, 6866.632
343.2341, 6944.188
343.7162, 7024.539
344.1984, 7105.454
344.6805, 7187.884
345.1626, 7271.579
345.6447, 7342.870
346.1268, 7384.089
346.6089, 7406.230
347.0911, 7441.504
347.5732, 7494.440
348.0553, 7552.297
348.5374, 7594.417
349.0195, 7625.738
349.5016, 7666.006
349.9838, 7720.628
350.4659, 7791.617
350.9480, 7892.237
351.4301, 8029.750
351.9122, 8156.359
352.3943, 8213.426
352.8765, 8227.692
353.3586, 8254.859
353.8407, 8343.413
354.3228, 8441.636
354.8049, 8503.354
355.2870, 8525.646
355.7692, 8526.963
356.2513, 8512.394
356.7334, 8485.485
357.2155, 8450.940
357.6976, 8421.989
358.1797, 8376.085
358.6619, 8297.916
359.1440, 8187.542
359.6261, 8064.517
360.1082, 7920.929
360.5903, 7775.448
361.0724, 7644.973
361.5546, 7543.104
362.0367, 7447.482
362.5188, 7350.607
363.0009, 7253.067
363.4830, 7161.925
363.9651, 7077.172
364.4473, 7000.143
364.9294, 6931.388
365.4115, 6868.081
365.8936, 6817.468
366.3757, 6779.963
366.8578, 6755.476
367.3399, 6743.552
367.8221, 6753.902
368.3042, 6768.298
368.7863, 6777.387
369.2684, 6765.860
369.7505, 6777.530
370.2326, 6827.850
370.7148, 6897.901
371.1969, 6936.770
371.6790, 6929.647
372.1611, 6917.542
372.6432, 6916.635
373.1253, 6927.883
373.6075, 6947.560
374.0896, 6978.983
374.5717, 7014.702
375.0538, 7044.052
375.5359, 7067.560
376.0180, 7081.538
376.5002, 7080.326
376.9823, 7064.842
377.4644, 7059.968
377.9465, 7068.203
378.4286, 7078.819
378.9107, 7076.186
379.3929, 7061.360
379.8750, 7051.688
380.3571, 7062.200
380.8392, 7079.906
381.3213, 7064.357
381.8034, 7014.358
382.2856, 6955.523
382.7677, 6911.490
383.2498, 6877.476
383.7319, 6840.071
384.2140, 6795.570
384.6961, 6746.340
385.1783, 6689.226
385.6604, 6626.223
386.1425, 6573.090
386.6246, 6542.461
387.1067, 6526.120
387.5888, 6513.071
388.0710, 6498.029
388.5531, 6489.930
389.0352, 6493.111
389.5173, 6507.945
389.9994, 6535.585
390.4815, 6593.892
390.9637, 6653.975
391.4458, 6692.848
391.9279, 6696.277
392.4100, 6706.168
392.8921, 6732.800
393.3742, 6776.188
393.8564, 6835.771
394.3385, 6929.139
394.8206, 7023.169
395.3027, 7105.609
395.7848, 7173.396
396.2669, 7237.955
396.7491, 7302.139
397.2312, 7362.864
397.7133, 7416.650
398.1954, 7452.569
398.6775, 7494.833
399.1596, 7550.862
399.6418, 7621.368
400.1239, 7684.759
400.6060, 7741.930
401.0881, 7791.520
401.5702, 7829.753
402.0523, 7848.687
402.5345, 7879.521
403.0166, 7932.121
403.4987, 7999.174
403.9808, 8048.847
404.4629, 8078.550
404.9450, 8097.462
405.4272, 8101.476
405.9093, 8089.689
406.3914, 8110.781
406.8735, 8175.938
407.3556, 8263.358
407.8377, 8327.779
408.3199, 8370.730
408.8020, 8426.915
409.2841, 8518.791
409.7662, 8639.425
410.2483, 8771.229
410.7304, 8914.771
411.2126, 9057.702
411.6946, 9178.827
412.1768, 9287.035
412.6589, 9409.062
413.1410, 9563.631
413.6231, 9733.294
414.1052, 9896.157
414.5873, 10051.71
415.0695, 10215.12
415.5516, 10419.61
416.0337, 10628.38
416.5158, 10795.57
416.9979, 10890.25
417.4800, 10959.26
417.9622, 11027.83
418.4443, 11091.06
418.9264, 11126.48
419.4085, 11153.58
419.8906, 11131.53
420.3727, 11033.44
420.8549, 10822.71
421.3370, 10583.69
421.8191, 10325.31
422.3012, 10046.58
422.7833, 9754.496
423.2654, 9424.467
423.7476, 9101.709
424.2297, 8800.688
424.7118, 8528.570
425.1939, 8254.467
425.6760, 7971.646
426.1581, 7695.954
426.6403, 7436.677
427.1224, 7189.813
427.6045, 6976.331
428.0866, 6810.434
428.5687, 6686.274
429.0508, 6550.884
429.5330, 6401.278
430.0151, 6249.087
430.4972, 6094.687
430.9793, 5939.545
431.4614, 5812.979
431.9435, 5725.797
432.4257, 5665.221
432.9078, 5608.821
433.3899, 5556.306
433.8720, 5504.362
434.3541, 5442.845
434.8362, 5381.764
435.3184, 5345.131
435.8005, 5338.948
436.2826, 5343.707
436.7647, 5349.333
437.2468, 5351.535
437.7289, 5340.348
438.2111, 5297.091
438.6932, 5248.322
439.1753, 5213.008
439.6574, 5192.290
440.1395, 5182.959
440.6216, 5195.997
441.1038, 5214.523
441.5859, 5221.008
442.0680, 5178.632
442.5501, 5156.715
443.0322, 5182.278
443.5143, 5249.106
443.9965, 5316.745
444.4786, 5385.174
444.9607, 5447.938
445.4428, 5501.586
445.9249, 5531.128
446.4070, 5574.730
446.8892, 5628.557
447.3713, 5697.275
447.8534, 5792.742
448.3355, 5928.347
448.8176, 6066.105
449.2997, 6194.854
449.7819, 6313.480
450.2640, 6429.257
450.7461, 6538.502
451.2282, 6655.234
451.7103, 6794.819
452.1924, 6958.822
452.6746, 7132.574
453.1567, 7313.096
453.6388, 7502.397
454.1209, 7708.867
454.6030, 7934.012
455.0851, 8166.353
455.5673, 8395.558
456.0494, 8626.729
456.5315, 8879.548
457.0136, 9160.669
457.4957, 9450.998
457.9778, 9732.011
458.4599, 10010.30
458.9420, 10311.05
459.4242, 10656.03
459.9063, 11019.73
460.3884, 11375.01
460.8705, 11715.86
461.3526, 12079.44
461.8347, 12491.97
462.3169, 12924.18
462.7990, 13349.42
463.2811, 13763.68
463.7632, 14161.58
464.2453, 14557.45
464.7274, 14945.25
465.2096, 15283.68
465.6917, 15582.78
466.1738, 15818.11
466.6559, 15975.65
467.1380, 16057.69
467.6201, 16055.58
468.1023, 15960.92
468.5844, 15786.69
469.0665, 15563.76
469.5486, 15304.56
470.0307, 14962.32
470.5128, 14494.37
470.9950, 13909.54
471.4771, 13372.85
471.9592, 12892.31
472.4413, 12426.49
472.9234, 11922.83
473.4055, 11390.36
473.8877, 10885.37
474.3698, 10416.90
474.8519, 9989.271
475.3340, 9619.661
475.8161, 9301.719
476.2982, 9005.329
476.7804, 8708.229
477.2625, 8419.755
477.7446, 8147.917
478.2267, 7895.483
478.7088, 7653.486
479.1909, 7401.803
479.6731, 7158.969
480.1552, 6954.591
480.6373, 6825.335
481.1194, 6712.964
481.6015, 6594.213
482.0836, 6467.341
482.5658, 6344.312
483.0479, 6213.050
483.5300, 6095.443
484.0121, 6006.934
484.4942, 5984.335
484.9763, 5936.915
485.4585, 5846.325
485.9406, 5731.839
486.4227, 5650.773
486.9048, 5617.283
487.3869, 5588.980
487.8690, 5546.462
488.3512, 5488.113
488.8333, 5442.739
489.3154, 5411.318
489.7975, 5391.136
490.2796, 5385.274
490.7617, 5392.061
491.2439, 5387.342
491.7260, 5359.175
492.2081, 5319.594
492.6902, 5289.585
493.1723, 5269.354
493.6544, 5256.009
494.1366, 5255.390
494.6187, 5258.009
495.1008, 5246.833
495.5829, 5212.390
496.0650, 5187.105
496.5471, 5206.385
497.0293, 5248.437
497.5114, 5275.548
497.9935, 5256.296
498.4756, 5235.175
498.9577, 5234.016
499.4398, 5254.159
499.9220, 5269.255
500.4041, 5267.029
500.8862, 5262.724
501.3683, 5267.670
501.8504, 5297.756
502.3325, 5312.186
502.8146, 5301.882
503.2968, 5276.687
503.7789, 5263.222
504.2610, 5267.504
504.7431, 5268.401
505.2252, 5251.065
505.7073, 5215.493
506.1895, 5214.076
506.6716, 5255.048
507.1537, 5300.208
507.6358, 5300.002
508.1179, 5262.385
508.6000, 5239.026
509.0822, 5249.488
509.5643, 5273.314
510.0464, 5281.021
510.5285, 5274.496
511.0106, 5262.898
511.4927, 5241.476
511.9749, 5223.224
512.4570, 5225.446
512.9391, 5254.290
513.4212, 5282.208
513.9033, 5292.472
514.3854, 5293.754
514.8676, 5297.171
515.3497, 5312.218
515.8318, 5323.301
516.3139, 5325.872
516.7960, 5320.145
517.2781, 5310.606
517.7603, 5285.434
518.2424, 5267.950
518.7245, 5271.366
519.2066, 5308.166
519.6887, 5335.593
520.1708, 5352.385
520.6530, 5361.011
521.1351, 5359.201
521.6172, 5342.710
522.0993, 5348.233
522.5814, 5405.806
523.0635, 5492.211
523.5457, 5501.897
524.0278, 5433.146
524.5099, 5361.341
524.9920, 5359.445
525.4741, 5399.540
525.9562, 5423.320
526.4384, 5417.708
526.9205, 5400.098
527.4026, 5377.414
527.8847, 5354.786
528.3668, 5342.570
528.8489, 5347.146
529.3311, 5362.347
529.8132, 5391.180
530.2953, 5433.938
530.7774, 5464.335
531.2595, 5466.380
531.7416, 5458.560
532.2238, 5453.805
532.7059, 5452.553
533.1880, 5455.421
533.6701, 5465.491
534.1522, 5478.755
534.6343, 5484.122
535.1165, 5474.808
535.5986, 5474.503
536.0807, 5493.451
536.5628, 5531.092
537.0449, 5571.332
537.5270, 5617.396
538.0092, 5653.444
538.4913, 5653.926
538.9734, 5628.522
539.4555, 5620.564
539.9376, 5642.233
540.4197, 5677.587
540.9019, 5711.356
541.3840, 5743.305
541.8661, 5773.231
542.3482, 5798.489
542.8303, 5823.246
543.3124, 5849.889
543.7946, 5878.444
544.2767, 5911.777
544.7588, 5954.922
545.2409, 6001.305
545.7230, 6045.307
546.2051, 6081.676
546.6873, 6121.188
547.1694, 6167.586
547.6515, 6217.505
548.1336, 6263.025
548.6157, 6302.332
549.0978, 6339.640
549.5800, 6376.051
550.0621, 6411.653
550.5442, 6448.111
551.0263, 6486.549
551.5084, 6523.081
551.9905, 6552.987
552.4727, 6577.052
552.9548, 6602.190
553.4369, 6630.028
553.9190, 6659.250
554.4011, 6689.961
554.8832, 6720.778
555.3654, 6747.644
555.8475, 6780.321
556.3296, 6800.016
556.8117, 6778.037
557.2938, 6712.671
557.7759, 6663.080
558.2581, 6681.037
558.7402, 6712.627
559.2223, 6713.995
559.7044, 6668.633
560.1865, 6602.253
560.6686, 6502.259
561.1508, 6384.271
561.6329, 6281.968
562.1150, 6200.718
562.5971, 6125.163
563.0792, 6053.515
563.5613, 5985.115
564.0435, 5911.271
564.5256, 5830.656
565.0077, 5750.989
565.4898, 5677.480
565.9719, 5610.836
566.4540, 5552.292
566.9362, 5504.331
567.4183, 5459.591
567.9004, 5410.116
568.3824, 5356.630
568.8646, 5303.336
569.3467, 5241.150
569.8288, 5187.396
570.3109, 5160.349
570.7930, 5158.386
571.2751, 5156.719
571.7573, 5147.233
572.2394, 5132.222
572.7215, 5112.194
573.2036, 5079.558
573.6857, 5056.322
574.1678, 5049.144
574.6500, 5050.482
575.1321, 5050.252
575.6142, 5047.037
576.0963, 5045.397
576.5784, 5047.533
577.0605, 5052.103
577.5427, 5048.985
578.0248, 5035.864
578.5069, 5028.833
578.9890, 5042.904
579.4711, 5072.908
579.9532, 5096.965
580.4354, 5112.668
580.9175, 5126.886
581.3996, 5148.166
581.8817, 5172.876
582.3638, 5194.155
582.8459, 5208.446
583.3281, 5220.213
583.8102, 5226.637
584.2923, 5231.674
584.7744, 5248.906
585.2565, 5296.644
585.7386, 5345.823
586.2208, 5382.170
586.7029, 5400.073
587.1850, 5423.990
587.6671, 5454.015
588.1492, 5489.632
588.6313, 5534.564
589.1135, 5596.865
589.5956, 5636.065
590.0777, 5642.701
590.5598, 5628.467
591.0419, 5614.306
591.5240, 5600.487
592.0062, 5594.145
592.4883, 5609.815
592.9704, 5632.285
593.4525, 5626.950
593.9346, 5594.805
594.4167, 5559.997
594.8989, 5532.791
595.3810, 5515.671
595.8631, 5514.550
596.3452, 5542.464
596.8273, 5558.671
597.3094, 5532.356
597.7916, 5488.408
598.2737, 5465.278
598.7558, 5492.801
599.2379, 5514.302
599.7200, 5517.823
600.2021, 5506.001
600.6843, 5497.802
601.1664, 5492.231
601.6485, 5492.849
602.1306, 5501.524
602.6127, 5518.302
603.0948, 5544.981
603.5770, 5583.089
604.0591, 5622.375
604.5412, 5644.363
605.0233, 5657.278
605.5054, 5685.030
605.9875, 5740.538
606.4697, 5804.566
606.9518, 5853.405
607.4339, 5895.453
607.9160, 5953.922
608.3981, 6054.107
608.8802, 6159.628
609.3624, 6251.100
609.8445, 6326.965
610.3266, 6401.362
610.8087, 6467.365
611.2908, 6538.720
611.7729, 6623.333
612.2551, 6724.280
612.7372, 6828.014
613.2193, 6928.052
613.7014, 7037.387
614.1835, 7186.362
614.6656, 7376.353
615.1478, 7558.238
615.6299, 7720.725
616.1120, 7866.887
616.5941, 7988.909
617.0762, 8093.591
617.5583, 8224.589
618.0405, 8430.788
618.5226, 8665.962
619.0047, 8891.240
619.4868, 9102.779
619.9689, 9300.148
620.4510, 9459.434
620.9332, 9616.548
621.4153, 9802.281
621.8974, 10054.96
622.3795, 10295.02
622.8616, 10509.78
623.3438, 10710.09
623.8259, 10919.66
624.3080, 11146.79
624.7901, 11359.75
625.2722, 11547.91
625.7543, 11713.87
626.2365, 11872.46
626.7186, 12022.82
627.2007, 12157.75
627.6828, 12280.53
628.1649, 12381.75
628.6470, 12437.59
629.1292, 12440.62
629.6113, 12424.83
630.0934, 12428.99
630.5755, 12424.87
631.0576, 12377.09
631.5397, 12259.12
632.0219, 12113.00
632.5040, 11944.43
632.9861, 11756.44
633.4682, 11559.46
633.9503, 11349.71
634.4324, 11137.16
634.9146, 10919.83
635.3967, 10698.15
635.8788, 10484.88
636.3609, 10283.18
636.8430, 10085.10
637.3251, 9880.896
637.8073, 9674.221
638.2894, 9480.499
638.7715, 9299.297
639.2536, 9131.403
639.7357, 8989.566
640.2178, 8857.841
640.7000, 8704.433
641.1821, 8491.779
641.6642, 8282.440
642.1463, 8108.178
642.6284, 7963.259
643.1105, 7827.642
643.5927, 7694.311
644.0748, 7574.961
644.5569, 7482.363
645.0390, 7418.450
645.5211, 7321.352
646.0032, 7175.858
646.4854, 7031.170
646.9675, 6928.277
647.4496, 6866.134
647.9317, 6802.448
648.4138, 6735.186
648.8959, 6663.115
649.3781, 6580.465
649.8602, 6493.097
650.3423, 6412.063
650.8244, 6339.423
651.3065, 6277.870
651.7886, 6236.020
652.2708, 6207.033
652.7529, 6171.754
653.2350, 6127.683
653.7171, 6071.850
654.1992, 5992.737
654.6813, 5887.211
655.1635, 5816.768
655.6456, 5799.408
656.1277, 5792.930
656.6098, 5771.595
657.0919, 5733.141
657.5740, 5697.149
658.0562, 5664.659
658.5382, 5634.541
659.0203, 5606.021
659.5024, 5578.926
659.9846, 5552.637
660.4667, 5527.364
660.9488, 5502.076
661.4309, 5478.429
661.9130, 5454.380
662.3951, 5425.189
662.8773, 5375.104
663.3594, 5332.484
663.8415, 5314.974
664.3236, 5322.541
664.8057, 5320.567
665.2878, 5294.372
665.7700, 5273.208
666.2521, 5277.409
666.7342, 5317.493
667.2163, 5317.397
667.6984, 5267.418
668.1805, 5203.544
668.6627, 5162.884
669.1448, 5142.082
669.6269, 5122.496
670.1090, 5097.338
670.5911, 5079.535
671.0732, 5095.304
671.5554, 5128.314
672.0375, 5144.458
672.5196, 5115.573
673.0017, 5079.483
673.4838, 5048.857
673.9659, 5024.778
674.4481, 5009.657
674.9302, 5010.693
675.4123, 5013.781
675.8944, 5016.521
676.3765, 5019.938
676.8586, 5006.562
677.3408, 4969.646
677.8229, 4935.637
678.3050, 4931.832
678.7871, 4952.601
679.2692, 4966.977
679.7513, 4972.452
680.2335, 4965.237
680.7156, 4926.543
681.1977, 4875.048
681.6798, 4843.717
682.1619, 4859.385
682.6440, 4878.780
683.1262, 4885.879
683.6083, 4882.141
684.0904, 4871.523
684.5725, 4841.543
685.0546, 4820.304
685.5367, 4817.972
686.0189, 4832.463
686.5010, 4834.781
686.9831, 4820.811
687.4652, 4809.476
687.9473, 4818.224
688.4294, 4841.545
688.9116, 4845.697
689.3937, 4828.439
689.8758, 4809.507
690.3579, 4810.725
690.8400, 4819.615
691.3221, 4816.735
691.8043, 4790.000
692.2864, 4768.930
692.7685, 4767.305
693.2506, 4778.593
693.7327, 4793.565
694.2148, 4827.917
694.6970, 4842.489
695.1791, 4822.626
695.6612, 4782.305
696.1433, 4766.644
696.6254, 4780.067
697.1075, 4794.117
697.5897, 4795.125
698.0718, 4788.379
698.5539, 4791.464
699.0360, 4803.735
699.5181, 4817.077
700.0002, 4826.791
700.4824, 4833.523
700.9645, 4836.100
701.4466, 4833.253
701.9287, 4834.459
702.4108, 4844.979
702.8929, 4859.973
703.3751, 4875.722
703.8572, 4896.583
704.3393, 4910.104
704.8214, 4913.963
705.3035, 4912.935
705.7856, 4913.096
706.2678, 4914.488
706.7499, 4918.330
707.2320, 4924.502
707.7141, 4934.233
708.1962, 4952.991
708.6783, 4978.051
709.1605, 4998.524
709.6426, 4995.503
710.1247, 4997.172
710.6068, 5034.834
711.0889, 5102.607
711.5710, 5150.193
712.0532, 5139.306
712.5353, 5126.781
713.0174, 5137.926
713.4995, 5175.865
713.9816, 5214.505
714.4637, 5253.707
714.9459, 5292.823
715.4280, 5330.440
715.9101, 5366.359
716.3922, 5406.454
716.8743, 5451.379
717.3564, 5497.764
717.8386, 5533.957
718.3207, 5570.167
718.8028, 5625.341
719.2849, 5717.524
719.7670, 5808.991
720.2491, 5878.057
720.7313, 5934.359
721.2134, 5995.030
721.6955, 6060.298
722.1776, 6133.002
722.6597, 6213.163
723.1418, 6300.820
723.6240, 6397.507
724.1061, 6504.302
724.5882, 6612.940
725.0703, 6723.910
725.5524, 6833.808
726.0345, 6930.718
726.5167, 7015.813
726.9988, 7103.597
727.4809, 7198.439
727.9630, 7304.236
728.4451, 7429.453
728.9272, 7578.496
729.4094, 7719.437
729.8915, 7842.004
730.3736, 7952.694
730.8557, 8054.959
731.3378, 8143.400
731.8199, 8239.653
732.3021, 8347.886
732.7842, 8457.840
733.2663, 8560.465
733.7484, 8655.472
734.2305, 8728.105
734.7126, 8769.167
735.1948, 8797.452
735.6769, 8835.046
736.1590, 8877.415
736.6411, 8913.887
737.1232, 8953.434
737.6053, 8972.764
738.0875, 8966.248
738.5696, 8931.846
739.0517, 8859.453
739.5338, 8721.249
740.0159, 8588.385
740.4980, 8487.724
740.9802, 8414.045
741.4623, 8315.618
741.9444, 8190.149
742.4265, 8058.332
742.9086, 7929.979
743.3907, 7806.919
743.8729, 7698.954
744.3550, 7605.976
744.8371, 7514.726
745.3192, 7414.044
745.8013, 7312.157
746.2834, 7218.386
746.7656, 7141.402
747.2477, 7049.992
747.7298, 6923.246
748.2119, 6792.462
748.6940, 6685.730
749.1761, 6603.662
749.6582, 6542.782
750.1403, 6508.332
750.6224, 6483.777
751.1046, 6447.345
751.5867, 6399.754
752.0688, 6344.686
752.5509, 6278.956
753.0330, 6212.037
753.5151, 6147.595
753.9973, 6088.420
754.4794, 6037.539
754.9615, 5998.819
755.4436, 5966.489
755.9257, 5947.366
756.4078, 5934.849
756.8900, 5899.761
757.3721, 5833.797
757.8542, 5767.979
758.3363, 5711.196
758.8184, 5664.656
759.3005, 5643.077
759.7827, 5645.025
760.2648, 5641.508
760.7469, 5604.455
761.2290, 5555.468
761.7111, 5520.837
762.1932, 5502.270
762.6754, 5481.519
763.1575, 5449.983
763.6396, 5414.588
764.1217, 5377.814
764.6038, 5335.496
765.0859, 5306.631
765.5681, 5295.891
766.0502, 5290.427
766.5323, 5278.854
767.0144, 5261.292
767.4965, 5241.072
767.9786, 5218.682
768.4608, 5193.389
768.9429, 5157.635
769.4250, 5120.351
769.9071, 5096.409
770.3892, 5100.794
770.8713, 5102.743
771.3535, 5088.831
771.8356, 5065.792
772.3177, 5045.396
772.7998, 5029.964
773.2819, 5013.763
773.7640, 4995.557
774.2462, 4976.282
774.7283, 4957.995
775.2104, 4940.669
775.6925, 4924.057
776.1746, 4907.583
776.6567, 4892.230
777.1389, 4877.324
777.6210, 4864.374
778.1031, 4859.065
778.5852, 4869.097
779.0673, 4882.673
779.5494, 4898.494
780.0316, 4915.565
780.5137, 4916.903
780.9958, 4890.162
781.4779, 4869.784
781.9600, 4874.520
782.4421, 4901.822
782.9243, 4920.865
783.4064, 4931.681
783.8885, 4935.893
784.3706, 4927.193
784.8527, 4915.954
785.3348, 4920.861
785.8170, 4944.642
786.2991, 4959.766
786.7812, 4944.995
787.2633, 4921.751
787.7454, 4904.019
788.2275, 4887.719
788.7097, 4891.693
789.1918, 4921.962
789.6739, 4962.781
790.1560, 5008.281
790.6381, 5056.083
791.1202, 5064.788
791.6024, 5023.180
792.0845, 4972.371
792.5666, 4951.650
793.0487, 4952.384
793.5308, 4963.088
794.0129, 4989.414
794.4951, 5009.388
794.9772, 5012.592
795.4593, 5005.352
795.9414, 4995.825
796.4235, 4978.125
796.9056, 4972.576
797.3878, 4984.519
797.8699, 5006.130
798.3520, 5024.219
798.8341, 5038.759
799.3162, 5049.043
799.7983, 5054.094
800.2805, 5055.363
800.7626, 5050.813
801.2447, 5043.623
801.7268, 5041.451
802.2089, 5059.984
802.6910, 5070.260
803.1732, 5052.777
803.6553, 5019.028
804.1374, 5007.458
804.6195, 5026.321
805.1016, 5042.708
805.5837, 5044.279
806.0659, 5035.410
806.5480, 5029.633
807.0301, 5026.445
807.5122, 5021.216
807.9943, 5006.524
808.4764, 4992.217
808.9586, 4987.346
809.4407, 4991.515
809.9228, 4997.954
810.4049, 5005.700
810.8870, 5014.566
811.3691, 5028.559
811.8513, 5047.412
812.3334, 5040.346
812.8155, 5002.621
813.2976, 4960.012
813.7797, 4932.841
814.2618, 4913.398
814.7440, 4876.750
815.2261, 4823.092
815.7082, 4772.630
816.1903, 4744.881
816.6724, 4721.771
817.1545, 4688.086
817.6367, 4639.200
818.1188, 4593.542
818.6009, 4546.281
819.0830, 4509.464
819.5651, 4494.601
820.0472, 4503.712
820.5294, 4504.050
821.0115, 4494.383
821.4936, 4480.694
821.9757, 4454.508
822.4578, 4432.652
822.9399, 4458.139
823.4221, 4551.997
823.9042, 4609.180
824.3863, 4527.866
824.8684, 4414.398
825.3505, 4371.053
825.8326, 4459.410
826.3148, 4490.529
826.7969, 4444.801
827.2790, 4375.386
827.7611, 4338.966
828.2432, 4332.266
828.7253, 4327.973
829.2075, 4322.421
829.6896, 4317.049
830.1717, 4313.575
830.6538, 4311.076
831.1359, 4308.401
831.6180, 4306.378
832.1002, 4302.197
832.5823, 4285.714
833.0644, 4271.817
833.5465, 4282.864
834.0286, 4331.196
834.5107, 4347.917
834.9929, 4316.069
835.4750, 4269.759
835.9571, 4262.602
836.4392, 4282.333
836.9213, 4292.586
837.4034, 4275.125
837.8855, 4259.582
838.3676, 4274.353
838.8497, 4300.654
839.3318, 4309.124
839.8140, 4271.907
840.2961, 4251.227
840.7782, 4261.436
841.2603, 4282.771
841.7424, 4270.154
842.2245, 4224.983
842.7067, 4210.710
843.1888, 4257.791
843.6709, 4315.878
844.1530, 4317.898
844.6351, 4283.922
845.1172, 4254.256
845.5994, 4244.418
846.0815, 4241.151
846.5636, 4242.175
847.0457, 4246.938
847.5278, 4255.683
848.0099, 4271.578
848.4921, 4279.679
848.9742, 4272.715
849.4563, 4261.411
849.9384, 4270.336
850.4205, 4294.402
850.9026, 4314.926
851.3848, 4322.496
851.8669, 4325.721
852.3490, 4330.959
852.8311, 4336.242
853.3132, 4336.763
853.7953, 4327.232
854.2775, 4319.361
854.7596, 4315.939
855.2417, 4314.893
855.7238, 4309.799
856.2059, 4300.832
856.6880, 4294.354
857.1702, 4293.363
857.6523, 4295.585
858.1344, 4295.434
858.6165, 4296.180
859.0986, 4306.055
859.5807, 4339.709
860.0629, 4370.519
860.5450, 4388.237
861.0271, 4396.525
861.5092, 4404.654
861.9913, 4415.098
862.4734, 4413.242
862.9556, 4386.291
863.4377, 4354.107
863.9198, 4369.049
864.4019, 4417.567
864.8840, 4450.538
865.3661, 4417.987
865.8483, 4389.866
866.3304, 4421.422
866.8125, 4490.441
867.2946, 4522.884
867.7767, 4487.725
868.2589, 4460.767
868.7410, 4459.098
869.2231, 4475.171
869.7052, 4493.518
870.1873, 4513.319
870.6694, 4525.804
871.1516, 4525.207
871.6337, 4518.128
872.1158, 4508.622
872.5979, 4498.129
873.0800, 4490.231
873.5621, 4487.742
874.0443, 4486.084
874.5264, 4483.675
875.0085, 4481.542
875.4906, 4482.659
875.9727, 4487.278
876.4548, 4493.703
876.9370, 4505.089
877.4191, 4512.798
877.9012, 4492.316
878.3833, 4456.697
878.8654, 4439.627
879.3475, 4480.914
879.8297, 4515.837
880.3118, 4508.626
880.7939, 4478.729
881.2760, 4475.464
881.7581, 4511.908
882.2402, 4535.940
882.7224, 4533.137
883.2045, 4515.786
883.6866, 4504.907
884.1687, 4500.656
884.6508, 4504.374
885.1329, 4521.801
885.6151, 4540.435
886.0972, 4551.871
886.5793, 4558.909
887.0614, 4567.377
887.5435, 4581.822
888.0256, 4591.038
888.5078, 4593.223
888.9899, 4589.824
889.4720, 4579.669
889.9541, 4564.425
890.4362, 4559.244
890.9183, 4571.476
891.4005, 4589.206
891.8826, 4596.774
892.3647, 4603.064
892.8468, 4622.258
893.3289, 4683.869
893.8110, 4723.417
894.2932, 4722.114
894.7753, 4705.581
895.2574, 4712.780
895.7395, 4744.212
896.2216, 4778.574
896.7037, 4815.272
897.1859, 4841.874
897.6680, 4830.153
898.1501, 4801.021
898.6322, 4789.673
899.1143, 4813.314
899.5964, 4841.878
900.0786, 4875.212
900.5607, 4904.966
901.0428, 4919.311
901.5249, 4913.463
902.0070, 4918.833
902.4891, 4939.453
902.9713, 4967.210
903.4534, 4992.800
903.9355, 5018.041
904.4176, 5047.299
904.8997, 5083.755
905.3818, 5116.918
905.8640, 5141.539
906.3461, 5160.510
906.8282, 5175.860
907.3103, 5181.852
907.7924, 5203.075
908.2745, 5244.426
908.7567, 5285.889
909.2388, 5304.974
909.7209, 5308.992
910.2030, 5314.701
910.6851, 5323.241
911.1672, 5344.082
911.6494, 5401.167
912.1315, 5460.370
912.6136, 5492.599
913.0957, 5489.775
913.5778, 5489.122
914.0599, 5489.543
914.5421, 5495.056
915.0242, 5511.729
915.5063, 5536.178
915.9884, 5556.525
916.4705, 5572.260
916.9526, 5581.497
917.4348, 5580.330
917.9169, 5574.039
918.3990, 5565.448
918.8811, 5554.563
919.3632, 5544.359
919.8453, 5536.735
920.3275, 5525.994
920.8096, 5506.879
921.2917, 5482.404
921.7738, 5468.356
922.2559, 5463.521
922.7380, 5455.842
923.2202, 5438.745
923.7023, 5415.127
924.1844, 5379.443
924.6665, 5335.630
925.1486, 5313.465
925.6307, 5335.497
926.1129, 5343.600
926.5950, 5313.865
927.0771, 5261.600
927.5591, 5245.475
928.0413, 5260.405
928.5234, 5265.408
929.0055, 5226.183
929.4876, 5184.062
929.9697, 5178.303
930.4518, 5196.085
930.9340, 5206.992
931.4161, 5204.994
931.8982, 5193.827
932.3803, 5165.763
932.8624, 5136.488
933.3445, 5144.510
933.8267, 5184.490
934.3088, 5207.612
934.7909, 5196.633
935.2730, 5172.705
935.7551, 5143.213
936.2372, 5118.120
936.7194, 5110.748
937.2015, 5152.667
937.6836, 5171.173
938.1657, 5152.463
938.6478, 5122.001
939.1299, 5109.836
939.6121, 5114.591
940.0942, 5116.640
940.5763, 5112.597
941.0584, 5110.971
941.5405, 5123.977
942.0226, 5141.184
942.5048, 5151.848
942.9869, 5154.115
943.4690, 5148.774
943.9511, 5129.822
944.4332, 5112.772
944.9153, 5110.688
945.3975, 5122.471
945.8796, 5128.814
946.3617, 5129.401
946.8438, 5129.312
947.3259, 5135.958
947.8080, 5141.298
948.2902, 5134.287
948.7723, 5113.887
949.2544, 5105.542
949.7365, 5122.159
950.2186, 5135.205
950.7007, 5127.640
951.1829, 5107.037
951.6650, 5124.534
952.1471, 5175.425
952.6292, 5209.899
953.1113, 5176.053
953.5934, 5133.906
954.0756, 5138.883
954.5577, 5177.529
955.0398, 5198.105
955.5219, 5183.318
956.0040, 5165.534
956.4861, 5148.816
956.9683, 5134.862
957.4504, 5131.144
957.9325, 5135.304
958.4146, 5132.004
958.8967, 5111.516
959.3788, 5091.544
959.8610, 5086.745
960.3431, 5090.899
960.8252, 5095.106
961.3073, 5102.419
961.7894, 5101.394
962.2715, 5088.609
962.7537, 5072.585
963.2358, 5065.328
963.7179, 5064.026
964.2000, 5054.473
964.6821, 5033.050
965.1642, 5017.682
965.6464, 5028.668
966.1285, 5046.803
966.6106, 5057.031
967.0927, 5058.771
967.5748, 5046.162
968.0569, 5012.815
968.5391, 4980.685
969.0212, 4965.326
969.5033, 4962.757
969.9854, 4959.825
970.4675, 4956.565
970.9496, 4955.727
971.4318, 4963.963
971.9139, 4970.401
972.3960, 4967.585
972.8781, 4956.580
973.3602, 4946.288
973.8423, 4935.543
974.3245, 4930.622
974.8066, 4937.163
975.2887, 4946.892
975.7708, 4938.491
976.2529, 4919.467
976.7350, 4911.295
977.2172, 4935.706
977.6993, 4958.152
978.1814, 4965.619
978.6635, 4963.917
979.1456, 4961.103
979.6277, 4957.015
980.1099, 4951.544
980.5920, 4943.264
981.0741, 4938.292
981.5562, 4945.202
982.0383, 4960.202
982.5204, 4978.104
983.0026, 4999.054
983.4847, 5018.360
983.9668, 5039.229
984.4489, 5053.618
984.9310, 5052.870
985.4131, 5035.134
985.8953, 5033.060
986.3774, 5047.451
986.8595, 5062.381
987.3416, 5061.920
987.8237, 5058.229
988.3058, 5066.040
988.7880, 5085.042
989.2701, 5101.648
989.7522, 5114.526
990.2343, 5122.559
990.7164, 5124.510
991.1985, 5121.731
991.6807, 5115.749
992.1628, 5107.821
992.6449, 5108.135
993.1270, 5122.369
993.6091, 5144.549
994.0912, 5172.000
994.5734, 5203.490
995.0555, 5237.550
995.5376, 5285.169
996.0197, 5311.712
996.5018, 5307.937
996.9839, 5294.933
997.4661, 5304.622
997.9482, 5328.435
998.4303, 5337.377
998.9124, 5323.833
999.3945, 5312.759
999.8766, 5318.521
1000.359, 5333.845
1000.841, 5356.295
1001.323, 5388.401
1001.805, 5405.784
1002.287, 5408.156
1002.769, 5398.062
1003.251, 5366.088
1003.734, 5328.071
1004.216, 5316.719
1004.698, 5327.080
1005.180, 5328.926
1005.662, 5304.172
1006.144, 5274.245
1006.626, 5240.619
1007.108, 5208.896
1007.591, 5199.750
1008.073, 5213.473
1008.555, 5216.629
1009.037, 5193.902
1009.519, 5168.052
1010.001, 5175.617
1010.483, 5192.702
1010.965, 5183.218
1011.447, 5098.295
1011.930, 5053.696
1012.412, 5073.911
1012.894, 5103.426
1013.376, 5076.434
1013.858, 5007.601
1014.340, 4991.979
1014.822, 5037.153
1015.304, 5066.832
1015.786, 5003.052
1016.269, 4925.453
1016.751, 4893.000
1017.233, 4909.264
1017.715, 4915.795
1018.197, 4911.144
1018.679, 4901.790
1019.161, 4885.727
1019.643, 4870.992
1020.125, 4880.525
1020.608, 4905.492
1021.090, 4920.381
1021.572, 4907.364
1022.054, 4890.739
1022.536, 4872.275
1023.018, 4857.348
1023.500, 4853.864
1023.982, 4861.976
1024.465, 4878.494
1024.947, 4905.427
1025.429, 4926.619
1025.911, 4917.486
1026.393, 4897.755
1026.875, 4890.616
1027.357, 4903.704
1027.839, 4909.624
1028.322, 4902.951
1028.804, 4895.074
1029.286, 4889.444
1029.768, 4888.047
1030.250, 4904.365
1030.732, 4935.516
1031.214, 4963.500
1031.696, 4981.595
1032.178, 4989.853
1032.661, 4983.507
1033.143, 4967.276
1033.625, 4953.938
1034.107, 4943.023
1034.589, 4937.222
1035.071, 4937.262
1035.553, 4942.184
1036.035, 4951.840
1036.517, 4965.176
1037.000, 4980.757
1037.482, 4998.956
1037.964, 5017.516
1038.446, 5040.504
1038.928, 5058.594
1039.410, 5066.115
1039.892, 5063.108
1040.374, 5041.649
1040.857, 5003.291
1041.339, 4981.500
1041.821, 5020.558
1042.303, 5066.366
1042.785, 5076.296
1043.267, 5055.317
1043.749, 5042.880
1044.231, 5043.947
1044.714, 5042.897
1045.196, 5034.179
1045.678, 5024.943
1046.160, 5030.786
1046.642, 5045.095
1047.124, 5053.303
1047.606, 5051.523
1048.088, 5043.044
1048.570, 5021.185
1049.052, 4999.445
1049.535, 4989.408
1050.017, 4992.117
1050.499, 4985.498
1050.981, 4969.004
1051.463, 4957.945
1051.945, 4974.634
1052.427, 4993.490
1052.909, 4985.722
1053.392, 4955.301
1053.874, 4943.776
1054.356, 4960.596
1054.838, 4982.001
1055.320, 5006.547
1055.802, 5025.139
1056.284, 5011.468
1056.766, 4977.634
1057.249, 4955.755
1057.731, 4962.086
1058.213, 4967.131
1058.695, 4954.097
1059.177, 4938.607
1059.659, 4933.739
1060.141, 4940.104
1060.623, 4953.065
1061.105, 4973.286
1061.588, 4984.506
1062.070, 4960.423
1062.552, 4931.803
1063.034, 4932.808
1063.516, 4959.986
1063.998, 4973.900
1064.480, 4966.276
1064.962, 4956.930
1065.444, 4949.712
1065.927, 4945.284
1066.409, 4947.849
1066.891, 4953.963
1067.373, 4954.417
1067.855, 4945.675
1068.337, 4933.073
1068.819, 4907.000
1069.301, 4887.160
1069.783, 4893.865
1070.266, 4931.056
1070.748, 4946.103
1071.230, 4938.722
1071.712, 4922.097
1072.194, 4896.613
1072.676, 4873.665
1073.158, 4865.778
1073.640, 4870.638
1074.123, 4869.911
1074.605, 4855.319
1075.087, 4854.491
1075.569, 4878.887
1076.051, 4910.142
1076.533, 4918.151
1077.015, 4908.814
1077.497, 4893.453
1077.979, 4872.240
1078.462, 4853.802
1078.944, 4840.513
1079.426, 4831.921
1079.908, 4827.796
1080.390, 4828.181
1080.872, 4834.789
1081.354, 4847.503
1081.836, 4861.672
1082.318, 4882.044
1082.801, 4895.975
1083.283, 4884.750
1083.765, 4859.175
1084.247, 4859.133
1084.729, 4897.659
1085.211, 4917.864
1085.693, 4905.116
1086.175, 4884.338
1086.658, 4891.496
1087.140, 4912.462
1087.622, 4922.501
1088.104, 4913.014
1088.586, 4912.759
1089.068, 4936.927
1089.550, 4959.101
1090.032, 4965.148
1090.515, 4957.906
1090.997, 4950.044
1091.479, 4942.086
1091.961, 4937.028
1092.443, 4937.040
1092.925, 4939.870
1093.407, 4949.477
1093.889, 4959.325
1094.371, 4955.058
1094.854, 4932.132
1095.336, 4926.438
1095.818, 4942.883
1096.300, 4971.476
1096.782, 5017.692
1097.264, 5061.138
1097.746, 5073.982
1098.228, 5050.697
1098.710, 5036.380
1099.193, 5035.857
1099.675, 5038.727
1100.157, 5032.403
1100.639, 5034.709
1101.121, 5117.027
1101.603, 5242.616
1102.085, 5306.443
1102.567, 5220.065
1103.050, 5140.462
1103.532, 5103.058
1104.014, 5094.635
1104.496, 5116.885
1104.978, 5167.006
1105.460, 5169.153
1105.942, 5120.377
1106.424, 5080.806
1106.906, 5110.000
1107.389, 5148.434
1107.871, 5150.057
1108.353, 5122.445
1108.835, 5115.923
1109.317, 5134.669
1109.799, 5150.963
1110.281, 5157.242
1110.763, 5159.433
1111.245, 5167.723
1111.728, 5175.909
1112.210, 5172.314
1112.692, 5143.055
1113.174, 5139.188
1113.656, 5176.581
1114.138, 5211.926
1114.620, 5213.235
1115.102, 5191.040
1115.585, 5172.356
1116.067, 5158.572
1116.549, 5155.910
1117.031, 5185.511
1117.513, 5203.026
1117.995, 5183.048
1118.477, 5154.394
1118.959, 5170.845
1119.442, 5226.376
1119.924, 5251.510
1120.406, 5235.136
1120.888, 5208.695
1121.370, 5185.587
1121.852, 5169.957
1122.334, 5167.930
1122.816, 5177.993
1123.298, 5189.857
1123.781, 5204.770
1124.263, 5209.928
1124.745, 5196.253
1125.227, 5176.684
1125.709, 5166.322
1126.191, 5161.056
1126.673, 5153.140
1127.155, 5117.917
1127.637, 5132.696
1128.120, 5220.629
1128.602, 5297.212
1129.084, 5268.488
1129.566, 5183.853
1130.048, 5146.473
1130.530, 5153.645
1131.012, 5160.244
1131.494, 5143.139
1131.977, 5131.123
1132.459, 5134.012
1132.941, 5142.521
1133.423, 5136.173
1133.905, 5119.228
1134.387, 5112.678
1134.869, 5122.975
1135.351, 5129.989
1135.833, 5108.707
1136.316, 5092.676
1136.798, 5109.846
1137.280, 5155.989
1137.762, 5172.515
1138.244, 5159.944
1138.726, 5140.980
1139.208, 5117.526
1139.690, 5103.698
1140.172, 5116.813
1140.655, 5145.467
1141.137, 5172.899
1141.619, 5205.206
1142.101, 5207.198
1142.583, 5171.812
1143.065, 5139.642
1143.547, 5157.509
1144.029, 5193.174
1144.512, 5208.990
1144.994, 5204.405
1145.476, 5190.315
1145.958, 5157.506
1146.440, 5141.760
1146.922, 5156.717
1147.404, 5180.280
1147.886, 5170.527
1148.369, 5143.958
1148.851, 5132.450
1149.333, 5144.701
1149.815, 5163.277
1150.297, 5200.401
1150.779, 5218.966
1151.261, 5188.824
1151.743, 5128.956
1152.225, 5118.390
1152.708, 5147.459
1153.190, 5176.081
1153.672, 5197.502
1154.154, 5200.583
1154.636, 5161.836
1155.118, 5116.601
1155.600, 5101.306
1156.082, 5115.142
1156.564, 5122.618
1157.047, 5122.211
1157.529, 5121.606
1158.011, 5135.083
1158.493, 5141.755
1158.975, 5119.967
1159.457, 5081.305
1159.939, 5059.808
1160.421, 5056.763
1160.903, 5054.983
1161.386, 5051.244
1161.868, 5046.089
1162.350, 5038.300
1162.832, 5030.466
1163.314, 5025.847
1163.796, 5025.212
1164.278, 5020.157
1164.760, 5009.034
1165.243, 5001.864
1165.725, 5007.777
1166.207, 5014.323
1166.689, 4999.051
1167.171, 4973.328
1167.653, 4957.272
1168.135, 4961.100
1168.617, 4967.081
1169.099, 4976.489
1169.582, 4984.776
1170.064, 4991.330
1170.546, 4992.431
1171.028, 4972.065
1171.510, 4936.710
1171.992, 4919.750
1172.474, 4951.771
1172.956, 4977.228
1173.438, 4985.769
1173.921, 4986.769
1174.403, 4999.940
1174.885, 5015.947
1175.367, 5001.086
1175.849, 4947.862
1176.331, 4917.257
1176.813, 4964.624
1177.295, 5005.848
1177.778, 5007.621
1178.260, 4982.252
1178.742, 4963.199
1179.224, 4950.208
1179.706, 4943.077
1180.188, 4948.575
1180.670, 4943.370
1181.152, 4891.443
1181.635, 4847.220
1182.117, 4855.906
1182.599, 4913.857
1183.081, 4955.792
1183.563, 4981.879
1184.045, 4991.288
1184.527, 4969.530
1185.009, 4946.412
1185.491, 4938.960
1185.974, 4938.723
1186.456, 4931.880
1186.938, 4917.569
1187.420, 4921.505
1187.902, 4946.743
1188.384, 4963.535
1188.866, 4931.995
1189.348, 4899.573
1189.830, 4909.382
1190.313, 4947.863
1190.795, 4960.666
1191.277, 4945.643
1191.759, 4927.230
1192.241, 4908.206
1192.723, 4898.423
1193.205, 4918.346
1193.687, 4944.740
1194.170, 4951.244
1194.652, 4962.366
1195.134, 4972.199
1195.616, 4960.032
1196.098, 4971.088
1196.580, 4948.442
1197.062, 4920.291
1197.544, 4923.248
1198.026, 4940.159
1198.509, 4944.293
1198.991, 4924.019
1199.473, 4919.736
1199.955, 4935.254
1200.437, 4948.169
1200.919, 4936.891
1201.401, 4918.605
1201.883, 4914.805
1202.365, 4922.392
1202.848, 4932.285
1203.330, 4943.495
1203.812, 4956.894
1204.294, 4974.376
1204.776, 4986.853
1205.258, 4979.964
1205.740, 4964.752
1206.222, 4954.496
1206.705, 4950.455
1207.187, 4953.871
1207.669, 4969.656
1208.151, 4979.747
1208.633, 4978.832
1209.115, 4973.539
1209.597, 4971.917
1210.079, 4973.418
1210.562, 4980.488
1211.044, 4996.303
1211.526, 4992.426
1212.008, 4954.035
1212.490, 4926.572
1212.972, 4933.354
1213.454, 4955.380
1213.936, 4951.220
1214.418, 4934.557
1214.901, 4932.959
1215.383, 4962.026
1215.865, 4987.933
1216.347, 5008.758
1216.829, 5023.655
1217.311, 5030.474
1217.793, 5031.635
1218.275, 5037.740
1218.757, 5043.434
1219.240, 5032.728
1219.722, 4968.359
1220.204, 4937.096
1220.686, 4955.941
1221.168, 4989.863
1221.650, 5010.748
1222.132, 5018.854
1222.614, 5007.099
1223.097, 4979.820
1223.579, 4966.392
1224.061, 4990.060
1224.543, 5011.975
1225.025, 5025.255
1225.507, 5034.302
1225.989, 5050.039
1226.471, 5065.123
1226.953, 5058.321
1227.436, 5026.268
1227.918, 5004.201
1228.400, 5007.155
1228.882, 5014.941
1229.364, 5023.901
1229.846, 5031.393
1230.328, 5032.289
1230.810, 5027.379
1231.292, 5015.218
1231.775, 4989.129
1232.257, 4984.255
1232.739, 5019.552
1233.221, 5056.106
1233.703, 5080.895
1234.185, 5090.739
1234.667, 5063.657
1235.149, 5015.686
1235.632, 4987.866
1236.114, 5001.006
1236.596, 5023.545
1237.078, 5059.837
1237.560, 5088.023
1238.042, 5089.446
1238.524, 5071.592
1239.006, 5044.779
1239.489, 5015.660
1239.971, 5006.998
1240.453, 5050.338
1240.935, 5080.636
1241.417, 5090.078
1241.899, 5086.978
1242.381, 5074.462
1242.863, 5057.936
1243.345, 5048.979
1243.828, 5047.385
1244.310, 5048.001
1244.792, 5047.812
1245.274, 5053.358
1245.756, 5068.840
1246.238, 5083.904
1246.720, 5078.322
1247.202, 5063.956
1247.684, 5065.408
1248.167, 5085.324
1248.649, 5094.629
1249.131, 5079.913
1249.613, 5070.328
1250.095, 5075.202
1250.577, 5085.484
1251.059, 5084.124
1251.541, 5078.896
1252.023, 5085.287
1252.506, 5109.264
1252.988, 5121.390
1253.470, 5113.831
1253.952, 5108.893
1254.434, 5116.511
1254.916, 5130.233
1255.398, 5144.755
1255.880, 5155.580
1256.363, 5152.987
1256.845, 5123.976
1257.327, 5115.419
1257.809, 5134.602
1258.291, 5151.674
1258.773, 5144.990
1259.255, 5130.396
1259.737, 5129.926
1260.219, 5139.824
1260.702, 5153.613
1261.184, 5176.050
1261.666, 5186.131
1262.148, 5181.459
1262.630, 5176.283
1263.112, 5183.384
1263.594, 5194.229
1264.076, 5203.715
1264.558, 5208.175
1265.041, 5195.326
1265.523, 5152.621
1266.005, 5140.867
1266.487, 5167.307
1266.969, 5202.703
1267.451, 5232.364
1267.933, 5249.907
1268.415, 5237.158
1268.898, 5206.125
1269.380, 5206.322
1269.862, 5244.798
1270.344, 5266.083
1270.826, 5261.107
1271.308, 5246.666
1271.790, 5219.806
1272.272, 5205.407
1272.755, 5238.110
1273.237, 5301.610
1273.719, 5329.805
1274.201, 5322.036
1274.683, 5313.905
1275.165, 5313.786
1275.647, 5311.658
1276.129, 5290.790
1276.611, 5273.528
1277.094, 5280.542
1277.576, 5304.989
1278.058, 5312.621
1278.540, 5305.251
1279.022, 5299.491
1279.504, 5300.258
1279.986, 5303.290
1280.468, 5300.465
1280.950, 5305.434
1281.433, 5330.692
1281.915, 5370.349
1282.397, 5392.500
1282.879, 5398.526
1283.361, 5394.540
1283.843, 5376.097
1284.325, 5362.428
1284.807, 5364.561
1285.290, 5369.440
1285.772, 5370.383
1286.254, 5367.457
1286.736, 5354.116
1287.218, 5336.391
1287.700, 5334.913
1288.182, 5375.807
1288.664, 5405.619
1289.146, 5417.271
1289.629, 5417.958
1290.111, 5408.467
1290.593, 5394.241
1291.075, 5390.843
1291.557, 5394.263
1292.039, 5391.501
1292.521, 5366.462
##END=



