##NAMES=Kutnohorite
##RRUFFID=R060473
##IDEAL CHEMISTRY=CaMn^2+^(CO_3_)_2_
##LOCALITY=N'Chwaning II mine, Kalahari manganese field, northern Cape Province, Republic of South Africa
##OWNER=RRUFF
##SOURCE=Michael Scott
##DESCRIPTION=Aggregate of parallel pink colored acicular crystals
##STATUS=The identification of this mineral has been confirmed by X-ray diffraction and chemical analysis
##URL=rruff.info/R060473
##MEASURED CHEMISTRY=Ca_1.00_(Mn^2+^_0.63_Ca_0.35_Mg_0.02_)(CO_3_)_2_
95.33472, 2.286628
95.81683, 2.422709
96.29895, 2.584743
96.78107, 2.734345
97.26318, 2.870013
97.74530, 3.018639
98.22742, 3.220340
98.70953, 3.474588
99.19165, 3.704530
99.67377, 3.881128
100.1559, 4.008605
100.6380, 4.130900
101.1201, 4.242557
101.6022, 4.357763
102.0844, 4.496841
102.5665, 4.667150
103.0486, 4.838828
103.5307, 4.992460
104.0128, 5.116706
104.4949, 5.283695
104.9771, 5.509033
105.4592, 5.771022
105.9413, 6.027370
106.4234, 6.269341
106.9055, 6.514462
107.3876, 6.772792
107.8697, 7.110517
108.3519, 7.358090
108.8340, 7.443994
109.3161, 7.413433
109.7982, 7.508365
110.2803, 7.837599
110.7624, 8.222484
111.2446, 8.568331
111.7267, 8.853602
112.2088, 9.126234
112.6909, 9.372767
113.1730, 9.598598
113.6551, 9.869879
114.1373, 10.28709
114.6194, 10.70962
115.1015, 11.02832
115.5836, 11.13226
116.0657, 11.20335
116.5478, 11.28674
117.0300, 11.38512
117.5121, 11.51048
117.9942, 11.69215
118.4763, 11.89775
118.9584, 12.08473
119.4405, 12.21599
119.9227, 12.34091
120.4048, 12.47053
120.8869, 12.59091
121.3690, 12.78560
121.8511, 13.18983
122.3332, 13.71026
122.8154, 14.15042
123.2975, 14.34850
123.7796, 14.44102
124.2617, 14.56445
124.7438, 14.73954
125.2259, 14.94997
125.7081, 15.16217
126.1902, 15.38092
126.6723, 15.58615
127.1544, 15.89722
127.6365, 16.28691
128.1186, 16.59945
128.6008, 16.77147
129.0829, 16.88851
129.5650, 17.08211
130.0471, 17.34737
130.5292, 17.60863
131.0113, 17.75948
131.4935, 17.83857
131.9756, 18.02099
132.4577, 18.41058
132.9398, 18.91261
133.4219, 19.22725
133.9040, 19.34017
134.3862, 19.40485
134.8683, 19.56043
135.3504, 19.80540
135.8325, 20.12259
136.3146, 20.51205
136.7967, 20.96989
137.2789, 21.49602
137.7610, 22.12024
138.2431, 22.75290
138.7252, 23.28382
139.2073, 23.70666
139.6894, 24.07084
140.1716, 24.37020
140.6537, 24.58669
141.1358, 24.89541
141.6179, 25.30897
142.1000, 25.80636
142.5821, 26.35993
143.0643, 27.02449
143.5464, 27.64057
144.0285, 28.11728
144.5106, 28.31640
144.9927, 28.73783
145.4748, 29.46069
145.9570, 30.38712
146.4391, 31.20704
146.9212, 31.90807
147.4033, 32.52932
147.8854, 33.08919
148.3675, 33.50088
148.8497, 33.98204
149.3318, 34.54684
149.8139, 35.18266
150.2960, 35.83572
150.7781, 36.46894
151.2602, 37.14188
151.7424, 37.88001
152.2245, 38.78984
152.7066, 39.64262
153.1887, 40.38933
153.6708, 41.03441
154.1529, 41.71659
154.6351, 42.57543
155.1172, 43.40476
155.5993, 44.06663
156.0814, 44.32007
156.5635, 44.64507
157.0456, 45.23929
157.5278, 46.09843
158.0099, 46.72874
158.4920, 46.92196
158.9741, 46.90133
159.4562, 46.86724
159.9383, 46.92099
160.4205, 46.92093
160.9026, 46.80827
161.3847, 46.57663
161.8668, 46.31408
162.3489, 46.07178
162.8310, 45.80966
163.3132, 45.48078
163.7953, 45.01904
164.2774, 44.52531
164.7595, 44.03659
165.2416, 43.54889
165.7237, 43.10185
166.2059, 42.76004
166.6880, 42.45997
167.1701, 42.10535
167.6522, 41.58006
168.1343, 41.03247
168.6164, 40.60104
169.0985, 40.33635
169.5807, 40.01073
170.0628, 39.40702
170.5449, 38.63350
171.0270, 37.90634
171.5091, 37.41334
171.9912, 36.97908
172.4734, 36.41297
172.9555, 35.64994
173.4376, 34.88003
173.9197, 34.25877
174.4018, 33.75687
174.8839, 33.30147
175.3661, 32.93440
175.8482, 32.56627
176.3303, 32.06778
176.8124, 31.38529
177.2945, 30.64456
177.7766, 29.96691
178.2588, 29.33843
178.7409, 28.73225
179.2230, 28.10995
179.7051, 27.49227
180.1872, 26.94007
180.6693, 26.48756
181.1515, 26.04848
181.6336, 25.49582
182.1157, 24.84258
182.5978, 24.18352
183.0799, 23.54876
183.5620, 22.94968
184.0442, 22.43122
184.5263, 22.00422
185.0084, 21.64994
185.4905, 21.34470
185.9726, 21.08834
186.4547, 20.84166
186.9369, 20.58349
187.4190, 20.31082
187.9011, 20.01461
188.3832, 19.66766
188.8653, 19.31575
189.3474, 19.05911
189.8296, 18.89697
190.3117, 18.78972
190.7938, 18.74217
191.2759, 18.74043
191.7580, 18.66852
192.2401, 18.47573
192.7223, 18.20858
193.2044, 17.99350
193.6865, 17.82906
194.1686, 17.71054
194.6507, 17.64425
195.1328, 17.62798
195.6150, 17.62996
196.0971, 17.66501
196.5792, 17.70776
197.0613, 17.62745
197.5434, 17.39765
198.0255, 17.17132
198.5077, 17.13526
198.9898, 17.29868
199.4719, 17.39995
199.9540, 17.35134
200.4361, 17.18870
200.9182, 17.11596
201.4004, 17.15336
201.8825, 17.22106
202.3646, 17.23982
202.8467, 17.20487
203.3288, 17.15988
203.8109, 17.10732
204.2931, 17.05118
204.7752, 17.03258
205.2573, 17.06435
205.7394, 17.10308
206.2215, 17.09041
206.7036, 17.00908
207.1858, 16.97020
207.6679, 17.01582
208.1500, 17.13830
208.6321, 17.22220
209.1142, 17.26546
209.5963, 17.27418
210.0785, 17.23431
210.5606, 17.11599
211.0427, 17.06702
211.5248, 17.15361
212.0069, 17.37064
212.4890, 17.47570
212.9712, 17.42971
213.4533, 17.33228
213.9354, 17.29034
214.4175, 17.31210
214.8996, 17.36469
215.3817, 17.44945
215.8639, 17.56572
216.3460, 17.66807
216.8281, 17.75445
217.3102, 17.82972
217.7923, 17.89814
218.2744, 17.96029
218.7565, 18.01785
219.2387, 18.08669
219.7208, 18.17019
220.2029, 18.13666
220.6850, 17.89889
221.1671, 17.64789
221.6492, 17.61132
222.1314, 17.87531
222.6135, 18.15827
223.0956, 18.40335
223.5777, 18.61409
224.0598, 18.77799
224.5419, 18.87688
225.0241, 18.95079
225.5062, 19.04634
225.9883, 19.18003
226.4704, 19.29887
226.9525, 19.38688
227.4346, 19.44403
227.9168, 19.49991
228.3989, 19.55840
228.8810, 19.61149
229.3631, 19.63691
229.8452, 19.57533
230.3273, 19.60789
230.8095, 19.80060
231.2916, 20.16138
231.7737, 20.46325
232.2558, 20.70155
232.7379, 20.88621
233.2200, 21.01365
233.7022, 21.03695
234.1843, 21.09350
234.6664, 21.20334
235.1485, 21.36513
235.6306, 21.59878
236.1127, 21.95221
236.5949, 22.33151
237.0770, 22.65212
237.5591, 22.90402
238.0412, 23.11280
238.5233, 23.25768
239.0054, 23.33952
239.4876, 23.49346
239.9697, 23.74181
240.4518, 24.03911
240.9339, 24.35346
241.4160, 24.71240
241.8981, 25.02780
242.3803, 25.23842
242.8624, 25.35304
243.3445, 25.64730
243.8266, 26.21537
244.3087, 26.85846
244.7908, 27.41016
245.2730, 27.81564
245.7551, 28.24090
246.2372, 28.72564
246.7193, 29.26154
247.2014, 29.72862
247.6835, 30.05972
248.1657, 30.39740
248.6478, 30.84339
249.1299, 31.42536
249.6120, 32.06261
250.0941, 32.76492
250.5762, 33.52197
251.0584, 34.25287
251.5405, 34.93886
252.0226, 35.61591
252.5047, 36.29584
252.9868, 36.97414
253.4689, 37.66547
253.9511, 38.30763
254.4332, 38.95541
254.9153, 39.93484
255.3974, 41.42727
255.8795, 42.96977
256.3616, 44.22683
256.8438, 45.04331
257.3259, 46.00685
257.8080, 47.20207
258.2901, 48.57013
258.7722, 49.91744
259.2543, 51.20761
259.7365, 52.54688
260.2186, 54.03431
260.7007, 55.69882
261.1828, 57.36804
261.6649, 58.99278
262.1470, 60.62259
262.6292, 62.49328
263.1113, 64.69595
263.5934, 66.92812
264.0755, 69.01263
264.5576, 70.90515
265.0397, 72.86898
265.5219, 74.93587
266.0040, 77.07123
266.4861, 79.23283
266.9682, 81.35168
267.4503, 83.63565
267.9324, 86.20334
268.4146, 89.21585
268.8967, 91.90759
269.3788, 94.14335
269.8609, 96.19740
270.3430, 98.56443
270.8251, 101.3247
271.3073, 104.1176
271.7894, 106.7184
272.2715, 109.0971
272.7536, 111.6435
273.2357, 114.3953
273.7178, 117.2194
274.2000, 119.9665
274.6821, 122.6197
275.1642, 125.1962
275.6463, 127.6870
276.1284, 130.0908
276.6105, 132.4960
277.0927, 134.9220
277.5748, 137.3048
278.0569, 139.6057
278.5390, 141.8360
279.0211, 143.8345
279.5032, 145.5082
279.9854, 146.8713
280.4675, 148.2232
280.9496, 149.6267
281.4317, 150.8154
281.9138, 151.4884
282.3959, 151.6381
282.8781, 151.5136
283.3602, 151.1821
283.8423, 150.6233
284.3244, 149.7579
284.8065, 148.5758
285.2886, 147.1342
285.7708, 145.4480
286.2529, 143.5220
286.7350, 141.4794
287.2171, 139.3896
287.6992, 137.1562
288.1813, 134.5042
288.6635, 131.4074
289.1456, 128.1655
289.6277, 124.9911
290.1098, 121.8582
290.5919, 118.6997
291.0740, 115.4629
291.5562, 112.2031
292.0383, 109.1117
292.5204, 106.1552
293.0025, 103.1977
293.4846, 100.0564
293.9667, 96.80647
294.4489, 93.70667
294.9310, 90.83780
295.4131, 88.08524
295.8952, 85.27110
296.3773, 82.42819
296.8594, 79.69482
297.3416, 77.18777
297.8237, 74.81441
298.3058, 72.36479
298.7879, 69.77767
299.2700, 67.25742
299.7521, 65.14533
300.2343, 63.33901
300.7164, 61.61790
301.1985, 59.86858
301.6806, 58.11528
302.1627, 56.38933
302.6448, 54.66901
303.1270, 53.07697
303.6091, 51.79163
304.0912, 50.71111
304.5733, 49.56285
305.0554, 48.13219
305.5375, 46.64611
306.0197, 45.40145
306.5018, 44.39213
306.9839, 43.41446
307.4660, 42.31507
307.9481, 41.16496
308.4302, 40.06629
308.9124, 39.01711
309.3945, 38.04990
309.8766, 37.20647
310.3587, 36.46904
310.8408, 35.78548
311.3229, 35.12317
311.8051, 34.49357
312.2872, 33.93169
312.7693, 33.47490
313.2514, 33.02944
313.7335, 32.55157
314.2156, 32.04094
314.6978, 31.49138
315.1799, 30.81411
315.6620, 30.14676
316.1441, 29.61419
316.6262, 29.27449
317.1083, 28.95241
317.5905, 28.56417
318.0726, 28.14580
318.5547, 27.75425
319.0368, 27.42571
319.5189, 27.11854
320.0010, 26.81840
320.4832, 26.52274
320.9653, 26.23030
321.4474, 25.92278
321.9295, 25.62445
322.4116, 25.36376
322.8937, 25.11085
323.3759, 24.93160
323.8580, 24.90301
324.3401, 25.03911
324.8222, 25.04905
325.3043, 24.78897
325.7864, 24.44219
326.2686, 24.15006
326.7507, 23.93003
327.2328, 23.76059
327.7149, 23.67707
328.1970, 23.66699
328.6791, 23.58695
329.1613, 23.36107
329.6434, 23.12415
330.1255, 22.94355
330.6076, 22.84394
331.0897, 22.76689
331.5718, 22.74452
332.0540, 22.74296
332.5361, 22.66055
333.0182, 22.43521
333.5003, 22.20933
333.9824, 22.04420
334.4645, 21.96271
334.9467, 21.86617
335.4288, 21.73873
335.9109, 21.60829
336.3930, 21.52443
336.8751, 21.49836
337.3572, 21.49297
337.8394, 21.51291
338.3215, 21.56213
338.8036, 21.52925
339.2857, 21.37633
339.7678, 21.20705
340.2499, 21.16178
340.7320, 21.27743
341.2141, 21.29516
341.6963, 21.12486
342.1784, 20.81498
342.6605, 20.58008
343.1426, 20.41930
343.6247, 20.34611
344.1068, 20.42297
344.5890, 20.63944
345.0711, 20.77254
345.5532, 20.77591
346.0353, 20.69648
346.5174, 20.61671
346.9995, 20.53610
347.4817, 20.46917
347.9638, 20.42974
348.4459, 20.41182
348.9280, 20.40558
349.4101, 20.41965
349.8922, 20.40660
350.3744, 20.24825
350.8565, 19.99262
351.3386, 19.82412
351.8207, 19.92344
352.3028, 20.13540
352.7849, 20.19123
353.2671, 20.08645
353.7492, 19.95238
354.2313, 19.90856
354.7134, 19.91353
355.1955, 19.89135
355.6776, 19.77986
356.1598, 19.66649
356.6419, 19.65089
357.1240, 19.71548
357.6061, 19.76549
358.0882, 19.74467
358.5703, 19.68070
359.0525, 19.59026
359.5346, 19.44473
360.0167, 19.33895
360.4988, 19.35472
360.9809, 19.45178
361.4630, 19.54213
361.9452, 19.57094
362.4273, 19.59617
362.9094, 19.66651
363.3915, 19.80851
363.8736, 19.89318
364.3557, 19.83054
364.8379, 19.70289
365.3200, 19.60658
365.8021, 19.59848
366.2842, 19.58936
366.7663, 19.54336
367.2484, 19.45914
367.7306, 19.40731
368.2127, 19.40318
368.6948, 19.43013
369.1769, 19.47731
369.6590, 19.60738
370.1411, 19.67994
370.6233, 19.65918
371.1054, 19.57199
371.5875, 19.52166
372.0696, 19.54281
372.5517, 19.55904
373.0338, 19.52796
373.5160, 19.40429
373.9981, 19.37261
374.4802, 19.48906
374.9623, 19.65222
375.4444, 19.68418
375.9265, 19.52944
376.4087, 19.39829
376.8908, 19.35660
377.3729, 19.40120
377.8550, 19.45354
378.3371, 19.51996
378.8192, 19.57597
379.3014, 19.56729
379.7835, 19.48691
380.2656, 19.51425
380.7477, 19.72938
381.2298, 20.03009
381.7119, 20.15086
382.1941, 20.08795
382.6762, 19.97419
383.1583, 19.88391
383.6404, 19.81327
384.1225, 19.74210
384.6046, 19.65961
385.0868, 19.60852
385.5689, 19.66391
386.0510, 19.80331
386.5331, 19.94225
387.0152, 20.06734
387.4973, 20.15874
387.9795, 20.16837
388.4616, 20.09652
388.9437, 20.02645
389.4258, 20.03779
389.9079, 20.08812
390.3900, 20.11551
390.8722, 20.08335
391.3543, 20.04363
391.8364, 20.03935
392.3185, 20.06091
392.8006, 20.07255
393.2827, 20.02703
393.7649, 19.98440
394.2470, 19.99296
394.7291, 20.07982
395.2112, 20.16235
395.6933, 20.20087
396.1754, 20.21877
396.6576, 20.25119
397.1397, 20.35574
397.6218, 20.42905
398.1039, 20.41777
398.5860, 20.30975
399.0681, 20.24197
399.5503, 20.27988
400.0324, 20.33163
400.5145, 20.32703
400.9966, 20.16285
401.4787, 20.08916
401.9608, 20.16647
402.4430, 20.35106
402.9251, 20.47298
403.4072, 20.51276
403.8893, 20.51979
404.3714, 20.51517
404.8535, 20.50133
405.3357, 20.45158
405.8178, 20.32644
406.2999, 20.21796
406.7820, 20.30566
407.2641, 20.64146
407.7462, 20.86610
408.2284, 20.82725
408.7105, 20.58986
409.1926, 20.47282
409.6747, 20.48219
410.1568, 20.56699
410.6389, 20.73307
411.1211, 20.95518
411.6032, 21.09028
412.0853, 21.10139
412.5674, 21.04335
413.0495, 20.97463
413.5316, 20.90151
414.0138, 20.85687
414.4959, 20.88450
414.9780, 20.94210
415.4601, 20.96071
415.9422, 20.93460
416.4243, 20.90445
416.9065, 20.87533
417.3886, 20.86942
417.8707, 20.92183
418.3528, 21.11067
418.8349, 21.29813
419.3170, 21.39459
419.7992, 21.41382
420.2813, 21.41757
420.7634, 21.41196
421.2455, 21.41498
421.7276, 21.45227
422.2097, 21.57516
422.6919, 21.61820
423.1740, 21.42732
423.6561, 21.15721
424.1382, 21.04083
424.6203, 21.25969
425.1024, 21.49259
425.5846, 21.67272
426.0667, 21.79752
426.5488, 21.89028
427.0309, 21.94806
427.5130, 21.97732
427.9951, 21.98142
428.4773, 21.95464
428.9594, 21.91184
429.4415, 21.83718
429.9236, 21.75525
430.4057, 21.73464
430.8878, 21.79264
431.3700, 21.86040
431.8521, 21.91660
432.3342, 21.96145
432.8163, 21.95733
433.2984, 21.88761
433.7805, 21.82743
434.2627, 21.88744
434.7448, 22.05334
435.2269, 22.17892
435.7090, 22.22055
436.1911, 22.20831
436.6732, 22.19119
437.1554, 22.17034
437.6375, 22.15721
438.1196, 22.12538
438.6017, 22.11554
439.0838, 22.23332
439.5659, 22.52261
440.0480, 22.76291
440.5302, 22.69307
441.0123, 22.46006
441.4944, 22.31067
441.9765, 22.45806
442.4586, 22.62696
442.9407, 22.62088
443.4229, 22.46158
443.9050, 22.34659
444.3871, 22.37551
444.8692, 22.46491
445.3513, 22.56871
445.8334, 22.72086
446.3156, 22.81220
446.7977, 22.76559
447.2798, 22.65452
447.7619, 22.60857
448.2440, 22.69289
448.7261, 22.78233
449.2083, 22.85503
449.6904, 22.91168
450.1725, 22.94130
450.6546, 22.92186
451.1367, 22.90245
451.6188, 22.92724
452.1010, 23.01881
452.5831, 23.07343
453.0652, 23.06546
453.5473, 23.03257
454.0294, 23.07185
454.5115, 23.19407
454.9937, 23.30334
455.4758, 23.36098
455.9579, 23.36991
456.4400, 23.33276
456.9221, 23.24304
457.4042, 23.16383
457.8864, 23.14613
458.3685, 23.18703
458.8506, 23.29331
459.3327, 23.51143
459.8148, 23.71833
460.2969, 23.71526
460.7791, 23.56519
461.2612, 23.47647
461.7433, 23.65365
462.2254, 23.88774
462.7075, 23.99263
463.1896, 23.94603
463.6718, 23.85661
464.1539, 23.71245
464.6360, 23.58414
465.1181, 23.54486
465.6002, 23.69652
466.0823, 23.84952
466.5645, 23.96454
467.0466, 24.04479
467.5287, 24.10356
468.0108, 24.13832
468.4929, 24.15443
468.9750, 24.14079
469.4572, 24.06885
469.9393, 24.07771
470.4214, 24.22115
470.9035, 24.39571
471.3856, 24.48212
471.8677, 24.44728
472.3499, 24.43029
472.8320, 24.46344
473.3141, 24.52772
473.7962, 24.54568
474.2783, 24.50793
474.7604, 24.49303
475.2426, 24.58294
475.7247, 24.75013
476.2068, 24.79943
476.6889, 24.70675
477.1710, 24.61036
477.6531, 24.71449
478.1353, 24.94262
478.6174, 25.07275
479.0995, 24.94903
479.5816, 24.79135
480.0637, 24.88400
480.5458, 25.16679
481.0280, 25.41525
481.5101, 25.47502
481.9922, 25.46703
482.4743, 25.50026
482.9564, 25.60540
483.4385, 25.64669
483.9207, 25.46545
484.4028, 25.23533
484.8849, 25.13900
485.3670, 25.35199
485.8491, 25.55006
486.3312, 25.66014
486.8134, 25.70115
487.2955, 25.78030
487.7776, 25.99178
488.2597, 26.12635
488.7418, 26.06787
489.2239, 25.74855
489.7061, 25.57437
490.1882, 25.58157
490.6703, 25.68067
491.1524, 25.79086
491.6345, 25.91935
492.1166, 26.00155
492.5988, 26.01543
493.0809, 25.98598
493.5630, 25.97362
494.0451, 25.97756
494.5272, 25.98599
495.0093, 25.95484
495.4915, 25.92859
495.9736, 26.03525
496.4557, 26.28637
496.9378, 26.54720
497.4199, 26.73898
497.9020, 26.85190
498.3842, 26.85373
498.8663, 26.63580
499.3484, 26.44837
499.8305, 26.46865
500.3126, 26.64407
500.7947, 26.84004
501.2769, 27.14575
501.7590, 27.34482
502.2411, 27.26793
502.7232, 26.84382
503.2053, 26.58572
503.6874, 26.66997
504.1696, 26.87895
504.6517, 27.06182
505.1338, 27.24446
505.6159, 27.35106
506.0980, 27.34838
506.5801, 27.27867
507.0623, 27.23634
507.5444, 27.22303
508.0265, 27.23035
508.5086, 27.25857
508.9907, 27.30567
509.4728, 27.35597
509.9550, 27.40911
510.4371, 27.46693
510.9192, 27.55396
511.4013, 27.65135
511.8834, 27.67159
512.3655, 27.58262
512.8477, 27.47808
513.3298, 27.47774
513.8119, 27.54772
514.2940, 27.60705
514.7761, 27.60255
515.2582, 27.58637
515.7404, 27.57258
516.2225, 27.57050
516.7046, 27.64100
517.1867, 27.91535
517.6688, 28.19906
518.1509, 28.35794
518.6331, 28.32071
519.1152, 28.28724
519.5973, 28.28575
520.0794, 28.30515
520.5615, 28.33602
521.0436, 28.44236
521.5258, 28.45003
522.0079, 28.25337
522.4900, 27.92868
522.9721, 27.88612
523.4542, 28.21399
523.9363, 28.56444
524.4185, 28.75828
524.9006, 28.79688
525.3827, 28.81736
525.8648, 28.81734
526.3469, 28.81384
526.8290, 28.83081
527.3112, 28.86176
527.7933, 28.87516
528.2754, 28.84789
528.7575, 28.83041
529.2396, 28.91654
529.7217, 29.06789
530.2039, 29.16978
530.6860, 29.05685
531.1681, 28.95352
531.6502, 29.08155
532.1323, 29.44328
532.6144, 29.69491
533.0966, 29.60197
533.5787, 29.41532
534.0608, 29.30783
534.5429, 29.32137
535.0250, 29.39075
535.5071, 29.56540
535.9893, 29.77172
536.4714, 29.90131
536.9535, 29.93857
537.4356, 29.92458
537.9177, 29.84017
538.3998, 29.70752
538.8820, 29.67938
539.3641, 29.77428
539.8462, 29.88897
540.3283, 29.96105
540.8104, 29.99557
541.2925, 30.03302
541.7747, 30.07697
542.2568, 30.10927
542.7389, 30.07768
543.2210, 30.02031
543.7031, 30.03773
544.1852, 30.20856
544.6674, 30.38169
545.1495, 30.36555
545.6316, 30.23893
546.1137, 30.19848
546.5958, 30.47982
547.0779, 30.74620
547.5601, 30.77640
548.0422, 30.55247
548.5243, 30.40698
549.0064, 30.46649
549.4885, 30.58626
549.9706, 30.67444
550.4528, 30.68345
550.9349, 30.75340
551.4170, 30.93951
551.8991, 31.14360
552.3812, 31.20207
552.8633, 31.06848
553.3455, 30.97902
553.8276, 30.99811
554.3097, 31.09598
554.7918, 31.17467
555.2739, 31.23307
555.7560, 31.31360
556.2382, 31.50625
556.7203, 31.72775
557.2024, 31.76260
557.6845, 31.59696
558.1666, 31.40977
558.6487, 31.31279
559.1309, 31.29665
559.6130, 31.35909
560.0951, 31.53432
560.5772, 31.71880
561.0593, 31.90814
561.5414, 32.06686
562.0236, 32.13030
562.5057, 31.94592
562.9878, 31.80773
563.4699, 31.81598
563.9520, 31.95623
564.4341, 32.08248
564.9163, 32.20043
565.3984, 32.29574
565.8805, 32.35571
566.3626, 32.37189
566.8447, 32.40356
567.3268, 32.44921
567.8090, 32.51465
568.2911, 32.62336
568.7732, 32.76814
569.2553, 32.86860
569.7374, 32.89356
570.2195, 32.90078
570.7017, 33.01073
571.1838, 33.17985
571.6659, 33.26863
572.1480, 33.07427
572.6301, 32.87042
573.1122, 32.95515
573.5944, 33.29040
574.0765, 33.51525
574.5586, 33.29326
575.0407, 33.04253
575.5228, 33.04805
576.0049, 33.48769
576.4871, 33.77565
576.9692, 33.80582
577.4513, 33.70500
577.9334, 33.57157
578.4155, 33.35521
578.8976, 33.23442
579.3798, 33.24753
579.8619, 33.35435
580.3440, 33.45972
580.8261, 33.56114
581.3082, 33.69221
581.7903, 33.90792
582.2725, 34.15163
582.7546, 34.21714
583.2367, 34.11843
583.7188, 34.03527
584.2009, 34.16506
584.6830, 34.36168
585.1652, 34.41191
585.6473, 34.26601
586.1294, 34.12655
586.6115, 34.09743
587.0936, 34.14170
587.5757, 34.22118
588.0578, 34.30854
588.5399, 34.45024
589.0220, 34.72329
589.5042, 35.05051
589.9863, 35.25440
590.4684, 35.28000
590.9505, 35.26367
591.4326, 35.21330
591.9147, 35.14152
592.3969, 35.18624
592.8790, 35.38054
593.3611, 35.55081
593.8432, 35.55026
594.3253, 35.41747
594.8074, 35.35146
595.2896, 35.35890
595.7717, 35.44835
596.2538, 35.75498
596.7359, 36.12555
597.2180, 36.25965
597.7001, 35.98523
598.1823, 35.66306
598.6644, 35.48155
599.1465, 35.42508
599.6286, 35.46706
600.1107, 35.70929
600.5928, 35.93381
601.0750, 36.05755
601.5571, 36.09190
602.0392, 36.16258
602.5213, 36.32818
603.0034, 36.45147
603.4855, 36.44825
603.9677, 36.30076
604.4498, 36.29401
604.9319, 36.46059
605.4140, 36.66471
605.8961, 36.77185
606.3782, 36.79874
606.8604, 36.84543
607.3425, 36.92328
607.8246, 37.02841
608.3067, 37.21128
608.7888, 37.41455
609.2709, 37.50419
609.7531, 37.32285
610.2352, 37.14214
610.7173, 37.18118
611.1994, 37.36480
611.6815, 37.48781
612.1636, 37.43254
612.6458, 37.35651
613.1279, 37.29868
613.6100, 37.26199
614.0921, 37.30337
614.5742, 37.46672
615.0563, 37.65178
615.5385, 37.81312
616.0206, 37.95735
616.5027, 38.04817
616.9848, 38.08427
617.4669, 38.07179
617.9490, 37.96244
618.4312, 37.79155
618.9133, 37.76841
619.3954, 37.97921
619.8775, 38.23321
620.3596, 38.24871
620.8417, 38.13382
621.3239, 38.12856
621.8060, 38.44970
622.2881, 38.80272
622.7702, 39.06504
623.2523, 39.22838
623.7344, 39.26845
624.2166, 39.00162
624.6987, 38.77694
625.1808, 38.76991
625.6629, 39.00319
626.1450, 39.09006
626.6271, 38.93817
627.1093, 38.79000
627.5914, 38.83620
628.0735, 39.09368
628.5556, 39.30470
629.0377, 39.46215
629.5198, 39.55048
630.0020, 39.49745
630.4841, 39.35584
630.9662, 39.29883
631.4483, 39.39783
631.9304, 39.53797
632.4125, 39.63259
632.8947, 39.68475
633.3768, 39.70197
633.8589, 39.63367
634.3410, 39.58532
634.8231, 39.57129
635.3052, 39.60444
635.7874, 39.75626
636.2695, 40.18263
636.7516, 40.56110
637.2337, 40.78341
637.7158, 40.84685
638.1979, 40.80803
638.6801, 40.62197
639.1622, 40.45722
639.6443, 40.45884
640.1264, 40.60940
640.6085, 40.77245
641.0906, 40.94023
641.5728, 41.09378
642.0549, 41.23439
642.5370, 41.34344
643.0191, 41.37488
643.5012, 41.25839
643.9833, 41.17935
644.4655, 41.30133
644.9476, 41.53147
645.4297, 41.71623
645.9118, 41.85200
646.3939, 41.89502
646.8760, 41.72229
647.3582, 41.42836
647.8403, 41.40641
648.3224, 41.82362
648.8045, 42.18239
649.2866, 42.28446
649.7687, 42.15803
650.2509, 42.03939
650.7330, 41.92279
651.2151, 41.86304
651.6972, 41.93227
652.1793, 42.08419
652.6614, 42.20191
653.1436, 42.27503
653.6257, 42.35555
654.1078, 42.52475
654.5899, 42.70273
655.0720, 42.79079
655.5541, 42.69536
656.0363, 42.65787
656.5184, 42.80310
657.0005, 43.02813
657.4826, 43.20168
657.9647, 43.31408
658.4468, 43.37447
658.9290, 43.33961
659.4111, 43.27785
659.8932, 43.39928
660.3753, 43.73696
660.8574, 43.96926
661.3395, 43.93082
661.8217, 43.73641
662.3038, 43.65989
662.7859, 43.68978
663.2680, 43.74894
663.7501, 43.79891
664.2322, 43.84819
664.7144, 43.89154
665.1965, 43.93115
665.6786, 44.01955
666.1607, 44.26981
666.6428, 44.50960
667.1249, 44.61927
667.6071, 44.51992
668.0892, 44.47728
668.5713, 44.51604
669.0534, 44.58578
669.5355, 44.63531
670.0176, 44.65572
670.4998, 44.73040
670.9819, 44.88171
671.4640, 45.05195
671.9461, 45.15437
672.4282, 45.20166
672.9103, 45.26058
673.3925, 45.39277
673.8746, 45.47237
674.3567, 45.24898
674.8388, 44.88076
675.3209, 44.71008
675.8030, 45.10807
676.2852, 45.49734
676.7673, 45.60266
677.2494, 45.47710
677.7315, 45.48421
678.2136, 45.73363
678.6957, 45.97904
679.1779, 46.11983
679.6600, 46.16500
680.1421, 46.31218
680.6242, 46.58768
681.1063, 46.82326
681.5884, 46.86513
682.0706, 46.77610
682.5527, 46.75734
683.0348, 46.82046
683.5169, 46.91524
683.9990, 47.06765
684.4811, 47.19907
684.9633, 47.18629
685.4454, 46.92051
685.9275, 46.78990
686.4096, 47.02861
686.8917, 47.42137
687.3738, 47.73610
687.8560, 47.92213
688.3381, 48.09752
688.8202, 48.25604
689.3023, 48.41899
689.7844, 48.65124
690.2665, 48.96619
690.7487, 49.15685
691.2308, 49.09833
691.7129, 48.99261
692.1950, 49.29098
692.6771, 49.87321
693.1592, 50.30843
693.6414, 50.12916
694.1235, 49.93317
694.6056, 50.23861
695.0877, 50.94350
695.5698, 51.61040
696.0519, 52.08414
696.5341, 52.50947
697.0162, 52.90358
697.4983, 53.26792
697.9804, 53.81256
698.4625, 54.62997
698.9446, 55.44377
699.4268, 56.05901
699.9089, 56.49305
700.3910, 57.02309
700.8731, 57.64824
701.3552, 58.38274
701.8373, 59.31752
702.3195, 60.35017
702.8016, 61.26265
703.2837, 62.00675
703.7658, 62.80819
704.2479, 63.78310
704.7300, 64.89378
705.2122, 66.11179
705.6943, 67.52849
706.1764, 68.89413
706.6585, 70.17292
707.1406, 71.41434
707.6227, 72.67788
708.1049, 73.94087
708.5870, 75.33886
709.0691, 76.91031
709.5512, 78.56306
710.0333, 80.15453
710.5154, 81.68811
710.9976, 83.14854
711.4797, 84.55438
711.9618, 85.84948
712.4439, 87.03592
712.9260, 88.05624
713.4081, 88.80103
713.8903, 89.30688
714.3724, 89.44308
714.8545, 89.11639
715.3366, 88.34753
715.8187, 87.38863
716.3008, 86.27193
716.7830, 84.89207
717.2651, 83.11382
717.7472, 80.99989
718.2293, 79.13961
718.7114, 77.54436
719.1935, 76.02045
719.6757, 74.38679
720.1578, 72.74847
720.6399, 71.30417
721.1220, 70.05976
721.6041, 68.80322
722.0862, 67.30862
722.5684, 65.84782
723.0505, 64.60611
723.5326, 63.63131
724.0147, 62.81159
724.4968, 62.33299
724.9789, 61.83769
725.4611, 61.04722
725.9432, 59.80856
726.4253, 58.90326
726.9074, 58.37576
727.3895, 58.02954
727.8716, 57.72358
728.3538, 57.42680
728.8359, 56.96590
729.3180, 56.25299
729.8001, 55.65221
730.2822, 55.62511
730.7643, 55.86116
731.2465, 55.93859
731.7286, 55.58635
732.2107, 55.30195
732.6928, 55.30882
733.1749, 55.43206
733.6570, 55.38353
734.1392, 54.98704
734.6213, 54.82771
735.1034, 55.05717
735.5855, 55.47887
736.0676, 55.72747
736.5497, 55.80590
737.0319, 55.74225
737.5140, 55.44622
737.9961, 55.15641
738.4782, 55.23804
738.9603, 55.58364
739.4424, 55.91569
739.9246, 56.23686
740.4067, 56.39156
740.8888, 56.18600
741.3709, 55.71971
741.8530, 55.45879
742.3351, 55.58008
742.8173, 55.65595
743.2994, 55.48295
743.7815, 55.16396
744.2636, 55.38494
744.7457, 56.19651
745.2278, 56.84601
745.7100, 56.72496
746.1921, 56.21443
746.6742, 56.04243
747.1563, 56.17101
747.6384, 56.33120
748.1205, 56.36033
748.6027, 56.37001
749.0848, 56.44279
749.5669, 56.58630
750.0490, 56.70675
750.5311, 56.79486
751.0132, 56.85496
751.4954, 56.88070
751.9775, 56.86790
752.4596, 56.87461
752.9417, 56.89614
753.4238, 56.96193
753.9059, 57.14867
754.3881, 57.39137
754.8702, 57.50583
755.3523, 57.47585
755.8344, 57.44508
756.3165, 57.51717
756.7986, 57.63795
757.2808, 57.76632
757.7629, 57.90617
758.2450, 58.02116
758.7271, 58.08754
759.2092, 58.14342
759.6913, 58.20267
760.1735, 58.24273
760.6556, 58.40693
761.1377, 58.73936
761.6198, 59.06409
762.1019, 59.13993
762.5840, 59.04477
763.0662, 59.03824
763.5483, 59.17635
764.0304, 59.32866
764.5125, 59.35703
764.9946, 59.34908
765.4767, 59.41532
765.9589, 59.69075
766.4410, 59.84537
766.9231, 59.67775
767.4052, 59.45519
767.8873, 59.47594
768.3694, 59.81924
768.8516, 60.09640
769.3337, 60.25756
769.8158, 60.36125
770.2979, 60.48426
770.7800, 60.62201
771.2621, 60.76929
771.7443, 60.95312
772.2264, 61.07546
772.7085, 61.00265
773.1906, 60.82899
773.6727, 60.69512
774.1548, 60.57350
774.6370, 60.58392
775.1191, 60.83581
775.6012, 61.19035
776.0833, 61.41821
776.5654, 61.48191
777.0475, 61.59288
777.5297, 61.81086
778.0118, 62.06068
778.4939, 62.23795
778.9760, 62.33542
779.4581, 62.30961
779.9402, 62.02427
780.4224, 61.78527
780.9045, 61.90576
781.3866, 62.23655
781.8687, 62.49804
782.3508, 62.42287
782.8329, 62.51403
783.3151, 63.03057
783.7972, 63.70377
784.2793, 63.87129
784.7614, 63.41605
785.2435, 63.09414
785.7256, 63.14420
786.2077, 63.40193
786.6898, 63.57345
787.1719, 63.67299
787.6541, 63.74071
788.1362, 63.76871
788.6183, 63.80246
789.1004, 63.88171
789.5825, 63.99163
790.0646, 64.09126
790.5468, 64.17414
791.0289, 64.24495
791.5110, 64.29739
791.9931, 64.33988
792.4752, 64.39223
792.9573, 64.45319
793.4395, 64.53785
793.9216, 64.67020
794.4037, 64.80900
794.8858, 64.85011
795.3679, 64.82597
795.8500, 64.83970
796.3322, 64.94250
796.8143, 65.09500
797.2964, 65.33874
797.7785, 65.62468
798.2606, 65.76840
798.7427, 65.66782
799.2249, 65.55016
799.7070, 65.42879
800.1891, 65.34287
800.6712, 65.47753
801.1533, 65.83678
801.6354, 66.12224
802.1176, 66.17493
802.5997, 66.11720
803.0818, 66.08624
803.5639, 66.09225
804.0460, 66.16560
804.5281, 66.42175
805.0103, 66.64342
805.4924, 66.72569
805.9745, 66.68912
806.4566, 66.64928
806.9387, 66.58504
807.4208, 66.55588
807.9030, 66.54729
808.3851, 66.60453
808.8672, 66.93871
809.3493, 67.51430
809.8314, 68.01263
810.3135, 68.27914
810.7957, 68.39307
811.2778, 68.31425
811.7599, 68.13887
812.2420, 68.13705
812.7241, 68.71700
813.2062, 69.13500
813.6884, 69.03059
814.1705, 68.60107
814.6526, 68.49007
815.1347, 68.78316
815.6168, 69.04164
816.0989, 69.11620
816.5811, 69.09124
817.0632, 69.16119
817.5453, 69.30125
818.0274, 69.40834
818.5095, 69.41035
818.9916, 69.38439
819.4738, 69.31628
819.9559, 69.25811
820.4380, 69.34833
820.9201, 69.81314
821.4022, 70.17651
821.8843, 70.33842
822.3665, 70.35365
822.8486, 70.31736
823.3307, 70.22520
823.8128, 70.25016
824.2949, 70.51610
824.7770, 70.83057
825.2592, 70.88758
825.7413, 70.76947
826.2234, 70.67675
826.7055, 70.66695
827.1876, 70.72548
827.6697, 70.85916
828.1519, 71.05707
828.6340, 71.31172
829.1161, 71.71974
829.5982, 71.92643
830.0803, 71.79614
830.5624, 71.53121
831.0446, 71.52791
831.5267, 71.74939
832.0088, 72.01758
832.4909, 72.32398
832.9730, 72.56181
833.4551, 72.56981
833.9373, 72.46172
834.4194, 72.42063
834.9015, 72.55299
835.3836, 72.68226
835.8657, 72.77653
836.3478, 72.86212
836.8300, 72.97478
837.3121, 73.11330
837.7942, 73.28761
838.2763, 73.51794
838.7584, 73.73221
839.2405, 73.78466
839.7227, 73.75616
840.2048, 73.81688
840.6869, 74.04990
841.1690, 74.30104
841.6511, 74.52638
842.1332, 74.71752
842.6154, 74.86257
843.0975, 74.94765
843.5796, 75.01940
844.0617, 75.07718
844.5438, 75.12685
845.0259, 75.17695
845.5081, 75.22552
845.9902, 75.25669
846.4723, 75.26488
846.9544, 75.27835
847.4365, 75.33698
847.9186, 75.40719
848.4008, 75.44308
848.8829, 75.40205
849.3650, 75.42755
849.8471, 75.54907
850.3292, 75.73003
850.8113, 75.97330
851.2935, 76.29757
851.7756, 76.48621
852.2577, 76.51895
852.7398, 76.51546
853.2219, 76.56477
853.7040, 76.65759
854.1862, 76.78924
854.6683, 76.95907
855.1504, 77.12597
855.6325, 77.22932
856.1146, 77.35612
856.5967, 77.58564
857.0789, 77.93864
857.5610, 78.17638
858.0431, 78.26375
858.5252, 78.33189
859.0073, 78.45469
859.4894, 78.62661
859.9716, 78.88382
860.4537, 79.20934
860.9358, 79.41330
861.4179, 79.20679
861.9000, 78.97805
862.3821, 79.04060
862.8643, 79.39093
863.3464, 79.64420
863.8285, 79.72675
864.3106, 79.77823
864.7927, 79.81916
865.2748, 79.87296
865.7570, 80.08183
866.2391, 80.43657
866.7212, 80.74086
867.2033, 80.82330
867.6854, 80.86397
868.1675, 81.13303
868.6497, 81.52668
869.1318, 81.74063
869.6139, 81.44605
870.0960, 81.23330
870.5781, 81.27734
871.0602, 81.48416
871.5424, 81.63316
872.0245, 81.72150
872.5066, 81.76274
872.9887, 81.73353
873.4708, 81.71337
873.9529, 81.88699
874.4351, 82.15633
874.9172, 82.29596
875.3993, 82.08009
875.8814, 81.95479
876.3635, 82.15968
876.8456, 82.52363
877.3278, 82.81953
877.8099, 83.07362
878.2920, 83.16713
878.7741, 83.05774
879.2562, 82.86411
879.7383, 82.68271
880.2205, 82.54007
880.7026, 82.52916
881.1847, 82.68449
881.6668, 82.86511
882.1489, 82.93591
882.6310, 83.01375
883.1132, 83.22437
883.5953, 83.66322
884.0774, 83.96864
884.5595, 84.09160
885.0416, 84.17012
885.5237, 84.32860
886.0059, 84.54080
886.4880, 84.63762
886.9701, 84.61459
887.4522, 84.53518
887.9343, 84.31978
888.4164, 84.16162
888.8986, 84.25872
889.3807, 84.62009
889.8628, 84.99619
890.3449, 85.49627
890.8270, 85.78908
891.3091, 85.65472
891.7913, 85.21429
892.2734, 85.14697
892.7555, 85.43819
893.2376, 85.75928
893.7197, 85.96001
894.2018, 86.08483
894.6840, 86.12364
895.1661, 86.12602
895.6482, 86.22899
896.1303, 86.63314
896.6124, 86.93905
897.0945, 87.01865
897.5767, 86.98238
898.0588, 87.05831
898.5409, 87.24966
899.0230, 87.49870
899.5051, 87.83998
899.9872, 88.10889
900.4694, 88.04201
900.9515, 87.77927
901.4336, 87.53686
901.9157, 87.28214
902.3978, 87.23889
902.8799, 87.66281
903.3621, 88.19355
903.8442, 88.50010
904.3263, 88.51088
904.8084, 88.77287
905.2905, 89.37096
905.7726, 89.89586
906.2548, 89.79411
906.7369, 89.42577
907.2190, 89.43906
907.7011, 89.91142
908.1832, 90.28064
908.6653, 90.16237
909.1475, 89.98608
909.6296, 89.97291
910.1117, 90.12173
910.5938, 90.41961
911.0759, 90.92511
911.5580, 91.25652
912.0402, 91.06898
912.5223, 90.63688
913.0044, 90.47723
913.4865, 90.55665
913.9686, 90.76437
914.4507, 91.18148
914.9329, 91.57280
915.4150, 91.85637
915.8971, 92.03703
916.3792, 92.09540
916.8613, 91.96490
917.3434, 92.00638
917.8256, 92.36449
918.3077, 92.78552
918.7898, 92.81055
919.2719, 92.57928
919.7540, 92.41199
920.2361, 92.38376
920.7183, 92.47564
921.2004, 92.78259
921.6825, 93.14407
922.1646, 93.39135
922.6467, 93.46156
923.1288, 93.62488
923.6110, 93.92097
924.0931, 94.18426
924.5752, 94.20549
925.0573, 94.08676
925.5394, 94.00496
926.0215, 93.97903
926.5037, 94.12888
926.9858, 94.86798
927.4679, 95.50252
927.9500, 95.44880
928.4321, 94.77763
928.9142, 94.49545
929.3964, 94.65244
929.8785, 95.03302
930.3606, 95.68514
930.8427, 96.38696
931.3248, 96.53271
931.8069, 96.27596
932.2891, 96.11958
932.7712, 96.46078
933.2533, 96.76286
933.7354, 96.68719
934.2175, 96.45858
934.6996, 96.54996
935.1818, 97.12968
935.6639, 97.42119
936.1460, 97.26162
936.6281, 96.98373
937.1102, 97.00602
937.5923, 97.25021
938.0745, 97.58632
938.5566, 98.02971
939.0387, 98.36464
939.5208, 98.44235
940.0029, 98.39512
940.4850, 98.27509
940.9672, 98.04585
941.4493, 98.10090
941.9314, 98.50288
942.4135, 98.88164
942.8956, 98.90829
943.3777, 98.76649
943.8599, 98.82304
944.3420, 99.05317
944.8241, 99.30957
945.3062, 99.50041
945.7883, 99.72607
946.2704, 100.0817
946.7526, 100.4985
947.2347, 100.8025
947.7168, 100.9987
948.1989, 101.0479
948.6810, 100.9040
949.1631, 100.6965
949.6453, 100.5807
950.1274, 100.5437
950.6095, 100.5571
951.0916, 100.5866
951.5737, 100.7197
952.0558, 101.0762
952.5380, 101.4747
953.0201, 101.7609
953.5022, 101.9080
953.9843, 102.1987
954.4664, 102.6638
954.9485, 102.9742
955.4307, 102.6641
955.9128, 102.1520
956.3949, 101.9590
956.8770, 102.1026
957.3591, 102.3735
957.8412, 102.8815
958.3234, 103.3073
958.8055, 103.5487
959.2876, 103.6430
959.7697, 103.7344
960.2518, 103.8214
960.7339, 103.7980
961.2161, 103.5146
961.6982, 103.3009
962.1803, 103.6835
962.6624, 104.3183
963.1445, 104.6681
963.6266, 104.2172
964.1088, 104.0454
964.5909, 104.3057
965.0730, 104.7239
965.5551, 105.0283
966.0372, 105.2304
966.5193, 105.4581
967.0015, 105.7188
967.4836, 105.9501
967.9657, 106.0316
968.4478, 106.1149
968.9299, 106.3633
969.4120, 106.7837
969.8942, 107.0881
970.3763, 107.2721
970.8584, 107.3181
971.3405, 107.1469
971.8226, 106.8940
972.3047, 107.0070
972.7869, 107.3866
973.2690, 107.6168
973.7511, 107.3767
974.2332, 107.1638
974.7153, 107.1984
975.1974, 107.4532
975.6796, 107.9317
976.1617, 108.8541
976.6438, 109.2906
977.1259, 109.0914
977.6080, 108.7659
978.0901, 108.8923
978.5723, 109.2598
979.0544, 109.3474
979.5365, 109.1164
980.0186, 109.1588
980.5007, 110.2611
980.9828, 111.1997
981.4650, 111.2060
981.9471, 110.4811
982.4291, 110.4621
982.9113, 111.2238
983.3934, 111.8187
983.8755, 111.7615
984.3576, 111.5177
984.8397, 111.8053
985.3218, 112.3465
985.8040, 112.6160
986.2861, 112.0517
986.7682, 111.7875
987.2503, 112.0625
987.7324, 112.5546
988.2145, 113.0151
988.6967, 113.4349
989.1788, 113.4735
989.6609, 113.0948
990.1430, 112.7958
990.6251, 113.0713
991.1072, 113.5237
991.5894, 113.7942
992.0715, 113.8687
992.5536, 114.0835
993.0357, 114.5320
993.5178, 114.9741
993.9999, 115.3655
994.4821, 115.6618
994.9642, 115.6251
995.4463, 115.3797
995.9284, 115.3778
996.4105, 115.9344
996.8926, 116.4650
997.3748, 116.5707
997.8569, 116.5383
998.3390, 116.7340
998.8211, 117.3356
999.3032, 117.4687
999.7853, 117.0294
1000.267, 116.6106
1000.750, 116.8249
1001.232, 117.3417
1001.714, 117.6395
1002.196, 117.7187
1002.678, 117.8227
1003.160, 118.1577
1003.642, 118.3900
1004.124, 118.3748
1004.607, 118.2139
1005.089, 118.1399
1005.571, 118.1575
1006.053, 118.4209
1006.535, 119.0552
1007.017, 119.7047
1007.499, 120.0681
1007.981, 120.2450
1008.463, 120.3248
1008.946, 120.1771
1009.428, 120.3652
1009.910, 121.0924
1010.392, 121.7435
1010.874, 121.7979
1011.356, 121.4333
1011.838, 121.2190
1012.320, 121.1635
1012.802, 121.2911
1013.285, 121.8865
1013.767, 122.3883
1014.249, 122.4124
1014.731, 122.1748
1015.213, 122.1317
1015.695, 122.3201
1016.177, 122.4716
1016.659, 122.5223
1017.142, 122.6009
1017.624, 122.8750
1018.106, 123.2668
1018.588, 123.7030
1019.070, 124.1945
1019.552, 124.5631
1020.034, 124.7611
1020.516, 124.8346
1020.998, 124.7317
1021.481, 124.5209
1021.963, 124.5936
1022.445, 124.9230
1022.927, 125.3339
1023.409, 125.8486
1023.891, 126.2888
1024.373, 126.4617
1024.855, 126.5023
1025.338, 126.6675
1025.820, 127.0806
1026.302, 127.2621
1026.784, 127.1186
1027.266, 126.9625
1027.748, 127.2138
1028.230, 127.6486
1028.712, 127.7919
1029.194, 127.6274
1029.677, 127.5929
1030.159, 128.1001
1030.641, 128.4918
1031.123, 128.4111
1031.605, 128.0825
1032.087, 128.3495
1032.569, 129.1754
1033.051, 129.9653
1033.534, 130.5981
1034.016, 130.9527
1034.498, 130.6812
1034.980, 130.1933
1035.462, 129.9755
1035.944, 130.1426
1036.426, 130.4908
1036.908, 131.0861
1037.391, 131.6790
1037.873, 132.1036
1038.355, 132.3873
1038.837, 132.5578
1039.319, 132.6343
1039.801, 132.6896
1040.283, 132.7018
1040.765, 132.7666
1041.247, 132.9400
1041.729, 133.1661
1042.212, 133.3505
1042.694, 133.4902
1043.176, 133.6868
1043.658, 133.9570
1044.140, 134.2775
1044.622, 134.7479
1045.104, 135.1832
1045.586, 135.3116
1046.069, 135.0779
1046.551, 135.2381
1047.033, 135.9913
1047.515, 136.7037
1047.997, 137.1632
1048.479, 137.3976
1048.961, 137.3790
1049.443, 137.1895
1049.926, 137.0150
1050.408, 136.7544
1050.890, 136.8200
1051.372, 137.6961
1051.854, 138.6957
1052.336, 139.2440
1052.818, 139.3146
1053.300, 139.5763
1053.782, 140.0369
1054.265, 140.5100
1054.747, 140.8384
1055.229, 141.1429
1055.711, 141.5088
1056.193, 141.9396
1056.675, 142.4535
1057.157, 143.1490
1057.639, 143.6357
1058.121, 143.7818
1058.604, 143.8751
1059.086, 144.3515
1059.568, 145.0551
1060.050, 145.6797
1060.532, 146.1678
1061.014, 146.6928
1061.496, 147.2313
1061.978, 147.9177
1062.461, 148.7904
1062.943, 149.8547
1063.425, 151.1519
1063.907, 152.6954
1064.389, 154.5205
1064.871, 156.6376
1065.353, 159.0784
1065.835, 162.0252
1066.318, 165.2268
1066.800, 168.4088
1067.282, 171.3666
1067.764, 174.9203
1068.246, 179.0879
1068.728, 183.6177
1069.210, 188.5116
1069.692, 193.5335
1070.174, 198.0223
1070.656, 202.2459
1071.139, 207.3490
1071.621, 213.8554
1072.103, 221.1388
1072.585, 229.1094
1073.067, 237.8174
1073.549, 247.5320
1074.031, 258.0922
1074.513, 269.5440
1074.996, 281.7819
1075.478, 295.0806
1075.960, 309.4690
1076.442, 324.9794
1076.924, 342.2521
1077.406, 360.8664
1077.888, 377.2549
1078.370, 391.4359
1078.853, 403.6870
1079.335, 414.1441
1079.817, 422.2967
1080.299, 426.9191
1080.781, 429.2832
1081.263, 430.9736
1081.745, 432.0019
1082.227, 433.2001
1082.709, 434.7798
1083.192, 435.9930
1083.674, 436.3892
1084.156, 436.0602
1084.638, 435.2077
1085.120, 433.8439
1085.602, 431.9920
1086.084, 429.7595
1086.566, 426.8592
1087.048, 423.3222
1087.531, 419.0512
1088.013, 414.0987
1088.495, 408.3615
1088.977, 400.7353
1089.459, 391.1241
1089.941, 380.9698
1090.423, 371.4298
1090.905, 361.5659
1091.387, 350.5418
1091.870, 338.5737
1092.352, 326.8766
1092.834, 315.3947
1093.316, 304.1904
1093.798, 293.2591
1094.280, 282.6768
1094.762, 272.6113
1095.244, 262.9052
1095.727, 253.2198
1096.209, 243.4818
1096.691, 234.6592
1097.173, 226.9849
1097.655, 219.9287
1098.137, 213.3144
1098.619, 207.1308
1099.101, 201.2977
1099.583, 195.9210
1100.066, 190.9826
1100.548, 186.3899
1101.030, 182.4351
1101.512, 179.5423
1101.994, 176.9929
1102.476, 174.1676
1102.958, 171.1448
1103.440, 168.8665
1103.922, 167.2970
1104.405, 165.9046
1104.887, 164.1718
1105.369, 162.7166
1105.851, 162.0252
1106.333, 161.7968
1106.815, 161.4504
1107.297, 160.9626
1107.779, 160.5151
1108.262, 160.1206
1108.744, 159.7676
1109.226, 159.3863
1109.708, 159.0782
1110.190, 158.9600
1110.672, 159.0280
1111.154, 159.1416
1111.636, 159.3234
1112.119, 159.4379
1112.601, 159.4214
1113.083, 159.4022
1113.565, 159.7195
1114.047, 160.1229
1114.529, 160.0567
1115.011, 159.3008
1115.493, 158.9521
1115.975, 159.5819
1116.458, 160.1416
1116.940, 160.1309
1117.422, 159.7721
1117.904, 159.7903
1118.386, 160.0945
1118.868, 160.3770
1119.350, 160.5257
1119.832, 160.6340
1120.314, 160.6184
1120.797, 160.6850
1121.279, 161.0291
1121.761, 161.6454
1122.243, 162.1938
1122.725, 162.6624
1123.207, 162.8870
1123.689, 162.4717
1124.171, 162.0875
1124.654, 162.1692
1125.136, 162.5869
1125.618, 163.1311
1126.100, 163.9053
1126.582, 164.1870
1127.064, 163.8867
1127.546, 163.5237
1128.028, 163.4972
1128.510, 163.6743
1128.993, 164.0155
1129.475, 164.4563
1129.957, 164.7205
1130.439, 164.7154
1130.921, 164.7655
1131.403, 164.9430
1131.885, 165.1379
1132.367, 165.1858
1132.849, 165.1667
1133.332, 165.1652
1133.814, 165.1903
1134.296, 165.4249
1134.778, 166.0916
1135.260, 166.6534
1135.742, 166.9613
1136.224, 167.0515
1136.706, 166.8576
1137.189, 166.5286
1137.671, 166.4669
1138.153, 166.8042
1138.635, 167.2506
1139.117, 167.8687
1139.599, 168.3809
1140.081, 168.6330
1140.563, 168.6666
1141.046, 168.6172
1141.528, 168.5281
1142.010, 168.6368
1142.492, 169.1917
1142.974, 169.6891
1143.456, 169.8377
1143.938, 169.8251
1144.420, 169.7890
1144.902, 169.7221
1145.385, 169.8110
1145.867, 170.0516
1146.349, 170.3996
1146.831, 170.9051
1147.313, 171.4251
1147.795, 171.9282
1148.277, 172.3336
1148.759, 172.4918
1149.241, 172.3154
1149.724, 172.3498
1150.206, 172.6262
1150.688, 173.0293
1151.170, 173.6604
1151.652, 174.2016
1152.134, 174.2605
1152.616, 173.9628
1153.098, 173.8013
1153.581, 173.7910
1154.063, 174.0083
1154.545, 174.5306
1155.027, 174.9845
1155.509, 174.7455
1155.991, 174.3116
1156.473, 174.3581
1156.955, 174.9031
1157.438, 175.3455
1157.920, 175.6146
1158.402, 175.7901
1158.884, 175.8548
1159.366, 175.9166
1159.848, 176.2140
1160.330, 176.5905
1160.812, 176.6893
1161.294, 176.3978
1161.776, 176.5050
1162.259, 177.4146
1162.741, 178.2818
1163.223, 178.8616
1163.705, 179.1612
1164.187, 178.9550
1164.669, 178.5172
1165.151, 178.5592
1165.633, 179.4447
1166.116, 180.1401
1166.598, 180.2067
1167.080, 180.2521
1167.562, 180.6362
1168.044, 181.2032
1168.526, 181.3617
1169.008, 181.2070
1169.490, 181.0651
1169.973, 180.9950
1170.455, 181.0819
1170.937, 181.5460
1171.419, 181.9939
1171.901, 182.1186
1172.383, 181.9751
1172.865, 181.9598
1173.347, 182.0791
1173.829, 182.3647
1174.312, 183.0063
1174.794, 183.6061
1175.276, 184.0954
1175.758, 184.3919
1176.240, 184.2841
1176.722, 183.7944
1177.204, 183.8368
1177.686, 184.3889
1178.168, 184.9550
1178.651, 185.1731
1179.133, 185.3760
1179.615, 185.8569
1180.097, 186.3645
1180.579, 186.4552
1181.061, 186.1196
1181.543, 186.1257
1182.025, 186.5276
1182.508, 187.0019
1182.990, 187.4140
1183.472, 187.7208
1183.954, 187.8660
1184.436, 187.8833
1184.918, 187.7742
1185.400, 187.5174
1185.882, 187.6621
1186.365, 188.3105
1186.847, 188.9713
1187.329, 189.1983
1187.811, 189.3235
1188.293, 189.5884
1188.775, 189.9798
1189.257, 190.4686
1189.739, 191.0880
1190.221, 191.3070
1190.703, 190.9582
1191.186, 190.5774
1191.668, 190.6053
1192.150, 190.8830
1192.632, 191.4576
1193.114, 192.2227
1193.596, 192.3260
1194.078, 191.6829
1194.560, 191.1421
1195.043, 190.8986
1195.525, 190.9705
1196.007, 191.6513
1196.489, 192.4683
1196.971, 192.8482
1197.453, 192.7639
1197.935, 193.2793
1198.417, 194.5195
1198.900, 195.2361
1199.382, 194.7978
1199.864, 194.1321
1200.346, 194.1533
1200.828, 194.5349
1201.310, 194.9496
1201.792, 195.3801
1202.274, 195.6418
1202.756, 195.6954
1203.239, 195.9404
1203.721, 196.6756
1204.203, 197.4572
1204.685, 197.7128
1205.167, 197.7527
1205.649, 198.0504
1206.131, 198.7722
1206.613, 198.9604
1207.095, 198.5425
1207.578, 198.2236
1208.060, 198.4985
1208.542, 198.9105
1209.024, 198.8025
1209.506, 198.5611
1209.988, 198.8681
1210.470, 199.9865
1210.952, 200.7079
1211.435, 201.0053
1211.917, 201.1947
1212.399, 201.4593
1212.881, 201.7401
1213.363, 201.9001
1213.845, 202.0607
1214.327, 202.4797
1214.809, 203.3052
1215.292, 203.9153
1215.774, 204.2971
1216.256, 204.4821
1216.738, 204.2010
1217.220, 203.9828
1217.702, 204.4669
1218.184, 205.3619
1218.666, 206.0541
1219.148, 206.5024
1219.630, 206.7601
1220.113, 206.8148
1220.595, 206.8048
1221.077, 206.7932
1221.559, 206.8121
1222.041, 206.9108
1222.523, 207.0655
1223.005, 207.2271
1223.487, 207.4268
1223.970, 207.4582
1224.452, 207.2919
1224.934, 207.1548
1225.416, 207.1777
1225.898, 207.3541
1226.380, 207.7192
1226.862, 208.2336
1227.344, 208.7598
1227.827, 209.2816
1228.309, 209.9993
1228.791, 210.9622
1229.273, 211.6926
1229.755, 211.6768
1230.237, 211.3770
1230.719, 210.9872
1231.201, 210.6351
1231.683, 210.6319
1232.166, 211.0083
1232.648, 211.4053
1233.130, 211.7879
1233.612, 212.1092
1234.094, 212.1220
1234.576, 212.2557
1235.058, 213.0490
1235.540, 214.1474
1236.022, 214.6906
1236.505, 214.6725
1236.987, 214.4299
1237.469, 213.9883
1237.951, 213.7371
1238.433, 214.1456
1238.915, 214.6861
1239.397, 215.1241
1239.879, 215.4044
1240.362, 215.2394
1240.844, 214.6874
1241.326, 214.6747
1241.808, 215.3742
1242.290, 216.1335
1242.772, 216.5605
1243.254, 216.8458
1243.736, 217.0089
1244.219, 217.1533
1244.701, 217.5773
1245.183, 218.2259
1245.665, 218.7981
1246.147, 219.2326
1246.629, 219.5694
1247.111, 219.7919
1247.593, 219.9619
1248.075, 220.1180
1248.557, 220.2446
1249.040, 220.2082
1249.522, 220.1064
1250.004, 220.4471
1250.486, 221.3561
1250.968, 221.9638
1251.450, 221.5830
1251.932, 221.1463
1252.414, 220.8955
1252.897, 220.8851
1253.379, 221.3802
1253.861, 222.1873
1254.343, 222.8275
1254.825, 223.2174
1255.307, 223.4416
1255.789, 223.3011
1256.271, 223.3270
1256.754, 223.6879
1257.236, 224.2751
1257.718, 225.0913
1258.200, 225.9053
1258.682, 226.1501
1259.164, 225.6749
1259.646, 225.5755
1260.128, 226.2532
1260.610, 226.7052
1261.093, 226.5471
1261.575, 226.2129
1262.057, 226.2536
1262.539, 226.6055
1263.021, 227.2726
1263.503, 228.2829
1263.985, 229.0440
1264.467, 229.5296
1264.949, 229.7748
1265.432, 229.7675
1265.914, 229.6059
1266.396, 229.2009
1266.878, 228.8519
1267.360, 228.9824
1267.842, 229.6411
1268.324, 230.0995
1268.806, 230.3138
1269.289, 230.6520
1269.771, 231.2220
1270.253, 231.9317
1270.735, 233.0792
1271.217, 234.0368
1271.699, 233.9074
1272.181, 232.9465
1272.663, 232.7942
1273.146, 233.4349
1273.628, 233.8513
1274.110, 233.7005
1274.592, 233.6349
1275.074, 234.3988
1275.556, 235.1745
1276.038, 235.3781
1276.520, 235.1754
1277.002, 235.1670
1277.484, 235.3412
1277.967, 235.6404
1278.449, 236.0683
1278.931, 236.5066
1279.413, 237.0038
1279.895, 237.3432
1280.377, 237.3618
1280.859, 237.2186
1281.341, 237.3029
1281.823, 237.5721
1282.306, 237.9023
1282.788, 238.2539
1283.270, 238.7462
1283.752, 239.6132
1284.234, 240.3005
1284.716, 240.5745
1285.198, 240.6567
1285.680, 240.9917
1286.163, 241.4167
1286.645, 241.5904
1287.127, 241.4252
1287.609, 241.5029
1288.091, 241.9488
1288.573, 242.4050
1289.055, 242.7873
1289.537, 243.0712
1290.020, 243.0381
1290.502, 243.0045
1290.984, 243.4489
1291.466, 244.4107
1291.948, 244.9913
1292.430, 245.1647
1292.912, 245.0906
1293.394, 244.7227
1293.876, 244.5340
1294.359, 245.2353
1294.841, 246.1005
1295.323, 246.4596
1295.805, 246.4322
1296.287, 246.4151
1296.769, 246.4190
1297.251, 246.6753
1297.733, 247.2708
1298.215, 247.7730
1298.698, 247.7474
1299.180, 247.7266
1299.662, 247.9969
1300.144, 248.4419
1300.626, 248.7502
1301.108, 248.9936
1301.590, 249.5671
1302.072, 250.5579
1302.555, 251.1782
1303.037, 250.6322
1303.519, 250.3260
##END=



