##NAMES=Kuzmenkoite-Mn
##RRUFFID=R070662
##IDEAL CHEMISTRY=K_4_Mn^2+^_2_Ti^4+^_8_(Si_4_O_12_)_4_(OH,O)_8_&#183;10-12H_2_O
##LOCALITY=Selsurt Mt, Lovozero Massif, Kola Peninsula, Murmanskaja Oblast', Northern Region, Russia
##OWNER=RRUFF
##SOURCE=Michael Scott
##DESCRIPTION=Vitreous yellow prismatic crystals associated with natrolite and clinoenstatite.
##STATUS=The identification of this mineral has been confirmed by single-crystal X-ray diffraction.
##URL=rruff.info/R070662
89.93622, 18268.01
90.41833, 18955.29
90.90045, 19598.94
91.38257, 20201.12
91.86469, 20750.14
92.34680, 21235.61
92.82892, 21675.40
93.31104, 22167.22
93.79315, 22834.58
94.27527, 23368.04
94.75739, 23453.79
95.23950, 23110.39
95.72162, 22773.06
96.20374, 22574.44
96.68585, 22479.86
97.16797, 22388.28
97.65009, 22275.72
98.13220, 22158.03
98.61432, 22064.94
99.09644, 22010.82
99.57855, 21952.31
100.0607, 21845.71
100.5428, 21703.04
101.0249, 21572.08
101.5070, 21493.41
101.9891, 21467.18
102.4713, 21429.64
102.9534, 21342.80
103.4355, 21260.35
103.9176, 21210.50
104.3997, 21197.82
104.8818, 21202.37
105.3640, 21192.91
105.8461, 21158.41
106.3282, 21127.02
106.8103, 21103.61
107.2924, 21082.30
107.7745, 21054.14
108.2567, 21013.66
108.7388, 20965.67
109.2209, 20943.30
109.7030, 20967.50
110.1851, 20993.67
110.6672, 21008.88
111.1494, 21017.25
111.6315, 21032.29
112.1136, 21067.64
112.5957, 21126.49
113.0778, 21159.31
113.5599, 21143.26
114.0421, 21119.05
114.5242, 21117.58
115.0063, 21143.75
115.4884, 21179.86
115.9705, 21208.60
116.4526, 21231.51
116.9348, 21238.96
117.4169, 21217.77
117.8990, 21179.38
118.3811, 21146.45
118.8632, 21119.50
119.3453, 21108.70
119.8275, 21125.48
120.3096, 21172.60
120.7917, 21225.60
121.2738, 21273.73
121.7559, 21317.84
122.2381, 21338.58
122.7202, 21299.01
123.2023, 21245.83
123.6844, 21214.95
124.1665, 21219.60
124.6486, 21241.65
125.1308, 21246.36
125.6129, 21222.46
126.0950, 21200.79
126.5771, 21181.04
127.0592, 21169.79
127.5413, 21177.83
128.0235, 21215.67
128.5056, 21279.31
128.9877, 21321.59
129.4698, 21308.36
129.9519, 21304.91
130.4340, 21331.15
130.9162, 21382.10
131.3983, 21442.67
131.8804, 21502.05
132.3625, 21568.05
132.8446, 21594.24
133.3267, 21555.90
133.8089, 21505.14
134.2910, 21488.95
134.7731, 21510.43
135.2552, 21518.09
135.7373, 21429.69
136.2194, 21164.05
136.7016, 20980.15
137.1837, 20934.71
137.6658, 20965.95
138.1479, 21000.58
138.6300, 21015.81
139.1121, 21016.09
139.5943, 21008.52
140.0764, 20988.46
140.5585, 20972.16
141.0406, 20974.63
141.5227, 20989.59
142.0048, 20988.36
142.4870, 20945.91
142.9691, 20885.70
143.4512, 20853.63
143.9333, 20865.10
144.4154, 20888.44
144.8975, 20892.41
145.3797, 20874.27
145.8618, 20853.67
146.3439, 20842.13
146.8260, 20834.39
147.3081, 20823.80
147.7902, 20804.32
148.2724, 20782.06
148.7545, 20773.93
149.2366, 20790.14
149.7187, 20804.56
150.2008, 20800.43
150.6829, 20786.75
151.1651, 20780.32
151.6472, 20794.32
152.1293, 20828.48
152.6114, 20861.08
153.0935, 20905.50
153.5757, 20935.57
154.0578, 20927.57
154.5399, 20891.55
155.0220, 20861.66
155.5041, 20881.21
155.9862, 20980.88
156.4684, 21030.06
156.9505, 20993.06
157.4326, 20941.72
157.9147, 20912.85
158.3968, 20915.27
158.8789, 20938.12
159.3611, 20965.40
159.8432, 21010.12
160.3253, 21038.04
160.8074, 21043.79
161.2895, 21036.95
161.7716, 21025.28
162.2538, 21011.72
162.7359, 20996.94
163.2180, 20982.13
163.7001, 20956.06
164.1822, 20944.05
164.6643, 20964.80
165.1465, 21001.71
165.6286, 21023.07
166.1107, 21011.12
166.5928, 20973.96
167.0749, 20945.60
167.5570, 20919.79
168.0392, 20906.35
168.5213, 20916.16
169.0034, 20945.40
169.4855, 20975.13
169.9676, 20995.82
170.4497, 21006.74
170.9319, 21010.47
171.4140, 21009.29
171.8961, 20999.75
172.3782, 20970.43
172.8603, 20917.37
173.3424, 20875.68
173.8246, 20886.68
174.3067, 20926.97
174.7888, 20954.92
175.2709, 20958.12
175.7530, 20941.12
176.2351, 20907.34
176.7173, 20844.60
177.1994, 20791.15
177.6815, 20776.03
178.1636, 20787.45
178.6457, 20798.95
179.1278, 20794.74
179.6100, 20777.06
180.0921, 20760.28
180.5742, 20739.97
181.0563, 20726.41
181.5384, 20729.95
182.0205, 20745.91
182.5027, 20758.38
182.9848, 20749.27
183.4669, 20714.91
183.9490, 20693.64
184.4311, 20704.85
184.9132, 20716.11
185.3954, 20712.75
185.8775, 20694.55
186.3596, 20671.72
186.8417, 20656.22
187.3238, 20650.76
187.8059, 20645.67
188.2881, 20632.34
188.7702, 20624.90
189.2523, 20634.37
189.7344, 20662.33
190.2165, 20699.91
190.6986, 20734.41
191.1808, 20771.83
191.6629, 20793.42
192.1450, 20789.65
192.6271, 20776.65
193.1092, 20764.00
193.5914, 20755.74
194.0735, 20755.17
194.5556, 20769.99
195.0377, 20827.78
195.5198, 20869.00
196.0019, 20881.00
196.4841, 20879.41
196.9662, 20882.70
197.4483, 20899.34
197.9304, 20925.34
198.4125, 20947.23
198.8946, 20954.36
199.3768, 20969.96
199.8589, 21016.92
200.3410, 21074.05
200.8231, 21096.49
201.3052, 21052.48
201.7873, 20964.45
202.2695, 20943.77
202.7516, 21052.46
203.2337, 21149.04
203.7158, 21168.12
204.1979, 21129.40
204.6800, 21096.05
205.1622, 21108.26
205.6443, 21156.04
206.1264, 21179.64
206.6085, 21152.61
207.0906, 21126.36
207.5727, 21135.37
208.0549, 21176.19
208.5370, 21217.95
209.0191, 21238.98
209.5012, 21243.75
209.9833, 21256.58
210.4654, 21300.57
210.9476, 21338.23
211.4297, 21325.57
211.9118, 21259.35
212.3939, 21197.72
212.8760, 21182.41
213.3581, 21203.81
213.8403, 21237.16
214.3224, 21300.12
214.8045, 21363.18
215.2866, 21386.03
215.7687, 21362.97
216.2508, 21322.56
216.7330, 21272.53
217.2151, 21219.74
217.6972, 21179.70
218.1793, 21173.37
218.6614, 21179.80
219.1435, 21154.51
219.6257, 21083.44
220.1078, 21012.82
220.5899, 20972.75
221.0720, 20954.92
221.5541, 20944.23
222.0362, 20940.38
222.5184, 20939.11
223.0005, 20925.15
223.4826, 20890.64
223.9647, 20856.43
224.4468, 20841.72
224.9289, 20837.33
225.4111, 20821.23
225.8932, 20772.26
226.3753, 20697.23
226.8574, 20635.68
227.3395, 20588.98
227.8216, 20556.23
228.3038, 20541.97
228.7859, 20540.49
229.2680, 20537.66
229.7501, 20526.85
230.2322, 20507.68
230.7143, 20472.08
231.1965, 20396.38
231.6786, 20329.03
232.1607, 20292.66
232.6428, 20282.25
233.1249, 20281.31
233.6070, 20280.61
234.0892, 20280.45
234.5713, 20269.41
235.0534, 20235.84
235.5355, 20201.16
236.0176, 20172.87
236.4998, 20150.76
236.9819, 20131.47
237.4640, 20111.03
237.9461, 20088.60
238.4282, 20073.72
238.9103, 20058.63
239.3925, 20058.91
239.8746, 20100.43
240.3567, 20169.64
240.8388, 20221.97
241.3209, 20207.11
241.8030, 20108.98
242.2852, 20039.66
242.7673, 20012.65
243.2494, 20002.23
243.7315, 20005.27
244.2136, 20017.72
244.6957, 20032.63
245.1779, 20045.25
245.6600, 20058.46
246.1421, 20053.56
246.6242, 20009.88
247.1063, 19966.91
247.5884, 19940.21
248.0706, 19931.26
248.5527, 19935.27
249.0348, 19951.23
249.5169, 19987.93
249.9990, 19997.97
250.4811, 19959.87
250.9633, 19917.43
251.4454, 19889.95
251.9275, 19878.91
252.4096, 19874.83
252.8917, 19867.05
253.3738, 19851.92
253.8560, 19849.46
254.3381, 19870.03
254.8202, 19892.15
255.3023, 19908.75
255.7844, 19917.29
256.2665, 19915.52
256.7487, 19899.37
257.2308, 19862.96
257.7129, 19836.07
258.1950, 19807.42
258.6771, 19794.88
259.1592, 19827.89
259.6414, 19895.05
260.1235, 19946.09
260.6056, 19924.00
261.0877, 19803.88
261.5698, 19719.85
262.0519, 19676.22
262.5341, 19655.65
263.0162, 19658.23
263.4983, 19678.65
263.9804, 19703.77
264.4625, 19721.06
264.9446, 19730.29
265.4268, 19732.39
265.9089, 19724.45
266.3910, 19713.61
266.8731, 19700.87
267.3552, 19687.88
267.8373, 19678.70
268.3195, 19678.08
268.8016, 19688.48
269.2837, 19691.49
269.7658, 19685.29
270.2479, 19674.77
270.7300, 19658.06
271.2122, 19637.78
271.6943, 19622.15
272.1764, 19619.76
272.6585, 19633.33
273.1406, 19636.21
273.6227, 19608.20
274.1049, 19589.97
274.5870, 19605.84
275.0691, 19650.58
275.5512, 19704.68
276.0333, 19755.87
276.5154, 19807.53
276.9976, 19811.63
277.4797, 19724.27
277.9618, 19643.23
278.4439, 19616.14
278.9260, 19633.13
279.4081, 19655.38
279.8903, 19652.99
280.3724, 19625.44
280.8545, 19607.35
281.3366, 19612.17
281.8187, 19611.26
282.3008, 19582.82
282.7830, 19538.55
283.2651, 19509.88
283.7472, 19521.36
284.2293, 19570.05
284.7114, 19594.79
285.1935, 19577.93
285.6757, 19558.97
286.1578, 19558.64
286.6399, 19565.27
287.1220, 19548.99
287.6041, 19486.75
288.0862, 19388.18
288.5684, 19334.58
289.0505, 19369.49
289.5326, 19397.27
290.0147, 19388.98
290.4968, 19358.88
290.9789, 19335.33
291.4611, 19335.25
291.9432, 19350.96
292.4253, 19344.02
292.9074, 19281.77
293.3895, 19235.27
293.8716, 19229.69
294.3538, 19243.61
294.8359, 19244.79
295.3180, 19217.08
295.8001, 19170.87
296.2823, 19139.67
296.7644, 19144.24
297.2465, 19140.04
297.7286, 19110.55
298.2107, 19075.16
298.6928, 19056.46
299.1750, 19063.72
299.6571, 19090.48
300.1392, 19122.18
300.6213, 19164.86
301.1034, 19204.90
301.5855, 19254.36
302.0677, 19295.15
302.5498, 19308.76
303.0319, 19289.69
303.5140, 19246.23
303.9961, 19190.08
304.4782, 19080.38
304.9604, 19028.98
305.4425, 19089.18
305.9246, 19169.00
306.4067, 19191.52
306.8888, 19141.70
307.3709, 19064.20
307.8531, 19022.81
308.3352, 19036.27
308.8173, 19042.81
309.2994, 19038.50
309.7815, 19031.40
310.2636, 19026.42
310.7458, 19024.08
311.2279, 19022.06
311.7100, 19018.82
312.1921, 19016.96
312.6742, 19002.15
313.1563, 18959.79
313.6385, 18918.80
314.1206, 18898.99
314.6027, 18895.53
315.0848, 18886.22
315.5669, 18847.89
316.0490, 18776.51
316.5312, 18722.64
317.0133, 18702.08
317.4954, 18683.42
317.9775, 18657.81
318.4596, 18625.91
318.9417, 18590.61
319.4239, 18552.14
319.9060, 18511.57
320.3881, 18487.02
320.8702, 18497.62
321.3523, 18504.73
321.8344, 18492.63
322.3166, 18472.38
322.7987, 18465.01
323.2808, 18486.15
323.7629, 18523.79
324.2450, 18525.70
324.7271, 18453.47
325.2093, 18402.50
325.6914, 18409.63
326.1735, 18440.82
326.6556, 18454.85
327.1377, 18432.15
327.6198, 18392.93
328.1020, 18382.92
328.5841, 18419.34
329.0662, 18447.69
329.5483, 18454.11
330.0304, 18450.75
330.5125, 18444.39
330.9947, 18436.99
331.4768, 18433.83
331.9589, 18444.36
332.4410, 18472.22
332.9231, 18497.99
333.4052, 18526.14
333.8874, 18545.55
334.3695, 18541.08
334.8516, 18513.03
335.3337, 18488.16
335.8158, 18501.07
336.2979, 18553.68
336.7801, 18586.23
337.2622, 18576.10
337.7443, 18559.33
338.2264, 18551.67
338.7085, 18555.42
339.1906, 18575.24
339.6728, 18628.74
340.1549, 18706.26
340.6370, 18753.66
341.1191, 18757.85
341.6012, 18747.09
342.0833, 18733.90
342.5655, 18720.63
343.0476, 18714.18
343.5297, 18728.76
344.0118, 18750.00
344.4939, 18740.12
344.9760, 18686.78
345.4582, 18642.42
345.9403, 18654.60
346.4224, 18696.38
346.9045, 18726.45
347.3866, 18725.42
347.8687, 18716.39
348.3509, 18734.10
348.8330, 18779.66
349.3151, 18801.81
349.7972, 18755.93
350.2793, 18678.82
350.7614, 18646.90
351.2436, 18697.79
351.7257, 18735.80
352.2078, 18672.52
352.6899, 18533.99
353.1720, 18436.95
353.6541, 18435.71
354.1363, 18482.09
354.6184, 18486.79
355.1005, 18438.86
355.5826, 18395.09
356.0647, 18386.36
356.5468, 18392.70
357.0290, 18377.63
357.5111, 18329.88
357.9932, 18268.38
358.4753, 18218.74
358.9574, 18184.94
359.4395, 18139.42
359.9217, 18064.62
360.4038, 17984.76
360.8859, 17923.05
361.3680, 17881.96
361.8501, 17852.05
362.3322, 17826.63
362.8144, 17806.47
363.2965, 17779.69
363.7786, 17736.28
364.2607, 17696.26
364.7428, 17677.61
365.2249, 17673.40
365.7071, 17658.46
366.1892, 17612.95
366.6713, 17542.87
367.1534, 17503.30
367.6355, 17525.12
368.1176, 17539.65
368.5998, 17533.87
369.0819, 17511.29
369.5640, 17474.26
370.0461, 17423.67
370.5282, 17367.38
371.0103, 17327.03
371.4925, 17320.13
371.9746, 17303.40
372.4567, 17250.96
372.9388, 17202.37
373.4209, 17200.51
373.9030, 17251.33
374.3852, 17316.16
374.8673, 17341.77
375.3494, 17314.81
375.8315, 17288.44
376.3136, 17251.65
376.7957, 17224.70
377.2779, 17230.14
377.7600, 17258.71
378.2421, 17275.40
378.7242, 17240.60
379.2064, 17158.21
379.6885, 17116.97
380.1706, 17150.56
380.6527, 17183.84
381.1348, 17187.52
381.6169, 17171.48
382.0991, 17153.14
382.5812, 17139.87
383.0633, 17131.07
383.5454, 17126.51
384.0275, 17128.38
384.5096, 17127.94
384.9918, 17118.67
385.4739, 17106.84
385.9560, 17098.09
386.4381, 17093.63
386.9202, 17092.78
387.4023, 17095.16
387.8845, 17100.76
388.3666, 17109.99
388.8487, 17128.26
389.3308, 17144.12
389.8129, 17135.98
390.2950, 17100.53
390.7772, 17088.92
391.2593, 17146.71
391.7414, 17240.84
392.2235, 17305.86
392.7056, 17328.77
393.1877, 17333.29
393.6699, 17337.22
394.1520, 17340.78
394.6341, 17348.75
395.1162, 17356.73
395.5983, 17372.83
396.0804, 17412.84
396.5626, 17472.31
397.0447, 17520.43
397.5268, 17534.26
398.0089, 17519.76
398.4910, 17519.00
398.9731, 17530.08
399.4553, 17554.07
399.9374, 17608.96
400.4195, 17673.80
400.9016, 17709.33
401.3837, 17698.43
401.8658, 17664.65
402.3480, 17657.91
402.8301, 17716.22
403.3122, 17743.57
403.7943, 17711.43
404.2764, 17668.68
404.7585, 17657.29
405.2407, 17680.91
405.7228, 17711.88
406.2049, 17719.84
406.6870, 17702.16
407.1691, 17678.68
407.6512, 17634.80
408.1334, 17599.60
408.6155, 17594.43
409.0976, 17605.96
409.5797, 17603.94
410.0618, 17565.39
410.5439, 17502.94
411.0261, 17466.96
411.5082, 17473.06
411.9903, 17476.64
412.4724, 17457.40
412.9545, 17433.02
413.4366, 17423.04
413.9188, 17434.26
414.4009, 17452.69
414.8830, 17468.27
415.3651, 17481.79
415.8472, 17469.62
416.3293, 17413.19
416.8115, 17340.84
417.2936, 17269.52
417.7757, 17200.78
418.2578, 17155.08
418.7399, 17152.97
419.2220, 17180.45
419.7042, 17210.27
420.1863, 17240.73
420.6684, 17269.36
421.1505, 17302.25
421.6326, 17333.00
422.1147, 17333.65
422.5969, 17264.19
423.0790, 17194.81
423.5611, 17174.07
424.0432, 17196.87
424.5253, 17240.53
425.0074, 17298.94
425.4896, 17364.13
425.9717, 17411.66
426.4538, 17441.38
426.9359, 17457.81
427.4180, 17455.32
427.9001, 17442.92
428.3823, 17419.07
428.8644, 17387.00
429.3465, 17377.24
429.8286, 17436.43
430.3107, 17599.68
430.7928, 17703.77
431.2750, 17714.38
431.7571, 17710.53
432.2392, 17726.54
432.7213, 17760.23
433.2034, 17794.52
433.6855, 17816.31
434.1677, 17829.59
434.6498, 17858.46
435.1319, 17921.40
435.6140, 17970.43
436.0961, 17988.16
436.5782, 17992.07
437.0604, 17995.76
437.5425, 18003.05
438.0246, 18022.37
438.5067, 18072.86
438.9888, 18157.79
439.4709, 18225.30
439.9531, 18271.52
440.4352, 18291.09
440.9173, 18269.95
441.3994, 18214.61
441.8815, 18170.02
442.3636, 18171.93
442.8458, 18196.52
443.3279, 18198.61
443.8100, 18175.01
444.2921, 18135.72
444.7742, 18079.48
445.2563, 18012.60
445.7385, 17957.84
446.2206, 17921.73
446.7027, 17892.18
447.1848, 17871.93
447.6669, 17853.60
448.1490, 17815.97
448.6312, 17749.18
449.1133, 17667.76
449.5954, 17597.91
450.0775, 17547.64
450.5596, 17492.09
451.0417, 17424.21
451.5239, 17355.27
452.0060, 17289.75
452.4881, 17230.77
452.9702, 17185.28
453.4523, 17161.40
453.9344, 17159.19
454.4166, 17148.21
454.8987, 17114.24
455.3808, 17086.39
455.8629, 17078.09
456.3450, 17077.03
456.8271, 17063.56
457.3093, 17028.56
457.7914, 16987.83
458.2735, 16971.88
458.7556, 16988.66
459.2377, 16998.20
459.7198, 16992.05
460.2020, 16977.37
460.6841, 16955.93
461.1662, 16928.75
461.6483, 16900.43
462.1305, 16862.46
462.6126, 16826.12
463.0947, 16833.29
463.5768, 16900.54
464.0589, 16954.60
464.5410, 16927.08
465.0232, 16852.89
465.5053, 16819.36
465.9874, 16853.55
466.4695, 16909.81
466.9516, 16966.95
467.4337, 17023.70
467.9159, 17073.52
468.3980, 17112.50
468.8801, 17150.79
469.3622, 17207.29
469.8443, 17297.13
470.3264, 17366.47
470.8086, 17389.50
471.2907, 17409.21
471.7728, 17456.57
472.2549, 17532.35
472.7370, 17622.82
473.2191, 17719.22
473.7013, 17820.27
474.1834, 17911.84
474.6655, 17971.62
475.1476, 18049.41
475.6297, 18159.52
476.1118, 18288.34
476.5940, 18424.82
477.0761, 18564.90
477.5582, 18704.35
478.0403, 18837.54
478.5224, 18963.00
479.0045, 19091.74
479.4867, 19232.37
479.9688, 19368.09
480.4509, 19486.37
480.9330, 19589.87
481.4151, 19690.45
481.8972, 19800.21
482.3794, 19907.35
482.8615, 19998.22
483.3436, 20072.93
483.8257, 20120.73
484.3078, 20134.95
484.7899, 20117.12
485.2721, 20076.32
485.7542, 20013.22
486.2363, 19928.83
486.7184, 19819.38
487.2005, 19690.30
487.6826, 19552.03
488.1648, 19406.85
488.6469, 19241.83
489.1290, 19037.69
489.6111, 18785.76
490.0932, 18564.33
490.5753, 18374.52
491.0575, 18209.42
491.5396, 18081.22
492.0217, 17974.20
492.5038, 17859.43
492.9859, 17722.54
493.4680, 17579.07
493.9502, 17465.71
494.4323, 17394.10
494.9144, 17318.50
495.3965, 17228.26
495.8786, 17135.74
496.3607, 17041.01
496.8429, 16948.08
497.3250, 16873.22
497.8071, 16838.55
498.2892, 16829.97
498.7713, 16808.60
499.2534, 16772.08
499.7356, 16729.78
500.2177, 16674.44
500.6998, 16620.90
501.1819, 16603.91
501.6640, 16649.81
502.1461, 16690.35
502.6283, 16682.70
503.1104, 16648.14
503.5925, 16628.72
504.0746, 16636.01
504.5567, 16648.19
505.0388, 16636.29
505.5210, 16589.77
506.0031, 16572.27
506.4852, 16601.49
506.9673, 16638.53
507.4494, 16664.87
507.9315, 16685.75
508.4137, 16714.58
508.8958, 16758.79
509.3779, 16812.93
509.8600, 16865.02
510.3421, 16917.04
510.8242, 16961.14
511.3064, 16981.01
511.7885, 17004.28
512.2706, 17047.62
512.7527, 17111.59
513.2349, 17187.71
513.7170, 17279.38
514.1991, 17377.72
514.6812, 17454.58
515.1633, 17503.18
515.6454, 17564.41
516.1276, 17675.55
516.6097, 17809.99
517.0918, 17903.36
517.5739, 17930.32
518.0560, 17960.88
518.5381, 18036.93
519.0203, 18132.82
519.5024, 18203.76
519.9845, 18240.37
520.4666, 18273.29
520.9487, 18338.31
521.4308, 18443.34
521.9130, 18519.15
522.3951, 18550.33
522.8772, 18574.66
523.3593, 18600.08
523.8414, 18628.50
524.3235, 18664.36
524.8057, 18709.69
525.2878, 18753.29
525.7699, 18773.71
526.2520, 18766.58
526.7341, 18756.85
527.2162, 18747.37
527.6984, 18735.07
528.1805, 18726.29
528.6626, 18715.02
529.1447, 18680.00
529.6268, 18597.38
530.1089, 18493.05
530.5911, 18406.85
531.0732, 18337.74
531.5553, 18259.13
532.0374, 18159.66
532.5195, 18043.35
533.0016, 17911.78
533.4838, 17752.07
533.9659, 17619.18
534.4480, 17542.56
534.9301, 17484.75
535.4122, 17414.86
535.8943, 17328.42
536.3765, 17229.27
536.8586, 17116.35
537.3407, 16993.84
537.8228, 16893.94
538.3049, 16837.68
538.7870, 16775.09
539.2692, 16694.18
539.7513, 16606.18
540.2334, 16517.28
540.7155, 16430.24
541.1976, 16354.98
541.6797, 16310.10
542.1619, 16289.34
542.6440, 16248.45
543.1261, 16180.00
543.6082, 16103.59
544.0903, 16019.06
544.5724, 15936.97
545.0546, 15882.34
545.5367, 15879.14
546.0188, 15873.25
546.5009, 15829.29
546.9830, 15760.39
547.4651, 15690.57
547.9473, 15625.69
548.4294, 15570.23
548.9115, 15530.25
549.3936, 15508.98
549.8757, 15485.22
550.3578, 15455.75
550.8400, 15427.68
551.3221, 15399.57
551.8042, 15375.69
552.2863, 15366.83
552.7684, 15378.07
553.2505, 15390.16
553.7327, 15365.99
554.2148, 15298.22
554.6969, 15247.93
555.1790, 15233.37
555.6611, 15224.40
556.1432, 15197.31
556.6254, 15158.73
557.1075, 15130.75
557.5896, 15127.91
558.0717, 15133.59
558.5538, 15128.80
559.0359, 15116.49
559.5181, 15115.96
560.0002, 15139.53
560.4823, 15162.67
560.9644, 15141.41
561.4465, 15048.15
561.9286, 14987.23
562.4108, 14982.10
562.8929, 14989.52
563.3750, 14986.78
563.8571, 14974.63
564.3392, 14963.20
564.8214, 14959.26
565.3035, 14954.99
565.7856, 14926.17
566.2677, 14858.57
566.7498, 14809.48
567.2319, 14793.04
567.7141, 14794.73
568.1962, 14817.32
568.6783, 14854.55
569.1604, 14878.23
569.6425, 14871.12
570.1246, 14843.51
570.6068, 14804.48
571.0889, 14754.97
571.5710, 14708.18
572.0531, 14664.21
572.5352, 14634.22
573.0173, 14647.46
573.4995, 14732.73
573.9816, 14782.57
574.4637, 14757.75
574.9458, 14717.54
575.4279, 14706.38
575.9100, 14720.51
576.3922, 14732.79
576.8743, 14725.59
577.3564, 14703.97
577.8385, 14681.85
578.3206, 14652.72
578.8027, 14638.92
579.2849, 14671.38
579.7670, 14700.10
580.2491, 14683.67
580.7312, 14626.28
581.2133, 14575.90
581.6954, 14564.18
582.1776, 14573.16
582.6597, 14583.07
583.1418, 14592.47
583.6239, 14578.64
584.1060, 14522.72
584.5881, 14448.57
585.0703, 14409.65
585.5524, 14420.01
586.0345, 14429.38
586.5166, 14431.59
586.9987, 14433.12
587.4808, 14442.98
587.9630, 14457.06
588.4451, 14462.51
588.9272, 14451.35
589.4093, 14425.63
589.8914, 14388.58
590.3735, 14333.28
590.8557, 14286.97
591.3378, 14249.35
591.8199, 14227.16
592.3020, 14233.57
592.7841, 14264.22
593.2662, 14289.14
593.7484, 14297.42
594.2305, 14290.57
594.7126, 14261.19
595.1947, 14213.74
595.6768, 14181.83
596.1589, 14182.68
596.6411, 14199.35
597.1232, 14198.27
597.6053, 14159.46
598.0874, 14149.84
598.5695, 14199.44
599.0516, 14250.58
599.5338, 14276.56
600.0159, 14275.49
600.4980, 14246.69
600.9801, 14186.38
601.4622, 14115.51
601.9443, 14079.00
602.4265, 14082.94
602.9086, 14083.49
603.3907, 14065.73
603.8728, 14051.95
604.3549, 14065.70
604.8370, 14100.08
605.3192, 14122.94
605.8013, 14123.87
606.2834, 14110.48
606.7655, 14077.18
607.2476, 14034.06
607.7297, 14014.06
608.2119, 14030.08
608.6940, 14054.00
609.1761, 14043.36
609.6582, 13984.92
610.1403, 13946.88
610.6224, 13935.81
611.1046, 13936.15
611.5867, 13953.62
612.0688, 13975.69
612.5509, 13981.96
613.0330, 13964.02
613.5151, 13940.19
613.9973, 13935.20
614.4794, 13946.29
614.9615, 13949.58
615.4436, 13941.19
615.9257, 13927.13
616.4078, 13909.98
616.8900, 13890.51
617.3721, 13872.37
617.8542, 13844.94
618.3363, 13831.79
618.8184, 13859.58
619.3005, 13898.68
619.7827, 13903.87
620.2648, 13869.86
620.7469, 13833.85
621.2290, 13835.73
621.7111, 13871.66
622.1932, 13872.83
622.6754, 13810.43
623.1575, 13761.75
623.6396, 13759.32
624.1217, 13771.11
624.6038, 13768.25
625.0859, 13746.42
625.5681, 13718.02
626.0502, 13675.71
626.5323, 13637.75
627.0144, 13644.08
627.4965, 13693.98
627.9786, 13741.51
628.4608, 13763.68
628.9429, 13764.75
629.4250, 13755.25
629.9071, 13729.14
630.3892, 13701.21
630.8713, 13650.45
631.3535, 13615.78
631.8356, 13636.36
632.3177, 13694.69
632.7998, 13742.39
633.2819, 13752.06
633.7640, 13735.96
634.2462, 13709.93
634.7283, 13672.44
635.2104, 13658.49
635.6925, 13695.02
636.1746, 13728.11
636.6567, 13687.64
637.1389, 13591.18
637.6210, 13532.50
638.1031, 13550.44
638.5852, 13584.39
639.0673, 13613.62
639.5494, 13632.83
640.0316, 13629.13
640.5137, 13600.50
640.9958, 13567.84
641.4779, 13556.39
641.9600, 13566.94
642.4421, 13576.58
642.9243, 13592.75
643.4064, 13595.99
643.8885, 13567.93
644.3706, 13531.25
644.8527, 13510.13
645.3348, 13508.93
645.8170, 13519.87
646.2991, 13550.26
646.7812, 13584.60
647.2633, 13591.30
647.7454, 13570.75
648.2275, 13556.08
648.7097, 13569.33
649.1918, 13596.56
649.6739, 13597.36
650.1560, 13540.59
650.6381, 13508.95
651.1202, 13525.21
651.6024, 13545.18
652.0845, 13545.51
652.5666, 13527.42
653.0487, 13497.31
653.5308, 13452.60
654.0129, 13413.38
654.4951, 13418.45
654.9772, 13463.55
655.4593, 13494.27
655.9414, 13497.42
656.4235, 13489.87
656.9056, 13483.28
657.3878, 13478.40
657.8699, 13482.81
658.3520, 13511.17
658.8341, 13531.52
659.3162, 13520.71
659.7983, 13502.26
660.2805, 13507.65
660.7626, 13540.66
661.2447, 13578.55
661.7268, 13604.29
662.2089, 13616.14
662.6910, 13598.75
663.1732, 13539.58
663.6553, 13490.36
664.1374, 13469.29
664.6195, 13466.94
665.1016, 13474.53
665.5837, 13492.81
666.0659, 13506.68
666.5480, 13512.63
667.0302, 13511.59
667.5123, 13494.68
667.9944, 13471.51
668.4765, 13468.40
668.9586, 13496.73
669.4407, 13541.48
669.9229, 13583.97
670.4050, 13630.85
670.8871, 13639.22
671.3692, 13574.14
671.8513, 13515.37
672.3334, 13504.49
672.8156, 13516.63
673.2977, 13514.28
673.7798, 13486.24
674.2619, 13456.62
674.7440, 13440.37
675.2261, 13432.20
675.7083, 13419.66
676.1904, 13403.43
676.6725, 13403.20
677.1546, 13434.56
677.6367, 13484.91
678.1188, 13513.52
678.6010, 13514.26
679.0831, 13503.87
679.5652, 13462.42
680.0473, 13430.04
680.5294, 13441.13
681.0115, 13479.13
681.4937, 13498.32
681.9758, 13473.05
682.4579, 13434.44
682.9400, 13412.47
683.4221, 13404.56
683.9042, 13406.95
684.3864, 13420.39
684.8685, 13422.55
685.3506, 13389.57
685.8327, 13325.79
686.3148, 13285.19
686.7969, 13284.00
687.2791, 13285.57
687.7612, 13295.16
688.2433, 13299.54
688.7254, 13282.41
689.2075, 13247.46
689.6896, 13216.93
690.1718, 13203.82
690.6539, 13205.09
691.1360, 13224.90
691.6181, 13260.30
692.1002, 13274.05
692.5823, 13252.85
693.0645, 13214.95
693.5466, 13175.93
694.0287, 13134.10
694.5108, 13115.84
694.9929, 13144.48
695.4750, 13166.46
695.9572, 13162.38
696.4393, 13145.79
696.9214, 13130.53
697.4035, 13119.94
697.8856, 13111.70
698.3677, 13101.06
698.8499, 13091.91
699.3320, 13100.47
699.8141, 13127.96
700.2962, 13144.75
700.7783, 13138.85
701.2604, 13119.39
701.7426, 13098.03
702.2247, 13073.96
702.7068, 13052.32
703.1889, 13030.75
703.6710, 13014.41
704.1531, 13007.44
704.6353, 13006.51
705.1174, 13006.55
705.5995, 13006.30
706.0816, 13008.97
706.5637, 13028.04
707.0458, 13054.20
707.5280, 13037.50
708.0101, 12970.00
708.4922, 12916.35
708.9743, 12908.52
709.4564, 12925.73
709.9385, 12929.93
710.4207, 12913.30
710.9028, 12914.38
711.3849, 12962.68
711.8670, 13001.71
712.3491, 12993.81
712.8312, 12957.86
713.3134, 12926.88
713.7955, 12912.26
714.2776, 12903.91
714.7597, 12888.97
715.2418, 12869.66
715.7239, 12858.46
716.2061, 12856.49
716.6882, 12859.40
717.1703, 12868.23
717.6524, 12878.06
718.1345, 12877.35
718.6166, 12860.99
719.0988, 12851.18
719.5809, 12851.13
720.0630, 12856.72
720.5451, 12869.30
721.0272, 12884.79
721.5093, 12898.78
721.9915, 12909.52
722.4736, 12911.72
722.9557, 12894.74
723.4378, 12862.61
723.9199, 12834.70
724.4020, 12810.73
724.8842, 12800.86
725.3663, 12819.57
725.8484, 12847.67
726.3305, 12839.82
726.8126, 12776.52
727.2947, 12728.46
727.7769, 12708.36
728.2590, 12694.95
728.7411, 12676.18
729.2232, 12655.60
729.7053, 12640.74
730.1874, 12634.35
730.6696, 12635.92
731.1517, 12654.31
731.6338, 12680.89
732.1159, 12676.67
732.5980, 12636.47
733.0801, 12599.83
733.5623, 12584.25
734.0444, 12589.29
734.5265, 12618.32
735.0086, 12700.99
735.4907, 12737.04
735.9728, 12682.80
736.4550, 12628.11
736.9371, 12618.17
737.4192, 12636.06
737.9013, 12654.32
738.3834, 12664.29
738.8655, 12657.76
739.3477, 12611.59
739.8298, 12545.68
740.3119, 12511.88
740.7940, 12512.72
741.2761, 12527.51
741.7582, 12548.75
742.2404, 12572.08
742.7225, 12589.51
743.2046, 12602.34
743.6867, 12604.92
744.1688, 12592.61
744.6509, 12575.82
745.1331, 12548.46
745.6152, 12522.98
746.0973, 12521.36
746.5794, 12549.88
747.0615, 12573.69
747.5436, 12559.96
748.0258, 12529.16
748.5079, 12517.68
748.9900, 12522.99
749.4721, 12515.57
749.9542, 12480.77
750.4363, 12438.64
750.9185, 12423.79
751.4006, 12443.95
751.8827, 12448.06
752.3648, 12416.39
752.8469, 12394.82
753.3290, 12403.29
753.8112, 12425.37
754.2933, 12444.07
754.7754, 12456.93
755.2575, 12465.66
755.7396, 12476.12
756.2217, 12478.78
756.7039, 12457.73
757.1860, 12420.91
757.6681, 12389.79
758.1502, 12371.88
758.6323, 12363.16
759.1144, 12360.96
759.5966, 12364.98
760.0787, 12356.07
760.5608, 12325.70
761.0429, 12303.06
761.5250, 12303.56
762.0071, 12311.79
762.4893, 12309.57
762.9714, 12296.70
763.4535, 12288.66
763.9356, 12299.21
764.4177, 12304.57
764.8998, 12273.63
765.3820, 12235.88
765.8641, 12249.96
766.3462, 12319.47
766.8283, 12374.44
767.3104, 12341.36
767.7925, 12251.79
768.2747, 12217.27
768.7568, 12243.01
769.2389, 12263.07
769.7210, 12263.50
770.2031, 12245.61
770.6852, 12201.21
771.1674, 12131.40
771.6495, 12094.95
772.1316, 12125.31
772.6137, 12143.74
773.0958, 12112.96
773.5779, 12076.88
774.0601, 12085.30
774.5422, 12129.97
775.0243, 12157.56
775.5064, 12130.28
775.9885, 12083.09
776.4706, 12059.41
776.9528, 12055.85
777.4349, 12065.11
777.9170, 12086.64
778.3991, 12094.84
778.8812, 12063.33
779.3633, 12008.10
779.8455, 12007.01
780.3276, 12119.42
780.8097, 12172.38
781.2918, 12101.14
781.7739, 12023.00
782.2560, 11995.46
782.7382, 12006.30
783.2203, 12025.65
783.7024, 12051.74
784.1845, 12066.39
784.6666, 12048.53
785.1487, 12018.38
785.6309, 12004.35
786.1130, 12004.32
786.5951, 11996.36
787.0772, 11968.44
787.5593, 11935.58
788.0414, 11927.30
788.5236, 11945.97
789.0057, 11954.10
789.4878, 11948.40
789.9699, 11937.55
790.4520, 11919.31
790.9341, 11902.23
791.4163, 11904.79
791.8984, 11934.23
792.3805, 11947.56
792.8626, 11930.07
793.3447, 11903.98
793.8268, 11878.80
794.3090, 11853.90
794.7911, 11823.46
795.2732, 11787.76
795.7553, 11761.47
796.2374, 11760.94
796.7195, 11777.92
797.2017, 11800.83
797.6838, 11827.59
798.1659, 11832.89
798.6480, 11806.60
799.1301, 11769.42
799.6122, 11741.79
800.0944, 11723.86
800.5765, 11721.51
801.0586, 11755.03
801.5407, 11772.59
802.0228, 11751.08
802.5049, 11724.97
802.9871, 11722.14
803.4692, 11738.45
803.9513, 11749.54
804.4334, 11743.46
804.9155, 11735.79
805.3976, 11743.25
805.8798, 11752.26
806.3619, 11736.67
806.8440, 11699.75
807.3261, 11672.85
807.8082, 11676.57
808.2903, 11698.79
808.7725, 11718.30
809.2546, 11735.54
809.7367, 11734.97
810.2188, 11707.77
810.7009, 11685.51
811.1830, 11691.36
811.6652, 11712.28
812.1473, 11715.69
812.6294, 11694.99
813.1115, 11674.88
813.5936, 11657.78
814.0757, 11640.22
814.5579, 11611.36
815.0400, 11584.54
815.5221, 11585.07
816.0042, 11617.87
816.4863, 11646.13
816.9684, 11626.61
817.4506, 11595.27
817.9327, 11621.17
818.4148, 11685.89
818.8969, 11707.09
819.3790, 11658.65
819.8611, 11594.91
820.3433, 11575.16
820.8254, 11595.18
821.3075, 11612.10
821.7896, 11631.01
822.2717, 11631.34
822.7538, 11591.70
823.2360, 11550.42
823.7181, 11551.62
824.2002, 11582.33
824.6823, 11583.15
825.1644, 11508.73
825.6465, 11456.11
826.1287, 11468.22
826.6108, 11501.57
827.0929, 11526.28
827.5750, 11537.16
828.0571, 11531.88
828.5392, 11506.96
829.0214, 11480.77
829.5035, 11476.36
829.9856, 11487.75
830.4678, 11499.36
830.9499, 11509.72
831.4320, 11519.77
831.9141, 11531.61
832.3962, 11536.23
832.8784, 11513.39
833.3605, 11453.46
833.8426, 11428.36
834.3247, 11463.59
834.8068, 11492.49
835.2889, 11488.26
835.7711, 11470.22
836.2532, 11453.99
836.7353, 11440.33
837.2174, 11431.09
837.6995, 11418.82
838.1816, 11420.12
838.6638, 11459.94
839.1459, 11508.46
839.6280, 11523.64
840.1101, 11506.33
840.5922, 11492.48
841.0743, 11508.80
841.5565, 11532.59
842.0386, 11520.63
842.5207, 11483.49
843.0028, 11474.71
843.4849, 11502.37
843.9670, 11526.69
844.4492, 11520.91
844.9313, 11497.91
845.4134, 11490.94
845.8955, 11505.84
846.3776, 11519.46
846.8597, 11536.72
847.3419, 11545.73
847.8240, 11535.20
848.3061, 11517.00
848.7882, 11503.64
849.2703, 11495.19
849.7524, 11499.43
850.2346, 11529.40
850.7167, 11560.77
851.1988, 11583.59
851.6809, 11597.09
852.1630, 11597.08
852.6451, 11585.62
853.1273, 11575.28
853.6094, 11572.39
854.0915, 11579.69
854.5736, 11613.08
855.0557, 11662.43
855.5378, 11677.64
856.0200, 11649.97
856.5021, 11627.98
856.9842, 11648.32
857.4663, 11697.21
857.9484, 11734.41
858.4305, 11758.08
858.9127, 11775.61
859.3948, 11783.22
859.8769, 11790.75
860.3590, 11798.08
860.8411, 11810.51
861.3232, 11839.28
861.8054, 11889.19
862.2875, 11931.34
862.7696, 11944.44
863.2517, 11966.29
863.7338, 12033.32
864.2159, 12111.28
864.6981, 12144.17
865.1802, 12131.00
865.6623, 12136.35
866.1444, 12213.08
866.6265, 12318.77
867.1086, 12403.36
867.5908, 12471.89
868.0729, 12533.03
868.5550, 12590.07
869.0371, 12659.34
869.5192, 12754.28
870.0013, 12861.17
870.4835, 12942.73
870.9656, 12993.92
871.4477, 13065.72
871.9298, 13172.90
872.4119, 13268.62
872.8940, 13319.50
873.3762, 13352.23
873.8583, 13419.11
874.3404, 13534.16
874.8225, 13632.29
875.3046, 13703.40
875.7867, 13769.95
876.2689, 13852.77
876.7510, 13926.12
877.2331, 13959.99
877.7152, 13955.07
878.1973, 13940.64
878.6794, 13925.85
879.1616, 13910.80
879.6437, 13891.52
880.1258, 13874.02
880.6079, 13877.63
881.0900, 13894.87
881.5721, 13886.70
882.0543, 13829.10
882.5364, 13749.53
883.0185, 13691.28
883.5006, 13650.19
883.9827, 13602.94
884.4648, 13548.69
884.9470, 13474.05
885.4291, 13369.21
885.9112, 13255.54
886.3933, 13164.69
886.8754, 13098.15
887.3575, 13031.70
887.8397, 12964.01
888.3218, 12898.47
888.8039, 12835.05
889.2860, 12774.04
889.7681, 12715.22
890.2502, 12658.71
890.7324, 12605.38
891.2145, 12550.90
891.6966, 12505.19
892.1787, 12476.79
892.6608, 12452.83
893.1429, 12423.98
893.6251, 12391.12
894.1072, 12357.60
894.5893, 12324.40
895.0714, 12293.91
895.5535, 12269.30
896.0356, 12247.84
896.5178, 12226.13
896.9999, 12204.17
897.4820, 12181.53
897.9641, 12158.46
898.4462, 12137.14
898.9283, 12120.28
899.4105, 12106.70
899.8926, 12094.17
900.3747, 12083.15
900.8568, 12059.55
901.3389, 12016.32
901.8210, 11980.19
902.3032, 11972.07
902.7853, 11982.27
903.2674, 11983.88
903.7495, 11978.13
904.2316, 11960.13
904.7137, 11913.62
905.1959, 11875.09
905.6780, 11862.73
906.1601, 11861.63
906.6422, 11855.42
907.1243, 11843.05
907.6064, 11828.51
908.0886, 11808.33
908.5707, 11791.78
909.0528, 11791.78
909.5349, 11791.65
910.0170, 11768.56
910.4991, 11727.74
910.9813, 11694.02
911.4634, 11678.13
911.9455, 11676.86
912.4276, 11699.72
912.9097, 11729.04
913.3918, 11731.42
913.8740, 11710.21
914.3561, 11689.87
914.8382, 11680.08
915.3203, 11672.28
915.8024, 11656.13
916.2845, 11632.80
916.7667, 11605.46
917.2488, 11573.36
917.7309, 11557.78
918.2130, 11566.62
918.6951, 11580.81
919.1772, 11585.69
919.6594, 11581.68
920.1415, 11569.68
920.6236, 11543.05
921.1057, 11525.10
921.5878, 11523.19
922.0699, 11521.61
922.5521, 11510.87
923.0342, 11496.97
923.5163, 11490.67
923.9984, 11494.60
924.4805, 11489.63
924.9626, 11465.14
925.4448, 11441.45
925.9269, 11427.03
926.4090, 11416.85
926.8911, 11406.75
927.3732, 11395.95
927.8553, 11383.90
928.3375, 11368.69
928.8196, 11356.26
929.3017, 11357.07
929.7838, 11358.88
930.2659, 11335.72
930.7480, 11300.46
931.2302, 11298.42
931.7123, 11345.46
932.1944, 11395.85
932.6765, 11395.25
933.1586, 11363.33
933.6407, 11347.65
934.1229, 11346.27
934.6050, 11349.28
935.0871, 11354.24
935.5692, 11361.13
936.0513, 11370.23
936.5334, 11380.72
937.0156, 11391.03
937.4977, 11401.77
937.9798, 11406.43
938.4619, 11401.19
938.9440, 11402.18
939.4261, 11421.07
939.9083, 11445.62
940.3904, 11456.01
940.8725, 11450.56
941.3546, 11443.61
941.8367, 11424.77
942.3188, 11419.87
942.8010, 11446.17
943.2831, 11476.65
943.7652, 11489.85
944.2473, 11490.25
944.7294, 11496.33
945.2115, 11517.89
945.6937, 11529.99
946.1758, 11518.34
946.6579, 11503.16
947.1400, 11501.67
947.6221, 11503.51
948.1042, 11485.42
948.5864, 11444.87
949.0685, 11417.40
949.5506, 11436.56
950.0327, 11464.53
950.5148, 11469.05
950.9969, 11460.27
951.4791, 11460.28
951.9612, 11465.07
952.4433, 11441.39
952.9254, 11367.31
953.4075, 11288.13
953.8896, 11270.29
954.3718, 11289.62
954.8539, 11284.94
955.3360, 11256.08
955.8181, 11222.63
956.3002, 11191.24
956.7823, 11155.60
957.2645, 11106.09
957.7466, 11049.60
958.2287, 11018.17
958.7108, 11013.82
959.1929, 10989.72
959.6750, 10934.96
960.1572, 10878.50
960.6393, 10837.58
961.1214, 10806.18
961.6035, 10772.16
962.0856, 10735.49
962.5677, 10694.64
963.0499, 10645.96
963.5320, 10600.15
964.0141, 10556.00
964.4962, 10520.50
964.9783, 10505.71
965.4604, 10508.49
965.9426, 10500.94
966.4247, 10474.58
966.9068, 10450.81
967.3889, 10436.61
967.8710, 10419.70
968.3531, 10389.28
968.8353, 10353.85
969.3174, 10327.86
969.7995, 10313.69
970.2816, 10296.57
970.7637, 10261.90
971.2458, 10234.56
971.7280, 10229.24
972.2101, 10236.29
972.6922, 10251.99
973.1743, 10270.00
973.6564, 10276.92
974.1385, 10266.98
974.6207, 10246.19
975.1028, 10206.88
975.5849, 10168.63
976.0670, 10154.06
976.5491, 10159.34
977.0313, 10179.54
977.5134, 10209.63
977.9955, 10228.66
978.4776, 10214.65
978.9597, 10189.50
979.4418, 10189.75
979.9240, 10206.74
980.4061, 10216.41
980.8882, 10216.76
981.3703, 10219.50
981.8524, 10230.83
982.3345, 10235.80
982.8167, 10204.67
983.2988, 10148.46
983.7809, 10131.89
984.2630, 10154.30
984.7451, 10180.44
985.2272, 10203.21
985.7094, 10213.43
986.1915, 10202.12
986.6736, 10176.44
987.1557, 10154.72
987.6378, 10135.52
988.1199, 10134.14
988.6021, 10159.08
989.0842, 10174.69
989.5663, 10166.56
990.0484, 10142.92
990.5305, 10109.49
991.0126, 10067.27
991.4948, 10045.70
991.9769, 10053.00
992.4590, 10064.52
992.9411, 10086.47
993.4232, 10100.88
993.9053, 10093.58
994.3875, 10073.53
994.8696, 10055.51
995.3517, 10036.47
995.8339, 10034.17
996.3160, 10071.94
996.7981, 10097.06
997.2802, 10090.84
997.7623, 10070.77
998.2444, 10037.53
998.7266, 10002.51
999.2087, 10003.81
999.6908, 10073.69
1000.173, 10114.75
1000.655, 10065.51
1001.137, 10017.81
1001.619, 10040.45
1002.101, 10088.39
1002.583, 10096.81
1003.066, 10061.33
1003.548, 10027.91
1004.030, 10013.05
1004.512, 10009.79
1004.994, 10031.29
1005.476, 10048.69
1005.958, 10024.12
1006.440, 9973.458
1006.923, 9932.351
1007.405, 9912.128
1007.887, 9909.808
1008.369, 9934.580
1008.851, 9965.994
1009.333, 9983.814
1009.815, 9993.121
1010.297, 10003.64
1010.779, 10014.69
1011.262, 10015.62
1011.744, 10000.23
1012.226, 9984.876
1012.708, 9991.667
1013.190, 10008.42
1013.672, 10016.04
1014.154, 10013.80
1014.636, 9996.648
1015.119, 9966.584
1015.601, 9945.264
1016.083, 9949.793
1016.565, 9968.240
1017.047, 9983.463
1017.529, 9994.994
1018.011, 9998.534
1018.493, 9995.243
1018.975, 9997.310
1019.458, 10009.07
1019.940, 10019.94
1020.422, 10018.42
1020.904, 10007.77
1021.386, 9997.956
1021.868, 9988.883
1022.350, 9978.246
1022.832, 9965.579
1023.315, 9956.908
1023.797, 9954.762
1024.279, 9961.548
1024.761, 9984.233
1025.243, 10020.31
1025.725, 10035.56
1026.207, 10026.94
1026.689, 10028.51
1027.171, 10050.13
1027.654, 10065.98
1028.136, 10056.17
1028.618, 10034.45
1029.100, 10031.60
1029.582, 10050.00
1030.064, 10067.46
1030.546, 10084.71
1031.028, 10098.79
1031.510, 10110.70
1031.993, 10114.15
1032.475, 10099.46
1032.957, 10074.11
1033.439, 10067.91
1033.921, 10090.91
1034.403, 10103.33
1034.885, 10101.57
1035.367, 10095.42
1035.849, 10080.99
1036.332, 10073.20
1036.814, 10094.17
1037.296, 10139.25
1037.778, 10161.98
1038.260, 10153.31
1038.742, 10138.97
1039.224, 10099.20
1039.706, 10082.78
1040.189, 10131.39
1040.671, 10201.91
1041.153, 10239.16
1041.635, 10242.49
1042.117, 10226.23
1042.599, 10147.00
1043.081, 10112.02
1043.563, 10165.40
1044.046, 10229.60
1044.528, 10261.84
1045.010, 10277.42
1045.492, 10306.68
1045.974, 10354.89
1046.456, 10383.94
1046.938, 10370.85
1047.420, 10365.53
1047.902, 10389.25
1048.385, 10414.89
1048.867, 10420.91
1049.349, 10414.64
1049.831, 10412.91
1050.313, 10416.09
1050.795, 10430.37
1051.277, 10471.13
1051.759, 10504.96
1052.241, 10520.01
1052.724, 10523.60
1053.206, 10517.83
1053.688, 10506.67
1054.170, 10498.45
1054.652, 10489.91
1055.134, 10499.31
1055.616, 10552.48
1056.098, 10599.05
1056.581, 10614.98
1057.063, 10611.85
1057.545, 10596.33
1058.027, 10573.27
1058.509, 10556.13
1058.991, 10547.50
1059.473, 10546.50
1059.955, 10562.88
1060.438, 10575.66
1060.920, 10575.15
1061.402, 10562.25
1061.884, 10532.56
1062.366, 10490.49
1062.848, 10460.01
1063.330, 10457.87
1063.812, 10451.03
1064.294, 10421.26
1064.776, 10388.82
1065.259, 10356.39
1065.741, 10336.23
1066.223, 10362.26
1066.705, 10427.56
1067.187, 10444.82
1067.669, 10349.19
1068.151, 10251.39
1068.633, 10194.17
1069.116, 10157.38
1069.598, 10133.34
1070.080, 10114.60
1070.562, 10087.82
1071.044, 10052.49
1071.526, 10033.48
1072.008, 10066.28
1072.490, 10084.50
1072.973, 10041.73
1073.455, 9985.676
1073.937, 9952.080
1074.419, 9937.617
1074.901, 9932.788
1075.383, 9934.998
1075.865, 9933.527
1076.347, 9917.244
1076.829, 9904.302
1077.312, 9911.276
1077.794, 9919.009
1078.276, 9905.758
1078.758, 9880.873
1079.240, 9868.494
1079.722, 9873.951
1080.204, 9869.548
1080.686, 9836.202
1081.169, 9798.302
1081.651, 9762.965
1082.133, 9733.652
1082.615, 9715.294
1083.097, 9704.922
1083.579, 9694.955
1084.061, 9683.320
1084.543, 9678.438
1085.026, 9693.602
1085.508, 9704.710
1085.990, 9691.461
1086.472, 9674.693
1086.954, 9681.322
1087.436, 9699.450
1087.918, 9695.720
1088.400, 9660.333
1088.882, 9628.703
1089.365, 9623.831
1089.847, 9615.720
1090.329, 9570.038
1090.811, 9529.875
1091.293, 9549.667
1091.775, 9605.967
1092.257, 9637.558
1092.739, 9629.609
1093.221, 9605.200
1093.704, 9553.722
1094.186, 9511.288
1094.668, 9499.993
1095.150, 9501.752
1095.632, 9502.532
1096.114, 9501.565
1096.596, 9500.942
1097.078, 9500.913
1097.561, 9502.934
1098.043, 9517.840
1098.525, 9521.858
1099.007, 9493.245
1099.489, 9459.625
1099.971, 9445.376
1100.453, 9446.045
1100.935, 9446.956
1101.417, 9446.005
1101.900, 9442.794
1102.382, 9400.369
1102.864, 9434.933
1103.346, 9452.364
1103.828, 9453.583
1104.310, 9390.030
1104.792, 9410.116
1105.274, 9396.684
1105.756, 9381.878
1106.239, 9413.726
1106.721, 9359.595
1107.203, 9390.712
1107.685, 9387.799
1108.167, 9400.462
1108.649, 9379.398
1109.131, 9368.753
1109.613, 9391.842
1110.096, 9396.243
1110.578, 9371.297
1111.060, 9384.949
1111.542, 9329.641
1112.024, 9334.846
1112.506, 9366.161
1112.988, 9342.911
1113.470, 9357.181
1113.953, 9357.150
1114.435, 9292.191
1114.917, 9340.168
1115.399, 9339.303
1115.881, 9288.291
1116.363, 9332.396
1116.845, 9288.297
1117.327, 9275.682
1117.809, 9286.760
1118.292, 9273.129
1118.774, 9298.449
1119.256, 9286.254
1119.738, 9270.707
1120.220, 9269.788
1120.702, 9227.418
1121.184, 9261.947
1121.666, 9243.947
1122.148, 9252.060
1122.631, 9266.079
1123.113, 9234.792
1123.595, 9251.481
1124.077, 9193.771
1124.559, 9198.313
1125.041, 9196.152
1125.523, 9233.781
1126.005, 9176.434
1126.488, 9179.236
1126.970, 9207.665
1127.452, 9200.251
1127.934, 9207.823
1128.416, 9171.031
1128.898, 9175.916
1129.380, 9169.312
1129.862, 9202.404
1130.344, 9204.159
1130.827, 9168.111
1131.309, 9145.125
1131.791, 9124.085
1132.273, 9136.309
1132.755, 9181.293
1133.237, 9188.892
1133.719, 9151.511
1134.201, 9133.900
1134.683, 9164.160
1135.166, 9199.970
1135.648, 9194.001
1136.130, 9163.535
1136.612, 9156.316
1137.094, 9168.376
1137.576, 9178.896
1138.058, 9185.939
1138.540, 9188.181
1139.023, 9185.541
1139.505, 9185.927
1139.987, 9199.744
1140.469, 9210.751
1140.951, 9175.861
1141.433, 9121.079
1141.915, 9122.983
1142.397, 9166.437
1142.880, 9178.652
1143.362, 9145.924
1143.844, 9118.672
1144.326, 9133.043
1144.808, 9158.783
1145.290, 9162.879
1145.772, 9154.522
1146.254, 9142.833
1146.736, 9130.996
1147.219, 9125.810
1147.701, 9126.105
1148.183, 9119.660
1148.665, 9097.379
1149.147, 9082.705
1149.629, 9104.545
1150.111, 9131.067
1150.593, 9132.569
1151.075, 9120.938
1151.558, 9114.499
1152.040, 9112.436
1152.522, 9103.068
1153.004, 9082.229
1153.486, 9057.412
1153.968, 9021.454
1154.450, 8995.917
1154.932, 8993.749
1155.415, 9006.566
1155.897, 9041.996
1156.379, 9081.811
1156.861, 9081.604
1157.343, 9028.661
1157.825, 8993.122
1158.307, 8990.770
1158.789, 9006.329
1159.271, 9063.133
1159.754, 9108.182
1160.236, 9088.490
1160.718, 9043.629
1161.200, 9047.445
1161.682, 9104.261
1162.164, 9136.593
1162.646, 9142.147
1163.128, 9124.434
1163.610, 9058.462
1164.093, 9012.939
1164.575, 9029.048
1165.057, 9064.930
1165.539, 9069.659
1166.021, 9048.946
1166.503, 9042.909
1166.985, 9056.022
1167.467, 9061.627
1167.950, 9055.605
1168.432, 9057.316
1168.914, 9076.134
1169.396, 9091.201
1169.878, 9081.927
1170.360, 9058.855
1170.842, 9051.327
1171.324, 9057.827
1171.807, 9054.355
1172.289, 9040.627
1172.771, 9016.779
1173.253, 8983.874
1173.735, 8966.083
1174.217, 8980.151
1174.699, 9006.570
1175.181, 9018.332
1175.663, 9019.473
1176.146, 9016.302
1176.628, 9012.011
1177.110, 9017.682
1177.592, 9032.265
1178.074, 9044.792
1178.556, 9050.556
1179.038, 9050.198
1179.520, 9040.255
1180.002, 9028.831
1180.485, 9026.107
1180.967, 9026.600
1181.449, 9025.337
1181.931, 9020.271
1182.413, 9003.664
1182.895, 8976.449
1183.377, 8965.068
1183.859, 8996.493
1184.342, 9023.608
1184.824, 9021.089
1185.306, 9007.444
1185.788, 8985.758
1186.270, 8967.531
1186.752, 8968.305
1187.234, 8986.797
1187.716, 9008.304
1188.198, 9041.916
1188.681, 9052.755
1189.163, 9015.480
1189.645, 8982.190
1190.127, 8970.267
1190.609, 8968.430
1191.091, 8971.663
1191.573, 8977.019
1192.055, 8975.106
1192.537, 8961.990
1193.020, 8969.527
1193.502, 9009.767
1193.984, 9030.611
1194.466, 9016.854
1194.948, 9003.991
1195.430, 9013.431
1195.912, 9028.590
1196.394, 9024.244
1196.877, 9004.952
1197.359, 8994.866
1197.841, 8993.802
1198.323, 9002.390
1198.805, 9018.928
1199.287, 9011.734
1199.769, 8970.201
1200.251, 8929.691
1200.734, 8921.426
1201.216, 8929.946
1201.698, 8931.305
1202.180, 8929.399
1202.662, 8933.845
1203.144, 8941.768
1203.626, 8940.993
1204.108, 8933.099
1204.590, 8940.839
1205.073, 8979.633
1205.555, 9003.184
1206.037, 8952.955
1206.519, 8897.992
1207.001, 8903.832
1207.483, 8930.231
1207.965, 8926.922
1208.447, 8904.042
1208.929, 8900.550
1209.412, 8925.557
1209.894, 8933.875
1210.376, 8889.470
1210.858, 8861.287
1211.340, 8870.648
1211.822, 8896.091
1212.304, 8955.182
1212.786, 9002.446
1213.269, 8964.621
1213.751, 8859.287
1214.233, 8816.865
1214.715, 8864.523
1215.197, 8900.059
1215.679, 8925.775
1216.161, 8925.549
1216.643, 8885.982
1217.125, 8849.344
1217.608, 8847.680
1218.090, 8868.874
1218.572, 8895.485
1219.054, 8923.969
1219.536, 8914.281
1220.018, 8872.811
1220.500, 8864.890
1220.982, 8895.467
1221.464, 8913.826
1221.947, 8897.809
1222.429, 8869.643
1222.911, 8848.146
1223.393, 8830.850
1223.875, 8805.928
1224.357, 8788.119
1224.839, 8816.809
1225.321, 8866.680
1225.804, 8871.975
1226.286, 8830.403
1226.768, 8808.730
1227.250, 8846.280
1227.732, 8873.604
1228.214, 8836.476
1228.696, 8800.352
1229.178, 8813.099
1229.661, 8837.033
1230.143, 8834.857
1230.625, 8813.423
1231.107, 8793.309
1231.589, 8774.064
1232.071, 8772.676
1232.553, 8801.493
1233.035, 8825.979
1233.517, 8846.326
1234.000, 8855.796
1234.482, 8856.399
1234.964, 8831.659
1235.446, 8750.476
1235.928, 8640.227
1236.410, 8618.328
1236.892, 8685.306
1237.374, 8733.567
1237.856, 8759.939
1238.339, 8778.868
1238.821, 8793.922
1239.303, 8803.422
1239.785, 8806.271
1240.267, 8804.425
1240.749, 8802.038
1241.231, 8795.496
1241.713, 8765.435
1242.196, 8733.760
1242.678, 8748.246
1243.160, 8796.459
1243.642, 8840.409
1244.124, 8867.291
1244.606, 8866.908
1245.088, 8818.298
1245.570, 8771.560
1246.052, 8751.656
1246.535, 8740.831
1247.017, 8724.952
1247.499, 8714.364
1247.981, 8723.717
1248.463, 8748.757
1248.945, 8775.796
1249.427, 8813.417
1249.909, 8809.562
1250.392, 8729.779
1250.874, 8691.805
1251.356, 8730.598
1251.838, 8770.220
1252.320, 8772.991
1252.802, 8755.307
1253.284, 8734.154
1253.766, 8713.555
1254.249, 8713.689
1254.731, 8729.883
1255.213, 8722.769
1255.695, 8694.046
1256.177, 8661.454
1256.659, 8633.749
1257.141, 8640.572
1257.623, 8703.163
1258.105, 8764.142
1258.588, 8764.741
1259.070, 8732.508
1259.552, 8673.414
1260.034, 8617.935
1260.516, 8612.604
1260.998, 8639.690
1261.480, 8652.798
1261.962, 8644.475
1262.444, 8645.944
1262.927, 8682.283
1263.409, 8702.111
1263.891, 8680.739
1264.373, 8660.111
1264.855, 8659.590
##END=



