##NAMES=Kyanite
##RRUFFID=R100139
##IDEAL CHEMISTRY=Al_2_OSiO_4_
##LOCALITY=Madagascar
##OWNER=RRUFF
##SOURCE=William W. Pinch
##DESCRIPTION=Blue prismatic crystal fragment, slightly water-worn
##STATUS=The identification of this mineral has been confirmed by single-crystal X-ray diffraction.
##URL=rruff.info/R100139
126.2297, 1950.579
126.7118, 1951.365
127.1939, 1953.822
127.6761, 1958.535
128.1582, 1962.357
128.6403, 1960.443
129.1224, 1953.859
129.6045, 1947.763
130.0867, 1945.432
130.5688, 1945.941
131.0509, 1946.607
131.5330, 1947.471
132.0151, 1947.786
132.4972, 1944.799
132.9794, 1938.502
133.4615, 1934.487
133.9436, 1938.945
134.4257, 1951.034
134.9078, 1958.326
135.3899, 1958.055
135.8721, 1952.862
136.3542, 1949.983
136.8363, 1949.619
137.3184, 1950.675
137.8005, 1952.455
138.2826, 1955.026
138.7648, 1957.919
139.2469, 1960.956
139.7290, 1964.237
140.2111, 1968.654
140.6932, 1975.052
141.1753, 1981.089
141.6575, 1983.803
142.1396, 1981.177
142.6217, 1980.906
143.1038, 1985.383
143.5859, 1994.986
144.0681, 2002.202
144.5502, 2006.231
145.0323, 2008.647
145.5144, 2011.247
145.9965, 2013.894
146.4786, 2016.918
146.9608, 2020.333
147.4429, 2024.193
147.9250, 2028.422
148.4071, 2032.948
148.8892, 2037.885
149.3713, 2043.322
149.8535, 2050.359
150.3356, 2056.878
150.8177, 2062.071
151.2998, 2064.612
151.7819, 2068.692
152.2640, 2074.605
152.7462, 2082.045
153.2283, 2090.364
153.7104, 2101.174
154.1925, 2111.523
154.6746, 2120.327
155.1567, 2126.991
155.6389, 2132.793
156.1210, 2137.188
156.6031, 2140.795
157.0852, 2145.190
157.5673, 2151.537
158.0495, 2158.125
158.5316, 2164.220
159.0137, 2169.865
159.4958, 2174.683
159.9779, 2177.912
160.4600, 2180.103
160.9422, 2183.045
161.4243, 2189.116
161.9064, 2195.122
162.3885, 2198.791
162.8706, 2197.305
163.3527, 2196.110
163.8349, 2196.676
164.3170, 2199.139
164.7991, 2204.151
165.2812, 2215.824
165.7633, 2228.546
166.2454, 2237.147
166.7276, 2235.996
167.2097, 2233.980
167.6918, 2236.515
168.1739, 2243.155
168.6560, 2250.342
169.1381, 2255.475
169.6203, 2251.116
170.1024, 2248.798
170.5845, 2235.212
171.0666, 2222.599
171.5487, 2207.465
172.0309, 2190.116
172.5130, 2173.353
172.9951, 2159.568
173.4772, 2147.576
173.9593, 2135.484
174.4414, 2121.971
174.9236, 2108.334
175.4057, 2096.216
175.8878, 2085.475
176.3699, 2075.515
176.8520, 2066.170
177.3341, 2057.085
177.8163, 2047.496
178.2984, 2037.408
178.7805, 2026.548
179.2626, 2013.493
179.7447, 1998.133
180.2268, 1983.897
180.7090, 1975.262
181.1911, 1970.917
181.6732, 1967.004
182.1553, 1962.113
182.6374, 1956.411
183.1195, 1950.168
183.6017, 1943.200
184.0838, 1936.359
184.5659, 1930.341
185.0480, 1925.130
185.5301, 1920.412
186.0123, 1916.307
186.4944, 1912.584
186.9765, 1908.570
187.4586, 1904.057
187.9407, 1899.668
188.4228, 1896.592
188.9050, 1894.679
189.3871, 1892.354
189.8692, 1888.714
190.3513, 1883.971
190.8334, 1878.938
191.3155, 1873.556
191.7977, 1868.249
192.2798, 1863.799
192.7619, 1860.218
193.2440, 1856.795
193.7261, 1853.708
194.2082, 1850.823
194.6904, 1845.667
195.1725, 1837.428
195.6546, 1828.261
196.1367, 1822.532
196.6188, 1820.368
197.1009, 1819.339
197.5831, 1818.730
198.0652, 1818.525
198.5473, 1816.764
199.0294, 1812.890
199.5115, 1808.005
199.9937, 1804.354
200.4758, 1802.082
200.9579, 1800.215
201.4400, 1798.238
201.9221, 1796.103
202.4042, 1794.158
202.8864, 1792.194
203.3685, 1790.612
203.8506, 1790.637
204.3327, 1792.605
204.8148, 1794.754
205.2969, 1796.171
205.7791, 1796.799
206.2612, 1797.276
206.7433, 1798.077
207.2254, 1798.426
207.7075, 1796.089
208.1896, 1790.490
208.6718, 1783.884
209.1539, 1777.223
209.6360, 1770.486
210.1181, 1764.142
210.6002, 1758.168
211.0823, 1752.662
211.5645, 1747.809
212.0466, 1743.486
212.5287, 1740.162
213.0108, 1738.353
213.4929, 1738.568
213.9750, 1738.419
214.4572, 1737.941
214.9393, 1736.976
215.4214, 1734.557
215.9035, 1729.389
216.3856, 1725.352
216.8678, 1725.199
217.3499, 1730.765
217.8320, 1733.932
218.3141, 1733.536
218.7962, 1730.656
219.2783, 1728.768
219.7605, 1728.423
220.2426, 1727.984
220.7247, 1726.127
221.2068, 1721.319
221.6889, 1719.658
222.1710, 1722.850
222.6532, 1729.031
223.1353, 1732.181
223.6174, 1731.338
224.0995, 1729.196
224.5816, 1726.877
225.0637, 1723.822
225.5459, 1722.126
226.0280, 1722.504
226.5101, 1724.151
226.9922, 1724.754
227.4743, 1724.713
227.9564, 1723.033
228.4386, 1718.742
228.9207, 1710.020
229.4028, 1703.280
229.8849, 1698.998
230.3670, 1696.616
230.8492, 1694.598
231.3313, 1693.313
231.8134, 1691.855
232.2955, 1689.716
232.7776, 1686.478
233.2597, 1683.578
233.7419, 1680.594
234.2240, 1678.103
234.7061, 1678.015
235.1882, 1682.384
235.6703, 1686.093
236.1524, 1686.695
236.6346, 1682.087
237.1167, 1679.341
237.5988, 1679.488
238.0809, 1681.115
238.5630, 1680.715
239.0451, 1676.667
239.5273, 1672.984
240.0094, 1671.344
240.4915, 1672.472
240.9736, 1673.687
241.4557, 1675.109
241.9378, 1676.517
242.4200, 1677.402
242.9021, 1677.300
243.3842, 1677.372
243.8663, 1678.321
244.3484, 1681.083
244.8306, 1681.774
245.3127, 1679.429
245.7948, 1675.527
246.2769, 1672.697
246.7590, 1670.994
247.2411, 1670.362
247.7233, 1671.269
248.2054, 1674.768
248.6875, 1675.759
249.1696, 1672.993
249.6517, 1668.585
250.1338, 1666.082
250.6160, 1666.615
251.0981, 1667.044
251.5802, 1666.371
252.0623, 1664.399
252.5444, 1662.386
253.0265, 1660.406
253.5087, 1658.358
253.9908, 1655.982
254.4729, 1652.662
254.9550, 1650.297
255.4371, 1649.920
255.9192, 1652.022
256.4014, 1651.962
256.8835, 1648.509
257.3656, 1644.110
257.8477, 1641.676
258.3298, 1641.778
258.8120, 1642.550
259.2941, 1643.561
259.7762, 1644.794
260.2583, 1646.654
260.7404, 1649.812
261.2225, 1652.736
261.7047, 1653.664
262.1868, 1651.793
262.6689, 1649.890
263.1510, 1648.311
263.6331, 1647.068
264.1152, 1646.841
264.5974, 1647.858
265.0795, 1649.535
265.5616, 1651.660
266.0437, 1654.941
266.5258, 1656.407
267.0079, 1654.982
267.4901, 1651.097
267.9722, 1648.689
268.4543, 1648.328
268.9364, 1648.348
269.4185, 1646.955
269.9006, 1643.387
270.3828, 1641.862
270.8649, 1643.247
271.3470, 1647.125
271.8291, 1651.998
272.3112, 1658.550
272.7933, 1664.331
273.2755, 1666.538
273.7576, 1664.172
274.2397, 1665.115
274.7218, 1671.214
275.2039, 1680.618
275.6860, 1687.402
276.1682, 1690.917
276.6503, 1694.506
277.1324, 1702.020
277.6145, 1714.202
278.0966, 1719.826
278.5787, 1717.467
279.0609, 1708.952
279.5430, 1696.348
280.0251, 1678.795
280.5072, 1663.171
280.9893, 1653.447
281.4715, 1649.689
281.9536, 1647.705
282.4357, 1647.464
282.9178, 1648.647
283.3999, 1650.736
283.8820, 1653.700
284.3642, 1657.633
284.8463, 1663.042
285.3284, 1669.734
285.8105, 1675.318
286.2926, 1679.487
286.7747, 1683.405
287.2569, 1688.917
287.7390, 1695.935
288.2211, 1702.647
288.7032, 1707.580
289.1853, 1711.483
289.6674, 1718.283
290.1496, 1728.369
290.6317, 1739.086
291.1138, 1748.548
291.5959, 1756.549
292.0780, 1761.199
292.5602, 1761.035
293.0423, 1757.527
293.5244, 1753.622
294.0065, 1749.292
294.4886, 1746.105
294.9707, 1744.434
295.4529, 1744.840
295.9350, 1749.212
296.4171, 1757.797
296.8992, 1770.897
297.3813, 1789.221
297.8634, 1812.561
298.3456, 1839.971
298.8277, 1872.187
299.3098, 1907.632
299.7919, 1943.374
300.2740, 1979.884
300.7561, 2014.051
301.2383, 2048.409
301.7204, 2079.531
302.2025, 2089.023
302.6846, 2056.627
303.1667, 1998.044
303.6488, 1932.762
304.1310, 1860.786
304.6131, 1793.497
305.0952, 1742.828
305.5773, 1706.626
306.0594, 1679.200
306.5415, 1658.904
307.0237, 1644.917
307.5058, 1636.930
307.9879, 1635.440
308.4700, 1636.750
308.9521, 1639.795
309.4343, 1643.524
309.9164, 1646.157
310.3985, 1645.649
310.8806, 1644.636
311.3627, 1645.085
311.8448, 1647.095
312.3270, 1649.807
312.8091, 1653.506
313.2912, 1657.367
313.7733, 1660.417
314.2554, 1661.627
314.7375, 1662.534
315.2197, 1663.557
315.7018, 1664.799
316.1839, 1666.965
316.6660, 1670.431
317.1481, 1674.949
317.6302, 1680.309
318.1124, 1687.169
318.5945, 1694.004
319.0766, 1699.230
319.5587, 1703.783
320.0408, 1710.949
320.5229, 1722.086
321.0051, 1735.880
321.4872, 1751.700
321.9693, 1769.327
322.4514, 1788.869
322.9335, 1809.863
323.4156, 1832.812
323.8978, 1858.684
324.3799, 1894.160
324.8620, 1926.932
325.3441, 1954.940
325.8262, 1981.696
326.3083, 1991.178
326.7905, 1979.660
327.2726, 1950.956
327.7547, 1910.054
328.2368, 1837.572
328.7189, 1773.023
329.2010, 1723.912
329.6832, 1691.409
330.1653, 1665.701
330.6474, 1648.968
331.1295, 1637.486
331.6116, 1628.273
332.0938, 1622.541
332.5759, 1617.039
333.0580, 1610.602
333.5401, 1603.723
334.0222, 1600.814
334.5043, 1603.920
334.9865, 1608.120
335.4686, 1610.652
335.9507, 1611.357
336.4328, 1610.536
336.9149, 1607.101
337.3970, 1602.662
337.8792, 1601.822
338.3613, 1605.479
338.8434, 1610.146
339.3255, 1614.539
339.8076, 1618.726
340.2898, 1622.459
340.7719, 1626.042
341.2540, 1628.767
341.7361, 1629.397
342.2182, 1627.774
342.7003, 1625.573
343.1825, 1623.269
343.6646, 1620.853
344.1467, 1618.241
344.6288, 1615.286
345.1109, 1612.728
345.5930, 1611.422
346.0752, 1611.276
346.5573, 1611.202
347.0394, 1610.641
347.5215, 1610.209
348.0036, 1611.901
348.4857, 1615.635
348.9679, 1618.840
349.4500, 1618.723
349.9321, 1616.525
350.4142, 1615.887
350.8963, 1617.508
351.3784, 1620.461
351.8606, 1624.078
352.3427, 1628.133
352.8248, 1631.863
353.3069, 1633.883
353.7890, 1635.651
354.2711, 1638.907
354.7533, 1643.702
355.2354, 1650.576
355.7175, 1660.616
356.1996, 1672.942
356.6817, 1686.015
357.1638, 1699.408
357.6460, 1713.125
358.1281, 1727.551
358.6102, 1742.551
359.0923, 1757.398
359.5744, 1774.680
360.0565, 1790.119
360.5387, 1799.810
361.0208, 1805.264
361.5029, 1801.526
361.9850, 1782.403
362.4671, 1751.615
362.9492, 1720.736
363.4314, 1688.363
363.9135, 1660.923
364.3956, 1642.567
364.8777, 1636.502
365.3598, 1633.075
365.8419, 1629.852
366.3241, 1628.103
366.8062, 1629.783
367.2883, 1637.989
367.7704, 1646.914
368.2526, 1654.851
368.7347, 1661.406
369.2168, 1669.160
369.6989, 1679.882
370.1810, 1690.768
370.6631, 1699.580
371.1453, 1704.878
371.6274, 1710.307
372.1095, 1717.024
372.5916, 1724.518
373.0737, 1729.034
373.5558, 1729.137
374.0380, 1728.438
374.5201, 1728.631
375.0022, 1729.374
375.4843, 1732.042
375.9664, 1736.561
376.4485, 1743.128
376.9307, 1753.217
377.4128, 1767.890
377.8949, 1781.176
378.3770, 1790.116
378.8591, 1794.911
379.3412, 1799.756
379.8234, 1804.197
380.3055, 1810.132
380.7876, 1819.301
381.2697, 1831.780
381.7518, 1847.447
382.2339, 1866.466
382.7161, 1888.434
383.1982, 1914.163
383.6803, 1943.299
384.1624, 1971.788
384.6445, 2001.064
385.1266, 2027.048
385.6088, 2039.961
386.0909, 2038.570
386.5730, 2023.295
387.0551, 1986.494
387.5372, 1934.970
388.0193, 1887.463
388.5015, 1851.123
388.9836, 1825.666
389.4657, 1812.186
389.9478, 1810.881
390.4299, 1816.264
390.9120, 1828.080
391.3942, 1843.325
391.8763, 1858.250
392.3584, 1879.532
392.8405, 1892.566
393.3226, 1889.184
393.8047, 1870.874
394.2869, 1844.416
394.7690, 1801.250
395.2511, 1758.395
395.7332, 1726.335
396.2154, 1708.788
396.6975, 1697.790
397.1796, 1691.841
397.6617, 1691.297
398.1438, 1696.674
398.6259, 1712.344
399.1081, 1729.707
399.5902, 1745.679
400.0723, 1759.332
400.5544, 1777.886
401.0365, 1803.789
401.5186, 1832.844
402.0008, 1861.523
402.4829, 1890.535
402.9650, 1918.643
403.4471, 1948.974
403.9292, 1978.330
404.4113, 1993.934
404.8935, 1997.466
405.3756, 1983.943
405.8577, 1946.162
406.3398, 1880.527
406.8219, 1819.474
407.3040, 1762.197
407.7862, 1711.585
408.2683, 1671.494
408.7504, 1642.060
409.2325, 1618.989
409.7146, 1601.678
410.1967, 1589.598
410.6789, 1580.321
411.1610, 1573.898
411.6431, 1569.275
412.1252, 1565.910
412.6073, 1563.680
413.0894, 1562.451
413.5716, 1562.553
414.0537, 1562.905
414.5358, 1561.868
415.0179, 1559.882
415.5000, 1558.372
415.9821, 1557.975
416.4643, 1558.493
416.9464, 1559.715
417.4285, 1561.590
417.9106, 1564.276
418.3927, 1569.061
418.8748, 1574.293
419.3570, 1577.939
419.8391, 1578.055
420.3212, 1577.710
420.8033, 1578.593
421.2854, 1580.284
421.7675, 1580.789
422.2497, 1577.318
422.7318, 1574.169
423.2139, 1573.855
423.6960, 1578.092
424.1781, 1582.068
424.6602, 1585.307
425.1424, 1588.014
425.6245, 1590.414
426.1066, 1591.979
426.5887, 1593.859
427.0709, 1595.962
427.5530, 1598.282
428.0351, 1602.330
428.5172, 1608.522
428.9993, 1615.910
429.4814, 1623.924
429.9636, 1632.641
430.4457, 1641.463
430.9278, 1649.866
431.4099, 1658.806
431.8920, 1670.389
432.3741, 1684.849
432.8563, 1700.945
433.3384, 1717.982
433.8205, 1736.202
434.3026, 1757.418
434.7847, 1782.131
435.2668, 1806.615
435.7490, 1828.431
436.2311, 1847.231
436.7132, 1861.030
437.1953, 1869.313
437.6774, 1872.398
438.1595, 1870.788
438.6417, 1864.474
439.1238, 1853.391
439.6059, 1837.766
440.0880, 1817.242
440.5701, 1789.845
441.0522, 1754.260
441.5344, 1718.960
442.0165, 1686.302
442.4986, 1657.895
442.9807, 1635.920
443.4628, 1624.215
443.9449, 1616.008
444.4271, 1608.850
444.9092, 1602.940
445.3913, 1599.651
445.8734, 1600.308
446.3555, 1602.970
446.8376, 1606.950
447.3198, 1613.532
447.8019, 1618.803
448.2840, 1624.038
448.7661, 1627.338
449.2482, 1625.885
449.7303, 1618.140
450.2125, 1608.134
450.6946, 1595.572
451.1767, 1580.778
451.6588, 1569.470
452.1409, 1562.458
452.6230, 1556.861
453.1052, 1550.221
453.5873, 1542.182
454.0694, 1537.472
454.5515, 1537.078
455.0337, 1538.840
455.5158, 1539.228
455.9979, 1538.346
456.4800, 1537.814
456.9621, 1538.961
457.4442, 1540.745
457.9264, 1540.399
458.4085, 1538.003
458.8906, 1535.452
459.3727, 1533.952
459.8548, 1533.421
460.3369, 1533.852
460.8191, 1535.484
461.3012, 1537.546
461.7833, 1539.242
462.2654, 1540.929
462.7475, 1543.329
463.2296, 1547.639
463.7118, 1552.054
464.1939, 1555.552
464.6760, 1558.084
465.1581, 1560.344
465.6402, 1562.705
466.1223, 1564.723
466.6045, 1566.043
467.0866, 1565.973
467.5687, 1565.936
468.0508, 1565.234
468.5329, 1564.664
469.0150, 1566.013
469.4972, 1569.333
469.9793, 1574.478
470.4614, 1581.836
470.9435, 1591.564
471.4256, 1600.573
471.9077, 1608.814
472.3899, 1616.490
472.8720, 1623.350
473.3541, 1629.325
473.8362, 1636.698
474.3183, 1646.115
474.8004, 1656.668
475.2826, 1666.173
475.7647, 1674.781
476.2468, 1684.676
476.7289, 1697.365
477.2110, 1712.089
477.6931, 1726.627
478.1753, 1741.014
478.6574, 1756.855
479.1395, 1773.827
479.6216, 1793.546
480.1037, 1818.704
480.5858, 1851.436
481.0680, 1887.291
481.5501, 1922.141
482.0322, 1957.945
482.5143, 1998.532
482.9964, 2046.473
483.4786, 2098.647
483.9607, 2154.966
484.4428, 2215.210
484.9249, 2275.178
485.4070, 2344.976
485.8892, 2406.851
486.3713, 2448.133
486.8534, 2475.199
487.3355, 2472.032
487.8176, 2431.497
488.2997, 2362.806
488.7819, 2281.287
489.2640, 2177.824
489.7461, 2081.101
490.2282, 1999.486
490.7103, 1932.168
491.1924, 1878.215
491.6746, 1838.280
492.1567, 1807.431
492.6388, 1784.135
493.1209, 1767.357
493.6030, 1751.031
494.0851, 1734.342
494.5673, 1717.057
495.0494, 1698.362
495.5315, 1678.681
496.0136, 1660.256
496.4957, 1644.167
496.9778, 1629.728
497.4600, 1615.345
497.9421, 1601.246
498.4242, 1589.030
498.9063, 1579.869
499.3884, 1572.797
499.8705, 1567.051
500.3527, 1563.065
500.8348, 1559.084
501.3169, 1554.459
501.7990, 1549.568
502.2811, 1544.903
502.7632, 1540.142
503.2454, 1536.143
503.7275, 1532.926
504.2096, 1530.541
504.6917, 1529.594
505.1738, 1531.604
505.6559, 1533.044
506.1381, 1531.580
506.6202, 1525.920
507.1023, 1522.878
507.5844, 1523.092
508.0665, 1524.812
508.5486, 1525.579
509.0308, 1525.355
509.5129, 1526.089
509.9950, 1528.864
510.4771, 1532.286
510.9592, 1532.879
511.4413, 1530.905
511.9235, 1529.172
512.4056, 1530.580
512.8877, 1532.889
513.3698, 1532.400
513.8519, 1528.674
514.3340, 1524.535
514.8162, 1521.808
515.2983, 1519.944
515.7804, 1518.342
516.2625, 1517.577
516.7446, 1516.111
517.2267, 1512.283
517.7089, 1507.304
518.1910, 1504.162
518.6731, 1505.498
519.1552, 1506.937
519.6373, 1507.067
520.1194, 1505.840
520.6016, 1503.830
521.0837, 1500.143
521.5658, 1496.672
522.0479, 1494.888
522.5300, 1495.264
523.0121, 1495.617
523.4943, 1495.814
523.9764, 1495.885
524.4585, 1496.002
524.9406, 1496.172
525.4227, 1495.883
525.9048, 1494.870
526.3870, 1493.320
526.8691, 1491.286
527.3513, 1488.844
527.8334, 1487.170
528.3155, 1487.901
528.7976, 1489.627
529.2797, 1490.097
529.7618, 1488.831
530.2440, 1487.611
530.7261, 1488.025
531.2082, 1489.121
531.6903, 1489.682
532.1724, 1488.423
532.6545, 1487.496
533.1367, 1487.988
533.6188, 1489.440
534.1009, 1490.220
534.5830, 1489.798
535.0651, 1488.924
535.5472, 1487.593
536.0294, 1485.581
536.5115, 1484.805
536.9936, 1485.844
537.4757, 1487.327
537.9578, 1488.194
538.4399, 1488.429
538.9221, 1488.083
539.4042, 1486.919
539.8863, 1485.591
540.3684, 1485.187
540.8505, 1485.677
541.3326, 1486.776
541.8148, 1488.928
542.2969, 1491.271
542.7790, 1492.029
543.2611, 1491.377
543.7432, 1490.743
544.2253, 1491.424
544.7075, 1492.439
545.1896, 1492.534
545.6717, 1491.275
546.1538, 1490.616
546.6359, 1492.047
547.1180, 1494.356
547.6002, 1496.237
548.0823, 1497.136
548.5644, 1497.874
549.0465, 1498.662
549.5286, 1499.395
550.0107, 1499.757
550.4929, 1499.500
550.9750, 1499.189
551.4571, 1498.719
551.9392, 1498.081
552.4213, 1499.271
552.9034, 1502.880
553.3856, 1506.471
553.8677, 1507.760
554.3498, 1506.966
554.8319, 1506.674
555.3140, 1507.066
555.7961, 1508.279
556.2783, 1510.515
556.7604, 1513.712
557.2425, 1517.724
557.7246, 1523.001
558.2067, 1528.587
558.6888, 1533.293
559.1710, 1537.455
559.6531, 1542.137
560.1352, 1548.649
560.6173, 1555.192
561.0994, 1560.408
561.5815, 1564.017
562.0637, 1568.138
562.5458, 1576.036
563.0279, 1582.674
563.5100, 1584.529
563.9921, 1579.939
564.4742, 1573.206
564.9564, 1563.598
565.4385, 1552.535
565.9206, 1541.961
566.4027, 1531.586
566.8848, 1523.652
567.3669, 1519.541
567.8491, 1517.991
568.3312, 1514.796
568.8133, 1510.056
569.2954, 1506.208
569.7775, 1505.814
570.2596, 1507.135
570.7418, 1506.981
571.2239, 1505.141
571.7060, 1502.817
572.1881, 1500.932
572.6702, 1499.076
573.1523, 1496.591
573.6345, 1492.307
574.1166, 1489.273
574.5987, 1490.067
575.0808, 1492.584
575.5629, 1493.326
576.0450, 1489.581
576.5272, 1486.404
577.0093, 1484.884
577.4914, 1484.795
577.9735, 1484.632
578.4556, 1484.300
578.9377, 1484.119
579.4199, 1484.307
579.9020, 1484.883
580.3841, 1485.350
580.8662, 1485.667
581.3483, 1486.194
581.8304, 1487.420
582.3126, 1489.178
582.7947, 1490.934
583.2768, 1492.688
583.7589, 1494.118
584.2410, 1494.496
584.7231, 1494.316
585.2053, 1494.560
585.6874, 1496.166
586.1696, 1497.774
586.6517, 1499.116
587.1338, 1499.942
587.6159, 1499.286
588.0980, 1495.242
588.5801, 1491.076
589.0623, 1488.148
589.5444, 1486.580
590.0265, 1485.484
590.5086, 1485.381
590.9907, 1485.103
591.4728, 1483.482
591.9550, 1480.197
592.4371, 1477.952
592.9192, 1477.096
593.4013, 1477.119
593.8834, 1477.733
594.3655, 1478.781
594.8477, 1479.026
595.3298, 1477.420
595.8119, 1475.682
596.2940, 1476.230
596.7761, 1478.648
597.2582, 1481.547
597.7404, 1484.620
598.2225, 1487.551
598.7046, 1490.305
599.1867, 1492.828
599.6688, 1494.448
600.1509, 1493.320
600.6331, 1492.392
601.1152, 1493.709
601.5973, 1498.823
602.0794, 1502.518
602.5615, 1503.837
603.0436, 1504.618
603.5258, 1507.141
604.0079, 1511.864
604.4900, 1515.979
604.9721, 1519.199
605.4542, 1521.353
605.9363, 1521.535
606.4185, 1519.983
606.9006, 1518.699
607.3827, 1520.034
607.8648, 1521.311
608.3469, 1517.423
608.8290, 1509.280
609.3112, 1502.187
609.7933, 1499.928
610.2754, 1499.398
610.7575, 1498.101
611.2396, 1495.582
611.7217, 1493.869
612.2039, 1494.085
612.6860, 1494.950
613.1681, 1495.475
613.6502, 1495.128
614.1323, 1495.293
614.6144, 1496.318
615.0966, 1497.538
615.5787, 1498.069
616.0608, 1497.893
616.5429, 1497.050
617.0250, 1495.270
617.5071, 1493.185
617.9893, 1492.409
618.4714, 1492.813
618.9535, 1493.296
619.4356, 1493.190
619.9177, 1492.916
620.3998, 1493.182
620.8820, 1493.911
621.3641, 1494.294
621.8462, 1493.333
622.3283, 1492.223
622.8104, 1491.808
623.2925, 1492.239
623.7747, 1493.096
624.2568, 1494.831
624.7389, 1496.593
625.2210, 1497.596
625.7031, 1497.031
626.1852, 1497.430
626.6674, 1498.943
627.1495, 1501.425
627.6316, 1505.078
628.1137, 1509.984
628.5958, 1514.018
629.0779, 1516.411
629.5601, 1517.787
630.0422, 1519.196
630.5243, 1520.641
631.0064, 1522.138
631.4885, 1523.151
631.9706, 1524.613
632.4528, 1528.027
632.9349, 1533.169
633.4170, 1537.411
633.8991, 1538.687
634.3812, 1539.412
634.8633, 1541.047
635.3455, 1543.947
635.8276, 1547.116
636.3097, 1551.036
636.7918, 1554.730
637.2739, 1557.699
637.7560, 1560.404
638.2382, 1560.134
638.7203, 1556.196
639.2024, 1550.046
639.6845, 1543.318
640.1666, 1536.067
640.6487, 1529.198
641.1309, 1523.085
641.6130, 1517.134
642.0951, 1509.779
642.5772, 1501.861
643.0594, 1496.119
643.5415, 1495.601
644.0236, 1496.084
644.5057, 1494.943
644.9879, 1492.316
645.4700, 1490.291
645.9521, 1489.278
646.4342, 1489.117
646.9163, 1489.896
647.3984, 1491.861
647.8806, 1493.434
648.3627, 1494.684
648.8448, 1495.544
649.3269, 1495.330
649.8090, 1494.078
650.2911, 1495.615
650.7733, 1500.638
651.2554, 1506.774
651.7375, 1511.792
652.2196, 1515.744
652.7017, 1518.647
653.1838, 1519.898
653.6660, 1521.257
654.1481, 1523.718
654.6302, 1527.241
655.1123, 1531.823
655.5944, 1539.643
656.0765, 1546.108
656.5587, 1549.593
657.0408, 1550.393
657.5229, 1550.390
658.0050, 1550.328
658.4871, 1548.026
658.9692, 1541.960
659.4514, 1532.592
659.9335, 1525.225
660.4156, 1520.050
660.8977, 1515.512
661.3798, 1510.489
661.8619, 1505.336
662.3441, 1500.822
662.8262, 1497.002
663.3083, 1493.822
663.7904, 1492.064
664.2725, 1490.551
664.7546, 1487.709
665.2368, 1482.337
665.7189, 1478.125
666.2010, 1477.091
666.6831, 1477.504
667.1652, 1477.400
667.6473, 1476.374
668.1295, 1475.370
668.6116, 1474.383
669.0937, 1473.517
669.5758, 1473.183
670.0579, 1473.497
670.5400, 1473.100
671.0222, 1471.188
671.5043, 1468.727
671.9864, 1467.913
672.4685, 1468.436
672.9506, 1468.832
673.4327, 1468.244
673.9149, 1467.152
674.3970, 1465.869
674.8791, 1464.408
675.3612, 1462.899
675.8433, 1461.300
676.3254, 1459.724
676.8076, 1458.372
677.2897, 1457.400
677.7718, 1455.721
678.2539, 1452.821
678.7360, 1450.027
679.2181, 1448.177
679.7003, 1447.327
680.1824, 1447.442
680.6645, 1448.755
681.1466, 1450.134
681.6287, 1450.058
682.1108, 1449.047
682.5930, 1448.489
683.0751, 1448.615
683.5572, 1449.308
684.0393, 1450.838
684.5214, 1452.732
685.0035, 1454.332
685.4857, 1455.553
685.9678, 1456.266
686.4499, 1456.278
686.9320, 1455.737
687.4141, 1455.000
687.8962, 1453.984
688.3784, 1452.922
688.8605, 1451.771
689.3426, 1450.670
689.8247, 1450.226
690.3068, 1450.476
690.7889, 1450.594
691.2711, 1450.168
691.7532, 1449.357
692.2353, 1448.139
692.7174, 1446.677
693.1995, 1445.910
693.6816, 1447.436
694.1638, 1449.122
694.6459, 1448.839
695.1280, 1446.318
695.6101, 1445.202
696.0922, 1448.140
696.5743, 1451.291
697.0565, 1452.690
697.5386, 1452.170
698.0207, 1450.380
698.5028, 1446.543
698.9849, 1443.122
699.4670, 1442.655
699.9492, 1444.906
700.4313, 1447.680
700.9135, 1450.862
701.3956, 1453.640
701.8777, 1455.047
702.3598, 1455.419
702.8419, 1455.226
703.3240, 1454.111
703.8062, 1453.360
704.2883, 1454.357
704.7704, 1455.897
705.2525, 1456.224
705.7346, 1453.183
706.2167, 1451.381
706.6989, 1452.060
707.1810, 1453.910
707.6631, 1453.771
708.1452, 1451.284
708.6273, 1449.155
709.1094, 1448.341
709.5916, 1448.295
710.0737, 1447.732
710.5558, 1446.769
711.0379, 1445.931
711.5200, 1445.418
712.0021, 1445.208
712.4843, 1445.403
712.9664, 1445.902
713.4485, 1446.259
713.9306, 1445.539
714.4127, 1445.296
714.8948, 1446.829
715.3770, 1450.189
715.8591, 1451.526
716.3412, 1450.087
716.8233, 1448.114
717.3054, 1446.724
717.7875, 1445.911
718.2697, 1445.771
718.7518, 1446.376
719.2339, 1446.838
719.7160, 1446.383
720.1981, 1445.312
720.6802, 1443.925
721.1624, 1442.226
721.6445, 1440.837
722.1266, 1440.138
722.6087, 1439.917
723.0908, 1440.049
723.5729, 1440.778
724.0551, 1441.303
724.5372, 1441.501
725.0193, 1441.565
725.5014, 1441.628
725.9835, 1441.645
726.4656, 1441.994
726.9478, 1442.793
727.4299, 1443.727
727.9120, 1444.506
728.3941, 1445.061
728.8762, 1445.076
729.3583, 1444.240
729.8405, 1443.315
730.3226, 1443.552
730.8047, 1443.992
731.2868, 1443.057
731.7689, 1438.030
732.2510, 1434.178
732.7332, 1432.934
733.2153, 1433.574
733.6974, 1434.965
734.1795, 1437.543
734.6616, 1439.692
735.1437, 1441.031
735.6259, 1441.658
736.1080, 1441.662
736.5901, 1441.086
737.0722, 1440.336
737.5543, 1439.175
738.0364, 1438.258
738.5186, 1438.765
739.0007, 1440.260
739.4828, 1441.217
739.9649, 1440.720
740.4470, 1439.786
740.9291, 1438.577
741.4113, 1437.197
741.8934, 1436.629
742.3755, 1437.650
742.8576, 1438.070
743.3397, 1436.590
743.8218, 1433.607
744.3040, 1432.488
744.7861, 1433.281
745.2682, 1434.567
745.7503, 1435.505
746.2324, 1436.269
746.7145, 1437.316
747.1967, 1438.602
747.6788, 1439.262
748.1609, 1438.420
748.6430, 1437.081
749.1251, 1435.842
749.6072, 1434.762
750.0894, 1433.712
750.5715, 1432.224
751.0536, 1431.382
751.5357, 1432.270
752.0178, 1435.155
752.4999, 1436.393
752.9821, 1435.778
753.4642, 1434.946
753.9463, 1435.746
754.4284, 1437.378
754.9105, 1438.049
755.3926, 1437.421
755.8748, 1436.974
756.3569, 1438.105
756.8390, 1439.559
757.3211, 1440.143
757.8032, 1439.024
758.2853, 1438.442
758.7675, 1439.025
759.2496, 1439.661
759.7318, 1439.173
760.2139, 1437.339
760.6960, 1436.170
761.1781, 1435.891
761.6602, 1436.152
762.1423, 1437.021
762.6245, 1438.074
763.1066, 1438.033
763.5887, 1436.202
764.0708, 1434.750
764.5529, 1435.908
765.0350, 1438.021
765.5172, 1439.115
765.9993, 1437.648
766.4814, 1436.609
766.9635, 1436.395
767.4456, 1436.473
767.9277, 1436.080
768.4099, 1435.072
768.8920, 1434.335
769.3741, 1433.928
769.8562, 1433.996
770.3383, 1435.399
770.8204, 1437.463
771.3026, 1438.275
771.7847, 1436.773
772.2668, 1434.791
772.7489, 1432.965
773.2310, 1431.660
773.7131, 1431.459
774.1953, 1434.808
774.6774, 1436.220
775.1595, 1434.237
775.6416, 1430.604
776.1237, 1428.340
776.6058, 1427.492
777.0880, 1427.811
777.5701, 1429.581
778.0522, 1431.825
778.5343, 1433.338
779.0164, 1433.970
779.4985, 1433.241
779.9807, 1429.563
780.4628, 1426.143
780.9449, 1425.224
781.4270, 1425.945
781.9091, 1426.497
782.3912, 1426.008
782.8734, 1426.023
783.3555, 1427.001
783.8376, 1428.512
784.3197, 1429.488
784.8018, 1429.921
785.2839, 1430.171
785.7661, 1430.507
786.2482, 1430.516
786.7303, 1428.880
787.2124, 1426.287
787.6945, 1424.649
788.1766, 1425.713
788.6588, 1427.092
789.1409, 1427.691
789.6230, 1427.662
790.1051, 1427.445
790.5872, 1426.629
791.0693, 1426.348
791.5515, 1426.824
792.0336, 1427.996
792.5157, 1430.135
792.9978, 1433.256
793.4799, 1435.191
793.9620, 1434.808
794.4442, 1433.228
794.9263, 1431.545
795.4084, 1429.987
795.8905, 1429.157
796.3726, 1429.755
796.8547, 1430.668
797.3369, 1431.784
797.8190, 1432.841
798.3011, 1432.941
798.7832, 1430.932
799.2653, 1430.322
799.7474, 1432.517
800.2296, 1436.226
800.7117, 1437.666
801.1938, 1437.024
801.6759, 1436.405
802.1580, 1436.879
802.6401, 1437.628
803.1223, 1438.326
803.6044, 1438.581
804.0865, 1437.359
804.5686, 1432.063
805.0507, 1427.733
805.5328, 1426.295
806.0150, 1427.011
806.4971, 1428.234
806.9792, 1430.352
807.4613, 1431.735
807.9434, 1431.762
808.4255, 1430.963
808.9077, 1430.392
809.3898, 1430.034
809.8719, 1429.868
810.3540, 1429.879
810.8361, 1430.044
811.3182, 1430.537
811.8004, 1431.146
812.2825, 1431.404
812.7646, 1430.556
813.2467, 1430.123
813.7288, 1430.513
814.2109, 1431.452
814.6931, 1432.214
815.1752, 1432.785
815.6573, 1433.626
816.1394, 1435.242
816.6215, 1436.645
817.1037, 1435.400
817.5858, 1432.574
818.0679, 1430.943
818.5500, 1433.281
819.0322, 1435.334
819.5143, 1434.399
819.9964, 1431.772
820.4785, 1430.163
820.9606, 1430.180
821.4427, 1430.314
821.9249, 1430.319
822.4070, 1430.319
822.8891, 1430.722
823.3712, 1431.463
823.8533, 1431.863
824.3354, 1431.843
824.8176, 1431.212
825.2997, 1429.359
825.7818, 1426.854
826.2639, 1424.698
826.7460, 1422.578
827.2281, 1421.645
827.7103, 1423.799
828.1924, 1426.527
828.6745, 1425.943
829.1566, 1420.588
829.6387, 1417.963
830.1208, 1419.622
830.6030, 1423.258
831.0851, 1426.304
831.5672, 1428.408
832.0493, 1428.298
832.5314, 1424.840
833.0135, 1421.190
833.4957, 1419.185
833.9778, 1418.393
834.4599, 1418.297
834.9420, 1419.825
835.4241, 1420.666
835.9063, 1420.840
836.3884, 1420.344
836.8705, 1418.593
837.3526, 1415.680
837.8347, 1414.936
838.3168, 1417.095
838.7990, 1419.646
839.2811, 1419.727
839.7632, 1418.643
840.2453, 1418.153
840.7274, 1418.646
841.2095, 1419.540
841.6917, 1421.602
842.1738, 1423.243
842.6559, 1423.047
843.1380, 1420.077
843.6201, 1418.791
844.1022, 1419.611
844.5844, 1420.656
845.0665, 1419.753
845.5486, 1417.730
846.0307, 1416.945
846.5128, 1417.634
846.9949, 1418.723
847.4771, 1419.424
847.9592, 1420.308
848.4413, 1422.101
848.9234, 1425.271
849.4055, 1427.049
849.8876, 1427.017
850.3698, 1426.107
850.8519, 1424.356
851.3340, 1421.922
851.8161, 1421.417
852.2982, 1422.816
852.7803, 1424.388
853.2625, 1424.906
853.7446, 1424.899
854.2267, 1425.033
854.7088, 1425.283
855.1909, 1425.020
855.6730, 1423.519
856.1552, 1422.016
856.6373, 1420.853
857.1194, 1420.082
857.6015, 1420.194
858.0836, 1421.356
858.5657, 1422.235
859.0479, 1421.917
859.5300, 1421.130
860.0121, 1421.611
860.4942, 1422.928
860.9763, 1423.537
861.4584, 1421.373
861.9406, 1419.651
862.4227, 1420.382
862.9048, 1422.816
863.3869, 1424.047
863.8690, 1423.246
864.3511, 1423.378
864.8333, 1425.456
865.3154, 1428.422
865.7975, 1430.352
866.2796, 1431.285
866.7617, 1431.366
867.2438, 1430.010
867.7260, 1428.878
868.2081, 1429.308
868.6902, 1430.744
869.1723, 1432.313
869.6544, 1435.004
870.1365, 1436.059
870.6187, 1434.706
871.1008, 1432.395
871.5829, 1431.000
872.0650, 1430.504
872.5471, 1430.631
873.0292, 1431.518
873.5114, 1432.142
873.9935, 1430.477
874.4756, 1428.371
874.9577, 1428.482
875.4399, 1432.307
875.9220, 1435.199
876.4041, 1434.951
876.8862, 1434.258
877.3683, 1435.089
877.8505, 1437.933
878.3326, 1438.616
878.8147, 1436.895
879.2968, 1434.695
879.7789, 1433.257
880.2610, 1432.628
880.7432, 1433.176
881.2253, 1434.861
881.7074, 1436.371
882.1895, 1437.022
882.6716, 1437.398
883.1537, 1437.851
883.6359, 1438.380
884.1180, 1438.469
884.6001, 1437.941
885.0822, 1437.796
885.5643, 1438.782
886.0464, 1440.351
886.5286, 1441.068
887.0107, 1441.145
887.4928, 1441.438
887.9749, 1441.875
888.4570, 1443.155
888.9391, 1446.955
889.4213, 1451.908
889.9034, 1453.567
890.3855, 1450.202
890.8676, 1447.413
891.3497, 1446.266
891.8318, 1446.316
892.3140, 1447.109
892.7961, 1448.401
893.2782, 1449.213
893.7603, 1449.098
894.2424, 1448.766
894.7245, 1448.087
895.2067, 1447.778
895.6888, 1448.768
896.1709, 1453.214
896.6530, 1455.389
897.1351, 1453.837
897.6172, 1452.274
898.0994, 1455.466
898.5815, 1462.565
899.0636, 1467.297
899.5457, 1468.973
900.0278, 1469.288
900.5099, 1468.955
900.9921, 1468.361
901.4742, 1467.748
901.9563, 1467.097
902.4384, 1467.090
902.9205, 1469.626
903.4026, 1470.131
903.8848, 1465.543
904.3669, 1456.706
904.8490, 1450.145
905.3311, 1445.878
905.8132, 1443.534
906.2953, 1444.570
906.7775, 1446.089
907.2596, 1445.264
907.7417, 1442.452
908.2238, 1439.029
908.7059, 1434.319
909.1880, 1430.349
909.6702, 1427.361
910.1523, 1425.465
910.6344, 1425.359
911.1165, 1427.004
911.5986, 1428.148
912.0807, 1428.096
912.5629, 1427.542
913.0450, 1426.749
913.5271, 1426.152
914.0092, 1426.472
914.4913, 1428.768
914.9734, 1430.398
915.4556, 1430.450
915.9377, 1430.179
916.4198, 1430.712
916.9019, 1432.092
917.3840, 1433.502
917.8661, 1434.906
918.3483, 1436.322
918.8304, 1437.915
919.3125, 1439.467
919.7946, 1440.869
920.2767, 1442.102
920.7589, 1442.552
921.2410, 1440.377
921.7231, 1439.168
922.2052, 1440.582
922.6873, 1444.299
923.1694, 1447.443
923.6516, 1449.952
924.1337, 1452.940
924.6158, 1457.339
925.0979, 1462.184
925.5800, 1466.140
926.0621, 1469.468
926.5443, 1472.887
927.0264, 1476.601
927.5085, 1480.510
927.9906, 1484.968
928.4727, 1489.409
928.9548, 1492.707
929.4370, 1494.813
929.9191, 1496.897
930.4012, 1498.897
930.8833, 1502.008
931.3654, 1508.350
931.8475, 1516.286
932.3297, 1523.742
932.8118, 1530.186
933.2939, 1536.368
933.7761, 1543.036
934.2582, 1548.838
934.7403, 1552.222
935.2224, 1553.081
935.7045, 1557.384
936.1866, 1565.268
936.6688, 1573.492
937.1509, 1579.711
937.6330, 1585.119
938.1151, 1591.077
938.5972, 1597.541
939.0793, 1603.706
939.5615, 1608.281
940.0436, 1614.093
940.5257, 1622.115
941.0078, 1631.646
941.4899, 1640.609
941.9720, 1649.024
942.4542, 1657.070
942.9363, 1664.495
943.4184, 1672.512
943.9005, 1682.584
944.3826, 1693.965
944.8647, 1706.046
945.3469, 1719.816
945.8290, 1731.743
946.3111, 1741.181
946.7932, 1749.267
947.2753, 1756.829
947.7574, 1763.951
948.2396, 1770.575
948.7217, 1776.740
949.2038, 1782.437
949.6859, 1787.585
950.1680, 1792.352
950.6501, 1797.021
951.1323, 1801.581
951.6144, 1805.361
952.0965, 1808.440
952.5786, 1810.487
953.0607, 1811.155
953.5428, 1810.866
954.0250, 1810.770
954.5071, 1810.840
954.9892, 1810.925
955.4713, 1810.541
955.9534, 1810.834
956.4355, 1812.856
956.9177, 1816.012
957.3998, 1819.568
957.8819, 1824.535
958.3640, 1827.706
958.8461, 1828.704
959.3282, 1828.573
959.8104, 1829.042
960.2925, 1829.327
960.7746, 1826.083
961.2567, 1819.047
961.7388, 1811.594
962.2209, 1806.913
962.7031, 1801.609
963.1852, 1793.381
963.6673, 1782.212
964.1494, 1769.706
964.6315, 1755.940
965.1136, 1740.801
965.5958, 1723.785
966.0779, 1705.806
966.5600, 1688.451
967.0421, 1671.533
967.5242, 1655.073
968.0063, 1639.067
968.4885, 1623.286
968.9706, 1606.896
969.4527, 1591.030
969.9348, 1576.660
970.4169, 1563.813
970.8990, 1553.047
971.3812, 1544.671
971.8633, 1536.981
972.3454, 1528.144
972.8275, 1519.136
973.3096, 1511.537
973.7917, 1505.494
974.2739, 1499.137
974.7560, 1490.978
975.2381, 1483.299
975.7202, 1476.940
976.2023, 1471.730
976.6844, 1466.690
977.1666, 1461.792
977.6487, 1457.352
978.1308, 1453.538
978.6129, 1450.293
979.0950, 1448.193
979.5771, 1446.447
980.0593, 1443.738
980.5414, 1437.783
981.0235, 1433.828
981.5056, 1432.636
981.9877, 1432.586
982.4698, 1432.452
982.9520, 1432.079
983.4341, 1430.125
983.9162, 1426.521
984.3983, 1423.278
984.8804, 1422.154
985.3625, 1421.653
985.8447, 1420.712
986.3268, 1419.306
986.8089, 1418.270
987.2910, 1417.774
987.7731, 1417.187
988.2552, 1416.187
988.7374, 1415.175
989.2195, 1415.066
989.7016, 1415.621
990.1837, 1416.110
990.6658, 1415.710
991.1479, 1416.379
991.6301, 1420.028
992.1122, 1424.424
992.5944, 1427.444
993.0765, 1428.855
993.5586, 1429.539
994.0407, 1429.328
994.5228, 1429.726
995.0049, 1432.605
995.4871, 1436.431
995.9692, 1438.686
996.4513, 1439.710
996.9334, 1442.392
997.4155, 1450.040
997.8976, 1456.449
998.3798, 1460.002
998.8619, 1461.488
999.3440, 1462.622
999.8261, 1463.436
1000.308, 1464.381
1000.790, 1465.893
1001.272, 1466.482
1001.755, 1464.803
1002.237, 1461.586
1002.719, 1457.395
1003.201, 1451.614
1003.683, 1447.369
1004.165, 1445.566
1004.647, 1442.947
1005.129, 1436.359
1005.612, 1427.490
1006.094, 1420.956
1006.576, 1416.531
1007.058, 1412.787
1007.540, 1409.282
1008.022, 1406.103
1008.504, 1403.008
1008.986, 1400.338
1009.468, 1398.812
1009.951, 1398.585
1010.433, 1398.294
1010.915, 1397.725
1011.397, 1396.992
1011.879, 1396.272
1012.361, 1395.429
1012.843, 1394.203
1013.325, 1392.481
1013.807, 1390.960
1014.290, 1389.572
1014.772, 1388.696
1015.254, 1388.925
1015.736, 1389.696
1016.218, 1388.349
1016.700, 1385.228
1017.182, 1382.311
1017.664, 1380.301
1018.147, 1378.996
1018.629, 1378.629
1019.111, 1378.762
1019.593, 1378.748
1020.075, 1378.702
1020.557, 1377.930
1021.039, 1376.150
1021.521, 1374.666
1022.003, 1375.229
1022.486, 1376.730
1022.968, 1377.204
1023.450, 1376.598
1023.932, 1375.740
1024.414, 1374.303
1024.896, 1373.506
1025.378, 1374.169
1025.860, 1375.509
1026.343, 1375.004
1026.825, 1372.813
1027.307, 1371.119
1027.789, 1370.647
1028.271, 1370.401
1028.753, 1369.388
1029.235, 1368.162
1029.717, 1367.277
1030.199, 1366.678
1030.682, 1367.182
1031.164, 1369.473
1031.646, 1370.958
1032.128, 1369.428
1032.610, 1366.137
1033.092, 1363.794
1033.574, 1362.488
1034.056, 1362.622
1034.539, 1366.881
1035.021, 1369.523
1035.503, 1367.483
1035.985, 1363.688
1036.467, 1361.900
1036.949, 1362.169
1037.431, 1363.065
1037.913, 1364.548
1038.396, 1365.392
1038.878, 1363.437
1039.360, 1361.094
1039.842, 1360.847
1040.324, 1362.913
1040.806, 1364.585
1041.288, 1365.867
1041.770, 1366.429
1042.252, 1366.163
1042.734, 1365.154
1043.217, 1363.048
1043.699, 1360.362
1044.181, 1358.435
1044.663, 1357.725
1045.145, 1357.644
1045.627, 1358.525
1046.109, 1359.471
1046.591, 1359.775
1047.074, 1359.409
1047.556, 1359.490
1048.038, 1360.025
1048.520, 1359.426
1049.002, 1355.160
1049.484, 1350.635
1049.966, 1349.070
1050.448, 1349.632
1050.931, 1349.836
1051.413, 1349.092
1051.895, 1348.615
1052.377, 1348.451
1052.859, 1348.812
1053.341, 1350.477
1053.823, 1352.746
1054.305, 1354.159
1054.787, 1354.545
1055.270, 1354.131
1055.752, 1351.497
1056.234, 1349.792
1056.716, 1350.734
1057.198, 1353.484
1057.680, 1355.018
1058.162, 1355.338
1058.644, 1354.302
1059.126, 1351.252
1059.609, 1348.382
1060.091, 1347.992
1060.573, 1348.702
1061.055, 1349.143
1061.537, 1349.457
1062.019, 1348.167
1062.501, 1344.825
1062.983, 1341.592
1063.466, 1340.084
1063.948, 1339.595
1064.430, 1338.812
1064.912, 1337.908
1065.394, 1337.365
1065.876, 1337.587
1066.358, 1337.920
1066.840, 1338.111
1067.323, 1338.502
1067.805, 1339.914
1068.287, 1342.056
1068.769, 1342.434
1069.251, 1340.851
1069.733, 1339.568
1070.215, 1340.583
1070.697, 1342.006
1071.179, 1342.990
1071.661, 1343.311
1072.144, 1341.596
1072.626, 1337.240
1073.108, 1335.438
1073.590, 1338.325
1074.072, 1341.891
1074.554, 1340.485
1075.036, 1336.983
1075.518, 1335.393
1076.001, 1337.118
1076.483, 1337.481
1076.965, 1335.449
1077.447, 1333.564
1077.929, 1333.327
1078.411, 1334.086
1078.893, 1333.579
1079.375, 1332.368
1079.858, 1332.360
1080.340, 1336.173
1080.822, 1338.635
1081.304, 1336.927
1081.786, 1333.751
1082.268, 1331.088
1082.750, 1328.930
1083.232, 1328.677
1083.714, 1330.329
1084.197, 1331.528
1084.679, 1329.599
1085.161, 1327.506
1085.643, 1328.315
1086.125, 1330.830
1086.607, 1330.836
1087.089, 1327.414
1087.571, 1324.564
1088.054, 1322.910
1088.536, 1321.857
1089.018, 1320.770
1089.500, 1319.788
1089.982, 1319.340
1090.464, 1319.464
1090.946, 1318.819
1091.428, 1316.169
1091.911, 1314.311
1092.393, 1314.371
1092.875, 1315.465
1093.357, 1315.396
1093.839, 1314.571
1094.321, 1314.424
1094.803, 1315.770
1095.285, 1316.487
1095.767, 1315.505
1096.250, 1313.550
1096.732, 1310.645
1097.214, 1306.965
1097.696, 1305.686
1098.178, 1306.740
1098.660, 1308.646
1099.142, 1312.025
1099.624, 1314.342
1100.106, 1312.164
1100.589, 1308.251
1101.071, 1307.166
1101.553, 1310.286
1102.035, 1312.245
1102.517, 1312.949
1102.999, 1312.412
1103.481, 1309.341
1103.963, 1305.875
1104.446, 1305.383
1104.928, 1307.194
1105.410, 1308.177
1105.892, 1307.231
1106.374, 1306.015
1106.856, 1304.647
1107.338, 1303.213
1107.820, 1301.443
1108.302, 1299.770
1108.785, 1299.355
1109.267, 1300.333
1109.749, 1301.416
1110.231, 1302.947
1110.713, 1303.381
1111.195, 1301.951
1111.677, 1299.265
1112.159, 1296.439
1112.641, 1293.727
1113.124, 1292.999
1113.606, 1295.239
1114.088, 1297.314
1114.570, 1297.120
1115.052, 1295.903
1115.534, 1294.753
1116.016, 1293.673
1116.498, 1290.635
1116.981, 1285.480
1117.463, 1282.743
1117.945, 1286.059
1118.427, 1289.971
1118.909, 1287.830
1119.391, 1283.320
1119.873, 1282.010
1120.355, 1286.295
1120.838, 1287.892
1121.320, 1286.256
1121.802, 1284.209
1122.284, 1283.894
1122.766, 1284.266
1123.248, 1283.586
1123.730, 1282.267
1124.212, 1281.425
1124.694, 1283.089
1125.177, 1282.411
1125.659, 1278.042
1126.141, 1273.328
1126.623, 1272.158
1127.105, 1273.343
1127.587, 1273.849
1128.069, 1273.568
1128.551, 1273.107
1129.033, 1272.775
1129.516, 1272.179
1129.998, 1271.017
1130.480, 1269.724
1130.962, 1268.983
1131.444, 1268.750
1131.926, 1269.086
1132.408, 1270.055
1132.890, 1270.251
1133.373, 1267.775
1133.855, 1265.312
1134.337, 1264.467
1134.819, 1264.845
1135.301, 1265.662
1135.783, 1266.843
1136.265, 1265.472
1136.747, 1260.045
1137.229, 1254.978
1137.712, 1254.516
1138.194, 1255.766
1138.676, 1256.429
1139.158, 1256.394
1139.640, 1255.108
1140.122, 1252.378
1140.604, 1250.157
1141.086, 1249.426
1141.569, 1249.158
1142.051, 1248.152
1142.533, 1246.874
1143.015, 1246.027
1143.497, 1244.966
1143.979, 1243.583
1144.461, 1243.134
1144.943, 1241.318
1145.426, 1240.540
1145.908, 1240.543
1146.390, 1241.549
1146.872, 1242.927
1147.354, 1243.366
1147.836, 1241.553
1148.318, 1240.242
1148.800, 1239.782
1149.282, 1239.173
1149.765, 1237.351
1150.247, 1234.867
1150.729, 1232.843
1151.211, 1231.275
1151.693, 1229.945
1152.175, 1228.272
1152.657, 1227.766
1153.139, 1229.355
1153.621, 1231.078
1154.104, 1230.441
1154.586, 1228.017
1155.068, 1225.358
1155.550, 1222.638
1156.032, 1220.712
1156.514, 1220.584
1156.996, 1220.561
1157.478, 1220.045
1157.961, 1219.332
1158.443, 1219.171
1158.925, 1219.354
1159.407, 1218.518
1159.889, 1216.444
1160.371, 1214.626
1160.853, 1213.917
1161.335, 1213.807
1161.818, 1214.391
1162.300, 1215.189
1162.782, 1214.516
1163.264, 1212.532
1163.746, 1211.293
1164.228, 1211.301
1164.710, 1211.707
1165.192, 1212.534
1165.674, 1212.976
1166.156, 1212.517
1166.639, 1211.194
1167.121, 1208.449
1167.603, 1204.321
1168.085, 1201.802
1168.567, 1202.339
1169.049, 1203.259
1169.531, 1201.875
1170.013, 1200.012
1170.496, 1199.846
1170.978, 1201.456
1171.460, 1201.183
1171.942, 1198.899
1172.424, 1196.888
1172.906, 1196.372
1173.388, 1196.189
1173.870, 1195.141
1174.353, 1194.511
1174.835, 1193.670
1175.317, 1192.494
1175.799, 1191.632
1176.281, 1190.141
1176.763, 1188.766
1177.245, 1188.169
1177.727, 1187.637
1178.209, 1185.834
1178.692, 1185.787
1179.174, 1183.042
1179.656, 1184.953
1180.138, 1185.777
1180.620, 1185.538
1181.102, 1184.050
1181.584, 1179.154
1182.066, 1174.459
1182.548, 1176.192
1183.031, 1181.518
1183.513, 1183.622
1183.995, 1179.838
1184.477, 1176.474
1184.959, 1173.652
1185.441, 1171.721
1185.923, 1171.501
1186.405, 1172.040
1186.888, 1172.223
1187.370, 1172.021
1187.852, 1171.423
1188.334, 1170.085
1188.816, 1168.953
1189.298, 1167.906
1189.780, 1167.753
1190.262, 1170.499
1190.745, 1173.998
1191.227, 1174.711
1191.709, 1172.946
1192.191, 1171.363
1192.673, 1170.237
1193.155, 1170.070
1193.637, 1171.417
1194.119, 1172.387
1194.601, 1169.769
1195.084, 1165.765
1195.566, 1164.067
1196.048, 1164.753
1196.530, 1165.444
1197.012, 1166.166
1197.494, 1165.696
1197.976, 1163.361
1198.458, 1160.788
1198.941, 1160.538
1199.423, 1161.522
1199.905, 1161.999
1200.387, 1161.778
1200.869, 1161.301
1201.351, 1160.684
1201.833, 1159.738
1202.315, 1158.272
1202.797, 1156.754
1203.280, 1155.732
1203.762, 1155.294
1204.244, 1155.899
1204.726, 1157.693
1205.208, 1158.669
1205.690, 1158.411
1206.172, 1157.507
1206.654, 1155.933
1207.136, 1154.144
1207.619, 1152.569
1208.101, 1151.472
1208.583, 1151.488
1209.065, 1152.884
1209.547, 1154.065
1210.029, 1154.969
1210.511, 1155.235
1210.993, 1154.559
1211.476, 1153.427
1211.958, 1152.712
1212.440, 1152.187
1212.922, 1151.244
1213.404, 1149.429
1213.886, 1149.283
1214.368, 1152.060
1214.850, 1153.951
1215.333, 1152.996
1215.815, 1150.849
1216.297, 1150.783
1216.779, 1151.663
1217.261, 1151.215
1217.743, 1148.305
1218.225, 1146.807
1218.707, 1147.412
1219.189, 1148.365
1219.672, 1148.980
1220.154, 1149.283
1220.636, 1149.431
1221.118, 1149.280
1221.600, 1148.436
1222.082, 1146.279
1222.564, 1145.326
1223.046, 1146.156
1223.528, 1146.677
1224.011, 1145.187
1224.493, 1143.481
1224.975, 1145.780
1225.457, 1144.691
1225.939, 1144.550
1226.421, 1146.274
1226.903, 1144.667
1227.385, 1146.972
1227.868, 1149.084
1228.350, 1148.125
1228.832, 1146.311
1229.314, 1147.797
1229.796, 1150.584
1230.278, 1151.077
1230.760, 1147.240
1231.242, 1145.034
1231.724, 1144.664
1232.207, 1144.845
1232.689, 1144.442
1233.171, 1144.573
1233.653, 1148.124
1234.135, 1152.715
1234.617, 1154.037
1235.099, 1150.143
1235.581, 1148.203
1236.063, 1148.505
1236.546, 1148.974
1237.028, 1148.201
1237.510, 1147.112
1237.992, 1146.451
1238.474, 1146.238
1238.956, 1146.638
1239.438, 1147.967
1239.920, 1148.217
1240.403, 1147.267
1240.885, 1146.791
1241.367, 1148.107
1241.849, 1150.066
1242.331, 1152.699
1242.813, 1154.753
1243.295, 1154.008
1243.777, 1149.475
1244.260, 1148.133
1244.742, 1149.958
1245.224, 1151.329
1245.706, 1148.846
1246.188, 1146.394
1246.670, 1147.150
1247.152, 1149.247
1247.634, 1149.986
1248.116, 1149.240
1248.599, 1149.230
1249.081, 1149.957
1249.563, 1151.104
1250.045, 1152.959
1250.527, 1154.629
1251.009, 1155.833
1251.491, 1156.425
1251.973, 1156.325
1252.455, 1155.517
1252.938, 1152.769
1253.420, 1148.532
1253.902, 1146.323
1254.384, 1150.123
1254.866, 1153.679
1255.348, 1154.533
1255.830, 1154.401
1256.313, 1154.654
1256.795, 1155.217
1257.277, 1155.686
1257.759, 1156.012
1258.241, 1155.943
1258.723, 1154.275
1259.205, 1153.839
1259.687, 1155.540
1260.169, 1157.910
1260.651, 1159.824
1261.134, 1161.330
1261.616, 1162.721
1262.098, 1163.852
1262.580, 1164.297
1263.062, 1163.028
1263.544, 1162.457
1264.026, 1163.213
1264.508, 1163.689
1264.991, 1161.843
1265.473, 1159.186
1265.955, 1158.770
1266.437, 1159.980
1266.919, 1161.120
1267.401, 1161.797
1267.883, 1162.430
1268.365, 1163.165
1268.848, 1163.401
1269.330, 1161.807
1269.812, 1160.145
1270.294, 1161.117
1270.776, 1163.675
1271.258, 1165.537
1271.740, 1166.715
1272.222, 1166.294
1272.704, 1164.082
1273.187, 1161.777
1273.669, 1160.533
1274.151, 1159.712
1274.633, 1158.464
1275.115, 1157.441
1275.597, 1157.762
1276.079, 1159.726
1276.561, 1161.013
1277.043, 1161.625
1277.526, 1161.747
1278.008, 1160.682
1278.490, 1160.132
1278.972, 1161.745
1279.454, 1163.963
1279.936, 1165.235
1280.418, 1165.572
1280.900, 1165.536
1281.383, 1165.221
1281.865, 1165.251
1282.347, 1166.115
1282.829, 1167.107
1283.311, 1168.393
1283.793, 1169.195
1284.275, 1168.215
1284.757, 1166.313
1285.240, 1168.069
1285.722, 1172.175
1286.204, 1174.250
1286.686, 1170.395
1287.168, 1168.656
1287.650, 1170.788
1288.132, 1173.076
1288.614, 1172.842
1289.096, 1171.143
1289.578, 1169.530
1290.061, 1168.256
1290.543, 1167.935
1291.025, 1169.569
1291.507, 1169.808
1291.989, 1168.222
1292.471, 1167.217
1292.953, 1168.747
1293.435, 1170.809
1293.918, 1170.385
1294.400, 1169.221
1294.882, 1170.437
1295.364, 1174.675
1295.846, 1175.584
1296.328, 1173.125
1296.810, 1171.287
1297.292, 1172.319
1297.775, 1173.716
1298.257, 1173.886
1298.739, 1173.471
1299.221, 1172.943
1299.703, 1172.355
1300.185, 1172.638
1300.667, 1173.629
1301.149, 1174.228
1301.631, 1173.885
1302.114, 1172.976
1302.596, 1172.895
##END=



