##NAMES=Kyanite
##RRUFFID=R040119
##IDEAL CHEMISTRY=Al_2_OSiO_4_
##LOCALITY=Rutherford County, North Carolina, USA
##OWNER=RRUFF
##SOURCE=University of Arizona Mineral Museum
##DESCRIPTION=Blue bladed crystal
##STATUS=The identification of this mineral has been confirmed by X-ray diffraction and chemical analysis
##URL=rruff.info/R040119
##MEASURED CHEMISTRY=(Al_0.99_Fe^3+^_0.01_)_2_OSi_1.00_O_4_
136.1626, 776.2065
136.6447, 800.5908
137.1268, 818.4161
137.6089, 827.8567
138.0910, 836.6895
138.5731, 850.0909
139.0553, 870.6541
139.5374, 884.1500
140.0195, 888.5082
140.5016, 885.3532
140.9837, 880.0007
141.4658, 870.1788
141.9480, 861.6506
142.4301, 858.5194
142.9122, 862.4255
143.3943, 868.2794
143.8764, 875.9054
144.3585, 885.2096
144.8407, 895.0433
145.3228, 905.6110
145.8049, 916.4896
146.2870, 927.0934
146.7691, 935.7293
147.2512, 946.1265
147.7334, 959.1782
148.2155, 975.6309
148.6976, 991.9663
149.1797, 1008.101
149.6618, 1024.185
150.1439, 1040.265
150.6261, 1058.120
151.1082, 1074.190
151.5903, 1087.401
152.0724, 1097.212
152.5545, 1105.265
153.0366, 1109.388
153.5188, 1111.856
154.0009, 1117.112
154.4830, 1134.047
154.9651, 1147.815
155.4472, 1150.919
155.9293, 1129.626
156.4115, 1116.576
156.8936, 1124.184
157.3757, 1146.585
157.8578, 1163.492
158.3399, 1165.287
158.8221, 1161.869
159.3042, 1159.706
159.7863, 1159.845
160.2684, 1161.940
160.7505, 1166.394
161.2326, 1173.040
161.7148, 1180.293
162.1969, 1189.469
162.6790, 1198.206
163.1611, 1204.127
163.6432, 1205.948
164.1253, 1205.249
164.6075, 1200.043
165.0896, 1190.161
165.5717, 1185.663
166.0538, 1197.998
166.5359, 1218.264
167.0180, 1233.738
167.5002, 1235.343
167.9823, 1232.702
168.4644, 1232.298
168.9465, 1234.519
169.4286, 1239.594
169.9107, 1249.935
170.3929, 1263.321
170.8750, 1275.350
171.3571, 1284.404
171.8392, 1290.550
172.3213, 1292.361
172.8034, 1287.911
173.2856, 1284.830
173.7677, 1293.398
174.2498, 1310.332
174.7319, 1324.210
175.2140, 1325.757
175.6961, 1320.473
176.1783, 1316.617
176.6604, 1315.932
177.1425, 1316.728
177.6246, 1317.168
178.1067, 1317.316
178.5888, 1317.622
179.0710, 1318.568
179.5531, 1319.903
180.0352, 1321.149
180.5173, 1322.459
180.9994, 1323.331
181.4815, 1321.130
181.9637, 1316.027
182.4458, 1313.930
182.9279, 1322.443
183.4100, 1338.881
183.8921, 1353.278
184.3742, 1362.663
184.8564, 1368.268
185.3385, 1372.240
185.8206, 1374.547
186.3027, 1376.017
186.7848, 1377.442
187.2669, 1378.782
187.7491, 1379.818
188.2312, 1380.834
188.7133, 1381.507
189.1954, 1379.372
189.6775, 1373.541
190.1596, 1368.988
190.6418, 1375.402
191.1239, 1392.333
191.6060, 1403.069
192.0881, 1395.732
192.5702, 1373.300
193.0524, 1362.490
193.5345, 1364.736
194.0166, 1374.849
194.4987, 1387.488
194.9808, 1403.064
195.4629, 1414.937
195.9451, 1418.220
196.4272, 1413.160
196.9093, 1409.963
197.3914, 1408.872
197.8735, 1409.762
198.3556, 1411.975
198.8378, 1415.198
199.3199, 1421.549
199.8020, 1433.545
200.2841, 1451.598
200.7662, 1467.606
201.2483, 1481.121
201.7305, 1492.323
202.2126, 1501.501
202.6947, 1508.508
203.1768, 1514.034
203.6589, 1515.349
204.1410, 1510.051
204.6232, 1519.469
205.1053, 1551.856
205.5874, 1597.398
206.0695, 1622.960
206.5516, 1625.165
207.0337, 1616.255
207.5159, 1603.219
207.9980, 1585.913
208.4801, 1565.476
208.9622, 1538.711
209.4443, 1508.991
209.9264, 1494.671
210.4086, 1500.962
210.8907, 1512.219
211.3728, 1516.146
211.8549, 1510.456
212.3370, 1505.324
212.8191, 1502.125
213.3013, 1500.729
213.7834, 1499.908
214.2655, 1499.801
214.7476, 1500.047
215.2297, 1500.703
215.7118, 1502.623
216.1940, 1502.432
216.6761, 1498.683
217.1582, 1491.616
217.6403, 1486.638
218.1224, 1483.111
218.6045, 1482.579
219.0867, 1487.108
219.5688, 1498.568
220.0509, 1510.587
220.5330, 1521.262
221.0151, 1530.648
221.4972, 1543.192
221.9794, 1561.824
222.4615, 1580.466
222.9436, 1591.863
223.4257, 1591.022
223.9078, 1593.482
224.3899, 1604.080
224.8721, 1623.940
225.3542, 1639.855
225.8363, 1655.135
226.3184, 1663.504
226.8005, 1655.611
227.2827, 1621.466
227.7648, 1590.117
228.2469, 1568.695
228.7290, 1558.088
229.2111, 1551.288
229.6932, 1550.424
230.1754, 1551.722
230.6575, 1550.179
231.1396, 1544.591
231.6217, 1538.156
232.1038, 1530.288
232.5859, 1519.193
233.0681, 1516.759
233.5502, 1526.027
234.0323, 1541.720
234.5144, 1557.180
234.9965, 1574.768
235.4786, 1587.831
235.9608, 1593.290
236.4429, 1588.950
236.9250, 1587.000
237.4071, 1588.316
237.8892, 1591.500
238.3713, 1594.395
238.8535, 1596.882
239.3356, 1599.263
239.8177, 1601.403
240.2998, 1602.866
240.7819, 1605.516
241.2640, 1607.883
241.7462, 1612.329
242.2283, 1624.531
242.7104, 1653.352
243.1925, 1675.255
243.6746, 1680.657
244.1567, 1663.130
244.6389, 1651.262
245.1210, 1648.016
245.6031, 1648.670
246.0852, 1644.661
246.5673, 1633.291
247.0494, 1621.781
247.5316, 1611.603
248.0137, 1600.763
248.4958, 1599.068
248.9779, 1612.407
249.4600, 1631.594
249.9421, 1638.773
250.4243, 1628.877
250.9064, 1616.172
251.3885, 1605.676
251.8706, 1598.144
252.3527, 1589.930
252.8348, 1579.786
253.3170, 1569.741
253.7991, 1564.102
254.2812, 1564.841
254.7633, 1566.347
255.2454, 1567.286
255.7275, 1568.801
256.2097, 1564.546
256.6918, 1550.348
257.1739, 1533.292
257.6560, 1527.431
258.1381, 1537.872
258.6202, 1548.986
259.1024, 1554.511
259.5845, 1552.493
260.0666, 1552.760
260.5487, 1555.651
261.0308, 1560.580
261.5129, 1566.903
261.9951, 1575.119
262.4772, 1583.421
262.9593, 1591.305
263.4414, 1599.139
263.9235, 1605.405
264.4056, 1611.046
264.8878, 1614.281
265.3699, 1610.345
265.8520, 1595.364
266.3341, 1584.179
266.8162, 1583.143
267.2983, 1593.698
267.7805, 1605.081
268.2626, 1616.617
268.7447, 1629.651
269.2268, 1648.602
269.7089, 1676.693
270.1910, 1698.966
270.6732, 1705.965
271.1553, 1694.788
271.6374, 1697.369
272.1195, 1716.202
272.6016, 1745.182
273.0837, 1772.761
273.5659, 1797.323
274.0480, 1829.175
274.5301, 1874.407
275.0122, 1933.316
275.4943, 1995.807
275.9764, 2067.668
276.4586, 2132.216
276.9407, 2165.874
277.4228, 2167.739
277.9049, 2144.362
278.3870, 2089.743
278.8691, 2005.627
279.3513, 1929.929
279.8334, 1860.948
280.3155, 1804.765
280.7976, 1772.648
281.2798, 1765.599
281.7619, 1765.508
282.2440, 1767.468
282.7261, 1771.219
283.2082, 1772.287
283.6903, 1768.418
284.1725, 1770.178
284.6546, 1795.589
285.1367, 1843.463
285.6188, 1887.952
286.1009, 1914.660
286.5830, 1930.048
287.0652, 1962.593
287.5473, 2013.073
288.0294, 2074.212
288.5115, 2143.367
288.9936, 2219.172
289.4757, 2288.213
289.9579, 2352.363
290.4400, 2405.407
290.9221, 2426.402
291.4042, 2413.583
291.8863, 2390.726
292.3684, 2370.553
292.8506, 2357.294
293.3327, 2369.140
293.8148, 2419.430
294.2969, 2493.933
294.7790, 2563.552
295.2611, 2628.607
295.7433, 2704.938
296.2254, 2794.807
296.7075, 2907.325
297.1896, 3061.797
297.6717, 3261.974
298.1538, 3511.924
298.6360, 3854.034
299.1181, 4280.708
299.6002, 4665.108
300.0823, 4995.126
300.5644, 5208.139
301.0465, 5173.929
301.5287, 4776.442
302.0108, 4221.890
302.4929, 3686.708
302.9750, 3176.211
303.4571, 2751.129
303.9392, 2467.347
304.4214, 2285.005
304.9035, 2148.846
305.3856, 2060.804
305.8677, 1997.014
306.3498, 1938.870
306.8319, 1889.177
307.3141, 1856.896
307.7962, 1861.358
308.2783, 1879.811
308.7604, 1889.339
309.2425, 1881.532
309.7246, 1872.248
310.2068, 1869.535
310.6889, 1873.000
311.1710, 1881.490
311.6531, 1898.060
312.1352, 1917.248
312.6173, 1933.933
313.0995, 1944.753
313.5816, 1959.971
314.0637, 1986.995
314.5458, 2021.709
315.0279, 2056.526
315.5100, 2083.366
315.9922, 2113.446
316.4743, 2151.698
316.9564, 2198.036
317.4385, 2255.317
317.9206, 2328.633
318.4027, 2412.521
318.8849, 2499.350
319.3670, 2582.666
319.8491, 2672.455
320.3312, 2764.008
320.8133, 2850.973
321.2954, 2980.213
321.7776, 3166.168
322.2597, 3397.287
322.7418, 3661.256
323.2239, 4041.899
323.7060, 4369.830
324.1881, 4643.753
324.6703, 4874.217
325.1524, 4903.490
325.6345, 4600.277
326.1166, 4154.402
326.5987, 3714.366
327.0808, 3215.512
327.5630, 2800.344
328.0451, 2496.036
328.5272, 2299.566
329.0093, 2145.678
329.4914, 2052.893
329.9735, 1989.092
330.4557, 1935.297
330.9378, 1893.317
331.4199, 1858.123
331.9020, 1829.001
332.3841, 1806.144
332.8662, 1791.036
333.3484, 1786.479
333.8305, 1785.647
334.3126, 1784.618
334.7947, 1782.180
335.2768, 1782.959
335.7589, 1786.074
336.2411, 1793.145
336.7232, 1810.248
337.2053, 1840.853
337.6874, 1871.002
338.1695, 1893.034
338.6516, 1905.301
339.1338, 1923.704
339.6159, 1951.502
340.0980, 1980.480
340.5801, 1997.884
341.0622, 2003.918
341.5443, 1997.392
342.0265, 1971.992
342.5086, 1930.670
342.9907, 1899.382
343.4728, 1879.405
343.9549, 1865.502
344.4370, 1851.836
344.9192, 1838.713
345.4013, 1828.488
345.8834, 1821.702
346.3655, 1818.630
346.8476, 1821.111
347.3297, 1829.217
347.8119, 1839.966
348.2940, 1851.401
348.7761, 1863.341
349.2582, 1874.724
349.7403, 1884.184
350.2225, 1894.342
350.7046, 1907.142
351.1867, 1923.149
351.6688, 1945.876
352.1509, 1981.702
352.6331, 2024.909
353.1152, 2065.716
353.5973, 2097.920
354.0794, 2134.838
354.5615, 2188.619
355.0436, 2256.951
355.5258, 2332.796
356.0079, 2404.648
356.4900, 2486.561
356.9721, 2593.631
357.4542, 2733.597
357.9363, 2880.338
358.4185, 3059.583
358.9006, 3231.478
359.3827, 3327.073
359.8648, 3303.432
360.3469, 3209.276
360.8290, 3043.047
361.3112, 2788.967
361.7933, 2578.132
362.2754, 2472.144
362.7575, 2421.516
363.2396, 2372.267
363.7217, 2295.655
364.2039, 2236.598
364.6860, 2209.837
365.1681, 2215.829
365.6502, 2230.842
366.1323, 2255.115
366.6144, 2285.763
367.0966, 2320.912
367.5787, 2352.635
368.0608, 2398.145
368.5429, 2462.794
369.0250, 2543.765
369.5071, 2626.845
369.9893, 2729.924
370.4714, 2814.150
370.9535, 2859.421
371.4356, 2853.302
371.9177, 2833.474
372.3998, 2790.474
372.8820, 2738.913
373.3641, 2710.142
373.8462, 2704.350
374.3283, 2720.893
374.8104, 2762.652
375.2925, 2831.780
375.7747, 2909.958
376.2568, 3005.469
376.7389, 3094.970
377.2210, 3139.008
377.7031, 3134.175
378.1852, 3132.090
378.6674, 3143.782
379.1495, 3171.050
379.6316, 3219.955
380.1137, 3289.287
380.5958, 3387.528
381.0779, 3522.809
381.5601, 3695.014
382.0422, 3898.172
382.5243, 4154.461
383.0064, 4416.450
383.4885, 4637.503
383.9706, 4811.458
384.4528, 4878.162
384.9349, 4755.271
385.4170, 4509.588
385.8991, 4234.175
386.3812, 3922.837
386.8633, 3640.001
387.3455, 3427.381
387.8276, 3287.876
388.3097, 3225.823
388.7918, 3265.320
389.2739, 3370.986
389.7560, 3536.588
390.2382, 3768.320
390.7203, 3978.111
391.2024, 4192.792
391.6845, 4334.149
392.1666, 4313.390
392.6487, 3953.985
393.1309, 3562.269
393.6130, 3236.034
394.0951, 2976.569
394.5772, 2784.375
395.0593, 2678.587
395.5414, 2627.682
396.0236, 2613.311
396.5057, 2650.856
396.9878, 2703.695
397.4699, 2767.740
397.9520, 2844.677
398.4341, 2938.100
398.9163, 3037.223
399.3984, 3163.954
399.8805, 3326.513
400.3626, 3528.254
400.8447, 3759.601
401.3268, 4044.996
401.8090, 4341.663
402.2911, 4615.357
402.7732, 4911.796
403.2553, 5057.035
403.7374, 4984.404
404.2195, 4703.077
404.7017, 4360.870
405.1838, 3932.538
405.6659, 3507.650
406.1480, 3161.257
406.6301, 2891.883
407.1122, 2682.538
407.5944, 2540.129
408.0765, 2445.308
408.5586, 2354.794
409.0407, 2268.399
409.5228, 2200.479
410.0049, 2170.387
410.4871, 2166.905
410.9692, 2158.130
411.4513, 2140.017
411.9334, 2119.844
412.4155, 2103.715
412.8976, 2091.705
413.3798, 2084.464
413.8619, 2082.738
414.3440, 2085.406
414.8261, 2091.125
415.3082, 2099.918
415.7903, 2112.736
416.2725, 2134.373
416.7546, 2158.879
417.2367, 2180.252
417.7188, 2201.494
418.2009, 2213.217
418.6830, 2207.938
419.1652, 2188.591
419.6473, 2166.127
420.1294, 2138.203
420.6115, 2112.413
421.0937, 2091.474
421.5758, 2072.722
422.0579, 2066.459
422.5400, 2080.772
423.0221, 2106.912
423.5042, 2130.965
423.9864, 2153.556
424.4685, 2172.313
424.9506, 2182.232
425.4327, 2181.025
425.9148, 2199.926
426.3969, 2246.604
426.8791, 2304.591
427.3612, 2358.940
427.8433, 2406.425
428.3254, 2459.297
428.8075, 2517.020
429.2896, 2582.097
429.7718, 2663.434
430.2539, 2763.043
430.7360, 2868.443
431.2181, 2967.205
431.7002, 3060.995
432.1823, 3174.413
432.6645, 3309.312
433.1466, 3462.384
433.6287, 3640.821
434.1108, 3837.027
434.5929, 4014.477
435.0750, 4169.539
435.5572, 4289.605
436.0393, 4347.290
436.5214, 4343.788
437.0035, 4304.415
437.4856, 4261.795
437.9677, 4192.266
438.4499, 4057.344
438.9320, 3821.265
439.4141, 3561.888
439.8962, 3311.060
440.3783, 3078.950
440.8604, 2884.371
441.3426, 2746.100
441.8247, 2642.711
442.3068, 2564.768
442.7889, 2512.470
443.2710, 2479.544
443.7531, 2466.448
444.2353, 2471.159
444.7174, 2491.232
445.1995, 2542.273
445.6816, 2591.147
446.1637, 2639.736
446.6458, 2685.598
447.1280, 2705.581
447.6101, 2700.330
448.0922, 2668.240
448.5743, 2604.346
449.0564, 2490.960
449.5385, 2390.390
450.0207, 2304.137
450.5028, 2231.731
450.9849, 2173.559
451.4670, 2130.742
451.9491, 2099.290
452.4312, 2080.586
452.9134, 2073.113
453.3955, 2064.024
453.8776, 2052.979
454.3597, 2042.944
454.8418, 2037.112
455.3239, 2034.899
455.8061, 2033.840
456.2882, 2032.533
456.7703, 2033.441
457.2524, 2041.831
457.7345, 2056.089
458.2166, 2069.868
458.6988, 2076.420
459.1809, 2081.902
459.6630, 2094.587
460.1451, 2116.736
460.6272, 2136.369
461.1093, 2137.890
461.5915, 2134.860
462.0736, 2144.168
462.5557, 2189.129
463.0378, 2229.995
463.5199, 2249.906
464.0020, 2250.967
464.4842, 2251.205
464.9663, 2259.067
465.4484, 2263.435
465.9305, 2257.784
466.4126, 2232.389
466.8947, 2213.396
467.3769, 2199.794
467.8590, 2193.030
468.3411, 2196.076
468.8232, 2212.208
469.3053, 2231.846
469.7874, 2253.063
470.2696, 2275.830
470.7517, 2297.868
471.2338, 2316.605
471.7159, 2342.225
472.1980, 2383.698
472.6801, 2441.085
473.1623, 2506.421
473.6444, 2579.522
474.1265, 2659.077
474.6086, 2740.748
475.0907, 2825.694
475.5728, 2921.406
476.0550, 3034.168
476.5371, 3159.930
477.0192, 3286.025
477.5013, 3412.268
477.9834, 3557.563
478.4655, 3740.332
478.9477, 3950.569
479.4298, 4171.347
479.9119, 4383.743
480.3940, 4626.678
480.8761, 4910.947
481.3582, 5239.217
481.8404, 5616.747
482.3225, 6058.163
482.8046, 6538.459
483.2867, 7070.449
483.7688, 7694.852
484.2509, 8231.946
484.7331, 8781.356
485.2152, 9173.439
485.6973, 9249.049
486.1794, 8904.891
486.6615, 8408.326
487.1436, 7734.628
487.6258, 6932.012
488.1079, 6215.945
488.5900, 5585.615
489.0721, 5057.150
489.5542, 4655.234
490.0363, 4378.487
490.5185, 4148.430
491.0006, 3969.803
491.4827, 3822.033
491.9648, 3692.240
492.4470, 3576.282
492.9291, 3452.887
493.4112, 3312.840
493.8933, 3165.952
494.3754, 3023.968
494.8575, 2887.837
495.3397, 2772.039
495.8218, 2689.213
496.3039, 2628.312
496.7860, 2581.654
497.2681, 2551.522
497.7502, 2518.404
498.2324, 2464.061
498.7145, 2402.456
499.1966, 2351.523
499.6787, 2321.525
500.1608, 2298.581
500.6429, 2279.999
501.1251, 2265.503
501.6072, 2252.801
502.0893, 2239.076
502.5714, 2229.270
503.0535, 2226.424
503.5356, 2235.032
504.0178, 2239.708
504.4999, 2239.006
504.9820, 2235.632
505.4641, 2234.457
505.9462, 2236.649
506.4283, 2234.266
506.9105, 2221.109
507.3926, 2202.542
507.8747, 2203.622
508.3568, 2225.445
508.8389, 2247.042
509.3210, 2252.167
509.8032, 2245.243
510.2853, 2238.474
510.7674, 2233.544
511.2495, 2228.100
511.7316, 2222.354
512.2137, 2214.128
512.6959, 2199.192
513.1780, 2172.478
513.6601, 2141.117
514.1422, 2104.078
514.6243, 2063.735
515.1064, 2035.420
515.5886, 2037.696
516.0707, 2045.020
516.5528, 2041.106
517.0349, 2016.221
517.5170, 1996.096
517.9991, 1986.538
518.4813, 1981.843
518.9634, 1975.053
519.4455, 1965.071
519.9276, 1954.882
520.4097, 1945.078
520.8918, 1935.666
521.3740, 1924.128
521.8561, 1908.356
522.3382, 1897.445
522.8203, 1901.067
523.3024, 1917.945
523.7845, 1925.472
524.2667, 1921.034
524.7488, 1912.534
525.2309, 1909.464
525.7130, 1910.433
526.1951, 1910.717
526.6772, 1908.967
527.1594, 1905.435
527.6415, 1897.733
528.1236, 1887.559
528.6057, 1882.262
529.0878, 1893.436
529.5699, 1906.305
530.0521, 1907.384
530.5342, 1891.079
531.0163, 1880.778
531.4984, 1890.666
531.9805, 1907.390
532.4626, 1916.783
532.9448, 1914.302
533.4269, 1907.238
533.9090, 1891.885
534.3911, 1872.044
534.8732, 1863.795
535.3553, 1872.103
535.8375, 1882.675
536.3196, 1889.811
536.8017, 1893.536
537.2838, 1895.118
537.7659, 1894.282
538.2480, 1892.258
538.7302, 1889.600
539.2123, 1886.581
539.6944, 1884.982
540.1765, 1884.603
540.6586, 1886.881
541.1407, 1897.293
541.6229, 1913.015
542.1050, 1924.083
542.5871, 1919.524
543.0692, 1911.612
543.5513, 1911.895
544.0334, 1920.932
544.5156, 1930.666
544.9977, 1938.656
545.4798, 1945.032
545.9619, 1949.847
546.4440, 1953.760
546.9261, 1955.154
547.4083, 1953.843
547.8904, 1949.795
548.3725, 1942.313
548.8546, 1924.876
549.3367, 1914.900
549.8188, 1919.087
550.3010, 1935.872
550.7831, 1945.746
551.2652, 1946.260
551.7473, 1948.056
552.2294, 1960.189
552.7115, 1981.524
553.1937, 1999.238
553.6758, 2011.186
554.1579, 2024.215
554.6400, 2049.419
555.1221, 2082.974
555.6042, 2113.084
556.0864, 2130.711
556.5685, 2148.453
557.0506, 2175.874
557.5327, 2212.910
558.0148, 2259.130
558.4969, 2319.461
558.9791, 2385.295
559.4612, 2452.567
559.9433, 2521.764
560.4254, 2586.215
560.9075, 2661.498
561.3896, 2721.298
561.8718, 2744.666
562.3539, 2723.435
562.8360, 2677.546
563.3181, 2598.833
563.8002, 2501.421
564.2823, 2417.331
564.7645, 2348.822
565.2466, 2286.411
565.7287, 2225.416
566.2108, 2167.753
566.6929, 2125.125
567.1750, 2098.135
567.6572, 2080.241
568.1393, 2070.057
568.6214, 2064.764
569.1035, 2058.393
569.5856, 2048.978
570.0677, 2042.414
570.5499, 2050.582
571.0320, 2063.323
571.5141, 2064.656
571.9962, 2038.140
572.4783, 2009.666
572.9604, 1985.499
573.4426, 1966.986
573.9247, 1959.525
574.4068, 1976.928
574.8889, 1993.903
575.3710, 1999.935
575.8531, 1992.160
576.3353, 1988.081
576.8174, 1988.100
577.2995, 1991.281
577.7816, 1997.109
578.2637, 2005.696
578.7458, 2015.790
579.2280, 2027.585
579.7101, 2040.124
580.1922, 2051.012
580.6743, 2060.769
581.1564, 2072.335
581.6385, 2090.180
582.1207, 2108.965
582.6028, 2119.692
583.0849, 2123.409
583.5670, 2129.056
584.0491, 2149.178
584.5313, 2168.663
585.0134, 2175.638
585.4955, 2166.621
585.9776, 2150.685
586.4597, 2125.845
586.9418, 2096.971
587.4240, 2069.409
587.9061, 2036.478
588.3882, 2016.021
588.8703, 2017.326
589.3524, 2030.325
589.8345, 2022.228
590.3167, 1986.370
590.7988, 1954.980
591.2809, 1944.301
591.7630, 1950.159
592.2451, 1951.214
592.7272, 1947.180
593.2094, 1945.315
593.6915, 1954.336
594.1736, 1969.280
594.6557, 1980.057
595.1378, 1983.752
595.6199, 1987.907
596.1021, 1998.606
596.5842, 2013.172
597.0663, 2027.851
597.5485, 2037.309
598.0306, 2050.788
598.5127, 2073.166
598.9948, 2102.519
599.4769, 2130.780
599.9590, 2159.759
600.4412, 2185.040
600.9233, 2202.251
601.4054, 2210.180
601.8875, 2231.504
602.3696, 2269.378
602.8517, 2312.633
603.3339, 2354.001
603.8160, 2393.312
604.2981, 2422.637
604.7802, 2440.299
605.2623, 2449.710
605.7444, 2458.892
606.2266, 2463.385
606.7087, 2450.657
607.1908, 2405.261
607.6729, 2352.148
608.1550, 2307.116
608.6371, 2270.001
609.1193, 2238.697
609.6014, 2212.920
610.0835, 2192.626
610.5656, 2179.773
611.0477, 2175.541
611.5298, 2169.615
612.0120, 2158.257
612.4941, 2148.507
612.9762, 2145.419
613.4583, 2150.600
613.9404, 2156.839
614.4225, 2164.244
614.9047, 2171.938
615.3868, 2178.135
615.8689, 2183.118
616.3510, 2190.874
616.8331, 2206.340
617.3152, 2220.236
617.7974, 2213.971
618.2795, 2192.410
618.7616, 2174.197
619.2437, 2173.602
619.7258, 2177.330
620.2079, 2173.747
620.6901, 2162.395
621.1722, 2156.344
621.6543, 2164.095
622.1364, 2175.868
622.6185, 2184.846
623.1006, 2186.512
623.5828, 2194.825
624.0649, 2212.234
624.5470, 2234.043
625.0291, 2253.906
625.5112, 2270.466
625.9933, 2293.386
626.4755, 2326.570
626.9576, 2363.717
627.4397, 2393.388
627.9218, 2415.543
628.4039, 2429.865
628.8860, 2429.898
629.3682, 2425.324
629.8503, 2430.396
630.3324, 2443.922
630.8145, 2456.491
631.2966, 2461.320
631.7787, 2464.001
632.2609, 2467.083
632.7430, 2469.133
633.2251, 2478.744
633.7072, 2503.150
634.1893, 2532.360
634.6714, 2559.338
635.1536, 2588.490
635.6357, 2606.000
636.1178, 2611.375
636.5999, 2604.005
637.0820, 2579.699
637.5641, 2537.963
638.0463, 2492.912
638.5284, 2447.251
639.0105, 2402.342
639.4926, 2359.744
639.9747, 2319.282
640.4568, 2281.209
640.9390, 2239.290
641.4211, 2203.423
641.9032, 2187.482
642.3853, 2192.408
642.8674, 2191.924
643.3495, 2165.276
643.8317, 2136.458
644.3138, 2122.479
644.7959, 2135.715
645.2780, 2143.741
645.7601, 2142.291
646.2422, 2139.349
646.7244, 2143.691
647.2065, 2155.324
647.6886, 2174.939
648.1707, 2204.879
648.6528, 2239.439
649.1349, 2267.140
649.6171, 2288.816
650.0992, 2311.224
650.5813, 2340.181
651.0634, 2369.935
651.5455, 2390.028
652.0276, 2403.110
652.5098, 2422.470
652.9919, 2464.089
653.4740, 2507.345
653.9561, 2540.481
654.4382, 2562.105
654.9203, 2574.718
655.4025, 2575.435
655.8846, 2569.936
656.3667, 2562.335
656.8488, 2554.869
657.3309, 2537.742
657.8130, 2508.863
658.2952, 2473.316
658.7773, 2437.019
659.2594, 2399.815
659.7415, 2363.019
660.2236, 2325.521
660.7057, 2290.814
661.1879, 2264.014
661.6700, 2244.336
662.1521, 2230.005
662.6342, 2218.335
663.1163, 2213.317
663.5984, 2220.411
664.0806, 2238.124
664.5627, 2254.341
665.0448, 2262.299
665.5269, 2271.533
666.0090, 2287.662
666.4911, 2312.524
666.9733, 2329.027
667.4554, 2334.816
667.9375, 2336.910
668.4196, 2342.987
668.9017, 2352.615
669.3839, 2350.918
669.8660, 2335.103
670.3481, 2315.034
670.8302, 2305.021
671.3123, 2299.209
671.7944, 2284.320
672.2766, 2252.318
672.7587, 2216.842
673.2408, 2184.949
673.7229, 2156.102
674.2050, 2128.604
674.6871, 2100.469
675.1693, 2075.359
675.6514, 2054.096
676.1335, 2036.388
676.6156, 2021.234
677.0977, 2007.790
677.5798, 1998.984
678.0620, 1997.860
678.5441, 2003.362
679.0262, 2006.052
679.5083, 2006.012
679.9904, 2002.105
680.4725, 1990.031
680.9547, 1974.521
681.4368, 1964.280
681.9189, 1960.828
682.4010, 1958.500
682.8831, 1952.535
683.3652, 1946.293
683.8474, 1943.560
684.3295, 1950.253
684.8116, 1952.392
685.2937, 1943.991
685.7758, 1931.720
686.2579, 1924.025
686.7401, 1921.558
687.2222, 1922.500
687.7043, 1928.508
688.1864, 1935.888
688.6685, 1934.062
689.1506, 1923.658
689.6328, 1914.835
690.1149, 1912.457
690.5970, 1914.034
691.0791, 1915.871
691.5612, 1918.263
692.0433, 1922.588
692.5255, 1932.121
693.0076, 1941.884
693.4897, 1950.121
693.9718, 1957.034
694.4539, 1957.163
694.9360, 1942.860
695.4182, 1928.061
695.9003, 1920.030
696.3824, 1920.183
696.8645, 1921.699
697.3466, 1924.546
697.8287, 1928.839
698.3109, 1935.573
698.7930, 1944.154
699.2751, 1951.392
699.7572, 1956.554
700.2393, 1960.689
700.7214, 1965.014
701.2036, 1969.008
701.6857, 1971.770
702.1678, 1971.317
702.6499, 1971.517
703.1320, 1976.951
703.6141, 1984.023
704.0963, 1983.347
704.5784, 1968.891
705.0605, 1955.407
705.5426, 1945.710
706.0247, 1939.378
706.5068, 1935.072
706.9890, 1932.936
707.4711, 1931.435
707.9532, 1931.035
708.4353, 1930.420
708.9174, 1925.856
709.3995, 1917.572
709.8817, 1907.861
710.3638, 1893.725
710.8459, 1881.903
711.3280, 1881.546
711.8101, 1895.552
712.2922, 1902.328
712.7744, 1886.796
713.2565, 1868.652
713.7386, 1861.730
714.2207, 1872.911
714.7028, 1876.481
715.1849, 1868.533
715.6671, 1859.828
716.1492, 1866.266
716.6313, 1885.833
717.1134, 1893.423
717.5955, 1882.326
718.0776, 1865.819
718.5598, 1858.359
719.0419, 1857.625
719.5240, 1859.233
720.0061, 1863.883
720.4882, 1867.755
720.9703, 1870.531
721.4525, 1871.182
721.9346, 1867.243
722.4167, 1847.586
722.8988, 1837.943
723.3809, 1848.097
723.8630, 1871.336
724.3452, 1879.365
724.8273, 1870.254
725.3094, 1859.748
725.7915, 1855.574
726.2736, 1855.193
726.7557, 1851.843
727.2379, 1845.900
727.7200, 1840.336
728.2021, 1838.528
728.6842, 1836.898
729.1663, 1831.480
729.6484, 1821.825
730.1306, 1814.524
730.6127, 1810.372
731.0948, 1810.194
731.5769, 1815.343
732.0590, 1828.538
732.5411, 1835.506
733.0233, 1834.947
733.5054, 1831.074
733.9875, 1827.733
734.4696, 1824.611
734.9517, 1818.690
735.4338, 1808.953
735.9160, 1800.345
736.3981, 1798.166
736.8802, 1800.275
737.3623, 1804.316
737.8444, 1813.580
738.3266, 1817.029
738.8087, 1802.787
739.2908, 1782.796
739.7729, 1775.333
740.2551, 1791.962
740.7372, 1800.832
741.2193, 1796.541
741.7014, 1784.087
742.1835, 1772.099
742.6656, 1760.600
743.1478, 1754.522
743.6299, 1758.369
744.1120, 1764.728
744.5941, 1759.720
745.0762, 1747.018
745.5583, 1737.877
746.0405, 1741.942
746.5226, 1747.390
747.0047, 1748.121
747.4868, 1744.558
747.9689, 1739.945
748.4510, 1734.151
748.9332, 1728.084
749.4153, 1721.683
749.8974, 1715.109
750.3795, 1709.654
750.8616, 1705.197
751.3438, 1702.843
751.8259, 1705.841
752.3080, 1710.949
752.7901, 1708.631
753.2722, 1699.177
753.7543, 1691.987
754.2365, 1697.279
754.7186, 1704.694
755.2007, 1704.129
755.6828, 1691.990
756.1649, 1687.004
756.6470, 1702.241
757.1292, 1716.652
757.6113, 1716.259
758.0934, 1696.323
758.5755, 1683.372
759.0576, 1678.544
759.5397, 1676.558
760.0219, 1671.322
760.5040, 1664.319
760.9861, 1660.849
761.4682, 1662.267
761.9503, 1664.449
762.4324, 1664.884
762.9146, 1663.920
763.3967, 1661.970
763.8788, 1659.108
764.3609, 1655.304
764.8430, 1650.361
765.3251, 1644.597
765.8073, 1637.213
766.2894, 1626.156
766.7715, 1622.501
767.2536, 1629.931
767.7357, 1641.394
768.2178, 1644.692
768.7000, 1641.538
769.1821, 1639.264
769.6642, 1641.699
770.1463, 1643.489
770.6284, 1638.431
771.1105, 1629.612
771.5927, 1623.007
772.0748, 1621.682
772.5569, 1621.326
773.0390, 1619.744
773.5211, 1618.604
774.0032, 1623.156
774.4854, 1635.341
774.9675, 1646.398
775.4496, 1655.421
775.9317, 1660.142
776.4138, 1651.423
776.8959, 1631.741
777.3781, 1614.128
777.8602, 1602.384
778.3423, 1598.094
778.8244, 1608.362
779.3065, 1628.749
779.7886, 1640.781
780.2708, 1633.951
780.7529, 1622.546
781.2350, 1608.340
781.7171, 1592.578
782.1992, 1588.919
782.6813, 1600.697
783.1635, 1611.384
783.6456, 1610.286
784.1277, 1601.943
784.6098, 1602.474
785.0919, 1610.998
785.5740, 1618.724
786.0562, 1618.625
786.5383, 1616.357
787.0204, 1617.205
787.5025, 1621.463
787.9846, 1623.534
788.4667, 1620.820
788.9489, 1616.792
789.4310, 1612.884
789.9131, 1609.204
790.3952, 1602.907
790.8773, 1592.695
791.3594, 1586.164
791.8416, 1591.316
792.3237, 1604.288
792.8058, 1617.268
793.2879, 1629.817
793.7700, 1635.081
794.2521, 1618.375
794.7343, 1599.105
795.2164, 1596.041
795.6985, 1617.055
796.1806, 1627.356
796.6627, 1616.018
797.1448, 1601.410
797.6270, 1594.908
798.1091, 1597.279
798.5912, 1602.207
799.0733, 1610.086
799.5554, 1618.415
800.0375, 1627.737
800.5197, 1634.977
801.0018, 1631.855
801.4839, 1615.826
801.9660, 1601.830
802.4481, 1599.160
802.9302, 1602.342
803.4124, 1607.772
803.8945, 1620.177
804.3766, 1621.803
804.8587, 1606.487
805.3408, 1588.526
805.8229, 1579.771
806.3051, 1580.213
806.7872, 1590.745
807.2693, 1613.314
807.7514, 1634.729
808.2335, 1640.411
808.7156, 1636.612
809.1978, 1632.355
809.6799, 1629.234
810.1620, 1626.693
810.6441, 1623.790
811.1262, 1621.786
811.6083, 1622.020
812.0905, 1625.504
812.5726, 1628.973
813.0547, 1632.604
813.5368, 1635.681
814.0189, 1636.744
814.5010, 1636.262
814.9832, 1637.536
815.4653, 1641.647
815.9474, 1644.803
816.4295, 1643.179
816.9116, 1638.696
817.3937, 1633.024
817.8759, 1622.396
818.3580, 1619.039
818.8401, 1635.294
819.3222, 1653.436
819.8043, 1654.479
820.2864, 1632.348
820.7686, 1622.533
821.2507, 1630.725
821.7328, 1644.218
822.2149, 1646.733
822.6970, 1641.501
823.1791, 1636.432
823.6613, 1633.202
824.1434, 1630.824
824.6255, 1627.930
825.1076, 1625.895
825.5897, 1626.296
826.0718, 1634.446
826.5540, 1637.217
827.0361, 1630.933
827.5182, 1623.505
828.0003, 1626.010
828.4824, 1638.264
828.9645, 1645.831
829.4467, 1645.866
829.9288, 1643.713
830.4109, 1646.942
830.8930, 1651.540
831.3751, 1650.373
831.8572, 1637.278
832.3394, 1628.278
832.8215, 1632.464
833.3036, 1641.680
833.7857, 1646.478
834.2678, 1644.423
834.7499, 1645.344
835.2321, 1650.890
835.7142, 1657.011
836.1963, 1657.749
836.6784, 1654.641
837.1605, 1654.468
837.6426, 1659.976
838.1248, 1661.851
838.6069, 1647.302
839.0890, 1627.798
839.5711, 1616.226
840.0532, 1618.470
840.5353, 1623.268
841.0175, 1631.695
841.4996, 1640.329
841.9817, 1644.982
842.4638, 1645.444
842.9459, 1648.032
843.4280, 1653.605
843.9102, 1659.956
844.3923, 1663.399
844.8744, 1666.432
845.3565, 1674.191
845.8386, 1690.024
846.3207, 1701.897
846.8029, 1704.393
847.2850, 1700.992
847.7671, 1693.831
848.2492, 1677.748
848.7313, 1674.340
849.2134, 1688.572
849.6956, 1702.870
850.1777, 1694.809
850.6598, 1671.886
851.1419, 1661.150
851.6240, 1666.527
852.1061, 1676.526
852.5883, 1686.805
853.0704, 1694.936
853.5525, 1697.388
854.0346, 1689.194
854.5167, 1690.069
854.9988, 1707.289
855.4810, 1725.523
855.9631, 1733.726
856.4452, 1731.762
856.9273, 1728.355
857.4094, 1723.519
857.8915, 1720.023
858.3737, 1722.149
858.8558, 1726.164
859.3379, 1726.686
859.8200, 1722.773
860.3021, 1720.309
860.7842, 1722.242
861.2664, 1725.736
861.7485, 1729.561
862.2306, 1733.984
862.7127, 1736.034
863.1948, 1735.324
863.6769, 1734.013
864.1591, 1730.372
864.6412, 1728.034
865.1233, 1739.752
865.6054, 1764.493
866.0875, 1783.159
866.5696, 1775.769
867.0518, 1766.046
867.5339, 1772.203
868.0160, 1796.400
868.4981, 1805.918
868.9802, 1791.471
869.4623, 1781.889
869.9445, 1792.888
870.4266, 1819.726
870.9087, 1841.902
871.3908, 1859.746
871.8729, 1873.965
872.3550, 1885.328
872.8372, 1893.292
873.3193, 1893.618
873.8014, 1888.709
874.2835, 1891.598
874.7656, 1915.785
875.2477, 1935.101
875.7299, 1939.449
876.2120, 1934.720
876.6941, 1945.703
877.1762, 1972.289
877.6583, 2000.505
878.1404, 2028.547
878.6226, 2050.225
879.1047, 2049.216
879.5869, 2035.088
880.0690, 2032.434
880.5511, 2056.223
881.0332, 2086.481
881.5153, 2123.512
881.9974, 2161.217
882.4796, 2186.585
882.9617, 2197.278
883.4438, 2208.938
883.9259, 2225.343
884.4080, 2243.848
884.8901, 2257.850
885.3723, 2270.758
885.8544, 2291.119
886.3365, 2326.546
886.8186, 2362.013
887.3007, 2397.212
887.7828, 2425.341
888.2650, 2435.431
888.7471, 2416.260
889.2292, 2410.591
889.7113, 2425.732
890.1934, 2446.518
890.6755, 2453.374
891.1577, 2449.658
891.6398, 2445.402
892.1219, 2442.059
892.6040, 2440.629
893.0861, 2446.578
893.5682, 2452.002
894.0504, 2447.716
894.5325, 2422.879
895.0146, 2414.088
895.4967, 2425.908
895.9788, 2445.290
896.4609, 2462.476
896.9431, 2477.777
897.4252, 2493.704
897.9073, 2510.407
898.3894, 2523.112
898.8715, 2523.886
899.3536, 2522.502
899.8358, 2529.353
900.3179, 2546.481
900.8000, 2556.112
901.2821, 2559.057
901.7642, 2550.868
902.2463, 2526.878
902.7285, 2489.472
903.2106, 2449.390
903.6927, 2407.305
904.1748, 2375.861
904.6569, 2374.011
905.1390, 2377.833
905.6212, 2360.978
906.1033, 2327.793
906.5854, 2298.167
907.0675, 2277.523
907.5496, 2261.794
908.0317, 2250.809
908.5139, 2243.729
908.9960, 2238.973
909.4781, 2236.574
909.9602, 2231.162
910.4423, 2216.963
910.9244, 2205.275
911.4066, 2215.617
911.8887, 2237.336
912.3708, 2250.944
912.8529, 2237.973
913.3350, 2231.612
913.8171, 2241.774
914.2993, 2258.341
914.7814, 2267.859
915.2635, 2269.762
915.7456, 2271.762
916.2277, 2274.643
916.7098, 2279.161
917.1920, 2283.151
917.6741, 2290.444
918.1562, 2308.831
918.6383, 2344.149
919.1204, 2374.311
919.6025, 2392.035
920.0847, 2402.566
920.5668, 2408.774
921.0489, 2410.345
921.5310, 2405.857
922.0131, 2393.167
922.4952, 2391.896
922.9774, 2429.277
923.4595, 2482.685
923.9416, 2517.014
924.4237, 2531.318
924.9058, 2547.358
925.3879, 2576.336
925.8701, 2606.591
926.3522, 2633.411
926.8343, 2657.336
927.3164, 2680.667
927.7985, 2702.885
928.2806, 2730.220
928.7628, 2765.924
929.2449, 2807.606
929.7270, 2857.195
930.2091, 2910.004
930.6912, 2954.759
931.1733, 2964.507
931.6555, 2991.312
932.1376, 3067.303
932.6197, 3162.592
933.1018, 3222.989
933.5839, 3242.023
934.0660, 3280.351
934.5482, 3353.069
935.0303, 3436.658
935.5124, 3503.678
935.9945, 3560.624
936.4766, 3616.742
936.9587, 3671.516
937.4409, 3735.752
937.9230, 3823.132
938.4051, 3914.559
938.8872, 3992.375
939.3693, 4051.375
939.8514, 4134.622
940.3336, 4243.931
940.8157, 4358.988
941.2978, 4462.155
941.7799, 4561.715
942.2620, 4670.201
942.7441, 4787.737
943.2263, 4910.204
943.7084, 5035.024
944.1905, 5162.982
944.6726, 5297.535
945.1547, 5435.733
945.6368, 5557.049
946.1190, 5661.687
946.6011, 5762.534
947.0832, 5866.498
947.5653, 5968.863
948.0474, 6071.746
948.5295, 6168.909
949.0117, 6245.846
949.4938, 6302.715
949.9759, 6330.159
950.4580, 6318.625
950.9401, 6285.068
951.4222, 6255.978
951.9044, 6231.568
952.3865, 6192.128
952.8686, 6132.849
953.3507, 6066.045
953.8328, 5999.843
954.3149, 5936.302
954.7971, 5878.047
955.2792, 5827.766
955.7613, 5778.631
956.2434, 5726.200
956.7255, 5678.542
957.2076, 5640.205
957.6898, 5611.043
958.1719, 5595.763
958.6540, 5593.855
959.1361, 5579.649
959.6182, 5532.616
960.1003, 5467.299
960.5825, 5397.621
961.0646, 5322.082
961.5467, 5227.600
962.0288, 5096.479
962.5109, 4971.578
962.9930, 4870.817
963.4752, 4778.607
963.9573, 4652.796
964.4394, 4499.836
964.9215, 4352.677
965.4036, 4221.770
965.8857, 4100.342
966.3679, 3989.555
966.8500, 3882.196
967.3321, 3766.645
967.8142, 3626.364
968.2963, 3508.592
968.7784, 3421.021
969.2606, 3342.722
969.7427, 3251.231
970.2248, 3152.231
970.7069, 3065.743
971.1890, 2993.564
971.6711, 2931.149
972.1533, 2878.101
972.6354, 2832.616
973.1175, 2796.391
973.5996, 2768.984
974.0817, 2741.561
974.5638, 2717.210
975.0460, 2680.829
975.5281, 2617.872
976.0102, 2546.055
976.4923, 2504.308
976.9744, 2485.394
977.4565, 2468.050
977.9387, 2443.996
978.4208, 2418.769
978.9029, 2393.881
979.3850, 2369.191
979.8671, 2341.596
980.3492, 2307.862
980.8314, 2295.509
981.3135, 2312.200
981.7956, 2329.320
982.2777, 2309.020
982.7598, 2272.039
983.2419, 2248.916
983.7241, 2245.835
984.2062, 2242.176
984.6883, 2229.739
985.1704, 2217.501
985.6525, 2209.014
986.1346, 2204.156
986.6168, 2201.315
987.0989, 2200.541
987.5810, 2203.466
988.0631, 2216.078
988.5452, 2228.604
989.0273, 2227.832
989.5095, 2219.707
989.9916, 2219.662
990.4737, 2236.880
990.9558, 2252.193
991.4379, 2260.948
991.9200, 2270.178
992.4022, 2292.537
992.8843, 2325.176
993.3664, 2356.173
993.8485, 2382.423
994.3306, 2410.887
994.8127, 2450.749
995.2949, 2492.004
995.7770, 2524.791
996.2591, 2547.328
996.7412, 2570.407
997.2233, 2592.307
997.7054, 2620.336
998.1876, 2668.051
998.6697, 2721.191
999.1518, 2750.804
999.6339, 2758.463
1000.116, 2751.368
1000.598, 2726.473
1001.080, 2694.431
1001.562, 2657.553
1002.044, 2616.451
1002.527, 2570.245
1003.009, 2519.055
1003.491, 2464.750
1003.973, 2407.167
1004.455, 2352.882
1004.937, 2313.874
1005.419, 2281.204
1005.901, 2242.142
1006.384, 2189.931
1006.866, 2152.372
1007.348, 2140.575
1007.830, 2131.270
1008.312, 2111.203
1008.794, 2082.404
1009.276, 2051.409
1009.758, 2020.061
1010.240, 2002.236
1010.723, 2023.343
1011.205, 2043.458
1011.687, 2031.750
1012.169, 2000.026
1012.651, 1982.593
1013.133, 1987.415
1013.615, 1984.153
1014.097, 1966.391
1014.580, 1944.205
1015.062, 1932.050
1015.544, 1925.697
1016.026, 1915.473
1016.508, 1897.871
1016.990, 1887.358
1017.472, 1899.793
1017.954, 1911.541
1018.436, 1907.559
1018.919, 1888.868
1019.401, 1876.008
1019.883, 1868.975
1020.365, 1868.971
1020.847, 1885.372
1021.329, 1901.915
1021.811, 1897.586
1022.293, 1880.963
1022.776, 1873.461
1023.258, 1890.345
1023.740, 1897.356
1024.222, 1888.379
1024.704, 1873.093
1025.186, 1862.967
1025.668, 1857.715
1026.150, 1857.779
1026.632, 1863.568
1027.115, 1869.332
1027.597, 1876.068
1028.079, 1877.628
1028.561, 1866.088
1029.043, 1842.575
1029.525, 1832.995
1030.007, 1839.063
1030.489, 1846.350
1030.972, 1850.020
1031.454, 1849.264
1031.936, 1839.561
1032.418, 1825.006
1032.900, 1814.516
1033.382, 1813.935
1033.864, 1813.196
1034.346, 1810.412
1034.828, 1808.104
1035.311, 1810.400
1035.793, 1816.219
1036.275, 1816.965
1036.757, 1811.922
1037.239, 1808.940
1037.721, 1817.475
1038.203, 1826.714
1038.685, 1828.312
1039.167, 1822.806
1039.650, 1819.350
1040.132, 1819.169
1040.614, 1815.494
1041.096, 1805.049
1041.578, 1791.827
1042.060, 1779.291
1042.542, 1769.541
1043.024, 1766.710
1043.507, 1774.938
1043.989, 1784.648
1044.471, 1794.528
1044.953, 1804.860
1045.435, 1819.688
1045.917, 1837.508
1046.399, 1834.090
1046.881, 1810.037
1047.364, 1787.066
1047.846, 1779.520
1048.328, 1778.398
1048.810, 1780.329
1049.292, 1783.773
1049.774, 1783.055
1050.256, 1776.249
1050.738, 1771.890
1051.220, 1771.619
1051.703, 1774.594
1052.185, 1783.560
1052.667, 1793.552
1053.149, 1794.236
1053.631, 1780.420
1054.113, 1772.672
1054.595, 1782.901
1055.077, 1793.057
1055.559, 1793.287
1056.042, 1785.336
1056.524, 1781.498
1057.006, 1781.253
1057.488, 1780.346
1057.970, 1775.786
1058.452, 1770.531
1058.934, 1764.550
1059.416, 1759.745
1059.899, 1760.162
1060.381, 1768.432
1060.863, 1771.884
1061.345, 1768.518
1061.827, 1764.458
1062.309, 1770.750
1062.791, 1778.064
1063.273, 1767.380
1063.755, 1737.875
1064.238, 1721.307
1064.720, 1739.468
1065.202, 1754.633
1065.684, 1754.471
1066.166, 1744.852
1066.648, 1742.060
1067.130, 1744.752
1067.612, 1746.359
1068.094, 1744.109
1068.577, 1741.965
1069.059, 1743.809
1069.541, 1745.853
1070.023, 1744.038
1070.505, 1737.243
1070.987, 1733.180
1071.469, 1732.039
1071.951, 1731.263
1072.434, 1727.714
1072.916, 1724.523
1073.398, 1725.656
1073.880, 1730.371
1074.362, 1735.920
1074.844, 1744.562
1075.326, 1749.252
1075.808, 1748.586
1076.291, 1744.670
1076.773, 1737.278
1077.255, 1729.327
1077.737, 1732.168
1078.219, 1748.128
1078.701, 1758.780
1079.183, 1750.383
1079.665, 1738.206
1080.147, 1728.436
1080.630, 1721.630
1081.112, 1723.312
1081.594, 1733.059
1082.076, 1737.275
1082.558, 1727.906
1083.040, 1716.745
1083.522, 1710.879
1084.004, 1711.173
1084.486, 1720.739
1084.969, 1749.199
1085.451, 1757.956
1085.933, 1742.076
1086.415, 1724.837
1086.897, 1726.197
1087.379, 1736.990
1087.861, 1743.227
1088.343, 1744.666
1088.826, 1741.976
1089.308, 1726.945
1089.790, 1719.948
1090.272, 1728.332
1090.754, 1741.580
1091.236, 1741.146
1091.718, 1730.608
1092.200, 1727.649
1092.682, 1735.485
1093.165, 1742.331
1093.647, 1739.984
1094.129, 1734.928
1094.611, 1729.863
1095.093, 1725.441
1095.575, 1727.323
1096.057, 1735.840
1096.539, 1742.487
1097.022, 1743.884
1097.504, 1742.376
1097.986, 1736.930
1098.468, 1731.505
1098.950, 1732.626
1099.432, 1747.450
1099.914, 1750.903
1100.396, 1740.214
1100.879, 1727.022
1101.361, 1716.163
1101.843, 1710.228
1102.325, 1718.844
1102.807, 1737.591
1103.289, 1749.765
1103.771, 1741.858
1104.253, 1736.890
1104.735, 1740.304
1105.218, 1746.427
1105.700, 1747.778
1106.182, 1744.903
1106.664, 1738.732
1107.146, 1729.212
1107.628, 1723.672
1108.110, 1731.159
1108.592, 1739.293
1109.074, 1741.510
1109.557, 1738.610
1110.039, 1732.266
1110.521, 1722.349
1111.003, 1715.364
1111.485, 1713.104
1111.967, 1714.826
1112.449, 1725.899
1112.931, 1737.081
1113.414, 1736.035
1113.896, 1717.383
1114.378, 1710.890
1114.860, 1719.454
1115.342, 1727.520
1115.824, 1725.551
1116.306, 1718.449
1116.788, 1711.025
1117.271, 1704.968
1117.753, 1703.990
1118.235, 1716.875
1118.717, 1722.801
1119.199, 1716.864
1119.681, 1710.706
1120.163, 1719.520
1120.645, 1736.840
1121.127, 1742.522
1121.609, 1736.746
1122.092, 1730.249
1122.574, 1726.698
1123.056, 1725.492
1123.538, 1726.475
1124.020, 1729.313
1124.502, 1734.482
1124.984, 1741.435
1125.466, 1745.768
1125.949, 1746.706
1126.431, 1744.292
1126.913, 1731.156
1127.395, 1721.075
1127.877, 1728.903
1128.359, 1750.965
1128.841, 1754.538
1129.323, 1738.306
1129.806, 1727.877
1130.288, 1735.288
1130.770, 1746.338
1131.252, 1746.436
1131.734, 1741.580
1132.216, 1740.190
1132.698, 1745.873
1133.180, 1744.246
1133.662, 1733.513
1134.145, 1723.065
1134.627, 1717.559
1135.109, 1716.822
1135.591, 1724.670
1136.073, 1736.911
1136.555, 1742.720
1137.037, 1732.046
1137.519, 1725.261
1138.001, 1724.419
1138.484, 1725.872
1138.966, 1726.006
1139.448, 1725.484
1139.930, 1725.964
1140.412, 1727.464
1140.894, 1729.159
1141.376, 1734.782
1141.858, 1734.740
1142.341, 1724.112
1142.823, 1709.443
1143.305, 1701.312
1143.787, 1699.504
1144.269, 1704.305
1144.751, 1716.443
1145.233, 1727.354
1145.715, 1733.914
1146.198, 1735.828
1146.680, 1731.675
1147.162, 1723.330
1147.644, 1720.194
1148.126, 1721.851
1148.608, 1722.888
1149.090, 1721.657
1149.572, 1719.127
1150.054, 1716.075
1150.536, 1711.982
1151.019, 1704.715
1151.501, 1693.386
1151.983, 1694.202
1152.465, 1707.729
1152.947, 1719.243
1153.429, 1719.498
1153.911, 1715.655
1154.393, 1712.123
1154.876, 1709.938
1155.358, 1711.669
1155.840, 1720.265
1156.322, 1723.251
1156.804, 1719.680
1157.286, 1714.451
1157.768, 1710.093
1158.250, 1707.337
1158.733, 1705.804
1159.215, 1706.536
1159.697, 1714.406
1160.179, 1739.957
1160.661, 1748.963
1161.143, 1732.994
1161.625, 1712.413
1162.107, 1710.376
1162.589, 1719.852
1163.072, 1733.684
1163.554, 1750.066
1164.036, 1752.939
1164.518, 1725.318
1165.000, 1705.886
1165.482, 1704.505
1165.964, 1714.642
1166.446, 1732.102
1166.928, 1750.125
1167.411, 1750.330
1167.893, 1726.036
1168.375, 1708.612
1168.857, 1714.493
1169.339, 1721.281
1169.821, 1720.241
1170.303, 1714.475
1170.785, 1712.068
1171.268, 1712.702
1171.750, 1715.615
1172.232, 1721.767
1172.714, 1726.983
1173.196, 1729.764
1173.678, 1730.689
1174.160, 1728.814
1174.642, 1725.132
1175.125, 1727.587
1175.607, 1735.039
1176.089, 1741.161
1176.571, 1744.972
1177.053, 1744.197
1177.535, 1733.279
1178.017, 1720.655
1178.499, 1713.959
1178.981, 1713.096
1179.464, 1714.384
1179.946, 1717.660
1180.428, 1721.438
1180.910, 1725.438
1181.392, 1728.967
1181.874, 1733.658
1182.356, 1736.596
1182.838, 1731.269
1183.320, 1717.091
1183.803, 1712.387
1184.285, 1718.798
1184.767, 1727.417
1185.249, 1735.117
1185.731, 1739.352
1186.213, 1735.342
1186.695, 1726.761
1187.177, 1724.649
1187.660, 1729.683
1188.142, 1730.324
1188.624, 1724.343
1189.106, 1716.767
1189.588, 1709.390
1190.070, 1704.453
1190.552, 1706.838
1191.034, 1714.428
1191.516, 1710.659
1191.999, 1693.665
1192.481, 1683.304
1192.963, 1685.242
1193.445, 1692.323
1193.927, 1699.684
1194.409, 1707.027
1194.891, 1714.920
1195.373, 1723.450
1195.855, 1726.286
1196.338, 1722.821
1196.820, 1718.760
1197.302, 1715.291
1197.784, 1714.331
1198.266, 1720.107
1198.748, 1728.544
1199.230, 1734.640
1199.712, 1737.666
1200.195, 1739.920
1200.677, 1741.854
1201.159, 1739.543
1201.641, 1727.811
1202.123, 1714.682
1202.605, 1707.649
1203.087, 1706.230
1203.569, 1710.425
1204.052, 1724.135
1204.534, 1731.177
1205.016, 1731.427
1205.498, 1726.072
1205.980, 1707.486
1206.462, 1690.540
1206.944, 1695.884
1207.426, 1715.559
1207.908, 1731.383
1208.391, 1741.436
1208.873, 1747.842
1209.355, 1750.169
1209.837, 1751.936
1210.319, 1762.315
1210.801, 1769.034
1211.283, 1748.142
1211.765, 1710.704
1212.247, 1699.518
1212.730, 1729.313
1213.212, 1744.096
1213.694, 1735.171
1214.176, 1724.888
1214.658, 1739.988
1215.140, 1762.063
1215.622, 1771.060
1216.104, 1767.109
1216.587, 1757.788
1217.069, 1740.539
1217.551, 1730.941
1218.033, 1733.288
1218.515, 1736.133
1218.997, 1719.186
1219.479, 1700.811
1219.961, 1705.791
1220.443, 1733.935
1220.926, 1752.673
1221.408, 1760.236
1221.890, 1758.492
1222.372, 1745.330
1222.854, 1731.895
1223.336, 1735.394
1223.818, 1743.643
1224.300, 1741.057
1224.782, 1725.395
1225.265, 1716.411
1225.747, 1714.352
1226.229, 1719.612
1226.711, 1735.815
1227.193, 1749.711
1227.675, 1740.217
1228.157, 1722.184
1228.639, 1713.155
1229.122, 1715.779
1229.604, 1720.232
1230.086, 1726.509
1230.568, 1735.595
1231.050, 1750.970
1231.532, 1762.768
1232.014, 1755.609
1232.496, 1740.458
1232.979, 1730.621
1233.461, 1727.599
1233.943, 1726.548
1234.425, 1727.899
1234.907, 1726.532
1235.389, 1716.691
1235.871, 1708.542
1236.353, 1715.416
1236.835, 1728.166
1237.318, 1733.044
1237.800, 1727.017
1238.282, 1736.747
1238.764, 1763.349
1239.246, 1780.870
1239.728, 1766.370
1240.210, 1747.374
1240.692, 1749.960
1241.175, 1760.525
1241.657, 1758.930
1242.139, 1740.998
1242.621, 1738.210
1243.103, 1750.687
1243.585, 1762.058
1244.067, 1758.856
1244.549, 1754.945
1245.031, 1764.131
1245.514, 1775.716
1245.996, 1774.051
1246.478, 1757.596
1246.960, 1745.565
1247.442, 1738.264
1247.924, 1735.550
1248.406, 1741.530
1248.888, 1747.525
1249.370, 1745.834
1249.853, 1743.149
1250.335, 1751.109
1250.817, 1768.924
1251.299, 1770.801
1251.781, 1756.791
1252.263, 1744.734
1252.745, 1746.660
1253.227, 1751.937
1253.710, 1759.771
1254.192, 1765.199
1254.674, 1758.116
1255.156, 1741.494
1255.638, 1738.562
1256.120, 1749.618
1256.602, 1760.898
1257.084, 1767.852
1257.567, 1769.267
1258.049, 1761.747
1258.531, 1752.962
1259.013, 1756.950
1259.495, 1768.654
1259.977, 1768.046
1260.459, 1754.664
1260.941, 1741.525
1261.423, 1727.573
1261.906, 1726.333
1262.388, 1746.942
1262.870, 1770.648
1263.352, 1765.414
1263.834, 1743.806
1264.316, 1734.526
1264.798, 1739.563
1265.280, 1747.238
1265.762, 1758.019
1266.245, 1764.641
1266.727, 1765.524
1267.209, 1762.523
1267.691, 1755.318
1268.173, 1747.340
1268.655, 1745.578
1269.137, 1750.072
1269.619, 1750.435
1270.102, 1741.739
1270.584, 1740.072
1271.066, 1750.462
1271.548, 1763.116
1272.030, 1767.548
1272.512, 1765.800
1272.994, 1757.685
1273.476, 1744.156
1273.958, 1735.683
1274.441, 1732.647
1274.923, 1735.271
1275.405, 1745.029
1275.887, 1753.923
1276.369, 1750.716
1276.851, 1744.885
1277.333, 1745.896
1277.815, 1753.024
1278.297, 1758.105
1278.780, 1760.836
1279.262, 1769.584
1279.744, 1788.409
1280.226, 1799.456
1280.708, 1779.831
1281.190, 1754.633
1281.672, 1741.444
1282.154, 1737.828
1282.637, 1735.408
1283.119, 1734.330
1283.601, 1737.656
1284.083, 1747.412
1284.565, 1751.377
1285.047, 1731.102
1285.529, 1716.242
1286.011, 1724.898
1286.494, 1745.971
1286.976, 1745.526
1287.458, 1730.399
1287.940, 1724.398
1288.422, 1733.545
1288.904, 1741.985
1289.386, 1744.089
1289.868, 1743.681
1290.350, 1740.485
1290.833, 1737.502
1291.315, 1743.805
1291.797, 1753.865
1292.279, 1754.580
1292.761, 1741.525
1293.243, 1739.643
1293.725, 1758.781
1294.207, 1768.324
1294.689, 1754.525
1295.172, 1735.447
1295.654, 1740.221
1296.136, 1754.406
1296.618, 1757.239
1297.100, 1744.449
1297.582, 1743.690
1298.064, 1758.048
1298.546, 1763.284
1299.029, 1748.320
1299.511, 1733.088
1299.993, 1741.923
1300.475, 1758.270
1300.957, 1765.716
1301.439, 1765.148
1301.921, 1766.840
1302.403, 1770.639
1302.885, 1772.143
1303.368, 1770.320
1303.850, 1765.231
1304.332, 1750.223
1304.814, 1739.271
1305.296, 1742.044
1305.778, 1754.255
1306.260, 1761.972
1306.742, 1765.641
1307.224, 1767.571
1307.707, 1768.654
1308.189, 1765.837
1308.671, 1751.811
1309.153, 1742.122
1309.635, 1743.764
##END=



