##NAMES=Kyanite
##RRUFFID=R100159
##IDEAL CHEMISTRY=Al_2_OSiO_4_
##LOCALITY=Tanzania
##OWNER=RRUFF
##SOURCE=William W. Pinch
##DESCRIPTION=Reddish-orange cut gemstone
##STATUS=The identification of this mineral has been confirmed by single-crystal X-ray diffraction.
##URL=rruff.info/R100159
100.7299, 17888.79
101.2120, 17885.67
101.6941, 17895.82
102.1763, 17913.48
102.6584, 17940.17
103.1405, 17972.06
103.6226, 18003.67
104.1047, 18031.45
104.5868, 18056.13
105.0690, 18081.50
105.5511, 18102.74
106.0332, 18126.48
106.5153, 18157.62
106.9974, 18194.78
107.4795, 18230.14
107.9617, 18255.95
108.4438, 18274.25
108.9259, 18294.52
109.4080, 18320.90
109.8901, 18348.32
110.3722, 18369.46
110.8544, 18382.40
111.3365, 18392.42
111.8186, 18401.07
112.3007, 18409.45
112.7828, 18420.20
113.2649, 18437.37
113.7471, 18460.08
114.2292, 18476.34
114.7113, 18480.81
115.1934, 18483.13
115.6755, 18487.10
116.1576, 18492.47
116.6397, 18497.09
117.1219, 18497.99
117.6040, 18492.37
118.0861, 18491.44
118.5682, 18497.43
119.0503, 18505.23
119.5324, 18512.20
120.0146, 18517.55
120.4967, 18521.90
120.9788, 18526.17
121.4609, 18529.23
121.9430, 18533.74
122.4251, 18539.24
122.9073, 18546.18
123.3894, 18555.79
123.8715, 18568.99
124.3536, 18583.51
124.8357, 18593.12
125.3178, 18596.83
125.8000, 18599.59
126.2821, 18602.23
126.7642, 18605.13
127.2463, 18609.83
127.7284, 18618.16
128.2105, 18628.15
128.6927, 18636.29
129.1748, 18642.51
129.6569, 18647.02
130.1390, 18649.66
130.6211, 18650.21
131.1032, 18650.44
131.5854, 18649.56
132.0675, 18649.42
132.5496, 18652.07
133.0317, 18658.53
133.5138, 18667.89
133.9959, 18678.19
134.4781, 18690.07
134.9602, 18701.97
135.4423, 18712.84
135.9244, 18723.56
136.4065, 18735.83
136.8886, 18751.32
137.3708, 18769.43
137.8529, 18781.04
138.3350, 18778.04
138.8171, 18776.15
139.2992, 18780.15
139.7813, 18788.35
140.2635, 18796.36
140.7456, 18800.37
141.2277, 18799.85
141.7098, 18799.51
142.1919, 18799.06
142.6740, 18799.00
143.1561, 18800.54
143.6383, 18803.42
144.1204, 18805.11
144.6025, 18802.43
145.0846, 18794.47
145.5667, 18789.21
146.0488, 18790.55
146.5310, 18793.24
147.0131, 18790.74
147.4952, 18781.17
147.9773, 18770.34
148.4594, 18764.61
148.9415, 18763.13
149.4237, 18764.29
149.9058, 18769.69
150.3879, 18777.47
150.8700, 18782.31
151.3521, 18782.28
151.8342, 18780.31
152.3164, 18779.07
152.7985, 18778.42
153.2806, 18777.50
153.7627, 18775.37
154.2448, 18771.94
154.7269, 18769.04
155.2091, 18764.14
155.6912, 18762.13
156.1733, 18767.23
156.6554, 18779.09
157.1375, 18792.40
157.6196, 18800.88
158.1018, 18803.34
158.5839, 18803.98
159.0660, 18803.90
159.5481, 18801.73
160.0302, 18793.80
160.5123, 18780.21
160.9945, 18767.04
161.4766, 18765.65
161.9587, 18788.63
162.4408, 18805.05
162.9229, 18812.20
163.4050, 18814.51
163.8871, 18815.30
164.3693, 18815.91
164.8514, 18816.56
165.3335, 18817.79
165.8156, 18819.56
166.2977, 18822.07
166.7798, 18828.05
167.2620, 18834.41
167.7441, 18835.65
168.2262, 18828.71
168.7083, 18816.95
169.1904, 18809.97
169.6725, 18808.92
170.1547, 18809.17
170.6368, 18809.63
171.1189, 18810.13
171.6010, 18809.87
172.0831, 18807.88
172.5652, 18805.42
173.0474, 18805.18
173.5295, 18808.46
174.0116, 18811.45
174.4937, 18810.41
174.9758, 18805.38
175.4579, 18801.57
175.9401, 18802.56
176.4222, 18805.46
176.9043, 18808.16
177.3864, 18811.53
177.8685, 18811.69
178.3506, 18800.05
178.8328, 18770.64
179.3149, 18751.21
179.7970, 18760.47
180.2791, 18779.30
180.7612, 18791.16
181.2433, 18789.44
181.7255, 18780.57
182.2076, 18778.71
182.6897, 18788.50
183.1718, 18796.80
183.6539, 18801.62
184.1360, 18803.46
184.6181, 18801.87
185.1003, 18796.36
185.5824, 18788.77
186.0645, 18785.88
186.5466, 18793.00
187.0287, 18798.58
187.5108, 18802.23
187.9930, 18803.29
188.4751, 18800.14
188.9572, 18791.63
189.4393, 18779.41
189.9214, 18772.81
190.4035, 18779.20
190.8857, 18783.23
191.3678, 18780.46
191.8499, 18773.63
192.3320, 18767.88
192.8141, 18766.64
193.2962, 18768.93
193.7784, 18766.73
194.2605, 18754.45
194.7426, 18744.64
195.2247, 18742.16
195.7068, 18745.65
196.1889, 18751.57
196.6711, 18759.01
197.1532, 18766.44
197.6353, 18767.62
198.1174, 18758.44
198.5995, 18747.32
199.0816, 18738.29
199.5638, 18731.14
200.0459, 18724.50
200.5280, 18716.96
201.0101, 18709.68
201.4922, 18705.63
201.9743, 18706.91
202.4565, 18709.47
202.9386, 18710.04
203.4207, 18708.64
203.9028, 18706.69
204.3849, 18703.49
204.8670, 18700.97
205.3492, 18702.76
205.8313, 18712.77
206.3134, 18723.20
206.7955, 18722.43
207.2776, 18707.63
207.7597, 18694.88
208.2419, 18695.93
208.7240, 18701.12
209.2061, 18700.57
209.6882, 18689.65
210.1703, 18674.54
210.6524, 18666.46
211.1346, 18668.51
211.6167, 18669.57
212.0988, 18664.86
212.5809, 18658.00
213.0630, 18652.15
213.5451, 18648.48
214.0273, 18646.73
214.5094, 18646.80
214.9915, 18651.05
215.4736, 18652.70
215.9557, 18650.33
216.4378, 18645.39
216.9200, 18638.62
217.4021, 18630.33
217.8842, 18621.68
218.3663, 18616.19
218.8484, 18617.42
219.3305, 18616.94
219.8127, 18611.77
220.2948, 18605.38
220.7769, 18602.28
221.2590, 18604.54
221.7411, 18609.43
222.2232, 18608.73
222.7054, 18593.12
223.1875, 18583.01
223.6696, 18582.43
224.1517, 18586.90
224.6338, 18591.99
225.1159, 18595.75
225.5980, 18597.94
226.0802, 18597.77
226.5623, 18594.68
227.0444, 18589.76
227.5265, 18583.06
228.0086, 18574.56
228.4907, 18563.49
228.9729, 18549.35
229.4550, 18534.12
229.9371, 18523.21
230.4192, 18516.80
230.9013, 18513.91
231.3834, 18516.72
231.8656, 18522.51
232.3477, 18527.71
232.8298, 18531.12
233.3119, 18532.57
233.7940, 18530.98
234.2761, 18524.90
234.7583, 18519.87
235.2404, 18516.97
235.7225, 18515.96
236.2046, 18517.10
236.6867, 18521.18
237.1688, 18525.50
237.6510, 18524.71
238.1331, 18518.30
238.6152, 18511.83
239.0973, 18508.81
239.5794, 18506.91
240.0615, 18500.25
240.5437, 18485.46
241.0258, 18469.15
241.5079, 18460.59
241.9900, 18459.49
242.4721, 18459.33
242.9542, 18458.91
243.4364, 18457.54
243.9185, 18452.32
244.4006, 18440.44
244.8827, 18429.07
245.3648, 18426.80
245.8469, 18432.43
246.3290, 18437.28
246.8112, 18437.97
247.2933, 18434.74
247.7754, 18427.43
248.2575, 18413.76
248.7396, 18399.70
249.2217, 18389.28
249.7039, 18382.03
250.1860, 18376.82
250.6681, 18374.63
251.1502, 18374.26
251.6323, 18371.16
252.1144, 18364.69
252.5966, 18355.94
253.0787, 18343.52
253.5608, 18329.51
254.0429, 18318.67
254.5250, 18315.79
255.0071, 18318.37
255.4893, 18316.29
255.9714, 18307.49
256.4535, 18297.07
256.9356, 18284.83
257.4177, 18273.13
257.8998, 18266.26
258.3820, 18268.29
258.8641, 18276.10
259.3462, 18278.65
259.8283, 18273.82
260.3104, 18266.65
260.7925, 18256.79
261.2747, 18246.49
261.7568, 18239.01
262.2389, 18236.36
262.7210, 18236.70
263.2031, 18235.14
263.6852, 18233.44
264.1674, 18226.13
264.6495, 18207.13
265.1316, 18184.85
265.6137, 18168.39
266.0958, 18161.81
266.5779, 18162.11
267.0601, 18162.66
267.5422, 18164.32
268.0243, 18164.76
268.5064, 18163.75
268.9885, 18161.65
269.4706, 18158.99
269.9528, 18155.92
270.4349, 18151.85
270.9170, 18145.29
271.3991, 18133.91
271.8812, 18124.71
272.3633, 18117.90
272.8455, 18113.20
273.3276, 18111.03
273.8097, 18111.23
274.2918, 18112.48
274.7739, 18112.69
275.2560, 18110.66
275.7382, 18110.11
276.2202, 18115.44
276.7024, 18118.65
277.1845, 18113.03
277.6666, 18098.59
278.1487, 18081.68
278.6308, 18069.99
279.1129, 18065.21
279.5951, 18059.85
280.0772, 18052.08
280.5593, 18045.23
281.0414, 18043.93
281.5235, 18046.27
282.0056, 18044.65
282.4878, 18030.96
282.9699, 18002.67
283.4520, 17979.92
283.9341, 17960.96
284.4162, 17948.19
284.8983, 17947.26
285.3805, 17954.16
285.8626, 17958.44
286.3447, 17951.21
286.8268, 17932.91
287.3089, 17924.35
287.7910, 17933.70
288.2732, 17943.28
288.7553, 17949.06
289.2374, 17951.37
289.7195, 17952.08
290.2016, 17952.56
290.6837, 17951.79
291.1659, 17943.79
291.6480, 17919.96
292.1301, 17898.81
292.6122, 17881.71
293.0943, 17869.40
293.5764, 17863.25
294.0586, 17863.93
294.5407, 17869.81
295.0228, 17876.58
295.5049, 17880.81
295.9870, 17890.49
296.4691, 17905.01
296.9513, 17925.59
297.4334, 17957.11
297.9155, 18000.47
298.3976, 18046.46
298.8797, 18079.91
299.3618, 18099.23
299.8440, 18105.65
300.3261, 18099.20
300.8082, 18080.24
301.2903, 18045.58
301.7724, 17995.98
302.2545, 17939.19
302.7367, 17882.66
303.2188, 17824.31
303.7009, 17777.38
304.1830, 17744.56
304.6651, 17719.30
305.1472, 17698.35
305.6294, 17681.12
306.1115, 17668.29
306.5936, 17661.41
307.0757, 17661.00
307.5578, 17654.51
308.0399, 17634.82
308.5221, 17617.22
309.0042, 17611.32
309.4863, 17613.35
309.9684, 17612.76
310.4505, 17602.47
310.9326, 17584.13
311.4148, 17569.26
311.8969, 17557.65
312.3790, 17549.15
312.8611, 17546.69
313.3432, 17546.89
313.8253, 17543.95
314.3075, 17535.11
314.7896, 17522.87
315.2717, 17513.55
315.7538, 17509.68
316.2359, 17505.25
316.7180, 17498.89
317.2001, 17492.24
317.6823, 17485.99
318.1644, 17480.48
318.6465, 17478.10
319.1286, 17482.82
319.6107, 17498.54
320.0928, 17512.29
320.5750, 17521.01
321.0571, 17529.74
321.5392, 17543.40
322.0213, 17561.84
322.5034, 17580.64
322.9855, 17595.90
323.4677, 17607.87
323.9498, 17611.46
324.4319, 17606.69
324.9140, 17594.94
325.3961, 17575.60
325.8782, 17549.71
326.3604, 17519.13
326.8425, 17484.67
327.3246, 17446.88
327.8067, 17410.60
328.2888, 17372.36
328.7709, 17339.51
329.2531, 17316.42
329.7352, 17299.87
330.2173, 17284.76
330.6994, 17268.74
331.1815, 17252.70
331.6636, 17238.82
332.1458, 17224.55
332.6279, 17216.23
333.1100, 17219.91
333.5921, 17226.79
334.0742, 17226.90
334.5563, 17217.84
335.0385, 17206.39
335.5206, 17202.92
336.0027, 17213.16
336.4848, 17216.24
336.9669, 17206.07
337.4490, 17194.20
337.9312, 17188.77
338.4133, 17189.58
338.8954, 17191.01
339.3775, 17188.11
339.8596, 17180.77
340.3417, 17169.88
340.8239, 17151.73
341.3060, 17134.33
341.7881, 17119.32
342.2702, 17107.20
342.7523, 17099.50
343.2344, 17097.73
343.7166, 17099.70
344.1987, 17094.85
344.6808, 17073.35
345.1629, 17055.85
345.6450, 17045.55
346.1271, 17039.74
346.6093, 17037.03
347.0914, 17036.58
347.5735, 17035.33
348.0556, 17027.10
348.5377, 17006.99
349.0198, 16988.58
349.5020, 16970.60
349.9841, 16955.10
350.4662, 16944.49
350.9483, 16938.54
351.4304, 16934.59
351.9125, 16929.96
352.3947, 16924.56
352.8768, 16919.22
353.3589, 16912.06
353.8410, 16906.77
354.3231, 16902.73
354.8052, 16901.60
355.2874, 16907.29
355.7695, 16923.60
356.2516, 16947.67
356.7337, 16963.53
357.2158, 16964.71
357.6979, 16965.79
358.1800, 16973.20
358.6621, 16980.38
359.1443, 16981.14
359.6264, 16973.09
360.1085, 16955.89
360.5906, 16925.73
361.0727, 16872.86
361.5548, 16832.93
362.0370, 16820.11
362.5191, 16812.51
363.0012, 16796.48
363.4833, 16771.01
363.9654, 16744.43
364.4475, 16724.14
364.9297, 16710.18
365.4118, 16701.34
365.8939, 16699.28
366.3760, 16701.01
366.8581, 16708.04
367.3402, 16717.62
367.8224, 16724.70
368.3045, 16726.27
368.7866, 16723.31
369.2687, 16718.56
369.7508, 16712.04
370.2329, 16703.59
370.7151, 16690.76
371.1972, 16677.35
371.6793, 16667.20
372.1614, 16661.71
372.6435, 16658.34
373.1256, 16654.04
373.6078, 16648.72
374.0899, 16644.23
374.5720, 16639.77
375.0541, 16637.55
375.5362, 16641.44
376.0183, 16650.45
376.5005, 16656.04
376.9826, 16650.10
377.4647, 16635.82
377.9468, 16625.03
378.4289, 16618.93
378.9110, 16615.01
379.3932, 16610.76
379.8753, 16607.30
380.3574, 16607.63
380.8395, 16614.93
381.3216, 16624.24
381.8037, 16628.21
382.2859, 16626.69
382.7680, 16628.86
383.2501, 16644.90
383.7322, 16662.51
384.2143, 16663.04
384.6964, 16643.41
385.1786, 16616.72
385.6607, 16585.38
386.1428, 16552.81
386.6249, 16528.19
387.1070, 16514.48
387.5891, 16507.29
388.0713, 16501.81
388.5534, 16498.03
389.0355, 16499.42
389.5176, 16509.69
389.9997, 16523.65
390.4818, 16540.11
390.9640, 16558.02
391.4461, 16566.13
391.9282, 16555.19
392.4103, 16527.63
392.8924, 16500.48
393.3745, 16471.92
393.8567, 16445.44
394.3388, 16421.35
394.8209, 16400.31
395.3030, 16384.12
395.7851, 16373.29
396.2672, 16366.89
396.7494, 16363.24
397.2315, 16362.08
397.7136, 16364.50
398.1957, 16370.14
398.6778, 16379.56
399.1599, 16394.04
399.6420, 16413.20
400.1241, 16434.86
400.6063, 16457.62
401.0884, 16481.72
401.5705, 16501.91
402.0526, 16525.07
402.5347, 16537.83
403.0168, 16534.24
403.4990, 16518.07
403.9811, 16494.92
404.4632, 16467.59
404.9453, 16436.16
405.4274, 16400.02
405.9095, 16352.26
406.3917, 16312.49
406.8738, 16283.69
407.3559, 16260.60
407.8380, 16238.18
408.3201, 16216.62
408.8022, 16200.94
409.2844, 16197.91
409.7665, 16208.69
410.2486, 16212.35
410.7307, 16202.53
411.2128, 16191.73
411.6949, 16181.86
412.1771, 16173.69
412.6592, 16167.62
413.1413, 16163.55
413.6234, 16162.60
414.1055, 16169.60
414.5876, 16190.00
415.0698, 16201.63
415.5519, 16191.35
416.0340, 16175.76
416.5161, 16165.37
416.9982, 16161.52
417.4803, 16160.17
417.9625, 16158.67
418.4446, 16156.96
418.9267, 16154.43
419.4088, 16150.35
419.8909, 16146.72
420.3730, 16146.46
420.8552, 16147.46
421.3373, 16145.19
421.8194, 16136.71
422.3015, 16125.73
422.7836, 16116.21
423.2657, 16108.16
423.7479, 16101.14
424.2300, 16095.01
424.7121, 16089.91
425.1942, 16085.93
425.6763, 16083.23
426.1584, 16080.88
426.6406, 16077.61
427.1227, 16074.72
427.6048, 16074.63
428.0869, 16077.87
428.5690, 16082.72
429.0511, 16087.45
429.5333, 16092.30
430.0154, 16099.53
430.4975, 16109.91
430.9796, 16121.96
431.4617, 16135.95
431.9438, 16150.91
432.4260, 16163.99
432.9081, 16173.34
433.3902, 16181.66
433.8723, 16195.74
434.3544, 16222.71
434.8365, 16243.26
435.3187, 16257.30
435.8008, 16264.22
436.2829, 16262.68
436.7650, 16252.98
437.2471, 16237.20
437.7292, 16217.03
438.2114, 16192.34
438.6935, 16165.01
439.1756, 16132.37
439.6577, 16100.03
440.1398, 16064.72
440.6219, 16032.11
441.1040, 16011.37
441.5862, 16006.39
442.0683, 16009.68
442.5504, 16008.29
443.0325, 16001.94
443.5146, 15991.90
443.9967, 15969.09
444.4789, 15950.47
444.9610, 15948.12
445.4431, 15959.16
445.9252, 15970.82
446.4073, 15974.55
446.8894, 15971.51
447.3716, 15965.85
447.8537, 15956.85
448.3358, 15946.72
448.8179, 15934.26
449.3000, 15921.88
449.7821, 15912.39
450.2643, 15906.51
450.7464, 15902.35
451.2285, 15898.79
451.7106, 15895.62
452.1927, 15892.22
452.6748, 15888.57
453.1570, 15884.41
453.6391, 15878.97
454.1212, 15872.59
454.6033, 15866.94
455.0854, 15862.05
455.5675, 15858.35
456.0497, 15857.25
456.5318, 15858.19
457.0139, 15857.38
457.4960, 15852.04
457.9781, 15844.86
458.4602, 15843.67
458.9424, 15852.04
459.4245, 15858.00
459.9066, 15860.26
460.3887, 15858.73
460.8708, 15851.08
461.3529, 15838.05
461.8351, 15826.27
462.3172, 15822.44
462.7993, 15826.97
463.2814, 15827.62
463.7635, 15821.80
464.2456, 15815.35
464.7278, 15808.27
465.2099, 15801.83
465.6920, 15797.89
466.1741, 15797.10
466.6562, 15797.93
467.1383, 15797.69
467.6205, 15795.57
468.1026, 15794.88
468.5847, 15801.29
469.0668, 15804.14
469.5489, 15794.68
470.0310, 15777.23
470.5132, 15763.80
470.9953, 15762.36
471.4774, 15769.32
471.9595, 15775.82
472.4416, 15781.85
472.9237, 15787.68
473.4059, 15795.13
473.8880, 15801.30
474.3701, 15802.84
474.8522, 15799.24
475.3343, 15795.00
475.8164, 15792.60
476.2986, 15791.77
476.7807, 15790.90
477.2628, 15789.03
477.7449, 15791.20
478.2270, 15801.87
478.7091, 15820.12
479.1913, 15840.52
479.6734, 15858.39
480.1555, 15883.11
480.6376, 15923.24
481.1197, 15973.29
481.6018, 16021.58
482.0839, 16064.16
482.5660, 16106.03
483.0482, 16156.34
483.5303, 16221.99
484.0124, 16267.76
484.4945, 16293.66
484.9766, 16301.06
485.4587, 16286.99
485.9409, 16255.01
486.4230, 16211.05
486.9051, 16157.63
487.3872, 16098.34
487.8693, 16043.81
488.3514, 15994.18
488.8336, 15948.72
489.3157, 15905.89
489.7978, 15867.75
490.2799, 15838.02
490.7620, 15815.27
491.2441, 15793.16
491.7263, 15765.08
492.2084, 15733.67
492.6905, 15713.24
493.1726, 15709.36
493.6547, 15703.31
494.1368, 15683.35
494.6190, 15659.45
495.1011, 15642.26
495.5832, 15634.34
496.0653, 15627.49
496.5474, 15613.26
497.0295, 15595.13
497.5117, 15585.78
497.9938, 15589.31
498.4759, 15591.74
498.9580, 15579.43
499.4401, 15555.26
499.9222, 15536.15
500.4044, 15524.51
500.8865, 15516.51
501.3686, 15510.44
501.8507, 15506.45
502.3328, 15505.56
502.8149, 15508.23
503.2971, 15511.87
503.7792, 15513.03
504.2613, 15511.69
504.7434, 15507.56
505.2255, 15494.84
505.7076, 15485.48
506.1898, 15489.19
506.6719, 15500.30
507.1540, 15506.12
507.6361, 15499.75
508.1182, 15487.32
508.6003, 15483.84
509.0825, 15494.55
509.5646, 15500.17
510.0467, 15493.71
510.5288, 15486.02
511.0109, 15484.56
511.4930, 15487.50
511.9752, 15486.76
512.4573, 15475.13
512.9394, 15457.76
513.4215, 15446.79
513.9036, 15442.95
514.3857, 15440.55
514.8679, 15439.31
515.3500, 15436.86
515.8321, 15430.53
516.3142, 15420.12
516.7963, 15407.17
517.2784, 15388.25
517.7606, 15369.00
518.2427, 15357.90
518.7248, 15355.47
519.2069, 15356.44
519.6890, 15358.42
520.1711, 15360.56
520.6533, 15358.39
521.1354, 15350.90
521.6175, 15341.22
522.0996, 15327.93
522.5817, 15313.82
523.0638, 15300.83
523.5460, 15289.84
524.0281, 15281.93
524.5102, 15278.19
524.9923, 15278.58
525.4744, 15282.91
525.9565, 15300.56
526.4387, 15309.42
526.9208, 15300.98
527.4029, 15284.22
527.8850, 15266.69
528.3671, 15250.75
528.8492, 15238.71
529.3314, 15234.69
529.8135, 15237.80
530.2956, 15239.55
530.7777, 15240.54
531.2598, 15238.06
531.7419, 15226.16
532.2241, 15210.62
532.7062, 15200.99
533.1883, 15200.68
533.6704, 15203.13
534.1525, 15207.30
534.6346, 15210.54
535.1168, 15204.17
535.5989, 15185.28
536.0810, 15166.56
536.5631, 15162.17
537.0452, 15172.92
537.5273, 15175.58
538.0095, 15162.67
538.4916, 15150.75
538.9737, 15146.15
539.4558, 15146.31
539.9379, 15148.93
540.4200, 15152.76
540.9022, 15153.42
541.3843, 15143.43
541.8664, 15119.76
542.3485, 15102.71
542.8306, 15094.67
543.3127, 15091.48
543.7948, 15096.29
544.2769, 15103.90
544.7590, 15106.57
545.2411, 15101.22
545.7233, 15092.08
546.2054, 15083.29
546.6875, 15074.88
547.1696, 15069.02
547.6517, 15067.10
548.1339, 15065.59
548.6160, 15060.24
549.0981, 15052.70
549.5802, 15047.98
550.0623, 15047.93
550.5444, 15049.85
551.0266, 15055.08
551.5087, 15060.69
551.9908, 15058.24
552.4729, 15044.88
552.9550, 15029.57
553.4371, 15024.09
553.9193, 15031.04
554.4014, 15032.22
554.8835, 15021.08
555.3656, 15012.40
555.8477, 15013.54
556.3298, 15019.96
556.8120, 15024.35
557.2941, 15024.11
557.7762, 15022.91
558.2583, 15026.82
558.7404, 15036.87
559.2225, 15042.87
559.7047, 15040.53
560.1868, 15039.24
560.6689, 15047.17
561.1510, 15057.99
561.6331, 15060.83
562.1152, 15051.54
562.5974, 15035.83
563.0795, 15016.19
563.5616, 14994.07
564.0437, 14974.90
564.5258, 14959.78
565.0079, 14947.15
565.4901, 14934.88
565.9722, 14923.59
566.4543, 14918.38
566.9364, 14928.24
567.4185, 14934.05
567.9006, 14925.89
568.3828, 14910.39
568.8649, 14896.06
569.3470, 14885.56
569.8291, 14877.93
570.3112, 14872.77
570.7933, 14870.36
571.2755, 14865.13
571.7576, 14853.63
572.2397, 14843.53
572.7218, 14837.18
573.2039, 14832.79
573.6860, 14827.80
574.1682, 14821.58
574.6503, 14816.86
575.1324, 14818.44
575.6145, 14824.08
576.0966, 14823.33
576.5787, 14814.24
577.0609, 14803.70
577.5430, 14795.70
578.0251, 14789.22
578.5072, 14781.60
578.9893, 14771.81
579.4714, 14763.13
579.9536, 14757.27
580.4357, 14753.03
580.9178, 14750.81
581.3999, 14749.69
581.8820, 14743.55
582.3641, 14726.41
582.8463, 14701.53
583.3284, 14687.77
583.8105, 14694.75
584.2926, 14699.47
584.7747, 14703.60
585.2568, 14702.57
585.7390, 14689.42
586.2211, 14666.64
586.7032, 14645.59
587.1853, 14634.27
587.6674, 14630.55
588.1495, 14630.42
588.6317, 14635.08
589.1138, 14635.52
589.5959, 14625.49
590.0780, 14613.08
590.5601, 14608.69
591.0422, 14612.10
591.5244, 14613.85
592.0065, 14610.16
592.4886, 14604.18
592.9707, 14597.28
593.4528, 14590.35
593.9349, 14585.77
594.4171, 14584.54
594.8992, 14586.35
595.3813, 14591.02
595.8634, 14600.37
596.3455, 14607.04
596.8276, 14616.06
597.3098, 14617.53
597.7919, 14602.67
598.2740, 14578.57
598.7561, 14555.71
599.2382, 14538.15
599.7203, 14526.85
600.2025, 14525.81
600.6846, 14534.65
601.1667, 14538.36
601.6488, 14533.61
602.1309, 14527.47
602.6130, 14525.29
603.0952, 14525.20
603.5773, 14523.41
604.0594, 14519.22
604.5415, 14513.94
605.0236, 14510.07
605.5057, 14504.85
605.9879, 14492.07
606.4700, 14471.56
606.9521, 14451.58
607.4342, 14438.89
607.9163, 14432.81
608.3984, 14428.40
608.8806, 14424.13
609.3627, 14423.68
609.8448, 14435.16
610.3269, 14444.47
610.8090, 14437.32
611.2911, 14415.92
611.7733, 14395.94
612.2554, 14389.70
612.7375, 14390.91
613.2196, 14384.05
613.7017, 14368.18
614.1838, 14354.09
614.6660, 14346.02
615.1481, 14339.86
615.6302, 14330.61
616.1123, 14318.58
616.5944, 14306.91
617.0765, 14295.05
617.5587, 14285.00
618.0408, 14279.70
618.5229, 14277.06
619.0050, 14272.86
619.4871, 14265.56
619.9692, 14255.32
620.4514, 14241.43
620.9335, 14222.43
621.4156, 14210.22
621.8977, 14209.31
622.3798, 14210.14
622.8619, 14213.28
623.3441, 14215.34
623.8262, 14212.04
624.3083, 14202.47
624.7904, 14190.58
625.2725, 14179.04
625.7546, 14167.87
626.2367, 14156.82
626.7188, 14145.78
627.2009, 14136.40
627.6830, 14129.94
628.1652, 14125.38
628.6473, 14121.01
629.1294, 14118.66
629.6115, 14111.16
630.0936, 14090.14
630.5757, 14069.86
631.0579, 14062.97
631.5400, 14065.59
632.0221, 14064.89
632.5042, 14054.16
632.9863, 14040.47
633.4684, 14039.39
633.9506, 14055.65
634.4327, 14060.46
634.9148, 14045.01
635.3969, 14026.92
635.8790, 14013.84
636.3611, 14004.49
636.8433, 13996.87
637.3254, 13990.85
637.8075, 13985.37
638.2896, 13982.03
638.7717, 13978.10
639.2538, 13966.55
639.7360, 13946.75
640.2181, 13927.21
640.7002, 13914.02
641.1823, 13905.76
641.6644, 13896.50
642.1465, 13889.25
642.6287, 13876.67
643.1108, 13849.97
643.5929, 13825.55
644.0750, 13817.71
644.5571, 13821.97
645.0392, 13822.92
645.5214, 13811.33
646.0035, 13794.83
646.4856, 13787.36
646.9677, 13788.88
647.4498, 13786.88
647.9319, 13777.25
648.4141, 13767.70
648.8962, 13766.43
649.3783, 13770.63
649.8604, 13769.78
650.3425, 13758.39
650.8246, 13748.02
651.3068, 13744.12
651.7889, 13743.15
652.2710, 13741.71
652.7531, 13738.79
653.2352, 13733.58
653.7173, 13725.30
654.1995, 13714.41
654.6816, 13702.25
655.1637, 13686.81
655.6458, 13674.96
656.1279, 13671.43
656.6100, 13668.85
657.0922, 13661.98
657.5743, 13652.33
658.0564, 13646.03
658.5385, 13649.14
659.0206, 13651.28
659.5027, 13641.27
659.9849, 13622.36
660.4670, 13602.48
660.9491, 13583.38
661.4312, 13567.29
661.9133, 13556.75
662.3954, 13551.31
662.8776, 13544.46
663.3597, 13536.56
663.8418, 13526.85
664.3239, 13510.05
664.8060, 13495.36
665.2881, 13492.21
665.7703, 13498.95
666.2524, 13506.06
666.7345, 13508.50
667.2166, 13506.45
667.6987, 13499.62
668.1808, 13488.10
668.6630, 13473.77
669.1451, 13455.51
669.6272, 13438.40
670.1093, 13429.05
670.5914, 13426.45
671.0735, 13418.74
671.5557, 13397.49
672.0378, 13381.00
672.5199, 13379.82
673.0020, 13383.68
673.4841, 13381.14
673.9662, 13371.10
674.4484, 13359.51
674.9305, 13350.94
675.4126, 13344.30
675.8947, 13335.66
676.3768, 13324.42
676.8589, 13313.81
677.3411, 13302.29
677.8232, 13294.28
678.3053, 13297.15
678.7874, 13306.98
679.2695, 13308.96
679.7516, 13296.01
680.2338, 13279.20
680.7159, 13262.34
681.1980, 13246.90
681.6801, 13234.25
682.1622, 13225.06
682.6443, 13222.11
683.1265, 13229.17
683.6086, 13242.39
684.0907, 13242.18
684.5728, 13220.70
685.0549, 13202.68
685.5370, 13192.10
686.0192, 13185.19
686.5013, 13182.90
686.9834, 13182.58
687.4655, 13177.27
687.9476, 13162.81
688.4297, 13145.31
688.9119, 13127.04
689.3940, 13110.45
689.8761, 13103.59
690.3582, 13107.57
690.8403, 13111.50
691.3224, 13107.11
691.8046, 13095.77
692.2867, 13083.27
692.7688, 13066.47
693.2509, 13054.04
693.7330, 13049.95
694.2151, 13046.97
694.6973, 13041.20
695.1794, 13033.00
695.6615, 13023.94
696.1436, 13014.39
696.6257, 13005.31
697.1078, 12997.81
697.5900, 12991.59
698.0721, 12985.21
698.5542, 12978.31
699.0363, 12973.63
699.5184, 12974.25
700.0005, 12977.55
700.4827, 12974.40
700.9648, 12960.82
701.4469, 12946.95
701.9290, 12929.96
702.4111, 12915.44
702.8932, 12907.85
703.3754, 12905.15
703.8575, 12902.94
704.3396, 12899.47
704.8217, 12896.70
705.3038, 12892.52
705.7859, 12890.02
706.2681, 12886.66
706.7502, 12882.42
707.2323, 12876.52
707.7144, 12867.97
708.1965, 12857.92
708.6786, 12848.89
709.1607, 12840.63
709.6428, 12834.00
710.1249, 12832.61
710.6071, 12829.25
711.0892, 12817.50
711.5713, 12801.70
712.0534, 12789.19
712.5355, 12782.44
713.0176, 12779.00
713.4998, 12777.12
713.9819, 12776.41
714.4640, 12775.36
714.9461, 12774.59
715.4282, 12768.91
715.9103, 12752.53
716.3925, 12734.20
716.8746, 12729.88
717.3567, 12741.91
717.8388, 12745.67
718.3209, 12733.48
718.8030, 12718.69
719.2852, 12706.44
719.7673, 12695.86
720.2494, 12684.01
720.7315, 12670.94
721.2136, 12661.60
721.6957, 12662.64
722.1779, 12670.00
722.6600, 12668.10
723.1421, 12655.64
723.6242, 12645.34
724.1063, 12642.64
724.5884, 12640.56
725.0706, 12630.75
725.5527, 12613.87
726.0348, 12599.55
726.5169, 12588.68
726.9990, 12579.99
727.4811, 12574.17
727.9633, 12569.64
728.4454, 12566.00
728.9275, 12562.34
729.4096, 12556.03
729.8917, 12544.79
730.3738, 12531.06
730.8560, 12520.09
731.3381, 12512.01
731.8202, 12503.07
732.3023, 12492.04
732.7844, 12481.58
733.2665, 12472.90
733.7487, 12466.47
734.2308, 12463.75
734.7129, 12467.62
735.1950, 12469.71
735.6771, 12470.90
736.1592, 12467.53
736.6414, 12452.22
737.1235, 12430.31
737.6056, 12414.98
738.0877, 12412.14
738.5698, 12414.61
739.0519, 12413.47
739.5341, 12408.84
740.0162, 12400.24
740.4983, 12385.95
740.9804, 12376.05
741.4625, 12378.04
741.9446, 12385.04
742.4268, 12383.83
742.9089, 12372.64
743.3910, 12363.09
743.8731, 12356.24
744.3552, 12351.03
744.8373, 12348.04
745.3195, 12345.89
745.8016, 12342.63
746.2837, 12337.92
746.7658, 12333.23
747.2479, 12330.08
747.7300, 12327.85
748.2122, 12324.59
748.6943, 12320.30
749.1764, 12317.85
749.6585, 12319.93
750.1406, 12318.96
750.6227, 12303.98
751.1049, 12275.87
751.5870, 12261.88
752.0691, 12277.12
752.5512, 12284.92
753.0333, 12273.03
753.5154, 12255.59
753.9976, 12243.05
754.4797, 12235.90
754.9618, 12230.82
755.4439, 12226.58
755.9260, 12221.83
756.4081, 12213.54
756.8903, 12203.02
757.3724, 12196.81
757.8545, 12196.01
758.3366, 12193.64
758.8187, 12184.69
759.3008, 12172.30
759.7830, 12164.33
760.2651, 12162.47
760.7472, 12161.26
761.2293, 12160.44
761.7114, 12160.63
762.1935, 12165.37
762.6757, 12169.85
763.1578, 12166.78
763.6399, 12154.79
764.1220, 12141.36
764.6041, 12128.88
765.0862, 12119.92
765.5684, 12121.13
766.0505, 12130.18
766.5326, 12136.34
767.0147, 12136.32
767.4968, 12129.61
767.9789, 12114.02
768.4611, 12090.17
768.9432, 12076.87
769.4253, 12082.15
769.9074, 12084.00
770.3895, 12073.75
770.8716, 12063.65
771.3538, 12064.05
771.8359, 12071.71
772.3180, 12075.18
772.8001, 12069.82
773.2822, 12061.57
773.7643, 12052.30
774.2465, 12043.77
774.7286, 12040.75
775.2107, 12041.91
775.6928, 12038.14
776.1749, 12023.90
776.6570, 12006.33
777.1392, 12000.94
777.6213, 12010.53
778.1034, 12011.55
778.5855, 11998.78
779.0676, 11987.35
779.5497, 11985.95
780.0319, 11988.24
780.5140, 11985.75
780.9961, 11977.87
781.4782, 11971.02
781.9603, 11967.29
782.4424, 11964.30
782.9246, 11960.69
783.4067, 11956.82
783.8888, 11953.59
784.3709, 11950.96
784.8530, 11947.65
785.3351, 11941.94
785.8173, 11935.87
786.2994, 11936.20
786.7815, 11942.92
787.2636, 11945.05
787.7457, 11940.00
788.2278, 11932.15
788.7100, 11924.40
789.1921, 11916.68
789.6742, 11908.66
790.1563, 11899.01
790.6384, 11891.73
791.1205, 11887.19
791.6026, 11885.10
792.0847, 11886.49
792.5668, 11889.89
793.0490, 11893.89
793.5311, 11898.02
794.0132, 11899.35
794.4953, 11895.66
794.9774, 11887.50
795.4595, 11873.13
795.9417, 11854.15
796.4238, 11840.41
796.9059, 11835.11
797.3880, 11834.29
797.8701, 11834.25
798.3522, 11834.64
798.8344, 11831.23
799.3165, 11819.97
799.7986, 11812.26
800.2807, 11813.80
800.7628, 11815.69
801.2449, 11812.33
801.7271, 11805.07
802.2092, 11797.78
802.6913, 11790.29
803.1734, 11785.60
803.6555, 11786.62
804.1376, 11790.51
804.6198, 11795.84
805.1019, 11801.35
805.5840, 11804.76
806.0661, 11805.13
806.5482, 11802.68
807.0303, 11796.96
807.5125, 11788.45
807.9946, 11781.17
808.4767, 11775.40
808.9588, 11769.45
809.4409, 11762.96
809.9230, 11755.74
810.4052, 11747.11
810.8873, 11737.06
811.3694, 11728.47
811.8515, 11720.39
812.3336, 11714.96
812.8157, 11712.46
813.2979, 11712.75
813.7800, 11717.00
814.2621, 11723.81
814.7442, 11730.36
815.2263, 11735.92
815.7084, 11738.34
816.1906, 11733.17
816.6727, 11724.07
817.1548, 11719.81
817.6369, 11720.00
818.1190, 11716.07
818.6011, 11703.77
819.0833, 11690.41
819.5654, 11687.33
820.0475, 11695.05
820.5296, 11697.33
821.0117, 11692.14
821.4938, 11685.46
821.9760, 11675.58
822.4581, 11667.63
822.9402, 11668.72
823.4223, 11676.18
823.9044, 11677.41
824.3865, 11665.99
824.8687, 11654.24
825.3508, 11645.06
825.8329, 11639.16
826.3150, 11641.32
826.7971, 11647.22
827.2792, 11644.82
827.7614, 11628.68
828.2435, 11608.80
828.7256, 11596.77
829.2077, 11591.23
829.6898, 11588.09
830.1719, 11587.22
830.6541, 11584.13
831.1362, 11577.06
831.6183, 11567.40
832.1004, 11556.28
832.5825, 11543.76
833.0646, 11532.85
833.5468, 11523.15
834.0289, 11515.85
834.5110, 11511.23
834.9931, 11508.85
835.4752, 11509.62
835.9573, 11512.31
836.4395, 11514.17
836.9216, 11514.81
837.4037, 11513.72
837.8858, 11510.77
838.3679, 11505.93
838.8500, 11498.01
839.3322, 11488.34
839.8143, 11479.53
840.2964, 11472.66
840.7785, 11468.30
841.2606, 11468.33
841.7427, 11470.97
842.2249, 11468.86
842.7070, 11461.78
843.1891, 11454.33
843.6712, 11447.22
844.1533, 11441.22
844.6354, 11436.94
845.1176, 11434.31
845.5997, 11433.11
846.0818, 11434.72
846.5639, 11435.52
847.0460, 11435.98
847.5281, 11435.17
848.0103, 11434.04
848.4924, 11430.79
848.9745, 11420.88
849.4566, 11403.48
849.9387, 11389.91
850.4208, 11391.36
850.9030, 11394.36
851.3851, 11384.03
851.8672, 11366.97
852.3493, 11356.66
852.8314, 11355.22
853.3135, 11354.87
853.7957, 11349.38
854.2778, 11342.43
854.7599, 11344.42
855.2420, 11355.03
855.7241, 11357.33
856.2062, 11348.23
856.6884, 11336.73
857.1705, 11326.49
857.6526, 11318.30
858.1347, 11314.11
858.6168, 11315.19
859.0989, 11314.20
859.5811, 11311.60
860.0632, 11306.29
860.5453, 11291.85
861.0274, 11279.22
861.5095, 11281.62
861.9916, 11295.70
862.4738, 11304.21
862.9559, 11301.54
863.4380, 11291.30
863.9201, 11268.92
864.4022, 11244.89
864.8843, 11232.84
865.3665, 11231.29
865.8486, 11233.36
866.3307, 11235.92
866.8128, 11235.54
867.2949, 11225.47
867.7770, 11208.95
868.2592, 11200.45
868.7413, 11200.07
869.2234, 11203.52
869.7055, 11211.15
870.1876, 11215.14
870.6697, 11206.25
871.1519, 11187.91
871.6340, 11179.85
872.1161, 11188.31
872.5981, 11194.88
873.0803, 11200.39
873.5624, 11201.88
874.0445, 11196.80
874.5266, 11187.37
875.0087, 11174.99
875.4908, 11159.46
875.9730, 11149.06
876.4551, 11151.19
876.9372, 11154.34
877.4193, 11151.44
877.9014, 11145.24
878.3835, 11138.82
878.8657, 11133.22
879.3478, 11129.58
879.8299, 11129.03
880.3120, 11129.12
880.7941, 11124.32
881.2762, 11117.55
881.7584, 11121.16
882.2405, 11134.83
882.7226, 11141.04
883.2047, 11131.28
883.6868, 11116.43
884.1689, 11111.60
884.6511, 11116.36
885.1332, 11117.58
885.6153, 11113.47
886.0974, 11110.57
886.5795, 11110.84
887.0616, 11111.61
887.5438, 11111.00
888.0259, 11109.18
888.5080, 11106.98
888.9901, 11104.83
889.4722, 11101.10
889.9543, 11090.16
890.4365, 11083.31
890.9186, 11092.55
891.4007, 11106.30
891.8828, 11108.12
892.3649, 11096.38
892.8470, 11082.88
893.3292, 11075.93
893.8113, 11068.04
894.2934, 11048.24
894.7755, 11024.22
895.2576, 11011.03
895.7397, 11008.44
896.2219, 11004.83
896.7040, 10994.06
897.1861, 10982.49
897.6682, 10981.53
898.1503, 10989.27
898.6324, 10989.18
899.1146, 10980.71
899.5967, 10972.30
900.0788, 10966.30
900.5609, 10962.47
901.0430, 10962.43
901.5251, 10963.99
902.0073, 10952.71
902.4894, 10917.89
902.9715, 10892.00
903.4536, 10882.54
903.9357, 10875.28
904.4178, 10864.29
904.9000, 10851.55
905.3821, 10839.68
905.8642, 10828.92
906.3463, 10819.10
906.8284, 10812.45
907.3105, 10804.06
907.7927, 10790.48
908.2748, 10774.97
908.7569, 10758.56
909.2390, 10743.46
909.7211, 10735.21
910.2032, 10737.42
910.6854, 10740.33
911.1675, 10734.59
911.6496, 10723.92
912.1317, 10713.43
912.6138, 10703.60
913.0959, 10694.79
913.5781, 10687.03
914.0602, 10679.69
914.5423, 10672.43
915.0244, 10664.64
915.5065, 10652.48
915.9886, 10635.88
916.4708, 10629.27
916.9529, 10637.00
917.4350, 10639.89
917.9171, 10625.40
918.3992, 10603.83
918.8813, 10594.02
919.3635, 10598.41
919.8456, 10595.51
920.3277, 10580.38
920.8098, 10566.24
921.2919, 10554.19
921.7740, 10545.69
922.2562, 10544.02
922.7383, 10546.74
923.2204, 10546.72
923.7025, 10542.81
924.1846, 10536.85
924.6667, 10528.01
925.1489, 10518.41
925.6310, 10506.12
926.1131, 10495.50
926.5952, 10494.27
927.0773, 10501.96
927.5594, 10507.86
928.0416, 10504.56
928.5237, 10499.48
929.0058, 10499.35
929.4879, 10501.79
929.9700, 10504.91
930.4521, 10507.06
930.9343, 10503.03
931.4164, 10490.88
931.8985, 10477.45
932.3806, 10470.80
932.8627, 10469.34
933.3448, 10469.73
933.8270, 10471.41
934.3091, 10464.99
934.7912, 10447.94
935.2733, 10434.06
935.7554, 10433.91
936.2375, 10441.60
936.7197, 10442.58
937.2018, 10435.42
937.6839, 10430.23
938.1660, 10428.17
938.6481, 10424.86
939.1302, 10416.78
939.6124, 10409.29
940.0945, 10408.25
940.5766, 10412.98
941.0587, 10417.67
941.5408, 10423.80
942.0229, 10427.36
942.5051, 10425.42
942.9872, 10423.72
943.4693, 10427.22
943.9514, 10431.48
944.4335, 10429.63
944.9156, 10421.08
945.3978, 10413.14
945.8799, 10405.65
946.3620, 10402.73
946.8441, 10412.67
947.3262, 10423.69
947.8083, 10421.63
948.2905, 10410.24
948.7726, 10402.12
949.2547, 10401.95
949.7368, 10403.96
950.2189, 10405.84
950.7010, 10405.26
951.1832, 10398.37
951.6653, 10386.53
952.1474, 10370.92
952.6295, 10353.17
953.1116, 10340.66
953.5938, 10338.60
954.0759, 10340.30
954.5580, 10334.98
955.0400, 10323.50
955.5222, 10309.45
956.0043, 10293.01
956.4864, 10278.07
956.9685, 10265.54
957.4506, 10258.50
957.9327, 10261.32
958.4149, 10270.61
958.8970, 10271.81
959.3791, 10263.56
959.8612, 10254.06
960.3433, 10244.13
960.8254, 10232.27
961.3076, 10216.96
961.7897, 10200.66
962.2718, 10187.28
962.7539, 10170.56
963.2360, 10153.19
963.7181, 10139.14
964.2003, 10119.09
964.6824, 10104.38
965.1645, 10092.27
965.6466, 10084.40
966.1287, 10076.85
966.6108, 10061.61
967.0930, 10036.80
967.5751, 10016.76
968.0572, 10006.72
968.5393, 9999.155
969.0214, 9992.334
969.5035, 9985.720
969.9857, 9980.146
970.4678, 9974.333
970.9499, 9965.379
971.4320, 9952.378
971.9141, 9936.513
972.3962, 9913.543
972.8784, 9892.790
973.3605, 9885.638
973.8426, 9884.861
974.3247, 9879.012
974.8068, 9866.941
975.2889, 9853.231
975.7711, 9839.841
976.2532, 9828.880
976.7353, 9824.646
977.2174, 9823.455
977.6995, 9817.795
978.1816, 9808.866
978.6638, 9802.446
979.1459, 9799.917
979.6280, 9798.601
980.1101, 9796.872
980.5922, 9793.331
981.0743, 9783.675
981.5565, 9769.257
982.0386, 9757.341
982.5207, 9748.591
983.0028, 9746.124
983.4849, 9752.021
983.9670, 9755.752
984.4492, 9744.482
984.9313, 9722.464
985.4134, 9709.588
985.8955, 9706.568
986.3776, 9708.592
986.8597, 9717.441
987.3419, 9722.200
987.8240, 9716.376
988.3061, 9705.849
988.7882, 9698.962
989.2703, 9695.675
989.7524, 9690.381
990.2346, 9681.385
990.7167, 9674.220
991.1988, 9671.209
991.6809, 9667.746
992.1630, 9658.900
992.6451, 9649.237
993.1273, 9648.806
993.6094, 9660.059
994.0915, 9662.967
994.5736, 9648.915
995.0557, 9638.266
995.5378, 9635.888
996.0200, 9637.130
996.5021, 9641.157
996.9842, 9645.814
997.4663, 9646.600
997.9484, 9642.146
998.4305, 9639.434
998.9127, 9643.656
999.3948, 9645.547
999.8769, 9638.082
1000.359, 9628.931
1000.841, 9627.427
1001.323, 9630.200
1001.805, 9627.532
1002.287, 9616.749
1002.770, 9599.728
1003.252, 9566.583
1003.734, 9539.196
1004.216, 9539.641
1004.698, 9551.636
1005.180, 9554.256
1005.662, 9546.271
1006.144, 9535.608
1006.627, 9525.143
1007.109, 9516.234
1007.591, 9510.118
1008.073, 9506.035
1008.555, 9505.627
1009.037, 9505.604
1009.519, 9498.236
1010.001, 9483.890
1010.483, 9470.745
1010.966, 9463.527
1011.448, 9459.416
1011.930, 9456.601
1012.412, 9453.854
1012.894, 9447.764
1013.376, 9439.614
1013.858, 9433.683
1014.340, 9430.944
1014.823, 9431.029
1015.305, 9434.519
1015.787, 9436.006
1016.269, 9423.999
1016.751, 9402.502
1017.233, 9386.175
1017.715, 9375.397
1018.197, 9367.479
1018.679, 9361.663
1019.162, 9359.125
1019.644, 9361.303
1020.126, 9365.623
1020.608, 9366.303
1021.090, 9363.544
1021.572, 9359.861
1022.054, 9355.331
1022.536, 9349.982
1023.018, 9343.373
1023.501, 9340.516
1023.983, 9347.290
1024.465, 9358.537
1024.947, 9356.425
1025.429, 9339.307
1025.911, 9328.790
1026.393, 9327.108
1026.875, 9322.749
1027.358, 9310.401
1027.840, 9298.450
1028.322, 9295.787
1028.804, 9299.604
1029.286, 9297.619
1029.768, 9286.423
1030.250, 9284.770
1030.732, 9298.428
1031.214, 9306.614
1031.697, 9300.296
1032.179, 9288.859
1032.661, 9281.811
1033.143, 9277.859
1033.625, 9269.104
1034.107, 9247.682
1034.589, 9242.792
1035.071, 9267.891
1035.553, 9285.459
1036.036, 9278.600
1036.518, 9262.957
1037.000, 9253.427
1037.482, 9248.913
1037.964, 9242.806
1038.446, 9232.043
1038.928, 9225.798
1039.410, 9229.225
1039.893, 9230.124
1040.375, 9220.953
1040.857, 9210.183
1041.339, 9207.058
1041.821, 9209.928
1042.303, 9210.019
1042.785, 9207.442
1043.267, 9201.524
1043.750, 9189.879
1044.232, 9177.775
1044.714, 9164.041
1045.196, 9152.988
1045.678, 9150.269
1046.160, 9154.230
1046.642, 9157.042
1047.124, 9159.171
1047.606, 9157.298
1048.089, 9147.031
1048.571, 9137.472
1049.053, 9134.407
1049.535, 9132.094
1050.017, 9124.246
1050.499, 9111.938
1050.981, 9100.234
1051.463, 9088.774
1051.945, 9081.435
1052.428, 9082.138
1052.910, 9083.562
1053.392, 9084.624
1053.874, 9083.213
1054.356, 9075.910
1054.838, 9064.428
1055.320, 9054.528
1055.802, 9046.973
1056.285, 9042.400
1056.767, 9045.575
1057.249, 9046.181
1057.731, 9036.470
1058.213, 9023.838
1058.695, 9013.505
1059.177, 9007.069
1059.659, 9008.174
1060.141, 9020.288
1060.624, 9027.200
1061.106, 9020.317
1061.588, 9010.443
1062.070, 8999.950
1062.552, 8991.625
1063.034, 8988.946
1063.516, 8990.497
1063.998, 8992.438
1064.480, 8994.006
1064.963, 8994.607
1065.445, 8993.808
1065.927, 8992.199
1066.409, 8991.332
1066.891, 8988.750
1067.373, 8980.726
1067.855, 8969.302
1068.337, 8959.516
1068.820, 8952.628
1069.302, 8945.839
1069.784, 8937.486
1070.266, 8929.502
1070.748, 8921.538
1071.230, 8915.561
1071.712, 8915.634
1072.194, 8918.326
1072.677, 8916.099
1073.159, 8907.401
1073.641, 8898.449
1074.123, 8887.531
1074.605, 8882.676
1075.087, 8896.661
1075.569, 8910.518
1076.051, 8905.619
1076.533, 8888.969
1077.016, 8873.921
1077.498, 8863.472
1077.980, 8857.770
1078.462, 8861.714
1078.944, 8863.362
1079.426, 8854.071
1079.908, 8843.024
1080.390, 8838.400
1080.872, 8836.817
1081.354, 8831.818
1081.837, 8822.943
1082.319, 8814.989
1082.801, 8808.444
1083.283, 8805.725
1083.765, 8812.313
1084.247, 8818.624
1084.729, 8816.101
1085.211, 8809.823
1085.694, 8807.395
1086.176, 8808.807
1086.658, 8808.589
1087.140, 8804.504
1087.622, 8799.729
1088.104, 8793.618
1088.586, 8789.313
1089.068, 8791.250
1089.551, 8794.301
1090.033, 8792.155
1090.515, 8785.500
1090.997, 8778.902
1091.479, 8773.392
1091.961, 8768.690
1092.443, 8767.098
1092.925, 8763.397
1093.407, 8752.941
1093.890, 8740.796
1094.372, 8730.314
1094.854, 8722.748
1095.336, 8720.597
1095.818, 8725.140
1096.300, 8727.947
1096.782, 8726.915
1097.264, 8723.028
1097.746, 8713.819
1098.229, 8704.649
1098.711, 8700.893
1099.193, 8699.800
1099.675, 8694.807
1100.157, 8684.996
1100.639, 8679.420
1101.121, 8684.553
1101.603, 8688.039
1102.086, 8685.104
1102.568, 8680.974
1103.050, 8679.937
1103.532, 8679.068
1104.014, 8673.739
1104.496, 8663.984
1104.978, 8654.028
1105.460, 8641.401
1105.943, 8634.004
1106.425, 8638.874
1106.907, 8642.221
1107.389, 8634.026
1107.871, 8624.173
1108.353, 8625.229
1108.835, 8634.559
1109.317, 8638.143
1109.799, 8633.552
1110.281, 8626.738
1110.764, 8616.380
1111.246, 8606.186
1111.728, 8593.736
1112.210, 8584.934
1112.692, 8588.262
1113.174, 8598.063
1113.656, 8599.316
1114.138, 8589.700
1114.621, 8581.810
1115.103, 8573.560
1115.585, 8570.772
1116.067, 8581.233
1116.549, 8588.181
1117.031, 8579.770
1117.513, 8563.521
1117.995, 8549.952
1118.478, 8539.064
1118.960, 8538.014
1119.442, 8556.782
1119.924, 8560.459
1120.406, 8535.698
1120.888, 8517.752
1121.370, 8525.686
1121.852, 8541.184
1122.334, 8543.350
1122.817, 8534.591
1123.299, 8528.432
1123.781, 8526.657
1124.263, 8518.632
1124.745, 8500.718
1125.227, 8489.369
1125.709, 8491.290
1126.191, 8495.484
1126.673, 8492.582
1127.156, 8485.981
1127.638, 8484.282
1128.120, 8487.642
1128.602, 8489.827
1129.084, 8490.770
1129.566, 8491.013
1130.048, 8490.771
1130.530, 8488.659
1131.013, 8483.614
1131.495, 8477.930
1131.977, 8475.510
1132.459, 8475.177
1132.941, 8469.069
1133.423, 8469.695
1133.905, 8456.913
1134.387, 8466.530
1134.870, 8471.865
1135.352, 8466.973
1135.834, 8456.747
1136.316, 8444.474
1136.798, 8433.796
1137.280, 8435.217
1137.762, 8444.456
1138.244, 8445.849
1138.726, 8440.143
1139.208, 8434.618
1139.691, 8431.300
1140.173, 8430.829
1140.655, 8434.033
1141.137, 8435.997
1141.619, 8429.152
1142.101, 8417.783
1142.583, 8406.736
1143.065, 8398.311
1143.548, 8400.402
1144.030, 8410.118
1144.512, 8413.214
1144.994, 8404.529
1145.476, 8395.272
1145.958, 8395.893
1146.440, 8398.225
1146.922, 8394.646
1147.405, 8387.452
1147.887, 8377.034
1148.369, 8366.287
1148.851, 8361.089
1149.333, 8361.671
1149.815, 8361.614
1150.297, 8356.924
1150.779, 8353.641
1151.261, 8356.861
1151.744, 8361.039
1152.226, 8364.076
1152.708, 8364.287
1153.190, 8358.289
1153.672, 8348.113
1154.154, 8339.872
1154.636, 8334.915
1155.118, 8331.700
1155.600, 8333.645
1156.083, 8331.990
1156.565, 8318.438
1157.047, 8305.650
1157.529, 8304.048
1158.011, 8308.260
1158.493, 8309.488
1158.975, 8307.294
1159.457, 8305.021
1159.940, 8304.420
1160.422, 8301.088
1160.904, 8290.472
1161.386, 8283.739
1161.868, 8288.664
1162.350, 8294.229
1162.832, 8289.458
1163.314, 8277.938
1163.796, 8270.996
1164.279, 8269.676
1164.761, 8266.775
1165.243, 8260.979
1165.725, 8258.966
1166.207, 8263.876
1166.689, 8265.608
1167.171, 8257.063
1167.653, 8246.217
1168.135, 8244.952
1168.618, 8251.206
1169.100, 8254.489
1169.582, 8254.748
1170.064, 8245.916
1170.546, 8227.811
1171.028, 8217.179
1171.510, 8219.600
1171.992, 8224.309
1172.474, 8222.759
1172.957, 8217.810
1173.439, 8214.696
1173.921, 8212.089
1174.403, 8203.481
1174.885, 8192.105
1175.367, 8191.766
1175.849, 8201.413
1176.331, 8203.840
1176.814, 8191.854
1177.296, 8178.848
1177.778, 8177.549
1178.260, 8180.106
1178.742, 8178.427
1179.224, 8174.203
1179.706, 8168.594
1180.188, 8162.765
1180.671, 8158.864
1181.153, 8156.935
1181.635, 8155.182
1182.117, 8153.604
1182.599, 8149.419
1183.081, 8138.230
1183.563, 8127.478
1184.045, 8122.167
1184.527, 8119.319
1185.010, 8117.190
1185.492, 8114.597
1185.974, 8108.836
1186.456, 8099.240
1186.938, 8092.545
1187.420, 8090.780
1187.902, 8090.588
1188.384, 8094.517
1188.866, 8096.092
1189.349, 8090.375
1189.831, 8083.049
1190.313, 8079.878
1190.795, 8080.047
1191.277, 8080.833
1191.759, 8083.364
1192.241, 8080.186
1192.723, 8067.980
1193.206, 8062.118
1193.688, 8067.003
1194.170, 8074.013
1194.652, 8078.891
1195.134, 8080.352
1195.616, 8075.968
1196.098, 8074.024
1196.580, 8061.772
1197.063, 8058.710
1197.545, 8048.819
1198.027, 8032.302
1198.509, 8016.230
1198.991, 8002.981
1199.473, 7994.448
1199.955, 7992.470
1200.437, 7991.842
1200.919, 7984.190
1201.401, 7974.351
1201.884, 7973.108
1202.366, 7974.882
1202.848, 7966.076
1203.330, 7949.936
1203.812, 7940.639
1204.294, 7941.998
1204.776, 7945.807
1205.258, 7949.017
1205.741, 7949.870
1206.223, 7945.328
1206.705, 7939.921
1207.187, 7936.353
1207.669, 7934.461
1208.151, 7935.220
1208.633, 7937.088
1209.115, 7935.266
1209.598, 7928.138
1210.080, 7922.163
1210.562, 7920.213
1211.044, 7916.633
1211.526, 7908.408
1212.008, 7900.875
1212.490, 7899.141
1212.972, 7896.360
1213.454, 7882.584
1213.937, 7861.229
1214.419, 7848.836
1214.901, 7846.487
1215.383, 7849.145
1215.865, 7858.585
1216.347, 7861.453
1216.829, 7854.188
1217.311, 7845.023
1217.793, 7838.670
1218.276, 7833.552
1218.758, 7827.967
1219.240, 7821.583
1219.722, 7811.739
1220.204, 7800.427
1220.686, 7795.392
1221.168, 7795.868
1221.650, 7797.609
1222.133, 7798.818
1222.615, 7795.749
1223.097, 7785.465
1223.579, 7778.048
1224.061, 7788.089
1224.543, 7799.490
1225.025, 7796.108
1225.507, 7785.306
1225.990, 7773.141
1226.472, 7762.033
1226.954, 7754.701
1227.436, 7751.317
1227.918, 7748.766
1228.400, 7747.536
1228.882, 7744.149
1229.364, 7735.172
1229.846, 7727.367
1230.328, 7724.684
1230.811, 7722.852
1231.293, 7718.188
1231.775, 7712.474
1232.257, 7709.289
1232.739, 7708.608
1233.221, 7705.875
1233.703, 7699.556
1234.185, 7699.401
1234.668, 7708.429
1235.150, 7708.173
1235.632, 7691.090
1236.114, 7676.350
1236.596, 7679.666
1237.078, 7690.044
1237.560, 7688.242
1238.042, 7677.881
1238.525, 7670.598
1239.007, 7665.183
1239.489, 7656.250
1239.971, 7645.194
1240.453, 7640.003
1240.935, 7642.246
1241.417, 7644.057
1241.899, 7640.749
1242.381, 7635.094
1242.864, 7629.312
1243.346, 7622.066
1243.828, 7608.274
1244.310, 7595.592
1244.792, 7595.901
1245.274, 7603.161
1245.756, 7602.063
1246.238, 7590.433
1246.720, 7581.815
1247.203, 7581.755
1247.685, 7579.041
1248.167, 7568.393
1248.649, 7562.369
1249.131, 7569.929
1249.613, 7574.450
1250.095, 7560.878
1250.577, 7539.558
1251.059, 7531.351
1251.542, 7534.878
1252.024, 7532.521
1252.506, 7524.344
1252.988, 7520.075
1253.470, 7520.471
1253.952, 7522.568
1254.434, 7525.169
1254.916, 7525.318
1255.399, 7520.603
1255.881, 7515.431
1256.363, 7516.867
1256.845, 7519.890
1257.327, 7517.204
1257.809, 7511.200
1258.291, 7503.838
1258.773, 7497.078
1259.255, 7495.318
1259.738, 7498.261
1260.220, 7498.196
1260.702, 7492.404
1261.184, 7483.536
1261.666, 7466.443
1262.148, 7454.554
1262.630, 7458.085
1263.112, 7463.621
1263.594, 7462.696
1264.077, 7456.873
1264.559, 7446.640
1265.041, 7433.298
1265.523, 7428.908
1266.005, 7435.248
1266.487, 7440.146
1266.969, 7443.186
1267.451, 7445.300
1267.934, 7446.725
1268.416, 7445.482
1268.898, 7440.401
1269.380, 7432.124
1269.862, 7419.182
1270.344, 7407.284
1270.826, 7409.340
1271.308, 7418.502
1271.791, 7424.845
1272.273, 7426.391
1272.755, 7418.420
1273.237, 7403.493
1273.719, 7392.079
1274.201, 7387.617
1274.683, 7387.871
1275.165, 7398.353
1275.647, 7403.999
1276.130, 7392.896
1276.612, 7382.751
1277.094, 7388.417
1277.576, 7396.383
1278.058, 7390.452
1278.540, 7376.080
1279.022, 7368.735
1279.504, 7369.184
1279.986, 7367.764
1280.469, 7363.487
1280.951, 7363.748
1281.433, 7369.824
1281.915, 7375.141
1282.397, 7377.368
1282.879, 7375.624
1283.361, 7368.946
1283.843, 7361.359
1284.326, 7357.799
1284.808, 7357.704
##END=



