##NAMES=Lammerite
##RRUFFID=R060715
##IDEAL CHEMISTRY=Cu^2+^_3_(As^5+^O_4_)_2_
##LOCALITY=Guanaco, Antofagasta Province, Chile
##OWNER=RRUFF
##SOURCE=Bob Jenkins
##DESCRIPTION=Dark green tabular crystals associated with blue lavendulan, R060716, white quartz and barite
##STATUS=The identification of this mineral is confirmed by single-crystal X-ray diffraction and chemical analysis.
##URL=rruff.info/R060715
##MEASURED CHEMISTRY=Cu_3.00_(As_1.00_O_4_)_2_
112.363, 665.486
112.845, 688.247
113.327, 708.284
113.809, 722.316
114.291, 735.498
114.773, 751.163
115.255, 770.211
115.737, 791.843
116.219, 817.058
116.702, 845.794
117.184, 873.132
117.666, 896.645
118.148, 918.110
118.630, 939.498
119.112, 964.318
119.594, 987.592
120.076, 1005.680
120.559, 1017.616
121.041, 1027.613
121.523, 1040.304
122.005, 1053.337
122.487, 1061.413
122.969, 1060.977
123.451, 1054.546
123.933, 1044.174
124.415, 1028.757
124.898, 1012.469
125.380, 998.988
125.862, 988.233
126.344, 979.657
126.826, 973.015
127.308, 968.333
127.790, 966.050
128.272, 967.990
128.755, 971.170
129.237, 969.495
129.719, 962.822
130.201, 955.847
130.683, 954.782
131.165, 958.381
131.647, 958.884
132.129, 950.156
132.611, 935.491
133.094, 929.885
133.576, 934.543
134.058, 944.360
134.540, 952.631
135.022, 959.329
135.504, 965.811
135.986, 973.315
136.468, 981.858
136.951, 987.711
137.433, 989.519
137.915, 989.889
138.397, 996.460
138.879, 1012.355
139.361, 1025.212
139.843, 1026.849
140.325, 1013.975
140.807, 1002.794
141.290, 994.006
141.772, 987.967
142.254, 987.093
142.736, 994.698
143.218, 1002.763
143.700, 1004.215
144.182, 992.721
144.664, 987.256
145.146, 992.140
145.629, 1007.963
146.111, 1022.294
146.593, 1034.674
147.075, 1045.843
147.557, 1055.737
148.039, 1057.096
148.521, 1066.149
149.003, 1088.277
149.486, 1128.068
149.968, 1164.662
150.450, 1191.347
150.932, 1216.588
151.414, 1252.698
151.896, 1307.716
152.378, 1367.257
152.860, 1426.726
153.342, 1483.658
153.824, 1546.373
154.307, 1615.025
154.789, 1690.344
155.271, 1772.694
155.753, 1859.300
156.235, 1954.323
156.717, 2058.435
157.199, 2160.896
157.682, 2288.010
158.164, 2453.909
158.646, 2652.403
159.128, 2856.985
159.610, 3097.787
160.092, 3319.897
160.574, 3481.679
161.056, 3593.418
161.538, 3622.729
162.020, 3520.169
162.503, 3295.787
162.985, 3080.506
163.467, 2904.802
163.949, 2777.799
164.431, 2709.833
164.913, 2720.679
165.395, 2779.233
165.877, 2872.627
166.360, 3000.581
166.842, 3156.053
167.324, 3330.219
167.806, 3529.442
168.288, 3766.076
168.770, 4033.393
169.252, 4347.027
169.734, 4727.994
170.217, 5180.346
170.699, 5667.815
171.181, 6266.005
171.663, 6884.866
172.145, 7334.637
172.627, 7567.989
173.109, 7556.501
173.591, 7227.827
174.073, 6506.729
174.555, 5646.792
175.038, 4826.872
175.520, 4055.732
176.002, 3399.082
176.484, 2912.151
176.966, 2558.053
177.448, 2273.071
177.930, 2055.098
178.413, 1886.013
178.895, 1745.530
179.377, 1632.163
179.859, 1542.815
180.341, 1481.508
180.823, 1440.665
181.305, 1402.418
181.787, 1360.819
182.269, 1320.453
182.751, 1289.542
183.234, 1268.266
183.716, 1249.788
184.198, 1227.974
184.680, 1203.947
185.162, 1182.360
185.644, 1165.549
186.126, 1151.655
186.608, 1134.351
187.091, 1113.262
187.573, 1093.779
188.055, 1082.927
188.537, 1079.863
189.019, 1077.818
189.501, 1074.276
189.983, 1069.812
190.465, 1066.666
190.947, 1064.731
191.430, 1064.599
191.912, 1068.065
192.394, 1074.976
192.876, 1081.397
193.358, 1085.098
193.840, 1086.429
194.322, 1087.738
194.804, 1087.615
195.286, 1090.787
195.769, 1107.524
196.251, 1139.415
196.733, 1169.465
197.215, 1186.684
197.697, 1191.195
198.179, 1205.460
198.661, 1231.080
199.143, 1265.281
199.626, 1303.006
200.108, 1344.790
200.590, 1388.082
201.072, 1430.098
201.554, 1470.079
202.036, 1519.536
202.518, 1581.075
203.000, 1650.725
203.482, 1718.810
203.965, 1784.810
204.447, 1851.098
204.929, 1917.651
205.411, 1984.253
205.893, 2054.574
206.375, 2130.080
206.857, 2208.961
207.339, 2287.430
207.822, 2368.866
208.304, 2441.468
208.786, 2496.869
209.268, 2534.796
209.750, 2560.046
210.232, 2577.711
210.714, 2583.314
211.196, 2552.504
211.678, 2478.990
212.161, 2381.458
212.643, 2271.731
213.125, 2144.500
213.607, 2019.168
214.089, 1896.356
214.571, 1776.541
215.053, 1662.803
215.535, 1552.981
216.018, 1454.362
216.500, 1375.311
216.982, 1324.141
217.464, 1273.256
217.946, 1215.698
218.428, 1152.685
218.910, 1100.942
219.392, 1061.820
219.874, 1032.269
220.357, 1010.006
220.839, 998.132
221.321, 986.943
221.803, 974.903
222.285, 962.151
222.767, 947.837
223.249, 931.115
223.731, 913.946
224.214, 898.767
224.696, 886.194
225.178, 873.979
225.660, 860.651
226.142, 845.887
226.624, 836.017
227.106, 833.825
227.588, 834.035
228.070, 830.005
228.553, 817.995
229.035, 808.547
229.517, 804.991
229.999, 808.352
230.481, 808.965
230.963, 805.073
231.445, 799.860
231.927, 797.797
232.410, 801.482
232.892, 803.778
233.374, 803.015
233.856, 799.112
234.338, 792.325
234.820, 780.308
235.302, 767.036
235.784, 758.132
236.266, 755.899
236.749, 754.136
237.231, 750.871
237.713, 745.325
238.195, 742.028
238.677, 741.670
239.159, 743.113
239.641, 744.916
240.123, 748.092
240.605, 749.987
241.088, 749.201
241.570, 744.497
242.052, 742.585
242.534, 744.761
243.016, 748.928
243.498, 751.691
243.980, 752.124
244.462, 752.606
244.945, 753.872
245.427, 756.055
245.909, 758.435
246.391, 761.655
246.873, 764.639
247.355, 765.002
247.837, 759.358
248.319, 756.733
248.801, 760.950
249.284, 774.159
249.766, 785.132
250.248, 793.196
250.730, 799.500
251.212, 805.856
251.694, 812.202
252.176, 818.832
252.658, 825.885
253.141, 833.243
253.623, 841.242
254.105, 849.328
254.587, 858.464
255.069, 870.808
255.551, 888.140
256.033, 905.506
256.515, 921.942
256.997, 938.367
257.480, 950.259
257.962, 956.912
258.444, 959.750
258.926, 960.312
259.408, 956.047
259.890, 954.792
260.372, 960.156
260.854, 974.055
261.336, 985.688
261.819, 994.559
262.301, 1001.788
262.783, 1009.308
263.265, 1017.835
263.747, 1025.153
264.229, 1031.725
264.711, 1038.798
265.193, 1036.851
265.676, 1023.327
266.158, 1003.580
266.640, 985.237
267.122, 968.467
267.604, 953.133
268.086, 939.290
268.568, 926.769
269.050, 917.039
269.532, 912.310
270.015, 907.703
270.497, 893.739
270.979, 866.569
271.461, 844.438
271.943, 836.264
272.425, 843.261
272.907, 843.380
273.389, 834.192
273.871, 821.967
274.354, 815.925
274.836, 817.053
275.318, 819.374
275.800, 820.872
276.282, 821.543
276.764, 823.183
277.246, 826.207
277.728, 829.371
278.211, 830.749
278.693, 830.034
279.175, 829.832
279.657, 830.692
280.139, 832.668
280.621, 836.568
281.103, 842.390
281.585, 850.130
282.068, 860.782
282.550, 874.474
283.032, 887.380
283.514, 896.525
283.996, 903.361
284.478, 919.065
284.960, 945.593
285.442, 973.131
285.924, 986.506
286.406, 986.861
286.889, 994.059
287.371, 1014.814
287.853, 1047.028
288.335, 1083.249
288.817, 1123.438
289.299, 1168.080
289.781, 1218.532
290.263, 1273.952
290.746, 1329.910
291.228, 1382.492
291.710, 1435.748
292.192, 1499.999
292.674, 1574.726
293.156, 1659.073
293.638, 1754.932
294.120, 1860.344
294.603, 1968.522
295.085, 2079.069
295.567, 2191.289
296.049, 2301.833
296.531, 2410.119
297.013, 2525.124
297.495, 2659.799
297.977, 2806.002
298.459, 2952.219
298.942, 3101.947
299.424, 3240.419
299.906, 3348.269
300.388, 3424.837
300.870, 3473.354
301.352, 3503.678
301.834, 3505.156
302.316, 3454.204
302.798, 3333.083
303.281, 3177.667
303.763, 3016.340
304.245, 2851.495
304.727, 2686.674
305.209, 2517.874
305.691, 2354.385
306.173, 2208.754
306.655, 2082.447
307.138, 1973.138
307.620, 1881.691
308.102, 1805.428
308.584, 1739.042
309.066, 1681.693
309.548, 1631.592
310.030, 1587.101
310.512, 1548.129
310.994, 1514.610
311.477, 1485.715
311.959, 1462.651
312.441, 1447.541
312.923, 1447.149
313.405, 1451.587
313.887, 1452.894
314.369, 1448.642
314.851, 1448.394
315.333, 1458.595
315.816, 1475.560
316.298, 1493.542
316.780, 1508.543
317.262, 1525.840
317.744, 1547.529
318.226, 1573.781
318.708, 1605.238
319.190, 1642.741
319.672, 1685.409
320.155, 1732.212
320.637, 1784.127
321.119, 1839.239
321.601, 1896.263
322.083, 1955.308
322.565, 2017.431
323.047, 2082.035
323.530, 2150.144
324.012, 2222.646
324.494, 2302.815
324.976, 2384.052
325.458, 2464.411
325.940, 2543.249
326.422, 2626.333
326.904, 2708.118
327.386, 2797.822
327.868, 2901.456
328.351, 3036.848
328.833, 3165.370
329.315, 3284.424
329.797, 3394.135
330.279, 3501.660
330.761, 3605.562
331.243, 3709.147
331.725, 3813.339
332.208, 3921.547
332.690, 4026.078
333.172, 4130.697
333.654, 4231.171
334.136, 4314.470
334.618, 4375.509
335.100, 4428.963
335.582, 4482.243
336.065, 4538.119
336.547, 4585.072
337.029, 4620.443
337.511, 4649.481
337.993, 4682.626
338.475, 4722.970
338.957, 4758.416
339.439, 4779.590
339.921, 4784.121
340.404, 4807.870
340.886, 4851.954
341.368, 4913.646
341.850, 4993.954
342.332, 5094.082
342.814, 5194.728
343.296, 5290.873
343.778, 5382.564
344.260, 5468.135
344.743, 5551.295
345.225, 5614.550
345.707, 5644.437
346.189, 5640.485
346.671, 5598.109
347.153, 5515.671
347.635, 5393.394
348.117, 5224.799
348.599, 5008.355
349.082, 4770.205
349.564, 4525.723
350.046, 4275.428
350.528, 4018.463
351.010, 3747.422
351.492, 3481.875
351.974, 3244.094
352.457, 3033.305
352.939, 2838.863
353.421, 2655.854
353.903, 2484.460
354.385, 2323.562
354.867, 2171.061
355.349, 2035.241
355.831, 1927.749
356.313, 1843.248
356.796, 1767.451
357.278, 1699.256
357.760, 1634.066
358.242, 1565.894
358.724, 1493.021
359.206, 1424.987
359.688, 1367.942
360.170, 1318.820
360.652, 1273.387
361.135, 1228.288
361.617, 1188.057
362.099, 1156.392
362.581, 1133.517
363.063, 1109.825
363.545, 1081.320
364.027, 1051.005
364.509, 1021.496
364.991, 989.104
365.474, 961.943
365.956, 944.817
366.438, 936.202
366.920, 925.357
367.402, 907.594
367.884, 889.602
368.366, 874.868
368.848, 870.910
369.331, 860.806
369.813, 839.594
370.295, 812.281
370.777, 793.209
371.259, 785.429
371.741, 782.252
372.223, 782.130
372.705, 787.487
373.188, 788.255
373.670, 783.119
374.152, 774.373
374.634, 765.254
375.116, 755.829
375.598, 745.944
376.080, 734.651
376.562, 722.073
377.044, 713.934
377.526, 711.065
378.009, 710.852
378.491, 711.375
378.973, 712.773
379.455, 712.576
379.937, 709.867
380.419, 705.346
380.901, 701.000
381.384, 696.765
381.866, 693.343
382.348, 678.804
382.830, 662.052
383.312, 666.318
383.794, 669.588
384.276, 664.374
384.758, 672.453
385.240, 677.305
385.723, 679.104
386.205, 668.704
386.687, 674.057
387.169, 673.096
387.651, 671.877
388.133, 679.446
388.615, 670.821
389.097, 677.388
389.579, 669.646
390.062, 669.239
390.544, 670.211
391.026, 667.464
391.508, 661.031
391.990, 655.607
392.472, 654.402
392.954, 655.099
393.436, 655.435
393.918, 653.066
394.401, 652.044
394.883, 653.346
395.365, 657.021
395.847, 663.201
396.329, 678.088
396.811, 690.975
397.293, 695.795
397.775, 686.067
398.258, 678.323
398.740, 672.203
399.222, 669.209
399.704, 672.381
400.186, 691.611
400.668, 705.811
401.150, 706.916
401.632, 690.987
402.114, 684.602
402.597, 692.103
403.079, 704.847
403.561, 713.586
404.043, 716.033
404.525, 720.844
405.007, 731.034
405.489, 745.247
405.971, 753.097
406.453, 752.800
406.936, 752.562
407.418, 759.793
407.900, 774.748
408.382, 784.840
408.864, 787.121
409.346, 786.888
409.828, 794.356
410.310, 809.316
410.793, 826.248
411.275, 842.466
411.757, 858.642
412.239, 876.966
412.721, 897.890
413.203, 918.569
413.685, 934.385
414.167, 947.375
414.650, 961.850
415.132, 979.451
415.614, 999.164
416.096, 1020.103
416.578, 1042.219
417.060, 1064.815
417.542, 1085.555
418.024, 1107.041
418.506, 1131.606
418.988, 1161.495
419.471, 1191.847
419.953, 1220.386
420.435, 1247.783
420.917, 1276.318
421.399, 1307.575
421.881, 1339.216
422.363, 1370.642
422.845, 1402.185
423.328, 1431.582
423.810, 1455.099
424.292, 1477.568
424.774, 1503.985
425.256, 1543.984
425.738, 1576.770
426.220, 1598.048
426.702, 1608.423
427.185, 1617.353
427.667, 1625.993
428.149, 1631.547
428.631, 1632.713
429.113, 1630.194
429.595, 1620.773
430.077, 1604.046
430.559, 1580.570
431.041, 1549.675
431.524, 1510.325
432.006, 1470.060
432.488, 1433.309
432.970, 1399.311
433.452, 1359.376
433.934, 1312.712
434.416, 1264.277
434.898, 1218.874
435.380, 1176.282
435.863, 1135.203
436.345, 1094.089
436.827, 1055.277
437.309, 1023.278
437.791, 997.552
438.273, 975.670
438.755, 957.866
439.237, 942.214
439.720, 925.773
440.202, 907.078
440.684, 890.565
441.166, 880.151
441.648, 874.059
442.130, 868.883
442.612, 867.636
443.094, 863.273
443.576, 848.307
444.059, 821.707
444.541, 804.151
445.023, 808.854
445.505, 820.882
445.987, 828.591
446.469, 829.574
446.951, 827.061
447.433, 818.089
447.915, 805.334
448.398, 797.938
448.880, 797.638
449.362, 800.658
449.844, 806.075
450.326, 814.598
450.808, 822.323
451.290, 829.018
451.772, 835.179
452.254, 841.489
452.737, 847.968
453.219, 854.645
453.701, 861.790
454.183, 869.100
454.665, 875.209
455.147, 880.184
455.629, 883.760
456.112, 883.942
456.594, 882.241
457.076, 884.563
457.558, 891.989
458.040, 902.825
458.522, 914.727
459.004, 928.228
459.486, 944.519
459.968, 967.293
460.451, 991.449
460.933, 1011.836
461.415, 1028.010
461.897, 1043.955
462.379, 1062.767
462.861, 1082.257
463.343, 1100.311
463.825, 1110.665
464.307, 1126.158
464.790, 1154.887
465.272, 1192.644
465.754, 1227.507
466.236, 1248.535
466.718, 1273.533
467.200, 1310.171
467.682, 1362.290
468.164, 1414.649
468.647, 1464.721
469.129, 1517.418
469.611, 1577.840
470.093, 1648.763
470.575, 1721.137
471.057, 1791.580
471.539, 1862.400
472.021, 1947.645
472.503, 2048.336
472.986, 2160.092
473.468, 2279.130
473.950, 2405.930
474.432, 2542.256
474.914, 2688.883
475.396, 2842.923
475.878, 2994.670
476.360, 3148.137
476.842, 3323.635
477.325, 3536.025
477.807, 3769.539
478.289, 3996.740
478.771, 4219.787
479.253, 4458.163
479.735, 4723.906
480.217, 5013.144
480.699, 5324.067
481.181, 5656.618
481.664, 6002.351
482.146, 6359.804
482.628, 6725.067
483.110, 7097.866
483.592, 7482.026
484.074, 7868.910
484.556, 8275.477
485.039, 8701.412
485.521, 9060.726
486.003, 9336.172
486.485, 9547.260
486.967, 9708.062
487.449, 9843.377
487.931, 9881.640
488.413, 9816.375
488.895, 9652.926
489.378, 9395.966
489.860, 9027.523
490.342, 8617.270
490.824, 8176.794
491.306, 7707.120
491.788, 7258.622
492.270, 6826.892
492.752, 6417.629
493.234, 6035.755
493.717, 5681.229
494.199, 5345.106
494.681, 5020.997
495.163, 4721.601
495.645, 4463.918
496.127, 4243.544
496.609, 4039.131
497.091, 3841.157
497.573, 3652.771
498.056, 3476.394
498.538, 3314.261
499.020, 3156.132
499.502, 2994.311
499.984, 2836.033
500.466, 2689.946
500.948, 2564.304
501.430, 2446.468
501.913, 2335.743
502.395, 2232.094
502.877, 2133.148
503.359, 2035.282
503.841, 1946.665
504.323, 1870.120
504.805, 1808.823
505.287, 1748.753
505.770, 1689.295
506.252, 1631.827
506.734, 1578.178
507.216, 1528.132
507.698, 1483.501
508.180, 1445.776
508.662, 1412.653
509.144, 1377.101
509.626, 1339.151
510.108, 1305.100
510.591, 1282.364
511.073, 1265.915
511.555, 1241.548
512.037, 1207.940
512.519, 1174.861
513.001, 1150.005
513.483, 1131.392
513.966, 1116.198
514.448, 1106.337
514.930, 1095.996
515.412, 1079.380
515.894, 1058.930
516.376, 1042.145
516.858, 1029.962
517.340, 1023.388
517.822, 1027.392
518.305, 1047.869
518.787, 1051.702
519.269, 1019.842
519.751, 978.915
520.233, 950.022
520.715, 937.318
521.197, 930.671
521.679, 933.563
522.161, 940.381
522.644, 932.146
523.126, 904.423
523.608, 879.407
524.090, 868.607
524.572, 870.590
525.054, 869.859
525.536, 866.064
526.018, 862.205
526.500, 862.368
526.983, 864.957
527.465, 865.501
527.947, 863.304
528.429, 857.948
528.911, 845.400
529.393, 828.991
529.875, 817.126
530.357, 820.328
530.839, 824.613
531.322, 818.806
531.804, 802.001
532.286, 788.684
532.768, 785.729
533.250, 786.811
533.732, 787.471
534.214, 789.904
534.696, 788.108
535.179, 778.146
535.661, 765.047
536.143, 759.396
536.625, 766.253
537.107, 769.460
537.589, 761.986
538.071, 745.464
538.553, 739.480
539.036, 746.201
539.518, 753.933
540.000, 752.529
540.482, 743.591
540.964, 736.232
541.446, 731.329
541.928, 728.500
542.410, 728.483
542.892, 730.206
543.375, 730.989
543.857, 728.445
544.339, 725.366
544.821, 724.300
545.303, 724.863
545.785, 725.022
546.267, 723.266
546.749, 721.213
547.231, 720.024
547.714, 720.411
548.196, 720.060
548.678, 718.298
549.160, 715.803
549.642, 713.047
550.124, 707.632
550.606, 706.216
551.088, 710.619
551.570, 719.573
552.053, 729.142
552.535, 740.380
553.017, 748.177
553.499, 748.332
553.981, 741.807
554.463, 737.628
554.945, 735.875
555.427, 735.787
555.909, 736.238
556.392, 737.798
556.874, 742.551
557.356, 753.166
557.838, 762.643
558.320, 760.257
558.802, 751.814
559.284, 750.613
559.766, 769.733
560.249, 791.097
560.731, 806.348
561.213, 815.111
561.695, 821.243
562.177, 820.962
562.659, 821.735
563.141, 828.418
563.623, 846.105
564.106, 858.504
564.588, 862.852
565.070, 864.274
565.552, 870.237
566.034, 881.448
566.516, 894.405
566.998, 910.189
567.480, 926.050
567.963, 930.999
568.445, 925.485
568.927, 923.010
569.409, 936.654
569.891, 957.888
570.373, 970.958
570.855, 974.449
571.337, 974.708
571.819, 976.457
572.302, 977.822
572.784, 976.663
573.266, 973.292
573.748, 966.017
574.230, 953.165
574.712, 935.973
575.194, 917.117
575.676, 895.362
576.158, 873.727
576.641, 852.190
577.123, 830.621
577.605, 813.942
578.087, 805.058
578.569, 795.850
579.051, 778.927
579.533, 753.500
580.015, 737.151
580.497, 732.545
580.980, 732.075
581.462, 726.322
581.944, 716.119
582.426, 704.557
582.908, 691.611
583.390, 679.304
583.872, 670.233
584.354, 663.942
584.836, 658.929
585.319, 655.156
585.801, 651.754
586.283, 648.238
586.765, 644.562
587.247, 640.587
587.729, 635.325
588.211, 630.334
588.693, 626.798
589.176, 626.113
589.658, 624.584
590.140, 621.806
590.622, 618.433
591.104, 615.918
591.586, 614.749
592.068, 611.925
592.550, 605.815
593.032, 597.917
593.515, 592.890
593.997, 590.692
594.479, 589.957
594.961, 590.015
595.443, 590.864
595.925, 593.512
596.407, 598.207
596.890, 600.660
597.372, 595.421
597.854, 587.314
598.336, 581.519
598.818, 580.589
599.300, 580.237
599.782, 580.380
600.264, 580.115
600.746, 577.592
601.229, 569.563
601.711, 563.421
602.193, 560.978
602.675, 561.855
603.157, 562.912
603.639, 564.190
604.121, 565.535
604.603, 567.729
605.085, 570.470
605.568, 569.377
606.050, 564.026
606.532, 557.046
607.014, 549.847
607.496, 543.198
607.978, 538.896
608.460, 538.229
608.942, 538.286
609.424, 536.963
609.907, 534.701
610.389, 532.407
610.871, 528.844
611.353, 526.794
611.835, 527.979
612.317, 532.152
612.799, 535.661
613.281, 539.525
613.763, 541.393
614.246, 539.627
614.728, 533.383
615.210, 529.395
615.692, 528.266
616.174, 527.889
616.656, 526.558
617.138, 524.225
617.620, 519.922
618.103, 512.625
618.585, 505.420
619.067, 501.500
619.549, 500.764
620.031, 502.947
620.513, 513.375
620.995, 522.120
621.477, 520.073
621.959, 509.437
622.442, 500.967
622.924, 498.872
623.406, 499.216
623.888, 500.877
624.370, 504.412
624.852, 505.871
625.334, 504.202
625.816, 501.670
626.299, 499.833
626.781, 498.595
627.263, 498.863
627.745, 501.190
628.227, 503.965
628.709, 505.050
629.191, 504.503
629.673, 502.524
630.156, 498.809
630.638, 494.233
631.120, 488.488
631.602, 482.524
632.084, 479.411
632.566, 483.168
633.048, 488.230
633.530, 491.839
634.012, 493.736
634.495, 493.782
634.977, 489.258
635.459, 485.000
635.941, 484.118
636.423, 489.130
636.905, 489.719
637.387, 483.187
637.869, 476.157
638.351, 477.964
638.834, 488.791
639.316, 495.665
639.798, 495.210
640.280, 491.350
640.762, 488.967
641.244, 488.397
641.726, 490.790
642.208, 501.119
642.690, 511.296
643.173, 513.398
643.655, 508.664
644.137, 504.361
644.619, 502.987
645.101, 503.054
645.583, 504.119
646.065, 506.571
646.547, 507.974
647.029, 507.039
647.512, 506.450
647.994, 508.849
648.476, 515.183
648.958, 518.930
649.440, 518.881
649.922, 517.812
650.404, 520.578
650.886, 526.234
651.369, 529.786
651.851, 528.770
652.333, 526.289
652.815, 526.197
653.297, 527.612
653.779, 528.086
654.261, 524.240
654.743, 521.174
655.226, 522.292
655.708, 527.501
656.190, 531.523
656.672, 533.510
657.154, 534.218
657.636, 533.404
658.118, 530.344
658.600, 530.302
659.083, 534.217
659.565, 538.965
660.047, 541.713
660.529, 542.557
661.011, 542.101
661.493, 540.168
661.975, 537.956
662.457, 537.239
662.939, 537.290
663.422, 536.569
663.904, 533.141
664.386, 530.291
664.868, 529.623
665.350, 530.960
665.832, 533.866
666.314, 540.844
666.796, 546.601
667.278, 549.258
667.761, 548.998
668.243, 549.275
668.725, 550.197
669.207, 551.297
669.689, 552.921
670.171, 554.885
670.653, 553.537
671.135, 548.520
671.617, 543.313
672.100, 540.032
672.582, 539.208
673.064, 543.026
673.546, 553.763
674.028, 562.266
674.510, 560.107
674.992, 553.250
675.474, 549.180
675.956, 551.744
676.439, 555.092
676.921, 559.297
677.403, 563.455
677.885, 565.379
678.367, 563.692
678.849, 563.203
679.331, 565.441
679.813, 569.805
680.296, 574.922
680.778, 580.670
681.260, 584.415
681.742, 582.088
682.224, 577.577
682.706, 577.728
683.188, 582.583
683.670, 588.290
684.153, 593.861
684.635, 598.334
685.117, 600.607
685.599, 599.471
686.081, 599.476
686.563, 601.659
687.045, 605.116
687.527, 609.353
688.010, 614.627
688.492, 620.218
688.974, 627.160
689.456, 632.773
689.938, 630.856
690.420, 622.419
690.902, 617.083
691.384, 618.224
691.866, 623.163
692.349, 630.980
692.831, 639.970
693.313, 645.281
693.795, 639.293
694.277, 633.878
694.759, 635.987
695.241, 645.011
695.723, 653.925
696.205, 664.841
696.688, 672.025
697.170, 671.797
697.652, 663.636
698.134, 662.181
698.616, 669.079
699.098, 677.022
699.580, 679.917
700.062, 678.943
700.544, 679.542
701.027, 682.239
701.509, 685.199
701.991, 686.759
702.473, 687.560
702.955, 688.224
703.437, 688.100
703.919, 689.639
704.401, 694.864
704.883, 701.904
705.366, 708.197
705.848, 713.166
706.330, 718.194
706.812, 724.451
707.294, 730.221
707.776, 730.678
708.258, 725.222
708.740, 721.441
709.222, 722.134
709.705, 725.962
710.187, 729.375
710.669, 733.191
711.151, 741.039
711.633, 760.959
712.115, 781.231
712.597, 790.814
713.080, 790.351
713.562, 792.222
714.044, 802.108
714.526, 813.365
715.008, 822.822
715.490, 830.170
715.972, 837.487
716.454, 844.565
716.936, 851.916
717.419, 859.018
717.901, 866.264
718.383, 877.575
718.865, 893.784
719.347, 911.234
719.829, 930.326
720.311, 947.377
720.793, 955.244
721.276, 946.157
721.758, 941.945
722.240, 957.568
722.722, 982.782
723.204, 1003.812
723.686, 1016.410
724.168, 1028.199
724.650, 1039.966
725.132, 1050.991
725.615, 1059.338
726.097, 1064.518
726.579, 1070.789
727.061, 1079.502
727.543, 1090.155
728.025, 1102.334
728.507, 1115.705
728.989, 1129.207
729.471, 1141.973
729.954, 1154.802
730.436, 1167.288
730.918, 1179.932
731.400, 1195.276
731.882, 1219.075
732.364, 1240.863
732.846, 1254.543
733.328, 1259.625
733.810, 1275.167
734.293, 1305.221
734.775, 1333.822
735.257, 1347.204
735.739, 1348.720
736.221, 1360.107
736.703, 1382.405
737.185, 1404.421
737.667, 1413.170
738.149, 1417.632
738.632, 1430.505
739.114, 1456.620
739.596, 1479.298
740.078, 1491.777
740.560, 1498.014
741.042, 1501.365
741.524, 1500.230
742.006, 1499.202
742.489, 1495.647
742.971, 1495.639
743.453, 1511.307
743.935, 1542.168
744.417, 1562.871
744.899, 1565.413
745.381, 1563.050
745.863, 1573.320
746.346, 1592.278
746.828, 1611.644
747.310, 1627.795
747.792, 1643.665
748.274, 1660.826
748.756, 1678.797
749.238, 1696.212
749.720, 1715.250
750.203, 1730.258
750.685, 1737.110
751.167, 1739.814
751.649, 1753.185
752.131, 1777.858
752.613, 1807.396
753.095, 1840.324
753.577, 1875.148
754.059, 1907.601
754.542, 1938.719
755.024, 1972.516
755.506, 2009.478
755.988, 2051.684
756.470, 2102.461
756.952, 2161.539
757.434, 2221.444
757.916, 2277.986
758.398, 2337.897
758.881, 2404.594
759.363, 2477.669
759.845, 2554.931
760.327, 2636.107
760.809, 2721.503
761.291, 2808.775
761.773, 2900.813
762.255, 3008.624
762.737, 3134.304
763.220, 3259.853
763.702, 3365.981
764.184, 3469.081
764.666, 3586.179
765.148, 3720.738
765.630, 3861.639
766.112, 4002.595
766.594, 4152.766
767.076, 4321.633
767.559, 4517.927
768.041, 4696.780
768.523, 4855.378
769.005, 4997.941
769.487, 5140.092
769.969, 5273.854
770.451, 5367.878
770.933, 5414.051
771.416, 5424.286
771.898, 5407.737
772.380, 5361.784
772.862, 5282.854
773.344, 5143.813
773.826, 5004.756
774.308, 4873.191
774.790, 4746.860
775.273, 4620.031
775.755, 4487.792
776.237, 4374.380
776.719, 4284.813
777.201, 4217.187
777.683, 4170.789
778.165, 4144.806
778.647, 4137.543
779.130, 4150.458
779.612, 4179.201
780.094, 4220.962
780.576, 4275.425
781.058, 4342.585
781.540, 4418.564
782.022, 4512.327
782.504, 4627.434
782.986, 4760.169
783.468, 4902.934
783.951, 5056.538
784.433, 5219.887
784.915, 5389.229
785.397, 5574.915
785.879, 5808.394
786.361, 6082.381
786.843, 6358.987
787.325, 6606.521
787.807, 6854.305
788.290, 7131.044
788.772, 7429.990
789.254, 7725.428
789.736, 8012.708
790.218, 8290.487
790.700, 8556.368
791.182, 8812.836
791.664, 9059.162
792.146, 9304.563
792.629, 9501.287
793.111, 9617.150
793.593, 9667.926
794.075, 9671.322
794.557, 9636.012
795.039, 9629.745
795.521, 9698.771
796.003, 9809.024
796.486, 9935.604
796.968, 10075.900
797.450, 10261.170
797.932, 10493.040
798.414, 10773.440
798.896, 11105.860
799.378, 11490.340
799.860, 11910.220
800.343, 12364.290
800.825, 12863.780
801.307, 13422.900
801.789, 14036.200
802.271, 14697.390
802.753, 15408.940
803.235, 16163.580
803.717, 16964.529
804.200, 17819.160
804.682, 18741.051
805.164, 19744.240
805.646, 20764.869
806.128, 21817.020
806.610, 22866.891
807.092, 23893.160
807.574, 24898.939
808.056, 25859.211
808.539, 26774.961
809.021, 27577.160
809.503, 28272.250
809.985, 28777.590
810.467, 28965.721
810.949, 28823.490
811.431, 28416.980
811.913, 27751.320
812.395, 26841.369
812.878, 25675.721
813.360, 24211.789
813.842, 22678.830
814.324, 21039.029
814.806, 19408.699
815.288, 17834.801
815.770, 16341.370
816.252, 14983.980
816.734, 13769.160
817.217, 12663.090
817.699, 11635.120
818.181, 10706.500
818.663, 9878.867
819.145, 9163.841
819.627, 8508.344
820.109, 7903.287
820.591, 7361.295
821.073, 6898.983
821.556, 6532.252
822.038, 6183.288
822.520, 5849.842
823.002, 5547.886
823.484, 5292.964
823.966, 5079.814
824.448, 4894.936
824.930, 4737.824
825.413, 4592.397
825.895, 4447.210
826.377, 4309.577
826.859, 4184.529
827.341, 4077.410
827.823, 3975.222
828.305, 3874.981
828.787, 3784.934
829.269, 3714.508
829.752, 3662.796
830.234, 3620.796
830.716, 3587.617
831.198, 3561.745
831.680, 3543.234
832.162, 3530.295
832.644, 3520.107
833.127, 3511.213
833.609, 3509.909
834.091, 3517.471
834.573, 3534.626
835.055, 3559.074
835.537, 3583.885
836.019, 3643.447
836.501, 3745.587
836.983, 3859.267
837.466, 3943.001
837.948, 4011.572
838.430, 4111.807
838.912, 4250.475
839.394, 4408.197
839.876, 4571.797
840.358, 4747.197
840.840, 4938.146
841.322, 5138.305
841.805, 5372.684
842.287, 5637.300
842.769, 5939.526
843.251, 6281.214
843.733, 6662.237
844.215, 7089.003
844.697, 7565.297
845.179, 8069.555
845.661, 8573.438
846.144, 9103.026
846.626, 9687.497
847.108, 10328.140
847.590, 11050.800
848.072, 11892.690
848.554, 12804.330
849.036, 13740.700
849.518, 14686.410
850.000, 15754.740
850.483, 16956.789
850.965, 18247.100
851.447, 19573.279
851.929, 20960.131
852.411, 22501.930
852.893, 24208.590
853.375, 26035.340
853.857, 28062.350
854.340, 30115.270
854.822, 32103.350
855.304, 34023.891
855.786, 35832.910
856.268, 37672.359
856.750, 39151.691
857.232, 40092.160
857.714, 40484.410
858.196, 40280.770
858.679, 39473.660
859.161, 38150.941
859.643, 36160.309
860.125, 33812.961
860.607, 31337.580
861.089, 28753.939
861.571, 26253.430
862.054, 23781.000
862.536, 21510.641
863.018, 19477.100
863.500, 17688.150
863.982, 16081.460
864.464, 14667.530
864.946, 13404.050
865.428, 12302.570
865.910, 11340.820
866.393, 10463.050
866.875, 9674.768
867.357, 8958.037
867.839, 8324.364
868.321, 7762.593
868.803, 7274.401
869.285, 6860.100
869.767, 6474.160
870.249, 6112.883
870.732, 5779.877
871.214, 5476.316
871.696, 5201.148
872.178, 4955.006
872.660, 4735.950
873.142, 4533.045
873.624, 4337.573
874.106, 4155.791
874.588, 3993.204
875.071, 3848.445
875.553, 3713.364
876.035, 3582.919
876.517, 3467.806
876.999, 3375.852
877.481, 3298.032
877.963, 3211.331
878.445, 3115.920
878.927, 3021.104
879.410, 2928.823
879.892, 2842.368
880.374, 2766.236
880.856, 2699.227
881.338, 2639.043
881.820, 2591.907
882.302, 2542.799
882.784, 2488.498
883.266, 2430.799
883.749, 2370.269
884.231, 2304.881
884.713, 2249.195
885.195, 2205.781
885.677, 2171.485
886.159, 2148.047
886.641, 2128.871
887.123, 2099.019
887.606, 2050.123
888.088, 2002.625
888.570, 1965.809
889.052, 1935.495
889.534, 1907.766
890.016, 1883.761
890.498, 1858.368
890.980, 1830.826
891.463, 1802.988
891.945, 1775.446
892.427, 1749.310
892.909, 1728.165
893.391, 1712.674
893.873, 1696.719
894.355, 1675.571
894.837, 1652.215
895.320, 1628.696
895.802, 1604.367
896.284, 1583.090
896.766, 1565.313
897.248, 1549.412
897.730, 1535.931
898.212, 1523.887
898.694, 1503.401
899.176, 1475.361
899.659, 1451.429
900.141, 1445.111
900.623, 1442.229
901.105, 1431.102
901.587, 1411.594
902.069, 1394.613
902.551, 1382.036
903.033, 1370.460
903.515, 1358.395
903.998, 1346.384
904.480, 1338.617
904.962, 1334.596
905.444, 1328.547
905.926, 1315.689
906.408, 1301.102
906.890, 1288.883
907.372, 1278.617
907.854, 1269.063
908.337, 1262.247
908.819, 1252.740
909.301, 1237.721
909.783, 1221.098
910.265, 1211.891
910.747, 1209.925
911.229, 1208.116
911.711, 1205.056
912.193, 1200.345
912.676, 1192.607
913.158, 1183.236
913.640, 1174.226
914.122, 1163.719
914.604, 1157.882
915.086, 1163.522
915.568, 1168.983
916.050, 1160.025
916.533, 1135.110
917.015, 1118.679
917.497, 1113.086
917.979, 1112.246
918.461, 1112.021
918.943, 1111.908
919.425, 1111.249
919.907, 1109.935
920.390, 1108.169
920.872, 1106.534
921.354, 1103.873
921.836, 1099.461
922.318, 1093.217
922.800, 1085.573
923.282, 1076.059
923.764, 1069.857
924.247, 1075.125
924.729, 1083.388
925.211, 1081.938
925.693, 1071.824
926.175, 1061.894
926.657, 1053.525
927.139, 1048.405
927.621, 1049.624
928.103, 1054.246
928.586, 1049.897
929.068, 1035.573
929.550, 1022.213
930.032, 1012.435
930.514, 1007.319
930.996, 1014.172
931.478, 1026.303
931.960, 1028.821
932.442, 1005.250
932.925, 985.301
933.407, 978.169
933.889, 977.096
934.371, 973.663
934.853, 967.257
935.335, 964.567
935.817, 967.609
936.299, 969.440
936.781, 957.683
937.264, 941.045
937.746, 935.371
938.228, 947.343
938.710, 952.221
939.192, 931.389
939.674, 909.620
940.156, 902.791
940.638, 912.567
941.120, 917.732
941.603, 918.052
942.085, 916.523
942.567, 918.046
943.049, 917.530
943.531, 903.882
944.013, 879.435
944.495, 862.232
944.977, 869.549
945.460, 873.159
945.942, 861.071
946.424, 838.305
946.906, 824.887
947.388, 820.994
947.870, 819.214
948.352, 817.895
948.834, 815.823
949.317, 811.308
949.799, 804.921
950.281, 797.779
950.763, 788.019
951.245, 780.699
951.727, 777.392
952.209, 775.903
952.691, 774.426
953.173, 773.016
953.656, 767.416
954.138, 756.570
954.620, 745.858
955.102, 742.479
955.584, 740.914
956.066, 733.631
956.548, 718.031
957.030, 707.034
957.513, 707.127
957.995, 706.815
958.477, 699.634
958.959, 686.545
959.441, 675.817
959.923, 667.564
960.405, 664.809
960.887, 676.988
961.369, 689.167
961.852, 685.072
962.334, 669.023
962.816, 657.507
963.298, 657.691
963.780, 655.763
964.262, 648.634
964.744, 638.770
965.226, 630.158
965.708, 623.171
966.191, 620.188
966.673, 622.602
967.155, 626.829
967.637, 632.513
968.119, 637.215
968.601, 637.652
969.083, 630.318
969.565, 626.063
970.047, 625.628
970.530, 626.458
971.012, 625.965
971.494, 624.948
971.976, 626.663
972.458, 631.135
972.940, 635.705
973.422, 642.019
973.904, 645.106
974.386, 639.875
974.869, 627.419
975.351, 618.572
975.833, 613.555
976.315, 611.615
976.797, 613.637
977.279, 617.194
977.761, 618.270
978.244, 617.126
978.726, 614.397
979.208, 608.006
979.690, 603.284
980.172, 602.269
980.654, 603.805
981.136, 607.380
981.618, 613.947
982.100, 616.327
982.583, 613.832
983.065, 608.282
983.547, 599.751
984.029, 590.242
984.511, 582.478
984.993, 576.849
985.475, 571.404
985.957, 565.785
986.440, 559.959
986.922, 553.549
987.404, 546.860
987.886, 542.089
988.368, 539.217
988.850, 537.109
989.332, 534.981
989.814, 533.592
990.296, 536.437
990.779, 540.194
991.261, 537.430
991.743, 518.246
992.225, 506.678
992.707, 506.952
993.189, 512.034
993.671, 512.392
994.153, 509.256
994.635, 508.032
995.118, 509.799
995.600, 510.727
996.082, 506.997
996.564, 502.259
997.046, 499.477
997.528, 498.956
998.010, 497.902
998.492, 496.010
998.974, 494.686
999.457, 495.121
999.939, 496.347
1000.421, 496.688
1000.903, 496.100
1001.385, 494.419
1001.867, 489.497
1002.349, 485.988
1002.831, 488.339
1003.314, 491.407
1003.796, 485.542
1004.278, 469.711
1004.760, 459.951
1005.242, 458.769
1005.724, 462.871
1006.206, 473.915
1006.688, 485.481
1007.170, 488.777
1007.653, 480.507
1008.135, 476.161
1008.617, 480.132
1009.099, 484.055
1009.581, 482.539
1010.063, 477.463
1010.545, 480.372
1011.027, 489.851
1011.510, 497.162
1011.992, 494.970
1012.474, 491.538
1012.956, 492.008
1013.438, 494.905
1013.920, 496.469
1014.402, 495.556
1014.884, 496.689
1015.366, 501.059
1015.849, 505.853
1016.331, 506.567
1016.813, 505.323
1017.295, 506.928
1017.777, 512.630
1018.259, 516.455
1018.741, 513.534
1019.223, 510.596
1019.706, 511.647
1020.188, 516.219
1020.670, 517.089
1021.152, 514.235
1021.634, 512.037
1022.116, 513.448
1022.598, 515.935
1023.080, 517.570
1023.562, 518.271
1024.045, 517.808
1024.527, 514.933
1025.009, 512.804
1025.491, 511.644
1025.973, 511.323
1026.455, 511.601
1026.937, 512.584
1027.419, 515.995
1027.901, 522.310
1028.384, 524.532
1028.866, 514.138
1029.348, 501.987
1029.830, 493.852
1030.312, 489.893
1030.794, 492.545
1031.276, 502.639
1031.758, 513.268
1032.240, 523.684
1032.723, 530.041
1033.205, 523.741
1033.687, 510.038
1034.169, 499.139
1034.651, 493.372
1035.133, 492.621
1035.615, 499.379
1036.097, 507.402
1036.580, 508.741
1037.062, 504.961
1037.544, 507.569
1038.026, 517.312
1038.508, 525.329
1038.990, 526.494
1039.472, 522.873
1039.954, 512.521
1040.437, 497.306
1040.919, 492.003
1041.401, 499.256
1041.883, 504.556
1042.365, 502.498
1042.847, 497.989
1043.329, 499.365
1043.811, 503.801
1044.293, 505.966
1044.776, 503.118
1045.258, 500.615
1045.740, 499.302
1046.222, 498.817
1046.704, 498.736
1047.186, 499.129
1047.668, 503.134
1048.150, 510.244
1048.632, 512.317
1049.115, 496.502
1049.597, 480.567
1050.079, 477.612
1050.561, 485.192
1051.043, 491.522
1051.525, 496.098
1052.007, 500.674
1052.489, 506.195
1052.972, 510.106
1053.454, 506.690
1053.936, 499.913
1054.418, 497.165
1054.900, 501.121
1055.382, 502.735
1055.864, 494.928
1056.346, 489.794
1056.828, 495.038
1057.311, 508.434
1057.793, 515.031
1058.275, 515.189
1058.757, 511.928
1059.239, 502.599
1059.721, 494.838
1060.203, 496.134
1060.685, 501.432
1061.167, 500.820
1061.650, 491.385
1062.132, 485.932
1062.614, 486.117
1063.096, 487.511
1063.578, 483.936
1064.060, 479.482
1064.542, 482.207
1065.024, 492.345
1065.507, 497.219
1065.989, 489.530
1066.471, 480.248
1066.953, 471.347
1067.435, 463.632
1067.917, 460.500
1068.399, 460.975
1068.881, 460.542
1069.364, 457.715
1069.846, 453.784
1070.328, 448.868
1070.810, 443.646
1071.292, 438.734
1071.774, 433.999
1072.256, 430.463
1072.738, 428.308
1073.220, 425.944
1073.703, 422.983
1074.185, 418.731
1074.667, 410.801
1075.149, 400.715
1075.631, 393.892
1076.113, 395.790
1076.595, 393.884
1077.077, 385.509
1077.559, 374.883
1078.042, 368.065
1078.524, 364.089
1079.006, 359.672
1079.488, 354.197
1079.970, 351.101
1080.452, 355.634
1080.934, 359.533
1081.416, 358.720
1081.898, 353.634
1082.381, 345.274
1082.863, 333.798
1083.345, 325.809
1083.827, 324.541
1084.309, 326.535
1084.791, 331.271
1085.273, 336.195
1085.755, 337.474
1086.238, 333.036
1086.720, 330.010
1087.202, 329.169
1087.684, 327.026
1088.166, 317.924
1088.648, 306.992
1089.130, 305.119
1089.612, 310.444
1090.094, 313.263
1090.577, 308.502
1091.059, 302.544
1091.541, 295.572
1092.023, 289.411
1092.505, 286.589
1092.987, 287.086
1093.469, 292.189
1093.951, 302.746
1094.433, 310.401
1094.916, 308.427
1095.398, 302.767
1095.880, 295.682
1096.362, 287.966
1096.844, 287.731
1097.326, 295.397
1097.808, 300.568
1098.290, 298.315
1098.773, 293.337
1099.255, 289.553
1099.737, 286.924
1100.219, 285.581
1100.701, 286.362
1101.183, 286.147
1101.665, 284.060
1102.147, 283.575
1102.630, 289.219
1103.112, 297.527
1103.594, 302.338
1104.076, 303.588
1104.558, 301.794
1105.040, 292.987
1105.522, 286.732
1106.004, 285.598
1106.486, 286.984
1106.969, 287.420
1107.451, 287.027
1107.933, 286.320
1108.415, 285.365
1108.897, 284.327
1109.379, 282.169
1109.861, 281.110
1110.343, 283.021
1110.825, 287.178
1111.308, 290.207
1111.790, 292.051
1112.272, 295.219
1112.754, 301.764
1113.236, 306.898
1113.718, 306.458
1114.200, 301.550
1114.682, 291.750
1115.165, 273.360
1115.647, 267.319
1116.129, 276.371
1116.611, 287.302
1117.093, 293.132
1117.575, 294.849
1118.057, 291.956
1118.539, 286.365
1119.021, 283.118
1119.504, 287.173
1119.986, 288.479
1120.468, 284.561
1120.950, 280.351
1121.432, 282.920
1121.914, 289.550
1122.396, 290.738
1122.878, 286.407
1123.360, 283.753
1123.843, 288.588
1124.325, 293.272
1124.807, 294.561
1125.289, 294.004
1125.771, 295.533
1126.253, 298.820
1126.735, 300.534
1127.217, 299.699
1127.700, 298.801
1128.182, 300.964
1128.664, 302.785
1129.146, 300.845
1129.628, 295.459
1130.110, 291.766
1130.592, 289.822
1131.074, 288.729
1131.557, 288.250
1132.039, 288.239
1132.521, 287.349
1133.003, 287.332
1133.485, 291.305
1133.967, 303.271
1134.449, 309.045
1134.931, 307.710
1135.413, 303.945
1135.896, 299.474
1136.378, 295.772
1136.860, 295.991
1137.342, 299.067
1137.824, 301.604
1138.306, 302.674
1138.788, 302.564
1139.270, 300.006
1139.752, 298.651
1140.235, 305.677
1140.717, 316.641
1141.199, 319.427
1141.681, 313.435
1142.163, 306.613
1142.645, 300.081
1143.127, 296.554
1143.609, 297.901
1144.092, 301.731
1144.574, 303.125
1145.056, 302.293
1145.538, 299.120
1146.020, 292.675
1146.502, 289.816
1146.984, 300.466
1147.466, 310.678
1147.948, 310.994
1148.431, 302.927
1148.913, 297.984
1149.395, 296.053
1149.877, 296.018
1150.359, 298.837
1150.841, 300.617
1151.323, 296.621
1151.805, 291.019
1152.287, 288.945
1152.770, 291.380
1153.252, 290.939
1153.734, 287.244
1154.216, 285.051
1154.698, 289.395
1155.180, 295.049
1155.662, 296.883
1156.144, 296.096
1156.626, 295.355
1157.109, 295.248
1157.591, 294.470
1158.073, 293.053
1158.555, 290.556
1159.037, 284.924
1159.519, 279.013
1160.001, 277.195
1160.483, 278.947
1160.966, 280.076
1161.448, 279.200
1161.930, 279.297
1162.412, 281.536
1162.894, 283.276
1163.376, 280.226
1163.858, 274.306
1164.340, 267.593
1164.823, 260.203
1165.305, 259.248
1165.787, 274.211
1166.269, 283.260
1166.751, 277.322
1167.233, 264.490
1167.715, 262.486
1168.197, 267.931
1168.679, 272.129
1169.161, 273.003
1169.644, 272.320
1170.126, 269.511
1170.608, 266.477
1171.090, 263.470
1171.572, 261.134
1172.054, 263.712
1172.536, 269.656
1173.018, 272.417
1173.501, 267.437
1173.983, 262.418
1174.465, 259.597
1174.947, 258.699
1175.429, 260.575
1175.911, 264.925
1176.393, 264.752
1176.875, 260.674
1177.358, 257.579
1177.840, 260.157
1178.322, 262.273
1178.804, 259.598
1179.286, 255.586
1179.768, 255.100
1180.250, 258.162
1180.732, 258.507
1181.214, 255.811
1181.697, 252.983
1182.179, 251.444
1182.661, 251.005
1183.143, 251.554
1183.625, 253.154
1184.107, 256.981
1184.589, 263.371
1185.071, 265.190
1185.553, 261.400
1186.036, 253.996
1186.518, 239.839
1187.000, 226.863
1187.482, 222.895
1187.964, 226.334
1188.446, 228.324
1188.928, 228.629
1189.410, 230.711
1189.893, 236.065
1190.375, 240.674
1190.857, 238.940
1191.339, 235.510
1191.821, 235.881
1192.303, 240.307
1192.785, 239.039
1193.267, 231.048
1193.750, 225.843
1194.232, 228.274
1194.714, 231.816
1195.196, 228.816
1195.678, 222.872
1196.160, 218.051
1196.642, 214.543
1197.124, 214.443
1197.606, 218.491
1198.089, 221.087
1198.571, 217.702
1199.053, 213.419
1199.535, 216.954
1200.017, 222.888
1200.499, 221.421
1200.981, 205.624
1201.463, 199.656
1201.945, 205.342
1202.428, 211.760
1202.910, 210.657
1203.392, 206.458
1203.874, 204.361
1204.356, 203.575
1204.838, 202.043
1205.320, 198.617
1205.802, 196.579
1206.285, 196.158
1206.767, 196.746
1207.249, 199.649
1207.731, 201.965
1208.213, 198.098
1208.695, 189.997
1209.177, 186.504
1209.659, 190.775
1210.141, 193.714
1210.624, 194.524
1211.106, 192.932
1211.588, 185.130
1212.070, 176.979
1212.552, 178.235
1213.034, 187.863
1213.516, 191.100
1213.998, 183.344
1214.480, 179.011
1214.963, 181.169
1215.445, 186.167
1215.927, 192.165
1216.409, 196.621
1216.891, 194.809
1217.373, 186.379
1217.855, 181.178
1218.337, 181.045
1218.820, 180.214
1219.302, 176.702
1219.784, 172.999
1220.266, 172.136
1220.748, 173.505
1221.230, 177.855
1221.712, 186.042
1222.194, 185.930
1222.677, 173.570
1223.159, 165.364
1223.641, 168.510
1224.123, 176.017
1224.605, 179.069
1225.087, 179.456
1225.569, 179.512
1226.051, 179.563
1226.533, 179.567
1227.016, 179.441
1227.498, 179.671
1227.980, 181.005
1228.462, 182.031
1228.944, 180.101
1229.426, 176.789
1229.908, 174.316
1230.390, 172.631
1230.872, 174.065
1231.355, 179.490
1231.837, 183.837
1232.319, 183.608
1232.801, 181.306
1233.283, 178.830
1233.765, 176.952
1234.247, 177.492
1234.729, 182.782
1235.212, 183.265
1235.694, 178.079
1236.176, 173.253
1236.658, 173.400
1237.140, 175.749
1237.622, 178.923
1238.104, 181.594
1238.586, 180.634
1239.068, 174.194
1239.551, 170.945
1240.033, 171.421
1240.515, 172.553
1240.997, 171.092
1241.479, 170.012
1241.961, 174.077
1242.443, 180.251
1242.925, 181.041
1243.407, 174.835
1243.890, 170.669
1244.372, 169.206
1244.854, 168.848
1245.336, 168.517
1245.818, 168.565
1246.300, 170.441
1246.782, 172.630
1247.264, 170.714
1247.746, 163.893
1248.229, 160.761
1248.711, 162.296
1249.193, 165.566
1249.675, 170.314
1250.157, 174.028
1250.639, 173.723
1251.121, 171.320
1251.603, 171.544
1252.086, 174.455
1252.568, 176.642
1253.050, 177.684
1253.532, 177.271
1254.014, 173.887
1254.496, 170.222
1254.978, 167.749
1255.460, 166.269
1255.943, 164.799
1256.425, 163.633
1256.907, 167.361
1257.389, 177.216
1257.871, 183.012
1258.353, 171.623
1258.835, 161.889
1259.317, 164.576
1259.799, 174.299
1260.281, 177.443
1260.764, 175.328
1261.246, 173.834
1261.728, 174.035
1262.210, 174.956
1262.692, 176.528
1263.174, 178.256
1263.656, 179.830
1264.138, 181.523
1264.621, 184.833
1265.103, 188.719
1265.585, 189.889
1266.067, 187.439
1266.549, 184.165
1267.031, 178.858
1267.513, 176.230
1267.995, 179.164
1268.478, 183.985
1268.960, 182.367
1269.442, 176.965
1269.924, 173.194
1270.406, 172.026
1270.888, 173.497
1271.370, 179.266
1271.852, 183.096
1272.334, 181.949
1272.817, 178.643
1273.299, 177.327
1273.781, 177.496
1274.263, 178.406
1274.745, 180.023
1275.227, 182.154
1275.709, 185.024
1276.191, 187.684
1276.673, 190.209
1277.156, 191.508
1277.638, 188.093
1278.120, 183.721
1278.602, 184.275
1279.084, 191.319
1279.566, 192.525
1280.048, 187.105
1280.530, 183.794
1281.013, 187.444
1281.495, 191.965
1281.977, 191.399
1282.459, 188.650
1282.941, 186.634
1283.423, 185.453
1283.905, 185.417
1284.387, 186.468
1284.870, 186.998
1285.352, 185.719
1285.834, 185.033
1286.316, 187.843
1286.798, 190.713
1287.280, 190.392
1287.762, 187.431
1288.244, 187.240
1288.726, 189.344
1289.208, 191.432
1289.691, 193.598
1290.173, 193.414
1290.655, 185.844
1291.137, 180.128
1291.619, 182.858
1292.101, 191.457
1292.583, 197.296
1293.065, 200.426
1293.548, 200.403
1294.030, 193.753
1294.512, 191.932
##END=



