##NAMES=Lamprophyllite
##RRUFFID=R070284
##IDEAL CHEMISTRY=(SrNa)Ti^4+^_2_Na_3_Ti^4+^(Si_2_O_7_)_2_O_2_(OH)_2_
##LOCALITY=Lovozero Massif,  Kola Peninsula,  Murmanskaja Oblast',  Northern Region,  Russia
##OWNER=RRUFF
##SOURCE=Michael Scott
##DESCRIPTION=Stellate groups of transparent brown bladed crystals
##STATUS=The identification of this mineral has been confirmed by X-ray diffraction and chemical analysis
##URL=rruff.info/R070284
##MEASURED CHEMISTRY=(Na_2.35_Mn_0.36_Mg_0.17_Ca_0.12_)(Sr_1.08_Na_0.35_K_0.09_Ba_0.01_)(Ti_2.80_Fe_0.26_Al_0.02_)Si_3.87_O_16_[(OH)_1.14_F_0.86_]
151.8749, 4739.292
152.3570, 4764.998
152.8391, 4779.807
153.3212, 4813.626
153.8033, 4868.543
154.2855, 4938.030
154.7676, 5022.645
155.2497, 5119.724
155.7318, 5216.430
156.2139, 5309.874
156.6960, 5402.495
157.1782, 5494.638
157.6603, 5584.949
158.1424, 5682.641
158.6245, 5789.557
159.1066, 5908.644
159.5887, 6052.221
160.0709, 6233.322
160.5530, 6436.708
161.0351, 6635.735
161.5172, 6823.671
161.9993, 7027.189
162.4814, 7270.875
162.9636, 7542.266
163.4457, 7828.903
163.9278, 8119.450
164.4099, 8423.139
164.8920, 8757.549
165.3741, 9129.097
165.8563, 9511.909
166.3384, 9894.335
166.8205, 10276.10
167.3026, 10658.54
167.7847, 11058.52
168.2668, 11455.87
168.7490, 11821.12
169.2311, 12181.96
169.7132, 12443.54
170.1953, 12554.63
170.6774, 12546.33
171.1595, 12454.06
171.6417, 12286.80
172.1238, 12048.86
172.6059, 11746.20
173.0880, 11364.57
173.5701, 10940.85
174.0522, 10468.87
174.5344, 9972.099
175.0165, 9488.658
175.4986, 9028.654
175.9807, 8596.076
176.4628, 8195.466
176.9449, 7825.345
177.4271, 7494.465
177.9092, 7208.282
178.3913, 6956.255
178.8734, 6725.286
179.3555, 6505.439
179.8376, 6302.578
180.3197, 6133.912
180.8019, 6014.970
181.2840, 5905.215
181.7661, 5794.088
182.2482, 5681.835
182.7303, 5566.327
183.2124, 5442.447
183.6946, 5320.954
184.1767, 5235.242
184.6588, 5205.327
185.1409, 5179.229
185.6230, 5135.617
186.1051, 5089.905
186.5873, 5061.183
187.0694, 5059.978
187.5515, 5076.196
188.0336, 5082.962
188.5157, 5074.555
188.9978, 5065.901
189.4800, 5056.138
189.9621, 5049.481
190.4442, 5050.788
190.9263, 5062.513
191.4084, 5081.683
191.8905, 5101.152
192.3727, 5120.010
192.8548, 5141.178
193.3369, 5159.559
193.8190, 5182.546
194.3011, 5220.003
194.7832, 5276.077
195.2654, 5341.105
195.7475, 5391.768
196.2296, 5412.501
196.7117, 5449.508
197.1938, 5518.422
197.6759, 5597.989
198.1581, 5665.954
198.6402, 5715.541
199.1223, 5762.649
199.6044, 5839.815
200.0865, 5969.457
200.5686, 6085.149
201.0508, 6175.165
201.5329, 6255.673
202.0150, 6334.641
202.4971, 6415.706
202.9792, 6501.777
203.4613, 6597.607
203.9435, 6703.551
204.4256, 6819.184
204.9077, 6950.502
205.3898, 7085.818
205.8719, 7215.970
206.3540, 7339.836
206.8362, 7464.322
207.3183, 7601.600
207.8004, 7758.626
208.2825, 7908.054
208.7646, 8032.400
209.2467, 8163.319
209.7289, 8328.699
210.2110, 8525.497
210.6931, 8722.344
211.1752, 8878.458
211.6573, 8976.296
212.1395, 9094.864
212.6216, 9257.167
213.1037, 9418.443
213.5858, 9562.474
214.0679, 9685.175
214.5500, 9787.015
215.0322, 9868.308
215.5143, 9928.904
215.9964, 9966.942
216.4785, 9968.375
216.9606, 9960.855
217.4427, 9953.280
217.9249, 9945.521
218.4070, 9934.623
218.8891, 9920.504
219.3712, 9903.749
219.8533, 9861.982
220.3354, 9777.223
220.8176, 9683.100
221.2997, 9584.406
221.7818, 9483.082
222.2639, 9380.945
222.7460, 9280.656
223.2281, 9180.622
223.7103, 9072.744
224.1924, 8951.151
224.6745, 8826.742
225.1566, 8693.438
225.6387, 8560.047
226.1208, 8440.783
226.6030, 8345.821
227.0851, 8267.724
227.5672, 8174.150
228.0493, 8040.647
228.5314, 7924.542
229.0135, 7840.043
229.4957, 7775.484
229.9778, 7718.103
230.4599, 7662.244
230.9420, 7609.609
231.4241, 7565.325
231.9062, 7539.593
232.3884, 7504.528
232.8705, 7438.460
233.3526, 7372.715
233.8347, 7335.934
234.3168, 7337.361
234.7989, 7361.354
235.2811, 7380.292
235.7632, 7386.097
236.2453, 7407.012
236.7274, 7452.323
237.2095, 7506.729
237.6916, 7563.474
238.1738, 7619.927
238.6559, 7673.449
239.1380, 7718.212
239.6201, 7748.717
240.1022, 7791.520
240.5843, 7862.544
241.0665, 7933.726
241.5486, 7990.318
242.0307, 8033.055
242.5128, 8072.807
242.9949, 8116.761
243.4770, 8164.046
243.9592, 8227.824
244.4413, 8330.165
244.9234, 8429.487
245.4055, 8511.755
245.8876, 8578.457
246.3697, 8635.897
246.8519, 8687.865
247.3340, 8734.808
247.8161, 8778.054
248.2982, 8818.750
248.7803, 8853.659
249.2624, 8884.910
249.7446, 8910.027
250.2267, 8924.105
250.7088, 8922.693
251.1909, 8910.697
251.6730, 8904.614
252.1551, 8914.819
252.6373, 8908.756
253.1194, 8872.240
253.6015, 8817.927
254.0836, 8756.453
254.5657, 8690.025
255.0478, 8624.140
255.5300, 8569.145
256.0121, 8529.101
256.4942, 8485.020
256.9763, 8427.705
257.4584, 8366.470
257.9406, 8303.857
258.4227, 8240.098
258.9048, 8184.982
259.3869, 8157.462
259.8690, 8159.566
260.3511, 8138.726
260.8333, 8061.188
261.3154, 7978.060
261.7975, 7926.644
262.2796, 7907.312
262.7617, 7895.901
263.2438, 7875.326
263.7260, 7847.646
264.2081, 7825.050
264.6902, 7809.031
265.1723, 7798.305
265.6544, 7793.279
266.1365, 7792.513
266.6187, 7791.423
267.1008, 7783.464
267.5829, 7774.500
268.0650, 7777.129
268.5471, 7792.694
269.0292, 7816.327
269.5114, 7850.705
269.9935, 7890.401
270.4756, 7926.573
270.9577, 7956.716
271.4398, 7982.576
271.9219, 8002.935
272.4041, 8017.506
272.8862, 8039.144
273.3683, 8081.447
273.8504, 8131.404
274.3325, 8163.936
274.8146, 8171.944
275.2968, 8173.333
275.7789, 8181.243
276.2610, 8193.021
276.7431, 8198.242
277.2252, 8194.141
277.7073, 8180.115
278.1895, 8150.526
278.6716, 8099.372
279.1537, 8062.362
279.6358, 8068.495
280.1179, 8093.618
280.6000, 8094.746
281.0822, 8060.907
281.5643, 8011.837
282.0464, 7965.724
282.5285, 7921.886
283.0106, 7892.879
283.4927, 7899.378
283.9749, 7909.196
284.4570, 7888.570
284.9391, 7836.694
285.4212, 7781.492
285.9033, 7744.962
286.3854, 7727.510
286.8676, 7711.643
287.3497, 7705.960
287.8318, 7693.473
288.3139, 7659.851
288.7960, 7612.037
289.2781, 7568.659
289.7603, 7539.947
290.2424, 7523.514
290.7245, 7510.345
291.2066, 7494.853
291.6887, 7489.080
292.1708, 7500.002
292.6530, 7519.841
293.1351, 7538.465
293.6172, 7552.378
294.0993, 7566.278
294.5814, 7589.353
295.0635, 7634.964
295.5457, 7663.644
296.0278, 7654.714
296.5099, 7644.844
296.9920, 7663.292
297.4741, 7710.894
297.9562, 7765.140
298.4384, 7800.496
298.9205, 7810.674
299.4026, 7847.170
299.8847, 7932.579
300.3668, 8020.803
300.8489, 8092.573
301.3310, 8155.158
301.8131, 8227.565
302.2953, 8324.546
302.7774, 8439.190
303.2595, 8534.879
303.7416, 8593.414
304.2237, 8659.385
304.7058, 8744.266
305.1880, 8839.354
305.6701, 8935.131
306.1522, 9028.023
306.6343, 9121.622
307.1164, 9221.117
307.5985, 9325.407
308.0807, 9438.352
308.5628, 9562.595
309.0449, 9694.604
309.5270, 9840.100
310.0091, 9996.889
310.4912, 10140.67
310.9734, 10239.13
311.4555, 10298.12
311.9376, 10382.93
312.4197, 10514.20
312.9018, 10648.30
313.3839, 10754.62
313.8661, 10842.24
314.3482, 10933.63
314.8303, 11042.84
315.3124, 11160.35
315.7945, 11269.67
316.2766, 11369.89
316.7588, 11466.64
317.2409, 11563.09
317.7230, 11656.72
318.2051, 11742.92
318.6872, 11818.85
319.1693, 11890.38
319.6515, 11958.61
320.1336, 12024.64
320.6157, 12096.70
321.0978, 12181.17
321.5799, 12266.27
322.0620, 12335.69
322.5442, 12391.05
323.0263, 12429.77
323.5084, 12445.38
323.9905, 12446.52
324.4726, 12441.65
324.9547, 12432.24
325.4369, 12423.86
325.9190, 12423.45
326.4011, 12432.13
326.8832, 12430.44
327.3653, 12399.78
327.8474, 12376.07
328.3296, 12381.91
328.8117, 12412.16
329.2938, 12448.05
329.7759, 12478.11
330.2580, 12506.35
330.7401, 12550.00
331.2223, 12625.76
331.7044, 12696.61
332.1865, 12761.96
332.6686, 12819.27
333.1507, 12858.50
333.6328, 12878.80
334.1150, 12901.68
334.5971, 12963.34
335.0792, 13086.60
335.5613, 13186.03
336.0434, 13235.67
336.5255, 13287.11
337.0077, 13378.78
337.4898, 13498.49
337.9719, 13601.52
338.4540, 13646.55
338.9361, 13641.94
339.4182, 13664.35
339.9004, 13734.09
340.3825, 13801.56
340.8646, 13864.42
341.3467, 13912.98
341.8288, 13930.13
342.3109, 13905.64
342.7931, 13866.78
343.2752, 13860.46
343.7573, 13894.22
344.2394, 13905.73
344.7215, 13860.98
345.2036, 13803.28
345.6858, 13769.98
346.1679, 13762.18
346.6500, 13750.52
347.1321, 13718.03
347.6142, 13667.64
348.0963, 13602.52
348.5785, 13516.68
349.0606, 13435.30
349.5427, 13384.52
350.0248, 13354.89
350.5069, 13319.27
350.9890, 13283.23
351.4712, 13231.14
351.9533, 13134.73
352.4354, 13004.20
352.9175, 12892.65
353.3996, 12825.94
353.8817, 12792.61
354.3639, 12766.27
354.8460, 12751.79
355.3281, 12732.82
355.8102, 12697.99
356.2923, 12660.31
356.7744, 12633.57
357.2566, 12621.04
357.7387, 12622.70
358.2208, 12639.32
358.7029, 12673.11
359.1850, 12711.55
359.6671, 12761.00
360.1493, 12807.98
360.6314, 12837.06
361.1135, 12859.25
361.5956, 12899.19
362.0777, 12972.78
362.5598, 13071.00
363.0420, 13161.58
363.5241, 13240.91
364.0062, 13317.80
364.4883, 13380.40
364.9704, 13449.09
365.4525, 13542.26
365.9347, 13662.84
366.4168, 13799.53
366.8989, 13944.33
367.3810, 14099.68
367.8631, 14240.48
368.3452, 14363.16
368.8274, 14473.53
369.3095, 14572.33
369.7916, 14662.78
370.2737, 14752.25
370.7558, 14848.28
371.2379, 14942.06
371.7201, 15019.36
372.2022, 15080.13
372.6843, 15124.17
373.1664, 15150.85
373.6485, 15158.85
374.1306, 15152.33
374.6128, 15135.26
375.0949, 15089.65
375.5770, 15008.66
376.0591, 14892.35
376.5412, 14740.13
377.0233, 14551.50
377.5055, 14329.61
377.9876, 14076.81
378.4697, 13790.59
378.9518, 13472.14
379.4339, 13093.29
379.9160, 12708.42
380.3982, 12353.07
380.8803, 12020.65
381.3624, 11690.57
381.8445, 11350.34
382.3266, 11009.20
382.8087, 10689.21
383.2909, 10405.64
383.7730, 10128.40
384.2551, 9845.860
384.7372, 9576.940
385.2193, 9331.310
385.7014, 9113.602
386.1836, 8928.751
386.6657, 8787.682
387.1478, 8693.627
387.6299, 8591.391
388.1120, 8469.210
388.5941, 8351.579
389.0763, 8235.622
389.5584, 8131.837
390.0405, 8058.777
390.5226, 8026.485
391.0047, 8019.318
391.4868, 8021.046
391.9690, 8035.144
392.4511, 8023.140
392.9332, 7955.812
393.4153, 7874.961
393.8974, 7826.895
394.3795, 7811.371
394.8617, 7782.679
395.3438, 7714.119
395.8259, 7619.763
396.3080, 7519.451
396.7901, 7414.712
397.2722, 7309.813
397.7544, 7207.852
398.2365, 7108.489
398.7186, 7007.645
399.2007, 6904.476
399.6828, 6801.890
400.1649, 6693.337
400.6471, 6588.079
401.1292, 6502.956
401.6113, 6443.163
402.0934, 6397.380
402.5755, 6348.393
403.0576, 6293.996
403.5398, 6243.912
404.0219, 6199.885
404.5040, 6157.431
404.9861, 6109.309
405.4682, 6060.521
405.9503, 6023.413
406.4325, 6006.089
406.9146, 6005.358
407.3967, 6011.849
407.8788, 6031.890
408.3609, 6046.000
408.8430, 6051.515
409.3252, 6049.570
409.8073, 6036.589
410.2894, 6013.374
410.7715, 5993.625
411.2536, 5992.396
411.7357, 6005.794
412.2179, 6013.043
412.7000, 6010.057
413.1821, 6007.488
413.6642, 6011.496
414.1463, 6021.283
414.6284, 6037.173
415.1106, 6069.514
415.5927, 6095.489
416.0748, 6091.129
416.5569, 6065.916
417.0390, 6050.784
417.5211, 6057.877
418.0033, 6073.003
418.4854, 6075.999
418.9675, 6065.262
419.4496, 6045.563
419.9317, 6007.309
420.4138, 5968.154
420.8960, 5938.760
421.3781, 5918.980
421.8602, 5906.564
422.3423, 5901.565
422.8244, 5899.208
423.3065, 5878.387
423.7887, 5824.916
424.2708, 5774.270
424.7529, 5737.884
425.2350, 5700.388
425.7171, 5646.145
426.1992, 5574.560
426.6814, 5501.941
427.1635, 5448.960
427.6456, 5412.315
428.1277, 5355.667
428.6098, 5270.198
429.0919, 5181.615
429.5741, 5093.708
430.0562, 5013.156
430.5383, 4955.419
431.0204, 4935.887
431.5025, 4914.271
431.9846, 4853.278
432.4668, 4761.806
432.9489, 4670.163
433.4310, 4584.907
433.9131, 4505.456
434.3952, 4432.037
434.8773, 4365.612
435.3595, 4299.824
435.8416, 4231.127
436.3237, 4166.189
436.8058, 4107.309
437.2879, 4055.400
437.7701, 4012.510
438.2522, 3980.207
438.7343, 3954.433
439.2164, 3925.627
439.6985, 3896.436
440.1806, 3858.963
440.6628, 3793.083
441.1449, 3735.849
441.6270, 3719.417
442.1091, 3736.612
442.5912, 3751.477
443.0733, 3733.018
443.5555, 3692.743
444.0376, 3678.132
444.5197, 3699.405
445.0018, 3717.653
445.4839, 3709.036
445.9660, 3694.896
446.4482, 3697.147
446.9303, 3719.907
447.4124, 3747.399
447.8945, 3771.237
448.3766, 3792.770
448.8587, 3814.286
449.3409, 3836.115
449.8230, 3858.690
450.3051, 3882.183
450.7872, 3906.856
451.2693, 3933.924
451.7514, 3967.524
452.2336, 3998.514
452.7157, 4020.096
453.1978, 4038.558
453.6799, 4062.178
454.1620, 4093.426
454.6441, 4130.117
455.1263, 4170.850
455.6084, 4217.820
456.0905, 4256.097
456.5726, 4282.291
457.0547, 4302.320
457.5368, 4312.383
458.0190, 4318.644
458.5011, 4332.298
458.9832, 4359.739
459.4653, 4388.094
459.9474, 4397.812
460.4295, 4388.611
460.9117, 4376.382
461.3938, 4357.769
461.8759, 4345.874
462.3580, 4359.785
462.8401, 4393.424
463.3222, 4413.897
463.8044, 4407.924
464.2865, 4388.581
464.7686, 4362.666
465.2507, 4332.450
465.7328, 4304.351
466.2149, 4280.441
466.6971, 4262.773
467.1792, 4256.458
467.6613, 4270.682
468.1434, 4277.000
468.6255, 4270.811
469.1076, 4260.904
469.5898, 4250.300
470.0719, 4240.677
470.5540, 4235.059
471.0361, 4235.934
471.5182, 4240.397
472.0003, 4239.680
472.4825, 4232.063
472.9646, 4223.950
473.4467, 4210.151
473.9288, 4201.224
474.4109, 4208.209
474.8930, 4229.617
475.3752, 4248.634
475.8573, 4258.034
476.3394, 4257.987
476.8215, 4244.121
477.3036, 4216.255
477.7857, 4195.179
478.2679, 4195.217
478.7500, 4205.388
479.2321, 4197.612
479.7142, 4165.023
480.1963, 4135.142
480.6784, 4120.349
481.1606, 4105.684
481.6427, 4072.123
482.1248, 4022.529
482.6069, 3979.823
483.0890, 3962.620
483.5711, 3964.699
484.0533, 3950.161
484.5354, 3904.751
485.0175, 3865.845
485.4996, 3834.060
485.9817, 3813.177
486.4638, 3811.020
486.9460, 3825.925
487.4281, 3841.996
487.9102, 3845.831
488.3923, 3841.338
488.8744, 3840.037
489.3565, 3842.156
489.8387, 3846.764
490.3208, 3854.241
490.8029, 3863.603
491.2850, 3872.401
491.7671, 3879.991
492.2492, 3888.889
492.7314, 3901.624
493.2135, 3915.094
493.6956, 3926.017
494.1777, 3933.966
494.6598, 3939.450
495.1419, 3942.225
495.6241, 3943.267
496.1062, 3949.507
496.5883, 3974.499
497.0704, 3984.969
497.5525, 3966.472
498.0346, 3940.635
498.5168, 3926.026
498.9989, 3924.043
499.4810, 3922.978
499.9631, 3914.726
500.4452, 3899.602
500.9273, 3877.678
501.4095, 3847.346
501.8916, 3816.885
502.3737, 3790.452
502.8558, 3765.446
503.3379, 3737.560
503.8200, 3705.854
504.3022, 3675.398
504.7843, 3650.107
505.2664, 3625.988
505.7485, 3596.344
506.2306, 3562.098
506.7127, 3533.989
507.1949, 3520.381
507.6770, 3516.642
508.1591, 3502.493
508.6412, 3466.437
509.1233, 3436.496
509.6054, 3413.591
510.0876, 3397.391
510.5697, 3391.296
511.0518, 3392.791
511.5339, 3392.166
512.0161, 3379.748
512.4982, 3361.939
512.9803, 3358.434
513.4624, 3372.115
513.9445, 3382.747
514.4266, 3382.443
514.9088, 3376.308
515.3909, 3368.970
515.8730, 3359.634
516.3551, 3358.444
516.8372, 3374.923
517.3193, 3396.084
517.8015, 3410.884
518.2836, 3419.351
518.7657, 3424.906
519.2478, 3428.934
519.7299, 3432.890
520.2120, 3439.994
520.6942, 3448.986
521.1763, 3463.972
521.6584, 3490.783
522.1405, 3517.353
522.6226, 3539.233
523.1047, 3555.520
523.5869, 3564.183
524.0690, 3561.659
524.5511, 3556.765
525.0332, 3564.961
525.5153, 3586.170
525.9974, 3608.505
526.4796, 3631.691
526.9617, 3651.063
527.4438, 3658.329
527.9259, 3655.231
528.4080, 3656.677
528.8901, 3668.487
529.3723, 3681.697
529.8544, 3688.786
530.3365, 3693.882
530.8186, 3706.640
531.3007, 3730.176
531.7828, 3756.119
532.2650, 3772.033
532.7471, 3775.344
533.2292, 3785.232
533.7113, 3812.400
534.1934, 3833.841
534.6755, 3837.102
535.1577, 3832.698
535.6398, 3835.133
536.1219, 3848.856
536.6040, 3866.952
537.0861, 3886.543
537.5682, 3905.438
538.0504, 3914.653
538.5325, 3911.979
539.0146, 3907.792
539.4967, 3907.337
539.9788, 3911.601
540.4609, 3924.986
540.9431, 3963.009
541.4252, 3988.136
541.9073, 3982.526
542.3894, 3967.311
542.8715, 3966.234
543.3536, 3978.576
543.8358, 3983.328
544.3179, 3961.909
544.8000, 3921.220
545.2821, 3891.366
545.7642, 3874.588
546.2463, 3862.667
546.7285, 3859.357
547.2106, 3855.962
547.6926, 3844.602
548.1747, 3825.751
548.6569, 3807.657
549.1390, 3794.550
549.6211, 3783.654
550.1032, 3772.280
550.5853, 3760.495
551.0674, 3748.395
551.5496, 3735.423
552.0317, 3724.647
552.5138, 3721.251
552.9959, 3727.428
553.4780, 3733.772
553.9601, 3740.955
554.4423, 3747.593
554.9244, 3750.197
555.4065, 3752.800
555.8886, 3762.810
556.3707, 3783.189
556.8528, 3805.687
557.3350, 3816.402
557.8171, 3818.157
558.2992, 3837.461
558.7813, 3883.205
559.2634, 3925.513
559.7455, 3938.585
560.2277, 3933.966
560.7098, 3949.075
561.1919, 3994.746
561.6740, 4041.693
562.1561, 4076.780
562.6382, 4111.047
563.1204, 4156.759
563.6025, 4214.479
564.0846, 4278.826
564.5667, 4348.022
565.0488, 4418.356
565.5309, 4472.729
566.0131, 4496.738
566.4952, 4541.129
566.9773, 4631.716
567.4594, 4732.432
567.9415, 4821.405
568.4236, 4900.240
568.9058, 4981.479
569.3879, 5065.535
569.8700, 5159.184
570.3521, 5270.969
570.8342, 5398.805
571.3163, 5538.438
571.7985, 5689.538
572.2806, 5842.203
572.7627, 5981.653
573.2448, 6105.153
573.7269, 6246.264
574.2090, 6395.642
574.6912, 6574.716
575.1733, 6803.810
575.6554, 7057.444
576.1375, 7311.196
576.6196, 7559.073
577.1017, 7804.159
577.5839, 8043.116
578.0660, 8281.906
578.5481, 8541.033
579.0302, 8821.012
579.5123, 9117.229
579.9944, 9435.038
580.4766, 9760.323
580.9587, 10065.90
581.4408, 10356.15
581.9229, 10619.49
582.4050, 10844.58
582.8871, 11048.44
583.3693, 11255.12
583.8514, 11447.06
584.3335, 11592.30
584.8156, 11674.98
585.2977, 11699.07
585.7798, 11663.83
586.2620, 11565.84
586.7441, 11448.41
587.2262, 11312.36
587.7083, 11156.77
588.1904, 10974.06
588.6725, 10773.10
589.1547, 10567.94
589.6368, 10362.13
590.1189, 10145.12
590.6010, 9898.051
591.0831, 9643.745
591.5652, 9412.563
592.0474, 9205.940
592.5295, 9009.187
593.0116, 8812.938
593.4937, 8621.454
593.9758, 8447.282
594.4579, 8303.213
594.9401, 8148.016
595.4222, 7952.622
595.9043, 7770.211
596.3864, 7638.177
596.8685, 7540.928
597.3506, 7437.765
597.8328, 7313.431
598.3149, 7180.071
598.7970, 7043.851
599.2791, 6907.112
599.7612, 6772.840
600.2433, 6641.046
600.7255, 6522.394
601.2076, 6428.813
601.6897, 6356.061
602.1718, 6269.315
602.6539, 6151.916
603.1360, 6043.088
603.6182, 5954.408
604.1003, 5868.448
604.5824, 5773.065
605.0645, 5667.780
605.5466, 5557.845
606.0287, 5442.721
606.5109, 5328.477
606.9930, 5224.392
607.4751, 5129.285
607.9572, 5035.539
608.4393, 4940.745
608.9214, 4847.490
609.4036, 4760.681
609.8857, 4680.173
610.3678, 4585.608
610.8499, 4468.222
611.3320, 4349.816
611.8141, 4226.324
612.2963, 4109.624
612.7784, 4017.003
613.2605, 3946.732
613.7426, 3878.598
614.2247, 3793.833
614.7068, 3703.309
615.1890, 3638.433
615.6711, 3600.685
616.1532, 3554.456
616.6353, 3487.397
617.1174, 3412.348
617.5995, 3338.715
618.0817, 3266.378
618.5638, 3215.273
619.0459, 3210.628
619.5280, 3199.152
620.0101, 3152.596
620.4922, 3091.446
620.9744, 3038.949
621.4565, 3001.011
621.9386, 2974.710
622.4207, 2961.188
622.9028, 2955.581
623.3849, 2936.423
623.8671, 2900.168
624.3492, 2871.994
624.8313, 2865.109
625.3134, 2863.069
625.7955, 2844.765
626.2776, 2811.261
626.7598, 2780.844
627.2419, 2752.615
627.7240, 2731.795
628.2061, 2725.822
628.6882, 2727.224
629.1703, 2727.479
629.6525, 2723.524
630.1346, 2712.481
630.6167, 2688.429
631.0988, 2655.345
631.5809, 2636.290
632.0630, 2634.163
632.5452, 2635.035
633.0273, 2638.960
633.5094, 2639.971
633.9915, 2628.501
634.4736, 2605.455
634.9557, 2589.022
635.4379, 2586.110
635.9200, 2587.344
636.4021, 2591.052
636.8842, 2594.153
637.3663, 2591.218
637.8484, 2581.518
638.3306, 2570.235
638.8127, 2562.326
639.2948, 2557.377
639.7769, 2553.091
640.2590, 2549.415
640.7411, 2546.387
641.2233, 2542.487
641.7054, 2540.827
642.1875, 2545.926
642.6696, 2557.131
643.1517, 2566.191
643.6339, 2573.791
644.1160, 2576.293
644.5981, 2571.006
645.0802, 2559.602
645.5623, 2539.614
646.0444, 2513.299
646.5266, 2496.735
647.0087, 2508.304
647.4908, 2540.117
647.9729, 2553.101
648.4550, 2541.781
648.9371, 2533.070
649.4193, 2533.493
649.9014, 2539.234
650.3835, 2550.311
650.8656, 2565.066
651.3477, 2571.074
651.8298, 2553.037
652.3120, 2540.871
652.7941, 2553.717
653.2762, 2578.292
653.7583, 2597.976
654.2404, 2609.575
654.7225, 2616.961
655.2047, 2621.638
655.6868, 2626.672
656.1689, 2645.167
656.6510, 2680.796
657.1331, 2706.403
657.6152, 2711.220
658.0974, 2711.691
658.5795, 2720.265
659.0616, 2736.513
659.5437, 2759.625
660.0258, 2795.876
660.5079, 2831.156
660.9901, 2862.005
661.4722, 2888.660
661.9543, 2907.939
662.4364, 2922.546
662.9185, 2942.278
663.4006, 2973.481
663.8828, 3014.412
664.3649, 3064.089
664.8470, 3122.914
665.3291, 3175.684
665.8112, 3216.173
666.2933, 3260.473
666.7755, 3324.799
667.2576, 3402.937
667.7397, 3468.010
668.2218, 3509.957
668.7039, 3554.999
669.1860, 3609.024
669.6682, 3667.162
670.1503, 3722.066
670.6324, 3778.281
671.1145, 3850.600
671.5966, 3948.404
672.0787, 4052.615
672.5609, 4133.352
673.0430, 4195.064
673.5251, 4267.575
674.0072, 4353.950
674.4893, 4452.762
674.9714, 4567.208
675.4536, 4690.567
675.9357, 4802.998
676.4178, 4894.219
676.8999, 4998.539
677.3820, 5123.640
677.8641, 5255.304
678.3463, 5383.012
678.8284, 5512.145
679.3105, 5651.699
679.7926, 5804.282
680.2747, 5967.181
680.7568, 6137.216
681.2390, 6314.302
681.7211, 6498.486
682.2032, 6688.955
682.6853, 6883.842
683.1674, 7082.564
683.6495, 7285.275
684.1317, 7496.077
684.6138, 7719.091
685.0959, 7925.007
685.5780, 8096.092
686.0601, 8274.008
686.5422, 8481.646
687.0244, 8693.313
687.5065, 8875.743
687.9886, 9028.599
688.4707, 9189.349
688.9528, 9400.049
689.4349, 9613.797
689.9171, 9776.690
690.3992, 9898.053
690.8813, 10012.72
691.3634, 10129.35
691.8455, 10211.38
692.3276, 10216.92
692.8098, 10154.86
693.2919, 10105.97
693.7740, 10092.38
694.2561, 10042.80
694.7382, 9939.340
695.2203, 9798.394
695.7025, 9621.591
696.1846, 9415.231
696.6667, 9202.968
697.1488, 8997.454
697.6309, 8777.061
698.1130, 8530.184
698.5952, 8263.014
699.0773, 7973.586
699.5594, 7669.369
700.0415, 7376.045
700.5236, 7108.646
701.0057, 6857.251
701.4879, 6600.969
701.9700, 6338.462
702.4521, 6088.704
702.9342, 5853.688
703.4163, 5630.449
703.8984, 5415.352
704.3806, 5212.220
704.8627, 5028.915
705.3448, 4872.126
705.8269, 4713.961
706.3090, 4541.640
706.7911, 4374.907
707.2733, 4219.923
707.7554, 4080.239
708.2375, 3965.895
708.7196, 3878.126
709.2017, 3796.345
709.6838, 3698.991
710.1660, 3593.122
710.6481, 3496.852
711.1302, 3410.041
711.6123, 3324.109
712.0944, 3234.307
712.5765, 3152.075
713.0587, 3094.226
713.5408, 3062.455
714.0229, 3018.725
714.5050, 2953.568
714.9871, 2889.450
715.4692, 2823.415
715.9514, 2764.683
716.4335, 2726.924
716.9156, 2705.194
717.3977, 2674.785
717.8798, 2615.134
718.3619, 2558.826
718.8441, 2536.256
719.3262, 2532.851
719.8083, 2526.463
720.2904, 2513.078
720.7725, 2493.110
721.2546, 2465.783
721.7368, 2436.778
722.2189, 2422.315
722.7010, 2425.853
723.1831, 2418.523
723.6652, 2390.658
724.1473, 2366.762
724.6295, 2364.842
725.1116, 2374.556
725.5937, 2374.106
726.0758, 2360.274
726.5579, 2347.308
727.0400, 2333.358
727.5222, 2325.409
728.0043, 2334.720
728.4864, 2350.150
728.9685, 2353.621
729.4506, 2340.663
729.9327, 2321.373
730.4149, 2299.055
730.8970, 2279.301
731.3791, 2278.337
731.8612, 2294.128
732.3433, 2307.698
732.8254, 2313.709
733.3076, 2314.800
733.7897, 2312.388
734.2718, 2307.195
734.7539, 2308.808
735.2360, 2320.380
735.7181, 2333.650
736.2003, 2354.003
736.6824, 2369.956
737.1645, 2370.201
737.6466, 2360.509
738.1287, 2357.019
738.6108, 2365.488
739.0930, 2377.155
739.5751, 2390.478
740.0572, 2402.118
740.5393, 2404.142
741.0214, 2400.493
741.5035, 2405.983
741.9857, 2427.584
742.4678, 2453.742
742.9499, 2465.852
743.4320, 2465.448
743.9141, 2475.507
744.3962, 2498.090
744.8784, 2521.487
745.3605, 2541.947
745.8426, 2560.254
746.3247, 2576.698
746.8068, 2590.831
747.2889, 2608.063
747.7711, 2631.799
748.2532, 2654.217
748.7353, 2674.231
749.2174, 2691.721
749.6995, 2705.848
750.1816, 2717.312
750.6638, 2728.032
751.1459, 2736.596
751.6280, 2749.078
752.1101, 2772.160
752.5922, 2802.782
753.0743, 2837.732
753.5565, 2875.070
754.0386, 2907.216
754.5207, 2929.205
755.0028, 2946.185
755.4849, 2968.434
755.9670, 2996.633
756.4492, 3023.656
756.9313, 3049.059
757.4134, 3074.433
757.8955, 3102.385
758.3776, 3129.507
758.8597, 3149.210
759.3419, 3160.317
759.8240, 3176.559
760.3061, 3203.007
760.7882, 3230.048
761.2703, 3252.150
761.7524, 3274.256
762.2346, 3303.278
762.7167, 3338.446
763.1988, 3372.414
763.6809, 3401.375
764.1630, 3426.648
764.6451, 3444.624
765.1273, 3461.133
765.6094, 3493.199
766.0915, 3541.698
766.5736, 3593.292
767.0557, 3640.614
767.5378, 3681.833
768.0200, 3711.091
768.5021, 3725.445
768.9842, 3744.098
769.4663, 3764.117
769.9484, 3795.451
770.4305, 3849.870
770.9127, 3913.061
771.3948, 3965.022
771.8769, 4005.165
772.3590, 4041.635
772.8411, 4067.514
773.3232, 4098.855
773.8054, 4142.126
774.2875, 4193.777
774.7696, 4253.919
775.2517, 4319.254
775.7338, 4378.495
776.2159, 4421.523
776.6981, 4464.339
777.1802, 4530.216
777.6623, 4608.290
778.1444, 4669.627
778.6265, 4713.452
779.1086, 4766.425
779.5908, 4844.109
780.0729, 4932.255
780.5550, 5002.874
781.0371, 5053.267
781.5192, 5111.854
782.0013, 5180.527
782.4835, 5253.102
782.9656, 5329.019
783.4477, 5405.803
783.9298, 5482.683
784.4119, 5559.918
784.8940, 5625.116
785.3762, 5663.025
785.8583, 5707.612
786.3404, 5770.169
786.8225, 5841.258
787.3046, 5917.243
787.7867, 5994.752
788.2689, 6068.346
788.7510, 6138.404
789.2331, 6196.303
789.7152, 6222.974
790.1973, 6239.460
790.6794, 6282.049
791.1616, 6348.258
791.6437, 6415.474
792.1258, 6474.482
792.6079, 6528.690
793.0900, 6583.251
793.5721, 6637.679
794.0543, 6688.195
794.5364, 6735.962
795.0185, 6771.494
795.5006, 6785.924
795.9827, 6800.548
796.4648, 6837.961
796.9470, 6895.758
797.4291, 6946.561
797.9112, 7008.844
798.3933, 7036.414
798.8754, 6983.115
799.3575, 6938.314
799.8397, 6965.208
800.3218, 7034.084
800.8039, 7085.813
801.2860, 7105.670
801.7681, 7116.444
802.2502, 7120.704
802.7324, 7128.661
803.2145, 7154.421
803.6966, 7189.357
804.1787, 7219.889
804.6608, 7240.999
805.1429, 7247.822
805.6251, 7230.686
806.1072, 7204.159
806.5893, 7200.518
807.0714, 7217.354
807.5535, 7240.611
808.0356, 7269.018
808.5178, 7284.367
808.9999, 7271.893
809.4820, 7243.984
809.9641, 7231.618
810.4462, 7236.885
810.9283, 7251.235
811.4105, 7286.238
811.8926, 7311.472
812.3747, 7306.687
812.8568, 7291.731
813.3389, 7291.508
813.8210, 7306.117
814.3032, 7311.127
814.7853, 7298.192
815.2674, 7281.223
815.7495, 7264.944
816.2316, 7246.722
816.7137, 7218.008
817.1959, 7185.121
817.6780, 7168.981
818.1601, 7182.639
818.6422, 7194.151
819.1243, 7166.096
819.6064, 7124.200
820.0886, 7109.812
820.5707, 7118.949
821.0528, 7128.894
821.5349, 7131.394
822.0170, 7131.168
822.4991, 7134.841
822.9813, 7139.418
823.4634, 7128.513
823.9455, 7100.810
824.4276, 7083.054
824.9097, 7080.642
825.3918, 7090.084
825.8740, 7111.311
826.3561, 7140.486
826.8382, 7164.009
827.3203, 7176.463
827.8024, 7195.898
828.2845, 7230.549
828.7667, 7262.065
829.2488, 7280.584
829.7309, 7294.461
830.2130, 7309.454
830.6951, 7326.315
831.1772, 7360.021
831.6594, 7430.410
832.1415, 7498.480
832.6236, 7544.180
833.1057, 7581.935
833.5878, 7622.343
834.0699, 7669.273
834.5521, 7726.882
835.0342, 7797.373
835.5163, 7876.984
835.9984, 7966.307
836.4805, 8060.722
836.9626, 8150.693
837.4448, 8238.694
837.9269, 8335.702
838.4090, 8445.045
838.8911, 8560.961
839.3732, 8677.361
839.8553, 8794.496
840.3375, 8916.800
840.8196, 9044.491
841.3017, 9164.738
841.7838, 9273.826
842.2659, 9383.363
842.7480, 9502.188
843.2302, 9626.747
843.7123, 9750.501
844.1944, 9877.821
844.6765, 9990.469
845.1586, 10089.37
845.6407, 10172.05
846.1229, 10218.22
846.6050, 10261.55
847.0871, 10344.36
847.5692, 10462.16
848.0513, 10553.82
848.5334, 10594.94
849.0156, 10631.36
849.4977, 10672.89
849.9798, 10716.63
850.4619, 10769.00
850.9440, 10820.03
851.4261, 10845.46
851.9083, 10836.37
852.3904, 10827.76
852.8725, 10855.64
853.3546, 10884.57
853.8367, 10874.42
854.3188, 10837.03
854.8010, 10793.86
855.2831, 10752.22
855.7652, 10721.70
856.2473, 10714.94
856.7294, 10707.13
857.2115, 10640.08
857.6937, 10531.74
858.1758, 10465.84
858.6579, 10449.27
859.1400, 10438.02
859.6221, 10411.51
860.1042, 10381.37
860.5864, 10365.31
861.0685, 10362.60
861.5506, 10347.71
862.0327, 10314.42
862.5148, 10294.68
862.9969, 10302.07
863.4791, 10311.22
863.9612, 10299.33
864.4433, 10274.05
864.9254, 10262.72
865.4075, 10263.35
865.8896, 10282.31
866.3718, 10315.17
866.8539, 10370.96
867.3360, 10452.13
867.8181, 10558.34
868.3002, 10688.52
868.7823, 10842.70
869.2645, 11022.76
869.7466, 11214.34
870.2287, 11449.73
870.7108, 11760.68
871.1929, 12104.12
871.6750, 12422.69
872.1572, 12744.12
872.6393, 13137.48
873.1214, 13627.37
873.6035, 14169.45
874.0856, 14754.41
874.5677, 15358.95
875.0499, 15936.60
875.5320, 16524.25
876.0141, 17202.50
876.4962, 17979.28
876.9783, 18795.84
877.4604, 19611.78
877.9426, 20445.13
878.4247, 21318.37
878.9068, 22228.48
879.3889, 23166.20
879.8710, 24128.56
880.3531, 25117.54
880.8353, 26127.34
881.3174, 27153.69
881.7995, 28195.52
882.2816, 29245.34
882.7637, 30265.09
883.2458, 31256.70
883.7280, 32171.85
884.2101, 32985.66
884.6922, 33766.80
885.1743, 34567.68
885.6564, 35340.95
886.1385, 35984.23
886.6207, 36475.13
887.1028, 36930.37
887.5849, 37404.25
888.0670, 37751.33
888.5491, 37884.51
889.0313, 37917.36
889.5134, 37967.53
889.9955, 38008.27
890.4776, 37916.03
890.9597, 37636.84
891.4418, 37308.71
891.9240, 36976.11
892.4061, 36568.95
892.8882, 36016.32
893.3703, 35381.95
893.8524, 34753.14
894.3345, 34139.74
894.8167, 33503.73
895.2988, 32805.56
895.7809, 32114.87
896.2630, 31466.80
896.7451, 30842.40
897.2272, 30218.14
897.7094, 29602.97
898.1915, 29036.75
898.6736, 28535.29
899.1557, 28014.95
899.6378, 27354.17
900.1199, 26684.93
900.6021, 26193.75
901.0842, 25814.24
901.5663, 25399.82
902.0484, 24930.37
902.5305, 24469.70
903.0126, 24058.25
903.4948, 23682.80
903.9769, 23340.93
904.4590, 23018.59
904.9411, 22672.75
905.4232, 22306.76
905.9053, 21977.15
906.3875, 21702.20
906.8696, 21420.47
907.3517, 21065.70
907.8338, 20671.31
908.3159, 20350.42
908.7980, 20104.15
909.2802, 19844.04
909.7623, 19559.15
910.2444, 19279.72
910.7265, 19022.21
911.2086, 18777.15
911.6907, 18533.91
912.1729, 18292.01
912.6550, 18017.43
913.1371, 17695.74
913.6192, 17384.14
914.1013, 17088.28
914.5834, 16812.15
915.0656, 16563.15
915.5477, 16331.24
916.0298, 16089.85
916.5119, 15832.58
916.9940, 15588.45
917.4761, 15365.92
917.9583, 15145.04
918.4404, 14921.81
918.9225, 14696.55
919.4046, 14468.74
919.8867, 14238.79
920.3688, 14005.93
920.8510, 13750.47
921.3331, 13533.71
921.8152, 13397.78
922.2973, 13263.66
922.7794, 13084.13
923.2615, 12892.41
923.7437, 12733.85
924.2258, 12607.02
924.7079, 12474.07
925.1900, 12311.33
925.6721, 12159.88
926.1542, 12040.27
926.6364, 11935.44
927.1185, 11826.51
927.6006, 11725.50
928.0827, 11660.25
928.5648, 11633.83
929.0469, 11605.96
929.5291, 11545.60
930.0112, 11485.65
930.4933, 11452.27
930.9754, 11432.13
931.4575, 11407.77
931.9396, 11381.18
932.4218, 11361.20
932.9039, 11351.15
933.3860, 11357.63
933.8681, 11399.48
934.3502, 11450.39
934.8323, 11465.99
935.3145, 11467.96
935.7966, 11500.46
936.2787, 11567.37
936.7608, 11651.94
937.2429, 11745.95
937.7250, 11840.58
938.2072, 11924.07
938.6893, 12001.04
939.1714, 12077.31
939.6535, 12156.75
940.1356, 12256.19
940.6177, 12378.15
941.0999, 12505.82
941.5820, 12628.59
942.0641, 12744.37
942.5462, 12852.55
943.0283, 12950.84
943.5104, 13028.04
943.9926, 13083.48
944.4747, 13113.13
944.9568, 13115.07
945.4389, 13117.70
945.9210, 13151.17
946.4031, 13193.16
946.8853, 13186.70
947.3674, 13131.56
947.8495, 13017.48
948.3316, 12841.72
948.8137, 12627.77
949.2958, 12381.46
949.7780, 12117.99
950.2601, 11856.34
950.7422, 11592.97
951.2243, 11310.31
951.7064, 11009.64
952.1885, 10680.69
952.6707, 10318.15
953.1528, 9951.078
953.6349, 9591.585
954.1170, 9237.225
954.5991, 8877.456
955.0812, 8515.265
955.5634, 8174.127
956.0455, 7855.663
956.5276, 7557.317
957.0097, 7279.033
957.4918, 7014.974
957.9739, 6761.567
958.4561, 6520.024
958.9382, 6292.009
959.4203, 6076.395
959.9024, 5879.778
960.3845, 5708.379
960.8666, 5543.313
961.3488, 5378.277
961.8309, 5224.012
962.3130, 5089.129
962.7951, 4969.358
963.2772, 4857.216
963.7593, 4755.434
964.2415, 4646.464
964.7236, 4511.393
965.2057, 4396.622
965.6878, 4312.756
966.1699, 4248.266
966.6520, 4206.628
967.1342, 4176.110
967.6163, 4128.241
968.0984, 4055.193
968.5805, 3993.870
969.0626, 3955.594
969.5447, 3916.063
970.0269, 3869.532
970.5090, 3819.244
970.9911, 3759.105
971.4732, 3698.344
971.9553, 3666.093
972.4374, 3680.675
972.9196, 3667.297
973.4017, 3589.002
973.8838, 3515.040
974.3659, 3469.904
974.8480, 3439.324
975.3301, 3418.420
975.8123, 3400.473
976.2944, 3367.808
976.7765, 3312.075
977.2586, 3260.446
977.7407, 3221.903
978.2228, 3185.317
978.7050, 3142.821
979.1871, 3102.515
979.6692, 3072.240
980.1513, 3051.549
980.6334, 3038.006
981.1155, 3036.842
981.5977, 3024.825
982.0798, 2985.403
982.5619, 2944.800
983.0440, 2911.547
983.5261, 2887.325
984.0082, 2876.654
984.4904, 2876.221
984.9725, 2874.794
985.4546, 2870.914
985.9367, 2861.371
986.4188, 2840.459
986.9009, 2818.633
987.3831, 2794.888
987.8652, 2778.466
988.3473, 2785.821
988.8294, 2811.447
989.3115, 2828.565
989.7936, 2826.677
990.2758, 2822.966
990.7579, 2824.321
991.2400, 2826.239
991.7221, 2827.806
992.2042, 2826.959
992.6863, 2822.665
993.1685, 2813.901
993.6506, 2795.705
994.1327, 2758.870
994.6148, 2734.997
995.0969, 2750.590
995.5790, 2770.550
996.0612, 2768.524
996.5433, 2758.274
997.0254, 2759.130
997.5075, 2770.849
997.9896, 2780.442
998.4717, 2783.073
998.9539, 2784.343
999.4360, 2787.083
999.9181, 2789.123
1000.400, 2788.335
1000.882, 2786.324
1001.364, 2785.245
1001.847, 2785.061
1002.329, 2784.473
1002.811, 2783.334
1003.293, 2780.792
1003.775, 2768.807
1004.257, 2763.511
1004.739, 2786.631
1005.221, 2816.120
1005.703, 2821.794
1006.186, 2805.893
1006.668, 2791.340
1007.150, 2783.879
1007.632, 2785.010
1008.114, 2801.604
1008.596, 2820.149
1009.078, 2833.607
1009.560, 2842.778
1010.043, 2845.951
1010.525, 2846.207
1011.007, 2854.489
1011.489, 2877.444
1011.971, 2896.438
1012.453, 2904.462
1012.935, 2905.117
1013.417, 2893.062
1013.899, 2880.302
1014.382, 2879.940
1014.864, 2891.178
1015.346, 2907.027
1015.828, 2926.959
1016.310, 2945.195
1016.792, 2962.548
1017.274, 2974.046
1017.756, 2972.240
1018.239, 2966.977
1018.721, 2968.363
1019.203, 2975.274
1019.685, 2979.703
1020.167, 2977.118
1020.649, 2985.875
1021.131, 3026.152
1021.613, 3061.531
1022.095, 3073.774
1022.578, 3074.851
1023.060, 3074.367
1023.542, 3072.696
1024.024, 3064.773
1024.506, 3046.120
1024.988, 3044.918
1025.470, 3078.715
1025.952, 3117.763
1026.435, 3159.608
1026.917, 3194.355
1027.399, 3208.111
1027.881, 3210.541
1028.363, 3225.600
1028.845, 3259.473
1029.327, 3278.027
1029.809, 3254.920
1030.292, 3243.735
1030.774, 3268.416
1031.256, 3299.953
1031.738, 3318.115
1032.220, 3329.508
1032.702, 3346.044
1033.184, 3368.449
1033.666, 3398.292
1034.148, 3443.772
1034.630, 3484.740
1035.113, 3515.864
1035.595, 3543.990
1036.077, 3569.446
1036.559, 3595.942
1037.041, 3631.352
1037.523, 3676.368
1038.005, 3710.617
1038.487, 3720.199
1038.970, 3741.260
1039.452, 3782.456
1039.934, 3827.193
1040.416, 3870.427
1040.898, 3911.237
1041.380, 3946.007
1041.862, 3975.967
1042.344, 4016.709
1042.826, 4078.977
1043.309, 4127.231
1043.791, 4153.477
1044.273, 4177.435
1044.755, 4199.865
1045.237, 4233.214
1045.719, 4296.182
1046.201, 4379.644
1046.683, 4439.115
1047.166, 4461.672
1047.648, 4507.460
1048.130, 4585.041
1048.612, 4660.146
1049.094, 4717.300
1049.576, 4783.990
1050.058, 4889.232
1050.540, 5012.729
1051.022, 5095.589
1051.505, 5131.649
1051.987, 5188.855
1052.469, 5270.296
1052.951, 5350.281
1053.433, 5421.241
1053.915, 5500.440
1054.397, 5602.667
1054.879, 5712.715
1055.361, 5803.050
1055.844, 5875.270
1056.326, 5948.896
1056.808, 6024.439
1057.290, 6105.364
1057.772, 6192.408
1058.254, 6273.245
1058.736, 6340.280
1059.218, 6411.049
1059.701, 6516.269
1060.183, 6636.747
1060.665, 6702.451
1061.147, 6722.514
1061.629, 6739.562
1062.111, 6760.806
1062.593, 6802.004
1063.075, 6867.870
1063.557, 6922.552
1064.040, 6926.718
1064.522, 6907.066
1065.004, 6914.271
1065.486, 6935.281
1065.968, 6942.412
1066.450, 6932.729
1066.932, 6905.006
1067.414, 6859.834
1067.896, 6802.303
1068.379, 6735.033
1068.861, 6660.634
1069.343, 6578.247
1069.825, 6493.574
1070.307, 6418.162
1070.789, 6344.781
1071.271, 6257.180
1071.753, 6155.367
1072.236, 6049.466
1072.718, 5942.110
1073.200, 5841.606
1073.682, 5761.460
1074.164, 5681.713
1074.646, 5577.434
1075.128, 5469.189
1075.610, 5387.230
1076.093, 5323.283
1076.575, 5245.485
1077.057, 5144.559
1077.539, 5053.162
1078.021, 4996.584
1078.503, 4938.336
1078.985, 4852.769
1079.467, 4768.326
1079.949, 4706.600
1080.432, 4661.277
1080.914, 4623.465
1081.396, 4591.247
1081.878, 4550.371
1082.360, 4482.491
1082.842, 4429.690
1083.324, 4408.245
1083.806, 4391.407
1084.288, 4364.176
1084.771, 4337.973
1085.253, 4332.218
1085.735, 4339.890
1086.217, 4324.080
1086.699, 4264.748
1087.181, 4237.492
1087.663, 4266.369
1088.145, 4276.438
1088.628, 4232.937
1089.110, 4195.378
1089.592, 4212.285
1090.074, 4258.876
1090.556, 4282.000
1091.038, 4280.977
1091.520, 4274.023
1092.002, 4259.279
1092.484, 4250.376
1092.967, 4249.234
1093.449, 4257.504
1093.931, 4277.719
1094.413, 4298.547
1094.895, 4304.458
1095.377, 4300.604
1095.859, 4305.623
1096.341, 4318.643
1096.823, 4334.135
1097.306, 4351.130
1097.788, 4365.968
1098.270, 4377.561
1098.752, 4388.576
1099.234, 4401.054
1099.716, 4414.152
1100.198, 4427.668
1100.680, 4440.279
1101.163, 4444.813
1101.645, 4447.311
1102.127, 4468.133
1102.609, 4504.618
1103.091, 4530.125
1103.573, 4531.585
1104.055, 4527.881
1104.537, 4533.594
1105.020, 4542.174
1105.502, 4544.226
1105.984, 4548.227
1106.466, 4569.968
1106.948, 4600.682
1107.430, 4619.802
1107.912, 4623.111
1108.394, 4620.681
1108.876, 4601.247
1109.359, 4600.133
1109.841, 4651.441
1110.323, 4701.474
1110.805, 4715.448
1111.287, 4710.739
1111.769, 4705.409
1112.251, 4702.075
1112.733, 4705.245
1113.215, 4715.577
1113.698, 4732.056
1114.180, 4761.889
1114.662, 4786.248
1115.144, 4802.278
1115.626, 4809.363
1116.108, 4801.522
1116.590, 4790.187
1117.072, 4797.872
1117.555, 4824.711
1118.037, 4848.139
1118.519, 4868.812
1119.001, 4880.705
1119.483, 4881.287
1119.965, 4885.008
1120.447, 4897.942
1120.929, 4916.727
1121.411, 4938.892
1121.894, 4961.680
1122.376, 4975.440
1122.858, 4982.819
1123.340, 5002.970
1123.822, 5031.653
1124.304, 5036.330
1124.786, 5014.274
1125.268, 5005.348
1125.750, 5032.768
1126.233, 5071.365
1126.715, 5101.467
1127.197, 5118.235
1127.679, 5099.441
1128.161, 5072.196
1128.643, 5085.920
1129.125, 5129.124
1129.607, 5159.736
1130.090, 5167.428
1130.572, 5171.782
1131.054, 5179.914
1131.536, 5192.035
1132.018, 5210.203
1132.500, 5230.295
1132.982, 5250.965
1133.464, 5270.963
1133.947, 5289.117
1134.429, 5305.445
1134.911, 5320.538
1135.393, 5334.268
1135.875, 5347.336
1136.357, 5367.092
1136.839, 5374.256
1137.321, 5352.064
1137.803, 5336.647
1138.286, 5351.995
1138.768, 5381.828
1139.250, 5403.058
1139.732, 5416.326
1140.214, 5426.607
1140.696, 5432.140
1141.178, 5453.231
1141.660, 5494.063
1142.142, 5516.286
1142.625, 5506.730
1143.107, 5490.678
1143.589, 5487.629
1144.071, 5490.090
1144.553, 5484.340
1145.035, 5473.690
1145.517, 5464.854
1145.999, 5460.527
1146.482, 5473.190
1146.964, 5499.085
1147.446, 5516.675
1147.928, 5518.387
1148.410, 5519.179
1148.892, 5531.589
1149.374, 5545.002
1149.856, 5550.907
1150.339, 5552.289
1150.821, 5549.925
1151.303, 5546.372
1151.785, 5543.486
1152.267, 5542.586
1152.749, 5549.786
1153.231, 5573.895
1153.713, 5576.500
1154.195, 5524.729
1154.677, 5483.839
1155.160, 5474.369
1155.642, 5481.052
1156.124, 5505.222
1156.606, 5530.353
1157.088, 5530.233
1157.570, 5507.338
1158.052, 5490.308
1158.534, 5478.829
1159.017, 5477.759
1159.499, 5491.521
1159.981, 5487.643
1160.463, 5453.725
1160.945, 5423.792
1161.427, 5423.558
1161.909, 5435.361
1162.391, 5426.587
1162.874, 5406.304
1163.356, 5411.427
1163.838, 5430.381
1164.320, 5421.287
1164.802, 5387.533
1165.284, 5361.891
1165.766, 5354.771
1166.248, 5355.763
1166.730, 5361.493
1167.213, 5363.780
1167.695, 5347.288
1168.177, 5333.278
1168.659, 5347.232
1169.141, 5370.371
1169.623, 5383.074
1170.105, 5382.352
1170.587, 5362.120
1171.069, 5315.766
1171.552, 5297.457
1172.034, 5347.975
1172.516, 5377.943
1172.998, 5358.869
1173.480, 5338.659
1173.962, 5337.821
1174.444, 5344.125
1174.926, 5344.817
1175.409, 5342.342
1175.891, 5344.507
1176.373, 5351.160
1176.855, 5371.104
1177.337, 5405.347
1177.819, 5401.216
1178.301, 5350.193
1178.783, 5311.016
1179.266, 5312.253
1179.748, 5331.772
1180.230, 5350.191
1180.712, 5365.414
1181.194, 5370.209
1181.676, 5371.790
1182.158, 5383.961
1182.640, 5402.240
1183.122, 5416.343
1183.604, 5424.959
1184.087, 5431.946
1184.569, 5438.917
1185.051, 5442.470
1185.533, 5433.612
1186.015, 5431.168
1186.497, 5443.916
1186.979, 5464.940
1187.461, 5498.184
1187.944, 5530.977
1188.426, 5543.285
1188.908, 5539.093
1189.390, 5542.038
1189.872, 5551.491
1190.354, 5572.068
1190.836, 5607.631
1191.318, 5637.311
1191.801, 5656.147
1192.283, 5669.105
1192.765, 5677.628
1193.247, 5692.726
1193.729, 5732.923
1194.211, 5782.711
1194.693, 5797.801
1195.175, 5794.377
1195.657, 5819.011
1196.140, 5863.799
1196.622, 5896.364
1197.104, 5913.141
1197.586, 5931.607
1198.068, 5958.669
1198.550, 5996.569
1199.032, 6060.109
1199.514, 6117.509
1199.996, 6147.388
1200.479, 6167.673
1200.961, 6192.113
1201.443, 6216.484
1201.925, 6225.908
1202.407, 6225.567
1202.889, 6256.894
1203.371, 6334.190
1203.853, 6396.867
1204.336, 6440.593
1204.818, 6484.255
1205.300, 6533.045
1205.782, 6575.205
1206.264, 6603.174
1206.746, 6628.204
1207.228, 6662.018
1207.710, 6706.417
1208.193, 6774.132
1208.675, 6853.242
1209.157, 6903.456
1209.639, 6934.595
1210.121, 6978.088
1210.603, 7038.054
1211.085, 7102.078
1211.567, 7165.530
1212.049, 7231.188
1212.531, 7310.163
1213.014, 7379.611
1213.496, 7416.746
1213.978, 7452.063
1214.460, 7498.718
1214.942, 7561.471
1215.424, 7655.883
1215.906, 7769.160
1216.388, 7854.042
1216.871, 7903.819
1217.353, 7966.798
1217.835, 8046.562
1218.317, 8125.632
1218.799, 8202.301
1219.281, 8273.688
1219.763, 8338.745
1220.245, 8397.840
1220.728, 8447.496
1221.210, 8508.569
1221.692, 8636.465
1222.174, 8790.658
1222.656, 8884.995
1223.138, 8940.891
1223.620, 8994.972
1224.102, 9057.627
1224.584, 9140.004
1225.067, 9242.999
1225.549, 9345.087
1226.031, 9437.149
1226.513, 9525.269
1226.995, 9617.801
1227.477, 9698.434
1227.959, 9742.543
1228.441, 9791.447
1228.923, 9877.396
1229.406, 9987.232
1229.888, 10101.79
1230.370, 10219.95
1230.852, 10319.71
1231.334, 10400.44
1231.816, 10479.73
1232.298, 10558.15
1232.780, 10618.43
1233.263, 10659.43
1233.745, 10727.08
1234.227, 10848.97
1234.709, 10971.56
1235.191, 11035.45
1235.673, 11075.85
1236.155, 11122.34
1236.637, 11175.84
1237.120, 11236.72
1237.602, 11305.23
1238.084, 11397.10
1238.566, 11497.55
1239.048, 11538.94
1239.530, 11485.35
1240.012, 11481.40
1240.494, 11560.77
1240.976, 11639.83
1241.458, 11717.52
1241.941, 11769.68
1242.423, 11780.52
1242.905, 11782.94
##END=



