##NAMES=Lamprophyllite
##RRUFFID=R070284
##IDEAL CHEMISTRY=(SrNa)Ti^4+^_2_Na_3_Ti^4+^(Si_2_O_7_)_2_O_2_(OH)_2_
##LOCALITY=Lovozero Massif,  Kola Peninsula,  Murmanskaja Oblast',  Northern Region,  Russia
##OWNER=RRUFF
##SOURCE=Michael Scott
##DESCRIPTION=Stellate groups of transparent brown bladed crystals
##STATUS=The identification of this mineral has been confirmed by X-ray diffraction and chemical analysis
##URL=rruff.info/R070284
##MEASURED CHEMISTRY=(Na_2.35_Mn_0.36_Mg_0.17_Ca_0.12_)(Sr_1.08_Na_0.35_K_0.09_Ba_0.01_)(Ti_2.80_Fe_0.26_Al_0.02_)Si_3.87_O_16_[(OH)_1.14_F_0.86_]
148.6976, 4802.994
149.1797, 4833.431
149.6618, 4864.618
150.1439, 4911.773
150.6261, 4988.299
151.1082, 5068.225
151.5903, 5143.347
152.0724, 5206.542
152.5545, 5280.094
153.0366, 5373.483
153.5188, 5477.683
154.0009, 5574.539
154.4830, 5654.360
154.9651, 5732.587
155.4472, 5817.039
155.9293, 5912.858
156.4115, 6008.370
156.8936, 6098.472
157.3757, 6185.992
157.8578, 6281.944
158.3399, 6396.461
158.8221, 6516.254
159.3042, 6633.738
159.7863, 6740.220
160.2684, 6850.749
160.7505, 6967.099
161.2326, 7090.858
161.7148, 7226.274
162.1969, 7379.997
162.6790, 7545.240
163.1611, 7713.417
163.6432, 7868.835
164.1253, 8038.324
164.6075, 8244.357
165.0896, 8488.034
165.5717, 8729.504
166.0538, 8945.071
166.5359, 9144.813
167.0180, 9343.685
167.5002, 9565.589
167.9823, 9779.735
168.4644, 9970.722
168.9465, 10140.67
169.4286, 10264.84
169.9107, 10324.72
170.3929, 10325.05
170.8750, 10277.23
171.3571, 10191.15
171.8392, 10058.46
172.3213, 9862.896
172.8034, 9595.992
173.2856, 9294.163
173.7677, 8973.869
174.2498, 8640.795
174.7319, 8320.403
175.2140, 8022.156
175.6961, 7747.010
176.1783, 7498.970
176.6604, 7284.269
177.1425, 7092.203
177.6246, 6912.238
178.1067, 6745.986
178.5888, 6591.841
179.0710, 6451.208
179.5531, 6324.170
180.0352, 6214.874
180.5173, 6130.134
180.9994, 6058.808
181.4815, 5982.422
181.9637, 5900.758
182.4458, 5828.102
182.9279, 5780.066
183.4100, 5751.757
183.8921, 5723.509
184.3742, 5687.099
184.8564, 5648.208
185.3385, 5622.640
185.8206, 5610.908
186.3027, 5603.578
186.7848, 5592.844
187.2669, 5578.666
187.7491, 5560.123
188.2312, 5530.737
188.7133, 5496.549
189.1954, 5480.521
189.6775, 5484.266
190.1596, 5499.633
190.6418, 5520.596
191.1239, 5546.871
191.6060, 5570.638
192.0881, 5585.747
192.5702, 5593.859
193.0524, 5610.331
193.5345, 5636.362
194.0166, 5667.470
194.4987, 5698.266
194.9808, 5729.007
195.4629, 5755.662
195.9451, 5770.817
196.4272, 5775.134
196.9093, 5796.284
197.3914, 5839.013
197.8735, 5892.486
198.3556, 5934.405
198.8378, 5962.153
199.3199, 5993.954
199.8020, 6040.082
200.2841, 6100.831
200.7662, 6166.330
201.2483, 6238.114
201.7305, 6312.418
202.2126, 6376.767
202.6947, 6426.827
203.1768, 6483.115
203.6589, 6563.213
204.1410, 6671.361
204.6232, 6766.790
205.1053, 6841.487
205.5874, 6903.066
206.0695, 6977.295
206.5516, 7066.889
207.0337, 7162.002
207.5159, 7256.455
207.9980, 7347.410
208.4801, 7442.466
208.9622, 7541.596
209.4443, 7645.476
209.9264, 7760.186
210.4086, 7892.104
210.8907, 8022.550
211.3728, 8135.030
211.8549, 8226.766
212.3370, 8313.739
212.8191, 8401.317
213.3013, 8487.084
213.7834, 8555.960
214.2655, 8603.739
214.7476, 8641.546
215.2297, 8679.563
215.7118, 8722.526
216.1940, 8753.168
216.6761, 8766.277
217.1582, 8762.661
217.6403, 8760.229
218.1224, 8766.617
218.6045, 8764.097
219.0867, 8731.235
219.5688, 8652.154
220.0509, 8581.269
220.5330, 8535.352
221.0151, 8514.648
221.4972, 8477.977
221.9794, 8420.225
222.4615, 8351.905
222.9436, 8283.454
223.4257, 8216.579
223.9078, 8144.595
224.3899, 8063.431
224.8721, 7970.142
225.3542, 7893.097
225.8363, 7838.067
226.3184, 7793.155
226.8005, 7743.438
227.2827, 7687.013
227.7648, 7629.580
228.2469, 7568.938
228.7290, 7502.286
229.2111, 7456.821
229.6932, 7442.311
230.1754, 7441.590
230.6575, 7431.476
231.1396, 7404.646
231.6217, 7381.592
232.1038, 7369.283
232.5859, 7370.573
233.0681, 7366.183
233.5502, 7349.021
234.0323, 7331.265
234.5144, 7331.208
234.9965, 7355.915
235.4786, 7386.632
235.9608, 7419.073
236.4429, 7453.611
236.9250, 7485.813
237.4071, 7512.671
237.8892, 7538.850
238.3713, 7572.283
238.8535, 7617.147
239.3356, 7662.173
239.8177, 7702.178
240.2998, 7733.213
240.7819, 7775.328
241.2640, 7833.279
241.7462, 7900.206
242.2283, 7965.048
242.7104, 8027.531
243.1925, 8088.492
243.6746, 8149.981
244.1567, 8216.597
244.6389, 8266.751
245.1210, 8289.216
245.6031, 8301.803
246.0852, 8338.291
246.5673, 8415.668
247.0494, 8488.049
247.5316, 8539.221
248.0137, 8564.954
248.4958, 8583.100
248.9779, 8590.576
249.4600, 8592.092
249.9421, 8596.728
250.4243, 8608.001
250.9064, 8616.206
251.3885, 8618.332
251.8706, 8614.798
252.3527, 8602.948
252.8348, 8579.961
253.3170, 8550.499
253.7991, 8524.828
254.2812, 8509.460
254.7633, 8485.756
255.2454, 8441.119
255.7275, 8362.832
256.2097, 8314.886
256.6918, 8311.607
257.1739, 8329.354
257.6560, 8323.159
258.1381, 8283.292
258.6202, 8239.320
259.1024, 8200.614
259.5845, 8167.143
260.0666, 8141.183
260.5487, 8125.250
261.0308, 8114.981
261.5129, 8101.129
261.9951, 8081.417
262.4772, 8063.869
262.9593, 8052.816
263.4414, 8050.255
263.9235, 8043.026
264.4056, 8026.758
264.8878, 8009.841
265.3699, 8005.971
265.8520, 8015.629
266.3341, 8037.014
266.8162, 8074.026
267.2983, 8130.668
267.7805, 8174.504
268.2626, 8202.167
268.7447, 8220.297
269.2268, 8240.151
269.7089, 8262.649
270.1910, 8283.460
270.6732, 8300.161
271.1553, 8311.958
271.6374, 8326.639
272.1195, 8344.236
272.6016, 8364.720
273.0837, 8390.969
273.5659, 8426.397
274.0480, 8450.563
274.5301, 8445.578
275.0122, 8409.319
275.4943, 8415.812
275.9764, 8480.132
276.4586, 8558.841
276.9407, 8583.722
277.4228, 8549.421
277.9049, 8506.112
278.3870, 8470.424
278.8691, 8442.212
279.3513, 8419.136
279.8334, 8402.355
280.3155, 8387.728
280.7976, 8368.771
281.2798, 8345.381
281.7619, 8324.184
282.2440, 8310.494
282.7261, 8302.407
283.2082, 8282.582
283.6903, 8248.070
284.1725, 8212.674
284.6546, 8196.855
285.1367, 8199.890
285.6188, 8198.761
286.1009, 8181.894
286.5830, 8153.960
287.0652, 8134.903
287.5473, 8125.400
288.0294, 8121.751
288.5115, 8122.232
288.9936, 8126.220
289.4757, 8128.116
289.9579, 8121.064
290.4400, 8111.777
290.9221, 8124.089
291.4042, 8159.800
291.8863, 8194.646
292.3684, 8196.727
292.8506, 8174.381
293.3327, 8164.337
293.8148, 8184.406
294.2969, 8220.205
294.7790, 8241.661
295.2611, 8248.832
295.7433, 8258.539
296.2254, 8285.584
296.7075, 8327.237
297.1896, 8374.801
297.6717, 8428.946
298.1538, 8486.072
298.6360, 8543.191
299.1181, 8600.160
299.6002, 8649.099
300.0823, 8673.070
300.5644, 8686.440
301.0465, 8717.904
301.5287, 8782.644
302.0108, 8858.773
302.4929, 8918.696
302.9750, 8966.010
303.4571, 9017.917
303.9392, 9093.024
304.4214, 9178.028
304.9035, 9255.456
305.3856, 9313.643
305.8677, 9372.546
306.3498, 9447.001
306.8319, 9535.193
307.3141, 9632.722
307.7962, 9748.363
308.2783, 9865.401
308.7604, 9968.143
309.2425, 10047.69
309.7246, 10120.39
310.2068, 10194.45
310.6889, 10269.77
311.1710, 10346.88
311.6531, 10423.79
312.1352, 10504.06
312.6173, 10589.62
313.0995, 10679.85
313.5816, 10775.26
314.0637, 10883.99
314.5458, 10998.09
315.0279, 11103.47
315.5100, 11189.51
315.9922, 11269.38
316.4743, 11351.44
316.9564, 11439.26
317.4385, 11518.54
317.9206, 11575.33
318.4027, 11622.85
318.8849, 11679.60
319.3670, 11759.70
319.8491, 11841.81
320.3312, 11922.88
320.8133, 12006.09
321.2954, 12068.20
321.7776, 12096.91
322.2597, 12105.95
322.7418, 12109.99
323.2239, 12103.18
323.7060, 12099.48
324.1881, 12100.47
324.6703, 12105.89
325.1524, 12120.96
325.6345, 12163.70
326.1166, 12206.71
326.5987, 12228.00
327.0808, 12189.03
327.5630, 12173.78
328.0451, 12204.06
328.5272, 12276.93
329.0093, 12327.38
329.4914, 12337.66
329.9735, 12340.58
330.4557, 12356.73
330.9378, 12389.49
331.4199, 12430.04
331.9020, 12479.77
332.3841, 12537.24
332.8662, 12595.51
333.3484, 12652.50
333.8305, 12712.53
334.3126, 12780.43
334.7947, 12860.74
335.2768, 12932.05
335.7589, 12990.02
336.2411, 13040.08
336.7232, 13100.72
337.2053, 13178.50
337.6874, 13246.44
338.1695, 13285.08
338.6516, 13288.07
339.1338, 13317.90
339.6159, 13383.92
340.0980, 13463.37
340.5801, 13517.45
341.0622, 13545.28
341.5443, 13560.74
342.0265, 13569.47
342.5086, 13571.14
342.9907, 13558.69
343.4728, 13528.32
343.9549, 13499.20
344.4370, 13505.84
344.9192, 13543.06
345.4013, 13560.28
345.8834, 13529.43
346.3655, 13468.57
346.8476, 13427.41
347.3297, 13406.71
347.8119, 13388.57
348.2940, 13350.00
348.7761, 13299.81
349.2582, 13266.96
349.7403, 13269.84
350.2225, 13282.47
350.7046, 13263.57
351.1867, 13216.71
351.6688, 13170.67
352.1509, 13153.19
352.6331, 13147.93
353.1152, 13126.96
353.5973, 13072.49
354.0794, 13022.75
354.5615, 13017.99
355.0436, 13047.33
355.5258, 13077.65
356.0079, 13089.53
356.4900, 13095.10
356.9721, 13101.58
357.4542, 13105.77
357.9363, 13125.47
358.4185, 13180.66
358.9006, 13257.06
359.3827, 13329.90
359.8648, 13377.01
360.3469, 13428.01
360.8290, 13500.49
361.3112, 13598.88
361.7933, 13699.32
362.2754, 13794.10
362.7575, 13887.80
363.2396, 13985.82
363.7217, 14092.22
364.2039, 14198.86
364.6860, 14300.46
365.1681, 14397.32
365.6502, 14503.98
366.1323, 14636.96
366.6144, 14772.05
367.0966, 14892.96
367.5787, 14986.41
368.0608, 15079.66
368.5429, 15172.22
369.0250, 15265.60
369.5071, 15366.67
369.9893, 15491.13
370.4714, 15604.65
370.9535, 15690.14
371.4356, 15738.68
371.9177, 15778.90
372.3998, 15818.43
372.8820, 15846.09
373.3641, 15837.27
373.8462, 15790.25
374.3283, 15711.52
374.8104, 15599.23
375.2925, 15449.75
375.7747, 15302.64
376.2568, 15166.20
376.7389, 15013.28
377.2210, 14803.28
377.7031, 14533.18
378.1852, 14250.10
378.6674, 13961.02
379.1495, 13670.52
379.6316, 13388.94
380.1137, 13120.17
380.5958, 12846.20
381.0779, 12540.12
381.5601, 12209.44
382.0422, 11917.09
382.5243, 11681.38
383.0064, 11475.97
383.4885, 11253.94
383.9706, 11016.98
384.4528, 10793.16
384.9349, 10588.75
385.4170, 10411.37
385.8991, 10274.75
386.3812, 10188.19
386.8633, 10114.51
387.3455, 10019.57
387.8276, 9911.048
388.3097, 9804.754
388.7918, 9700.021
389.2739, 9607.479
389.7560, 9537.954
390.2382, 9493.354
390.7203, 9458.583
391.2024, 9430.619
391.6845, 9406.395
392.1666, 9382.025
392.6487, 9358.106
393.1309, 9332.232
393.6130, 9306.070
394.0951, 9278.814
394.5772, 9242.757
395.0593, 9191.187
395.5414, 9133.153
396.0236, 9074.770
396.5057, 9018.198
396.9878, 8959.450
397.4699, 8904.805
397.9520, 8848.778
398.4341, 8774.176
398.9163, 8650.304
399.3984, 8539.812
399.8805, 8468.096
400.3626, 8450.700
400.8447, 8426.231
401.3268, 8393.105
401.8090, 8354.091
402.2911, 8309.045
402.7732, 8249.907
403.2553, 8207.778
403.7374, 8197.148
404.2195, 8215.533
404.7017, 8214.697
405.1838, 8188.334
405.6659, 8159.674
406.1480, 8154.677
406.6301, 8173.855
407.1122, 8178.041
407.5944, 8152.963
408.0765, 8116.324
408.5586, 8115.482
409.0407, 8149.736
409.5228, 8184.964
410.0049, 8198.887
410.4871, 8196.142
410.9692, 8187.891
411.4513, 8173.736
411.9334, 8160.137
412.4155, 8152.701
412.8976, 8151.434
413.3798, 8156.357
413.8619, 8176.651
414.3440, 8197.822
414.8261, 8203.007
415.3082, 8191.905
415.7903, 8178.443
416.2725, 8173.292
416.7546, 8170.209
417.2367, 8161.723
417.7188, 8137.635
418.2009, 8116.583
418.6830, 8111.504
419.1652, 8117.752
419.6473, 8118.471
420.1294, 8112.517
420.6115, 8096.271
421.0937, 8063.264
421.5758, 7994.327
422.0579, 7949.795
422.5400, 7961.502
423.0221, 7997.185
423.5042, 8004.125
423.9864, 7968.314
424.4685, 7917.221
424.9506, 7847.100
425.4327, 7755.214
425.9148, 7694.517
426.3969, 7685.083
426.8791, 7683.968
427.3612, 7651.896
427.8433, 7577.069
428.3254, 7509.521
428.8075, 7460.069
429.2896, 7421.187
429.7718, 7367.659
430.2539, 7297.619
430.7360, 7222.772
431.2181, 7147.460
431.7002, 7072.254
432.1823, 7006.857
432.6645, 6953.268
433.1466, 6904.199
433.6287, 6848.529
434.1108, 6788.373
434.5929, 6733.962
435.0750, 6688.476
435.5572, 6652.389
436.0393, 6631.384
436.5214, 6624.687
437.0035, 6615.822
437.4856, 6588.423
437.9677, 6552.004
438.4499, 6519.898
438.9320, 6496.429
439.4141, 6476.456
439.8962, 6453.998
440.3783, 6432.064
440.8604, 6417.754
441.3426, 6424.005
441.8247, 6431.569
442.3068, 6427.161
442.7889, 6405.445
443.2710, 6390.616
443.7531, 6391.346
444.2353, 6401.401
444.7174, 6413.904
445.1995, 6433.078
445.6816, 6448.812
446.1637, 6454.911
446.6458, 6453.120
447.1280, 6463.932
447.6101, 6496.214
448.0922, 6531.438
448.5743, 6558.691
449.0564, 6573.910
449.5385, 6592.354
450.0207, 6613.714
450.5028, 6638.996
450.9849, 6671.068
451.4670, 6710.753
451.9491, 6751.846
452.4312, 6795.219
452.9134, 6838.992
453.3955, 6867.544
453.8776, 6879.168
454.3597, 6887.221
454.8418, 6902.610
455.3239, 6924.974
455.8061, 6953.440
456.2882, 6991.910
456.7703, 7030.526
457.2524, 7056.515
457.7345, 7070.772
458.2166, 7077.345
458.6988, 7072.934
459.1809, 7064.804
459.6630, 7061.835
460.1451, 7065.809
460.6272, 7068.159
461.1093, 7065.340
461.5915, 7057.192
462.0736, 7043.498
462.5557, 7016.490
463.0378, 6991.467
463.5199, 6976.074
464.0020, 6969.032
464.4842, 6959.666
464.9663, 6940.255
465.4484, 6922.166
465.9305, 6911.604
466.4126, 6913.900
466.8947, 6914.412
467.3769, 6910.841
467.8590, 6906.485
468.3411, 6907.430
468.8232, 6917.741
469.3053, 6925.070
469.7874, 6924.824
470.2696, 6917.626
470.7517, 6915.707
471.2338, 6920.466
471.7159, 6926.193
472.1980, 6927.988
472.6801, 6925.917
473.1623, 6922.020
473.6444, 6914.665
474.1265, 6909.308
474.6086, 6921.971
475.0907, 6948.803
475.5728, 6964.898
476.0550, 6946.070
476.5371, 6911.878
477.0192, 6895.320
477.5013, 6897.564
477.9834, 6903.394
478.4655, 6906.755
478.9477, 6904.862
479.4298, 6893.433
479.9119, 6862.185
480.3940, 6832.371
480.8761, 6816.748
481.3582, 6811.624
481.8404, 6806.666
482.3225, 6803.750
482.8046, 6795.917
483.2867, 6778.787
483.7688, 6749.059
484.2509, 6720.251
484.7331, 6679.863
485.2152, 6648.182
485.6973, 6645.965
486.1794, 6698.205
486.6615, 6737.121
487.1436, 6751.098
487.6258, 6744.612
488.1079, 6736.875
488.5900, 6725.572
489.0721, 6719.631
489.5542, 6729.562
490.0363, 6755.701
490.5185, 6759.297
491.0006, 6733.647
491.4827, 6704.434
491.9648, 6707.451
492.4470, 6737.944
492.9291, 6771.240
493.4112, 6803.270
493.8933, 6829.155
494.3754, 6836.186
494.8575, 6827.042
495.3397, 6818.180
495.8218, 6826.035
496.3039, 6837.059
496.7860, 6835.351
497.2681, 6815.965
497.7502, 6794.210
498.2324, 6774.798
498.7145, 6758.793
499.1966, 6747.281
499.6787, 6748.103
500.1608, 6746.060
500.6429, 6734.507
501.1251, 6714.118
501.6072, 6697.136
502.0893, 6687.103
502.5714, 6678.057
503.0535, 6667.536
503.5356, 6656.441
504.0178, 6641.618
504.4999, 6621.967
504.9820, 6599.688
505.4641, 6578.253
505.9462, 6558.511
506.4283, 6535.463
506.9105, 6506.868
507.3926, 6474.217
507.8747, 6442.241
508.3568, 6410.663
508.8389, 6383.032
509.3210, 6357.640
509.8032, 6337.805
510.2853, 6333.268
510.7674, 6346.443
511.2495, 6369.783
511.7316, 6408.030
512.2137, 6450.207
512.6959, 6473.566
513.1780, 6451.000
513.6601, 6421.505
514.1422, 6411.581
514.6243, 6418.709
515.1064, 6423.701
515.5886, 6414.373
516.0707, 6403.854
516.5528, 6399.883
517.0349, 6403.562
517.5170, 6413.434
517.9991, 6438.877
518.4813, 6466.695
518.9634, 6478.835
519.4455, 6462.043
519.9276, 6452.430
520.4097, 6458.672
520.8918, 6478.429
521.3740, 6496.897
521.8561, 6513.052
522.3382, 6531.315
522.8203, 6558.371
523.3024, 6592.897
523.7845, 6614.888
524.2667, 6621.981
524.7488, 6621.563
525.2309, 6617.123
525.7130, 6611.864
526.1951, 6617.798
526.6772, 6649.467
527.1594, 6684.502
527.6415, 6693.993
528.1236, 6682.499
528.6057, 6670.133
529.0878, 6661.559
529.5699, 6661.039
530.0521, 6674.477
530.5342, 6706.290
531.0163, 6735.622
531.4984, 6754.002
531.9805, 6767.568
532.4626, 6782.951
532.9448, 6816.921
533.4269, 6832.687
533.9090, 6810.356
534.3911, 6765.111
534.8732, 6760.092
535.3553, 6816.669
535.8375, 6873.694
536.3196, 6904.000
536.8017, 6906.854
537.2838, 6904.662
537.7659, 6894.647
538.2480, 6888.723
538.7302, 6904.975
539.2123, 6939.646
539.6944, 6965.091
540.1765, 6973.100
540.6586, 6973.420
541.1407, 6980.606
541.6229, 6992.267
542.1050, 6999.952
542.5871, 6993.047
543.0692, 6984.117
543.5513, 6988.583
544.0334, 7006.974
544.5156, 7016.545
544.9977, 6994.409
545.4798, 6966.100
545.9619, 6952.817
546.4440, 6976.913
546.9261, 6988.770
547.4083, 6973.140
547.8904, 6942.613
548.3725, 6919.521
548.8546, 6902.443
549.3367, 6895.330
549.8188, 6903.082
550.3010, 6923.721
550.7831, 6931.648
551.2652, 6922.470
551.7473, 6915.254
552.2294, 6926.604
552.7115, 6954.334
553.1937, 6976.284
553.6758, 6990.356
554.1579, 7000.068
554.6400, 7005.355
555.1221, 7009.398
555.6042, 7021.856
556.0864, 7056.645
556.5685, 7090.900
557.0506, 7094.719
557.5327, 7076.936
558.0148, 7070.380
558.4969, 7101.271
558.9791, 7140.719
559.4612, 7168.781
559.9433, 7179.055
560.4254, 7200.051
560.9075, 7242.570
561.3896, 7294.962
561.8718, 7347.989
562.3539, 7408.998
562.8360, 7457.195
563.3181, 7484.089
563.8002, 7500.096
564.2823, 7530.347
564.7645, 7575.674
565.2466, 7630.685
565.7287, 7695.391
566.2108, 7767.904
566.6929, 7836.551
567.1750, 7900.431
567.6572, 7968.421
568.1393, 8045.333
568.6214, 8131.055
569.1035, 8223.414
569.5856, 8323.481
570.0677, 8427.849
570.5499, 8531.756
571.0320, 8639.680
571.5141, 8759.293
571.9962, 8897.460
572.4783, 9043.781
572.9604, 9196.174
573.4426, 9352.706
573.9247, 9508.445
574.4068, 9647.828
574.8889, 9798.801
575.3710, 9973.639
575.8531, 10175.06
576.3353, 10374.04
576.8174, 10566.79
577.2995, 10759.92
577.7816, 10962.78
578.2637, 11175.24
578.7458, 11388.74
579.2280, 11601.03
579.7101, 11815.70
580.1922, 12048.61
580.6743, 12294.01
581.1564, 12519.45
581.6385, 12706.21
582.1207, 12866.92
582.6028, 13017.16
583.0849, 13154.31
583.5670, 13268.41
584.0491, 13355.70
584.5313, 13415.77
585.0134, 13447.76
585.4955, 13450.40
585.9776, 13428.79
586.4597, 13392.94
586.9418, 13329.10
587.4240, 13219.88
587.9061, 13023.39
588.3882, 12847.68
588.8703, 12712.96
589.3524, 12604.03
589.8345, 12475.79
590.3167, 12324.69
590.7988, 12166.31
591.2809, 12005.31
591.7630, 11843.58
592.2451, 11699.10
592.7272, 11572.18
593.2094, 11455.00
593.6915, 11353.52
594.1736, 11254.64
594.6557, 11126.19
595.1378, 10957.63
595.6199, 10793.24
596.1021, 10668.81
596.5842, 10569.57
597.0663, 10474.08
597.5485, 10373.66
598.0306, 10278.85
598.5127, 10200.19
598.9948, 10132.06
599.4769, 10048.70
599.9590, 9936.399
600.4412, 9822.196
600.9233, 9713.057
601.4054, 9607.827
601.8875, 9520.847
602.3696, 9460.344
602.8517, 9399.278
603.3339, 9312.629
603.8160, 9202.187
604.2981, 9102.531
604.7802, 9021.630
605.2623, 8940.566
605.7444, 8828.758
606.2266, 8696.878
606.7087, 8579.124
607.1908, 8492.517
607.6729, 8417.232
608.1550, 8340.634
608.6371, 8262.545
609.1193, 8179.731
609.6014, 8080.403
610.0835, 7985.592
610.5656, 7909.312
611.0477, 7855.027
611.5298, 7797.711
612.0120, 7738.051
612.4941, 7674.155
612.9762, 7605.535
613.4583, 7532.760
613.9404, 7450.864
614.4225, 7352.568
614.9047, 7258.389
615.3868, 7202.859
615.8689, 7182.513
616.3510, 7156.923
616.8331, 7110.280
617.3152, 7057.660
617.7974, 7027.380
618.2795, 7012.886
618.7616, 6987.213
619.2437, 6920.971
619.7258, 6848.988
620.2079, 6794.057
620.6901, 6757.906
621.1722, 6735.947
621.6543, 6747.433
622.1364, 6757.953
622.6185, 6741.346
623.1006, 6668.586
623.5828, 6632.564
624.0649, 6656.403
624.5470, 6695.770
625.0291, 6694.199
625.5112, 6642.885
625.9933, 6596.989
626.4755, 6565.768
626.9576, 6546.780
627.4397, 6538.789
627.9218, 6540.575
628.4039, 6542.833
628.8860, 6539.880
629.3682, 6535.330
629.8503, 6536.454
630.3324, 6541.979
630.8145, 6542.170
631.2966, 6527.639
631.7787, 6508.351
632.2609, 6491.142
632.7430, 6477.369
633.2251, 6463.758
633.7072, 6443.624
634.1893, 6427.418
634.6714, 6425.255
635.1536, 6449.000
635.6357, 6459.104
636.1178, 6446.373
636.5999, 6425.329
637.0820, 6426.124
637.5641, 6449.911
638.0463, 6466.672
638.5284, 6463.644
639.0105, 6450.399
639.4926, 6445.140
639.9747, 6446.988
640.4568, 6450.896
640.9390, 6458.941
641.4211, 6464.295
641.9032, 6456.571
642.3853, 6435.135
642.8674, 6421.308
643.3495, 6431.348
643.8317, 6446.825
644.3138, 6455.127
644.7959, 6451.774
645.2780, 6446.629
645.7601, 6438.099
646.2422, 6429.201
646.7244, 6421.799
647.2065, 6414.283
647.6886, 6418.386
648.1707, 6439.959
648.6528, 6468.750
649.1349, 6486.513
649.6171, 6493.488
650.0992, 6492.177
650.5813, 6470.286
651.0634, 6449.096
651.5455, 6463.499
652.0276, 6506.351
652.5098, 6538.576
652.9919, 6521.627
653.4740, 6501.336
653.9561, 6511.236
654.4382, 6562.078
654.9203, 6596.545
655.4025, 6592.809
655.8846, 6582.712
656.3667, 6587.874
656.8488, 6614.895
657.3309, 6637.454
657.8130, 6654.158
658.2952, 6667.360
658.7773, 6677.391
659.2594, 6685.168
659.7415, 6701.832
660.2236, 6734.073
660.7057, 6770.318
661.1879, 6789.848
661.6700, 6799.100
662.1521, 6815.848
662.6342, 6862.251
663.1163, 6907.193
663.5984, 6926.542
664.0806, 6923.585
664.5627, 6928.583
665.0448, 6940.720
665.5269, 6970.639
666.0090, 7029.188
666.4911, 7122.989
666.9733, 7191.230
667.4554, 7227.745
667.9375, 7250.918
668.4196, 7269.952
668.9017, 7285.578
669.3839, 7318.825
669.8660, 7373.497
670.3481, 7435.859
670.8302, 7485.001
671.3123, 7530.034
671.7944, 7592.708
672.2766, 7691.012
672.7587, 7789.248
673.2408, 7866.122
673.7229, 7926.255
674.2050, 7980.312
674.6871, 8003.533
675.1693, 8051.266
675.6514, 8156.874
676.1335, 8305.179
676.6156, 8410.127
677.0977, 8446.066
677.5798, 8496.992
678.0620, 8607.243
678.5441, 8769.692
679.0262, 8902.046
679.5083, 9003.721
679.9904, 9103.016
680.4725, 9222.790
680.9547, 9355.420
681.4368, 9490.913
681.9189, 9627.328
682.4010, 9762.640
682.8831, 9894.425
683.3652, 10023.65
683.8474, 10149.23
684.3295, 10265.42
684.8116, 10386.86
685.2937, 10517.16
685.7758, 10653.58
686.2579, 10792.71
686.7401, 10939.20
687.2222, 11073.64
687.7043, 11187.73
688.1864, 11290.99
688.6685, 11413.62
689.1506, 11553.28
689.6328, 11671.64
690.1149, 11745.22
690.5970, 11792.84
691.0791, 11850.97
691.5612, 11912.71
692.0433, 11942.05
692.5255, 11897.03
693.0076, 11832.44
693.4897, 11787.12
693.9718, 11767.49
694.4539, 11722.88
694.9360, 11650.64
695.4182, 11548.07
695.9003, 11406.47
696.3824, 11217.22
696.8645, 11033.74
697.3466, 10857.32
697.8287, 10683.31
698.3109, 10505.61
698.7930, 10325.49
699.2751, 10150.77
699.7572, 9986.475
700.2393, 9820.641
700.7214, 9635.080
701.2036, 9441.259
701.6857, 9258.297
702.1678, 9095.958
702.6499, 8942.181
703.1320, 8786.053
703.6141, 8635.395
704.0963, 8510.602
704.5784, 8434.208
705.0605, 8347.144
705.5426, 8230.702
706.0247, 8093.983
706.5068, 7982.226
706.9890, 7897.262
707.4711, 7816.913
707.9532, 7731.402
708.4353, 7642.092
708.9174, 7548.518
709.3995, 7452.279
709.8817, 7373.306
710.3638, 7337.084
710.8459, 7317.256
711.3280, 7294.854
711.8101, 7268.375
712.2922, 7231.216
712.7744, 7167.747
713.2565, 7102.851
713.7386, 7052.352
714.2207, 7019.594
714.7028, 6993.866
715.1849, 6978.296
715.6671, 6963.879
716.1492, 6937.665
716.6313, 6901.166
717.1134, 6869.691
717.5955, 6846.204
718.0776, 6828.205
718.5598, 6813.836
719.0419, 6802.903
719.5240, 6795.471
720.0061, 6801.650
720.4882, 6798.925
720.9703, 6763.071
721.4525, 6711.630
721.9346, 6684.467
722.4167, 6706.473
722.8988, 6727.724
723.3809, 6741.811
723.8630, 6748.024
724.3452, 6739.785
724.8273, 6714.409
725.3094, 6694.230
725.7915, 6693.859
726.2736, 6704.866
726.7557, 6702.332
727.2379, 6688.534
727.7200, 6681.397
728.2021, 6706.398
728.6842, 6733.117
729.1663, 6732.389
729.6484, 6700.923
730.1306, 6675.044
730.6127, 6662.363
731.0948, 6660.823
731.5769, 6670.002
732.0590, 6693.115
732.5411, 6713.942
733.0233, 6732.004
733.5054, 6748.856
733.9875, 6766.444
734.4696, 6784.438
734.9517, 6800.149
735.4338, 6813.586
735.9160, 6823.488
736.3981, 6831.721
736.8802, 6834.604
737.3623, 6824.515
737.8444, 6787.286
738.3266, 6760.500
738.8087, 6759.962
739.2908, 6777.799
739.7729, 6803.612
740.2551, 6846.476
740.7372, 6878.763
741.2193, 6893.468
741.7014, 6899.182
742.1835, 6915.017
742.6656, 6941.045
743.1478, 6964.484
743.6299, 6979.402
744.1120, 6992.056
744.5941, 7015.819
745.0762, 7046.095
745.5583, 7069.368
746.0405, 7065.454
746.5226, 7065.002
747.0047, 7092.519
747.4868, 7141.651
747.9689, 7173.267
748.4510, 7169.543
748.9332, 7164.141
749.4153, 7164.032
749.8974, 7170.070
750.3795, 7194.460
750.8616, 7238.896
751.3438, 7287.394
751.8259, 7333.014
752.3080, 7374.437
752.7901, 7409.877
753.2722, 7439.105
753.7543, 7462.262
754.2365, 7470.970
754.7186, 7479.515
755.2007, 7500.323
755.6828, 7537.128
756.1649, 7573.190
756.6470, 7612.232
757.1292, 7644.435
757.6113, 7659.475
758.0934, 7647.993
758.5755, 7663.417
759.0576, 7709.952
759.5397, 7770.008
760.0219, 7835.631
760.5040, 7900.500
760.9861, 7939.287
761.4682, 7944.292
761.9503, 7942.247
762.4324, 7944.268
762.9146, 7955.569
763.3967, 7982.910
763.8788, 8037.617
764.3609, 8092.637
764.8430, 8147.906
765.3251, 8198.450
765.8073, 8237.556
766.2894, 8261.381
766.7715, 8289.228
767.2536, 8325.459
767.7357, 8363.100
768.2178, 8384.340
768.7000, 8395.289
769.1821, 8421.352
769.6642, 8475.521
770.1463, 8540.245
770.6284, 8611.775
771.1105, 8681.474
771.5927, 8732.644
772.0748, 8738.670
772.5569, 8750.399
773.0390, 8777.516
773.5211, 8818.669
774.0032, 8872.327
774.4854, 8940.781
774.9675, 9013.808
775.4496, 9090.854
775.9317, 9168.334
776.4138, 9236.578
776.8959, 9296.268
777.3781, 9354.311
777.8602, 9412.858
778.3423, 9472.259
778.8244, 9529.716
779.3065, 9587.832
779.7886, 9657.354
780.2708, 9757.621
780.7529, 9852.977
781.2350, 9932.676
781.7171, 9997.981
782.1992, 10058.04
782.6813, 10108.69
783.1635, 10168.69
783.6456, 10254.59
784.1277, 10355.83
784.6098, 10438.60
785.0919, 10504.25
785.5740, 10569.46
786.0562, 10652.99
786.5383, 10735.82
787.0204, 10798.25
787.5025, 10839.82
787.9846, 10884.29
788.4667, 10946.70
788.9489, 11003.61
789.4310, 11041.61
789.9131, 11058.44
790.3952, 11092.72
790.8773, 11144.39
791.3594, 11212.64
791.8416, 11313.45
792.3237, 11427.78
792.8058, 11496.59
793.2879, 11518.38
793.7700, 11541.63
794.2521, 11619.93
794.7343, 11700.82
795.2164, 11733.04
795.6985, 11695.46
796.1806, 11682.04
796.6627, 11719.69
797.1448, 11764.82
797.6270, 11787.83
798.1091, 11784.68
798.5912, 11790.98
799.0733, 11806.87
799.5554, 11833.33
800.0375, 11884.88
800.5197, 11943.81
801.0018, 11970.83
801.4839, 11956.62
801.9660, 11943.68
802.4481, 11960.10
802.9302, 11987.65
803.4124, 12010.94
803.8945, 12024.52
804.3766, 12041.04
804.8587, 12058.74
805.3408, 12081.70
805.8229, 12121.67
806.3051, 12178.34
806.7872, 12202.43
807.2693, 12186.85
807.7514, 12156.12
808.2335, 12118.00
808.7156, 12087.25
809.1978, 12093.41
809.6799, 12158.27
810.1620, 12207.02
810.6441, 12192.28
811.1262, 12155.77
811.6083, 12138.71
812.0905, 12150.97
812.5726, 12161.76
813.0547, 12168.74
813.5368, 12177.34
814.0189, 12198.88
814.5010, 12229.54
814.9832, 12246.25
815.4653, 12244.13
815.9474, 12232.89
816.4295, 12216.63
816.9116, 12198.58
817.3937, 12182.24
817.8759, 12166.04
818.3580, 12156.75
818.8401, 12166.14
819.3222, 12176.31
819.8043, 12168.53
820.2864, 12137.64
820.7686, 12110.98
821.2507, 12089.34
821.7328, 12077.85
822.2149, 12092.82
822.6970, 12122.78
823.1791, 12134.83
823.6613, 12113.08
824.1434, 12100.72
824.6255, 12143.07
825.1076, 12202.92
825.5897, 12238.24
826.0718, 12205.55
826.5540, 12200.97
827.0361, 12232.56
827.5182, 12283.19
828.0003, 12337.12
828.4824, 12393.81
828.9645, 12444.26
829.4467, 12487.07
829.9288, 12522.34
830.4109, 12540.78
830.8930, 12554.67
831.3751, 12583.23
831.8572, 12632.36
832.3394, 12693.83
832.8215, 12775.92
833.3036, 12863.65
833.7857, 12939.60
834.2678, 12994.06
834.7499, 13062.08
835.2321, 13145.90
835.7142, 13242.31
836.1963, 13348.77
836.6784, 13465.05
837.1605, 13590.44
837.6426, 13727.13
838.1248, 13857.01
838.6069, 13958.81
839.0890, 14049.35
839.5711, 14145.42
840.0532, 14249.94
840.5353, 14361.89
841.0175, 14484.02
841.4996, 14610.44
841.9817, 14733.64
842.4638, 14853.94
842.9459, 14979.86
843.4280, 15115.50
843.9102, 15239.47
844.3923, 15304.10
844.8744, 15349.51
845.3565, 15448.94
845.8386, 15638.35
846.3207, 15802.86
846.8029, 15883.46
847.2850, 15926.16
847.7671, 15969.46
848.2492, 16006.03
848.7313, 16071.74
849.2134, 16179.71
849.6956, 16282.04
850.1777, 16330.62
850.6598, 16334.17
851.1419, 16317.81
851.6240, 16282.48
852.1061, 16247.49
852.5883, 16219.46
853.0704, 16203.22
853.5525, 16208.34
854.0346, 16252.61
854.5167, 16264.82
854.9988, 16230.37
855.4810, 16178.16
855.9631, 16120.51
856.4452, 16056.82
856.9273, 16026.72
857.4094, 16033.43
857.8915, 16043.18
858.3737, 16024.98
858.8558, 15993.08
859.3379, 15963.05
859.8200, 15936.65
860.3021, 15917.45
860.7842, 15918.41
861.2664, 15917.07
861.7485, 15896.34
862.2306, 15851.47
862.7127, 15835.49
863.1948, 15851.22
863.6769, 15882.86
864.1591, 15920.06
864.6412, 15964.77
865.1233, 16020.48
865.6054, 16088.25
866.0875, 16172.83
866.5696, 16276.61
867.0518, 16399.84
867.5339, 16537.84
868.0160, 16693.10
868.4981, 16888.36
868.9802, 17127.80
869.4623, 17398.54
869.9445, 17689.52
870.4266, 18005.39
870.9087, 18363.93
871.3908, 18769.85
871.8729, 19220.11
872.3550, 19736.07
872.8372, 20283.03
873.3193, 20807.76
873.8014, 21330.45
874.2835, 21941.13
874.7656, 22710.12
875.2477, 23515.35
875.7299, 24332.01
876.2120, 25159.13
876.6941, 26012.79
877.1762, 26889.41
877.6583, 27831.73
878.1404, 28877.48
878.6226, 29966.64
879.1047, 31031.42
879.5869, 32071.32
880.0690, 33110.96
880.5511, 34162.60
881.0332, 35209.41
881.5153, 36258.58
881.9974, 37294.16
882.4796, 38310.54
882.9617, 39313.54
883.4438, 40263.38
883.9259, 41131.51
884.4080, 41960.54
884.8901, 42865.59
885.3723, 43776.36
885.8544, 44527.47
886.3365, 45008.19
886.8186, 45394.34
887.3007, 45753.35
887.7828, 46058.38
888.2650, 46275.91
888.7471, 46398.52
889.2292, 46456.54
889.7113, 46462.20
890.1934, 46380.75
890.6755, 46140.22
891.1577, 45775.16
891.6398, 45388.31
892.1219, 45007.52
892.6040, 44578.13
893.0861, 44040.90
893.5682, 43455.70
894.0504, 42880.75
894.5325, 42347.24
895.0146, 41764.81
895.4967, 41115.75
895.9788, 40452.54
896.4609, 39822.23
896.9431, 39221.35
897.4252, 38651.86
897.9073, 38114.55
898.3894, 37576.65
898.8715, 36971.61
899.3536, 36372.41
899.8358, 35837.25
900.3179, 35380.68
900.8000, 34933.07
901.2821, 34493.43
901.7642, 34055.69
902.2463, 33601.95
902.7285, 33146.36
903.2106, 32739.29
903.6927, 32381.76
904.1748, 32054.18
904.6569, 31778.88
905.1390, 31497.70
905.6212, 31125.35
906.1033, 30690.30
906.5854, 30296.61
907.0675, 30009.25
907.5496, 29731.51
908.0317, 29452.75
908.5139, 29164.49
908.9960, 28815.48
909.4781, 28406.74
909.9602, 28044.66
910.4423, 27791.58
910.9244, 27568.78
911.4066, 27297.01
911.8887, 26986.04
912.3708, 26649.29
912.8529, 26245.54
913.3350, 25878.97
913.8171, 25593.30
914.2993, 25337.44
914.7814, 25040.48
915.2635, 24697.57
915.7456, 24382.97
916.2277, 24112.92
916.7098, 23846.91
917.1920, 23530.62
917.6741, 23194.19
918.1562, 22883.03
918.6383, 22613.49
919.1204, 22354.67
919.6025, 22112.86
920.0847, 21866.32
920.5668, 21595.58
921.0489, 21292.11
921.5310, 21018.00
922.0131, 20775.12
922.4952, 20553.60
922.9774, 20352.13
923.4595, 20164.64
923.9416, 19986.72
924.4237, 19817.41
924.9058, 19639.98
925.3879, 19421.34
925.8701, 19219.17
926.3522, 19056.61
926.8343, 18929.55
927.3164, 18813.04
927.7985, 18707.83
928.2806, 18599.70
928.7628, 18469.89
929.2449, 18346.56
929.7270, 18281.66
930.2091, 18259.45
930.6912, 18235.46
931.1733, 18187.21
931.6555, 18140.15
932.1376, 18098.61
932.6197, 18064.62
933.1018, 18042.03
933.5839, 18030.78
934.0660, 18031.56
934.5482, 18046.61
935.0303, 18066.99
935.5124, 18079.77
935.9945, 18090.38
936.4766, 18108.09
936.9587, 18136.21
937.4409, 18169.00
937.9230, 18207.44
938.4051, 18248.27
938.8872, 18286.98
939.3693, 18320.91
939.8514, 18375.95
940.3336, 18455.16
940.8157, 18529.32
941.2978, 18564.73
941.7799, 18584.93
942.2620, 18628.69
942.7441, 18696.38
943.2263, 18754.90
943.7084, 18795.69
944.1905, 18818.32
944.6726, 18829.09
945.1547, 18823.64
945.6368, 18770.86
946.1190, 18668.65
946.6011, 18546.46
947.0832, 18415.86
947.5653, 18273.81
948.0474, 18127.81
948.5295, 17964.78
949.0117, 17754.26
949.4938, 17440.69
949.9759, 17136.55
950.4580, 16881.03
950.9401, 16631.37
951.4222, 16318.59
951.9044, 15940.23
952.3865, 15578.37
952.8686, 15249.10
953.3507, 14924.14
953.8328, 14568.35
954.3149, 14201.35
954.7971, 13841.43
955.2792, 13492.94
955.7613, 13176.61
956.2434, 12909.47
956.7255, 12656.82
957.2076, 12391.92
957.6898, 12115.37
958.1719, 11895.01
958.6540, 11728.25
959.1361, 11558.90
959.6182, 11326.57
960.1003, 11088.53
960.5825, 10897.03
961.0646, 10747.33
961.5467, 10599.92
962.0288, 10438.92
962.5109, 10294.89
962.9930, 10182.48
963.4752, 10088.57
963.9573, 9977.577
964.4394, 9855.449
964.9215, 9755.990
965.4036, 9702.495
965.8857, 9650.104
966.3679, 9557.475
966.8500, 9446.549
967.3321, 9344.694
967.8142, 9256.555
968.2963, 9177.964
968.7784, 9110.053
969.2606, 9050.651
969.7427, 8998.666
970.2248, 8954.084
970.7069, 8921.810
971.1890, 8902.055
971.6711, 8872.918
972.1533, 8804.631
972.6354, 8735.313
973.1175, 8696.229
973.5996, 8687.257
974.0817, 8661.664
974.5638, 8614.313
975.0460, 8569.053
975.5281, 8538.305
976.0102, 8513.011
976.4923, 8467.379
976.9744, 8410.161
977.4565, 8367.074
977.9387, 8367.192
978.4208, 8362.438
978.9029, 8328.061
979.3850, 8283.117
979.8671, 8253.439
980.3492, 8241.921
980.8314, 8230.344
981.3135, 8217.130
981.7956, 8201.635
982.2777, 8181.625
982.7598, 8159.354
983.2419, 8137.950
983.7241, 8117.938
984.2062, 8098.292
984.6883, 8069.196
985.1704, 8051.111
985.6525, 8059.069
986.1346, 8088.933
986.6168, 8091.405
987.0989, 8067.531
987.5810, 8050.042
988.0631, 8061.016
988.5452, 8084.289
989.0273, 8118.815
989.5095, 8153.028
989.9916, 8155.703
990.4737, 8081.192
990.9558, 8039.705
991.4379, 8056.128
991.9200, 8093.896
992.4022, 8095.634
992.8843, 8068.623
993.3664, 8040.020
993.8485, 8012.060
994.3306, 8002.118
994.8127, 8043.838
995.2949, 8094.298
995.7770, 8112.758
996.2591, 8092.221
996.7412, 8079.329
997.2233, 8075.202
997.7054, 8075.015
998.1876, 8076.204
998.6697, 8079.175
999.1518, 8089.764
999.6339, 8104.110
1000.116, 8107.115
1000.598, 8072.889
1001.080, 8048.470
1001.562, 8057.252
1002.044, 8082.483
1002.527, 8092.618
1003.009, 8085.765
1003.491, 8093.496
1003.973, 8125.586
1004.455, 8155.549
1004.937, 8145.744
1005.419, 8120.084
1005.901, 8107.591
1006.384, 8113.962
1006.866, 8133.077
1007.348, 8177.892
1007.830, 8213.194
1008.312, 8215.790
1008.794, 8191.345
1009.276, 8167.787
1009.758, 8146.454
1010.240, 8137.257
1010.723, 8155.063
1011.205, 8177.876
1011.687, 8191.274
1012.169, 8199.107
1012.651, 8213.743
1013.133, 8242.046
1013.615, 8255.439
1014.097, 8244.466
1014.580, 8231.245
1015.062, 8248.904
1015.544, 8285.744
1016.026, 8326.237
1016.508, 8372.720
1016.990, 8389.282
1017.472, 8319.770
1017.954, 8255.480
1018.436, 8254.843
1018.919, 8313.905
1019.401, 8342.382
1019.883, 8340.189
1020.365, 8337.977
1020.847, 8351.253
1021.329, 8374.729
1021.811, 8412.338
1022.293, 8455.314
1022.776, 8482.554
1023.258, 8480.471
1023.740, 8477.608
1024.222, 8475.295
1024.704, 8475.480
1025.186, 8480.273
1025.668, 8489.813
1026.150, 8507.161
1026.632, 8533.781
1027.115, 8554.457
1027.597, 8548.738
1028.079, 8543.540
1028.561, 8560.841
1029.043, 8599.293
1029.525, 8624.198
1030.007, 8633.338
1030.489, 8644.108
1030.972, 8666.259
1031.454, 8692.335
1031.936, 8711.383
1032.418, 8726.747
1032.900, 8745.276
1033.382, 8773.746
1033.864, 8798.245
1034.346, 8809.979
1034.828, 8826.904
1035.311, 8878.055
1035.793, 8955.921
1036.275, 9001.715
1036.757, 9010.923
1037.239, 9024.716
1037.721, 9080.873
1038.203, 9144.797
1038.685, 9191.044
1039.167, 9220.528
1039.650, 9253.944
1040.132, 9290.121
1040.614, 9335.310
1041.096, 9393.894
1041.578, 9456.925
1042.060, 9510.857
1042.542, 9557.156
1043.024, 9598.252
1043.507, 9626.646
1043.989, 9665.862
1044.471, 9725.906
1044.953, 9791.649
1045.435, 9854.442
1045.917, 9913.750
1046.399, 9959.099
1046.881, 9991.498
1047.364, 10038.35
1047.846, 10127.02
1048.328, 10228.30
1048.810, 10327.14
1049.292, 10421.78
1049.774, 10509.71
1050.256, 10589.45
1050.738, 10667.88
1051.220, 10746.64
1051.703, 10823.62
1052.185, 10885.55
1052.667, 10944.85
1053.149, 11023.66
1053.631, 11129.81
1054.113, 11238.92
1054.595, 11345.77
1055.077, 11453.21
1055.559, 11566.82
1056.042, 11682.51
1056.524, 11774.44
1057.006, 11845.14
1057.488, 11915.16
1057.970, 11996.77
1058.452, 12080.14
1058.934, 12170.21
1059.416, 12255.01
1059.899, 12310.89
1060.381, 12330.04
1060.863, 12350.12
1061.345, 12375.71
1061.827, 12395.89
1062.309, 12393.78
1062.791, 12382.11
1063.273, 12382.47
1063.755, 12396.22
1064.238, 12401.34
1064.720, 12401.28
1065.202, 12377.85
1065.684, 12321.65
1066.166, 12241.32
1066.648, 12160.51
1067.130, 12078.51
1067.612, 11984.85
1068.094, 11873.35
1068.577, 11756.28
1069.059, 11635.12
1069.541, 11514.89
1070.023, 11402.23
1070.505, 11302.12
1070.987, 11173.57
1071.469, 11013.12
1071.951, 10843.38
1072.434, 10667.75
1072.916, 10498.41
1073.398, 10351.13
1073.880, 10220.54
1074.362, 10089.09
1074.844, 9949.322
1075.326, 9810.192
1075.808, 9670.149
1076.291, 9533.073
1076.773, 9402.729
1077.255, 9278.769
1077.737, 9163.756
1078.219, 9059.517
1078.701, 8960.797
1079.183, 8872.151
1079.665, 8782.938
1080.147, 8683.435
1080.630, 8577.896
1081.112, 8492.538
1081.594, 8426.582
1082.076, 8355.172
1082.558, 8263.788
1083.040, 8173.383
1083.522, 8101.516
1084.004, 8042.536
1084.486, 7989.191
1084.969, 7936.881
1085.451, 7901.630
1085.933, 7889.750
1086.415, 7872.346
1086.897, 7822.462
1087.379, 7754.829
1087.861, 7687.697
1088.343, 7624.683
1088.826, 7577.883
1089.308, 7574.587
1089.790, 7556.304
1090.272, 7502.221
1090.754, 7441.463
1091.236, 7425.194
1091.718, 7443.669
1092.200, 7454.921
1092.682, 7453.242
1093.165, 7436.812
1093.647, 7383.564
1094.129, 7334.502
1094.611, 7319.664
1095.093, 7333.167
1095.575, 7331.623
1096.057, 7314.142
1096.539, 7304.766
1097.022, 7316.889
1097.504, 7331.990
1097.986, 7332.938
1098.468, 7324.117
1098.950, 7312.116
1099.432, 7302.353
1099.914, 7272.000
1100.396, 7211.779
1100.879, 7162.729
1101.361, 7164.108
1101.843, 7192.954
1102.325, 7207.299
1102.807, 7209.434
1103.289, 7209.466
1103.771, 7216.991
1104.253, 7213.173
1104.735, 7187.846
1105.218, 7159.365
1105.700, 7156.231
1106.182, 7173.214
1106.664, 7186.127
1107.146, 7192.414
1107.628, 7196.225
1108.110, 7198.830
1108.592, 7201.154
1109.074, 7206.287
1109.557, 7211.529
1110.039, 7201.624
1110.521, 7176.183
1111.003, 7161.613
1111.485, 7168.728
1111.967, 7179.912
1112.449, 7183.410
1112.931, 7178.978
1113.414, 7163.200
1113.896, 7131.411
1114.378, 7112.024
1114.860, 7104.250
1115.342, 7113.134
1115.824, 7156.153
1116.306, 7205.158
1116.788, 7211.908
1117.271, 7189.846
1117.753, 7168.941
1118.235, 7158.824
1118.717, 7148.737
1119.199, 7133.833
1119.681, 7126.256
1120.163, 7147.248
1120.645, 7183.878
1121.127, 7196.565
1121.609, 7185.387
1122.092, 7169.052
1122.574, 7147.857
1123.056, 7134.551
1123.538, 7135.547
1124.020, 7144.322
1124.502, 7147.712
1124.984, 7146.577
1125.466, 7149.374
1125.949, 7158.322
1126.431, 7164.637
1126.913, 7163.272
1127.395, 7155.860
1127.877, 7138.333
1128.359, 7113.824
1128.841, 7110.333
1129.323, 7129.187
1129.806, 7144.471
1130.288, 7142.296
1130.770, 7142.308
1131.252, 7174.934
1131.734, 7216.825
1132.216, 7235.165
1132.698, 7218.469
1133.180, 7209.497
1133.662, 7211.149
1134.145, 7208.430
1134.627, 7186.303
1135.109, 7157.446
1135.591, 7136.056
1136.073, 7124.600
1136.555, 7129.875
1137.037, 7174.470
1137.519, 7206.844
1138.001, 7227.245
1138.484, 7227.947
1138.966, 7181.776
1139.448, 7114.461
1139.930, 7095.843
1140.412, 7124.353
1140.894, 7151.130
1141.376, 7155.789
1141.858, 7155.836
1142.341, 7153.504
1142.823, 7152.159
1143.305, 7158.500
1143.787, 7171.426
1144.269, 7187.827
1144.751, 7207.961
1145.233, 7222.605
1145.715, 7223.784
1146.198, 7220.557
1146.680, 7217.649
1147.162, 7214.937
1147.644, 7209.661
1148.126, 7202.553
1148.608, 7206.608
1149.090, 7235.519
1149.572, 7250.938
1150.054, 7201.494
1150.536, 7140.742
1151.019, 7122.318
1151.501, 7150.426
1151.983, 7172.289
1152.465, 7187.898
1152.947, 7200.133
1153.429, 7212.625
1153.911, 7220.103
1154.393, 7213.410
1154.876, 7199.359
1155.358, 7188.846
1155.840, 7178.315
1156.322, 7187.874
1156.804, 7222.354
1157.286, 7252.396
1157.768, 7253.815
1158.250, 7237.563
1158.733, 7202.906
1159.215, 7161.021
1159.697, 7153.700
1160.179, 7212.156
1160.661, 7247.435
1161.143, 7245.263
1161.625, 7229.364
1162.107, 7226.130
1162.589, 7228.454
1163.072, 7221.537
1163.554, 7205.393
1164.036, 7199.604
1164.518, 7214.793
1165.000, 7231.070
1165.482, 7244.087
1165.964, 7255.535
1166.446, 7273.391
1166.928, 7290.785
1167.411, 7290.676
1167.893, 7267.880
1168.375, 7242.220
1168.857, 7207.184
1169.339, 7188.003
1169.821, 7201.856
1170.303, 7233.309
1170.785, 7231.189
1171.268, 7207.489
1171.750, 7204.009
1172.232, 7244.560
1172.714, 7278.781
1173.196, 7280.827
1173.678, 7275.405
1174.160, 7277.402
1174.642, 7284.663
1175.125, 7279.023
1175.607, 7263.678
1176.089, 7256.776
1176.571, 7282.429
1177.053, 7297.651
1177.535, 7272.512
1178.017, 7236.162
1178.499, 7213.309
1178.981, 7203.744
1179.464, 7203.650
1179.946, 7212.816
1180.428, 7229.259
1180.910, 7267.289
1181.392, 7295.235
1181.874, 7283.009
1182.356, 7256.769
1182.838, 7260.744
1183.320, 7296.618
1183.803, 7307.914
1184.285, 7289.435
1184.767, 7274.863
1185.249, 7308.356
1185.731, 7336.540
1186.213, 7307.104
1186.695, 7244.966
1187.177, 7223.010
1187.660, 7243.904
1188.142, 7265.934
1188.624, 7283.030
1189.106, 7293.873
1189.588, 7289.815
1190.070, 7285.067
1190.552, 7295.012
1191.034, 7316.703
1191.516, 7326.947
1191.999, 7325.379
1192.481, 7313.165
1192.963, 7287.076
1193.445, 7263.708
1193.927, 7261.797
1194.409, 7269.532
1194.891, 7276.817
1195.373, 7282.807
1195.855, 7283.114
1196.338, 7277.047
1196.820, 7271.068
1197.302, 7266.958
1197.784, 7265.586
1198.266, 7270.217
1198.748, 7276.964
1199.230, 7278.470
1199.712, 7270.313
1200.195, 7286.431
1200.677, 7332.230
1201.159, 7363.748
1201.641, 7348.437
1202.123, 7318.148
1202.605, 7304.259
1203.087, 7302.309
1203.569, 7305.683
1204.052, 7317.410
1204.534, 7322.427
1205.016, 7320.640
1205.498, 7312.920
1205.980, 7289.072
1206.462, 7268.284
1206.944, 7273.887
1207.426, 7299.460
1207.908, 7333.737
1208.391, 7392.896
1208.873, 7405.581
1209.355, 7361.954
1209.837, 7309.307
1210.319, 7280.252
1210.801, 7270.146
1211.283, 7284.798
1211.765, 7315.029
1212.247, 7328.297
1212.730, 7315.271
1213.212, 7308.912
1213.694, 7313.410
1214.176, 7320.988
1214.658, 7324.480
1215.140, 7326.694
1215.622, 7328.137
1216.104, 7330.688
1216.587, 7344.956
1217.069, 7377.551
1217.551, 7400.972
1218.033, 7411.636
1218.515, 7408.408
1218.997, 7377.595
1219.479, 7340.620
1219.961, 7320.607
1220.443, 7319.636
1220.926, 7329.316
1221.408, 7353.494
1221.890, 7370.386
1222.372, 7375.043
1222.854, 7370.355
1223.336, 7349.323
1223.818, 7327.529
1224.300, 7325.760
1224.782, 7347.363
1225.265, 7359.896
1225.747, 7360.501
1226.229, 7367.019
1226.711, 7389.221
1227.193, 7407.623
1227.675, 7387.839
1228.157, 7357.078
1228.639, 7352.731
1229.122, 7382.506
1229.604, 7383.137
1230.086, 7348.429
1230.568, 7327.176
1231.050, 7344.054
1231.532, 7369.955
1232.014, 7372.347
1232.496, 7363.597
1232.979, 7357.166
1233.461, 7353.335
1233.943, 7365.539
1234.425, 7396.564
1234.907, 7413.165
1235.389, 7387.682
1235.871, 7360.549
1236.353, 7381.051
1236.835, 7418.944
1237.318, 7433.193
1237.800, 7419.640
1238.282, 7406.230
1238.764, 7393.218
1239.246, 7376.645
1239.728, 7344.333
1240.210, 7320.718
1240.692, 7334.093
1241.175, 7365.409
1241.657, 7389.827
1242.139, 7407.686
1242.621, 7409.537
1243.103, 7395.231
1243.585, 7383.832
1244.067, 7386.481
1244.549, 7396.444
1245.031, 7417.240
1245.514, 7437.965
1245.996, 7441.060
1246.478, 7423.681
1246.960, 7431.348
1247.442, 7463.044
1247.924, 7481.809
1248.406, 7447.372
1248.888, 7411.360
1249.370, 7402.903
1249.853, 7409.872
1250.335, 7421.608
1250.817, 7437.258
1251.299, 7420.697
1251.781, 7373.970
1252.263, 7348.533
1252.745, 7403.147
1253.227, 7454.199
1253.710, 7458.256
1254.192, 7443.663
1254.674, 7447.719
1255.156, 7466.081
1255.638, 7462.892
1256.120, 7438.328
1256.602, 7420.447
1257.084, 7434.591
1257.567, 7445.275
1258.049, 7440.184
1258.531, 7427.604
1259.013, 7412.999
1259.495, 7400.825
1259.977, 7412.911
1260.459, 7448.268
1260.941, 7478.058
1261.423, 7493.139
1261.906, 7493.148
1262.388, 7473.560
1262.870, 7447.406
1263.352, 7427.368
1263.834, 7417.225
1264.316, 7432.068
1264.798, 7470.617
1265.280, 7502.729
1265.762, 7529.458
1266.245, 7527.808
1266.727, 7483.560
1267.209, 7432.790
1267.691, 7428.212
1268.173, 7449.316
1268.655, 7461.440
1269.137, 7462.482
1269.619, 7476.235
1270.102, 7518.196
1270.584, 7534.268
1271.066, 7506.520
1271.548, 7472.074
1272.030, 7485.094
1272.512, 7513.500
1272.994, 7517.208
1273.476, 7494.665
1273.958, 7479.954
1274.441, 7471.243
1274.923, 7490.448
1275.405, 7550.553
1275.887, 7601.744
1276.369, 7579.143
1276.851, 7532.709
1277.333, 7510.245
1277.815, 7509.346
1278.297, 7492.095
1278.780, 7456.692
1279.262, 7450.316
1279.744, 7488.094
1280.226, 7529.617
1280.708, 7542.099
1281.190, 7546.298
1281.672, 7558.285
1282.154, 7574.645
1282.637, 7582.865
1283.119, 7582.748
1283.601, 7570.390
1284.083, 7543.042
1284.565, 7517.179
1285.047, 7499.840
1285.529, 7490.633
1286.011, 7490.964
1286.494, 7496.864
1286.976, 7493.123
1287.458, 7485.326
1287.940, 7495.752
1288.422, 7531.800
1288.904, 7561.818
1289.386, 7582.619
1289.868, 7579.405
1290.350, 7534.111
1290.833, 7480.212
1291.315, 7498.490
1291.797, 7554.247
1292.279, 7575.094
1292.761, 7542.414
1293.243, 7526.556
1293.725, 7542.156
1294.207, 7557.155
1294.689, 7561.474
1295.172, 7559.492
1295.654, 7556.902
1296.136, 7552.333
1296.618, 7538.540
1297.100, 7513.084
1297.582, 7523.604
1298.064, 7578.790
1298.546, 7613.911
1299.029, 7606.421
1299.511, 7579.657
1299.993, 7537.893
1300.475, 7503.946
1300.957, 7508.126
1301.439, 7543.657
1301.921, 7571.357
1302.403, 7591.272
1302.885, 7602.365
1303.368, 7603.703
1303.850, 7599.619
1304.332, 7585.399
1304.814, 7575.182
1305.296, 7580.521
1305.778, 7594.590
1306.260, 7591.532
1306.742, 7575.383
1307.224, 7559.302
1307.707, 7543.600
1308.189, 7545.630
1308.671, 7599.883
1309.153, 7634.748
1309.635, 7616.342
1310.117, 7573.346
1310.599, 7566.899
1311.081, 7581.956
1311.564, 7586.132
1312.046, 7570.126
1312.528, 7574.971
1313.010, 7618.550
1313.492, 7636.342
1313.974, 7596.931
1314.456, 7545.854
1314.938, 7546.566
##END=



