##NAMES=Lamprophyllite
##RRUFFID=R070200
##IDEAL CHEMISTRY=(SrNa)Ti^4+^_2_Na_3_Ti^4+^(Si_2_O_7_)_2_O_2_(OH)_2_
##LOCALITY=Windy Boy Peak, Bearpaw Mountains, Hill County, Montana, USA
##OWNER=RRUFF
##SOURCE=James Shigley
##DESCRIPTION=Golden brown translucent platy massive associated with quartz
##STATUS=The identification of this mineral is confirmed by single-crystal X-ray diffraction and chemical analysis.
##URL=rruff.info/R070200
##MEASURED CHEMISTRY=(Na_2.64_Mn^2+^_0.22_Mg_0.15_)_Σ=3.01_(Sr_1.19_K_0.18_Ba_0.13_Ca_0.09_)(Ti_2.82_Fe_0.33_Al_0.01_)_Σ=3.16_(Si_1.95_O_7_)_2_O_2_[(OH)_1.34_F_0.66_]_Σ=2_
133.7897, 5746.177
134.2718, 5893.193
134.7539, 6036.646
135.2360, 6162.263
135.7182, 6267.266
136.2003, 6368.119
136.6824, 6485.376
137.1645, 6623.650
137.6466, 6753.022
138.1287, 6868.222
138.6109, 6969.646
139.0930, 7051.642
139.5751, 7105.614
140.0572, 7151.071
140.5393, 7216.883
141.0214, 7312.188
141.5036, 7407.859
141.9857, 7494.043
142.4678, 7565.739
142.9499, 7642.924
143.4320, 7727.245
143.9141, 7815.898
144.3963, 7896.939
144.8784, 7960.013
145.3605, 8029.165
145.8426, 8117.018
146.3247, 8233.140
146.8068, 8351.749
147.2890, 8472.897
147.7711, 8595.975
148.2532, 8716.453
148.7353, 8828.297
149.2174, 8941.856
149.6995, 9062.027
150.1817, 9210.540
150.6638, 9343.806
151.1459, 9451.335
151.6280, 9531.560
152.1101, 9618.486
152.5922, 9719.985
153.0744, 9825.881
153.5565, 9928.333
154.0386, 10028.43
154.5207, 10122.21
155.0028, 10207.58
155.4849, 10283.05
155.9671, 10356.50
156.4492, 10426.99
156.9313, 10496.75
157.4134, 10568.67
157.8955, 10639.43
158.3777, 10716.38
158.8598, 10803.73
159.3419, 10905.63
159.8240, 11010.41
160.3061, 11120.09
160.7882, 11230.97
161.2704, 11334.32
161.7525, 11411.20
162.2346, 11488.62
162.7167, 11585.22
163.1988, 11719.09
163.6809, 11855.64
164.1631, 11976.09
164.6452, 12084.78
165.1273, 12201.08
165.6094, 12350.81
166.0915, 12505.54
166.5736, 12637.15
167.0558, 12723.16
167.5379, 12794.79
168.0200, 12876.84
168.5021, 12967.79
168.9842, 13040.93
169.4663, 13077.11
169.9485, 13084.93
170.4306, 13076.68
170.9127, 13066.57
171.3948, 13037.36
171.8769, 12965.95
172.3590, 12849.51
172.8412, 12721.57
173.3233, 12600.41
173.8054, 12488.63
174.2875, 12393.07
174.7696, 12325.67
175.2517, 12273.44
175.7339, 12218.29
176.2160, 12157.26
176.6981, 12097.84
177.1802, 12045.39
177.6623, 11999.76
178.1444, 11961.50
178.6266, 11923.91
179.1087, 11894.18
179.5908, 11891.74
180.0729, 11927.15
180.5550, 11972.37
181.0371, 11987.14
181.5193, 11974.52
182.0014, 11957.15
182.4835, 11948.41
182.9656, 11946.93
183.4477, 11948.80
183.9298, 11954.40
184.4120, 11961.71
184.8941, 11965.66
185.3762, 11966.33
185.8583, 11969.39
186.3404, 11986.91
186.8225, 12014.07
187.3047, 12024.50
187.7868, 12003.91
188.2689, 11965.22
188.7510, 11942.26
189.2331, 11935.38
189.7152, 11940.99
190.1974, 11965.18
190.6795, 12005.51
191.1616, 12029.47
191.6437, 12016.23
192.1258, 11976.50
192.6080, 11968.75
193.0901, 11999.01
193.5722, 12037.03
194.0543, 12040.34
194.5364, 12008.07
195.0185, 11982.49
195.5007, 11980.24
195.9828, 12000.32
196.4649, 12028.98
196.9470, 12070.69
197.4291, 12112.04
197.9112, 12130.21
198.3934, 12122.58
198.8755, 12112.35
199.3576, 12107.63
199.8397, 12108.36
200.3218, 12117.45
200.8039, 12136.90
201.2861, 12162.15
201.7682, 12185.66
202.2503, 12207.90
202.7324, 12226.38
203.2145, 12238.19
203.6966, 12242.02
204.1788, 12248.48
204.6609, 12256.20
205.1430, 12268.16
205.6251, 12295.72
206.1072, 12345.24
206.5893, 12391.60
207.0715, 12415.90
207.5536, 12411.09
208.0357, 12419.70
208.5178, 12451.69
208.9999, 12497.88
209.4820, 12522.36
209.9642, 12515.72
210.4463, 12508.18
210.9284, 12524.35
211.4105, 12574.28
211.8926, 12610.73
212.3747, 12626.98
212.8569, 12624.85
213.3390, 12609.64
213.8211, 12565.60
214.3032, 12536.21
214.7853, 12567.97
215.2674, 12694.85
215.7496, 12780.80
216.2317, 12789.99
216.7138, 12729.67
217.1959, 12705.26
217.6780, 12725.83
218.1601, 12769.24
218.6423, 12818.79
219.1244, 12882.38
219.6065, 12935.05
220.0886, 12978.47
220.5707, 13013.07
221.0528, 13000.17
221.5350, 12911.70
222.0171, 12807.96
222.4992, 12751.80
222.9813, 12760.04
223.4634, 12781.69
223.9455, 12808.57
224.4277, 12841.79
224.9098, 12872.04
225.3919, 12902.84
225.8740, 12927.88
226.3561, 12938.30
226.8382, 12925.04
227.3204, 12914.15
227.8025, 12911.84
228.2846, 12918.49
228.7667, 12930.75
229.2488, 12947.80
229.7310, 12970.77
230.2131, 13002.82
230.6952, 13050.03
231.1773, 13095.21
231.6594, 13133.90
232.1415, 13164.90
232.6237, 13192.84
233.1058, 13212.68
233.5879, 13232.66
234.0700, 13266.82
234.5521, 13322.66
235.0342, 13379.93
235.5164, 13430.19
235.9985, 13468.18
236.4806, 13519.13
236.9627, 13587.94
237.4448, 13666.17
237.9269, 13740.31
238.4091, 13809.54
238.8912, 13875.00
239.3733, 13935.00
239.8554, 13983.41
240.3375, 14045.91
240.8196, 14132.00
241.3018, 14227.85
241.7839, 14305.11
242.2660, 14346.75
242.7481, 14396.65
243.2302, 14475.38
243.7123, 14601.74
244.1945, 14705.71
244.6766, 14780.41
245.1587, 14835.20
245.6408, 14890.44
246.1229, 14942.78
246.6050, 15000.86
247.0872, 15070.13
247.5693, 15159.40
248.0514, 15237.77
248.5335, 15303.69
249.0156, 15359.39
249.4977, 15408.41
249.9799, 15445.86
250.4620, 15484.28
250.9441, 15530.94
251.4262, 15595.03
251.9083, 15644.19
252.3904, 15671.99
252.8726, 15686.61
253.3547, 15711.32
253.8368, 15759.91
254.3189, 15795.73
254.8010, 15798.59
255.2831, 15751.37
255.7653, 15715.86
256.2474, 15694.63
256.7295, 15685.34
257.2116, 15683.49
257.6937, 15693.19
258.1758, 15702.71
258.6580, 15706.42
259.1401, 15703.19
259.6222, 15698.01
260.1043, 15692.89
260.5864, 15685.20
261.0685, 15663.17
261.5507, 15613.18
262.0328, 15576.88
262.5149, 15579.50
262.9970, 15636.35
263.4791, 15682.27
263.9612, 15717.37
264.4434, 15739.52
264.9255, 15738.78
265.4076, 15704.27
265.8897, 15672.63
266.3718, 15666.02
266.8539, 15693.15
267.3361, 15706.07
267.8182, 15693.02
268.3003, 15670.44
268.7824, 15685.77
269.2645, 15753.34
269.7466, 15819.86
270.2288, 15851.96
270.7109, 15838.74
271.1930, 15854.51
271.6751, 15912.73
272.1572, 15994.05
272.6393, 16050.82
273.1215, 16077.78
273.6036, 16099.16
274.0857, 16128.44
274.5678, 16167.04
275.0499, 16198.03
275.5320, 16215.08
276.0142, 16230.27
276.4963, 16276.79
276.9784, 16361.97
277.4605, 16443.41
277.9426, 16499.49
278.4247, 16529.55
278.9069, 16548.28
279.3890, 16553.14
279.8711, 16551.17
280.3532, 16552.40
280.8354, 16555.52
281.3175, 16572.74
281.7996, 16617.87
282.2817, 16689.52
282.7638, 16749.57
283.2459, 16795.61
283.7281, 16830.14
284.2102, 16848.75
284.6923, 16850.19
285.1744, 16867.65
285.6565, 16932.51
286.1386, 17036.53
286.6208, 17108.54
287.1029, 17138.00
287.5850, 17152.66
288.0671, 17199.07
288.5492, 17275.82
289.0313, 17351.75
289.5135, 17411.47
289.9956, 17457.03
290.4777, 17498.80
290.9598, 17537.80
291.4419, 17571.91
291.9240, 17590.06
292.4062, 17595.85
292.8883, 17615.74
293.3704, 17674.08
293.8525, 17756.19
294.3346, 17823.67
294.8167, 17873.68
295.2989, 17913.64
295.7810, 17945.64
296.2631, 17972.45
296.7452, 18006.94
297.2273, 18068.69
297.7094, 18138.73
298.1916, 18178.18
298.6737, 18183.05
299.1558, 18179.33
299.6379, 18189.13
300.1200, 18210.61
300.6021, 18239.26
301.0843, 18274.49
301.5664, 18314.96
302.0485, 18362.30
302.5306, 18417.51
303.0127, 18467.16
303.4948, 18493.47
303.9770, 18506.62
304.4591, 18526.81
304.9412, 18570.98
305.4233, 18621.09
305.9054, 18657.48
306.3875, 18680.13
306.8697, 18702.39
307.3518, 18740.36
307.8339, 18782.44
308.3160, 18811.51
308.7981, 18799.74
309.2802, 18788.23
309.7624, 18813.52
310.2445, 18872.61
310.7266, 18931.06
311.2087, 18971.48
311.6908, 19000.25
312.1729, 19024.33
312.6551, 19041.93
313.1372, 19059.49
313.6193, 19081.58
314.1014, 19107.35
314.5835, 19130.94
315.0656, 19149.02
315.5478, 19164.38
316.0299, 19179.49
316.5120, 19197.93
316.9941, 19212.93
317.4762, 19218.16
317.9583, 19216.55
318.4405, 19220.08
318.9226, 19237.98
319.4047, 19258.91
319.8868, 19276.08
320.3689, 19289.73
320.8510, 19297.44
321.3332, 19302.47
321.8153, 19301.76
322.2974, 19286.11
322.7795, 19224.15
323.2616, 19169.30
323.7437, 19147.58
324.2259, 19181.07
324.7080, 19214.52
325.1901, 19252.78
325.6722, 19287.35
326.1543, 19299.49
326.6364, 19255.32
327.1186, 19217.99
327.6007, 19208.01
328.0828, 19234.50
328.5649, 19267.63
329.0470, 19309.98
329.5291, 19358.27
330.0113, 19406.53
330.4934, 19443.75
330.9755, 19496.13
331.4576, 19579.57
331.9397, 19707.34
332.4218, 19795.71
332.9040, 19818.19
333.3861, 19821.75
333.8682, 19868.02
334.3503, 19978.10
334.8324, 20087.13
335.3145, 20180.42
335.7967, 20257.92
336.2788, 20334.68
336.7609, 20416.99
337.2430, 20490.02
337.7251, 20527.31
338.2072, 20515.33
338.6894, 20533.49
339.1715, 20612.18
339.6536, 20737.45
340.1357, 20813.80
340.6178, 20834.21
341.0999, 20831.94
341.5821, 20833.89
342.0642, 20840.24
342.5463, 20839.72
343.0284, 20826.65
343.5105, 20808.39
343.9926, 20807.37
344.4748, 20824.33
344.9569, 20844.10
345.4390, 20861.45
345.9211, 20874.10
346.4032, 20868.54
346.8853, 20840.58
347.3675, 20798.72
347.8496, 20747.89
348.3317, 20691.13
348.8138, 20649.21
349.2959, 20651.71
349.7780, 20676.38
350.2602, 20675.72
350.7423, 20643.08
351.2244, 20592.84
351.7065, 20533.90
352.1887, 20468.68
352.6708, 20405.74
353.1529, 20342.88
353.6350, 20287.71
354.1171, 20252.68
354.5992, 20239.69
355.0814, 20227.51
355.5635, 20198.44
356.0456, 20159.48
356.5277, 20121.63
357.0098, 20088.73
357.4919, 20059.02
357.9741, 20027.28
358.4562, 19994.24
358.9383, 19973.34
359.4204, 19999.20
359.9025, 20029.26
360.3846, 20022.29
360.8668, 19920.07
361.3489, 19822.61
361.8310, 19772.52
362.3131, 19762.31
362.7952, 19753.08
363.2773, 19744.13
363.7595, 19725.26
364.2416, 19689.08
364.7237, 19612.05
365.2058, 19548.60
365.6879, 19516.96
366.1700, 19506.22
366.6522, 19486.86
367.1343, 19464.21
367.6164, 19425.57
368.0985, 19359.09
368.5806, 19229.42
369.0627, 19150.46
369.5449, 19153.05
370.0270, 19195.69
370.5091, 19214.21
370.9912, 19200.63
371.4733, 19174.27
371.9554, 19138.53
372.4376, 19092.04
372.9197, 19043.75
373.4018, 18985.61
373.8839, 18935.87
374.3660, 18920.62
374.8481, 18954.58
375.3303, 18972.23
375.8124, 18954.76
376.2945, 18907.79
376.7766, 18871.46
377.2587, 18848.97
377.7408, 18827.26
378.2230, 18786.76
378.7051, 18727.48
379.1872, 18698.98
379.6693, 18716.83
380.1514, 18761.61
380.6335, 18791.07
381.1157, 18805.46
381.5978, 18811.47
382.0799, 18806.94
382.5620, 18796.78
383.0441, 18793.82
383.5262, 18795.79
384.0084, 18817.34
384.4905, 18891.99
384.9726, 19007.14
385.4547, 19113.58
385.9368, 19189.03
386.4189, 19242.83
386.9011, 19275.61
387.3832, 19285.54
387.8653, 19316.73
388.3474, 19416.12
388.8295, 19557.96
389.3116, 19701.74
389.7938, 19831.42
390.2759, 19956.04
390.7580, 20083.50
391.2401, 20212.52
391.7222, 20336.54
392.2043, 20444.66
392.6865, 20550.02
393.1686, 20664.70
393.6507, 20787.69
394.1328, 20922.40
394.6149, 21076.40
395.0970, 21243.75
395.5792, 21407.25
396.0613, 21566.12
396.5434, 21717.21
397.0255, 21860.00
397.5076, 21986.24
397.9897, 22116.44
398.4719, 22248.47
398.9540, 22386.07
399.4361, 22534.65
399.9182, 22697.04
400.4003, 22866.83
400.8824, 23041.89
401.3646, 23222.48
401.8467, 23416.79
402.3288, 23639.01
402.8109, 23857.12
403.2930, 24036.53
403.7751, 24163.75
404.2573, 24294.57
404.7394, 24436.51
405.2215, 24590.08
405.7036, 24761.17
406.1857, 24956.21
406.6678, 25138.34
407.1500, 25271.91
407.6321, 25358.73
408.1142, 25467.50
408.5963, 25609.47
409.0784, 25763.44
409.5605, 25894.90
410.0427, 26004.33
410.5248, 26103.56
411.0069, 26201.14
411.4890, 26293.57
411.9711, 26361.51
412.4532, 26401.57
412.9354, 26453.75
413.4175, 26580.24
413.8996, 26745.76
414.3817, 26877.90
414.8638, 26934.34
415.3459, 26956.11
415.8281, 26973.04
416.3102, 26985.77
416.7923, 26998.12
417.2744, 27026.33
417.7565, 27048.01
418.2386, 27038.13
418.7208, 26964.93
419.2029, 26905.28
419.6850, 26909.88
420.1671, 26951.44
420.6492, 26968.78
421.1313, 26936.68
421.6135, 26882.19
422.0956, 26815.59
422.5777, 26739.27
423.0598, 26647.17
423.5420, 26535.18
424.0241, 26409.34
424.5062, 26275.25
424.9883, 26145.30
425.4704, 25992.88
425.9525, 25807.02
426.4347, 25589.88
426.9168, 25368.32
427.3989, 25136.73
427.8810, 24905.08
428.3631, 24683.81
428.8452, 24482.92
429.3274, 24256.10
429.8095, 24002.59
430.2916, 23723.28
430.7737, 23409.09
431.2558, 23053.88
431.7379, 22718.93
432.2201, 22448.32
432.7022, 22233.98
433.1843, 22003.76
433.6664, 21755.80
434.1485, 21509.08
434.6306, 21282.62
435.1128, 21075.95
435.5949, 20886.91
436.0770, 20713.65
436.5591, 20557.67
437.0412, 20427.47
437.5233, 20321.66
438.0055, 20234.58
438.4876, 20160.65
438.9697, 20103.62
439.4518, 20071.27
439.9339, 20071.71
440.4160, 20080.76
440.8982, 20076.28
441.3803, 20069.44
441.8624, 20083.02
442.3445, 20125.80
442.8266, 20191.36
443.3087, 20278.38
443.7909, 20388.12
444.2730, 20511.51
444.7551, 20660.92
445.2372, 20816.60
445.7193, 20962.13
446.2014, 21051.18
446.6836, 21182.18
447.1657, 21376.81
447.6478, 21626.62
448.1299, 21883.21
448.6120, 22151.67
449.0941, 22417.56
449.5763, 22667.78
450.0584, 22895.14
450.5405, 23135.58
451.0226, 23390.70
451.5047, 23659.69
451.9868, 23953.94
452.4690, 24280.85
452.9511, 24591.90
453.4332, 24867.03
453.9153, 25113.79
454.3974, 25359.05
454.8795, 25606.30
455.3617, 25837.77
455.8438, 26052.31
456.3259, 26241.19
456.8080, 26383.91
457.2901, 26475.19
457.7722, 26514.21
458.2544, 26477.71
458.7365, 26380.41
459.2186, 26275.72
459.7007, 26216.37
460.1828, 26150.15
460.6649, 26022.59
461.1471, 25825.19
461.6292, 25598.51
462.1113, 25346.24
462.5934, 25081.77
463.0755, 24820.98
463.5576, 24563.80
464.0398, 24312.30
464.5219, 24066.72
465.0040, 23827.07
465.4861, 23593.35
465.9682, 23372.86
466.4503, 23153.69
466.9325, 22926.21
467.4146, 22679.58
467.8967, 22447.69
468.3788, 22227.28
468.8609, 22023.30
469.3430, 21844.82
469.8252, 21696.68
470.3073, 21563.71
470.7894, 21447.86
471.2715, 21346.77
471.7536, 21224.29
472.2357, 21074.25
472.7179, 20924.96
473.2000, 20804.60
473.6821, 20710.79
474.1642, 20609.23
474.6463, 20490.42
475.1284, 20370.39
475.6106, 20285.52
476.0927, 20227.87
476.5748, 20155.82
477.0569, 20027.26
477.5390, 19878.51
478.0211, 19756.77
478.5033, 19664.22
478.9854, 19597.68
479.4675, 19577.21
479.9496, 19574.50
480.4317, 19554.21
480.9138, 19481.12
481.3960, 19415.65
481.8781, 19394.24
482.3602, 19404.24
482.8423, 19403.60
483.3244, 19364.66
483.8065, 19325.25
484.2887, 19302.78
484.7708, 19303.99
485.2529, 19308.04
485.7350, 19306.75
486.2171, 19311.93
486.6992, 19339.35
487.1814, 19408.61
487.6635, 19461.81
488.1456, 19485.82
488.6277, 19485.15
489.1098, 19482.26
489.5919, 19473.07
490.0741, 19474.69
490.5562, 19495.99
491.0383, 19537.21
491.5204, 19605.54
492.0026, 19709.91
492.4847, 19816.17
492.9668, 19876.87
493.4489, 19898.23
493.9310, 19908.57
494.4131, 19906.42
494.8953, 19907.49
495.3774, 19944.16
495.8595, 20011.89
496.3416, 20069.37
496.8237, 20098.95
497.3058, 20101.25
497.7880, 20068.84
498.2701, 19981.36
498.7522, 19911.49
499.2343, 19917.79
499.7164, 19960.04
500.1985, 19974.66
500.6807, 19922.07
501.1628, 19861.13
501.6449, 19808.64
502.1270, 19765.95
502.6091, 19717.72
503.0912, 19652.59
503.5734, 19591.22
504.0555, 19548.32
504.5376, 19539.48
505.0197, 19509.22
505.5018, 19444.36
505.9839, 19367.31
506.4661, 19323.94
506.9482, 19320.01
507.4303, 19313.21
507.9124, 19284.99
508.3945, 19241.15
508.8766, 19209.68
509.3588, 19190.70
509.8409, 19178.16
510.3230, 19167.40
510.8051, 19159.07
511.2872, 19156.38
511.7693, 19162.25
512.2515, 19167.47
512.7336, 19167.08
513.2157, 19159.14
513.6978, 19139.35
514.1799, 19074.47
514.6620, 19022.09
515.1442, 19034.50
515.6263, 19111.91
516.1084, 19163.94
516.5905, 19128.71
517.0726, 19077.20
517.5547, 19058.96
518.0369, 19113.66
518.5190, 19155.01
519.0011, 19185.90
519.4832, 19200.06
519.9653, 19179.45
520.4474, 19089.66
520.9296, 19031.01
521.4117, 19041.72
521.8938, 19117.30
522.3759, 19167.54
522.8580, 19189.70
523.3401, 19195.79
523.8223, 19192.57
524.3044, 19180.72
524.7865, 19164.64
525.2686, 19142.23
525.7507, 19123.42
526.2328, 19126.34
526.7150, 19145.94
527.1971, 19164.51
527.6792, 19161.32
528.1613, 19160.64
528.6434, 19198.82
529.1255, 19271.18
529.6077, 19329.92
530.0898, 19344.33
530.5719, 19335.82
531.0540, 19321.55
531.5361, 19305.64
532.0182, 19282.38
532.5004, 19234.17
532.9825, 19181.16
533.4646, 19156.67
533.9467, 19185.85
534.4288, 19216.65
534.9109, 19243.44
535.3931, 19265.41
535.8752, 19271.44
536.3573, 19252.77
536.8394, 19235.54
537.3215, 19237.89
537.8036, 19261.68
538.2858, 19281.72
538.7679, 19297.12
539.2500, 19308.33
539.7321, 19315.73
540.2142, 19319.45
540.6964, 19319.07
541.1785, 19305.44
541.6606, 19295.62
542.1427, 19327.57
542.6248, 19392.45
543.1069, 19442.19
543.5891, 19424.22
544.0712, 19390.98
544.5533, 19392.49
545.0354, 19442.01
545.5175, 19491.97
545.9996, 19532.43
546.4818, 19559.32
546.9639, 19567.64
547.4460, 19512.56
547.9281, 19490.04
548.4102, 19534.44
548.8923, 19624.40
549.3745, 19681.89
549.8566, 19690.80
550.3387, 19693.55
550.8208, 19700.78
551.3029, 19710.93
551.7850, 19759.77
552.2672, 19857.59
552.7493, 19962.17
553.2314, 20025.89
553.7135, 20053.93
554.1956, 20089.71
554.6777, 20144.87
555.1599, 20204.75
555.6420, 20239.69
556.1241, 20258.99
556.6062, 20292.97
557.0883, 20366.27
557.5704, 20454.51
558.0526, 20542.82
558.5347, 20629.76
559.0168, 20702.71
559.4989, 20726.65
559.9810, 20750.92
560.4631, 20812.86
560.9453, 20944.91
561.4274, 21068.94
561.9095, 21163.06
562.3916, 21246.92
562.8737, 21349.22
563.3558, 21478.69
563.8380, 21605.41
564.3201, 21716.90
564.8022, 21819.05
565.2843, 21953.05
565.7664, 22122.98
566.2485, 22309.46
566.7307, 22500.68
567.2128, 22698.42
567.6949, 22918.93
568.1770, 23165.83
568.6591, 23428.78
569.1412, 23703.48
569.6234, 23987.30
570.1055, 24280.27
570.5876, 24570.44
571.0697, 24882.46
571.5518, 25244.48
572.0339, 25645.77
572.5161, 26048.96
572.9982, 26406.04
573.4803, 26791.29
573.9624, 27251.64
574.4445, 27807.47
574.9266, 28322.83
575.4088, 28748.30
575.8909, 29166.42
576.3730, 29629.71
576.8551, 30166.11
577.3372, 30672.55
577.8193, 31135.17
578.3015, 31570.72
578.7836, 32019.63
579.2657, 32478.43
579.7478, 32919.93
580.2299, 33357.05
580.7120, 33757.28
581.1942, 34019.29
581.6763, 34149.80
582.1584, 34216.84
582.6405, 34287.72
583.1226, 34311.51
583.6047, 34219.75
584.0869, 34001.73
584.5690, 33701.83
585.0511, 33308.14
585.5332, 32862.85
586.0153, 32409.45
586.4974, 31974.99
586.9796, 31514.15
587.4617, 30986.76
587.9438, 30427.82
588.4259, 29915.60
588.9080, 29465.37
589.3901, 29043.43
589.8723, 28648.24
590.3544, 28275.76
590.8365, 27908.33
591.3186, 27538.33
591.8007, 27195.03
592.2828, 26906.09
592.7650, 26665.87
593.2471, 26439.72
593.7292, 26224.08
594.2113, 26020.89
594.6934, 25826.10
595.1755, 25643.98
595.6577, 25480.13
596.1398, 25349.41
596.6219, 25223.26
597.1040, 25078.02
597.5862, 24921.43
598.0683, 24771.77
598.5504, 24649.42
599.0325, 24524.53
599.5146, 24377.96
599.9968, 24201.61
600.4789, 24058.68
600.9610, 23966.02
601.4431, 23891.36
601.9252, 23813.24
602.4073, 23730.64
602.8895, 23657.27
603.3716, 23599.18
603.8537, 23540.56
604.3358, 23452.25
604.8179, 23337.23
605.3000, 23223.31
605.7822, 23122.99
606.2643, 23024.54
606.7464, 22896.39
607.2285, 22747.68
607.7106, 22612.50
608.1927, 22525.13
608.6749, 22451.19
609.1570, 22366.08
609.6391, 22266.45
610.1212, 22160.57
610.6033, 22038.22
611.0854, 21917.90
611.5676, 21815.07
612.0497, 21743.25
612.5318, 21667.38
613.0139, 21578.26
613.4960, 21490.83
613.9781, 21437.80
614.4603, 21433.46
614.9424, 21399.72
615.4245, 21305.97
615.9066, 21179.64
616.3887, 21095.02
616.8708, 21051.76
617.3530, 21028.37
617.8351, 21029.68
618.3172, 21036.24
618.7993, 21013.42
619.2814, 20960.20
619.7635, 20902.01
620.2457, 20844.56
620.7278, 20796.45
621.2099, 20768.62
621.6920, 20776.60
622.1741, 20775.53
622.6563, 20739.52
623.1384, 20692.96
623.6205, 20671.00
624.1026, 20697.02
624.5847, 20710.37
625.0668, 20699.54
625.5490, 20670.19
626.0311, 20637.96
626.5132, 20599.76
626.9953, 20575.84
627.4774, 20588.83
627.9595, 20624.21
628.4417, 20614.54
628.9238, 20559.77
629.4059, 20513.24
629.8880, 20536.91
630.3701, 20586.74
630.8522, 20595.68
631.3344, 20541.02
631.8165, 20495.49
632.2986, 20504.93
632.7807, 20543.78
633.2628, 20581.75
633.7449, 20624.33
634.2271, 20650.88
634.7092, 20645.99
635.1913, 20625.04
635.6734, 20629.18
636.1555, 20676.14
636.6376, 20705.97
637.1198, 20686.49
637.6019, 20632.29
638.0840, 20645.04
638.5661, 20730.61
639.0482, 20801.59
639.5303, 20777.21
640.0125, 20694.53
640.4946, 20631.91
640.9767, 20594.80
641.4588, 20586.98
641.9409, 20643.80
642.4230, 20718.52
642.9052, 20754.11
643.3873, 20709.60
643.8694, 20670.67
644.3515, 20661.82
644.8336, 20675.52
645.3157, 20699.25
645.7979, 20742.72
646.2800, 20779.33
646.7621, 20802.03
647.2442, 20814.24
647.7263, 20828.20
648.2084, 20842.81
648.6906, 20865.60
649.1727, 20906.73
649.6548, 20959.81
650.1369, 20997.81
650.6190, 21020.67
651.1011, 21032.57
651.5833, 21016.06
652.0654, 20999.01
652.5475, 21028.13
653.0296, 21125.88
653.5117, 21203.96
653.9938, 21197.62
654.4760, 21157.20
654.9581, 21137.48
655.4402, 21159.10
655.9223, 21189.40
656.4044, 21225.49
656.8865, 21268.04
657.3687, 21323.03
657.8508, 21400.32
658.3329, 21456.73
658.8150, 21472.72
659.2971, 21460.90
659.7792, 21457.15
660.2614, 21462.14
660.7435, 21497.29
661.2256, 21605.40
661.7077, 21740.04
662.1898, 21822.00
662.6719, 21847.71
663.1541, 21881.20
663.6362, 21971.08
664.1183, 22081.03
664.6004, 22179.88
665.0825, 22260.45
665.5646, 22335.83
666.0468, 22395.83
666.5289, 22458.07
667.0110, 22540.07
667.4931, 22641.39
667.9752, 22766.70
668.4573, 22923.27
668.9395, 23095.00
669.4216, 23247.43
669.9037, 23379.99
670.3858, 23508.40
670.8679, 23632.46
671.3500, 23761.17
671.8322, 23914.05
672.3143, 24085.33
672.7964, 24252.16
673.2785, 24392.73
673.7606, 24530.98
674.2427, 24678.77
674.7249, 24837.44
675.2070, 25013.87
675.6891, 25204.86
676.1712, 25416.64
676.6533, 25658.56
677.1354, 25945.51
677.6176, 26210.04
678.0997, 26441.51
678.5818, 26664.29
679.0639, 26904.96
679.5460, 27162.16
680.0281, 27424.55
680.5103, 27686.96
680.9924, 27960.32
681.4745, 28265.52
681.9566, 28591.30
682.4387, 28902.09
682.9208, 29176.89
683.4030, 29442.46
683.8851, 29715.13
684.3672, 29992.21
684.8493, 30263.46
685.3314, 30557.35
685.8135, 30814.56
686.2957, 31012.39
686.7778, 31151.45
687.2599, 31293.76
687.7420, 31442.03
688.2241, 31586.77
688.7062, 31745.19
689.1884, 31909.02
689.6705, 31960.42
690.1526, 31891.63
690.6347, 31776.03
691.1168, 31682.33
691.5989, 31587.15
692.0811, 31452.25
692.5632, 31266.78
693.0453, 31054.45
693.5274, 30833.86
694.0095, 30589.69
694.4916, 30302.79
694.9738, 29916.34
695.4559, 29554.26
695.9380, 29240.12
696.4201, 28950.21
696.9022, 28633.76
697.3843, 28288.21
697.8665, 27929.46
698.3486, 27553.04
698.8307, 27171.49
699.3128, 26827.44
699.7949, 26517.10
700.2770, 26222.07
700.7592, 25933.26
701.2413, 25653.43
701.7234, 25380.89
702.2055, 25117.35
702.6876, 24876.21
703.1697, 24690.47
703.6519, 24514.08
704.1340, 24314.78
704.6161, 24074.65
705.0982, 23880.56
705.5803, 23757.44
706.0624, 23650.58
706.5446, 23516.71
707.0267, 23351.75
707.5088, 23207.00
707.9909, 23087.27
708.4730, 22980.82
708.9551, 22870.18
709.4373, 22762.02
709.9194, 22679.93
710.4015, 22641.99
710.8836, 22604.89
711.3657, 22518.15
711.8478, 22411.77
712.3300, 22336.66
712.8121, 22341.12
713.2942, 22340.73
713.7763, 22312.92
714.2584, 22264.56
714.7405, 22212.51
715.2227, 22148.35
715.7048, 22100.42
716.1869, 22084.11
716.6690, 22089.51
717.1511, 22072.85
717.6332, 22034.57
718.1154, 22000.86
718.5975, 21993.22
719.0796, 21997.34
719.5617, 21993.13
720.0438, 21980.39
720.5259, 21967.19
721.0081, 21965.22
721.4902, 21959.15
721.9723, 21930.56
722.4544, 21861.16
722.9365, 21838.52
723.4186, 21900.81
723.9008, 21972.43
724.3829, 21991.85
724.8650, 21946.69
725.3471, 21933.35
725.8292, 21963.97
726.3113, 22003.13
726.7935, 22008.71
727.2756, 21988.25
727.7577, 21961.30
728.2398, 21928.72
728.7219, 21901.00
729.2040, 21880.88
729.6862, 21872.76
730.1683, 21883.46
730.6504, 21939.64
731.1325, 21986.25
731.6146, 22004.62
732.0967, 22006.43
732.5789, 22016.17
733.0610, 22038.46
733.5431, 22055.79
734.0252, 22062.31
734.5073, 22060.94
734.9894, 22056.14
735.4716, 22048.95
735.9537, 22051.76
736.4358, 22082.42
736.9179, 22120.18
737.4000, 22137.18
737.8821, 22136.29
738.3643, 22136.45
738.8464, 22144.72
739.3286, 22157.93
739.8107, 22170.34
740.2928, 22179.49
740.7749, 22216.42
741.2570, 22304.94
741.7391, 22385.22
742.2213, 22416.12
742.7034, 22395.78
743.1855, 22385.97
743.6676, 22386.54
744.1497, 22401.56
744.6318, 22443.59
745.1140, 22500.69
745.5961, 22552.28
746.0782, 22595.93
746.5603, 22631.11
747.0424, 22651.32
747.5245, 22665.93
748.0067, 22684.45
748.4888, 22708.68
748.9709, 22737.31
749.4530, 22773.04
749.9351, 22811.18
750.4172, 22840.45
750.8994, 22856.90
751.3815, 22900.49
751.8636, 22986.26
752.3457, 23084.45
752.8278, 23152.45
753.3099, 23194.98
753.7921, 23226.46
754.2742, 23242.04
754.7563, 23261.70
755.2384, 23299.40
755.7205, 23351.63
756.2026, 23411.61
756.6848, 23500.09
757.1669, 23567.19
757.6490, 23591.97
758.1311, 23588.65
758.6132, 23605.90
759.0953, 23641.37
759.5775, 23711.10
760.0596, 23848.05
760.5417, 24012.32
761.0238, 24077.07
761.5059, 24056.18
761.9880, 24033.04
762.4702, 24051.99
762.9523, 24095.50
763.4344, 24155.84
763.9165, 24231.26
764.3986, 24302.20
764.8807, 24364.74
765.3629, 24421.46
765.8450, 24471.07
766.3271, 24512.47
766.8092, 24565.34
767.2913, 24631.38
767.7734, 24702.85
768.2556, 24777.46
768.7377, 24852.38
769.2198, 24910.40
769.7019, 24950.40
770.1840, 24994.73
770.6661, 25061.21
771.1483, 25141.08
771.6304, 25227.80
772.1125, 25321.62
772.5946, 25412.69
773.0767, 25497.37
773.5588, 25578.99
774.0410, 25659.90
774.5231, 25740.57
775.0052, 25819.49
775.4873, 25897.57
775.9694, 25972.07
776.4515, 26020.63
776.9337, 26059.67
777.4158, 26169.34
777.8979, 26378.25
778.3800, 26598.90
778.8621, 26770.06
779.3442, 26900.76
779.8264, 27003.85
780.3085, 27060.69
780.7906, 27123.10
781.2727, 27199.57
781.7548, 27288.43
782.2369, 27388.83
782.7191, 27499.95
783.2012, 27626.12
783.6833, 27774.86
784.1654, 27924.13
784.6475, 28025.63
785.1296, 28093.71
785.6118, 28188.44
786.0939, 28348.70
786.5760, 28513.25
787.0581, 28615.90
787.5402, 28684.58
788.0223, 28769.28
788.5045, 28908.60
788.9866, 29035.92
789.4687, 29133.31
789.9508, 29210.90
790.4329, 29288.81
790.9150, 29367.76
791.3972, 29447.80
791.8793, 29530.11
792.3614, 29614.23
792.8435, 29710.41
793.3256, 29811.80
793.8077, 29890.91
794.2899, 29914.02
794.7720, 29928.68
795.2541, 29969.47
795.7362, 30030.44
796.2183, 30089.53
796.7004, 30137.11
797.1826, 30189.22
797.6647, 30255.82
798.1468, 30331.06
798.6289, 30376.42
799.1110, 30388.45
799.5931, 30401.81
800.0753, 30443.59
800.5574, 30491.38
801.0395, 30482.04
801.5216, 30429.42
802.0037, 30400.65
802.4858, 30470.61
802.9680, 30545.29
803.4501, 30564.71
803.9322, 30529.79
804.4143, 30495.32
804.8964, 30467.42
805.3785, 30437.88
805.8607, 30397.44
806.3428, 30350.75
806.8249, 30342.12
807.3070, 30372.87
807.7891, 30409.42
808.2712, 30444.56
808.7534, 30465.27
809.2355, 30442.54
809.7176, 30380.00
810.1997, 30318.88
810.6818, 30256.64
811.1639, 30220.91
811.6461, 30241.93
812.1282, 30325.01
812.6103, 30365.43
813.0924, 30336.60
813.5745, 30321.38
814.0566, 30393.07
814.5388, 30528.58
815.0209, 30532.26
815.5030, 30405.99
815.9851, 30277.31
816.4672, 30249.92
816.9493, 30260.13
817.4315, 30230.28
817.9136, 30155.79
818.3957, 30117.08
818.8778, 30192.22
819.3599, 30262.09
819.8420, 30254.91
820.3242, 30160.98
820.8063, 30134.23
821.2884, 30191.46
821.7705, 30253.49
822.2526, 30247.98
822.7347, 30205.33
823.2169, 30228.63
823.6990, 30317.96
824.1811, 30394.65
824.6632, 30379.24
825.1453, 30348.02
825.6274, 30369.11
826.1096, 30459.80
826.5917, 30515.20
827.0738, 30504.14
827.5559, 30485.64
828.0380, 30493.77
828.5201, 30529.45
829.0023, 30542.55
829.4844, 30530.70
829.9665, 30525.97
830.4486, 30553.33
830.9307, 30604.23
831.4128, 30667.70
831.8950, 30742.48
832.3771, 30825.31
832.8592, 30908.15
833.3413, 31001.54
833.8234, 31119.26
834.3055, 31265.35
834.7877, 31391.13
835.2698, 31491.98
835.7519, 31586.49
836.2340, 31670.54
836.7161, 31755.21
837.1982, 31909.61
837.6804, 32133.75
838.1625, 32378.46
838.6446, 32618.88
839.1267, 32855.29
839.6088, 33082.93
840.0909, 33302.80
840.5731, 33535.41
841.0552, 33804.07
841.5373, 34068.78
842.0194, 34310.89
842.5015, 34529.97
842.9836, 34738.95
843.4658, 34934.99
843.9479, 35147.28
844.4300, 35417.33
844.9121, 35707.40
845.3942, 35948.79
845.8763, 36140.48
846.3585, 36325.23
846.8406, 36511.07
847.3227, 36708.33
847.8048, 36941.75
848.2869, 37214.52
848.7690, 37409.16
849.2512, 37495.79
849.7333, 37573.70
850.2154, 37704.57
850.6975, 37874.12
851.1796, 38018.25
851.6617, 38136.39
852.1439, 38229.75
852.6260, 38277.82
853.1081, 38318.79
853.5902, 38400.03
854.0723, 38520.02
854.5544, 38587.56
855.0366, 38524.17
855.5187, 38479.10
856.0008, 38513.73
856.4829, 38616.85
856.9650, 38688.80
857.4471, 38728.77
857.9293, 38743.48
858.4114, 38719.03
858.8935, 38681.01
859.3756, 38662.69
859.8577, 38664.10
860.3398, 38683.39
860.8220, 38729.27
861.3041, 38783.34
861.7862, 38841.45
862.2683, 38901.62
862.7504, 38955.28
863.2325, 38997.43
863.7147, 39046.41
864.1968, 39101.39
864.6789, 39172.77
865.1610, 39299.42
865.6431, 39470.33
866.1252, 39641.88
866.6074, 39740.31
867.0895, 39877.37
867.5716, 40146.58
868.0537, 40517.05
868.5358, 40862.20
869.0179, 41116.96
869.5001, 41447.52
869.9822, 41897.19
870.4643, 42445.94
870.9464, 43029.02
871.4285, 43646.41
871.9106, 44268.54
872.3928, 44840.66
872.8749, 45481.96
873.3570, 46340.43
873.8391, 47361.42
874.3212, 48411.09
874.8033, 49448.04
875.2855, 50543.64
875.7676, 51710.50
876.2497, 52937.14
876.7318, 54190.55
877.2139, 55464.82
877.6960, 56852.93
878.1782, 58399.81
878.6603, 60016.76
879.1424, 61596.80
879.6245, 63180.17
880.1067, 64841.94
880.5888, 66618.55
881.0709, 68455.26
881.5530, 70416.16
882.0352, 72382.03
882.5173, 74219.92
882.9994, 75874.11
883.4815, 77602.34
883.9636, 79438.15
884.4457, 81317.69
884.9279, 83199.28
885.4100, 85065.10
885.8921, 86849.50
886.3742, 88539.58
886.8563, 90124.80
887.3384, 91588.23
887.8206, 92945.54
888.3027, 94205.66
888.7848, 95338.31
889.2669, 96451.98
889.7490, 97563.09
890.2311, 98602.05
890.7133, 99526.48
891.1954, 100322.0
891.6775, 100866.9
892.1596, 101147.1
892.6417, 101347.3
893.1238, 101662.0
893.6060, 101912.0
894.0881, 101950.5
894.5702, 101747.5
895.0523, 101413.6
895.5344, 100936.5
896.0165, 100373.5
896.4987, 99734.84
896.9808, 99027.61
897.4629, 98315.80
897.9450, 97598.63
898.4271, 96784.78
898.9092, 95796.27
899.3914, 94703.90
899.8735, 93567.64
900.3556, 92383.29
900.8377, 91209.07
901.3198, 90086.01
901.8019, 88910.30
902.2841, 87651.66
902.7662, 86315.07
903.2483, 84948.25
903.7304, 83556.73
904.2125, 82197.93
904.6946, 80950.73
905.1768, 79731.67
905.6589, 78399.94
906.1410, 77012.71
906.6231, 75692.45
907.1052, 74575.29
907.5873, 73414.38
908.0695, 72105.95
908.5516, 70760.45
909.0337, 69559.48
909.5158, 68520.82
909.9979, 67455.56
910.4800, 66318.07
910.9622, 65184.60
911.4443, 64151.11
911.9264, 63196.22
912.4085, 62266.02
912.8906, 61348.79
913.3727, 60451.35
913.8549, 59554.86
914.3370, 58693.71
914.8191, 57911.01
915.3012, 57214.66
915.7833, 56559.20
916.2654, 55951.11
916.7476, 55371.88
917.2297, 54814.34
917.7118, 54273.11
918.1939, 53711.39
918.6760, 53120.23
919.1581, 52598.50
919.6403, 52251.78
920.1224, 51943.66
920.6045, 51583.91
921.0866, 51166.70
921.5687, 50822.86
922.0508, 50567.72
922.5330, 50320.97
923.0151, 50010.64
923.4972, 49684.10
923.9793, 49438.79
924.4614, 49264.30
924.9435, 49093.43
925.4257, 48891.65
925.9078, 48687.86
926.3899, 48501.77
926.8720, 48324.86
927.3541, 48122.82
927.8362, 47879.30
928.3184, 47694.61
928.8005, 47619.02
929.2826, 47589.03
929.7647, 47480.41
930.2468, 47323.98
930.7289, 47199.37
931.2111, 47177.84
931.6932, 47134.17
932.1753, 46962.97
932.6574, 46767.54
933.1395, 46706.07
933.6216, 46840.53
934.1038, 46867.93
934.5859, 46734.86
935.0680, 46570.05
935.5501, 46525.02
936.0322, 46563.36
936.5143, 46617.52
936.9965, 46677.41
937.4786, 46741.45
937.9607, 46817.20
938.4428, 46888.99
938.9249, 46944.36
939.4070, 46979.14
939.8892, 47029.64
940.3713, 47098.62
940.8534, 47172.40
941.3355, 47239.23
941.8176, 47305.58
942.2997, 47402.23
942.7819, 47518.30
943.2640, 47580.64
943.7461, 47507.82
944.2282, 47420.40
944.7103, 47391.20
945.1924, 47393.35
945.6746, 47322.48
946.1567, 47174.70
946.6388, 46984.04
947.1209, 46764.28
947.6030, 46499.38
948.0851, 46154.75
948.5673, 45744.16
949.0494, 45296.29
949.5315, 44830.03
950.0136, 44324.04
950.4957, 43775.07
950.9778, 43179.94
951.4600, 42528.91
951.9421, 41815.81
952.4242, 41078.38
952.9063, 40313.16
953.3884, 39554.89
953.8705, 38870.43
954.3527, 38213.59
954.8348, 37504.41
955.3169, 36727.38
955.7990, 35991.36
956.2811, 35349.75
956.7632, 34743.71
957.2454, 34144.49
957.7275, 33548.40
958.2096, 33021.31
958.6917, 32563.02
959.1738, 32121.60
959.6559, 31655.03
960.1381, 31192.42
960.6202, 30762.95
961.1023, 30372.47
961.5844, 30031.59
962.0665, 29775.17
962.5486, 29539.38
963.0308, 29315.38
963.5129, 29100.01
963.9950, 28885.54
964.4771, 28669.65
964.9592, 28430.78
965.4413, 28140.17
965.9235, 27880.67
966.4056, 27764.88
966.8877, 27715.58
967.3698, 27628.30
967.8519, 27447.21
968.3340, 27295.79
968.8162, 27178.66
969.2983, 27091.72
969.7804, 27045.19
970.2625, 27031.40
970.7446, 26982.87
971.2267, 26896.90
971.7089, 26790.51
972.1910, 26644.87
972.6731, 26508.94
973.1552, 26427.04
973.6373, 26398.82
974.1194, 26368.39
974.6016, 26333.40
975.0837, 26294.19
975.5658, 26245.88
976.0479, 26198.52
976.5300, 26181.77
977.0121, 26188.10
977.4943, 26188.66
977.9764, 26169.85
978.4585, 26144.70
978.9406, 26115.16
979.4227, 26085.53
979.9048, 26063.75
980.3870, 26055.35
980.8691, 26035.67
981.3512, 26000.39
981.8333, 25962.68
982.3154, 25935.41
982.7975, 25916.84
983.2797, 25902.19
983.7618, 25890.43
984.2439, 25891.35
984.7260, 25951.25
985.2081, 25982.94
985.6902, 25922.79
986.1724, 25779.86
986.6545, 25719.59
987.1366, 25747.56
987.6187, 25787.04
988.1008, 25812.14
988.5829, 25815.77
989.0651, 25767.32
989.5472, 25690.54
990.0293, 25644.09
990.5114, 25680.62
990.9935, 25704.03
991.4756, 25689.20
991.9578, 25664.74
992.4399, 25680.59
992.9220, 25732.18
993.4041, 25760.59
993.8862, 25755.73
994.3683, 25732.62
994.8505, 25689.45
995.3326, 25643.56
995.8147, 25614.32
996.2968, 25608.88
996.7789, 25592.11
997.2610, 25552.01
997.7432, 25525.72
998.2253, 25543.23
998.7074, 25587.61
999.1895, 25612.16
999.6716, 25614.77
1000.154, 25585.29
1000.636, 25465.10
1001.118, 25368.13
1001.600, 25360.38
1002.082, 25414.10
1002.564, 25471.03
1003.046, 25543.76
1003.529, 25557.98
1004.011, 25488.81
1004.493, 25402.78
1004.975, 25387.97
1005.457, 25412.49
1005.939, 25421.48
1006.421, 25400.57
1006.903, 25388.33
1007.385, 25420.28
1007.868, 25439.69
1008.350, 25403.77
1008.832, 25317.86
1009.314, 25313.18
1009.796, 25386.66
1010.278, 25449.81
1010.760, 25441.60
1011.242, 25405.04
1011.725, 25364.56
1012.207, 25326.07
1012.689, 25305.80
1013.171, 25316.91
1013.653, 25326.27
1014.135, 25332.38
1014.617, 25330.60
1015.099, 25308.79
1015.581, 25273.14
1016.064, 25240.58
1016.546, 25212.47
1017.028, 25199.24
1017.510, 25228.98
1017.992, 25258.30
1018.474, 25249.92
1018.956, 25201.08
1019.438, 25175.73
1019.921, 25177.90
1020.403, 25174.59
1020.885, 25133.73
1021.367, 25085.94
1021.849, 25079.35
1022.331, 25103.32
1022.813, 25128.20
1023.295, 25156.04
1023.778, 25166.40
1024.260, 25150.01
1024.742, 25122.08
1025.224, 25105.96
1025.706, 25099.91
1026.188, 25091.18
1026.670, 25078.31
1027.152, 25059.41
1027.634, 25015.34
1028.117, 24977.51
1028.599, 24975.09
1029.081, 25013.68
1029.563, 25052.89
1030.045, 25095.49
1030.527, 25127.83
1031.009, 25137.99
1031.491, 25138.14
1031.974, 25164.78
1032.456, 25203.46
1032.938, 25214.71
1033.420, 25146.43
1033.902, 25093.59
1034.384, 25097.17
1034.866, 25116.52
1035.348, 25093.69
1035.830, 25027.76
1036.313, 25030.67
1036.795, 25118.00
1037.277, 25196.13
1037.759, 25163.26
1038.241, 25095.70
1038.723, 25066.10
1039.205, 25080.86
1039.687, 25079.16
1040.169, 25041.32
1040.652, 25028.60
1041.134, 25077.14
1041.616, 25147.25
1042.098, 25130.60
1042.580, 25060.46
1043.062, 25033.68
1043.544, 25121.78
1044.026, 25191.22
1044.509, 25169.24
1044.991, 25119.79
1045.473, 25098.56
1045.955, 25108.02
1046.437, 25130.14
1046.919, 25165.97
1047.401, 25188.81
1047.883, 25164.32
1048.365, 25126.67
1048.848, 25103.41
1049.330, 25096.22
1049.812, 25109.21
1050.294, 25153.78
1050.776, 25195.17
1051.258, 25231.63
1051.740, 25251.76
1052.222, 25216.93
1052.704, 25150.06
1053.187, 25113.56
1053.669, 25129.57
1054.151, 25153.43
1054.633, 25169.57
1055.115, 25181.40
1055.597, 25188.98
1056.079, 25191.89
1056.561, 25212.38
1057.044, 25250.96
1057.526, 25284.23
1058.008, 25296.38
1058.490, 25297.22
1058.972, 25287.39
1059.454, 25274.22
1059.936, 25277.94
1060.418, 25320.04
1060.901, 25338.74
1061.383, 25319.12
1061.865, 25293.70
1062.347, 25307.28
1062.829, 25345.77
1063.311, 25376.16
1063.793, 25394.24
1064.275, 25409.90
1064.757, 25430.59
1065.240, 25446.48
1065.722, 25447.66
1066.204, 25440.65
1066.686, 25467.89
1067.168, 25527.52
1067.650, 25564.70
1068.132, 25549.72
1068.614, 25522.51
1069.096, 25515.16
1069.579, 25518.43
1070.061, 25520.09
1070.543, 25518.42
1071.025, 25517.52
1071.507, 25520.41
1071.989, 25514.17
1072.471, 25483.58
1072.953, 25438.72
1073.436, 25388.83
1073.918, 25338.98
1074.400, 25310.56
1074.882, 25355.66
1075.364, 25365.56
1075.846, 25293.60
1076.328, 25190.72
1076.810, 25162.72
1077.292, 25196.51
1077.775, 25202.26
1078.257, 25160.76
1078.739, 25103.66
1079.221, 25033.90
1079.703, 24972.81
1080.185, 24942.99
1080.667, 24943.42
1081.149, 24937.89
1081.631, 24927.36
1082.114, 24902.49
1082.596, 24846.10
1083.078, 24788.47
1083.560, 24773.72
1084.042, 24789.38
1084.524, 24812.78
1085.006, 24853.05
1085.488, 24876.96
1085.971, 24880.57
1086.453, 24873.77
1086.935, 24861.93
1087.417, 24847.71
1087.899, 24842.09
1088.381, 24844.11
1088.863, 24841.01
1089.345, 24824.61
1089.828, 24802.75
1090.310, 24770.67
1090.792, 24738.88
1091.274, 24734.50
1091.756, 24756.85
1092.238, 24789.40
1092.720, 24835.37
1093.202, 24857.66
1093.684, 24777.09
1094.167, 24687.23
1094.649, 24697.71
1095.131, 24831.19
1095.613, 24879.25
1096.095, 24821.69
1096.577, 24764.17
1097.059, 24762.85
1097.541, 24783.97
1098.024, 24773.70
1098.506, 24743.92
1098.988, 24718.77
1099.470, 24687.70
1099.952, 24695.58
1100.434, 24774.60
1100.916, 24844.64
1101.398, 24806.84
1101.880, 24697.03
1102.363, 24685.50
1102.845, 24765.24
1103.327, 24828.85
1103.809, 24803.79
1104.291, 24766.27
1104.773, 24737.99
1105.255, 24724.79
1105.737, 24748.71
1106.219, 24809.04
1106.702, 24844.07
1107.184, 24841.01
1107.666, 24827.99
1108.148, 24819.84
1108.630, 24819.93
1109.112, 24839.62
1109.594, 24879.25
1110.076, 24881.97
1110.559, 24837.40
1111.041, 24806.54
1111.523, 24821.70
1112.005, 24849.72
1112.487, 24833.92
1112.969, 24798.57
1113.451, 24786.09
1113.933, 24826.16
1114.416, 24846.98
1114.898, 24832.51
1115.380, 24822.61
1115.862, 24854.57
1116.344, 24913.78
1116.826, 24959.17
1117.308, 24988.91
1117.790, 24995.60
1118.272, 24932.70
1118.755, 24902.67
1119.237, 24957.63
1119.719, 25038.22
1120.201, 25057.17
1120.683, 25021.53
1121.165, 25000.22
1121.647, 25000.79
1122.129, 25000.57
1122.611, 24983.58
1123.094, 24960.51
1123.576, 24928.93
1124.058, 24896.37
1124.540, 24898.37
1125.022, 24937.41
1125.504, 24972.71
1125.986, 24993.91
1126.468, 25006.12
1126.951, 25015.06
1127.433, 25017.85
1127.915, 25008.20
1128.397, 24980.63
1128.879, 24965.53
1129.361, 24962.63
1129.843, 24974.38
1130.325, 25013.23
1130.807, 25056.54
1131.290, 25047.35
1131.772, 25015.37
1132.254, 25022.86
1132.736, 25166.89
1133.218, 25222.64
1133.700, 25141.41
1134.182, 25042.48
1134.664, 25043.26
1135.146, 25106.56
1135.629, 25104.73
1136.111, 25049.97
1136.593, 25032.89
1137.075, 25177.52
1137.557, 25257.81
1138.039, 25174.65
1138.521, 25034.87
1139.003, 25024.75
1139.486, 25119.16
1139.968, 25152.33
1140.450, 25100.25
1140.932, 25060.68
1141.414, 25125.69
1141.896, 25195.69
1142.378, 25204.80
1142.860, 25170.04
1143.343, 25153.40
1143.825, 25154.66
1144.307, 25164.56
1144.789, 25182.10
1145.271, 25201.97
1145.753, 25215.13
1146.235, 25230.81
1146.717, 25264.64
1147.199, 25319.50
1147.682, 25348.23
1148.164, 25350.18
1148.646, 25330.59
1149.128, 25272.51
1149.610, 25219.29
1150.092, 25245.74
1150.574, 25305.58
1151.056, 25317.02
1151.538, 25218.53
1152.021, 25186.56
1152.503, 25238.61
1152.985, 25298.96
1153.467, 25309.43
1153.949, 25288.84
1154.431, 25252.28
1154.913, 25209.90
1155.395, 25192.42
1155.878, 25222.11
1156.360, 25263.56
1156.842, 25321.59
1157.324, 25374.71
1157.806, 25389.94
1158.288, 25383.82
1158.770, 25401.34
1159.252, 25443.00
1159.734, 25463.76
1160.217, 25408.08
1160.699, 25381.32
1161.181, 25430.62
1161.663, 25501.02
1162.145, 25471.04
1162.627, 25369.68
1163.109, 25287.55
1163.591, 25238.04
1164.073, 25238.03
1164.556, 25357.14
1165.038, 25462.86
1165.520, 25489.29
1166.002, 25453.46
1166.484, 25410.91
1166.966, 25367.00
1167.448, 25352.22
1167.930, 25380.79
1168.413, 25430.37
1168.895, 25546.37
1169.377, 25626.46
1169.859, 25568.85
1170.341, 25379.59
1170.823, 25321.62
1171.305, 25387.28
1171.787, 25440.41
1172.270, 25382.21
1172.752, 25325.57
1173.234, 25356.96
1173.716, 25427.25
1174.198, 25467.63
1174.680, 25471.28
1175.162, 25488.49
1175.644, 25520.56
1176.126, 25543.98
1176.609, 25533.20
1177.091, 25514.50
1177.573, 25517.45
1178.055, 25526.94
1178.537, 25495.96
1179.019, 25402.66
1179.501, 25391.49
1179.983, 25487.32
1180.465, 25582.78
1180.948, 25570.38
1181.430, 25516.53
1181.912, 25466.02
1182.394, 25430.94
1182.876, 25466.50
1183.358, 25609.02
1183.840, 25668.06
1184.322, 25590.72
1184.805, 25486.55
1185.287, 25490.89
1185.769, 25539.13
1186.251, 25545.70
1186.733, 25501.25
1187.215, 25514.83
1187.697, 25621.31
1188.179, 25675.66
1188.661, 25611.21
1189.144, 25522.04
1189.626, 25558.67
1190.108, 25654.85
1190.590, 25716.26
1191.072, 25718.42
1191.554, 25723.28
1192.036, 25739.07
1192.518, 25741.88
1193.000, 25711.99
1193.483, 25674.22
1193.965, 25676.79
1194.447, 25701.38
1194.929, 25713.39
1195.411, 25694.41
1195.893, 25685.14
1196.375, 25688.66
1196.857, 25699.45
1197.340, 25725.64
1197.822, 25748.87
1198.304, 25718.21
1198.786, 25654.55
1199.268, 25609.36
1199.750, 25605.58
1200.232, 25614.73
1200.714, 25636.41
1201.197, 25667.29
1201.679, 25710.73
1202.161, 25758.71
1202.643, 25794.46
1203.125, 25818.40
1203.607, 25835.04
1204.089, 25855.38
1204.571, 25849.92
1205.053, 25805.90
1205.536, 25755.68
1206.018, 25733.22
1206.500, 25733.27
1206.982, 25753.06
1207.464, 25788.50
1207.946, 25811.06
1208.428, 25794.79
1208.910, 25789.36
1209.392, 25808.94
1209.875, 25831.43
1210.357, 25812.89
1210.839, 25776.98
1211.321, 25785.12
1211.803, 25841.92
1212.285, 25880.71
1212.767, 25867.06
1213.249, 25847.96
1213.732, 25829.01
1214.214, 25817.97
1214.696, 25824.20
1215.178, 25850.03
1215.660, 25916.35
1216.142, 26033.53
1216.624, 26095.40
1217.106, 26036.34
1217.589, 25975.37
1218.071, 25949.76
1218.553, 25947.79
1219.035, 25951.92
1219.517, 25958.53
1219.999, 25959.97
1220.481, 25955.03
1220.963, 25941.69
1221.445, 25913.22
1221.927, 25887.27
1222.410, 25868.79
1222.892, 25861.24
1223.374, 25878.86
1223.856, 25912.60
1224.338, 25944.39
1224.820, 25978.08
1225.302, 25980.21
1225.784, 25927.04
1226.267, 25883.07
1226.749, 25892.32
1227.231, 25929.39
1227.713, 25929.14
1228.195, 25905.79
1228.677, 25893.82
1229.159, 25913.95
1229.641, 25924.55
1230.124, 25910.40
1230.606, 25911.63
1231.088, 25981.64
1231.570, 26074.48
1232.052, 26063.73
1232.534, 25986.94
1233.016, 25943.30
1233.498, 25997.00
1233.980, 26039.66
1234.463, 26066.45
1234.945, 26080.53
1235.427, 26082.75
1235.909, 26074.72
1236.391, 26053.26
1236.873, 26024.03
1237.355, 26004.82
1237.837, 26000.21
1238.320, 26010.67
1238.802, 26043.01
1239.284, 26069.92
1239.766, 26065.28
1240.248, 26038.59
1240.730, 25980.89
1241.212, 25911.73
1241.694, 25910.35
1242.177, 26047.78
1242.659, 26111.69
1243.141, 26064.87
1243.623, 26000.38
1244.105, 26020.79
1244.587, 26077.85
1245.069, 26114.92
1245.551, 26130.78
1246.033, 26136.64
1246.516, 26124.29
1246.998, 26136.06
1247.480, 26182.52
1247.962, 26232.79
1248.444, 26249.51
1248.926, 26255.85
1249.408, 26284.75
1249.890, 26329.90
1250.372, 26341.71
1250.855, 26312.39
1251.337, 26276.89
1251.819, 26238.74
1252.301, 26211.82
1252.783, 26215.25
1253.265, 26233.68
1253.747, 26264.75
1254.229, 26300.04
1254.712, 26287.82
1255.194, 26218.69
1255.676, 26188.38
1256.158, 26221.10
1256.640, 26267.90
1257.122, 26292.97
1257.604, 26305.28
1258.086, 26304.38
1258.568, 26296.61
1259.051, 26310.86
1259.533, 26346.92
1260.015, 26386.77
1260.497, 26430.89
1260.979, 26451.36
1261.461, 26403.89
1261.943, 26344.96
1262.425, 26307.94
1262.907, 26294.25
1263.390, 26321.12
1263.872, 26382.69
1264.354, 26432.37
1264.836, 26458.37
1265.318, 26469.45
1265.800, 26460.31
1266.282, 26448.03
1266.764, 26440.77
1267.247, 26438.65
1267.729, 26447.37
1268.211, 26462.39
1268.693, 26464.70
1269.175, 26447.28
1269.657, 26423.45
1270.139, 26367.96
1270.621, 26347.02
1271.104, 26409.58
1271.586, 26512.88
1272.068, 26519.63
1272.550, 26464.88
1273.032, 26448.81
1273.514, 26517.97
1273.996, 26549.86
1274.478, 26490.81
1274.960, 26451.13
1275.443, 26492.82
1275.925, 26574.22
1276.407, 26615.21
1276.889, 26626.28
1277.371, 26628.79
1277.853, 26626.79
1278.335, 26613.88
1278.817, 26579.37
1279.299, 26568.23
1279.782, 26617.28
1280.264, 26680.46
1280.746, 26686.81
1281.228, 26660.45
1281.710, 26633.23
1282.192, 26602.69
1282.674, 26616.90
1283.156, 26685.38
1283.639, 26735.56
1284.121, 26721.61
1284.603, 26689.06
1285.085, 26684.60
1285.567, 26689.28
1286.049, 26671.85
1286.531, 26626.83
1287.013, 26630.88
1287.495, 26684.23
1287.978, 26739.29
1288.460, 26781.74
1288.942, 26805.07
1289.424, 26794.95
1289.906, 26769.85
1290.388, 26745.81
1290.870, 26723.34
1291.352, 26712.13
1291.834, 26711.89
1292.317, 26720.76
1292.799, 26747.91
1293.281, 26766.70
1293.763, 26754.03
1294.245, 26741.24
1294.727, 26756.53
1295.209, 26787.64
1295.691, 26763.98
1296.174, 26706.34
1296.656, 26685.64
1297.138, 26757.19
1297.620, 26814.31
1298.102, 26846.10
1298.584, 26854.81
1299.066, 26837.98
1299.548, 26802.14
1300.031, 26732.07
1300.513, 26660.61
1300.995, 26662.70
1301.477, 26829.58
1301.959, 26919.51
1302.441, 26918.07
1302.923, 26895.90
1303.405, 26890.51
1303.887, 26894.08
1304.370, 26910.96
1304.852, 26924.77
1305.334, 26899.47
1305.816, 26821.11
1306.298, 26784.89
1306.780, 26791.86
1307.262, 26816.57
1307.744, 26858.02
1308.226, 26894.29
1308.709, 26910.87
##END=



