##NAMES=Lanarkite
##RRUFFID=R080116
##IDEAL CHEMISTRY=Pb^2+^_2_O(S^6+^O_4_)
##LOCALITY=Leadhills, Lanarkshire,  Scotland
##OWNER=RRUFF
##SOURCE=William W. Pinch
##DESCRIPTION=Cream colored, elongated prismatic crystals
##STATUS=The identification of this mineral has been confirmed by single-crystal X-ray diffraction.
##URL=rruff.info/R080116
92.52344, 469.6149
93.00555, 460.9748
93.48767, 461.8581
93.96979, 484.4787
94.45190, 509.8145
94.93402, 536.5383
95.41614, 555.9189
95.89825, 568.8525
96.38037, 579.0978
96.86249, 587.4401
97.34460, 596.9421
97.82672, 607.1830
98.30884, 619.7522
98.79095, 633.8648
99.27307, 649.4397
99.75519, 667.9841
100.2373, 692.5370
100.7194, 723.4716
101.2015, 757.1606
101.6837, 798.7516
102.1658, 838.9449
102.6479, 873.6976
103.1300, 903.9083
103.6121, 922.7042
104.0942, 920.3984
104.5764, 903.5750
105.0585, 878.9073
105.5406, 844.5075
106.0227, 803.5177
106.5048, 765.4315
106.9869, 728.7919
107.4691, 697.2041
107.9512, 672.1234
108.4333, 652.5009
108.9154, 636.0260
109.3975, 621.2215
109.8796, 608.2862
110.3618, 595.5012
110.8439, 583.5968
111.3260, 571.1882
111.8081, 557.9852
112.2902, 543.8290
112.7723, 528.3367
113.2544, 510.8457
113.7366, 489.5376
114.2187, 469.5179
114.7008, 450.7902
115.1829, 433.1423
115.6650, 416.4439
116.1471, 400.5786
116.6293, 385.6798
117.1114, 372.1743
117.5935, 359.6743
118.0756, 348.8950
118.5577, 340.1788
119.0398, 333.3209
119.5220, 327.7498
120.0041, 323.2904
120.4862, 320.1356
120.9683, 318.0840
121.4504, 316.8579
121.9325, 317.0867
122.4147, 319.1158
122.8968, 322.9182
123.3789, 328.8192
123.8610, 336.7453
124.3431, 347.1066
124.8252, 360.5702
125.3074, 376.9983
125.7895, 397.0630
126.2716, 422.2812
126.7537, 453.0801
127.2358, 488.8580
127.7179, 530.9962
128.2001, 576.5560
128.6822, 622.8903
129.1643, 668.9055
129.6464, 714.2610
130.1285, 751.9866
130.6107, 780.1143
131.0928, 801.9030
131.5749, 815.3537
132.0570, 822.5045
132.5391, 827.0507
133.0212, 831.8171
133.5034, 836.5281
133.9855, 844.1927
134.4676, 853.2930
134.9497, 865.7527
135.4318, 882.3948
135.9139, 903.3395
136.3960, 928.6929
136.8782, 958.7007
137.3603, 994.0521
137.8424, 1033.004
138.3245, 1075.630
138.8066, 1121.674
139.2887, 1170.071
139.7709, 1219.974
140.2530, 1273.839
140.7351, 1333.705
141.2172, 1398.226
141.6993, 1472.237
142.1814, 1555.430
142.6636, 1648.656
143.1457, 1754.968
143.6278, 1868.886
144.1099, 2005.820
144.5920, 2168.509
145.0741, 2357.254
145.5563, 2582.838
146.0384, 2859.008
146.5205, 3188.254
147.0026, 3541.387
147.4847, 3995.308
147.9668, 4418.890
148.4490, 4775.729
148.9311, 5046.345
149.4132, 5176.732
149.8953, 5067.673
150.3774, 4619.460
150.8595, 4108.481
151.3417, 3495.191
151.8238, 2878.000
152.3059, 2325.413
152.7880, 1868.103
153.2701, 1495.993
153.7522, 1191.861
154.2344, 998.7811
154.7165, 838.1619
155.1986, 715.5579
155.6807, 621.2188
156.1628, 545.4884
156.6449, 484.5642
157.1271, 436.6369
157.6092, 395.8148
158.0913, 362.2748
158.5734, 333.5031
159.0555, 310.2460
159.5376, 291.5491
160.0198, 275.0208
160.5019, 259.4881
160.9840, 245.2854
161.4661, 233.0245
161.9482, 223.3120
162.4303, 214.7380
162.9125, 206.5255
163.3946, 198.6785
163.8767, 191.3557
164.3588, 184.7197
164.8409, 178.7587
165.3230, 173.3783
165.8052, 168.6714
166.2873, 164.4749
166.7694, 160.7323
167.2515, 157.5172
167.7336, 154.4677
168.2157, 151.2721
168.6979, 148.1498
169.1800, 145.3886
169.6621, 143.1913
170.1442, 141.3758
170.6263, 139.4040
171.1084, 137.1196
171.5906, 134.9358
172.0727, 133.1155
172.5548, 131.4346
173.0369, 129.5052
173.5190, 126.9827
174.0011, 124.0176
174.4833, 121.8947
174.9654, 121.7029
175.4475, 121.3247
175.9296, 120.2724
176.4117, 118.7075
176.8938, 116.9628
177.3760, 115.2627
177.8581, 113.6038
178.3402, 112.1335
178.8223, 110.8699
179.3044, 109.7513
179.7865, 108.8285
180.2687, 108.0528
180.7508, 107.3182
181.2329, 106.5520
181.7150, 105.7520
182.1971, 104.8387
182.6792, 103.5643
183.1614, 102.3958
183.6435, 101.7114
184.1256, 101.4826
184.6077, 101.2643
185.0898, 100.6219
185.5719, 99.52385
186.0541, 98.65266
186.5362, 98.17313
187.0183, 97.83923
187.5004, 97.42513
187.9825, 96.90171
188.4646, 96.38219
188.9468, 95.95809
189.4289, 95.62155
189.9110, 95.35277
190.3931, 95.34170
190.8752, 95.33886
191.3573, 94.83466
191.8395, 93.58308
192.3216, 92.42831
192.8037, 92.14929
193.2858, 92.46346
193.7679, 92.77434
194.2500, 92.83820
194.7322, 92.69722
195.2143, 92.47782
195.6964, 92.15672
196.1785, 91.79005
196.6606, 91.37634
197.1427, 90.94462
197.6249, 90.56135
198.1070, 90.25134
198.5891, 90.01852
199.0712, 89.90969
199.5533, 89.99931
200.0354, 90.14468
200.5176, 90.28840
200.9997, 90.44035
201.4818, 90.65776
201.9639, 91.08595
202.4460, 91.74798
202.9281, 91.77395
203.4103, 90.20168
203.8924, 88.83806
204.3745, 88.22334
204.8566, 88.28528
205.3387, 88.74317
205.8208, 89.42097
206.3030, 90.39377
206.7851, 90.88262
207.2672, 90.53319
207.7493, 90.09255
208.2314, 89.78852
208.7135, 89.64748
209.1957, 89.61765
209.6778, 89.65475
210.1599, 89.75929
210.6420, 89.94797
211.1241, 90.36450
211.6062, 90.72360
212.0884, 90.87707
212.5705, 90.82607
213.0526, 90.64117
213.5347, 90.34072
214.0168, 89.89968
214.4989, 89.74419
214.9811, 89.93021
215.4632, 90.32588
215.9453, 91.02238
216.4274, 91.96629
216.9095, 92.70966
217.3916, 92.81544
217.8737, 92.25095
218.3559, 91.78374
218.8380, 91.51215
219.3201, 91.28400
219.8022, 90.87393
220.2843, 90.26623
220.7664, 89.86015
221.2486, 90.17841
221.7307, 91.01466
222.2128, 91.46081
222.6949, 91.09423
223.1770, 90.43021
223.6591, 90.02897
224.1413, 89.92498
224.6234, 89.94595
225.1055, 90.01568
225.5876, 90.12267
226.0697, 90.25778
226.5518, 90.51051
227.0340, 90.74160
227.5161, 90.72188
227.9982, 90.40177
228.4803, 89.99760
228.9624, 89.53604
229.4445, 89.09156
229.9267, 88.78062
230.4088, 88.70293
230.8909, 88.73881
231.3730, 88.65066
231.8551, 88.38489
232.3372, 88.13111
232.8194, 88.06481
233.3015, 88.02451
233.7836, 87.78967
234.2657, 87.22004
234.7478, 86.48412
235.2299, 85.95071
235.7121, 85.63657
236.1942, 85.51306
236.6763, 85.67176
237.1584, 85.94183
237.6405, 86.15308
238.1227, 86.23464
238.6048, 86.21218
239.0869, 86.12873
239.5690, 85.86667
240.0511, 85.76223
240.5332, 86.02402
241.0154, 86.38428
241.4975, 86.53561
241.9796, 86.34277
242.4617, 85.98766
242.9438, 85.92609
243.4259, 86.28642
243.9081, 86.77625
244.3902, 87.54864
244.8723, 88.33006
245.3544, 88.82293
245.8365, 88.91938
246.3186, 88.79581
246.8008, 88.84542
247.2829, 89.04379
247.7650, 89.49535
248.2471, 90.49844
248.7292, 91.58713
249.2113, 92.21928
249.6935, 92.23721
250.1756, 92.06034
250.6577, 92.52706
251.1398, 94.31944
251.6219, 95.79719
252.1040, 96.79520
252.5862, 97.57255
253.0683, 98.28953
253.5504, 99.00638
254.0325, 99.79757
254.5146, 100.7787
254.9967, 101.9384
255.4789, 103.3686
255.9610, 105.2740
256.4431, 107.3200
256.9252, 109.1488
257.4073, 110.6989
257.8894, 112.2912
258.3716, 114.3940
258.8537, 117.3157
259.3358, 119.9573
259.8179, 121.8750
260.3000, 123.7872
260.7821, 126.3398
261.2643, 129.6440
261.7464, 133.3416
262.2285, 137.0770
262.7106, 140.8659
263.1927, 144.7859
263.6748, 148.8756
264.1570, 153.0627
264.6391, 157.1638
265.1212, 161.1820
265.6033, 165.4683
266.0854, 170.3872
266.5675, 175.9755
267.0497, 181.3989
267.5318, 186.6007
268.0139, 191.6327
268.4960, 196.3725
268.9781, 200.8404
269.4602, 205.5427
269.9424, 210.9381
270.4245, 216.9513
270.9066, 222.8195
271.3887, 228.4696
271.8708, 234.0341
272.3529, 239.4993
272.8351, 244.8999
273.3172, 250.4662
273.7993, 256.3949
274.2814, 262.6312
274.7635, 268.8941
275.2456, 274.8000
275.7278, 281.1178
276.2099, 288.5814
276.6920, 297.0737
277.1741, 305.6107
277.6562, 313.5164
278.1383, 321.3312
278.6205, 330.0180
279.1026, 340.0651
279.5847, 350.1075
280.0668, 359.1933
280.5489, 367.4824
281.0310, 375.7512
281.5132, 384.4942
281.9953, 393.0675
282.4774, 400.8501
282.9595, 407.9472
283.4416, 413.7324
283.9237, 418.0000
284.4059, 420.6893
284.8880, 421.5651
285.3701, 420.5612
285.8522, 417.4998
286.3343, 412.5182
286.8164, 405.6930
287.2986, 397.2353
287.7807, 386.9851
288.2628, 375.1327
288.7449, 362.3080
289.2270, 348.2777
289.7091, 333.7466
290.1913, 318.7541
290.6734, 303.5872
291.1555, 288.9725
291.6376, 275.2889
292.1197, 262.4943
292.6018, 250.3560
293.0840, 239.0683
293.5661, 228.1600
294.0482, 216.9213
294.5303, 205.8585
295.0124, 195.8711
295.4945, 187.5496
295.9767, 180.4792
296.4588, 174.0225
296.9409, 168.2475
297.4230, 162.8466
297.9051, 157.5788
298.3872, 152.5671
298.8694, 147.9871
299.3515, 143.8718
299.8336, 140.2309
300.3157, 137.1367
300.7978, 134.6358
301.2799, 132.2946
301.7621, 129.8389
302.2442, 127.5311
302.7263, 125.6383
303.2084, 124.2347
303.6905, 123.0827
304.1726, 121.8792
304.6548, 120.6112
305.1369, 119.6854
305.6190, 119.3160
306.1011, 119.2605
306.5832, 119.3468
307.0653, 119.5614
307.5475, 119.9120
308.0296, 120.4703
308.5117, 121.2139
308.9938, 121.8354
309.4759, 121.9659
309.9580, 122.3926
310.4402, 123.7659
310.9223, 125.8880
311.4044, 128.0004
311.8865, 129.4572
312.3686, 130.4606
312.8507, 131.9324
313.3329, 133.9851
313.8150, 136.3674
314.2971, 138.9981
314.7792, 141.8255
315.2613, 144.7803
315.7434, 147.8548
316.2256, 151.0376
316.7077, 154.2992
317.1898, 157.6548
317.6719, 161.1337
318.1540, 164.6580
318.6361, 168.3474
319.1183, 172.4359
319.6004, 177.1283
320.0825, 181.9176
320.5646, 185.9536
321.0467, 189.0462
321.5288, 192.5988
322.0110, 197.2609
322.4931, 202.4727
322.9752, 207.8335
323.4573, 213.2623
323.9394, 218.8765
324.4215, 224.9461
324.9037, 231.4212
325.3858, 237.5513
325.8679, 242.9322
326.3500, 248.1748
326.8321, 253.4949
327.3142, 258.9832
327.7964, 265.0065
328.2785, 272.1999
328.7606, 280.2492
329.2427, 287.7106
329.7248, 294.4740
330.2069, 300.6389
330.6891, 306.1225
331.1712, 311.1299
331.6533, 316.1517
332.1354, 321.8558
332.6175, 327.4878
333.0996, 331.5687
333.5818, 334.0639
334.0639, 335.1506
334.5460, 334.5567
335.0281, 332.7152
335.5102, 329.9094
335.9923, 326.1354
336.4745, 321.5483
336.9566, 316.4906
337.4387, 311.0404
337.9208, 304.0856
338.4029, 294.2899
338.8850, 283.4206
339.3671, 273.3390
339.8492, 264.2024
340.3314, 255.0095
340.8135, 244.8302
341.2956, 233.7870
341.7777, 223.1479
342.2598, 213.0703
342.7419, 203.5815
343.2241, 194.6909
343.7062, 186.3150
344.1883, 178.2791
344.6704, 170.3076
345.1525, 162.6405
345.6346, 155.9407
346.1168, 150.4764
346.5989, 145.2478
347.0810, 139.2249
347.5631, 132.9908
348.0452, 127.6315
348.5273, 123.7954
349.0095, 120.6180
349.4916, 117.0793
349.9737, 113.1787
350.4558, 109.5898
350.9379, 106.8007
351.4200, 104.4468
351.9022, 101.8929
352.3843, 99.03399
352.8664, 96.22114
353.3485, 93.69064
353.8306, 91.40891
354.3127, 89.24506
354.7949, 87.14568
355.2770, 85.17276
355.7591, 83.42491
356.2412, 81.89818
356.7233, 80.36295
357.2054, 78.70954
357.6876, 77.00526
358.1697, 75.26152
358.6518, 73.43368
359.1339, 71.90306
359.6160, 71.20428
360.0981, 71.16592
360.5803, 70.86698
361.0624, 70.11522
361.5445, 69.12744
362.0266, 67.92347
362.5087, 66.56078
362.9908, 65.48621
363.4730, 65.07159
363.9551, 65.04894
364.4372, 64.55133
364.9193, 63.24901
365.4014, 62.06523
365.8835, 61.52380
366.3657, 61.35823
366.8478, 61.01999
367.3299, 60.31822
367.8120, 59.43459
368.2941, 58.61955
368.7762, 57.85826
369.2584, 57.21975
369.7405, 56.75785
370.2226, 56.40048
370.7047, 56.10219
371.1868, 55.84893
371.6689, 55.60980
372.1511, 55.36419
372.6332, 55.11071
373.1153, 54.79718
373.5974, 54.28412
374.0795, 53.85026
374.5616, 53.68229
375.0438, 53.70447
375.5259, 53.71248
376.0080, 53.59363
376.4901, 53.38583
376.9722, 53.22299
377.4543, 53.10209
377.9365, 53.02824
378.4186, 53.08815
378.9007, 53.15630
379.3828, 53.05265
379.8649, 52.73956
380.3470, 52.38784
380.8292, 52.24322
381.3113, 52.39579
381.7934, 52.49590
382.2755, 52.60170
382.7576, 52.61433
383.2397, 52.34829
383.7219, 51.90942
384.2040, 51.64284
384.6861, 51.85006
385.1682, 52.49049
385.6503, 52.90774
386.1324, 52.92678
386.6146, 52.90148
387.0967, 52.79462
387.5788, 52.70797
388.0609, 52.84234
388.5430, 53.27893
389.0251, 53.75413
389.5073, 53.65582
389.9894, 52.44808
390.4715, 51.80469
390.9536, 52.11282
391.4357, 52.69348
391.9178, 53.21131
392.4000, 53.58400
392.8821, 53.82284
393.3642, 53.92818
393.8463, 53.89774
394.3284, 53.79137
394.8105, 53.48800
395.2927, 53.24837
395.7748, 53.13877
396.2569, 53.15334
396.7390, 53.29586
397.2211, 53.59730
397.7032, 53.96574
398.1854, 54.17196
398.6675, 54.14588
399.1496, 54.17356
399.6317, 54.51463
400.1138, 54.83095
400.5959, 54.78569
401.0781, 54.33120
401.5602, 53.86322
402.0423, 53.76762
402.5244, 54.01294
403.0065, 54.26405
403.4886, 54.53064
403.9708, 54.72239
404.4529, 54.61525
404.9350, 54.36779
405.4171, 54.44635
405.8992, 55.20039
406.3813, 56.31818
406.8635, 57.21787
407.3456, 57.83695
407.8277, 58.82259
408.3098, 60.45582
408.7919, 62.73613
409.2740, 65.60629
409.7562, 69.19552
410.2383, 73.04785
410.7204, 77.34580
411.2025, 81.74160
411.6846, 85.24779
412.1667, 87.58512
412.6489, 89.10711
413.1310, 90.07275
413.6131, 90.51516
414.0952, 90.77673
414.5773, 90.41227
415.0594, 90.23087
415.5416, 91.01090
416.0237, 92.74722
416.5058, 94.93711
416.9879, 97.21739
417.4700, 99.70042
417.9521, 102.9940
418.4343, 107.6265
418.9164, 112.2801
419.3985, 116.2336
419.8806, 120.1067
420.3627, 124.6958
420.8448, 130.2721
421.3270, 136.7459
421.8091, 143.8980
422.2912, 151.2415
422.7733, 160.9775
423.2554, 173.0835
423.7375, 187.3134
424.2197, 204.0620
424.7018, 222.8187
425.1839, 242.5405
425.6660, 262.7053
426.1481, 282.9040
426.6302, 300.9898
427.1124, 319.2481
427.5945, 331.8105
428.0766, 340.1772
428.5587, 341.5533
429.0408, 331.9550
429.5229, 310.6161
430.0051, 282.3433
430.4872, 252.1623
430.9693, 218.3300
431.4514, 190.4595
431.9335, 170.4780
432.4156, 155.3302
432.8978, 144.6518
433.3799, 137.9579
433.8620, 134.3459
434.3441, 133.5462
434.8262, 135.2532
435.3083, 138.4675
435.7905, 142.7484
436.2726, 149.7781
436.7547, 160.3520
437.2368, 173.9410
437.7189, 190.5315
438.2010, 210.1764
438.6832, 232.0508
439.1653, 256.8258
439.6474, 283.6649
440.1295, 309.5628
440.6116, 336.9700
441.0938, 357.3964
441.5759, 364.8910
442.0580, 360.3256
442.5401, 342.4076
443.0222, 302.2209
443.5043, 254.4271
443.9865, 210.7381
444.4686, 171.6400
444.9507, 139.1597
445.4328, 114.8568
445.9149, 97.34021
446.3970, 83.79256
446.8792, 74.51025
447.3613, 67.28632
447.8434, 62.24223
448.3255, 58.60974
448.8076, 55.60340
449.2897, 53.03712
449.7719, 50.78694
450.2540, 48.72435
450.7361, 46.84111
451.2182, 45.37731
451.7003, 44.60017
452.1824, 43.88096
452.6646, 42.99730
453.1467, 42.01052
453.6288, 41.01016
454.1109, 40.03243
454.5930, 39.15962
455.0751, 38.55684
455.5573, 38.33814
456.0394, 38.18480
456.5215, 38.27013
457.0036, 38.26409
457.4857, 37.83685
457.9678, 37.10986
458.4500, 36.53365
458.9321, 36.51115
459.4142, 36.90883
459.8963, 36.89854
460.3784, 36.15270
460.8605, 35.58290
461.3427, 35.54060
461.8248, 35.70342
462.3069, 35.73296
462.7890, 35.54538
463.2711, 35.37956
463.7532, 35.57282
464.2354, 36.08705
464.7175, 36.33699
465.1996, 36.12348
465.6817, 35.84741
466.1638, 35.74676
466.6459, 35.80221
467.1281, 35.99376
467.6102, 36.48095
468.0923, 36.95052
468.5744, 36.91810
469.0565, 36.45153
469.5386, 36.27269
470.0208, 36.75485
470.5029, 37.55554
470.9850, 38.07860
471.4671, 38.30946
471.9492, 38.46436
472.4313, 38.47987
472.9135, 38.51566
473.3956, 38.79243
473.8777, 39.30440
474.3598, 39.81382
474.8419, 40.12238
475.3240, 40.26344
475.8062, 40.56170
476.2883, 41.25758
476.7704, 41.79598
477.2525, 41.88068
477.7346, 41.82902
478.2167, 42.03535
478.6989, 42.59885
479.1810, 43.31365
479.6631, 43.95156
480.1452, 44.53210
480.6273, 44.90917
481.1094, 44.74163
481.5916, 44.71878
482.0737, 45.22254
482.5558, 45.99897
483.0379, 46.60151
483.5200, 46.81325
484.0021, 46.77262
484.4843, 46.72694
484.9664, 46.67716
485.4485, 46.61800
485.9306, 46.58395
486.4127, 46.50639
486.8948, 46.34798
487.3770, 46.10701
487.8591, 45.79144
488.3412, 45.42815
488.8233, 44.98803
489.3054, 44.33801
489.7875, 43.44542
490.2697, 42.71218
490.7518, 42.45679
491.2339, 42.43535
491.7160, 42.14521
492.1981, 41.53046
492.6802, 40.81786
493.1624, 39.96708
493.6445, 39.13081
494.1266, 38.59924
494.6087, 38.41112
495.0908, 38.26236
495.5729, 37.87853
496.0551, 37.26236
496.5372, 36.69309
497.0193, 36.09315
497.5014, 35.62134
497.9835, 35.38497
498.4656, 35.28404
498.9478, 35.20790
499.4299, 35.11237
499.9120, 34.95832
500.3941, 34.66973
500.8762, 34.17887
501.3583, 33.81617
501.8405, 33.71572
502.3226, 33.60810
502.8047, 33.32921
503.2868, 32.98479
503.7689, 32.81511
504.2510, 32.96955
504.7331, 33.21196
505.2152, 33.03690
505.6974, 32.34293
506.1795, 31.86544
506.6616, 31.91127
507.1437, 32.07713
507.6258, 32.07632
508.1079, 31.92376
508.5901, 31.74438
509.0722, 31.55280
509.5543, 31.39221
510.0364, 31.39270
510.5185, 31.54953
511.0006, 31.52912
511.4828, 31.06553
511.9649, 30.43020
512.4470, 30.25379
512.9291, 30.70184
513.4113, 30.96003
513.8934, 30.58879
514.3755, 30.06698
514.8576, 29.96641
515.3397, 30.28413
515.8218, 30.55235
516.3040, 30.40532
516.7861, 29.91377
517.2682, 29.59314
517.7503, 29.53834
518.2324, 29.54425
518.7145, 29.78518
519.1967, 29.96330
519.6788, 29.62802
520.1609, 28.80994
520.6430, 28.14296
521.1251, 28.38234
521.6072, 29.49006
522.0894, 30.04905
522.5715, 29.76038
523.0536, 29.38261
523.5357, 29.08676
524.0178, 28.89556
524.4999, 28.87767
524.9821, 29.06645
525.4642, 29.25589
525.9463, 29.21125
526.4284, 28.99449
526.9105, 28.91514
527.3926, 29.07125
527.8748, 29.19652
528.3569, 28.99787
528.8390, 28.59138
529.3211, 28.38254
529.8032, 28.59887
530.2853, 28.80735
530.7675, 28.75113
531.2496, 28.52422
531.7317, 28.29355
532.2138, 28.10620
532.6959, 27.96108
533.1780, 27.85258
533.6602, 27.77237
534.1423, 27.78744
534.6244, 28.00404
535.1065, 28.18458
535.5886, 28.21831
536.0707, 28.16379
536.5529, 28.10802
537.0350, 28.08694
537.5171, 28.09509
537.9992, 28.16196
538.4813, 28.33742
538.9634, 28.30363
539.4456, 27.76575
539.9277, 27.32931
540.4098, 27.35817
540.8919, 27.67698
541.3740, 27.92254
541.8561, 27.93356
542.3383, 27.85749
542.8204, 27.91281
543.3025, 28.07286
543.7846, 28.05035
544.2667, 27.70146
544.7488, 27.29488
545.2310, 27.15851
545.7131, 27.25872
546.1952, 27.29962
546.6773, 27.15249
547.1594, 27.01185
547.6415, 27.06209
548.1237, 27.21894
548.6058, 27.23267
549.0879, 26.99575
549.5700, 26.70056
550.0521, 26.68679
550.5342, 27.12135
551.0164, 27.32401
551.4985, 27.20871
551.9806, 26.98780
552.4627, 26.68936
552.9448, 26.36469
553.4269, 26.06839
553.9091, 25.82207
554.3912, 25.65904
554.8733, 25.69664
555.3554, 25.99150
555.8375, 26.07226
556.3196, 25.59035
556.8018, 25.22214
557.2839, 25.57435
557.7660, 26.37962
558.2481, 26.86650
558.7302, 26.57525
559.2123, 26.07381
559.6945, 25.95400
560.1766, 26.13461
560.6587, 26.24626
561.1408, 26.16495
561.6229, 26.02243
562.1050, 26.00540
562.5872, 26.15101
563.0693, 26.11853
563.5514, 25.70524
564.0335, 25.31356
564.5156, 25.18306
564.9977, 25.21400
565.4799, 25.17623
565.9620, 24.98261
566.4441, 24.80555
566.9262, 24.97482
567.4083, 25.65425
567.8904, 26.01299
568.3726, 25.77409
568.8547, 25.48418
569.3368, 25.26562
569.8189, 25.13544
570.3010, 25.12481
570.7831, 25.26288
571.2653, 25.42781
571.7474, 25.44560
572.2295, 25.34228
572.7116, 25.35214
573.1937, 25.56057
573.6758, 25.76571
574.1580, 25.76325
574.6401, 25.61050
575.1222, 25.53318
575.6043, 25.59655
576.0864, 25.68923
576.5685, 25.73030
577.0507, 25.77212
577.5328, 25.91001
578.0149, 26.16534
578.4970, 26.48123
578.9791, 26.80536
579.4612, 27.13988
579.9434, 27.42989
580.4255, 27.47227
580.9076, 27.71438
581.3897, 28.37239
581.8718, 29.20541
582.3539, 29.90438
582.8361, 30.42263
583.3182, 31.02305
583.8003, 32.02200
584.2824, 33.36672
584.7645, 34.61087
585.2466, 35.66219
585.7288, 36.89191
586.2108, 38.60389
586.6929, 40.55673
587.1750, 42.36811
587.6572, 43.97254
588.1393, 45.60913
588.6214, 47.61023
589.1035, 49.59413
589.5856, 50.91726
590.0677, 51.59505
590.5499, 52.20137
591.0320, 53.02816
591.5141, 54.18552
591.9962, 56.07557
592.4783, 59.13369
592.9604, 62.34933
593.4426, 65.55904
593.9247, 69.03960
594.4068, 72.81761
594.8889, 77.01955
595.3710, 81.99960
595.8531, 88.02813
596.3353, 94.81667
596.8174, 101.8411
597.2995, 109.0872
597.7816, 116.5056
598.2637, 124.2622
598.7458, 131.9818
599.2280, 139.6902
599.7101, 147.2300
600.1922, 153.8228
600.6743, 158.9470
601.1564, 163.2592
601.6385, 167.4742
602.1207, 171.3515
602.6028, 174.9506
603.0849, 178.4932
603.5670, 179.2307
604.0491, 173.5115
604.5313, 160.7540
605.0134, 144.8418
605.4955, 122.0276
605.9776, 100.7457
606.4597, 82.89010
606.9418, 68.38288
607.4240, 57.42669
607.9061, 49.96249
608.3882, 45.04950
608.8703, 42.13999
609.3524, 41.12507
609.8345, 40.57605
610.3167, 40.60154
610.7988, 40.80122
611.2809, 40.94301
611.7630, 41.16795
612.2451, 41.65704
612.7272, 42.42019
613.2094, 43.46844
613.6915, 44.80959
614.1736, 46.44032
614.6557, 48.27168
615.1378, 50.34966
615.6199, 52.91591
616.1021, 56.11628
616.5842, 59.87673
617.0663, 63.95155
617.5484, 68.66052
618.0305, 73.21427
618.5126, 78.17049
618.9948, 82.47297
619.4769, 86.19077
619.9590, 88.70310
620.4411, 88.80422
620.9232, 85.85220
621.4053, 80.37687
621.8875, 72.38523
622.3696, 61.95220
622.8517, 52.59431
623.3338, 44.78453
623.8159, 38.42804
624.2980, 33.81275
624.7802, 30.66212
625.2623, 28.20499
625.7444, 26.69131
626.2265, 25.45132
626.7086, 24.15751
627.1907, 22.94974
627.6729, 22.02446
628.1550, 21.41591
628.6371, 21.07328
629.1192, 20.98786
629.6013, 21.11279
630.0834, 21.05602
630.5656, 20.65680
631.0477, 20.34154
631.5298, 20.24778
632.0119, 20.19168
632.4940, 20.00520
632.9761, 19.71009
633.4583, 19.48216
633.9404, 19.46044
634.4225, 19.53664
634.9046, 19.55177
635.3867, 19.50753
635.8688, 19.41413
636.3510, 19.25504
636.8331, 19.09565
637.3152, 19.01629
637.7973, 19.02545
638.2794, 19.04101
638.7615, 19.06243
639.2437, 19.08968
639.7258, 19.13787
640.2079, 19.18578
640.6900, 19.17597
641.1721, 19.10777
641.6542, 19.09109
642.1364, 19.29299
642.6185, 19.67971
643.1006, 19.76130
643.5827, 19.35539
644.0648, 19.04761
644.5469, 19.12875
645.0291, 19.34919
645.5112, 19.54163
645.9933, 19.68939
646.4754, 19.68973
646.9575, 19.34205
647.4396, 18.93481
647.9218, 18.76569
648.4039, 18.81876
648.8860, 19.01289
649.3681, 19.33258
649.8502, 19.64772
650.3323, 19.75026
650.8145, 19.58080
651.2966, 19.47002
651.7787, 19.46260
652.2608, 19.45981
652.7429, 19.40817
653.2250, 19.35544
653.7072, 19.39453
654.1893, 19.54029
654.6714, 19.64499
655.1535, 19.49559
655.6356, 19.19442
656.1177, 19.12900
656.5999, 19.34298
657.0820, 19.50149
657.5641, 19.40984
658.0462, 19.21108
658.5283, 19.21085
659.0104, 19.47794
659.4926, 19.56404
659.9747, 19.19592
660.4568, 18.82855
660.9389, 18.79213
661.4210, 18.97054
661.9031, 19.08915
662.3853, 19.04151
662.8674, 18.94619
663.3495, 18.98444
663.8316, 19.16917
664.3137, 19.27978
664.7958, 19.28635
665.2780, 19.27252
665.7601, 19.22211
666.2422, 19.19720
666.7243, 19.32599
667.2064, 19.65405
667.6885, 19.83582
668.1707, 19.59789
668.6528, 19.20444
669.1349, 18.89581
669.6170, 18.70336
670.0991, 18.69966
670.5812, 18.93379
671.0634, 19.23904
671.5455, 19.31267
672.0276, 19.07388
672.5097, 18.90941
672.9918, 18.76809
673.4739, 18.76404
673.9561, 19.08055
674.4382, 19.49098
674.9203, 19.70212
675.4024, 19.64021
675.8845, 19.47344
676.3666, 19.28771
676.8488, 19.10775
677.3309, 18.99357
677.8130, 18.94727
678.2951, 18.91264
678.7772, 18.85203
679.2593, 18.81017
679.7415, 18.88161
680.2236, 19.13566
680.7057, 19.28576
681.1878, 19.20936
681.6699, 19.16315
682.1520, 19.30686
682.6342, 19.53980
683.1163, 19.70977
683.5984, 19.77048
684.0805, 19.76702
684.5626, 19.72651
685.0447, 19.65939
685.5269, 19.63224
686.0090, 19.65814
686.4911, 19.65476
686.9732, 19.57693
687.4553, 19.45941
687.9374, 19.34274
688.4196, 19.21803
688.9017, 19.15989
689.3838, 19.24633
689.8659, 19.33655
690.3480, 19.33838
690.8301, 19.28726
691.3123, 19.23800
691.7944, 19.21274
692.2765, 19.23043
692.7586, 19.33096
693.2407, 19.50470
693.7228, 19.60240
694.2050, 19.58713
694.6871, 19.60047
695.1692, 19.76434
695.6513, 19.92411
696.1334, 19.89460
696.6155, 19.67565
697.0977, 19.47333
697.5798, 19.28097
698.0619, 19.18923
698.5440, 19.36793
699.0261, 19.67562
699.5082, 19.81083
699.9904, 19.69380
700.4725, 19.48568
700.9546, 19.34159
701.4367, 19.26525
701.9188, 19.33159
702.4009, 19.63855
702.8831, 19.89315
703.3652, 20.04218
703.8473, 20.09674
704.3294, 19.98793
704.8115, 19.75840
705.2936, 19.65315
705.7758, 19.88567
706.2579, 20.16543
706.7400, 20.25551
707.2221, 20.21091
707.7042, 20.16285
708.1863, 20.13958
708.6685, 20.05666
709.1506, 19.81595
709.6327, 19.45530
710.1148, 19.26467
710.5969, 19.28924
711.0790, 19.40724
711.5612, 19.71891
712.0433, 20.01361
712.5254, 20.20480
713.0075, 20.26563
713.4896, 20.12379
713.9717, 19.63682
714.4539, 19.15462
714.9360, 19.03006
715.4181, 19.13695
715.9002, 19.21308
716.3823, 19.21206
716.8644, 19.13004
717.3466, 18.93999
717.8287, 18.70145
718.3108, 18.63845
718.7929, 18.84851
719.2750, 19.05227
719.7571, 19.34371
720.2393, 19.52534
720.7214, 19.40188
721.2035, 19.11742
721.6856, 18.95648
722.1677, 19.02916
722.6498, 19.14544
723.1320, 19.12687
723.6141, 19.04465
724.0962, 19.07320
724.5783, 19.21384
725.0604, 19.29132
725.5425, 19.20439
726.0247, 19.01788
726.5068, 18.85761
726.9889, 18.71519
727.4710, 18.62597
727.9531, 18.58347
728.4352, 18.60061
728.9174, 18.75015
729.3995, 18.93014
729.8816, 19.00874
730.3637, 18.95874
730.8458, 18.86068
731.3279, 18.75288
731.8101, 18.64148
732.2922, 18.53138
732.7743, 18.42541
733.2564, 18.32706
733.7385, 18.23112
734.2206, 18.19351
734.7028, 18.30679
735.1849, 18.58932
735.6670, 18.74458
736.1491, 18.69983
736.6312, 18.61486
737.1133, 18.36467
737.5955, 18.19347
738.0776, 18.45871
738.5597, 19.06220
739.0418, 19.40144
739.5239, 18.99842
740.0060, 18.39590
740.4882, 18.22809
740.9703, 18.37918
741.4524, 18.51212
741.9345, 18.55595
742.4166, 18.55425
742.8987, 18.53139
743.3809, 18.50167
743.8630, 18.54667
744.3451, 18.79206
744.8272, 18.87998
745.3093, 18.66255
745.7914, 18.41883
746.2736, 18.23421
746.7557, 18.14692
747.2378, 18.24999
747.7199, 18.63070
748.2020, 18.95116
748.6841, 18.90766
749.1663, 18.65378
749.6484, 18.42595
750.1305, 18.24703
750.6126, 18.08419
751.0947, 17.91327
751.5768, 17.80227
752.0590, 17.90763
752.5411, 18.32619
753.0232, 18.49434
753.5053, 18.16970
753.9874, 17.91734
754.4695, 17.99946
754.9517, 18.18012
755.4338, 18.19315
755.9159, 18.01418
756.3980, 17.84504
756.8801, 17.72880
757.3622, 17.70806
757.8444, 17.89726
758.3265, 18.20395
758.8086, 18.42116
759.2907, 18.49153
759.7728, 18.45166
760.2549, 18.31955
760.7371, 18.11779
761.2192, 17.99151
761.7013, 17.95939
762.1834, 17.95453
762.6655, 18.02141
763.1476, 18.05395
763.6298, 17.93316
764.1119, 17.72522
764.5940, 17.61276
765.0761, 17.64272
765.5582, 17.75319
766.0403, 18.03168
766.5225, 18.29719
767.0046, 18.29892
767.4867, 18.08397
767.9688, 17.88459
768.4509, 17.81734
768.9330, 17.84835
769.4152, 17.95679
769.8973, 18.15022
770.3794, 18.21261
770.8615, 18.08279
771.3436, 17.97709
771.8257, 18.00144
772.3079, 18.09334
772.7900, 18.17255
773.2721, 18.24183
773.7542, 18.26681
774.2363, 18.19441
774.7184, 18.12953
775.2006, 18.15483
775.6827, 18.20450
776.1648, 18.18436
776.6469, 18.08425
777.1290, 17.95899
777.6111, 17.83471
778.0933, 17.73825
778.5754, 17.75051
779.0575, 17.86698
779.5396, 17.96941
780.0217, 18.04383
780.5038, 18.06650
780.9860, 17.99927
781.4681, 17.86927
781.9502, 17.79388
782.4323, 17.77336
782.9144, 17.80620
783.3965, 17.93325
783.8787, 18.07320
784.3608, 18.23954
784.8429, 18.36802
785.3250, 18.33117
785.8071, 18.08801
786.2892, 17.81682
786.7714, 17.65763
787.2535, 17.57837
787.7356, 17.51671
788.2177, 17.47523
788.6998, 17.50173
789.1819, 17.62086
789.6641, 17.74815
790.1462, 17.78098
790.6283, 17.71968
791.1104, 17.62321
791.5925, 17.35815
792.0746, 17.28747
792.5568, 17.72394
793.0389, 18.15271
793.5210, 18.13936
794.0031, 17.80291
794.4852, 17.59667
794.9673, 17.70102
795.4495, 17.87008
795.9316, 17.98891
796.4137, 17.36730
796.8958, 18.15870
797.3779, 18.60277
797.8600, 18.71818
798.3422, 17.52055
798.8243, 18.01844
799.3064, 17.83684
799.7885, 17.62738
800.2706, 18.36390
800.7527, 17.35725
801.2349, 18.07878
801.7170, 18.11044
802.1991, 18.45784
802.6812, 18.12156
803.1633, 18.07563
803.6454, 18.06205
804.1276, 17.93641
804.6097, 17.83960
805.0918, 17.79673
805.5739, 17.82672
806.0560, 18.03980
806.5381, 18.35949
807.0203, 18.48024
807.5024, 18.16559
807.9845, 17.75150
808.4666, 17.74463
808.9487, 18.04290
809.4308, 18.25977
809.9130, 18.34975
810.3951, 18.36392
810.8772, 18.32582
811.3593, 18.24035
811.8414, 18.09495
812.3235, 17.81053
812.8057, 17.76630
813.2878, 18.29909
813.7699, 18.65029
814.2520, 18.45472
814.7341, 18.09188
815.2162, 17.95603
815.6984, 18.06411
816.1805, 18.15912
816.6626, 18.07853
817.1447, 18.00811
817.6268, 18.18069
818.1089, 18.41183
818.5911, 18.31854
819.0732, 17.92612
819.5553, 17.69064
820.0374, 17.93153
820.5195, 18.38842
821.0016, 18.49137
821.4838, 18.22762
821.9659, 18.09210
822.4480, 18.16381
822.9301, 18.20702
823.4122, 18.04955
823.8943, 17.84028
824.3765, 17.86939
824.8586, 18.20551
825.3407, 18.41708
825.8228, 18.45029
826.3049, 18.40457
826.7870, 18.24859
827.2692, 18.07374
827.7513, 18.00054
828.2334, 18.01226
828.7155, 17.95116
829.1976, 17.65480
829.6797, 17.39540
830.1619, 17.57606
830.6440, 18.00913
831.1261, 18.22453
831.6082, 18.18475
832.0903, 18.15655
832.5724, 18.30114
833.0546, 18.50297
833.5367, 18.52240
834.0188, 18.32522
834.5009, 18.17712
834.9830, 18.04962
835.4651, 18.03427
835.9473, 18.29594
836.4294, 18.58356
836.9115, 18.60926
837.3936, 18.38338
837.8757, 18.14060
838.3578, 17.73162
838.8400, 17.54379
839.3221, 17.92457
839.8042, 18.44720
840.2863, 18.70062
840.7684, 18.69071
841.2505, 18.60942
841.7327, 18.54331
842.2148, 18.48496
842.6969, 18.37456
843.1790, 18.27276
843.6611, 18.37827
844.1432, 18.69043
844.6254, 19.05681
845.1075, 19.42963
845.5896, 19.72975
846.0717, 19.83153
846.5538, 19.73301
847.0359, 19.76036
847.5181, 20.03348
848.0002, 20.19495
848.4823, 20.06088
848.9644, 19.90000
849.4465, 19.91134
849.9286, 20.04489
850.4108, 20.13317
850.8929, 20.08635
851.3750, 20.13645
851.8571, 20.46981
852.3392, 20.84089
852.8214, 20.97584
853.3035, 20.45835
853.7856, 21.32370
854.2677, 21.84173
854.7498, 22.03110
855.2319, 20.90742
855.7141, 21.47929
856.1962, 21.37165
856.6783, 21.23614
857.1604, 22.04662
857.6425, 21.11394
858.1246, 21.21379
858.6068, 22.01848
859.0889, 22.47585
859.5710, 22.60455
860.0531, 21.42021
860.5352, 21.93139
861.0173, 21.76309
861.4995, 21.56692
861.9816, 22.31674
862.4637, 21.32338
862.9458, 22.05820
863.4279, 22.10316
863.9100, 22.08718
864.3922, 22.41532
864.8743, 22.67932
865.3564, 22.69360
865.8385, 22.54619
866.3206, 22.30612
866.8027, 22.01228
867.2849, 21.71179
867.7670, 21.41215
868.2491, 21.19881
868.7312, 21.22824
869.2133, 21.42803
869.6954, 21.62402
870.1776, 21.79333
870.6597, 21.86457
871.1418, 21.80179
871.6239, 21.65724
872.1060, 21.49553
872.5881, 21.31721
873.0703, 21.14688
873.5524, 20.96677
874.0345, 20.83710
874.5166, 20.73264
874.9987, 20.72571
875.4808, 21.02722
875.9630, 21.47461
876.4451, 21.53950
876.9272, 20.91400
877.4093, 20.50362
877.8914, 20.69860
878.3735, 20.94188
878.8557, 20.83476
879.3378, 20.57177
879.8199, 20.52995
880.3020, 20.76476
880.7841, 20.92852
881.2662, 20.70556
881.7484, 20.36184
882.2305, 20.22101
882.7126, 20.21910
883.1947, 20.19655
883.6768, 20.13503
884.1589, 20.13830
884.6411, 20.28226
885.1232, 20.47049
885.6053, 20.49848
886.0874, 20.36180
886.5695, 20.24053
887.0516, 20.12799
887.5338, 20.07372
888.0159, 20.08618
888.4980, 20.18708
888.9801, 20.45415
889.4622, 20.88653
889.9443, 21.09580
890.4265, 20.93861
890.9086, 20.76740
891.3907, 20.54047
891.8728, 20.37930
892.3549, 20.41805
892.8370, 20.55985
893.3192, 20.61683
893.8013, 20.54384
894.2834, 20.42376
894.7655, 20.12409
895.2476, 19.95831
895.7297, 20.39531
896.2119, 21.06907
896.6940, 21.31093
897.1761, 21.04696
897.6582, 20.71404
898.1403, 20.59781
898.6224, 20.62712
899.1046, 20.79033
899.5867, 21.00755
900.0688, 20.82573
900.5509, 20.21845
901.0330, 19.81013
901.5151, 19.91006
901.9973, 20.26515
902.4794, 20.51407
902.9615, 20.65670
903.4436, 20.83031
903.9257, 21.11364
904.4078, 21.21383
904.8900, 20.96274
905.3721, 20.65037
905.8542, 20.50228
906.3363, 20.46801
906.8184, 20.38607
907.3005, 20.19541
907.7827, 20.10308
908.2648, 20.16506
908.7469, 20.29647
909.2290, 20.52463
909.7111, 20.75881
910.1932, 20.89079
910.6754, 20.91224
911.1575, 20.89690
911.6396, 20.88860
912.1217, 20.84356
912.6038, 20.64938
913.0859, 20.44088
913.5681, 20.44234
914.0502, 20.61950
914.5323, 20.80490
915.0144, 20.92225
915.4965, 20.91998
915.9786, 20.62965
916.4607, 20.18748
916.9428, 20.12078
917.4249, 20.40332
917.9070, 20.70405
918.3892, 20.95101
918.8713, 21.09761
919.3534, 21.08237
919.8355, 20.98037
920.3176, 21.04309
920.7997, 21.35788
921.2819, 21.49806
921.7640, 21.34385
922.2461, 21.23688
922.7282, 21.30403
923.2103, 21.48950
923.6924, 21.74168
924.1746, 22.05781
924.6567, 22.40051
925.1388, 22.98651
925.6209, 23.28985
926.1030, 23.01168
926.5851, 22.61612
927.0673, 22.24891
927.5494, 22.04997
928.0315, 22.30527
928.5136, 23.09747
928.9957, 23.80388
929.4778, 24.05383
929.9600, 24.13136
930.4421, 24.20035
930.9242, 24.28835
931.4063, 24.47394
931.8884, 24.72251
932.3705, 24.82901
932.8527, 24.65270
933.3348, 24.48138
933.8169, 24.73683
934.2990, 25.28092
934.7811, 25.79708
935.2632, 26.24884
935.7454, 26.46737
936.2275, 26.39579
936.7096, 26.33457
937.1917, 26.59387
937.6738, 27.07743
938.1559, 27.40123
938.6381, 27.53389
939.1202, 27.76771
939.6023, 28.17775
940.0844, 28.52744
940.5665, 28.66938
941.0486, 28.71707
941.5308, 28.82268
942.0129, 28.97455
942.4950, 29.32335
942.9771, 30.07843
943.4592, 30.71638
943.9413, 30.97527
944.4235, 31.28391
944.9056, 32.02214
945.3877, 32.98359
945.8698, 33.67707
946.3519, 33.95671
946.8340, 34.34877
947.3162, 35.04246
947.7983, 35.81722
948.2804, 36.54184
948.7625, 37.29298
949.2446, 38.18987
949.7267, 39.21436
950.2089, 40.25473
950.6910, 41.28429
951.1731, 42.24886
951.6552, 42.80926
952.1373, 43.49576
952.6194, 45.04776
953.1016, 47.27579
953.5837, 49.72275
954.0658, 52.20959
954.5479, 54.60049
955.0300, 56.73274
955.5121, 58.83269
955.9943, 61.20363
956.4764, 63.90724
956.9585, 67.25806
957.4406, 71.27845
957.9227, 75.49917
958.4048, 79.70484
958.8870, 84.19581
959.3691, 89.34657
959.8512, 95.15054
960.3333, 101.4245
960.8154, 108.0078
961.2975, 115.9831
961.7797, 125.2977
962.2618, 136.7000
962.7439, 150.7233
963.2260, 166.9511
963.7081, 184.5732
964.1902, 203.7960
964.6724, 223.5402
965.1545, 243.8302
965.6366, 264.5228
966.1187, 286.1346
966.6008, 307.5802
967.0829, 327.0285
967.5651, 345.7578
968.0472, 367.4944
968.5293, 392.3662
969.0114, 420.5412
969.4935, 452.0879
969.9756, 487.0769
970.4578, 524.9233
970.9399, 566.8053
971.4220, 613.2666
971.9041, 665.0040
972.3862, 724.1736
972.8683, 790.6722
973.3505, 866.1299
973.8326, 950.7091
974.3147, 1045.679
974.7968, 1155.190
975.2789, 1274.391
975.7610, 1402.756
976.2432, 1534.907
976.7253, 1648.389
977.2074, 1738.068
977.6895, 1784.702
978.1716, 1764.844
978.6537, 1688.834
979.1359, 1559.451
979.6180, 1389.565
980.1001, 1210.304
980.5822, 1034.593
981.0643, 873.0392
981.5464, 736.9914
982.0286, 623.0278
982.5107, 527.6666
982.9928, 450.0904
983.4749, 386.8936
983.9570, 337.4547
984.4391, 297.3038
984.9213, 264.5389
985.4034, 237.5833
985.8855, 214.5808
986.3676, 195.2702
986.8497, 178.1593
987.3318, 163.2574
987.8140, 150.6277
988.2961, 140.4950
988.7782, 131.7104
989.2603, 123.5653
989.7424, 116.1133
990.2245, 109.3745
990.7067, 103.3593
991.1888, 97.93686
991.6709, 93.15266
992.1530, 88.75957
992.6351, 84.72425
993.1172, 80.99269
993.5994, 77.46022
994.0815, 74.19250
994.5636, 71.44193
995.0457, 69.39500
995.5278, 67.34398
996.0099, 65.19061
996.4921, 63.14536
996.9742, 61.15816
997.4563, 59.38466
997.9384, 58.15504
998.4205, 57.25578
998.9026, 55.90151
999.3848, 53.64301
999.8669, 51.86367
1000.349, 51.18321
1000.831, 50.62825
1001.313, 49.77307
1001.795, 48.77343
1002.277, 47.76301
1002.760, 46.79148
1003.242, 45.93259
1003.724, 45.23833
1004.206, 44.60548
1004.688, 43.95707
1005.170, 43.37836
1005.652, 42.95914
1006.134, 42.63731
1006.617, 42.34830
1007.099, 42.05939
1007.581, 41.67944
1008.063, 41.06102
1008.545, 40.59238
1009.027, 40.87678
1009.509, 41.25483
1009.991, 40.70525
1010.473, 39.67650
1010.956, 39.30117
1011.438, 39.77731
1011.920, 40.37412
1012.402, 40.63813
1012.884, 40.68923
1013.366, 40.64205
1013.848, 40.50257
1014.330, 40.21440
1014.813, 39.84340
1015.295, 39.61618
1015.777, 39.59593
1016.259, 39.65757
1016.741, 39.70815
1017.223, 39.74123
1017.705, 39.76597
1018.187, 39.76188
1018.669, 39.59440
1019.152, 39.29379
1019.634, 39.17144
1020.116, 39.33935
1020.598, 39.57019
1021.080, 39.62497
1021.562, 39.57912
1022.044, 39.65462
1022.526, 39.83866
1023.008, 39.96646
1023.491, 40.02197
1023.973, 40.22019
1024.455, 40.66221
1024.937, 41.16550
1025.419, 41.50301
1025.901, 41.74004
1026.383, 42.26406
1026.865, 43.11936
1027.348, 43.48337
1027.830, 43.16224
1028.312, 43.06437
1028.794, 43.62323
1029.276, 44.51167
1029.758, 45.33642
1030.240, 46.11108
1030.722, 46.91311
1031.204, 47.75234
1031.687, 48.55507
1032.169, 49.29358
1032.651, 50.05548
1033.133, 50.87186
1033.615, 51.73889
1034.097, 52.62799
1034.579, 53.54979
1035.061, 54.64586
1035.544, 55.89597
1036.026, 57.37728
1036.508, 59.16745
1036.990, 61.05642
1037.472, 62.96069
1037.954, 64.88644
1038.436, 66.81546
1038.918, 68.74971
1039.401, 70.86916
1039.883, 73.08890
1040.365, 75.62778
1040.847, 78.60844
1041.329, 81.76499
1041.811, 85.24084
1042.293, 88.68858
1042.775, 91.51032
1043.257, 93.72733
1043.740, 96.41906
1044.222, 99.75612
1044.704, 103.3045
1045.186, 106.9635
1045.668, 110.9421
1046.150, 115.5154
1046.632, 120.3464
1047.114, 124.9916
1047.596, 129.4594
1048.079, 134.0624
1048.561, 138.6322
1049.043, 143.6312
1049.525, 149.0804
1050.007, 154.9890
1050.489, 161.5864
1050.971, 168.5230
1051.453, 175.3841
1051.936, 182.1838
1052.418, 189.1604
1052.900, 196.4727
1053.382, 203.7912
1053.864, 211.5484
1054.346, 218.8246
1054.828, 225.5080
1055.310, 231.2248
1055.792, 235.7575
1056.275, 238.9654
1056.757, 240.1975
1057.239, 239.1463
1057.721, 236.4608
1058.203, 231.9059
1058.685, 226.2329
1059.167, 219.0868
1059.649, 211.5983
1060.131, 204.8499
1060.614, 198.9341
1061.096, 193.5210
1061.578, 188.5037
1062.060, 184.1574
1062.542, 180.6886
1063.024, 177.8199
1063.506, 174.6656
1063.988, 172.5456
1064.471, 173.4201
1064.953, 176.7749
1065.435, 180.2204
1065.917, 183.1424
1066.399, 186.0928
1066.881, 188.9851
1067.363, 192.3260
1067.845, 196.5414
1068.328, 201.2653
1068.810, 206.2872
1069.292, 211.3985
1069.774, 216.3240
1070.256, 221.0810
1070.738, 225.0706
1071.220, 228.5224
1071.702, 230.5085
1072.184, 230.9136
1072.667, 229.2298
1073.149, 224.5278
1073.631, 217.3568
1074.113, 209.1786
1074.595, 200.4142
1075.077, 190.5053
1075.559, 178.4701
1076.041, 166.2111
1076.523, 154.3795
1077.006, 143.1985
1077.488, 132.8944
1077.970, 123.3315
1078.452, 113.9952
1078.934, 104.7683
1079.416, 96.73403
1079.898, 90.70125
1080.380, 85.50849
1080.862, 80.79054
1081.345, 76.37537
1081.827, 72.05746
1082.309, 67.96502
1082.791, 64.44422
1083.273, 61.53115
1083.755, 58.96379
1084.237, 56.69105
1084.719, 54.63298
1085.202, 52.76200
1085.684, 51.09105
1086.166, 49.80520
1086.648, 48.63756
1087.130, 47.10830
1087.612, 45.22334
1088.094, 43.54654
1088.576, 42.28191
1089.058, 41.28326
1089.541, 40.63275
1090.023, 40.06756
1090.505, 39.45601
1090.987, 38.78207
1091.469, 38.02160
1091.951, 37.18915
1092.433, 36.32248
1092.915, 35.34406
1093.397, 34.60486
1093.880, 34.46703
1094.362, 34.35340
1094.844, 33.82556
1095.326, 33.22163
1095.808, 33.04425
1096.290, 33.13199
1096.772, 32.83324
1097.254, 31.89285
1097.737, 31.08104
1098.219, 30.70853
1098.701, 30.45952
1099.183, 30.30503
1099.665, 30.10970
1100.147, 29.68699
1100.629, 29.15302
1101.111, 28.78794
1101.594, 28.65104
1102.076, 28.47593
1102.558, 28.16177
1103.040, 27.84030
1103.522, 27.51324
1104.004, 27.23354
1104.486, 27.05654
1104.968, 26.94319
1105.450, 26.83984
1105.932, 26.73969
1106.415, 26.62750
1106.897, 26.45109
1107.379, 26.33632
1107.861, 26.49011
1108.343, 26.50193
1108.825, 25.87195
1109.307, 25.17484
1109.789, 25.28223
1110.272, 26.06174
1110.754, 26.32936
1111.236, 25.63469
1111.718, 25.08917
1112.200, 24.78004
1112.682, 24.64781
1113.164, 24.86753
1113.646, 25.08733
1114.129, 24.89631
1114.611, 24.44828
1115.093, 24.28672
1115.575, 24.53980
1116.057, 24.70097
1116.539, 24.71980
1117.021, 24.72316
1117.503, 24.73992
1117.985, 24.74319
1118.468, 24.72995
1118.950, 24.68054
1119.432, 24.50873
1119.914, 24.17813
1120.396, 24.19742
1120.878, 24.89896
1121.360, 25.20729
1121.842, 24.74058
1122.324, 24.35380
1122.807, 24.56506
1123.289, 24.92626
1123.771, 24.83901
1124.253, 24.36909
1124.735, 24.07967
1125.217, 24.03066
1125.699, 23.93411
1126.181, 23.73533
1126.664, 23.61759
1127.146, 23.64193
1127.628, 23.79519
1128.110, 24.13346
1128.592, 24.50028
1129.074, 24.35286
1129.556, 23.60387
1130.038, 23.32379
1130.521, 23.58218
1131.003, 23.85080
1131.485, 24.03381
1131.967, 24.03151
1132.449, 23.74331
1132.931, 23.38224
1133.413, 23.31091
1133.895, 23.48445
1134.377, 23.59790
1134.859, 23.65240
1135.342, 23.64584
1135.824, 23.57954
1136.306, 23.55438
1136.788, 23.61658
1137.270, 23.66524
1137.752, 23.59890
1138.234, 23.43119
1138.716, 23.10909
1139.199, 22.71483
1139.681, 22.64751
1140.163, 22.87928
1140.645, 23.13703
1141.127, 23.33044
1141.609, 23.40279
1142.091, 23.30281
1142.573, 23.14751
1143.056, 23.11394
1143.538, 23.13547
1144.020, 23.07318
1144.502, 22.95343
1144.984, 22.83029
1145.466, 22.72703
1145.948, 22.68287
1146.430, 22.71430
1146.912, 22.80655
1147.395, 22.95425
1147.877, 23.14677
1148.359, 23.49267
1148.841, 23.79294
1149.323, 23.64301
1149.805, 23.24817
1150.287, 23.17770
1150.769, 23.49662
1151.251, 23.64173
1151.734, 23.19383
1152.216, 22.81977
1152.698, 23.12597
1153.180, 23.51583
1153.662, 23.45167
1154.144, 23.19796
1154.626, 23.17250
1155.108, 23.31351
1155.591, 23.22518
1156.073, 22.74612
1156.555, 22.41029
1157.037, 22.52397
1157.519, 22.65965
1158.001, 22.67417
1158.483, 22.61344
1158.965, 22.38511
1159.448, 22.17039
1159.930, 22.36850
1160.412, 22.99735
1160.894, 23.29659
1161.376, 22.90667
1161.858, 22.62023
1162.340, 22.44773
1162.822, 22.46509
1163.304, 22.93596
1163.786, 23.37373
1164.269, 23.26433
1164.751, 22.76679
1165.233, 22.42466
1165.715, 22.26952
1166.197, 22.12553
1166.679, 21.94373
1167.161, 21.93241
1167.643, 22.21054
1168.126, 22.44942
1168.608, 22.43300
1169.090, 22.32473
1169.572, 22.39095
1170.054, 22.58533
1170.536, 22.49924
1171.018, 22.10993
1171.500, 22.02043
1171.983, 22.29638
1172.465, 22.39659
1172.947, 22.12718
1173.429, 21.77444
1173.911, 21.56852
1174.393, 21.47344
1174.875, 21.37965
1175.357, 21.34328
1175.839, 21.73069
1176.322, 22.37876
1176.804, 22.50788
1177.286, 22.08371
1177.768, 21.74473
1178.250, 21.78103
1178.732, 21.94321
1179.214, 22.02950
1179.696, 22.06210
1180.178, 22.03922
1180.661, 22.00479
1181.143, 22.05393
1181.625, 22.14034
1182.107, 22.15913
1182.589, 22.08807
1183.071, 21.94495
1183.553, 21.71678
1184.035, 21.50753
1184.518, 21.35092
1185.000, 21.27411
1185.482, 21.34243
1185.964, 21.46248
1186.446, 21.45672
1186.928, 21.44469
1187.410, 21.80725
1187.892, 22.62114
1188.375, 23.08959
1188.857, 22.69387
1189.339, 22.43311
1189.821, 22.65864
1190.303, 22.89239
1190.785, 22.76070
1191.267, 22.63725
1191.749, 23.03369
1192.231, 23.77133
1192.714, 24.12920
1193.196, 23.93578
1193.678, 24.06232
1194.160, 24.72650
1194.642, 25.08155
1195.124, 24.83822
1195.606, 24.64717
1196.088, 24.94229
1196.570, 25.30986
1197.053, 25.13366
1197.535, 24.55505
1198.017, 24.31789
1198.499, 24.41019
1198.981, 24.27137
1199.463, 23.87700
1199.945, 23.56942
1200.427, 23.44423
1200.910, 23.40514
1201.392, 23.39086
1201.874, 23.37326
1202.356, 23.34630
1202.838, 23.26665
1203.320, 22.99140
1203.802, 22.60942
1204.284, 22.29669
1204.766, 22.07753
1205.249, 21.92878
1205.731, 21.85044
1206.213, 21.92730
1206.695, 22.31830
1207.177, 22.62384
1207.659, 22.43113
1208.141, 22.12809
1208.623, 22.04845
1209.105, 22.06990
1209.588, 22.01721
1210.070, 21.90324
1210.552, 21.83518
1211.034, 21.84204
1211.516, 21.82706
1211.998, 21.67680
1212.480, 21.63543
1212.962, 21.96585
1213.445, 22.18090
1213.927, 21.87707
1214.409, 21.44837
1214.891, 21.36416
1215.373, 21.51818
1215.855, 21.39878
1216.337, 20.85920
1216.819, 20.74859
1217.302, 21.24967
1217.784, 21.42862
1218.266, 21.02082
1218.748, 20.62450
1219.230, 20.57084
1219.712, 20.68422
1220.194, 20.76833
1220.676, 20.78926
1221.158, 20.56926
1221.641, 20.17893
1222.123, 20.02313
1222.605, 20.07832
1223.087, 20.10922
1223.569, 20.05064
1224.051, 19.89383
1224.533, 19.62841
1225.015, 19.37419
1225.497, 19.26516
1225.980, 19.21825
1226.462, 19.14727
1226.944, 19.06988
1227.426, 18.99118
1227.908, 18.93273
1228.390, 18.94821
1228.872, 19.03124
1229.354, 19.07601
1229.837, 18.98527
1230.319, 19.03285
1230.801, 19.49092
1231.283, 19.87258
1231.765, 19.81957
1232.247, 19.75885
1232.729, 20.14686
1233.211, 20.69858
1233.693, 20.88674
1234.176, 20.72221
1234.658, 20.50333
1235.140, 20.13291
1235.622, 20.04287
1236.104, 20.38050
1236.586, 20.50657
1237.068, 20.18676
1237.550, 19.85466
1238.032, 19.84716
1238.515, 19.90767
1238.997, 19.56949
1239.479, 18.95767
1239.961, 18.56825
1240.443, 18.36484
1240.925, 18.21817
1241.407, 18.09589
1241.889, 17.92236
1242.372, 17.68512
1242.854, 17.44984
1243.336, 17.24330
1243.818, 17.13624
1244.300, 17.27710
1244.782, 17.46214
1245.264, 17.50892
1245.746, 17.47056
1246.229, 17.39714
1246.711, 17.30352
1247.193, 17.19897
1247.675, 17.08656
1248.157, 16.97043
1248.639, 16.81193
1249.121, 16.73030
1249.603, 16.83865
1250.085, 16.89814
1250.568, 16.76241
1251.050, 16.64688
1251.532, 16.71981
1252.014, 16.87323
1252.496, 16.92219
1252.978, 16.87926
1253.460, 16.89754
1253.942, 16.98967
1254.424, 16.95891
1254.907, 16.78362
1255.389, 16.86150
1255.871, 17.29487
1256.353, 17.58393
1256.835, 17.39727
1257.317, 17.06020
1257.799, 16.94493
1258.281, 17.00159
1258.764, 17.29561
1259.246, 17.60291
1259.728, 17.37681
1260.210, 16.86648
1260.692, 16.75283
1261.174, 17.08342
1261.656, 17.36952
1262.138, 17.43059
1262.620, 17.37045
1263.103, 17.10897
1263.585, 16.90874
1264.067, 16.86215
1264.549, 16.94408
1265.031, 17.31637
1265.513, 17.68340
1265.995, 17.52441
1266.477, 16.98646
1266.959, 16.88093
1267.442, 17.39265
1267.924, 17.53137
1268.406, 17.17788
1268.888, 17.03397
1269.370, 17.26501
1269.852, 17.44020
1270.334, 17.34071
1270.816, 17.13690
1271.299, 16.99661
1271.781, 16.91329
1272.263, 16.89753
1272.745, 16.91663
1273.227, 16.84040
1273.709, 16.74815
1274.191, 16.91716
1274.673, 17.27248
1275.156, 17.40222
1275.638, 17.18645
1276.120, 17.02164
1276.602, 17.19094
1277.084, 17.34268
1277.566, 17.34057
1278.048, 17.22274
1278.530, 16.88611
1279.012, 16.55419
1279.495, 16.48727
1279.977, 16.58345
1280.459, 16.55784
1280.941, 16.40405
1281.423, 16.42314
1281.905, 16.69942
1282.387, 16.83461
1282.869, 16.78261
1283.351, 16.70194
1283.834, 16.63598
1284.316, 16.58697
1284.798, 16.55717
1285.280, 16.53497
1285.762, 16.50709
1286.244, 16.48156
##END=



