##NAMES=Langbanite
##RRUFFID=R050664
##IDEAL CHEMISTRY=Mn^2+^_4_Mn^3+^_9_Sb^5+^O_16_(SiO_4_)_2_
##LOCALITY=Langban, Filipstad, Varmland, Sweden
##OWNER=RRUFF
##SOURCE=University of Arizona Mineral Museum
##DESCRIPTION=Black metallic crystals
##STATUS=The identification of this mineral has been confirmed by X-ray diffraction and chemical analysis
##URL=rruff.info/R050664
##MEASURED CHEMISTRY=(Mn^2+^_3.79_Ca_0.21_)_Σ=4_(Mn^3+^_6.45_Fe^3+^_2.55_)_Σ=9_Sb^5+^_1.00_O_16_(Si_1.00_O_4_)_2_
89.78156, 0.0000000E+00
90.26367, 12.34553
90.74579, 12.48970
91.22791, 12.43428
91.71002, 12.20035
92.19214, 11.97191
92.67426, 12.03830
93.15638, 12.24579
93.63850, 12.17146
94.12061, 11.43692
94.60273, 10.38896
95.08485, 9.846247
95.56696, 9.843934
96.04908, 10.14184
96.53120, 10.64860
97.01331, 11.33281
97.49543, 11.73327
97.97755, 11.46597
98.45966, 10.58336
98.94178, 10.06409
99.42390, 9.999118
99.90602, 10.17662
100.3881, 10.16845
100.8703, 9.909504
101.3524, 9.696626
101.8345, 9.767252
102.3166, 10.26961
102.7987, 10.38418
103.2808, 9.911480
103.7630, 9.013510
104.2451, 8.419961
104.7272, 8.191674
105.2093, 8.180370
105.6914, 8.320697
106.1735, 8.809716
106.6557, 9.105159
107.1378, 9.064307
107.6199, 8.672761
108.1020, 8.423982
108.5841, 8.459711
109.0662, 8.562349
109.5484, 8.537298
110.0305, 8.169080
110.5126, 7.886748
110.9947, 7.777388
111.4768, 7.870646
111.9590, 7.998772
112.4411, 8.229676
112.9232, 8.468540
113.4053, 8.586714
113.8874, 8.377987
114.3695, 8.195227
114.8517, 8.188908
115.3338, 8.443962
115.8159, 8.703050
116.2980, 8.944445
116.7801, 9.141021
117.2622, 9.234324
117.7444, 9.067951
118.2265, 8.872513
118.7086, 8.818665
119.1907, 9.059586
119.6728, 9.268599
120.1549, 9.169759
120.6371, 8.848522
121.1192, 8.650681
121.6013, 8.782007
122.0834, 9.142016
122.5655, 9.635496
123.0476, 10.41302
123.5298, 11.15564
124.0119, 11.44824
124.4940, 11.32709
124.9761, 11.30508
125.4582, 12.01487
125.9404, 13.11289
126.4225, 13.91773
126.9046, 13.82947
127.3867, 13.38834
127.8688, 13.52685
128.3509, 14.28921
128.8331, 15.20045
129.3152, 15.73477
129.7973, 15.95762
130.2794, 16.18531
130.7615, 16.59239
131.2436, 17.12491
131.7258, 17.58151
132.2079, 17.93773
132.6900, 18.26776
133.1721, 18.60816
133.6542, 18.95574
134.1364, 19.53659
134.6185, 20.59248
135.1006, 22.10626
135.5827, 23.47528
136.0648, 24.65213
136.5469, 25.68052
137.0291, 26.68789
137.5112, 27.69400
137.9933, 28.56815
138.4754, 29.26178
138.9575, 29.78275
139.4396, 30.02845
139.9218, 29.95131
140.4039, 29.59042
140.8860, 29.03442
141.3681, 28.06236
141.8502, 27.29752
142.3323, 27.34817
142.8145, 28.62558
143.2966, 29.65243
143.7787, 30.13584
144.2608, 30.08953
144.7429, 30.11797
145.2250, 30.19366
145.7072, 30.36989
146.1893, 30.71724
146.6714, 31.41467
147.1535, 32.00766
147.6356, 32.28814
148.1178, 32.13495
148.5999, 32.48697
149.0820, 33.69430
149.5641, 35.26007
150.0462, 36.59520
150.5283, 37.80390
151.0105, 38.66200
151.4926, 38.67138
151.9747, 37.91400
152.4568, 37.39128
152.9389, 37.22188
153.4210, 37.27344
153.9032, 37.36135
154.3853, 37.88256
154.8674, 38.08229
155.3495, 37.59285
155.8316, 35.87116
156.3137, 34.68447
156.7959, 34.58292
157.2780, 35.16170
157.7601, 35.66309
158.2422, 36.10966
158.7243, 36.30811
159.2065, 36.10876
159.6886, 35.11729
160.1707, 34.38689
160.6528, 33.99900
161.1349, 34.45016
161.6170, 34.71125
162.0992, 34.79246
162.5813, 34.15506
163.0634, 34.44559
163.5455, 34.36425
164.0276, 34.26766
164.5097, 34.68880
164.9919, 34.15592
165.4740, 34.56884
165.9561, 34.60422
166.4382, 34.81239
166.9203, 34.64640
167.4024, 34.59001
167.8846, 34.48829
168.3667, 34.29564
168.8488, 34.04815
169.3309, 33.98621
169.8130, 34.13997
170.2952, 34.56675
170.7773, 34.80344
171.2594, 34.86026
171.7415, 34.19846
172.2236, 34.46461
172.7057, 34.35888
173.1879, 34.23789
173.6700, 34.63464
174.1521, 34.07736
174.6342, 34.46589
175.1163, 34.47688
175.5984, 34.30803
176.0806, 34.16694
176.5627, 34.00510
177.0448, 33.94934
177.5269, 34.25879
178.0090, 34.77167
178.4911, 35.11119
178.9733, 34.91940
179.4554, 34.51467
179.9375, 34.44661
180.4196, 34.74910
180.9017, 35.11796
181.3838, 35.23936
181.8660, 35.16067
182.3481, 35.05222
182.8302, 34.95020
183.3123, 34.87833
183.7944, 34.90619
184.2766, 35.04683
184.7587, 35.22886
185.2408, 35.39955
185.7229, 35.55055
186.2050, 35.63741
186.6871, 35.56552
187.1693, 35.39790
187.6514, 35.38872
188.1335, 35.57212
188.6156, 35.82899
189.0977, 35.99903
189.5798, 36.08405
190.0620, 36.14266
190.5441, 36.16231
191.0262, 36.16278
191.5083, 36.29378
191.9904, 36.59214
192.4725, 36.95928
192.9547, 37.18956
193.4368, 37.27809
193.9189, 37.45141
194.4010, 37.91425
194.8831, 38.63987
195.3652, 39.22371
195.8474, 39.67004
196.3295, 39.91749
196.8116, 39.75377
197.2937, 39.13908
197.7758, 38.50396
198.2579, 38.09336
198.7401, 37.91003
199.2222, 37.81763
199.7043, 37.85132
200.1864, 37.92169
200.6685, 37.81238
201.1507, 37.50123
201.6328, 37.11426
202.1149, 36.72191
202.5970, 36.32692
203.0791, 35.64356
203.5612, 35.98421
204.0434, 36.13476
204.5255, 36.10545
205.0076, 35.35754
205.4897, 35.53756
205.9718, 35.60950
206.4539, 35.49371
206.9361, 35.41227
207.4182, 35.39798
207.9003, 35.43913
208.3824, 35.52655
208.8645, 35.70880
209.3466, 35.81182
209.8288, 35.68341
210.3109, 35.24118
210.7930, 34.92843
211.2751, 34.79417
211.7572, 34.49094
212.2393, 34.93578
212.7215, 35.19054
213.2036, 35.26542
213.6857, 34.62170
214.1678, 34.90591
214.6499, 34.81825
215.1320, 34.71534
215.6142, 35.13015
216.0963, 34.59095
216.5784, 34.99755
217.0605, 35.02661
217.5426, 35.09227
218.0247, 35.79311
218.5069, 36.23872
218.9890, 36.75174
219.4711, 37.07467
219.9532, 37.21772
220.4353, 36.64217
220.9175, 36.99457
221.3996, 36.97508
221.8817, 36.94034
222.3638, 37.40503
222.8459, 37.43549
223.3280, 37.29456
223.8102, 37.15330
224.2923, 36.98262
224.7744, 36.85130
225.2565, 36.81163
225.7386, 36.90380
226.2207, 36.99064
226.7029, 37.06829
227.1850, 37.13233
227.6671, 37.15581
228.1492, 37.12999
228.6313, 37.07612
229.1134, 37.00213
229.5956, 36.88797
230.0777, 36.79711
230.5598, 36.73285
231.0419, 36.69545
231.5240, 36.69199
232.0062, 36.76504
232.4883, 36.81524
232.9704, 36.77404
233.4525, 36.58438
233.9346, 36.43106
234.4167, 36.33781
234.8989, 36.29303
235.3810, 36.24841
235.8631, 36.22878
236.3452, 36.17498
236.8273, 36.03133
237.3094, 35.68674
237.7916, 35.49768
238.2737, 35.53799
238.7558, 35.75071
239.2379, 35.89326
239.7200, 35.91392
240.2021, 35.93375
240.6843, 36.03654
241.1664, 36.32906
241.6485, 36.45544
242.1306, 36.28706
242.6127, 35.94224
243.0948, 35.91538
243.5770, 36.48686
244.0591, 36.98984
244.5412, 37.03035
245.0233, 36.26375
245.5054, 35.81819
245.9876, 35.83403
246.4697, 36.18150
246.9518, 36.46391
247.4339, 36.69066
247.9160, 36.83948
248.3981, 36.89431
248.8803, 36.83457
249.3624, 36.70893
249.8445, 36.39349
250.3266, 36.04413
250.8087, 36.14454
251.2908, 36.99198
251.7730, 37.80693
252.2551, 38.19779
252.7372, 37.93753
253.2193, 37.85786
253.7014, 38.06436
254.1835, 38.40512
254.6657, 38.51158
255.1478, 38.25592
255.6299, 37.99031
256.1120, 37.85390
256.5941, 37.87169
257.0763, 37.94802
257.5584, 38.10028
258.0405, 38.30160
258.5226, 38.50185
259.0047, 38.71586
259.4868, 38.90218
259.9690, 39.03750
260.4511, 39.10826
260.9332, 39.18786
261.4153, 39.27086
261.8974, 39.36836
262.3795, 39.50714
262.8617, 39.71690
263.3438, 39.90012
263.8259, 40.03690
264.3080, 40.13311
264.7901, 40.11261
265.2722, 39.91520
265.7544, 39.67208
266.2365, 39.57794
266.7186, 39.66195
267.2007, 39.80914
267.6828, 40.02643
268.1649, 40.33001
268.6471, 40.42612
269.1292, 40.24150
269.6113, 39.96825
270.0934, 39.85135
270.5755, 39.92707
271.0576, 40.01647
271.5398, 40.07209
272.0219, 40.09555
272.5040, 40.12183
272.9861, 40.14502
273.4682, 40.18277
273.9503, 40.25922
274.4325, 40.38035
274.9146, 40.50505
275.3967, 40.62542
275.8788, 40.74190
276.3610, 40.84736
276.8431, 40.93641
277.3252, 41.02757
277.8073, 41.16822
278.2894, 41.37241
278.7715, 41.44881
279.2537, 41.28680
279.7358, 40.98564
280.2179, 41.02596
280.7000, 41.48529
281.1821, 41.93982
281.6642, 42.00591
282.1464, 41.68126
282.6285, 41.38423
283.1106, 41.13964
283.5927, 40.99971
284.0748, 41.18717
284.5569, 41.74077
285.0391, 42.27484
285.5212, 42.50069
286.0033, 42.44075
286.4854, 42.35067
286.9675, 42.23863
287.4496, 42.14640
287.9318, 42.18218
288.4139, 42.34829
288.8960, 42.51767
289.3781, 42.62103
289.8602, 42.66587
290.3423, 42.68201
290.8245, 42.66405
291.3066, 42.64010
291.7887, 42.64214
292.2708, 42.67197
292.7529, 42.74700
293.2350, 42.90606
293.7172, 43.12032
294.1993, 43.32495
294.6814, 43.53613
295.1635, 43.65115
295.6456, 43.40379
296.1277, 42.89604
296.6099, 42.56936
297.0920, 42.78910
297.5741, 43.29784
298.0562, 43.59458
298.5383, 43.66179
299.0204, 43.62299
299.5026, 43.59255
299.9847, 43.55149
300.4668, 43.44412
300.9489, 43.13667
301.4311, 42.81031
301.9132, 42.77629
302.3953, 43.02383
302.8774, 43.28768
303.3595, 43.37918
303.8416, 43.33862
304.3238, 43.23205
304.8059, 43.03922
305.2880, 42.83210
305.7701, 42.69505
306.2522, 42.61732
306.7343, 42.54208
307.2165, 42.49361
307.6986, 42.40331
308.1807, 42.16775
308.6628, 41.67357
309.1449, 41.16576
309.6270, 40.74374
310.1092, 40.43659
310.5913, 40.35321
311.0734, 40.83262
311.5555, 41.41066
312.0376, 41.64339
312.5197, 41.34260
313.0019, 40.98863
313.4840, 40.89936
313.9661, 40.94906
314.4482, 40.88017
314.9303, 40.43228
315.4124, 39.93964
315.8946, 39.59589
316.3767, 39.42670
316.8588, 39.38788
317.3409, 39.62200
317.8230, 39.93310
318.3051, 40.06238
318.7873, 39.82450
319.2694, 39.48423
319.7515, 39.13246
320.2336, 38.77478
320.7157, 38.41438
321.1978, 37.98994
321.6800, 37.59441
322.1621, 37.31364
322.6442, 37.46049
323.1263, 37.41849
323.6084, 36.85384
324.0905, 35.81976
324.5727, 35.15777
325.0548, 35.30979
325.5369, 35.67004
326.0190, 35.87317
326.5012, 35.84671
326.9833, 35.71393
327.4654, 35.37830
327.9475, 34.91451
328.4296, 34.62849
328.9117, 34.74224
329.3939, 34.83798
329.8760, 34.73222
330.3581, 34.22727
330.8402, 33.88236
331.3223, 33.73381
331.8044, 33.73188
332.2866, 33.78627
332.7687, 33.95025
333.2508, 34.09337
333.7329, 34.21548
334.2150, 34.37202
334.6971, 34.18598
335.1793, 33.41862
335.6614, 32.53678
336.1435, 32.20158
336.6256, 32.63237
337.1077, 33.02618
337.5898, 33.18257
338.0720, 33.11452
338.5541, 33.01427
339.0362, 32.88123
339.5183, 32.71853
340.0004, 32.49083
340.4825, 32.16605
340.9647, 32.01032
341.4468, 32.12940
341.9289, 32.41561
342.4110, 32.50881
342.8931, 32.38794
343.3752, 32.20529
343.8574, 32.03070
344.3395, 31.86714
344.8216, 31.80938
345.3037, 31.89404
345.7858, 32.03129
346.2679, 32.00673
346.7501, 31.83672
347.2322, 31.79438
347.7143, 32.03693
348.1964, 32.31946
348.6785, 32.41191
349.1607, 31.98918
349.6428, 32.40319
350.1249, 32.62711
350.6070, 32.67115
351.0891, 31.99659
351.5713, 32.24997
352.0534, 32.13146
352.5355, 31.99771
353.0176, 32.38169
353.4997, 31.81165
353.9818, 32.18742
354.4640, 32.18563
354.9461, 32.35664
355.4282, 31.81144
355.9103, 32.29462
356.3924, 32.58772
356.8745, 32.70095
357.3567, 32.09558
357.8388, 32.41813
358.3209, 32.36881
358.8030, 32.30424
359.2851, 32.75739
359.7672, 32.25653
360.2494, 32.70148
360.7315, 32.76888
361.2136, 33.00907
361.6957, 32.87510
362.1778, 32.85668
362.6599, 33.21256
363.1421, 33.36120
363.6242, 33.18415
364.1063, 33.43532
364.5884, 32.92139
365.0705, 33.07885
365.5526, 33.52599
366.0348, 33.36775
366.5169, 33.62577
366.9990, 33.72525
367.4811, 33.64919
367.9632, 33.88455
368.4453, 34.04728
368.9275, 34.13977
369.4096, 34.08706
369.8917, 34.07042
370.3738, 34.14224
370.8559, 34.25043
371.3380, 34.23519
371.8202, 33.94560
372.3023, 33.73838
372.7844, 33.78606
373.2665, 34.18755
373.7487, 34.42079
374.2308, 34.38591
374.7129, 34.28370
375.1950, 34.41233
375.6771, 34.85960
376.1592, 35.26242
376.6414, 35.53245
377.1235, 35.67628
377.6056, 35.75254
378.0877, 35.73928
378.5698, 35.73327
379.0519, 35.81179
379.5341, 35.97424
380.0162, 36.20763
380.4983, 36.51408
380.9804, 36.88453
381.4625, 37.35386
381.9446, 37.92333
382.4268, 38.34534
382.9089, 38.41176
383.3910, 38.20737
383.8731, 37.96294
384.3552, 37.66882
384.8373, 37.47450
385.3195, 37.65275
385.8016, 38.09017
386.2837, 38.45603
386.7658, 38.47288
387.2479, 38.39775
387.7300, 38.59782
388.2122, 39.06242
388.6943, 39.53509
389.1764, 39.87539
389.6585, 40.09424
390.1406, 40.17796
390.6227, 40.00385
391.1049, 39.86622
391.5870, 40.01773
392.0691, 40.37430
392.5512, 40.68275
393.0333, 40.88605
393.5154, 40.96311
393.9976, 40.81873
394.4797, 40.29942
394.9618, 40.05349
395.4439, 40.56611
395.9260, 41.39295
396.4081, 41.94111
396.8903, 41.97402
397.3724, 41.83234
397.8545, 41.53877
398.3366, 41.08780
398.8188, 40.74713
399.3009, 40.60810
399.7830, 40.53664
400.2651, 40.44638
400.7472, 40.26402
401.2293, 40.17714
401.7115, 40.25029
402.1936, 40.41916
402.6757, 40.49160
403.1578, 40.45414
403.6399, 40.34110
404.1220, 40.14430
404.6042, 39.83496
405.0863, 39.62561
405.5684, 39.57947
406.0505, 39.53540
406.5326, 39.20255
407.0147, 38.51311
407.4969, 38.06450
407.9790, 38.10509
408.4611, 38.48674
408.9432, 38.57195
409.4253, 38.33273
409.9074, 38.08661
410.3896, 38.13560
410.8717, 38.40538
411.3538, 38.55321
411.8359, 38.50518
412.3180, 38.37606
412.8001, 38.34781
413.2823, 38.38634
413.7644, 38.35296
414.2465, 38.10933
414.7286, 37.78025
415.2107, 37.51109
415.6928, 37.31045
416.1750, 37.17920
416.6571, 37.16103
417.1392, 37.20170
417.6213, 37.23004
418.1034, 37.26921
418.5855, 37.23912
419.0677, 37.00120
419.5498, 36.62767
420.0319, 36.39828
420.5140, 36.65690
420.9961, 36.92855
421.4782, 36.87018
421.9604, 36.23660
422.4425, 35.81101
422.9246, 35.89412
423.4067, 36.24713
423.8889, 36.54469
424.3710, 36.93031
424.8531, 37.06112
425.3352, 36.68996
425.8173, 35.81245
426.2994, 35.39277
426.7816, 35.71532
427.2637, 36.21201
427.7458, 36.51567
428.2279, 36.54660
428.7100, 36.58678
429.1921, 36.66813
429.6743, 36.75904
430.1564, 36.75297
430.6385, 36.60303
431.1206, 36.54029
431.6027, 36.72190
432.0848, 37.13168
432.5670, 37.29887
433.0491, 37.16969
433.5312, 37.02115
434.0133, 37.23748
434.4954, 37.74759
434.9775, 38.04692
435.4597, 37.92958
435.9418, 37.64189
436.4239, 37.64787
436.9060, 37.90425
437.3881, 38.13319
437.8702, 38.09234
438.3524, 37.93871
438.8345, 37.88939
439.3166, 37.96906
439.7987, 38.13854
440.2808, 38.48553
440.7629, 38.88038
441.2451, 39.11794
441.7272, 38.97354
442.2093, 38.78039
442.6914, 38.69212
443.1735, 38.70491
443.6556, 38.77703
444.1378, 38.90985
444.6199, 39.08703
445.1020, 39.30925
445.5841, 39.64042
446.0662, 39.89195
446.5483, 39.94257
447.0305, 39.91888
447.5126, 40.03839
447.9947, 40.54522
448.4768, 40.89819
448.9590, 40.90993
449.4411, 40.56969
449.9232, 40.42113
450.4053, 40.54731
450.8874, 40.74218
451.3695, 40.84065
451.8517, 40.80343
452.3338, 40.84057
452.8159, 40.96660
453.2980, 41.17897
453.7801, 41.55657
454.2622, 42.11917
454.7444, 42.50295
455.2265, 42.42898
455.7086, 42.02557
456.1907, 41.84681
456.6728, 41.90112
457.1549, 42.05371
457.6371, 42.21032
458.1192, 42.36832
458.6013, 42.53758
459.0834, 42.75259
459.5655, 42.91674
460.0476, 42.87805
460.5298, 42.69194
461.0119, 42.52509
461.4940, 42.52803
461.9761, 42.53818
462.4582, 42.34481
462.9403, 41.90144
463.4225, 41.68043
463.9046, 42.11930
464.3867, 42.78157
464.8688, 43.24398
465.3509, 43.19899
465.8330, 43.18790
466.3152, 43.36440
466.7973, 43.66848
467.2794, 43.88004
467.7615, 43.84675
468.2436, 43.85926
468.7257, 44.04145
469.2079, 44.45234
469.6900, 44.74452
470.1721, 44.86902
470.6542, 44.92498
471.1363, 44.98419
471.6184, 45.00540
472.1006, 45.20332
472.5827, 45.65421
473.0648, 46.28203
473.5469, 46.90180
474.0291, 47.52417
474.5112, 48.01610
474.9933, 48.22298
475.4754, 48.21922
475.9575, 48.30078
476.4396, 48.47193
476.9218, 48.77839
477.4039, 49.36426
477.8860, 50.11953
478.3681, 50.77862
478.8502, 51.21342
479.3323, 51.57125
479.8145, 51.98267
480.2966, 52.44020
480.7787, 52.89714
481.2608, 53.30068
481.7429, 53.72390
482.2250, 54.24074
482.7072, 54.88311
483.1893, 55.47593
483.6714, 55.87098
484.1535, 56.22647
484.6356, 56.70180
485.1177, 57.34354
485.5999, 58.08702
486.0820, 59.03893
486.5641, 60.10598
487.0462, 60.95374
487.5283, 61.41820
488.0104, 61.88282
488.4926, 62.46716
488.9747, 63.14387
489.4568, 64.11985
489.9389, 65.47639
490.4210, 66.97239
490.9031, 68.33340
491.3853, 69.56091
491.8674, 70.68372
492.3495, 71.55832
492.8316, 72.49709
493.3137, 74.38680
493.7958, 77.14617
494.2780, 79.79176
494.7601, 81.39507
495.2422, 82.57034
495.7243, 84.55106
496.2064, 87.44582
496.6885, 90.41071
497.1707, 92.71355
497.6528, 94.74589
498.1349, 97.04660
498.6170, 99.85117
499.0992, 102.8674
499.5813, 106.1140
500.0634, 109.4775
500.5455, 112.7128
501.0276, 115.5479
501.5097, 118.3974
501.9919, 121.4171
502.4740, 124.5902
502.9561, 128.0190
503.4382, 131.9981
503.9203, 136.0696
504.4024, 139.9379
504.8846, 143.3902
505.3667, 146.9740
505.8488, 150.6876
506.3309, 154.5440
506.8130, 158.6732
507.2951, 163.1861
507.7773, 167.4182
508.2594, 171.0330
508.7415, 174.1057
509.2236, 177.2778
509.7057, 180.5684
510.1878, 183.7132
510.6700, 186.6455
511.1521, 189.2843
511.6342, 191.4924
512.1163, 193.2883
512.5984, 194.4307
513.0806, 194.6324
513.5627, 193.9839
514.0448, 192.6735
514.5269, 190.6137
515.0090, 188.0586
515.4911, 185.2774
515.9733, 182.1924
516.4554, 178.4068
516.9375, 173.4743
517.4196, 167.9763
517.9017, 162.1576
518.3839, 155.7667
518.8660, 149.7300
519.3481, 144.5237
519.8302, 139.5715
520.3123, 134.3516
520.7944, 128.6081
521.2766, 122.9859
521.7587, 117.4498
522.2408, 112.1447
522.7229, 107.4884
523.2050, 103.5774
523.6871, 99.96275
524.1693, 96.37278
524.6514, 92.88467
525.1335, 89.74068
525.6156, 86.95068
526.0977, 84.37365
526.5798, 81.79198
527.0620, 79.26254
527.5441, 76.99821
528.0262, 75.06850
528.5083, 73.37875
528.9904, 71.96794
529.4725, 70.74447
529.9547, 69.49619
530.4368, 68.03912
530.9189, 66.59624
531.4010, 65.28831
531.8831, 64.10826
532.3652, 63.14471
532.8474, 62.64445
533.3295, 62.19806
533.8116, 61.51539
534.2937, 60.23659
534.7758, 59.30846
535.2579, 59.07055
535.7401, 59.03843
536.2222, 58.46749
536.7043, 56.98597
537.1864, 55.83820
537.6685, 55.40766
538.1506, 55.49834
538.6328, 55.20053
539.1149, 54.46301
539.5970, 53.64158
540.0791, 52.92998
540.5612, 52.31136
541.0433, 51.77206
541.5255, 51.31767
542.0076, 50.87873
542.4897, 50.36424
542.9718, 49.81316
543.4539, 49.28797
543.9360, 48.77658
544.4182, 48.35775
544.9003, 48.21207
545.3824, 48.21057
545.8645, 48.06728
546.3466, 47.66772
546.8287, 47.09914
547.3109, 46.28874
547.7930, 45.23855
548.2751, 44.42941
548.7572, 44.04748
549.2393, 43.84144
549.7214, 43.68613
550.2036, 43.60793
550.6857, 43.54075
551.1678, 43.56767
551.6499, 43.52098
552.1320, 43.09830
552.6141, 42.21867
553.0963, 41.48741
553.5784, 41.06886
554.0605, 40.86777
554.5426, 40.63873
555.0247, 40.38620
555.5068, 40.18948
555.9890, 40.14916
556.4711, 40.18035
556.9532, 40.14008
557.4353, 40.02239
557.9174, 39.85272
558.3995, 39.65668
558.8817, 39.41737
559.3638, 39.09098
559.8459, 38.56514
560.3281, 38.16790
560.8102, 38.18072
561.2923, 38.37577
561.7744, 38.39499
562.2565, 37.97021
562.7386, 37.58599
563.2208, 37.31400
563.7029, 37.15705
564.1850, 37.13757
564.6671, 37.33065
565.1492, 37.52946
565.6313, 37.65754
566.1135, 37.71964
566.5956, 37.58292
567.0777, 37.18520
567.5598, 36.81115
568.0419, 36.86863
568.5240, 37.25016
569.0062, 37.36963
569.4883, 37.03613
569.9704, 36.58167
570.4525, 36.44128
570.9346, 36.51862
571.4167, 36.57078
571.8989, 36.45731
572.3810, 36.30366
572.8631, 36.26955
573.3452, 36.31179
573.8273, 36.13798
574.3094, 35.26111
574.7916, 34.43581
575.2737, 34.11613
575.7558, 34.54452
576.2379, 34.84246
576.7200, 34.99945
577.2021, 35.00935
577.6843, 34.81427
578.1664, 34.26371
578.6485, 33.99173
579.1306, 34.16394
579.6127, 34.53141
580.0948, 34.52304
580.5770, 34.13774
581.0591, 33.92629
581.5412, 34.27613
582.0233, 34.84891
582.5054, 34.86031
582.9875, 34.36408
583.4697, 33.76112
583.9518, 33.13869
584.4339, 32.65403
584.9160, 32.53048
585.3981, 32.82298
585.8802, 33.17145
586.3624, 33.53096
586.8445, 33.79207
587.3266, 33.85117
587.8087, 33.40506
588.2908, 33.11777
588.7729, 33.18448
589.2551, 33.42258
589.7372, 33.50918
590.2193, 33.29130
590.7014, 33.24123
591.1835, 33.57420
591.6656, 34.16576
592.1478, 34.29630
592.6299, 33.90527
593.1120, 33.49430
593.5941, 33.27329
594.0762, 32.96711
594.5583, 33.57718
595.0405, 33.99721
595.5226, 34.23729
596.0047, 33.75880
596.4868, 34.20824
596.9689, 34.28578
597.4510, 34.34810
597.9332, 34.92819
598.4153, 34.55420
598.8974, 35.12604
599.3795, 35.32032
599.8616, 35.12647
600.3438, 35.19773
600.8259, 35.63551
601.3080, 36.31769
601.7901, 36.74712
602.2722, 36.79871
602.7543, 36.79871
603.2365, 36.85994
603.7186, 36.98026
604.2007, 37.09286
604.6828, 37.19460
605.1649, 37.29467
605.6470, 37.40456
606.1292, 37.51855
606.6113, 37.60866
607.0934, 37.66255
607.5755, 37.73604
608.0576, 37.95430
608.5398, 38.21751
609.0219, 38.34185
609.5040, 38.15226
609.9861, 37.97670
610.4683, 38.04910
610.9504, 38.26549
611.4325, 38.40229
611.9146, 38.24774
612.3967, 38.16598
612.8788, 38.30629
613.3610, 38.64479
613.8431, 38.92010
614.3252, 39.12135
614.8073, 39.27516
615.2894, 39.39457
615.7715, 39.47825
616.2537, 39.52776
616.7358, 39.53526
617.2179, 39.54224
617.7000, 39.59349
618.1821, 39.67870
618.6642, 39.76465
619.1464, 39.84958
619.6285, 39.92143
620.1106, 39.96373
620.5927, 39.98507
621.0748, 40.00060
621.5569, 40.10783
622.0391, 40.11768
622.5212, 39.80170
623.0033, 39.30557
623.4854, 39.07432
623.9675, 39.63230
624.4496, 39.99571
624.9318, 39.77036
625.4139, 38.97443
625.8960, 38.59474
626.3781, 38.79597
626.8602, 39.04095
627.3423, 38.98091
627.8245, 38.62565
628.3066, 38.32178
628.7887, 38.08437
629.2708, 37.85408
629.7529, 37.52703
630.2350, 37.16431
630.7172, 36.91737
631.1993, 36.86106
631.6814, 36.80791
632.1635, 36.56358
632.6456, 36.22999
633.1277, 35.96584
633.6099, 35.89228
634.0920, 35.82391
634.5741, 35.70716
635.0562, 35.54988
635.5383, 35.37853
636.0204, 35.14835
636.5026, 34.97346
636.9847, 34.91242
637.4668, 34.95484
637.9489, 34.94416
638.4310, 34.89576
638.9131, 34.72768
639.3953, 34.32258
639.8774, 33.73566
640.3595, 33.18266
640.8416, 32.66136
641.3237, 32.31042
641.8058, 32.39110
642.2880, 32.68373
642.7701, 32.87425
643.2522, 32.86397
643.7343, 32.83217
644.2164, 32.87556
644.6985, 32.95033
645.1807, 32.99782
645.6628, 32.99173
646.1449, 32.97556
646.6270, 32.98332
647.1091, 32.98018
647.5912, 32.83793
648.0734, 32.39444
648.5555, 32.80683
649.0376, 33.02913
649.5197, 33.07156
650.0018, 32.39538
650.4839, 32.64714
650.9661, 32.52701
651.4482, 32.39165
651.9303, 32.77401
652.4124, 32.20235
652.8945, 32.57650
653.3766, 32.42886
653.8588, 32.83781
654.3409, 33.21020
654.8230, 33.31665
655.3051, 32.99932
655.7872, 32.75852
656.2693, 32.73621
656.7515, 32.82235
657.2336, 32.92057
657.7158, 33.08261
658.1979, 33.13412
658.6800, 33.02724
659.1621, 32.84187
659.6442, 32.67216
660.1263, 32.51602
660.6085, 32.54171
661.0906, 32.86312
661.5727, 33.31940
662.0548, 33.65739
662.5369, 33.89154
663.0190, 34.07749
663.5012, 34.26274
663.9833, 34.39814
664.4654, 34.39442
664.9475, 34.27728
665.4296, 34.24789
665.9117, 34.43497
666.3939, 34.67296
666.8760, 34.90316
667.3581, 35.13886
667.8402, 35.27035
668.3223, 35.25492
668.8044, 35.20549
669.2866, 35.20394
669.7687, 35.25194
670.2508, 35.29934
670.7329, 35.34331
671.2150, 35.38578
671.6971, 35.39058
672.1793, 35.39649
672.6614, 35.53486
673.1435, 35.91093
673.6256, 36.22771
674.1077, 36.12313
674.5898, 35.83594
675.0720, 35.73676
675.5541, 36.26332
676.0362, 36.63088
676.5183, 36.54546
677.0004, 36.14455
677.4825, 35.80796
677.9647, 35.56495
678.4468, 35.33330
678.9289, 35.06555
679.4110, 34.79546
679.8931, 34.73709
680.3752, 34.90967
680.8574, 34.98042
681.3395, 34.60223
681.8216, 34.03042
682.3037, 33.86948
682.7858, 34.09407
683.2679, 34.31312
683.7501, 34.24232
684.2322, 34.06761
684.7143, 33.97329
685.1964, 34.01788
685.6785, 33.91123
686.1606, 33.35673
686.6428, 32.78052
687.1249, 32.49018
687.6070, 32.63169
688.0891, 32.73478
688.5712, 32.79300
689.0533, 32.82347
689.5355, 32.86246
690.0176, 32.90703
690.4997, 32.86148
690.9818, 32.68972
691.4639, 32.47794
691.9460, 32.35341
692.4282, 32.28095
692.9103, 32.18184
693.3924, 31.97222
693.8745, 31.79111
694.3566, 31.74207
694.8387, 31.78217
695.3209, 31.81080
695.8030, 31.83001
696.2851, 31.80195
696.7672, 31.67633
697.2493, 31.48905
697.7314, 31.46188
698.2136, 31.66475
698.6957, 31.79113
699.1778, 31.63972
699.6599, 31.30591
700.1420, 31.27989
700.6241, 31.54331
701.1063, 31.74592
701.5884, 31.51581
702.0705, 31.15334
702.5526, 31.07655
703.0347, 31.31333
703.5168, 31.48184
703.9990, 31.31910
704.4811, 31.07166
704.9632, 30.90488
705.4453, 30.85243
705.9274, 30.83074
706.4095, 30.79406
706.8917, 30.83872
707.3738, 31.15370
707.8560, 31.81013
708.3381, 31.94261
708.8202, 31.37771
709.3023, 30.66277
709.7844, 30.49517
710.2665, 30.73759
710.7487, 31.01769
711.2308, 31.27137
711.7129, 31.46234
712.1950, 31.52740
712.6771, 31.52207
713.1592, 31.53022
713.6414, 31.56199
714.1235, 31.62746
714.6056, 31.80759
715.0877, 32.00731
715.5698, 32.01067
716.0519, 31.71845
716.5341, 31.48930
717.0162, 31.41333
717.4983, 31.45627
717.9804, 31.52716
718.4625, 31.62774
718.9446, 31.77599
719.4268, 32.05482
719.9089, 32.33574
720.3910, 32.38465
720.8731, 32.26575
721.3552, 32.25381
721.8373, 32.60496
722.3195, 32.99532
722.8016, 33.26839
723.2837, 33.41004
723.7658, 33.47807
724.2479, 33.45176
724.7300, 33.38669
725.2122, 33.28669
725.6943, 33.15018
726.1764, 33.09737
726.6585, 33.12698
727.1406, 33.24855
727.6227, 33.53203
728.1049, 33.90321
728.5870, 34.21254
729.0691, 34.45068
729.5512, 34.54340
730.0333, 34.25666
730.5154, 33.90419
730.9976, 33.82415
731.4797, 34.21172
731.9618, 34.42942
732.4439, 34.15444
732.9260, 33.81903
733.4081, 33.78010
733.8903, 34.18538
734.3724, 34.38360
734.8545, 34.31263
735.3366, 34.10273
735.8187, 33.86220
736.3008, 33.61296
736.7830, 33.48954
737.2651, 33.57158
737.7472, 33.61168
738.2293, 33.35932
738.7114, 32.90707
739.1935, 32.38767
739.6757, 31.67289
740.1578, 31.11475
740.6399, 30.90680
741.1220, 30.89274
741.6041, 30.78342
742.0862, 30.49055
742.5684, 30.31257
743.0505, 30.35288
743.5326, 30.47509
744.0147, 30.32513
744.4968, 29.92884
744.9789, 29.62192
745.4611, 29.62741
745.9432, 29.66010
746.4253, 29.23309
746.9074, 28.52661
747.3895, 28.01138
747.8716, 28.07207
748.3538, 28.19160
748.8359, 28.17756
749.3180, 28.03546
749.8001, 27.82296
750.2822, 27.45828
750.7643, 27.17471
751.2465, 27.05511
751.7286, 27.07281
752.2107, 27.15880
752.6928, 27.31773
753.1749, 27.34310
753.6570, 26.93004
754.1392, 26.39535
754.6213, 26.37503
755.1034, 26.77198
755.5855, 27.02507
756.0676, 26.58712
756.5498, 26.12446
757.0319, 26.11888
757.5140, 26.61129
757.9962, 26.77634
758.4783, 26.36237
758.9604, 25.91355
759.4425, 25.64724
759.9246, 25.56352
760.4067, 25.64839
760.8889, 25.92768
761.3710, 26.13195
761.8531, 25.95977
762.3352, 25.60663
762.8173, 25.46857
763.2994, 25.55969
763.7816, 25.64055
764.2637, 25.52403
764.7458, 25.36950
765.2279, 25.31962
765.7100, 25.43335
766.1921, 25.40701
766.6743, 25.10121
767.1564, 24.80578
767.6385, 24.73016
768.1206, 24.90813
768.6027, 24.98364
769.0848, 24.95099
769.5670, 24.84013
770.0491, 24.58471
770.5312, 24.29326
771.0133, 24.20323
771.4954, 24.35477
771.9775, 24.56191
772.4597, 24.73192
772.9418, 24.88993
773.4239, 25.07729
773.9060, 25.37968
774.3881, 25.48597
774.8702, 25.25947
775.3524, 24.98305
775.8345, 24.91798
776.3166, 25.08925
776.7987, 25.17359
777.2808, 25.15150
777.7629, 25.04084
778.2451, 24.75752
778.7272, 24.42094
779.2093, 24.30948
779.6914, 24.53676
780.1735, 24.71783
780.6556, 24.57338
781.1378, 24.29548
781.6199, 24.06260
782.1020, 23.83416
782.5841, 23.79786
783.0662, 24.08746
783.5483, 24.41956
784.0305, 24.45189
784.5126, 24.17290
784.9947, 23.93264
785.4768, 23.75665
785.9589, 23.69744
786.4410, 23.89780
786.9232, 24.24046
787.4053, 24.52157
787.8874, 24.69425
788.3695, 24.79414
788.8516, 24.85113
789.3337, 24.84287
789.8159, 24.73642
790.2980, 24.43617
790.7801, 24.20545
791.2622, 24.04495
791.7443, 23.96599
792.2264, 24.01587
792.7086, 24.18641
793.1907, 24.32341
793.6728, 24.39655
794.1549, 24.45604
794.6370, 24.57854
795.1191, 24.72153
795.6013, 24.82162
796.0834, 24.87998
796.5655, 24.85624
797.0476, 24.66788
797.5297, 24.42071
798.0118, 24.24957
798.4940, 24.21002
798.9761, 24.09515
799.4582, 23.82645
799.9403, 23.59246
800.4224, 23.70548
800.9045, 24.10589
801.3867, 24.44596
801.8688, 24.65968
802.3509, 24.78002
802.8330, 24.76592
803.3151, 24.70124
803.7972, 24.71087
804.2794, 24.93821
804.7615, 25.05620
805.2436, 24.93865
805.7258, 24.71030
806.2079, 24.46947
806.6900, 24.16875
807.1721, 24.07741
807.6542, 24.28240
808.1364, 24.54085
808.6185, 24.44476
809.1006, 24.13389
809.5827, 24.06261
810.0648, 24.41244
810.5469, 24.74428
811.0291, 24.63611
811.5112, 24.37058
811.9933, 24.27889
812.4754, 24.58592
812.9575, 24.82964
813.4396, 25.00681
813.9218, 25.09586
814.4039, 25.01566
814.8860, 24.74422
815.3681, 24.70706
815.8502, 25.00555
816.3323, 25.30128
816.8145, 25.07757
817.2966, 24.60218
817.7787, 24.37441
818.2608, 24.58220
818.7429, 24.78228
819.2250, 24.69000
819.7072, 24.52802
820.1893, 24.52735
820.6714, 24.81011
821.1535, 25.01107
821.6356, 25.13754
822.1177, 25.16850
822.5999, 24.96629
823.0820, 24.60209
823.5641, 24.63671
824.0462, 25.18313
824.5283, 25.71283
825.0104, 25.65859
825.4926, 25.34985
825.9747, 25.15784
826.4568, 25.17261
826.9389, 25.23244
827.4210, 25.39311
827.9031, 25.51256
828.3853, 25.47905
828.8674, 25.24965
829.3495, 25.08125
829.8316, 24.98749
830.3137, 24.90714
830.7958, 24.72362
831.2780, 24.52535
831.7601, 24.52613
832.2422, 24.75451
832.7243, 25.03390
833.2064, 25.40890
833.6885, 25.67919
834.1707, 25.60039
834.6528, 24.96009
835.1349, 24.85094
835.6170, 25.60594
836.0991, 26.32725
836.5812, 26.32934
837.0634, 25.67399
837.5455, 25.26606
838.0276, 25.10708
838.5097, 25.16639
838.9918, 25.60001
839.4739, 26.12310
839.9561, 26.42951
840.4382, 26.50083
840.9203, 26.48677
841.4024, 26.33268
841.8845, 26.20510
842.3666, 26.17847
842.8488, 26.25129
843.3309, 26.36645
843.8130, 26.54542
844.2951, 26.64739
844.7772, 26.47998
845.2593, 26.21069
845.7415, 26.30983
846.2236, 26.70295
846.7057, 26.98668
847.1878, 26.80851
847.6699, 26.57657
848.1520, 26.49030
848.6342, 26.55669
849.1163, 26.72475
849.5984, 27.04819
850.0805, 27.36333
850.5626, 27.65523
851.0447, 27.87721
851.5269, 27.75607
852.0090, 27.34851
852.4911, 27.12594
852.9732, 27.46862
853.4553, 27.95457
853.9374, 28.22012
854.4196, 28.32720
854.9017, 28.42958
855.3839, 28.54594
855.8660, 28.69234
856.3481, 28.87208
856.8302, 29.08206
857.3123, 29.35629
857.7944, 29.71375
858.2766, 29.87341
858.7587, 29.67468
859.2408, 29.44802
859.7229, 29.74094
860.2050, 30.35791
860.6871, 30.89746
861.1693, 31.19301
861.6514, 31.44159
862.1335, 31.64441
862.6156, 31.87234
863.0977, 32.21534
863.5798, 32.71876
864.0620, 33.20842
864.5441, 33.66145
865.0262, 34.13127
865.5083, 34.77020
865.9904, 35.49453
866.4725, 36.04059
866.9547, 36.35055
867.4368, 36.57253
867.9189, 36.66288
868.4010, 36.80776
868.8831, 37.19334
869.3652, 37.94752
869.8474, 38.71242
870.3295, 39.50788
870.8116, 40.27588
871.2937, 40.94816
871.7758, 41.53714
872.2579, 42.17692
872.7401, 42.88079
873.2222, 43.49514
873.7043, 43.91240
874.1864, 44.17318
874.6685, 44.26833
875.1506, 44.19899
875.6328, 44.17768
876.1149, 44.42876
876.5970, 44.54889
877.0791, 44.39462
877.5612, 43.97481
878.0433, 43.32107
878.5255, 42.42670
879.0076, 41.54384
879.4897, 40.95913
879.9718, 40.40123
880.4539, 39.38012
880.9360, 38.03724
881.4182, 36.86098
881.9003, 36.17290
882.3824, 35.55376
882.8645, 34.87103
883.3466, 34.14745
883.8287, 33.42129
884.3109, 32.67053
884.7930, 32.02706
885.2751, 31.55116
885.7572, 31.15116
886.2393, 30.63279
886.7214, 30.06832
887.2036, 29.64935
887.6857, 29.52485
888.1678, 29.41899
888.6499, 29.22058
889.1320, 28.96793
889.6141, 28.70916
890.0963, 28.43977
890.5784, 28.17668
891.0605, 27.89757
891.5426, 27.68160
892.0247, 27.65433
892.5068, 27.75866
892.9890, 27.81565
893.4711, 27.79284
893.9532, 27.79493
894.4353, 27.99032
894.9174, 28.17269
895.3995, 28.10222
895.8817, 27.61796
896.3638, 27.60396
896.8459, 28.28192
897.3280, 28.96760
897.8101, 29.13106
898.2922, 28.90792
898.7744, 29.09571
899.2565, 29.65678
899.7386, 30.18607
900.2207, 30.33045
900.7028, 30.42703
901.1849, 30.75051
901.6671, 31.27392
902.1492, 31.74968
902.6313, 32.13215
903.1134, 32.48244
903.5955, 32.80413
904.0776, 33.11536
904.5598, 33.48286
905.0419, 33.89990
905.5240, 34.32959
906.0062, 34.80000
906.4883, 35.21041
906.9704, 35.37899
907.4525, 35.45072
907.9346, 35.66269
908.4167, 36.28378
908.8989, 36.73307
909.3810, 36.84293
909.8631, 36.91967
910.3452, 37.49747
910.8273, 38.51392
911.3094, 38.90517
911.7916, 38.46778
912.2737, 38.02978
912.7558, 38.49041
913.2379, 39.28708
913.7200, 39.79818
914.2021, 39.87001
914.6843, 40.00293
915.1664, 40.29172
915.6485, 40.63536
916.1306, 40.98581
916.6127, 41.34428
917.0948, 41.69667
917.5770, 42.04568
918.0591, 42.52079
918.5412, 43.49023
919.0233, 44.42366
919.5054, 44.57690
919.9875, 44.14704
920.4697, 44.01667
920.9518, 44.68541
921.4339, 45.38084
921.9160, 45.93976
922.3981, 46.41480
922.8802, 46.93581
923.3624, 47.49746
923.8445, 48.06416
924.3266, 48.60893
924.8087, 49.19757
925.2908, 49.93934
925.7729, 50.76583
926.2551, 51.58372
926.7372, 52.31372
927.2193, 53.14370
927.7014, 54.16462
928.1835, 55.22398
928.6656, 56.19297
929.1478, 57.06917
929.6299, 57.79548
930.1120, 58.34786
930.5941, 59.01649
931.0762, 60.12437
931.5583, 61.43053
932.0405, 62.67578
932.5226, 63.81942
933.0047, 65.13289
933.4868, 66.88848
933.9689, 68.54069
934.4510, 69.80815
934.9332, 70.81823
935.4153, 72.22083
935.8974, 74.00533
936.3795, 75.71296
936.8616, 77.07415
937.3438, 78.33104
937.8259, 79.70103
938.3080, 81.15746
938.7901, 82.61541
939.2722, 84.27641
939.7543, 85.64099
940.2365, 86.59264
940.7186, 87.29744
941.2007, 87.88728
941.6828, 88.38271
942.1649, 89.06625
942.6470, 90.01087
943.1292, 90.91502
943.6113, 91.51212
944.0934, 91.92780
944.5755, 92.36656
945.0576, 92.93221
945.5397, 92.95882
946.0219, 92.10390
946.5040, 91.23991
946.9861, 90.94553
947.4682, 91.03620
947.9503, 90.35238
948.4324, 88.96684
948.9146, 87.51065
949.3967, 86.40135
949.8788, 85.31280
950.3609, 83.99636
950.8430, 82.50159
951.3251, 81.00718
951.8073, 79.52338
952.2894, 78.06314
952.7715, 76.70092
953.2536, 75.25069
953.7357, 73.23279
954.2179, 70.83176
954.7000, 68.83235
955.1821, 67.48852
955.6642, 66.19915
956.1464, 64.49931
956.6285, 62.69743
957.1106, 61.05122
957.5927, 59.59759
958.0748, 58.23008
958.5569, 56.98188
959.0391, 55.71384
959.5212, 54.29711
960.0033, 52.79303
960.4854, 51.33811
960.9675, 49.95200
961.4496, 48.78205
961.9318, 48.11034
962.4139, 47.44410
962.8960, 46.58718
963.3781, 45.54700
963.8602, 44.27048
964.3423, 42.61695
964.8245, 41.41005
965.3066, 40.89075
965.7887, 40.67416
966.2708, 40.29185
966.7529, 39.77921
967.2350, 39.18841
967.7172, 38.48323
968.1993, 37.85820
968.6814, 37.50179
969.1635, 37.14656
969.6456, 36.54933
970.1277, 35.66927
970.6099, 35.17706
971.0920, 35.10351
971.5741, 35.01701
972.0562, 34.59445
972.5383, 34.00879
973.0204, 33.36788
973.5026, 32.73465
973.9847, 32.32525
974.4668, 32.46955
974.9489, 32.52044
975.4310, 32.33194
975.9131, 31.98175
976.3953, 31.57498
976.8774, 31.12009
977.3595, 30.80224
977.8416, 30.68169
978.3237, 30.63409
978.8058, 30.70069
979.2880, 30.69235
979.7701, 30.34292
980.2522, 29.41521
980.7343, 28.84530
981.2164, 28.79037
981.6985, 28.84277
982.1807, 28.79508
982.6628, 28.64376
983.1449, 28.32579
983.6270, 27.86760
984.1091, 27.43557
984.5912, 27.16298
985.0734, 26.90367
985.5555, 26.51811
986.0376, 26.09050
986.5197, 25.83220
987.0018, 25.76573
987.4839, 25.83450
987.9661, 26.09348
988.4482, 26.30355
988.9303, 26.07680
989.4124, 25.58368
989.8945, 25.10953
990.3766, 24.68458
990.8588, 24.42506
991.3409, 24.50193
991.8230, 24.65279
992.3051, 24.75164
992.7872, 24.79509
993.2693, 24.67091
993.7515, 24.37090
994.2336, 24.14036
994.7157, 24.17958
995.1978, 24.29940
995.6799, 24.24873
996.1620, 24.10881
996.6442, 24.06977
997.1263, 24.47044
997.6084, 24.52751
998.0905, 23.95754
998.5726, 23.29600
999.0547, 23.32059
999.5369, 23.90806
1000.019, 24.30289
1000.501, 24.41744
1000.983, 24.33962
1001.465, 23.99185
1001.947, 23.58949
1002.430, 23.27369
1002.912, 23.05711
1003.394, 22.99385
1003.876, 23.14843
1004.358, 23.23509
1004.840, 23.08881
1005.322, 22.87632
1005.804, 22.99034
1006.287, 23.29854
1006.769, 23.47528
1007.251, 23.32137
1007.733, 23.13961
1008.215, 22.93743
1008.697, 22.81132
1009.179, 22.89831
1009.661, 23.23196
1010.143, 23.36244
1010.626, 23.26609
1011.108, 23.11191
1011.590, 23.01026
1012.072, 22.93866
1012.554, 22.87012
1013.036, 22.80724
1013.518, 22.77516
1014.000, 22.73390
1014.483, 22.81018
1014.965, 23.09241
1015.447, 23.43719
1015.929, 23.53527
1016.411, 23.44295
1016.893, 23.35169
1017.375, 23.28973
1017.857, 23.30795
1018.339, 23.57177
1018.822, 23.83196
1019.304, 23.83438
1019.786, 23.52352
1020.268, 23.44863
1020.750, 23.66070
1021.232, 23.78107
1021.714, 23.42685
1022.196, 22.91973
1022.679, 22.77251
1023.161, 22.89532
1023.643, 23.03384
1024.125, 23.11523
1024.607, 23.19139
1025.089, 23.30556
1025.571, 23.38334
1026.053, 23.29133
1026.535, 23.05392
1027.018, 22.83356
1027.500, 22.64636
1027.982, 22.53314
1028.464, 22.60051
1028.946, 22.69510
1029.428, 22.65796
1029.910, 22.48791
1030.392, 22.52314
1030.875, 22.85975
1031.357, 23.03691
1031.839, 22.82315
1032.321, 22.46448
1032.803, 22.39501
1033.285, 22.51923
1033.767, 22.64615
1034.249, 22.75572
1034.731, 22.78050
1035.214, 22.59462
1035.696, 22.42551
1036.178, 22.47327
1036.660, 22.73437
1037.142, 22.89739
1037.624, 22.95827
1038.106, 22.91264
1038.588, 22.56353
1039.071, 22.28210
1039.553, 22.48639
1040.035, 22.99664
1040.517, 23.17991
1040.999, 22.90861
1041.481, 22.57927
1041.963, 22.21396
1042.445, 21.89724
1042.927, 21.70365
1043.410, 21.64681
1043.892, 21.82415
1044.374, 22.28343
1044.856, 22.56801
1045.338, 22.32984
1045.820, 22.06503
1046.302, 21.99347
1046.784, 22.07438
1047.266, 22.08954
1047.749, 22.04716
1048.231, 22.05416
1048.713, 22.21864
1049.195, 22.33035
1049.677, 22.16991
1050.159, 21.87947
1050.641, 21.63736
1051.123, 21.39039
1051.606, 21.42959
1052.088, 21.85083
1052.570, 22.21017
1053.052, 22.06226
1053.534, 21.66518
1054.016, 21.52647
1054.498, 21.59689
1054.980, 21.58944
1055.463, 21.21713
1055.945, 20.98519
1056.427, 21.04663
1056.909, 21.26383
1057.391, 21.45658
1057.873, 21.61420
1058.355, 21.64117
1058.837, 21.51840
1059.319, 21.31502
1059.802, 20.98156
1060.284, 20.67661
1060.766, 20.54883
1061.248, 20.59020
1061.730, 20.58397
1062.212, 20.50641
1062.694, 20.51464
1063.176, 20.70250
1063.658, 20.94172
1064.141, 21.09598
1064.623, 21.15665
1065.105, 21.09287
1065.587, 20.78829
1066.069, 20.60874
1066.551, 20.63570
1067.033, 20.71342
1067.515, 20.74257
1067.998, 20.72804
1068.480, 20.70233
1068.962, 20.66012
1069.444, 20.57186
1069.926, 20.34505
1070.408, 20.15304
1070.890, 20.07287
1071.372, 20.08591
1071.854, 20.20384
1072.337, 20.45081
1072.819, 20.55523
1073.301, 20.48610
1073.783, 20.31235
1074.265, 19.93131
1074.747, 19.59901
1075.229, 19.64351
1075.711, 20.05158
1076.193, 20.32578
1076.676, 20.44501
1077.158, 20.37926
1077.640, 20.04643
1078.122, 19.66014
1078.604, 19.66354
1079.086, 19.88042
1079.568, 19.90164
1080.051, 19.55391
1080.533, 19.36692
1081.015, 19.77030
1081.497, 20.12378
1081.979, 20.07514
1082.461, 19.69740
1082.943, 19.42407
1083.425, 19.25277
1083.907, 19.18931
1084.390, 19.33970
1084.872, 19.45285
1085.354, 19.27608
1085.836, 19.01928
1086.318, 18.95467
1086.800, 19.12644
1087.282, 19.38370
1087.764, 19.75900
1088.246, 19.93743
1088.729, 19.34629
1089.211, 18.65653
1089.693, 18.87567
1090.175, 19.72167
1090.657, 19.98855
1091.139, 18.91700
1091.621, 18.30541
1092.103, 18.46066
1092.586, 18.99915
1093.068, 19.61680
1093.550, 20.16943
1094.032, 20.25466
1094.514, 19.82525
1094.996, 19.41538
1095.478, 19.23218
1095.960, 19.16105
1096.443, 19.21873
1096.925, 19.31848
1097.407, 19.12613
1097.889, 18.69920
1098.371, 18.49492
1098.853, 18.70225
1099.335, 18.90517
1099.817, 18.73541
1100.299, 18.48404
1100.781, 18.42016
1101.264, 18.55223
1101.746, 18.66631
1102.228, 18.76737
1102.710, 18.78601
1103.192, 18.61357
1103.674, 18.43796
1104.156, 18.56063
1104.638, 18.80134
1105.121, 18.85565
1105.603, 18.49763
1106.085, 18.30285
1106.567, 18.29862
1107.049, 18.38030
1107.531, 18.54148
1108.013, 18.69505
1108.495, 18.59968
1108.978, 18.32776
1109.460, 18.17528
1109.942, 18.43410
1110.424, 18.55874
1110.906, 18.38449
1111.388, 18.13641
1111.870, 18.16215
1112.352, 18.37696
1112.834, 18.38136
1113.317, 18.14826
1113.799, 17.95941
1114.281, 18.02653
1114.763, 18.12827
1115.245, 18.15030
1115.727, 18.12942
1116.209, 18.17841
1116.691, 18.29383
1117.173, 18.32897
1117.656, 18.23801
1118.138, 18.14644
1118.620, 18.19817
1119.102, 18.26920
1119.584, 18.25293
1120.066, 18.14636
1120.548, 17.96986
1121.030, 17.69341
1121.513, 17.57690
1121.995, 17.79465
1122.477, 18.05548
1122.959, 17.93457
1123.441, 17.65796
1123.923, 17.56656
1124.405, 17.85160
1124.887, 17.91230
1125.370, 17.66470
1125.852, 17.40440
1126.334, 17.29141
1126.816, 17.29158
1127.298, 17.40167
1127.780, 17.55909
1128.262, 17.61233
1128.744, 17.32771
1129.226, 17.21598
1129.709, 17.41143
1130.191, 17.64588
1130.673, 17.65959
1131.155, 17.51901
1131.637, 17.50178
1132.119, 17.58963
1132.601, 17.64257
1133.083, 17.54947
1133.566, 17.45883
1134.048, 17.42951
1134.530, 17.42086
1135.012, 17.34505
1135.494, 17.22082
1135.976, 17.30947
1136.458, 17.63124
1136.940, 17.84471
1137.422, 17.58074
1137.905, 17.27109
1138.387, 17.22418
1138.869, 17.31745
1139.351, 17.17622
1139.833, 16.77843
1140.315, 16.70842
1140.797, 17.10791
1141.279, 17.57731
1141.761, 17.88365
1142.244, 18.00774
1142.726, 17.87293
1143.208, 17.49916
1143.690, 17.17096
1144.172, 16.87513
1144.654, 16.74000
1145.136, 16.85612
1145.618, 17.00704
1146.101, 16.84594
1146.583, 16.60824
1147.065, 16.59034
1147.547, 16.88404
1148.029, 17.22934
1148.511, 17.71193
1148.993, 17.91928
1149.475, 17.52775
1149.958, 16.96523
1150.440, 17.00383
1150.922, 17.36862
1151.404, 17.55301
1151.886, 17.33639
1152.368, 17.16311
1152.850, 17.07340
1153.332, 17.01311
1153.814, 16.95438
1154.297, 16.89806
1154.779, 16.82568
1155.261, 16.75688
1155.743, 16.74977
1156.225, 16.97042
1156.707, 17.01857
1157.189, 16.72786
1157.671, 16.44964
1158.153, 16.53631
1158.636, 16.88644
1159.118, 17.12791
1159.600, 17.24976
1160.082, 17.23962
1160.564, 16.92299
1161.046, 16.69384
1161.528, 16.69818
1162.010, 16.79334
1162.493, 16.85009
1162.975, 16.85974
1163.457, 16.71528
1163.939, 16.43029
1164.421, 16.23198
1164.903, 16.11541
1165.385, 15.64423
1165.867, 16.17955
1166.349, 16.52482
1166.832, 16.69042
1167.314, 16.13718
1167.796, 16.51190
1168.278, 16.51472
1168.760, 16.50233
1169.242, 17.00763
1169.724, 16.55894
1170.206, 17.05606
1170.688, 17.17560
1171.171, 17.48571
1171.653, 17.11133
1172.135, 16.90388
1172.617, 16.99613
1173.099, 17.11806
1173.581, 17.05769
1174.063, 16.93102
1174.545, 16.82802
1175.028, 16.73833
1175.510, 16.57090
1175.992, 16.31689
1176.474, 16.16733
1176.956, 16.17535
1177.438, 16.27739
1177.920, 16.53781
1178.402, 16.77246
1178.885, 16.71317
1179.367, 16.37974
1179.849, 16.51953
1180.331, 17.20731
1180.813, 17.51487
1181.295, 16.95034
1181.777, 16.33108
1182.259, 16.63958
1182.741, 17.28451
1183.224, 17.62121
1183.706, 17.57625
1184.188, 17.40554
1184.670, 17.09281
1185.152, 16.73379
1185.634, 16.25097
1186.116, 15.95746
1186.598, 16.48403
1187.081, 17.29624
1187.563, 17.60840
1188.045, 17.15569
1188.527, 17.04898
1189.009, 17.36731
1189.491, 17.55445
1189.973, 17.18490
1190.455, 16.67175
1190.938, 16.47030
1191.420, 16.49892
1191.902, 16.64582
1192.384, 16.96249
1192.866, 17.20395
1193.348, 17.38424
1193.830, 17.42154
1194.312, 17.14892
1194.794, 16.79914
1195.276, 16.66894
1195.759, 16.69140
1196.241, 16.73777
1196.723, 16.82191
1197.205, 16.83399
1197.687, 16.75444
1198.169, 16.68331
1198.651, 16.65807
1199.133, 16.71622
1199.616, 16.99025
1200.098, 17.37950
1200.580, 17.62416
1201.062, 17.62276
1201.544, 17.63880
1202.026, 17.70621
1202.508, 17.69586
1202.990, 17.40375
1203.473, 17.03304
1203.955, 16.76093
1204.437, 16.63833
1204.919, 16.84458
1205.401, 17.73002
1205.883, 18.07431
1206.365, 17.68637
1206.847, 17.16278
1207.329, 17.06497
1207.812, 17.17637
1208.294, 17.27205
1208.776, 17.33231
1209.258, 17.32089
1209.740, 17.20521
1210.222, 17.09879
1210.704, 17.00455
1211.186, 16.95660
1211.668, 17.00623
1212.151, 17.10906
1212.633, 17.23582
1213.115, 17.37103
1213.597, 17.43765
1214.079, 17.41596
1214.561, 17.36888
1215.043, 17.29378
1215.525, 17.24402
1216.008, 17.35010
1216.490, 17.46355
1216.972, 17.33661
1217.454, 17.01279
1217.936, 16.91369
1218.418, 17.14754
1218.900, 17.29413
1219.382, 17.27472
1219.865, 17.19784
1220.347, 17.19192
1220.829, 17.18994
1221.311, 17.07877
1221.793, 16.87907
1222.275, 16.80423
1222.757, 16.87078
1223.239, 17.04934
1223.721, 17.36930
1224.203, 17.63483
1224.686, 17.58365
1225.168, 17.40192
1225.650, 17.26911
1226.132, 17.19677
1226.614, 17.11166
1227.096, 17.00274
1227.578, 16.93278
1228.061, 16.91064
1228.543, 16.95267
1229.025, 17.23442
1229.507, 17.46772
1229.989, 17.23210
1230.471, 16.60204
1230.953, 16.48708
1231.435, 16.96176
1231.917, 17.28409
1232.400, 17.27386
1232.882, 17.12456
1233.364, 16.92459
1233.846, 16.74917
1234.328, 16.69040
1234.810, 16.72565
1235.292, 16.68301
1235.774, 16.55470
1236.256, 16.56722
1236.739, 16.81280
1237.221, 17.01109
1237.703, 16.84421
1238.185, 16.59972
1238.667, 16.50569
1239.149, 16.54021
1239.631, 16.63530
1240.113, 16.78454
1240.596, 16.81443
1241.078, 16.64641
1241.560, 16.56108
1242.042, 16.98596
1242.524, 17.34912
1243.006, 17.16162
1243.488, 16.62165
1243.970, 16.55323
1244.453, 16.88306
1244.935, 16.96838
1245.417, 16.59155
1245.899, 16.34852
1246.381, 16.87156
1246.863, 17.34273
1247.345, 17.27349
1247.827, 16.84026
1248.309, 16.55448
1248.792, 16.41492
1249.274, 16.43018
1249.756, 16.61895
1250.238, 16.85923
1250.720, 17.24360
1251.202, 17.47705
1251.684, 17.40293
1252.166, 17.13257
1252.648, 16.90443
1253.131, 16.72382
1253.613, 16.59776
1254.095, 16.52292
1254.577, 16.54304
1255.059, 16.85407
1255.541, 16.96284
1256.023, 16.58186
1256.505, 16.04864
1256.988, 16.18029
1257.470, 16.66508
1257.952, 16.80280
1258.434, 16.40846
1258.916, 16.16969
1259.398, 16.26210
1259.880, 16.34125
1260.362, 16.26785
1260.844, 16.17388
1261.327, 16.34771
1261.809, 16.61324
1262.291, 16.66401
1262.773, 16.42467
1263.255, 16.38168
1263.737, 16.65178
1264.219, 16.77250
1264.701, 16.55639
1265.183, 16.24525
1265.666, 16.04239
1266.148, 15.98246
1266.630, 16.19071
1267.112, 16.67952
1267.594, 16.88672
1268.076, 16.79390
1268.558, 16.53378
1269.040, 16.08598
1269.523, 15.71451
1270.005, 15.75383
1270.487, 15.92715
1270.969, 15.95515
1271.451, 15.87114
1271.933, 15.98118
1272.415, 16.27873
1272.897, 16.29322
1273.380, 15.84369
1273.862, 15.49517
1274.344, 15.85389
1274.826, 16.25938
1275.308, 16.23987
1275.790, 15.95529
1276.272, 15.94359
1276.754, 16.16044
1277.236, 16.42176
1277.719, 16.71461
1278.201, 16.78620
1278.683, 16.23655
1279.165, 15.75155
1279.647, 15.60164
1280.129, 15.68022
1280.611, 15.81442
1281.093, 15.97414
1281.576, 16.09641
1282.058, 16.17466
1282.540, 16.13080
1283.022, 15.79312
1283.504, 15.59986
1283.986, 15.71799
1284.468, 15.91367
1284.950, 15.72167
1285.432, 15.40826
1285.915, 15.48187
1286.397, 15.98107
1286.879, 16.23047
1287.361, 16.11950
1287.843, 15.92712
1288.325, 15.67795
1288.807, 15.51392
1289.289, 15.67872
1289.771, 15.95543
1290.254, 16.12825
1290.736, 16.18764
1291.218, 16.22878
1291.700, 16.25136
1292.182, 16.25850
1292.664, 16.25145
1293.146, 16.22128
1293.628, 16.17043
1294.111, 16.08350
1294.593, 15.89769
1295.075, 15.68699
1295.557, 15.62154
1296.039, 15.68674
1296.521, 15.71922
1297.003, 15.70085
1297.485, 15.69688
1297.968, 15.76022
1298.450, 15.82685
1298.932, 15.89213
1299.414, 15.92614
1299.896, 15.83640
1300.378, 15.68445
1300.860, 15.68808
1301.342, 15.84099
1301.824, 15.93876
##END=



