##NAMES=Langbanite
##RRUFFID=R050664
##IDEAL CHEMISTRY=Mn^2+^_4_Mn^3+^_9_Sb^5+^O_16_(SiO_4_)_2_
##LOCALITY=Langban, Filipstad, Varmland, Sweden
##OWNER=RRUFF
##SOURCE=University of Arizona Mineral Museum
##DESCRIPTION=Black metallic crystals
##STATUS=The identification of this mineral has been confirmed by X-ray diffraction and chemical analysis
##URL=rruff.info/R050664
##MEASURED CHEMISTRY=(Mn^2+^_3.79_Ca_0.21_)_Σ=4_(Mn^3+^_6.45_Fe^3+^_2.55_)_Σ=9_Sb^5+^_1.00_O_16_(Si_1.00_O_4_)_2_
92.02539, 179.2526
92.50751, 185.4039
92.98962, 189.6117
93.47174, 186.9751
93.95386, 181.7303
94.43597, 176.6542
94.91809, 173.5693
95.40021, 171.6389
95.88232, 167.1668
96.36444, 158.2868
96.84656, 149.5271
97.32867, 141.8925
97.81078, 135.3290
98.29290, 129.7265
98.77502, 125.1028
99.25713, 121.5271
99.73925, 116.6552
100.2214, 109.7486
100.7035, 102.5742
101.1856, 95.34504
101.6677, 88.32410
102.1498, 82.26177
102.6320, 78.13008
103.1141, 76.65950
103.5962, 75.63760
104.0783, 75.16692
104.5604, 75.07360
105.0425, 75.39507
105.5247, 76.28767
106.0068, 77.04504
106.4889, 76.38046
106.9710, 74.34730
107.4531, 71.64893
107.9352, 68.17380
108.4173, 64.10243
108.8995, 60.39952
109.3816, 57.38300
109.8637, 54.95922
110.3458, 53.00928
110.8279, 51.55415
111.3100, 50.41681
111.7922, 49.33768
112.2743, 48.21408
112.7564, 47.52250
113.2385, 47.70712
113.7206, 48.19791
114.2027, 48.54242
114.6849, 48.54267
115.1670, 48.24831
115.6491, 47.82446
116.1312, 47.07852
116.6133, 46.41580
117.0954, 45.89322
117.5776, 45.49425
118.0597, 45.19971
118.5418, 45.00666
119.0239, 44.91715
119.5060, 44.72533
119.9881, 44.14835
120.4703, 43.74469
120.9524, 43.91711
121.4345, 44.56061
121.9166, 45.15565
122.3987, 45.20125
122.8808, 44.58294
123.3630, 44.04455
123.8451, 43.64658
124.3272, 43.29606
124.8093, 42.92238
125.2914, 42.51766
125.7735, 42.06368
126.2557, 41.43010
126.7378, 40.66680
127.2199, 40.10949
127.7020, 40.09803
128.1841, 40.42901
128.6662, 40.42480
129.1483, 39.78613
129.6305, 39.00674
130.1126, 38.52265
130.5947, 38.30435
131.0768, 38.04974
131.5589, 37.38671
132.0410, 36.22469
132.5232, 35.40059
133.0053, 35.19984
133.4874, 35.25019
133.9695, 35.49469
134.4516, 35.88313
134.9337, 36.24504
135.4159, 36.29526
135.8980, 35.79923
136.3801, 35.42034
136.8622, 35.23554
137.3443, 35.13762
137.8264, 35.05974
138.3086, 34.97258
138.7907, 34.86092
139.2728, 34.68418
139.7549, 34.49861
140.2370, 34.17318
140.7191, 33.53188
141.2013, 32.76919
141.6834, 32.21059
142.1655, 32.06448
142.6476, 32.19223
143.1297, 31.97427
143.6118, 30.99023
144.0939, 30.16990
144.5761, 30.03338
145.0582, 30.44963
145.5403, 30.81692
146.0224, 30.78898
146.5045, 30.42696
146.9866, 30.01707
147.4688, 29.49087
147.9509, 28.98538
148.4330, 28.65313
148.9151, 28.51664
149.3972, 28.41033
149.8793, 28.15471
150.3615, 27.88180
150.8436, 27.78574
151.3257, 28.03332
151.8078, 28.45297
152.2899, 28.51078
152.7720, 27.59755
153.2542, 26.83654
153.7363, 27.52134
154.2184, 27.85318
154.7005, 27.85102
155.1826, 26.51452
155.6647, 26.90105
156.1469, 26.59705
156.6290, 26.26475
157.1111, 26.89380
157.5932, 25.75138
158.0753, 26.36517
158.5574, 25.52682
159.0396, 25.86552
159.5217, 27.49088
160.0038, 28.24036
160.4859, 27.50744
160.9680, 26.58141
161.4501, 25.88519
161.9323, 25.48429
162.4144, 25.30103
162.8965, 25.27839
163.3786, 25.47266
163.8607, 25.59144
164.3428, 25.69647
164.8250, 25.69489
165.3071, 25.41610
165.7892, 24.85549
166.2713, 24.32724
166.7534, 24.26920
167.2355, 24.77025
167.7177, 25.08467
168.1998, 24.95888
168.6819, 24.66648
169.1640, 24.60141
169.6461, 24.89145
170.1282, 25.23323
170.6104, 25.20522
171.0925, 24.85568
171.5746, 24.52460
172.0567, 24.34882
172.5388, 24.29403
173.0209, 24.27108
173.5031, 24.29808
173.9852, 24.30369
174.4673, 24.21567
174.9494, 24.04310
175.4315, 23.86945
175.9136, 23.74225
176.3958, 23.66114
176.8779, 23.63278
177.3600, 23.72637
177.8421, 23.81711
178.3242, 23.81423
178.8063, 23.72284
179.2885, 23.63012
179.7706, 23.65208
180.2527, 23.83780
180.7348, 23.92140
181.2169, 23.79080
181.6990, 23.62599
182.1812, 23.51732
182.6633, 23.47944
183.1454, 23.47273
183.6275, 23.43457
184.1096, 23.31675
184.5917, 23.27526
185.0738, 23.39529
185.5560, 23.52167
186.0381, 23.53193
186.5202, 23.40071
187.0023, 23.20443
187.4844, 23.07088
187.9665, 23.01126
188.4487, 23.01116
188.9308, 23.09352
189.4129, 23.22060
189.8950, 23.38700
190.3771, 23.58797
190.8592, 23.76615
191.3414, 23.79951
191.8235, 23.60952
192.3056, 23.42218
192.7877, 23.24771
193.2698, 23.09270
193.7519, 22.95148
194.2341, 22.81373
194.7162, 22.71996
195.1983, 22.79642
195.6804, 23.10189
196.1625, 23.33348
196.6446, 23.42057
197.1268, 23.36822
197.6089, 23.14334
198.0910, 22.64562
198.5731, 22.11287
199.0552, 21.91384
199.5373, 22.06526
200.0195, 22.34694
200.5016, 22.74443
200.9837, 23.21332
201.4658, 23.52096
201.9479, 23.58099
202.4300, 23.44848
202.9122, 23.19334
203.3943, 22.80671
203.8764, 22.39414
204.3585, 21.99965
204.8406, 21.62280
205.3227, 21.36613
205.8048, 21.28856
206.2870, 21.33068
206.7691, 21.48732
207.2512, 21.75437
207.7333, 22.03265
208.2154, 22.20536
208.6975, 22.25126
209.1797, 22.31767
209.6618, 22.49946
210.1439, 22.66050
210.6260, 22.73167
211.1081, 22.69861
211.5902, 22.57776
212.0724, 22.36382
212.5545, 22.00245
213.0366, 21.71920
213.5187, 21.50830
214.0008, 21.38604
214.4829, 21.41570
214.9651, 21.58737
215.4472, 21.78159
215.9293, 21.79439
216.4114, 21.42499
216.8935, 21.30253
217.3756, 21.60812
217.8578, 21.98969
218.3399, 22.20777
218.8220, 22.20973
219.3041, 22.10514
219.7862, 22.06020
220.2683, 22.12402
220.7505, 22.15451
221.2326, 22.16867
221.7147, 22.14406
222.1968, 22.01792
222.6789, 21.79095
223.1610, 21.58085
223.6432, 21.57248
224.1253, 21.93060
224.6074, 22.15750
225.0895, 22.18342
225.5716, 22.11982
226.0537, 22.06940
226.5358, 22.05574
227.0180, 22.02654
227.5001, 21.89361
227.9822, 21.59831
228.4643, 21.39207
228.9464, 21.34428
229.4285, 21.36782
229.9107, 21.36862
230.3928, 21.32474
230.8749, 21.28405
231.3570, 21.31765
231.8391, 21.43293
232.3212, 21.53513
232.8034, 21.62778
233.2855, 21.69254
233.7676, 21.69513
234.2497, 21.62298
234.7318, 21.52761
235.2139, 21.47642
235.6961, 21.46255
236.1782, 21.41232
236.6603, 21.19854
237.1424, 20.96989
237.6245, 20.99290
238.1066, 21.35709
238.5888, 21.78286
239.0709, 22.03071
239.5530, 22.13576
240.0351, 22.16835
240.5172, 22.13034
240.9993, 22.03892
241.4815, 21.89968
241.9636, 21.66799
242.4457, 21.50794
242.9278, 21.66386
243.4099, 21.98291
243.8920, 22.13014
244.3742, 21.66739
244.8563, 20.98194
245.3384, 21.09514
245.8205, 22.41021
246.3026, 23.61560
246.7847, 23.97034
247.2668, 23.74499
247.7490, 23.31174
248.2311, 22.75240
248.7132, 22.13728
249.1953, 21.63297
249.6774, 21.27583
250.1595, 20.96558
250.6417, 20.65799
251.1238, 20.36591
251.6059, 20.09089
252.0880, 19.80167
252.5701, 19.56987
253.0522, 19.61977
253.5344, 20.16215
254.0165, 20.56933
254.4986, 20.59445
254.9807, 20.42984
255.4628, 20.28890
255.9449, 20.27179
256.4271, 20.29811
256.9092, 20.14786
257.3913, 19.63672
257.8734, 19.30976
258.3555, 19.37922
258.8376, 19.59783
259.3198, 19.73159
259.8019, 19.68833
260.2840, 19.55567
260.7661, 19.51962
261.2482, 19.63887
261.7303, 19.74743
262.2125, 19.84631
262.6946, 19.91752
263.1767, 19.94840
263.6588, 19.93456
264.1409, 19.87601
264.6230, 19.76772
265.1052, 19.58120
265.5873, 19.39700
266.0694, 19.16663
266.5515, 18.97269
267.0336, 18.89265
267.5157, 18.93656
267.9979, 19.03982
268.4800, 19.10841
268.9621, 19.12346
269.4442, 19.14246
269.9263, 19.17974
270.4084, 19.21007
270.8906, 19.21594
271.3727, 19.19582
271.8548, 19.16117
272.3369, 19.12693
272.8190, 19.10072
273.3011, 19.04822
273.7833, 18.84991
274.2654, 18.72701
274.7475, 18.87401
275.2296, 19.25080
275.7117, 19.63491
276.1938, 19.80724
276.6760, 19.74131
277.1581, 19.60958
277.6402, 19.19521
278.1223, 18.92575
278.6044, 19.13242
279.0865, 19.69715
279.5686, 20.20984
280.0508, 20.33388
280.5329, 20.06103
281.0150, 19.80028
281.4971, 19.43719
281.9792, 19.19522
282.4613, 19.21231
282.9435, 19.42105
283.4256, 19.66755
283.9077, 19.85938
284.3898, 19.99846
284.8719, 20.08821
285.3540, 20.03605
285.8362, 20.04553
286.3183, 20.23759
286.8004, 20.52175
287.2825, 20.73773
287.7646, 20.80304
288.2467, 20.74476
288.7289, 20.65232
289.2110, 20.44973
289.6931, 20.30883
290.1752, 20.25890
290.6573, 20.28641
291.1394, 20.39903
291.6216, 20.60567
292.1037, 20.83823
292.5858, 20.95243
293.0679, 20.88198
293.5500, 20.82029
294.0321, 20.72927
294.5143, 20.68051
294.9964, 20.78951
295.4785, 21.08664
295.9606, 21.43836
296.4427, 21.66422
296.9248, 21.74028
297.4070, 21.73140
297.8891, 21.57064
298.3712, 21.36657
298.8533, 21.17488
299.3354, 21.01554
299.8175, 20.96729
300.2997, 21.15012
300.7818, 21.62094
301.2639, 21.88781
301.7460, 21.86173
302.2281, 21.70589
302.7102, 21.49173
303.1924, 21.23790
303.6745, 20.97388
304.1566, 20.69803
304.6387, 20.42597
305.1208, 20.31789
305.6029, 20.60114
306.0851, 20.81320
306.5672, 20.65446
307.0493, 20.21538
307.5314, 19.79299
308.0135, 19.54377
308.4956, 19.44912
308.9778, 19.43274
309.4599, 19.63334
309.9420, 19.72970
310.4241, 19.55597
310.9062, 19.21151
311.3883, 18.86921
311.8705, 18.58810
312.3526, 18.38485
312.8347, 18.32925
313.3168, 18.50730
313.7989, 18.60559
314.2810, 18.42513
314.7632, 18.17811
315.2453, 18.21061
315.7274, 18.63027
316.2095, 19.11978
316.6916, 19.22223
317.1737, 18.82903
317.6559, 18.52038
318.1380, 18.37670
318.6201, 18.31566
319.1022, 18.25469
319.5843, 18.18496
320.0664, 18.17626
320.5485, 18.34490
321.0306, 18.70620
321.5128, 18.76654
321.9949, 18.25063
322.4770, 17.67582
322.9591, 17.36953
323.4412, 17.31338
323.9233, 17.33136
324.4055, 17.33740
324.8876, 17.31217
325.3697, 17.14060
325.8518, 16.61969
326.3339, 16.19358
326.8160, 16.04906
327.2982, 16.12022
327.7803, 16.31048
328.2624, 16.61808
328.7445, 16.91245
329.2266, 16.79266
329.7087, 15.92274
330.1909, 15.30255
330.6730, 15.31593
331.1551, 15.61201
331.6372, 15.71065
332.1193, 15.46981
332.6014, 15.12966
333.0836, 15.04915
333.5657, 15.36528
334.0478, 15.53858
334.5299, 15.43746
335.0120, 15.26193
335.4941, 15.20116
335.9763, 15.26525
336.4584, 15.29604
336.9405, 15.12783
337.4226, 14.73462
337.9047, 14.46899
338.3868, 14.37495
338.8690, 14.34725
339.3511, 14.37698
339.8332, 14.43388
340.3153, 14.43886
340.7974, 14.33254
341.2795, 14.13990
341.7617, 14.02451
342.2438, 14.01888
342.7259, 14.03908
343.2080, 14.10906
343.6901, 14.18338
344.1722, 14.16155
344.6544, 13.99785
345.1365, 13.80569
345.6186, 13.82640
346.1007, 14.31527
346.5828, 14.63391
347.0649, 14.73056
347.5471, 14.68195
348.0292, 14.51254
348.5113, 14.24583
348.9934, 13.96154
349.4755, 13.77345
349.9576, 13.74539
350.4398, 13.52673
350.9219, 12.77610
351.4040, 12.17011
351.8861, 12.11086
352.3682, 12.52748
352.8503, 13.15573
353.3325, 13.84393
353.8146, 14.56144
354.2967, 14.81000
354.7788, 14.04234
355.2609, 13.43304
355.7430, 13.36092
356.2252, 13.56157
356.7073, 13.61645
357.1894, 13.32419
357.6715, 12.86548
358.1536, 12.70199
358.6357, 13.10635
359.1179, 13.40535
359.5999, 13.62387
360.0821, 13.70751
360.5642, 13.51553
361.0463, 13.06831
361.5284, 12.63156
362.0105, 12.56143
362.4926, 12.98192
362.9748, 13.29309
363.4569, 13.39667
363.9390, 13.49000
364.4211, 13.71018
364.9032, 14.00053
365.3853, 14.19138
365.8675, 14.14430
366.3496, 13.88319
366.8317, 13.63051
367.3138, 13.30725
367.7959, 13.10400
368.2780, 13.15604
368.7602, 13.31224
369.2423, 13.36360
369.7244, 13.21426
370.2065, 13.00089
370.6886, 13.02492
371.1707, 13.43032
371.6529, 13.70783
372.1350, 13.76087
372.6171, 13.69180
373.0992, 13.49953
373.5813, 13.21399
374.0634, 12.97326
374.5456, 12.98293
375.0277, 13.26301
375.5098, 13.34490
375.9919, 13.00276
376.4740, 12.69348
376.9561, 12.67805
377.4383, 12.85710
377.9204, 12.98580
378.4025, 12.88692
378.8846, 12.66321
379.3667, 12.62420
379.8488, 12.85357
380.3310, 13.05110
380.8131, 13.07495
381.2952, 13.01542
381.7773, 12.94765
382.2594, 12.88410
382.7415, 12.84542
383.2237, 12.86440
383.7058, 12.94068
384.1879, 13.02490
384.6700, 13.17709
385.1521, 13.25034
385.6342, 13.05741
386.1164, 12.62315
386.5985, 12.27665
387.0806, 12.26225
387.5627, 12.46264
388.0448, 12.59932
388.5269, 12.63909
389.0091, 12.65249
389.4912, 12.70344
389.9733, 12.76660
390.4554, 12.78027
390.9375, 12.70527
391.4196, 12.60085
391.9018, 12.48693
392.3839, 12.37250
392.8660, 12.35668
393.3481, 12.52515
393.8302, 12.77887
394.3123, 12.93994
394.7945, 13.02719
395.2766, 12.98620
395.7587, 12.61231
396.2408, 12.14105
396.7229, 12.03780
397.2050, 12.43279
397.6872, 12.93844
398.1693, 13.13287
398.6514, 12.98291
399.1335, 12.82852
399.6156, 12.60367
400.0977, 12.44195
400.5798, 12.51465
401.0620, 12.76338
401.5441, 12.91266
402.0262, 12.76553
402.5083, 12.40465
402.9904, 12.25508
403.4725, 12.48624
403.9547, 12.68431
404.4368, 12.75945
404.9189, 12.76409
405.4010, 12.76167
405.8831, 12.77223
406.3652, 12.78037
406.8474, 12.76802
407.3295, 12.75225
407.8116, 12.65636
408.2937, 12.43625
408.7758, 12.18634
409.2579, 11.88780
409.7401, 11.59598
410.2222, 11.45206
410.7043, 11.57872
411.1864, 11.93659
411.6685, 12.18147
412.1506, 12.25583
412.6328, 12.27559
413.1149, 12.20449
413.5970, 12.11251
414.0791, 12.08731
414.5612, 12.15595
415.0433, 12.25047
415.5255, 12.26183
416.0076, 12.16640
416.4897, 12.06892
416.9718, 11.96061
417.4539, 11.86472
417.9360, 11.77143
418.4182, 11.69633
418.9003, 11.68675
419.3824, 11.80009
419.8645, 12.00347
420.3466, 12.15620
420.8287, 12.25870
421.3109, 12.30473
421.7930, 12.29932
422.2751, 12.23763
422.7572, 12.06442
423.2393, 11.72595
423.7214, 11.45787
424.2036, 11.62950
424.6857, 12.21565
425.1678, 12.55428
425.6499, 12.42527
426.1320, 12.08674
426.6141, 11.70967
427.0963, 11.31461
427.5784, 11.07672
428.0605, 11.15998
428.5426, 11.40849
429.0247, 11.59574
429.5068, 11.71035
429.9890, 11.78673
430.4711, 11.84883
430.9532, 11.88371
431.4353, 11.86283
431.9174, 11.74228
432.3995, 11.63104
432.8817, 11.58997
433.3638, 11.59711
433.8459, 11.61535
434.3280, 11.63732
434.8101, 11.63994
435.2922, 11.57787
435.7744, 11.41913
436.2565, 11.33418
436.7386, 11.37990
437.2207, 11.46006
437.7028, 11.51959
438.1849, 11.55307
438.6671, 11.56800
439.1492, 11.56870
439.6313, 11.55587
440.1134, 11.53333
440.5955, 11.37971
441.0776, 11.36936
441.5598, 11.70643
442.0418, 12.11304
442.5240, 12.28606
443.0061, 12.15602
443.4882, 11.89310
443.9703, 11.71493
444.4524, 11.64403
444.9345, 11.55038
445.4167, 11.34935
445.8988, 11.21007
446.3809, 11.23027
446.8630, 11.35479
447.3451, 11.46762
447.8272, 11.49439
448.3094, 11.48946
448.7915, 11.63282
449.2736, 12.04556
449.7557, 12.25751
450.2378, 11.95222
450.7199, 11.53787
451.2021, 11.27337
451.6842, 11.19445
452.1663, 11.23296
452.6484, 11.33730
453.1305, 11.51440
453.6126, 11.85115
454.0948, 12.47701
454.5769, 12.95904
455.0590, 12.90761
455.5411, 12.52103
456.0232, 12.09650
456.5053, 11.61818
456.9875, 11.23378
457.4696, 11.08978
457.9517, 11.15482
458.4338, 11.29469
458.9159, 11.48541
459.3980, 11.69426
459.8802, 11.88113
460.3623, 12.05191
460.8444, 12.17326
461.3265, 12.24329
461.8086, 12.25763
462.2907, 12.20311
462.7729, 12.08457
463.2550, 11.92118
463.7371, 11.71148
464.2192, 11.47538
464.7013, 11.32376
465.1834, 11.21386
465.6656, 11.23495
466.1477, 11.57936
466.6298, 11.97168
467.1119, 12.08148
467.5940, 11.84960
468.0761, 11.49528
468.5583, 11.26469
469.0404, 11.15643
469.5225, 11.17451
470.0046, 11.50630
470.4867, 11.77106
470.9688, 11.78779
471.4510, 11.67281
471.9331, 11.61538
472.4152, 11.70432
472.8973, 11.89764
473.3794, 12.16554
473.8615, 12.57288
474.3437, 12.77335
474.8258, 12.45516
475.3079, 12.10805
475.7900, 12.09290
476.2721, 12.36287
476.7542, 12.56954
477.2364, 12.39071
477.7185, 12.02132
478.2006, 11.94995
478.6827, 12.23384
479.1648, 12.48230
479.6469, 12.46627
480.1291, 12.29926
480.6112, 12.18706
481.0933, 12.14166
481.5754, 12.14146
482.0575, 12.18950
482.5396, 12.27246
483.0217, 12.35407
483.5038, 12.42496
483.9860, 12.54992
484.4681, 12.84364
484.9502, 13.31001
485.4323, 13.48089
485.9144, 13.04490
486.3965, 12.66298
486.8787, 12.62878
487.3608, 12.84258
487.8429, 13.14212
488.3250, 13.46236
488.8071, 13.74350
489.2892, 13.86630
489.7714, 13.73686
490.2535, 13.67970
490.7356, 13.70174
491.2177, 13.77631
491.6998, 13.96231
492.1819, 14.19018
492.6641, 14.26202
493.1462, 13.99528
493.6283, 13.61383
494.1104, 13.85149
494.5925, 14.99813
495.0746, 15.97376
495.5568, 16.39351
496.0389, 16.63930
496.5210, 16.97420
497.0031, 17.41263
497.4852, 17.79275
497.9673, 17.95276
498.4495, 17.96897
498.9316, 17.99057
499.4137, 17.97077
499.8958, 18.21421
500.3779, 19.07853
500.8600, 20.27679
501.3422, 21.21039
501.8243, 21.80713
502.3064, 22.23622
502.7885, 22.46874
503.2706, 22.62277
503.7527, 22.90854
504.2349, 23.37086
504.7170, 23.95667
505.1991, 24.61987
505.6812, 25.36946
506.1633, 26.17081
506.6454, 27.14216
507.1276, 28.02875
507.6097, 28.72136
508.0918, 29.27445
508.5739, 29.75300
509.0560, 30.18506
509.5381, 30.59750
510.0203, 31.01798
510.5024, 31.41709
510.9845, 31.92749
511.4666, 32.76112
511.9487, 33.49436
512.4308, 34.01765
512.9130, 34.31170
513.3951, 34.33526
513.8772, 34.02576
514.3593, 33.55991
514.8414, 33.29378
515.3235, 33.27007
515.8057, 33.11338
516.2878, 32.73054
516.7699, 32.18181
517.2520, 31.49990
517.7341, 30.70030
518.2162, 29.88529
518.6984, 29.07673
519.1805, 28.28414
519.6626, 27.51415
520.1447, 26.76765
520.6268, 26.05427
521.1089, 25.38293
521.5911, 24.74157
522.0732, 24.12822
522.5553, 23.57466
523.0374, 22.94954
523.5195, 22.09196
524.0016, 21.25333
524.4838, 20.69877
524.9659, 20.40780
525.4480, 20.16721
525.9301, 19.83738
526.4122, 19.41824
526.8943, 18.88714
527.3765, 18.05860
527.8586, 17.39478
528.3407, 16.99173
528.8228, 16.71555
529.3049, 16.46298
529.7870, 16.22124
530.2692, 16.04232
530.7513, 16.00994
531.2334, 16.08471
531.7155, 15.99861
532.1976, 15.64029
532.6797, 15.38241
533.1619, 15.63536
533.6440, 15.94424
534.1261, 15.74528
534.6082, 14.88424
535.0903, 14.09900
535.5724, 13.96606
536.0546, 14.22957
536.5367, 14.32330
537.0188, 14.16588
537.5009, 14.02601
537.9830, 14.12846
538.4651, 14.41584
538.9473, 14.55749
539.4294, 14.52948
539.9115, 14.40205
540.3936, 14.11699
540.8757, 13.77912
541.3578, 13.50609
541.8400, 13.32564
542.3221, 13.21463
542.8042, 13.15693
543.2863, 13.15347
543.7684, 13.14591
544.2505, 13.06273
544.7326, 13.06660
545.2147, 13.33700
545.6968, 13.63501
546.1790, 13.67575
546.6611, 13.39659
547.1432, 13.00274
547.6253, 12.67883
548.1074, 12.42519
548.5895, 12.26110
549.0717, 12.19308
549.5538, 12.20214
550.0359, 12.34408
550.5180, 12.53968
551.0001, 12.67540
551.4822, 12.73485
551.9644, 12.72686
552.4465, 12.62169
552.9286, 12.45961
553.4107, 12.29624
553.8928, 12.14022
554.3749, 12.08413
554.8571, 12.26031
555.3392, 12.65560
555.8213, 12.77147
556.3034, 12.25523
556.7855, 11.93134
557.2676, 12.20177
557.7498, 12.68743
558.2319, 12.93133
558.7140, 12.83208
559.1961, 12.59793
559.6782, 12.45188
560.1603, 12.39613
560.6425, 12.30414
561.1246, 12.18332
561.6067, 12.01192
562.0888, 11.66992
562.5709, 11.33494
563.0530, 11.23841
563.5352, 11.44235
564.0173, 11.70615
564.4994, 11.82966
564.9815, 11.84837
565.4636, 11.90345
565.9457, 12.03309
566.4279, 12.05002
566.9100, 11.68733
567.3921, 11.14003
567.8742, 11.09238
568.3563, 11.96872
568.8384, 12.63440
569.3206, 12.47889
569.8027, 12.01696
570.2848, 11.94344
570.7669, 12.31776
571.2490, 12.63385
571.7311, 12.41290
572.2133, 11.72847
572.6954, 11.40750
573.1775, 11.88603
573.6596, 12.13147
574.1417, 11.82058
574.6238, 11.36244
575.1060, 11.08874
575.5881, 11.04856
576.0702, 11.12485
576.5523, 11.28020
577.0344, 11.46929
577.5165, 11.47998
577.9987, 11.24860
578.4808, 11.12814
578.9629, 11.39485
579.4450, 11.76785
579.9271, 11.83130
580.4092, 11.53392
580.8914, 11.24931
581.3735, 11.13744
581.8556, 11.09732
582.3377, 11.01711
582.8198, 10.89602
583.3019, 10.77574
583.7841, 10.67227
584.2662, 10.60621
584.7483, 10.63719
585.2304, 10.86438
585.7125, 11.02723
586.1946, 11.12372
586.6768, 11.16300
587.1589, 11.10437
587.6410, 10.99314
588.1231, 10.94511
588.6052, 11.04166
589.0873, 11.19492
589.5695, 11.18341
590.0516, 10.96619
590.5337, 10.90321
591.0158, 11.24178
591.4979, 11.54038
591.9800, 11.35193
592.4622, 10.79975
592.9443, 10.38929
593.4264, 10.26991
593.9085, 10.35235
594.3906, 10.69502
594.8727, 11.18509
595.3549, 11.50534
595.8370, 11.55139
596.3191, 11.44319
596.8012, 11.30154
597.2833, 11.10135
597.7654, 11.05317
598.2476, 11.33589
598.7297, 11.54057
599.2118, 11.45837
599.6939, 11.26136
600.1760, 11.20861
600.6581, 11.36185
601.1403, 11.51421
601.6224, 11.34710
602.1045, 10.88523
602.5866, 10.76720
603.0687, 11.15887
603.5508, 11.52917
604.0330, 11.52245
604.5151, 11.38480
604.9972, 11.47894
605.4793, 11.92833
605.9614, 12.19111
606.4435, 11.76837
606.9257, 11.10945
607.4078, 10.89313
607.8899, 11.13777
608.3720, 11.40723
608.8541, 11.42878
609.3362, 11.27399
609.8184, 11.16681
610.3005, 11.05732
610.7826, 11.08181
611.2647, 11.38461
611.7468, 11.69015
612.2289, 11.83046
612.7111, 11.82068
613.1932, 11.74019
613.6753, 11.61963
614.1574, 11.49797
614.6395, 11.46916
615.1216, 11.54445
615.6038, 11.54448
616.0859, 11.36215
616.5680, 11.20416
617.0501, 11.31973
617.5322, 11.61513
618.0143, 11.76381
618.4965, 11.53222
618.9786, 11.32480
619.4607, 11.41470
619.9428, 11.69059
620.4249, 11.99291
620.9070, 12.27237
621.3892, 12.43268
621.8713, 12.34900
622.3534, 12.02630
622.8355, 11.86077
623.3176, 12.07182
623.7997, 12.15796
624.2819, 11.91873
624.7640, 11.60896
625.2461, 11.46495
625.7282, 11.50904
626.2103, 11.59608
626.6924, 11.61643
627.1745, 11.60031
627.6566, 11.65698
628.1387, 11.80015
628.6208, 11.80083
629.1030, 11.48734
629.5851, 11.09162
630.0672, 10.99294
630.5493, 11.20307
631.0314, 11.35355
631.5135, 11.32682
631.9957, 11.28584
632.4778, 11.38585
632.9599, 11.54174
633.4420, 11.54658
633.9241, 11.32740
634.4063, 11.03897
634.8884, 10.88840
635.3705, 10.87938
635.8526, 10.98743
636.3347, 11.36607
636.8168, 11.64269
637.2990, 11.69139
637.7811, 11.57832
638.2632, 11.33947
638.7453, 10.97384
639.2274, 10.65467
639.7095, 10.49071
640.1917, 10.45788
640.6738, 10.55604
641.1559, 10.77572
641.6380, 10.95932
642.1201, 11.01565
642.6022, 10.99443
643.0844, 11.00817
643.5665, 11.07920
644.0486, 11.14055
644.5307, 11.18322
645.0128, 11.22483
645.4949, 11.30870
645.9771, 11.39293
646.4592, 11.38522
646.9413, 11.24267
647.4234, 11.05277
647.9055, 10.93749
648.3876, 10.89559
648.8698, 10.86845
649.3519, 10.85794
649.8340, 10.84691
650.3161, 10.80389
650.7982, 10.75930
651.2803, 10.76781
651.7625, 10.81863
652.2446, 10.95988
652.7267, 11.40578
653.2088, 11.82909
653.6909, 11.76925
654.1730, 11.28946
654.6552, 10.84375
655.1373, 10.70718
655.6194, 10.79206
656.1015, 10.89332
656.5836, 11.06565
657.0657, 11.11177
657.5479, 10.88406
658.0300, 10.65729
658.5121, 10.46680
658.9942, 10.37704
659.4763, 10.53980
659.9584, 11.07910
660.4406, 11.63451
660.9227, 11.85482
661.4048, 11.84356
661.8869, 11.86758
662.3690, 11.96603
662.8511, 12.07007
663.3333, 12.13625
663.8154, 12.16724
664.2975, 12.17360
664.7796, 11.98336
665.2617, 12.01609
665.7438, 12.58619
666.2260, 13.11853
666.7081, 13.15185
667.1902, 12.81456
667.6723, 12.52767
668.1544, 12.51726
668.6365, 12.61447
669.1187, 12.52019
669.6008, 12.24774
670.0829, 12.12685
670.5650, 12.25815
671.0471, 12.39847
671.5292, 12.33713
672.0114, 12.14327
672.4935, 12.07029
672.9756, 12.16537
673.4577, 12.30483
673.9398, 12.53385
674.4219, 12.73423
674.9041, 12.79208
675.3862, 12.70729
675.8683, 12.51470
676.3504, 12.21978
676.8325, 11.90962
677.3146, 11.80344
677.7968, 11.94060
678.2789, 12.10091
678.7610, 12.35327
679.2431, 12.50703
679.7252, 12.30848
680.2073, 11.96155
680.6895, 11.91401
681.1716, 12.38210
681.6537, 12.84630
682.1358, 13.01738
682.6179, 12.99846
683.1000, 12.88846
683.5822, 12.72417
684.0643, 12.61172
684.5464, 12.62915
685.0285, 12.71645
685.5106, 12.69583
685.9927, 12.50634
686.4749, 12.35239
686.9570, 12.15870
687.4391, 12.08741
687.9212, 12.36153
688.4033, 12.77524
688.8854, 12.93440
689.3676, 12.67386
689.8497, 12.31865
690.3318, 12.11652
690.8139, 12.02511
691.2960, 11.97166
691.7781, 11.94550
692.2603, 11.90562
692.7424, 11.81447
693.2245, 11.71553
693.7066, 11.73420
694.1887, 12.03197
694.6708, 12.11539
695.1530, 11.71285
695.6351, 11.39118
696.1172, 11.55487
696.5993, 11.95099
697.0814, 12.09977
697.5635, 11.82450
698.0457, 11.45924
698.5278, 11.33973
699.0099, 11.40141
699.4920, 11.42402
699.9741, 11.38702
700.4562, 11.41870
700.9384, 11.62964
701.4205, 11.89456
701.9026, 11.93219
702.3847, 11.61325
702.8668, 11.41273
703.3489, 11.39171
703.8311, 11.43292
704.3132, 11.44641
704.7953, 11.49464
705.2774, 11.77670
705.7595, 12.32611
706.2416, 12.74145
706.7238, 12.44454
707.2059, 11.62625
707.6880, 11.11154
708.1701, 10.92478
708.6522, 10.98163
709.1343, 11.34273
709.6164, 11.81768
710.0985, 12.11506
710.5806, 12.22059
711.0627, 12.27195
711.5449, 12.29750
712.0270, 12.24990
712.5091, 11.98314
712.9912, 11.68374
713.4733, 11.67573
713.9554, 11.99596
714.4376, 12.28735
714.9197, 12.15097
715.4018, 11.72979
715.8839, 11.62371
716.3660, 11.88557
716.8481, 12.07618
717.3303, 12.05432
717.8124, 11.91637
718.2945, 11.69465
718.7766, 11.40576
719.2587, 11.33263
719.7408, 11.75341
720.2230, 12.09462
720.7051, 12.08444
721.1872, 11.89976
721.6693, 11.73055
722.1514, 11.61421
722.6335, 11.50889
723.1157, 11.38449
723.5978, 11.24583
724.0799, 11.08630
724.5620, 10.89342
725.0441, 10.79816
725.5262, 10.83130
726.0084, 10.95999
726.4905, 11.24922
726.9726, 11.62212
727.4547, 11.76547
727.9368, 11.49708
728.4189, 11.26003
728.9011, 11.24522
729.3832, 11.27622
729.8653, 11.12401
730.3474, 10.85368
730.8295, 10.75137
731.3116, 10.98830
731.7938, 11.36103
732.2759, 11.50154
732.7580, 11.40541
733.2401, 11.36160
733.7222, 11.40372
734.2043, 11.47255
734.6865, 11.56212
735.1686, 11.64346
735.6507, 11.67324
736.1328, 11.67986
736.6149, 11.53957
737.0970, 11.05812
737.5792, 10.57814
738.0613, 10.30829
738.5434, 10.22542
739.0255, 10.26077
739.5076, 10.38630
739.9897, 10.58177
740.4719, 10.90404
740.9540, 11.30029
741.4361, 11.31158
741.9182, 10.82885
742.4003, 10.54200
742.8824, 10.84809
743.3646, 11.30392
743.8467, 11.23863
744.3288, 10.64420
744.8109, 10.32155
745.2930, 10.58922
745.7751, 10.84334
746.2573, 10.80911
746.7394, 10.64484
747.2215, 10.52870
747.7036, 10.49538
748.1857, 10.49848
748.6678, 10.50243
749.1500, 10.52213
749.6321, 10.63786
750.1142, 10.84941
750.5963, 10.85371
751.0784, 10.50636
751.5605, 10.19338
752.0427, 10.26106
752.5248, 10.63337
753.0069, 10.87885
753.4890, 10.88767
753.9711, 10.95143
754.4532, 11.28660
754.9354, 11.53046
755.4175, 11.33522
755.8996, 10.84776
756.3817, 10.39633
756.8638, 10.10886
757.3459, 10.02414
757.8281, 10.33451
758.3102, 10.89453
758.7923, 11.09914
759.2744, 10.89626
759.7565, 10.66590
760.2386, 10.57446
760.7208, 10.58715
761.2029, 10.65483
761.6850, 10.80174
762.1671, 10.90472
762.6492, 11.04685
763.1313, 11.04945
763.6135, 10.71097
764.0956, 10.29161
764.5777, 10.06065
765.0598, 10.05832
765.5419, 10.17571
766.0240, 10.43334
766.5062, 10.68967
766.9883, 10.67538
767.4704, 10.46967
767.9525, 10.42292
768.4346, 10.62308
768.9167, 10.87065
769.3989, 10.98213
769.8810, 10.99082
770.3631, 11.10752
770.8452, 11.51248
771.3273, 11.69501
771.8094, 11.44696
772.2916, 11.14699
772.7737, 10.94369
773.2558, 10.84889
773.7379, 10.89587
774.2200, 11.14570
774.7021, 11.31452
775.1843, 11.14049
775.6664, 10.81870
776.1485, 10.58339
776.6306, 10.45190
777.1127, 10.41658
777.5948, 10.47666
778.0770, 10.54203
778.5591, 10.43965
779.0412, 10.14906
779.5233, 10.15973
780.0054, 10.68833
780.4875, 11.05963
780.9697, 10.89770
781.4518, 10.59970
781.9339, 10.58208
782.4160, 10.82127
782.8981, 10.96996
783.3802, 10.83472
783.8624, 10.71600
784.3445, 10.81581
784.8266, 10.99409
785.3087, 11.09331
785.7908, 11.08206
786.2729, 10.96650
786.7551, 10.73814
787.2372, 10.45931
787.7193, 10.21354
788.2014, 10.00364
788.6835, 10.04414
789.1656, 10.43026
789.6478, 10.81200
790.1299, 10.96200
790.6120, 10.97266
791.0941, 11.06564
791.5762, 11.27604
792.0583, 11.45972
792.5404, 11.71292
793.0225, 11.82431
793.5046, 11.57521
793.9868, 11.18373
794.4689, 10.93639
794.9510, 10.89251
795.4331, 10.91911
795.9152, 10.92195
796.3973, 10.92959
796.8795, 10.99983
797.3616, 11.12095
797.8437, 11.25390
798.3258, 11.39320
798.8079, 11.44621
799.2900, 11.30289
799.7722, 11.02071
800.2543, 10.93843
800.7364, 11.21648
801.2185, 11.36533
801.7006, 11.30211
802.1827, 11.14541
802.6649, 10.80057
803.1470, 10.44016
803.6291, 10.43489
804.1112, 10.94362
804.5933, 11.33966
805.0754, 11.13742
805.5576, 10.80895
806.0397, 10.90113
806.5218, 11.25323
807.0039, 11.36022
807.4860, 11.06924
807.9681, 10.76948
808.4503, 10.94168
808.9324, 11.46512
809.4145, 11.65959
809.8966, 11.47082
810.3787, 11.28200
810.8608, 11.15143
811.3430, 11.11844
811.8251, 11.30774
812.3072, 11.65312
812.7893, 11.70562
813.2714, 11.07264
813.7535, 10.73608
814.2357, 11.17099
814.7178, 11.63517
815.1999, 11.50609
815.6820, 11.03128
816.1641, 10.79122
816.6462, 10.98961
817.1284, 11.33696
817.6105, 11.70234
818.0926, 11.97931
818.5747, 11.85608
819.0568, 11.40293
819.5389, 11.09798
820.0211, 11.11145
820.5032, 11.27576
820.9853, 11.41587
821.4674, 11.52966
821.9495, 11.56868
822.4316, 11.44692
822.9138, 11.44342
823.3959, 11.80042
823.8780, 12.09383
824.3601, 11.97931
824.8422, 11.59183
825.3243, 11.28598
825.8065, 11.12852
826.2886, 11.03907
826.7707, 10.97402
827.2528, 10.97406
827.7349, 11.14246
828.2170, 11.39288
828.6992, 11.54756
829.1813, 11.54316
829.6634, 11.42553
830.1455, 11.16158
830.6276, 10.84151
831.1097, 10.82285
831.5919, 11.09949
832.0740, 11.31289
832.5561, 11.35717
833.0382, 11.31841
833.5203, 11.23811
834.0024, 11.14654
834.4846, 11.29007
834.9667, 12.00525
835.4488, 12.39664
835.9309, 12.20818
836.4130, 11.92591
836.8951, 11.71488
837.3773, 11.61123
837.8594, 11.68970
838.3415, 11.99480
838.8236, 12.23781
839.3057, 12.24776
839.7878, 12.14690
840.2700, 11.95261
840.7521, 11.76451
841.2342, 11.86504
841.7163, 12.27906
842.1984, 12.58549
842.6805, 12.34780
843.1627, 11.77989
843.6448, 11.51865
844.1269, 11.57085
844.6090, 11.68371
845.0911, 11.46205
845.5732, 11.85813
846.0554, 12.07773
846.5375, 12.13034
847.0196, 11.51577
847.5017, 11.76272
847.9838, 11.66441
848.4659, 11.55195
848.9481, 11.92015
849.4302, 11.40262
849.9123, 11.76320
850.3944, 11.77326
850.8765, 11.94374
851.3586, 11.76683
851.8408, 11.69722
852.3229, 11.97511
852.8050, 12.06059
853.2871, 11.84369
853.7692, 12.02437
854.2513, 11.49471
854.7335, 11.58838
855.2156, 11.41564
855.6977, 11.22149
856.1798, 11.25630
856.6619, 11.50977
857.1440, 11.64840
857.6262, 11.63887
858.1083, 11.59474
858.5904, 11.52922
859.0725, 11.51227
859.5546, 11.66234
860.0367, 11.99929
860.5189, 12.26722
861.0010, 12.56618
861.4831, 12.66281
861.9652, 12.30568
862.4473, 11.91921
862.9294, 11.81283
863.4116, 11.94835
863.8937, 12.17305
864.3758, 12.49067
864.8579, 12.71935
865.3400, 12.62963
865.8221, 12.47604
866.3043, 12.56059
866.7864, 12.83201
867.2685, 13.13738
867.7506, 13.41115
868.2327, 13.57756
868.7148, 13.52068
869.1970, 13.31688
869.6791, 13.22090
870.1612, 13.23305
870.6433, 13.25230
871.1254, 13.23938
871.6075, 13.01527
872.0897, 13.46337
872.5718, 13.73496
873.0539, 13.83957
873.5360, 13.27701
874.0181, 13.08763
874.5002, 13.43445
874.9823, 13.74394
875.4644, 13.69185
875.9465, 13.50192
876.4286, 13.44128
876.9108, 13.52685
877.3929, 13.58301
877.8750, 13.55033
878.3571, 13.47334
878.8392, 13.40249
879.3214, 13.28410
879.8035, 13.00506
880.2856, 12.61235
880.7677, 12.26839
881.2498, 12.05148
881.7319, 11.94467
882.2141, 11.98198
882.6962, 12.10353
883.1783, 12.12310
883.6604, 12.04056
884.1425, 11.94847
884.6246, 11.88437
885.1068, 11.76409
885.5889, 11.47186
886.0710, 11.04566
886.5531, 10.79736
887.0352, 10.77960
887.5173, 10.79445
887.9995, 10.88376
888.4816, 10.90714
888.9637, 10.77820
889.4458, 10.52080
889.9279, 10.11699
890.4100, 9.439494
890.8922, 9.146501
891.3743, 9.734595
891.8564, 10.25538
892.3385, 10.16229
892.8206, 9.845466
893.3027, 9.822643
893.7849, 10.07300
894.2670, 10.11817
894.7491, 9.556599
895.2312, 9.063972
895.7133, 9.492459
896.1954, 10.28593
896.6776, 10.47299
897.1597, 10.11142
897.6418, 9.843273
898.1239, 9.943480
898.6060, 10.14374
899.0881, 10.08002
899.5703, 9.829030
900.0524, 9.859307
900.5345, 10.19539
901.0166, 10.27926
901.4987, 9.904508
901.9808, 9.569143
902.4630, 9.730728
902.9451, 10.19904
903.4272, 10.27783
903.9093, 9.644651
904.3914, 9.377416
904.8735, 9.893324
905.3557, 10.25393
905.8378, 9.900384
906.3199, 9.381686
906.8020, 9.390717
907.2841, 9.915909
907.7662, 10.18880
908.2484, 9.824844
908.7305, 9.433080
909.2126, 9.184504
909.6947, 9.075617
910.1768, 9.168936
910.6589, 9.386126
911.1411, 9.533019
911.6232, 9.533477
912.1053, 9.582694
912.5874, 10.00731
913.0695, 10.48684
913.5516, 10.43188
914.0338, 10.00423
914.5159, 9.717593
914.9980, 9.694133
915.4801, 9.792531
915.9622, 9.921447
916.4443, 10.03506
916.9265, 10.00973
917.4086, 9.845728
917.8907, 9.660161
918.3728, 9.428144
918.8549, 9.380753
919.3370, 9.671087
919.8192, 10.09269
920.3013, 10.37130
920.7834, 10.50643
921.2655, 10.58782
921.7476, 10.59700
922.2297, 10.58440
922.7119, 10.54896
923.1940, 10.50098
923.6761, 10.41161
924.1582, 10.32277
924.6403, 10.32018
925.1224, 10.41958
925.6046, 10.57142
926.0867, 10.89090
926.5688, 11.11576
927.0509, 10.96796
927.5330, 10.73620
928.0151, 10.80028
928.4973, 11.14242
928.9794, 11.44696
929.4615, 11.55122
929.9436, 11.59389
930.4257, 11.67764
930.9078, 11.78775
931.3900, 11.92415
931.8721, 12.06679
932.3542, 12.16081
932.8363, 12.18815
933.3184, 12.16461
933.8005, 12.06845
934.2827, 11.97425
934.7648, 12.12585
935.2469, 12.49282
935.7290, 12.77667
936.2111, 12.92530
936.6932, 13.08447
937.1754, 13.35466
937.6575, 13.63408
938.1396, 13.73413
938.6217, 13.64547
939.1038, 13.45485
939.5859, 13.01902
940.0681, 12.88448
940.5502, 13.38009
941.0323, 13.95465
941.5144, 14.13593
941.9965, 14.01027
942.4786, 13.94375
942.9608, 13.99024
943.4429, 13.98146
943.9250, 13.71053
944.4071, 13.61839
944.8892, 14.12890
945.3713, 14.75317
945.8535, 14.89192
946.3356, 14.55115
946.8177, 14.22986
947.2998, 14.07285
947.7819, 13.99014
948.2640, 13.98945
948.7462, 14.00275
949.2283, 13.96729
949.7104, 13.89426
950.1925, 13.82162
950.6746, 13.75950
951.1567, 13.68270
951.6389, 13.59794
952.1210, 13.46421
952.6031, 13.18493
953.0852, 12.82792
953.5673, 12.50337
954.0494, 12.24934
954.5316, 12.17474
955.0137, 12.34634
955.4958, 12.53599
955.9779, 12.40644
956.4600, 12.00574
956.9421, 11.48202
957.4242, 10.84806
957.9063, 10.56106
958.3884, 10.76500
958.8705, 11.01314
959.3527, 10.93178
959.8348, 10.65539
960.3169, 10.60882
960.7990, 10.87152
961.2811, 10.91870
961.7632, 10.67207
962.2454, 10.39758
962.7275, 10.14825
963.2096, 9.978911
963.6917, 9.980452
964.1738, 10.13268
964.6559, 10.21005
965.1381, 10.17495
965.6202, 10.12484
966.1023, 10.03965
966.5844, 9.966990
967.0665, 9.969903
967.5486, 9.973842
968.0308, 9.848451
968.5129, 9.588998
968.9950, 9.418380
969.4771, 9.430951
969.9592, 9.475346
970.4413, 9.553480
970.9235, 9.596423
971.4056, 9.532569
971.8877, 9.395356
972.3698, 9.209539
972.8519, 8.980914
973.3340, 8.936242
973.8162, 9.519312
974.2983, 10.01148
974.7804, 9.608624
975.2625, 8.865373
975.7446, 8.588899
976.2267, 8.776424
976.7089, 9.017503
977.1910, 9.130485
977.6731, 9.067560
978.1552, 8.626205
978.6373, 8.065009
979.1194, 7.822855
979.6016, 7.853318
980.0837, 8.041842
980.5658, 8.330896
981.0479, 8.553408
981.5300, 8.599672
982.0121, 8.496226
982.4943, 8.168571
982.9764, 7.708832
983.4585, 7.745521
983.9406, 8.274531
984.4227, 8.574645
984.9048, 8.405236
985.3870, 8.132534
985.8691, 8.088769
986.3512, 8.202842
986.8333, 8.251364
987.3154, 8.232206
987.7975, 8.130405
988.2797, 7.886372
988.7618, 7.827791
989.2439, 8.195693
989.7260, 8.555096
990.2081, 8.318011
990.6902, 7.588755
991.1724, 7.059772
991.6545, 7.449675
992.1366, 7.663096
992.6187, 7.709519
993.1008, 7.088769
993.5829, 7.329537
994.0651, 7.225043
994.5472, 7.106397
995.0293, 7.468417
995.5114, 7.166543
995.9935, 7.487960
996.4756, 7.741284
996.9578, 6.711508
997.4399, 7.117870
997.9220, 7.347753
998.4041, 7.410638
998.8862, 6.806351
999.3683, 7.063579
999.8505, 6.975551
1000.333, 6.873368
1000.815, 7.251849
1001.297, 6.744600
1001.779, 7.115458
1002.261, 7.135793
1002.743, 7.316553
1003.225, 7.149925
1003.707, 7.090595
1004.190, 7.378771
1004.672, 7.474526
1005.154, 7.267909
1005.636, 7.458867
1006.118, 6.939483
1006.600, 7.043434
1007.082, 7.416326
1007.564, 7.227175
1008.046, 7.424485
1008.529, 7.474616
1009.011, 6.855843
1009.493, 7.400349
1009.975, 7.441775
1010.457, 6.966647
1010.939, 7.471295
1011.421, 7.067380
1011.903, 6.987766
1012.385, 7.152210
1012.868, 7.062239
1013.350, 7.373386
1013.832, 7.298101
1014.314, 7.188291
1014.796, 7.229153
1015.278, 6.843054
1015.760, 7.249053
1016.242, 7.113982
1016.725, 7.247872
1017.207, 7.442717
1017.689, 7.170779
1018.171, 7.393014
1018.653, 6.848902
1019.135, 6.550776
1019.617, 6.455786
1020.099, 7.061864
1020.581, 7.574941
1021.064, 7.438262
1021.546, 6.969222
1022.028, 6.743920
1022.510, 6.742776
1022.992, 6.718161
1023.474, 6.667548
1023.956, 6.679413
1024.438, 6.778428
1024.921, 6.931098
1025.403, 7.128654
1025.885, 7.318573
1026.367, 7.353192
1026.849, 7.217058
1027.331, 7.180819
1027.813, 7.260530
1028.295, 7.361520
1028.777, 7.481338
1029.260, 7.519461
1029.742, 7.345159
1030.224, 7.095908
1030.706, 7.216407
1031.188, 7.850104
1031.670, 8.056329
1032.152, 7.693818
1032.634, 7.223791
1033.116, 7.612959
1033.599, 7.825615
1034.081, 7.871302
1034.563, 7.249819
1035.045, 7.489848
1035.527, 7.384624
1036.009, 7.265240
1036.491, 7.890699
1036.973, 8.178402
1037.456, 7.662303
1037.938, 7.060634
1038.420, 7.015576
1038.902, 7.353612
1039.384, 7.478766
1039.866, 7.277041
1040.348, 7.183337
1040.830, 7.350807
1041.313, 7.406310
1041.795, 7.063214
1042.277, 6.745515
1042.759, 6.880495
1043.241, 7.311948
1043.723, 7.546041
1044.205, 7.508803
1044.687, 7.463402
1045.169, 7.437643
1045.651, 7.382226
1046.134, 7.256669
1046.616, 7.119567
1047.098, 6.961660
1047.580, 6.836757
1048.062, 6.912354
1048.544, 7.280197
1049.026, 7.575899
1049.508, 7.860970
1049.991, 7.925691
1050.473, 7.455644
1050.955, 6.953103
1051.437, 6.911834
1051.919, 7.168696
1052.401, 7.206527
1052.883, 6.880136
1053.365, 6.668158
1053.848, 6.721151
1054.330, 6.841416
1054.812, 7.016248
1055.294, 7.171903
1055.776, 7.254295
1056.258, 7.267252
1056.740, 7.198854
1057.222, 7.014495
1057.704, 6.969131
1058.187, 7.305806
1058.669, 7.576973
1059.151, 7.608980
1059.633, 7.479709
1060.115, 7.140023
1060.597, 6.730940
1061.079, 6.543658
1061.561, 6.649333
1062.043, 6.816751
1062.526, 7.059020
1063.008, 7.228659
1063.490, 7.229485
1063.972, 7.156949
1064.454, 7.028998
1064.936, 6.915896
1065.418, 6.961712
1065.900, 7.197909
1066.383, 7.406456
1066.865, 7.625071
1067.347, 7.640076
1067.829, 7.154367
1068.311, 6.602464
1068.793, 6.354162
1069.275, 6.328469
1069.757, 6.304189
1070.240, 6.241713
1070.722, 6.283387
1071.204, 6.585963
1071.686, 6.877725
1072.168, 7.090920
1072.650, 7.186524
1073.132, 7.044351
1073.614, 6.802416
1074.096, 6.708551
1074.578, 6.789087
1075.061, 6.834702
1075.543, 6.762811
1076.025, 6.634492
1076.507, 6.348750
1076.989, 6.146736
1077.471, 6.353941
1077.953, 6.703393
1078.435, 6.716491
1078.918, 6.390898
1079.400, 6.213548
1079.882, 6.484173
1080.364, 6.683199
1080.846, 6.401504
1081.328, 6.126799
1081.810, 6.268205
1082.292, 6.605489
1082.774, 6.876202
1083.257, 7.022274
1083.739, 7.000483
1084.221, 6.709583
1084.703, 6.515755
1085.185, 6.719235
1085.667, 6.928453
1086.149, 6.862366
1086.631, 6.673684
1087.114, 6.516042
1087.596, 6.418706
1088.078, 6.400214
1088.560, 6.489665
1089.042, 6.539270
1089.524, 6.438741
1090.006, 6.339783
1090.488, 6.278602
1090.970, 6.302381
1091.453, 6.570858
1091.935, 6.939693
1092.417, 7.002444
1092.899, 6.627473
1093.381, 6.372649
1093.863, 6.605295
1094.345, 6.796513
1094.827, 6.575460
1095.309, 6.326665
1095.792, 6.439677
1096.274, 6.754555
1096.756, 6.941141
1097.238, 6.940895
1097.720, 6.840164
1098.202, 6.503992
1098.684, 6.296332
1099.166, 6.506980
1099.649, 6.714345
1100.131, 6.525403
1100.613, 6.196455
1101.095, 6.206212
1101.577, 6.554113
1102.059, 6.643694
1102.541, 6.071221
1103.023, 5.657668
1103.505, 5.564334
1103.988, 5.711763
1104.470, 6.334227
1104.952, 6.980855
1105.434, 7.050070
1105.916, 6.640868
1106.398, 6.428994
1106.880, 6.614063
1107.362, 6.761200
1107.844, 6.798069
1108.327, 6.792488
1108.809, 6.797514
1109.291, 6.746981
1109.773, 6.489871
1110.255, 6.138220
1110.737, 6.060261
1111.219, 6.411413
1111.701, 6.525584
1112.184, 6.017478
1112.666, 5.741490
1113.148, 6.169806
1113.630, 6.594806
1114.112, 6.478735
1114.594, 6.073186
1115.076, 5.844145
1115.558, 5.811186
1116.041, 5.763590
1116.523, 5.617823
1117.005, 5.606443
1117.487, 5.888408
1117.969, 6.114908
1118.451, 6.086715
1118.933, 5.944875
1119.415, 5.842160
1119.897, 5.784363
1120.380, 5.846712
1120.862, 6.132536
1121.344, 6.276546
1121.826, 6.211818
1122.308, 6.117690
1122.790, 6.030765
1123.272, 5.980280
1123.754, 5.988204
1124.236, 6.059572
1124.719, 6.240092
1125.201, 6.597567
1125.683, 6.684326
1126.165, 6.421911
1126.647, 6.191902
1127.129, 6.095625
1127.611, 5.997277
1128.093, 5.766153
1128.576, 5.569611
1129.058, 5.770883
1129.540, 6.339576
1130.022, 6.623390
1130.504, 6.606437
1130.986, 6.425683
1131.468, 6.076715
1131.950, 5.824465
1132.432, 5.802543
1132.915, 5.903573
1133.397, 6.027505
1133.879, 6.128176
1134.361, 5.974320
1134.843, 5.601899
1135.325, 5.475723
1135.807, 5.617665
1136.289, 5.807176
1136.771, 5.969892
1137.254, 6.006475
1137.736, 5.809151
1138.218, 5.567421
1138.700, 5.695044
1139.182, 6.051385
1139.664, 6.165789
1140.146, 6.067201
1140.628, 5.902750
1141.111, 5.720593
1141.593, 5.598792
1142.075, 5.578070
1142.557, 5.599524
1143.039, 5.563889
1143.521, 5.552547
1144.003, 5.870435
1144.485, 6.243317
1144.968, 5.908513
1145.450, 5.096068
1145.932, 4.787946
1146.414, 5.252515
1146.896, 5.831848
1147.378, 6.111580
1147.860, 6.219503
1148.342, 6.210528
1148.824, 6.155165
1149.307, 6.105012
1149.789, 6.085771
1150.271, 6.187422
1150.753, 6.364488
1151.235, 6.349823
1151.717, 5.959208
1152.199, 5.734512
1152.681, 6.214230
1153.163, 6.693449
1153.646, 6.691638
1154.128, 6.460864
1154.610, 6.145053
1155.092, 5.873862
1155.574, 5.941711
1156.056, 6.418176
1156.538, 6.629689
1157.020, 6.046786
1157.503, 5.656407
1157.985, 5.932885
1158.467, 6.269940
1158.949, 6.258961
1159.431, 6.124537
1159.913, 6.228586
1160.395, 6.534132
1160.877, 6.610150
1161.359, 6.281122
1161.842, 6.027094
1162.324, 5.892316
1162.806, 5.770350
1163.288, 5.600665
1163.770, 5.476285
1164.252, 5.455136
1164.734, 5.539928
1165.216, 5.781390
1165.698, 6.214679
1166.181, 6.269617
1166.663, 5.752377
1167.145, 5.631879
1167.627, 6.185386
1168.109, 6.584293
1168.591, 6.382323
1169.073, 6.041937
1169.555, 6.101794
1170.037, 6.459139
1170.520, 6.801486
1171.002, 7.120276
1171.484, 7.037982
1171.966, 6.549731
1172.448, 6.043022
1172.930, 5.626186
1173.412, 5.539315
1173.894, 5.976842
1174.377, 6.509872
1174.859, 6.376165
1175.341, 5.891771
1175.823, 6.025126
1176.305, 6.539053
1176.787, 6.722685
1177.269, 6.541755
1177.751, 6.237142
1178.234, 5.924866
1178.716, 5.807763
1179.198, 6.112453
1179.680, 6.526178
1180.162, 6.809299
1180.644, 6.917389
1181.126, 6.660202
1181.608, 6.253873
1182.090, 6.105560
1182.573, 6.205790
1183.055, 6.232295
1183.537, 6.052316
1184.019, 5.891505
1184.501, 5.842821
1184.983, 5.877868
1185.465, 6.042811
1185.947, 6.225946
1186.429, 6.353403
1186.912, 6.420747
1187.394, 6.388513
1187.876, 6.266522
1188.358, 6.296022
1188.840, 6.798329
1189.322, 7.001819
1189.804, 6.606077
1190.286, 6.187829
1190.769, 5.846496
1191.251, 5.676677
1191.733, 5.892735
1192.215, 6.273931
1192.697, 6.178879
1193.179, 5.492080
1193.661, 5.388728
1194.143, 6.106977
1194.625, 6.481245
1195.108, 6.254363
1195.590, 6.049828
1196.072, 6.193049
1196.554, 6.354485
1197.036, 6.117697
1197.518, 5.673962
1198.000, 5.660944
1198.482, 6.023704
1198.964, 6.285739
1199.447, 6.428663
1199.929, 6.498452
1200.411, 6.506029
1200.893, 6.425404
1201.375, 6.238131
1201.857, 6.055549
1202.339, 6.046711
1202.821, 6.086488
1203.304, 5.879235
1203.786, 5.623803
1204.268, 5.740595
1204.750, 6.111203
1205.232, 6.361226
1205.714, 6.406074
1206.196, 6.397169
1206.678, 6.423537
1207.161, 6.372674
1207.643, 5.997698
1208.125, 5.724610
1208.607, 5.976240
1209.089, 6.377361
1209.571, 6.544537
1210.053, 6.520952
1210.535, 6.490255
1211.017, 6.478921
1211.500, 6.447798
1211.982, 6.389909
1212.464, 6.312966
1212.946, 6.167300
1213.428, 6.069132
1213.910, 6.055140
1214.392, 6.123255
1214.874, 6.346105
1215.356, 6.601129
1215.839, 6.446917
1216.321, 5.786034
1216.803, 5.754029
1217.285, 6.504187
1217.767, 6.807536
1218.249, 6.412068
1218.731, 6.003537
1219.213, 5.904340
1219.696, 5.980098
1220.178, 6.113315
1220.660, 6.244582
1221.142, 6.183477
1221.624, 6.015014
1222.106, 6.090360
1222.588, 6.318286
1223.070, 6.275407
1223.552, 5.951093
1224.035, 5.742151
1224.517, 5.834342
1224.999, 5.986190
1225.481, 5.981351
1225.963, 5.959404
1226.445, 6.042115
1226.927, 6.177739
1227.409, 6.357259
1227.891, 6.524172
1228.374, 6.597549
1228.856, 6.575067
1229.338, 6.518709
1229.820, 6.457931
1230.302, 6.317622
1230.784, 5.837430
1231.266, 5.611830
1231.748, 6.111222
1232.231, 6.606181
1232.713, 6.649111
1233.195, 6.416512
1233.677, 6.092195
1234.159, 5.710439
1234.641, 5.582518
1235.123, 5.736321
1235.605, 6.072537
1236.088, 6.664944
1236.570, 6.921857
1237.052, 6.660183
1237.534, 6.346029
1238.016, 6.276294
1238.498, 6.313836
1238.980, 6.254746
1239.462, 6.164085
1239.944, 6.290361
1240.427, 6.513251
1240.909, 6.399072
1241.391, 6.050418
1241.873, 5.930835
1242.355, 6.112551
1242.837, 6.295564
1243.319, 6.328745
1243.801, 6.283779
1244.283, 6.228280
1244.766, 6.100360
1245.248, 5.618769
1245.730, 5.254328
1246.212, 5.673345
1246.694, 6.449064
1247.176, 6.788151
1247.658, 6.642096
1248.140, 6.554168
1248.622, 6.748231
1249.105, 6.688128
1249.587, 6.037520
1250.069, 5.638257
1250.551, 5.773971
1251.033, 6.052180
1251.515, 6.282089
1251.997, 6.431974
1252.479, 6.464585
1252.962, 6.370117
1253.444, 5.995897
1253.926, 5.353888
1254.408, 5.212163
1254.890, 5.576480
1255.372, 5.891711
1255.854, 6.018240
1256.336, 6.075521
1256.818, 6.130439
1257.301, 6.151117
1257.783, 6.073920
1258.265, 5.975525
1258.747, 5.971893
1259.229, 6.004899
1259.711, 5.928667
1260.193, 5.856740
1260.675, 6.076881
1261.157, 6.542670
1261.640, 6.876565
1262.122, 6.968280
1262.604, 6.901187
1263.086, 6.546700
1263.568, 6.256658
1264.050, 6.190768
1264.532, 6.166809
1265.014, 6.045416
1265.497, 5.939654
1265.979, 5.996392
1266.461, 6.175948
1266.943, 6.320009
1267.425, 6.433242
1267.907, 6.465635
1268.389, 6.411806
1268.871, 6.298651
1269.354, 6.127481
1269.836, 6.155658
1270.318, 6.504755
1270.800, 6.824512
1271.282, 6.771346
1271.764, 6.500612
1272.246, 6.124177
1272.728, 5.798295
1273.210, 5.879346
1273.693, 6.178895
1274.175, 6.327659
1274.657, 6.337042
1275.139, 6.433226
1275.621, 6.672859
1276.103, 6.856844
1276.585, 6.851484
1277.067, 6.863376
1277.549, 7.070939
1278.032, 7.172821
1278.514, 6.880027
1278.996, 6.560430
1279.478, 6.570427
1279.960, 6.746603
1280.442, 6.775965
1280.924, 6.662313
1281.406, 6.486690
1281.889, 6.209741
1282.371, 6.241686
1282.853, 6.634043
1283.335, 6.856682
1283.817, 6.762093
1284.299, 6.582036
1284.781, 6.459173
1285.263, 6.411874
1285.745, 6.458766
1286.228, 6.600168
##END=



