##NAMES=Langite
##RRUFFID=R060090
##IDEAL CHEMISTRY=Cu^2+^_4_S^6+^O_4_(OH)_6_&#183;2H_2_O
##LOCALITY=Allihies mine, County Cork, Ireland
##OWNER=RRUFF
##SOURCE=University of Arizona Mineral Museum
##DESCRIPTION=Blue skeletal prismatic crystals in snowflake-like groupings, associated with brochantite
##STATUS=The identification of this mineral has been confirmed by X-ray diffraction and chemical analysis
##URL=rruff.info/R060090
##MEASURED CHEMISTRY=Cu_4.00_(S_1.00_O_4_)(OH)_6_Â·2H_2_O ; darker phase: Cu_4_SO_4_(OH)_6_ ; lighter phase
171.8392, 3550.916
172.3213, 3548.341
172.8034, 3538.720
173.2856, 3535.612
173.7677, 3557.089
174.2498, 3597.523
174.7319, 3637.122
175.2140, 3663.042
175.6961, 3680.833
176.1783, 3700.028
176.6604, 3725.264
177.1425, 3746.740
177.6246, 3751.282
178.1067, 3740.191
178.5888, 3722.086
179.0710, 3694.111
179.5531, 3663.878
180.0352, 3650.815
180.5173, 3667.354
180.9994, 3695.347
181.4815, 3704.128
181.9637, 3694.231
182.4458, 3680.080
182.9279, 3670.168
183.4100, 3665.229
183.8921, 3668.776
184.3742, 3688.881
184.8564, 3715.023
185.3385, 3718.622
185.8206, 3698.201
186.3027, 3673.552
186.7848, 3664.444
187.2669, 3669.403
187.7491, 3676.773
188.2312, 3683.557
188.7133, 3689.616
189.1954, 3695.607
189.6775, 3702.190
190.1596, 3705.509
190.6418, 3696.067
191.1239, 3674.416
191.6060, 3660.724
192.0881, 3673.228
192.5702, 3706.566
193.0524, 3709.628
193.5345, 3676.508
194.0166, 3628.582
194.4987, 3602.166
194.9808, 3599.149
195.4629, 3589.032
195.9451, 3556.339
196.4272, 3501.056
196.9093, 3442.189
197.3914, 3379.866
197.8735, 3314.685
198.3556, 3244.919
198.8378, 3169.098
199.3199, 3099.440
199.8020, 3043.165
200.2841, 3001.175
200.7662, 2966.906
201.2483, 2941.346
201.7305, 2922.086
202.2126, 2902.367
202.6947, 2880.799
203.1768, 2863.969
203.6589, 2857.444
204.1410, 2862.896
204.6232, 2867.227
205.1053, 2869.182
205.5874, 2869.330
206.0695, 2869.254
206.5516, 2868.579
207.0337, 2868.658
207.5159, 2866.986
207.9980, 2859.450
208.4801, 2872.195
208.9622, 2918.354
209.4443, 2987.058
209.9264, 3020.760
210.4086, 3006.267
210.8907, 2983.235
211.3728, 2982.515
211.8549, 3009.563
212.3370, 3041.058
212.8191, 3077.265
213.3013, 3116.221
213.7834, 3143.806
214.2655, 3158.536
214.7476, 3164.284
215.2297, 3162.966
215.7118, 3151.776
216.1940, 3141.278
216.6761, 3133.682
217.1582, 3128.780
217.6403, 3123.130
218.1224, 3118.345
218.6045, 3110.771
219.0867, 3094.646
219.5688, 3062.700
220.0509, 3039.883
220.5330, 3033.264
221.0151, 3043.074
221.4972, 3053.468
221.9794, 3064.931
222.4615, 3076.534
222.9436, 3086.727
223.4257, 3092.702
223.9078, 3103.549
224.3899, 3123.446
224.8721, 3153.976
225.3542, 3174.761
225.8363, 3177.945
226.3184, 3178.989
226.8005, 3198.644
227.2827, 3249.876
227.7648, 3294.415
228.2469, 3319.131
228.7290, 3319.542
229.2111, 3334.572
229.6932, 3368.757
230.1754, 3413.680
230.6575, 3459.722
231.1396, 3508.222
231.6217, 3554.740
232.1038, 3596.132
232.5859, 3629.594
233.0681, 3673.983
233.5502, 3735.626
234.0323, 3803.417
234.5144, 3861.895
234.9965, 3906.489
235.4786, 3948.668
235.9608, 3991.072
236.4429, 4032.263
236.9250, 4079.913
237.4071, 4146.728
237.8892, 4211.691
238.3713, 4240.149
238.8535, 4218.695
239.3356, 4183.133
239.8177, 4145.144
240.2998, 4107.782
240.7819, 4055.420
241.2640, 3984.339
241.7462, 3899.599
242.2283, 3809.242
242.7104, 3713.595
243.1925, 3611.709
243.6746, 3501.966
244.1567, 3380.618
244.6389, 3261.335
245.1210, 3138.738
245.6031, 3021.585
246.0852, 2927.248
246.5673, 2862.752
247.0494, 2809.171
247.5316, 2760.565
248.0137, 2717.021
248.4958, 2678.568
248.9779, 2648.419
249.4600, 2621.747
249.9421, 2589.412
250.4243, 2546.025
250.9064, 2506.278
251.3885, 2477.013
251.8706, 2463.119
252.3527, 2441.538
252.8348, 2404.567
253.3170, 2364.706
253.7991, 2347.200
254.2812, 2360.199
254.7633, 2380.415
255.2454, 2403.285
255.7275, 2435.247
256.2097, 2442.687
256.6918, 2413.294
257.1739, 2367.766
257.6560, 2345.369
258.1381, 2355.272
258.6202, 2369.469
259.1024, 2378.293
259.5845, 2381.146
260.0666, 2380.218
260.5487, 2373.291
261.0308, 2364.275
261.5129, 2360.392
261.9951, 2363.266
262.4772, 2367.506
262.9593, 2371.833
263.4414, 2377.191
263.9235, 2377.677
264.4056, 2371.042
264.8878, 2361.628
265.3699, 2356.871
265.8520, 2357.502
266.3341, 2360.617
266.8162, 2366.007
267.2983, 2374.375
267.7805, 2380.290
268.2626, 2383.728
268.7447, 2384.654
269.2268, 2381.901
269.7089, 2373.895
270.1910, 2367.877
270.6732, 2367.239
271.1553, 2372.629
271.6374, 2377.450
272.1195, 2382.055
272.6016, 2385.580
273.0837, 2387.656
273.5659, 2389.246
274.0480, 2384.601
274.5301, 2368.537
275.0122, 2340.493
275.4943, 2319.406
275.9764, 2306.066
276.4586, 2298.198
276.9407, 2293.323
277.4228, 2291.781
277.9049, 2290.744
278.3870, 2288.960
278.8691, 2286.511
279.3513, 2285.063
279.8334, 2284.342
280.3155, 2285.323
280.7976, 2292.156
281.2798, 2305.316
281.7619, 2311.889
282.2440, 2304.496
282.7261, 2285.157
283.2082, 2268.250
283.6903, 2253.348
284.1725, 2242.454
284.6546, 2241.080
285.1367, 2248.753
285.6188, 2252.574
286.1009, 2246.376
286.5830, 2232.477
287.0652, 2220.599
287.5473, 2211.010
288.0294, 2202.484
288.5115, 2192.270
288.9936, 2181.023
289.4757, 2174.843
289.9579, 2180.643
290.4400, 2191.746
290.9221, 2186.649
291.4042, 2164.156
291.8863, 2140.406
292.3684, 2135.144
292.8506, 2143.804
293.3327, 2146.258
293.8148, 2133.041
294.2969, 2111.541
294.7790, 2095.242
295.2611, 2084.101
295.7433, 2075.829
296.2254, 2066.663
296.7075, 2058.445
297.1896, 2056.889
297.6717, 2066.354
298.1538, 2080.859
298.6360, 2092.688
299.1181, 2101.893
299.6002, 2107.833
300.0823, 2105.072
300.5644, 2099.315
301.0465, 2102.341
301.5287, 2122.622
302.0108, 2146.137
302.4929, 2158.238
302.9750, 2159.723
303.4571, 2154.509
303.9392, 2132.872
304.4214, 2109.833
304.9035, 2107.730
305.3856, 2142.190
305.8677, 2182.384
306.3498, 2195.868
306.8319, 2190.399
307.3141, 2193.746
307.7962, 2233.740
308.2783, 2285.022
308.7604, 2322.361
309.2425, 2335.532
309.7246, 2343.774
310.2068, 2356.130
310.6889, 2372.795
311.1710, 2394.323
311.6531, 2426.973
312.1352, 2460.966
312.6173, 2487.621
313.0995, 2502.095
313.5816, 2518.511
314.0637, 2544.011
314.5458, 2576.124
315.0279, 2610.342
315.5100, 2657.717
315.9922, 2697.118
316.4743, 2712.789
316.9564, 2695.781
317.4385, 2684.741
317.9206, 2697.365
318.4027, 2722.459
318.8849, 2744.383
319.3670, 2762.251
319.8491, 2773.331
320.3312, 2774.252
320.8133, 2762.703
321.2954, 2753.839
321.7776, 2748.707
322.2597, 2748.336
322.7418, 2753.823
323.2239, 2775.872
323.7060, 2793.268
324.1881, 2800.088
324.6703, 2795.438
325.1524, 2789.398
325.6345, 2781.677
326.1166, 2773.393
326.5987, 2765.270
327.0808, 2749.282
327.5630, 2743.155
328.0451, 2758.394
328.5272, 2792.984
329.0093, 2801.467
329.4914, 2759.746
329.9735, 2713.666
330.4557, 2694.992
330.9378, 2729.959
331.4199, 2746.065
331.9020, 2731.163
332.3841, 2692.049
332.8662, 2660.719
333.3484, 2635.757
333.8305, 2621.196
334.3126, 2624.632
334.7947, 2660.666
335.2768, 2666.963
335.7589, 2628.504
336.2411, 2565.208
336.7232, 2527.406
337.2053, 2521.782
337.6874, 2522.979
338.1695, 2520.194
338.6516, 2513.215
339.1338, 2504.048
339.6159, 2492.322
340.0980, 2479.168
340.5801, 2465.410
341.0622, 2450.360
341.5443, 2439.786
342.0265, 2437.539
342.5086, 2442.642
342.9907, 2445.917
343.4728, 2447.250
343.9549, 2447.092
344.4370, 2443.699
344.9192, 2437.850
345.4013, 2437.202
345.8834, 2446.323
346.3655, 2462.072
346.8476, 2476.550
347.3297, 2489.701
347.8119, 2501.688
348.2940, 2508.989
348.7761, 2514.683
349.2582, 2528.671
349.7403, 2559.845
350.2225, 2594.692
350.7046, 2611.038
351.1867, 2611.243
351.6688, 2612.396
352.1509, 2627.362
352.6331, 2651.017
353.1152, 2677.253
353.5973, 2708.945
354.0794, 2734.907
354.5615, 2738.061
355.0436, 2725.744
355.5258, 2720.291
356.0079, 2737.972
356.4900, 2765.670
356.9721, 2794.075
357.4542, 2824.072
357.9363, 2846.937
358.4185, 2851.657
358.9006, 2846.574
359.3827, 2846.123
359.8648, 2861.932
360.3469, 2879.064
360.8290, 2891.286
361.3112, 2898.441
361.7933, 2897.631
362.2754, 2878.374
362.7575, 2854.299
363.2396, 2840.160
363.7217, 2845.901
364.2039, 2855.476
364.6860, 2867.993
365.1681, 2883.401
365.6502, 2891.122
366.1323, 2881.496
366.6144, 2869.015
367.0966, 2863.617
367.5787, 2866.461
368.0608, 2875.600
368.5429, 2895.653
369.0250, 2923.499
369.5071, 2942.381
369.9893, 2946.362
370.4714, 2948.251
370.9535, 2953.217
371.4356, 2958.169
371.9177, 2974.021
372.3998, 3006.264
372.8820, 3046.881
373.3641, 3077.011
373.8462, 3092.952
374.3283, 3107.759
374.8104, 3124.804
375.2925, 3143.773
375.7747, 3172.451
376.2568, 3214.558
376.7389, 3259.485
377.2210, 3291.442
377.7031, 3309.567
378.1852, 3326.735
378.6674, 3344.747
379.1495, 3365.079
379.6316, 3397.725
380.1137, 3443.634
380.5958, 3490.785
381.0779, 3527.055
381.5601, 3554.528
382.0422, 3580.686
382.5243, 3607.520
383.0064, 3634.339
383.4885, 3660.577
383.9706, 3686.309
384.4528, 3710.255
384.9349, 3732.731
385.4170, 3752.756
385.8991, 3769.580
386.3812, 3783.647
386.8633, 3793.198
387.3455, 3792.641
387.8276, 3786.154
388.3097, 3783.318
388.7918, 3790.342
389.2739, 3802.122
389.7560, 3815.188
390.2382, 3829.352
390.7203, 3843.851
391.2024, 3864.379
391.6845, 3882.918
392.1666, 3890.412
392.6487, 3869.888
393.1309, 3850.670
393.6130, 3844.790
394.0951, 3851.537
394.5772, 3860.838
395.0593, 3868.245
395.5414, 3878.593
396.0236, 3894.875
396.5057, 3927.850
396.9878, 3954.580
397.4699, 3961.030
397.9520, 3958.048
398.4341, 3980.011
398.9163, 4055.143
399.3984, 4125.854
399.8805, 4168.046
400.3626, 4165.080
400.8447, 4183.136
401.3268, 4226.842
401.8090, 4288.164
402.2911, 4357.686
402.7732, 4435.646
403.2553, 4519.884
403.7374, 4613.312
404.2195, 4714.804
404.7017, 4797.922
405.1838, 4853.146
405.6659, 4916.849
406.1480, 5030.731
406.6301, 5196.143
407.1122, 5346.435
407.5944, 5460.601
408.0765, 5562.750
408.5586, 5712.086
409.0407, 5908.429
409.5228, 6115.567
410.0049, 6301.938
410.4871, 6478.375
410.9692, 6675.812
411.4513, 6896.658
411.9334, 7144.271
412.4155, 7431.072
412.8976, 7753.929
413.3798, 8091.012
413.8619, 8431.180
414.3440, 8787.253
414.8261, 9176.688
415.3082, 9601.661
415.7903, 10052.43
416.2725, 10521.68
416.7546, 11016.82
417.2367, 11557.80
417.7188, 12161.94
418.2009, 12786.51
418.6830, 13400.31
419.1652, 14014.95
419.6473, 14649.12
420.1294, 15324.24
420.6115, 16014.86
421.0937, 16719.29
421.5758, 17427.22
422.0579, 18140.82
422.5400, 18871.05
423.0221, 19606.09
423.5042, 20342.50
423.9864, 21085.80
424.4685, 21816.26
424.9506, 22552.74
425.4327, 23291.86
425.9148, 23956.49
426.3969, 24544.89
426.8791, 25060.76
427.3612, 25500.21
427.8433, 25860.52
428.3254, 26156.41
428.8075, 26410.14
429.2896, 26590.39
429.7718, 26586.60
430.2539, 26392.69
430.7360, 26056.63
431.2181, 25588.07
431.7002, 24991.53
432.1823, 24329.43
432.6645, 23602.11
433.1466, 22815.02
433.6287, 21973.17
434.1108, 21083.75
434.5929, 20172.48
435.0750, 19225.19
435.5572, 18282.01
436.0393, 17404.83
436.5214, 16593.81
437.0035, 15848.83
437.4856, 15188.77
437.9677, 14596.10
438.4499, 14051.42
438.9320, 13550.82
439.4141, 13095.34
439.8962, 12691.52
440.3783, 12335.93
440.8604, 12007.80
441.3426, 11702.02
441.8247, 11422.91
442.3068, 11176.28
442.7889, 10965.97
443.2710, 10772.48
443.7531, 10588.39
444.2353, 10419.84
444.7174, 10270.43
445.1995, 10168.55
445.6816, 10057.75
446.1637, 9928.394
446.6458, 9782.436
447.1280, 9626.225
447.6101, 9455.705
448.0922, 9278.667
448.5743, 9098.884
449.0564, 8907.318
449.5385, 8733.321
450.0207, 8582.264
450.5028, 8445.373
450.9849, 8312.524
451.4670, 8189.401
451.9491, 8046.951
452.4312, 7863.442
452.9134, 7647.165
453.3955, 7455.713
453.8776, 7290.357
454.3597, 7144.743
454.8418, 7023.744
455.3239, 6920.825
455.8061, 6813.493
456.2882, 6693.271
456.7703, 6569.412
457.2524, 6449.570
457.7345, 6335.864
458.2166, 6234.269
458.6988, 6150.359
459.1809, 6080.502
459.6630, 6023.911
460.1451, 5980.838
460.6272, 5943.950
461.1093, 5907.478
461.5915, 5874.933
462.0736, 5851.493
462.5557, 5836.054
463.0378, 5832.667
463.5199, 5842.494
464.0020, 5865.528
464.4842, 5902.382
464.9663, 5965.790
465.4484, 6033.550
465.9305, 6092.690
466.4126, 6123.477
466.8947, 6181.107
467.3769, 6275.530
467.8590, 6391.996
468.3411, 6508.119
468.8232, 6620.161
469.3053, 6738.400
469.7874, 6866.140
470.2696, 7003.262
470.7517, 7147.634
471.2338, 7298.639
471.7159, 7457.416
472.1980, 7622.578
472.6801, 7794.938
473.1623, 7976.614
473.6444, 8169.738
474.1265, 8371.291
474.6086, 8579.893
475.0907, 8794.130
475.5728, 9004.856
476.0550, 9201.915
476.5371, 9395.066
477.0192, 9601.592
477.5013, 9823.262
477.9834, 10037.86
478.4655, 10227.00
478.9477, 10399.90
479.4298, 10566.93
479.9119, 10743.74
480.3940, 10902.52
480.8761, 11018.27
481.3582, 11102.43
481.8404, 11186.30
482.3225, 11305.90
482.8046, 11406.09
483.2867, 11458.52
483.7688, 11448.14
484.2509, 11433.88
484.7331, 11425.48
485.2152, 11412.80
485.6973, 11387.19
486.1794, 11357.02
486.6615, 11299.65
487.1436, 11213.07
487.6258, 11096.78
488.1079, 10940.93
488.5900, 10732.64
489.0721, 10522.69
489.5542, 10342.06
490.0363, 10190.23
490.5185, 10032.89
491.0006, 9870.807
491.4827, 9702.237
491.9648, 9520.205
492.4470, 9328.559
492.9291, 9151.451
493.4112, 9002.076
493.8933, 8871.323
494.3754, 8748.409
494.8575, 8633.514
495.3397, 8535.149
495.8218, 8462.084
496.3039, 8405.305
496.7860, 8356.431
497.2681, 8313.870
497.7502, 8277.000
498.2324, 8239.710
498.7145, 8209.203
499.1966, 8194.575
499.6787, 8211.463
500.1608, 8231.921
500.6429, 8251.248
501.1251, 8268.696
501.6072, 8276.439
502.0893, 8262.546
502.5714, 8249.061
503.0535, 8247.089
503.5356, 8264.054
504.0178, 8274.991
504.4999, 8279.637
504.9820, 8278.339
505.4641, 8273.716
505.9462, 8268.077
506.4283, 8246.660
506.9105, 8200.762
507.3926, 8136.948
507.8747, 8083.056
508.3568, 8039.574
508.8389, 7993.040
509.3210, 7924.714
509.8032, 7844.837
510.2853, 7784.162
510.7674, 7750.363
511.2495, 7719.313
511.7316, 7664.313
512.2137, 7593.626
512.6959, 7525.061
513.1780, 7467.047
513.6601, 7412.074
514.1422, 7353.148
514.6243, 7291.666
515.1064, 7237.382
515.5886, 7198.453
516.0707, 7164.698
516.5528, 7130.787
517.0349, 7096.772
517.5170, 7060.431
517.9991, 7025.690
518.4813, 6987.130
518.9634, 6937.329
519.4455, 6870.683
519.9276, 6802.741
520.4097, 6738.481
520.8918, 6676.650
521.3740, 6602.286
521.8561, 6516.179
522.3382, 6414.913
522.8203, 6296.971
523.3024, 6163.117
523.7845, 6003.384
524.2667, 5810.413
524.7488, 5613.692
525.2309, 5445.210
525.7130, 5298.431
526.1951, 5154.616
526.6772, 5008.699
527.1594, 4858.721
527.6415, 4699.085
528.1236, 4533.548
528.6057, 4374.531
529.0878, 4232.045
529.5699, 4098.560
530.0521, 3970.346
530.5342, 3845.110
531.0163, 3727.792
531.4984, 3620.740
531.9805, 3520.868
532.4626, 3424.385
532.9448, 3328.188
533.4269, 3238.752
533.9090, 3158.239
534.3911, 3085.177
534.8732, 3017.928
535.3553, 2959.679
535.8375, 2899.487
536.3196, 2829.557
536.8017, 2747.644
537.2838, 2686.393
537.7659, 2648.291
538.2480, 2620.814
538.7302, 2592.547
539.2123, 2563.291
539.6944, 2533.726
540.1765, 2504.611
540.6586, 2474.094
541.1407, 2435.889
541.6229, 2392.615
542.1050, 2353.103
542.5871, 2319.021
543.0692, 2292.766
543.5513, 2283.333
544.0334, 2290.914
544.5156, 2287.776
544.9977, 2247.807
545.4798, 2199.318
545.9619, 2165.392
546.4440, 2162.059
546.9261, 2155.970
547.4083, 2141.440
547.8904, 2121.487
548.3725, 2101.509
548.8546, 2079.295
549.3367, 2060.414
549.8188, 2046.079
550.3010, 2036.239
550.7831, 2031.000
551.2652, 2031.372
551.7473, 2032.974
552.2294, 2033.587
552.7115, 2033.059
553.1937, 2029.604
553.6758, 2022.926
554.1579, 2013.963
554.6400, 2001.933
555.1221, 1988.312
555.6042, 1977.835
556.0864, 1976.224
556.5685, 1974.220
557.0506, 1960.771
557.5327, 1938.762
558.0148, 1919.114
558.4969, 1901.868
558.9791, 1892.586
559.4612, 1897.538
559.9433, 1920.711
560.4254, 1940.183
560.9075, 1953.127
561.3896, 1959.854
561.8718, 1960.639
562.3539, 1949.438
562.8360, 1942.398
563.3181, 1940.338
563.8002, 1943.358
564.2823, 1953.254
564.7645, 1971.709
565.2466, 1989.155
565.7287, 2001.848
566.2108, 2010.363
566.6929, 2017.782
567.1750, 2024.164
567.6572, 2026.777
568.1393, 2016.682
568.6214, 2002.205
569.1035, 2001.841
569.5856, 2020.792
570.0677, 2044.403
570.5499, 2063.589
571.0320, 2078.955
571.5141, 2091.619
571.9962, 2096.508
572.4783, 2104.227
572.9604, 2118.824
573.4426, 2139.765
573.9247, 2164.497
574.4068, 2193.956
574.8889, 2225.870
575.3710, 2260.184
575.8531, 2297.676
576.3353, 2330.787
576.8174, 2356.858
577.2995, 2382.019
577.7816, 2412.917
578.2637, 2449.986
578.7458, 2486.594
579.2280, 2521.409
579.7101, 2556.037
580.1922, 2588.177
580.6743, 2620.419
581.1564, 2667.372
581.6385, 2743.210
582.1207, 2833.713
582.6028, 2919.296
583.0849, 3000.446
583.5670, 3086.792
584.0491, 3175.305
584.5313, 3276.652
585.0134, 3405.270
585.4955, 3576.433
585.9776, 3730.293
586.4597, 3831.363
586.9418, 3915.162
587.4240, 4021.163
587.9061, 4167.765
588.3882, 4309.855
588.8703, 4436.506
589.3524, 4557.230
589.8345, 4701.692
590.3167, 4874.263
590.7988, 5055.337
591.2809, 5233.945
591.7630, 5412.187
592.2451, 5595.548
592.7272, 5784.387
593.2094, 5969.553
593.6915, 6149.530
594.1736, 6319.185
594.6557, 6470.476
595.1378, 6599.733
595.6199, 6708.076
596.1021, 6791.960
596.5842, 6855.717
597.0663, 6905.716
597.5485, 6934.212
598.0306, 6958.979
598.5127, 6984.897
598.9948, 7011.465
599.4769, 7036.843
599.9590, 7069.339
600.4412, 7091.379
600.9233, 7099.482
601.4054, 7094.422
601.8875, 7064.106
602.3696, 7006.618
602.8517, 6928.778
603.3339, 6827.095
603.8160, 6704.098
604.2981, 6610.558
604.7802, 6559.952
605.2623, 6514.814
605.7444, 6427.994
606.2266, 6307.852
606.7087, 6180.605
607.1908, 6040.614
607.6729, 5910.323
608.1550, 5818.216
608.6371, 5752.067
609.1193, 5668.938
609.6014, 5529.141
610.0835, 5388.141
610.5656, 5277.396
611.0477, 5203.386
611.5298, 5122.578
612.0120, 5030.517
612.4941, 4934.994
612.9762, 4840.250
613.4583, 4743.535
613.9404, 4660.036
614.4225, 4594.419
614.9047, 4535.821
615.3868, 4468.215
615.8689, 4391.575
616.3510, 4313.801
616.8331, 4239.473
617.3152, 4162.416
617.7974, 4065.502
618.2795, 3955.381
618.7616, 3852.858
619.2437, 3776.203
619.7258, 3707.032
620.2079, 3630.510
620.6901, 3546.221
621.1722, 3463.513
621.6543, 3388.752
622.1364, 3314.116
622.6185, 3233.476
623.1006, 3133.283
623.5828, 3056.323
624.0649, 3014.360
624.5470, 2984.840
625.0291, 2941.052
625.5112, 2880.878
625.9933, 2816.519
626.4755, 2748.395
626.9576, 2680.692
627.4397, 2623.703
627.9218, 2576.447
628.4039, 2531.424
628.8860, 2484.771
629.3682, 2438.137
629.8503, 2394.208
630.3324, 2352.734
630.8145, 2313.023
631.2966, 2277.274
631.7787, 2241.820
632.2609, 2202.512
632.7430, 2155.833
633.2251, 2117.122
633.7072, 2094.741
634.1893, 2078.741
634.6714, 2060.908
635.1536, 2040.314
635.6357, 2019.788
636.1178, 1999.554
636.5999, 1979.716
637.0820, 1960.918
637.5641, 1943.312
638.0463, 1924.830
638.5284, 1903.779
639.0105, 1882.165
639.4926, 1863.891
639.9747, 1848.463
640.4568, 1833.541
640.9390, 1820.455
641.4211, 1805.188
641.9032, 1779.740
642.3853, 1743.715
642.8674, 1717.544
643.3495, 1721.693
643.8317, 1730.391
644.3138, 1724.791
644.7959, 1689.441
645.2780, 1666.165
645.7601, 1662.049
646.2422, 1663.841
646.7244, 1653.251
647.2065, 1625.675
647.6886, 1611.641
648.1707, 1621.007
648.6528, 1640.331
649.1349, 1644.192
649.6171, 1633.567
650.0992, 1615.772
650.5813, 1584.330
651.0634, 1553.718
651.5455, 1547.909
652.0276, 1561.817
652.5098, 1568.398
652.9919, 1541.168
653.4740, 1511.463
653.9561, 1501.019
654.4382, 1515.960
654.9203, 1525.502
655.4025, 1524.676
655.8846, 1518.302
656.3667, 1508.439
656.8488, 1492.248
657.3309, 1481.487
657.8130, 1477.763
658.2952, 1477.214
658.7773, 1474.940
659.2594, 1470.995
659.7415, 1466.808
660.2236, 1464.398
660.7057, 1459.116
661.1879, 1436.462
661.6700, 1404.630
662.1521, 1386.852
662.6342, 1407.798
663.1163, 1434.809
663.5984, 1450.347
664.0806, 1454.321
664.5627, 1451.083
665.0448, 1435.533
665.5269, 1418.479
666.0090, 1403.401
666.4911, 1389.841
666.9733, 1383.273
667.4554, 1386.030
667.9375, 1391.155
668.4196, 1393.827
668.9017, 1394.021
669.3839, 1389.413
669.8660, 1378.339
670.3481, 1369.412
670.8302, 1377.164
671.3123, 1394.295
671.7944, 1405.262
672.2766, 1405.332
672.7587, 1397.682
673.2408, 1379.089
673.7229, 1354.895
674.2050, 1335.191
674.6871, 1321.085
675.1693, 1313.751
675.6514, 1315.489
676.1335, 1324.693
676.6156, 1335.343
677.0977, 1352.984
677.5798, 1358.934
678.0620, 1337.733
678.5441, 1294.012
679.0262, 1277.945
679.5083, 1290.764
679.9904, 1308.961
680.4725, 1316.259
680.9547, 1315.350
681.4368, 1309.917
681.9189, 1300.027
682.4010, 1289.379
682.8831, 1272.392
683.3652, 1259.937
683.8474, 1264.534
684.3295, 1309.256
684.8116, 1338.850
685.2937, 1335.044
685.7758, 1316.449
686.2579, 1306.820
686.7401, 1310.042
687.2222, 1311.501
687.7043, 1308.094
688.1864, 1301.932
688.6685, 1298.619
689.1506, 1297.901
689.6328, 1295.527
690.1149, 1285.514
690.5970, 1275.365
691.0791, 1279.167
691.5612, 1294.251
692.0433, 1306.847
692.5255, 1308.896
693.0076, 1306.868
693.4897, 1304.224
693.9718, 1301.209
694.4539, 1298.306
694.9360, 1294.853
695.4182, 1292.201
695.9003, 1290.768
696.3824, 1290.114
696.8645, 1293.885
697.3466, 1304.205
697.8287, 1313.379
698.3109, 1309.802
698.7930, 1296.614
699.2751, 1292.008
699.7572, 1301.358
700.2393, 1311.782
700.7214, 1305.804
701.2036, 1292.517
701.6857, 1287.183
702.1678, 1302.196
702.6499, 1317.949
703.1320, 1328.490
703.6141, 1334.377
704.0963, 1336.508
704.5784, 1326.970
705.0605, 1326.854
705.5426, 1346.673
706.0247, 1378.954
706.5068, 1386.975
706.9890, 1367.978
707.4711, 1348.322
707.9532, 1340.093
708.4353, 1341.579
708.9174, 1353.162
709.3995, 1373.447
709.8817, 1388.181
710.3638, 1383.823
710.8459, 1371.881
711.3280, 1359.927
711.8101, 1347.807
712.2922, 1344.449
712.7744, 1360.317
713.2565, 1379.969
713.7386, 1392.353
714.2207, 1391.579
714.7028, 1400.181
715.1849, 1422.954
715.6671, 1446.914
716.1492, 1456.459
716.6313, 1452.751
717.1134, 1450.216
717.5955, 1450.882
718.0776, 1454.756
718.5598, 1463.716
719.0419, 1475.640
719.5240, 1486.292
720.0061, 1491.710
720.4882, 1498.635
720.9703, 1513.449
721.4525, 1531.876
721.9346, 1544.215
722.4167, 1543.673
722.8988, 1544.388
723.3809, 1549.805
723.8630, 1558.345
724.3452, 1561.480
724.8273, 1557.404
725.3094, 1561.124
725.7915, 1588.254
726.2736, 1625.136
726.7557, 1630.852
727.2379, 1609.317
727.7200, 1591.376
728.2021, 1602.194
728.6842, 1621.367
729.1663, 1632.381
729.6484, 1633.568
730.1306, 1634.534
730.6127, 1637.774
731.0948, 1641.756
731.5769, 1646.322
732.0590, 1652.889
732.5411, 1653.824
733.0233, 1647.953
733.5054, 1639.082
733.9875, 1628.261
734.4696, 1616.523
734.9517, 1613.084
735.4338, 1619.937
735.9160, 1628.988
736.3981, 1633.027
736.8802, 1633.639
737.3623, 1632.729
737.8444, 1628.776
738.3266, 1627.343
738.8087, 1635.557
739.2908, 1645.868
739.7729, 1646.290
740.2551, 1624.556
740.7372, 1615.971
741.2193, 1631.859
741.7014, 1656.889
742.1835, 1653.393
742.6656, 1620.979
743.1478, 1599.722
743.6299, 1606.322
744.1120, 1626.004
744.5941, 1638.197
745.0762, 1644.125
745.5583, 1647.977
746.0405, 1650.109
746.5226, 1652.240
747.0047, 1653.225
747.4868, 1654.215
747.9689, 1662.231
748.4510, 1692.718
748.9332, 1710.796
749.4153, 1699.011
749.8974, 1661.528
750.3795, 1650.695
750.8616, 1669.870
751.3438, 1689.680
751.8259, 1682.453
752.3080, 1664.103
752.7901, 1679.336
753.2722, 1727.144
753.7543, 1769.820
754.2365, 1780.991
754.7186, 1777.516
755.2007, 1768.173
755.6828, 1750.770
756.1649, 1747.759
756.6470, 1778.687
757.1292, 1811.087
757.6113, 1824.241
758.0934, 1812.301
758.5755, 1808.254
759.0576, 1813.990
759.5397, 1821.225
760.0219, 1820.476
760.5040, 1814.087
760.9861, 1809.955
761.4682, 1809.916
761.9503, 1809.022
762.4324, 1798.423
762.9146, 1786.859
763.3967, 1785.107
763.8788, 1804.460
764.3609, 1819.563
764.8430, 1824.618
765.3251, 1824.234
765.8073, 1823.344
766.2894, 1822.288
766.7715, 1818.763
767.2536, 1811.027
767.7357, 1803.417
768.2178, 1804.569
768.7000, 1812.593
769.1821, 1819.981
769.6642, 1826.349
770.1463, 1827.984
770.6284, 1813.628
771.1105, 1793.287
771.5927, 1786.303
772.0748, 1815.401
772.5569, 1839.122
773.0390, 1846.730
773.5211, 1842.500
774.0032, 1836.679
774.4854, 1830.038
774.9675, 1818.001
775.4496, 1795.528
775.9317, 1769.996
776.4138, 1763.945
776.8959, 1773.675
777.3781, 1778.791
777.8602, 1760.562
778.3423, 1739.687
778.8244, 1736.967
779.3065, 1747.691
779.7886, 1751.201
780.2708, 1736.122
780.7529, 1717.881
781.2350, 1699.992
781.7171, 1682.854
782.1992, 1671.037
782.6813, 1666.017
783.1635, 1660.719
783.6456, 1647.571
784.1277, 1632.008
784.6098, 1638.958
785.0919, 1665.236
785.5740, 1679.822
786.0562, 1646.375
786.5383, 1604.638
787.0204, 1592.082
787.5025, 1610.615
787.9846, 1620.767
788.4667, 1601.189
788.9489, 1582.887
789.4310, 1581.440
789.9131, 1598.506
790.3952, 1598.881
790.8773, 1579.107
791.3594, 1558.758
791.8416, 1556.625
792.3237, 1564.739
792.8058, 1560.208
793.2879, 1542.078
793.7700, 1524.076
794.2521, 1514.079
794.7343, 1509.312
795.2164, 1509.760
795.6985, 1518.184
796.1806, 1517.758
796.6627, 1497.250
797.1448, 1478.155
797.6270, 1476.053
798.1091, 1493.774
798.5912, 1507.665
799.0733, 1518.807
799.5554, 1519.877
800.0375, 1494.452
800.5197, 1456.483
801.0018, 1432.849
801.4839, 1428.164
801.9660, 1430.867
802.4481, 1440.341
802.9302, 1450.180
803.4124, 1454.385
803.8945, 1447.206
804.3766, 1445.419
804.8587, 1449.675
805.3408, 1458.477
805.8229, 1474.199
806.3051, 1496.717
806.7872, 1504.243
807.2693, 1493.114
807.7514, 1478.070
808.2335, 1470.880
808.7156, 1470.845
809.1978, 1479.771
809.6799, 1503.653
810.1620, 1517.397
810.6441, 1496.688
811.1262, 1468.744
811.6083, 1460.938
812.0905, 1483.560
812.5726, 1503.353
813.0547, 1518.188
813.5368, 1532.637
814.0189, 1558.854
814.5010, 1591.906
814.9832, 1597.346
815.4653, 1563.868
815.9474, 1530.509
816.4295, 1533.338
816.9116, 1557.341
817.3937, 1585.275
817.8759, 1618.927
818.3580, 1644.041
818.8401, 1646.819
819.3222, 1646.698
819.8043, 1664.146
820.2864, 1705.022
820.7686, 1736.933
821.2507, 1756.797
821.7328, 1767.134
822.2149, 1759.337
822.6970, 1745.035
823.1791, 1758.846
823.6613, 1818.559
824.1434, 1873.223
824.6255, 1881.556
825.1076, 1869.414
825.5897, 1865.376
826.0718, 1882.434
826.5540, 1896.030
827.0361, 1902.323
827.5182, 1909.628
828.0003, 1932.766
828.4824, 1971.216
828.9645, 1993.554
829.4467, 1992.845
829.9288, 1984.284
830.4109, 1980.155
830.8930, 1981.218
831.3751, 1989.529
831.8572, 2009.115
832.3394, 2027.810
832.8215, 2047.746
833.3036, 2061.021
833.7857, 2058.852
834.2678, 2035.100
834.7499, 2013.120
835.2321, 1993.104
835.7142, 1978.165
836.1963, 1976.269
836.6784, 1983.256
837.1605, 1982.328
837.6426, 1968.151
838.1248, 1955.679
838.6069, 1964.328
839.0890, 1977.318
839.5711, 1974.961
840.0532, 1937.965
840.5353, 1913.798
841.0175, 1908.870
841.4996, 1913.711
841.9817, 1921.375
842.4638, 1932.303
842.9459, 1936.074
843.4280, 1931.646
843.9102, 1920.322
844.3923, 1895.582
844.8744, 1867.431
845.3565, 1853.719
845.8386, 1861.423
846.3207, 1870.075
846.8029, 1874.773
847.2850, 1874.535
847.7671, 1867.820
848.2492, 1849.697
848.7313, 1839.580
849.2134, 1839.993
849.6956, 1842.161
850.1777, 1836.967
850.6598, 1826.174
851.1419, 1813.310
851.6240, 1797.719
852.1061, 1791.205
852.5883, 1817.398
853.0704, 1847.750
853.5525, 1853.160
854.0346, 1816.322
854.5167, 1795.400
854.9988, 1800.718
855.4810, 1813.167
855.9631, 1819.432
856.4452, 1819.409
856.9273, 1820.887
857.4094, 1823.889
857.8915, 1830.334
858.3737, 1849.609
858.8558, 1869.353
859.3379, 1868.442
859.8200, 1842.408
860.3021, 1827.907
860.7842, 1845.680
861.2664, 1873.699
861.7485, 1902.449
862.2306, 1933.912
862.7127, 1943.444
863.1948, 1925.307
863.6769, 1910.846
864.1591, 1932.714
864.6412, 1972.403
865.1233, 1981.955
865.6054, 1962.264
866.0875, 1944.610
866.5696, 1946.099
867.0518, 1956.854
867.5339, 1975.637
868.0160, 2002.868
868.4981, 2012.462
868.9802, 1994.405
869.4623, 1979.964
869.9445, 1986.334
870.4266, 2008.231
870.9087, 2023.525
871.3908, 2032.216
871.8729, 2032.739
872.3550, 2010.121
872.8372, 1990.409
873.3193, 2000.030
873.8014, 2034.394
874.2835, 2064.415
874.7656, 2083.250
875.2477, 2097.228
875.7299, 2108.282
876.2120, 2115.472
876.6941, 2112.136
877.1762, 2098.316
877.6583, 2090.539
878.1404, 2098.773
878.6226, 2114.029
879.1047, 2123.594
879.5869, 2130.517
880.0690, 2142.861
880.5511, 2175.854
881.0332, 2200.428
881.5153, 2199.439
881.9974, 2187.335
882.4796, 2196.287
882.9617, 2231.677
883.4438, 2257.180
883.9259, 2262.416
884.4080, 2257.272
884.8901, 2251.873
885.3723, 2248.660
885.8544, 2253.582
886.3365, 2270.959
886.8186, 2293.101
887.3007, 2326.210
887.7828, 2357.778
888.2650, 2367.959
888.7471, 2340.596
889.2292, 2336.699
889.7113, 2366.607
890.1934, 2409.060
890.6755, 2441.752
891.1577, 2464.420
891.6398, 2475.028
892.1219, 2470.894
892.6040, 2466.154
893.0861, 2470.671
893.5682, 2479.186
894.0504, 2486.176
894.5325, 2486.968
895.0146, 2497.132
895.4967, 2519.211
895.9788, 2545.881
896.4609, 2574.875
896.9431, 2604.147
897.4252, 2618.136
897.9073, 2615.834
898.3894, 2609.039
898.8715, 2601.886
899.3536, 2597.576
899.8358, 2600.445
900.3179, 2611.628
900.8000, 2618.872
901.2821, 2617.124
901.7642, 2617.029
902.2463, 2625.532
902.7285, 2640.424
903.2106, 2644.702
903.6927, 2638.661
904.1748, 2631.078
904.6569, 2629.893
905.1390, 2627.791
905.6212, 2610.976
906.1033, 2585.085
906.5854, 2573.854
907.0675, 2606.084
907.5496, 2626.738
908.0317, 2617.923
908.5139, 2590.684
908.9960, 2579.776
909.4781, 2585.336
909.9602, 2589.077
910.4423, 2585.579
910.9244, 2575.687
911.4066, 2556.246
911.8887, 2531.972
912.3708, 2511.272
912.8529, 2501.083
913.3350, 2489.705
913.8171, 2475.152
914.2993, 2458.484
914.7814, 2437.881
915.2635, 2411.911
915.7456, 2405.252
916.2277, 2425.944
916.7098, 2446.698
917.1920, 2431.008
917.6741, 2396.727
918.1562, 2369.450
918.6383, 2355.461
919.1204, 2345.733
919.6025, 2334.445
920.0847, 2329.501
920.5668, 2339.287
921.0489, 2367.919
921.5310, 2379.679
922.0131, 2372.743
922.4952, 2363.964
922.9774, 2368.732
923.4595, 2379.454
923.9416, 2382.836
924.4237, 2378.980
924.9058, 2381.172
925.3879, 2401.082
925.8701, 2421.934
926.3522, 2439.363
926.8343, 2452.447
927.3164, 2450.766
927.7985, 2432.498
928.2806, 2416.114
928.7628, 2409.638
929.2449, 2410.522
929.7270, 2416.832
930.2091, 2427.223
930.6912, 2438.244
931.1733, 2446.951
931.6555, 2457.762
932.1376, 2471.007
932.6197, 2487.533
933.1018, 2511.355
933.5839, 2544.829
934.0660, 2567.819
934.5482, 2574.478
935.0303, 2577.146
935.5124, 2593.061
935.9945, 2616.107
936.4766, 2633.875
936.9587, 2638.384
937.4409, 2652.461
937.9230, 2698.229
938.4051, 2745.333
938.8872, 2767.421
939.3693, 2757.318
939.8514, 2764.886
940.3336, 2790.604
940.8157, 2830.766
941.2978, 2893.766
941.7799, 2963.963
942.2620, 3016.834
942.7441, 3051.692
943.2263, 3088.346
943.7084, 3137.429
944.1905, 3185.074
944.6726, 3219.732
945.1547, 3247.019
945.6368, 3308.598
946.1190, 3407.469
946.6011, 3497.008
947.0832, 3543.342
947.5653, 3583.723
948.0474, 3668.475
948.5295, 3787.284
949.0117, 3916.158
949.4938, 4051.866
949.9759, 4190.428
950.4580, 4327.848
950.9401, 4470.494
951.4222, 4618.433
951.9044, 4771.470
952.3865, 4968.190
952.8686, 5214.598
953.3507, 5506.487
953.8328, 5845.419
954.3149, 6224.302
954.7971, 6630.569
955.2792, 7040.503
955.7613, 7532.810
956.2434, 8112.287
956.7255, 8780.638
957.2076, 9531.813
957.6898, 10370.93
958.1719, 11353.47
958.6540, 12486.42
959.1361, 13706.05
959.6182, 14990.34
960.1003, 16338.31
960.5825, 17779.89
961.0646, 19304.18
961.5467, 20854.19
962.0288, 22414.04
962.5109, 23994.87
962.9930, 25565.74
963.4752, 27148.26
963.9573, 28794.85
964.4394, 30477.60
964.9215, 32117.34
965.4036, 33716.23
965.8857, 35212.54
966.3679, 36653.65
966.8500, 37922.97
967.3321, 38880.20
967.8142, 39595.29
968.2963, 39822.95
968.7784, 39556.09
969.2606, 38808.86
969.7427, 37508.74
970.2248, 35740.16
970.7069, 33755.70
971.1890, 31585.41
971.6711, 29351.30
972.1533, 27041.23
972.6354, 24797.89
973.1175, 22741.21
973.5996, 20873.06
974.0817, 19111.40
974.5638, 17434.34
975.0460, 15949.99
975.5281, 14711.94
976.0102, 13667.58
976.4923, 12713.61
976.9744, 11849.47
977.4565, 11073.44
977.9387, 10395.19
978.4208, 9792.799
978.9029, 9277.320
979.3850, 8828.827
979.8671, 8421.672
980.3492, 8061.834
980.8314, 7716.955
981.3135, 7378.716
981.7956, 7072.809
982.2777, 6837.393
982.7598, 6642.871
983.2419, 6447.521
983.7241, 6243.987
984.2062, 6049.709
984.6883, 5860.233
985.1704, 5692.513
985.6525, 5557.250
986.1346, 5451.605
986.6168, 5348.471
987.0989, 5247.659
987.5810, 5143.231
988.0631, 5020.281
988.5452, 4901.395
989.0273, 4811.707
989.5095, 4743.663
989.9916, 4679.246
990.4737, 4618.278
990.9558, 4554.289
991.4379, 4483.860
991.9200, 4414.924
992.4022, 4363.122
992.8843, 4324.826
993.3664, 4278.483
993.8485, 4217.263
994.3306, 4169.206
994.8127, 4167.933
995.2949, 4178.745
995.7770, 4171.768
996.2591, 4143.866
996.7412, 4110.413
997.2233, 4070.978
997.7054, 4028.614
998.1876, 3980.404
998.6697, 3932.674
999.1518, 3898.480
999.6339, 3876.599
1000.116, 3861.458
1000.598, 3859.751
1001.080, 3853.368
1001.562, 3828.640
1002.044, 3798.670
1002.527, 3790.572
1003.009, 3806.759
1003.491, 3809.131
1003.973, 3788.454
1004.455, 3762.485
1004.937, 3760.166
1005.419, 3759.855
1005.901, 3728.864
1006.384, 3649.316
1006.866, 3592.623
1007.348, 3573.108
1007.830, 3567.870
1008.312, 3568.286
1008.794, 3572.472
1009.276, 3570.372
1009.758, 3561.806
1010.240, 3545.553
1010.723, 3515.990
1011.205, 3483.358
1011.687, 3451.775
1012.169, 3422.379
1012.651, 3398.719
1013.133, 3385.843
1013.615, 3362.199
1014.097, 3322.357
1014.580, 3276.529
1015.062, 3233.967
1015.544, 3197.598
1016.026, 3176.006
1016.508, 3174.133
1016.990, 3167.703
1017.472, 3149.210
1017.954, 3120.455
1018.436, 3079.229
1018.919, 3026.860
1019.401, 2986.851
1019.883, 2959.229
1020.365, 2933.873
1020.847, 2908.157
1021.329, 2879.256
1021.811, 2841.666
1022.293, 2798.974
1022.776, 2759.146
1023.258, 2723.569
1023.740, 2691.768
1024.222, 2665.658
1024.704, 2639.920
1025.186, 2606.714
1025.668, 2567.815
1026.150, 2529.042
1026.632, 2490.617
1027.115, 2457.830
1027.597, 2436.175
1028.079, 2419.474
1028.561, 2404.822
1029.043, 2391.836
1029.525, 2373.642
1030.007, 2349.734
1030.489, 2327.458
1030.972, 2311.894
1031.454, 2298.001
1031.936, 2277.543
1032.418, 2253.149
1032.900, 2230.781
1033.382, 2206.457
1033.864, 2193.797
1034.346, 2201.291
1034.828, 2210.627
1035.311, 2196.255
1035.793, 2163.207
1036.275, 2148.031
1036.757, 2153.624
1037.239, 2160.236
1037.721, 2150.346
1038.203, 2139.443
1038.685, 2140.131
1039.167, 2151.284
1039.650, 2156.681
1040.132, 2154.283
1040.614, 2155.460
1041.096, 2166.159
1041.578, 2178.664
1042.060, 2170.854
1042.542, 2157.878
1043.024, 2171.211
1043.507, 2247.065
1043.989, 2294.279
1044.471, 2275.709
1044.953, 2248.664
1045.435, 2260.318
1045.917, 2307.122
1046.399, 2343.951
1046.881, 2370.120
1047.364, 2392.615
1047.846, 2407.373
1048.328, 2428.183
1048.810, 2466.803
1049.292, 2520.482
1049.774, 2576.178
1050.256, 2638.922
1050.738, 2682.238
1051.220, 2694.720
1051.703, 2702.330
1052.185, 2738.898
1052.667, 2797.094
1053.149, 2867.271
1053.631, 2950.801
1054.113, 3030.500
1054.595, 3101.559
1055.077, 3167.796
1055.559, 3228.163
1056.042, 3284.506
1056.524, 3355.214
1057.006, 3438.779
1057.488, 3522.858
1057.970, 3608.682
1058.452, 3684.678
1058.934, 3730.535
1059.416, 3766.590
1059.899, 3834.013
1060.381, 3950.519
1060.863, 4036.737
1061.345, 4083.141
1061.827, 4112.834
1062.309, 4145.004
1062.791, 4179.085
1063.273, 4218.407
1063.755, 4262.851
1064.238, 4290.471
1064.720, 4274.960
1065.202, 4270.142
1065.684, 4301.088
1066.166, 4346.511
1066.648, 4343.904
1067.130, 4300.415
1067.612, 4248.799
1068.094, 4199.908
1068.577, 4143.866
1069.059, 4062.666
1069.541, 3979.144
1070.023, 3917.521
1070.505, 3884.835
1070.987, 3827.936
1071.469, 3743.485
1071.951, 3660.862
1072.434, 3610.730
1072.916, 3565.183
1073.398, 3483.618
1073.880, 3376.305
1074.362, 3281.939
1074.844, 3218.182
1075.326, 3147.724
1075.808, 3059.956
1076.291, 2973.280
1076.773, 2920.508
1077.255, 2888.624
1077.737, 2840.086
1078.219, 2769.431
1078.701, 2698.221
1079.183, 2636.472
1079.665, 2579.068
1080.147, 2519.853
1080.630, 2461.701
1081.112, 2424.791
1081.594, 2408.229
1082.076, 2383.799
1082.558, 2336.681
1083.040, 2285.799
1083.522, 2239.683
1084.004, 2203.832
1084.486, 2188.707
1084.969, 2208.166
1085.451, 2207.748
1085.933, 2182.373
1086.415, 2156.294
1086.897, 2151.789
1087.379, 2157.114
1087.861, 2147.439
1088.343, 2127.737
1088.826, 2120.739
1089.308, 2146.719
1089.790, 2170.594
1090.272, 2186.188
1090.754, 2196.577
1091.236, 2204.895
1091.718, 2211.963
1092.200, 2219.917
1092.682, 2228.459
1093.165, 2245.681
1093.647, 2287.947
1094.129, 2330.179
1094.611, 2356.469
1095.093, 2368.686
1095.575, 2376.084
1096.057, 2377.990
1096.539, 2394.078
1097.022, 2439.428
1097.504, 2485.478
1097.986, 2500.801
1098.468, 2499.124
1098.950, 2498.020
1099.432, 2496.862
1099.914, 2506.417
1100.396, 2528.153
1100.879, 2555.180
1101.361, 2583.913
1101.843, 2613.766
1102.325, 2645.456
1102.807, 2678.084
1103.289, 2707.699
1103.771, 2728.990
1104.253, 2753.621
1104.735, 2788.713
1105.218, 2822.084
1105.700, 2835.132
1106.182, 2831.015
1106.664, 2820.563
1107.146, 2804.690
1107.628, 2797.262
1108.110, 2825.106
1108.592, 2844.931
1109.074, 2822.514
1109.557, 2772.469
1110.039, 2761.720
1110.521, 2790.974
1111.003, 2793.415
1111.485, 2742.918
1111.967, 2680.304
1112.449, 2639.781
1112.931, 2611.662
1113.414, 2587.037
1113.896, 2567.052
1114.378, 2539.163
1114.860, 2503.301
1115.342, 2459.438
1115.824, 2400.687
1116.306, 2339.739
1116.788, 2299.476
1117.271, 2272.719
1117.753, 2242.833
1118.235, 2209.078
1118.717, 2162.977
1119.199, 2095.458
1119.681, 2031.668
1120.163, 2003.114
1120.645, 1997.328
1121.127, 1974.071
1121.609, 1934.044
1122.092, 1903.811
1122.574, 1915.511
1123.056, 1915.886
1123.538, 1881.589
1124.020, 1830.893
1124.502, 1802.190
1124.984, 1792.314
1125.466, 1773.181
1125.949, 1739.223
1126.431, 1703.829
1126.913, 1673.752
1127.395, 1648.110
1127.877, 1625.622
1128.359, 1606.499
1128.841, 1599.173
1129.323, 1604.907
1129.806, 1597.118
1130.288, 1560.327
1130.770, 1518.878
1131.252, 1497.302
1131.734, 1486.073
1132.216, 1473.627
1132.698, 1458.794
1133.180, 1439.451
1133.662, 1413.047
1134.145, 1393.514
1134.627, 1398.694
1135.109, 1410.057
1135.591, 1391.424
1136.073, 1355.478
1136.555, 1334.832
1137.037, 1358.981
1137.519, 1366.433
1138.001, 1346.294
1138.484, 1324.342
1138.966, 1330.286
1139.448, 1354.493
1139.930, 1376.375
1140.412, 1394.422
1140.894, 1405.742
1141.376, 1409.839
1141.858, 1404.764
1142.341, 1382.795
1142.823, 1359.675
1143.305, 1369.527
1143.787, 1404.662
1144.269, 1431.667
1144.751, 1445.015
1145.233, 1449.441
1145.715, 1436.997
1146.198, 1427.330
1146.680, 1431.817
1147.162, 1447.616
1147.644, 1463.031
1148.126, 1477.833
1148.608, 1488.827
1149.090, 1496.708
1149.572, 1496.476
1150.054, 1477.648
1150.536, 1453.662
1151.019, 1438.982
1151.501, 1435.371
1151.983, 1418.273
1152.465, 1387.083
1152.947, 1355.940
1153.429, 1331.030
1153.911, 1311.207
1154.393, 1300.785
1154.876, 1293.329
1155.358, 1276.732
1155.840, 1247.338
1156.322, 1219.252
1156.804, 1192.999
1157.286, 1166.576
1157.768, 1139.025
1158.250, 1109.917
1158.733, 1076.957
1159.215, 1041.873
1159.697, 1009.810
1160.179, 978.1819
1160.661, 957.9683
1161.143, 953.5573
1161.625, 951.8680
1162.107, 935.5399
1162.589, 912.4344
1163.072, 898.3134
1163.554, 893.3083
1164.036, 879.4756
1164.518, 841.3041
1165.000, 813.9382
1165.482, 809.5948
1165.964, 813.8814
1166.446, 800.3164
1166.928, 775.3790
1167.411, 751.7654
1167.893, 730.9630
1168.375, 717.9476
1168.857, 715.8777
1169.339, 721.1185
1169.821, 738.0131
1170.303, 757.3062
1170.785, 743.6498
1171.268, 708.6823
1171.750, 691.8438
1172.232, 713.2856
1172.714, 734.2540
1173.196, 745.2557
1173.678, 744.2482
1174.160, 724.0333
1174.642, 689.4946
1175.125, 677.6592
1175.607, 684.5156
1176.089, 688.4146
1176.571, 670.1127
1177.053, 658.5469
1177.535, 676.3939
1178.017, 699.4343
1178.499, 705.7025
1178.981, 695.3801
1179.464, 677.3860
1179.946, 652.8027
1180.428, 636.2545
1180.910, 642.1438
1181.392, 652.7864
1181.874, 661.5668
1182.356, 667.7499
1182.838, 670.3460
1183.320, 669.3170
1183.803, 663.8785
1184.285, 653.6659
1184.767, 650.2189
1185.249, 670.5359
1185.731, 692.5960
1186.213, 702.6928
1186.695, 701.8734
1187.177, 691.3707
1187.660, 669.9212
1188.142, 661.0658
1188.624, 670.6268
1189.106, 677.3774
1189.588, 661.2729
1190.070, 635.7529
1190.552, 602.3561
1191.034, 566.9999
1191.516, 569.2692
1191.999, 614.5539
1192.481, 645.0488
1192.963, 643.4604
1193.445, 634.1495
1193.927, 642.2476
1194.409, 654.3878
1194.891, 657.0861
1195.373, 649.2611
1195.855, 635.5930
1196.338, 614.0860
1196.820, 604.1533
1197.302, 617.0747
1197.784, 637.0054
1198.266, 652.2463
1198.748, 661.2427
1199.230, 659.5065
1199.712, 643.8604
1200.195, 639.4028
1200.677, 648.4841
1201.159, 651.6665
1201.641, 631.4468
1202.123, 609.0612
1202.605, 614.1020
1203.087, 631.8914
1203.569, 637.2104
1204.052, 620.1564
1204.534, 614.0111
1205.016, 620.3607
1205.498, 627.8418
1205.980, 626.4132
1206.462, 623.6967
1206.944, 632.4301
1207.426, 646.0992
1207.908, 647.5934
1208.391, 625.4505
1208.873, 623.7411
1209.355, 648.3561
1209.837, 671.4330
1210.319, 661.6069
1210.801, 643.1821
1211.283, 648.5750
1211.765, 669.7208
1212.247, 674.2726
1212.730, 654.0656
1213.212, 636.7939
1213.694, 625.3224
1214.176, 617.0948
1214.658, 605.7282
1215.140, 598.7180
1215.622, 609.7104
1216.104, 634.8427
1216.587, 647.1873
1217.069, 639.4236
1217.551, 640.8480
1218.033, 658.5756
1218.515, 676.2097
1218.997, 673.8171
1219.479, 662.3864
1219.961, 652.9657
1220.443, 646.6602
1220.926, 641.8038
1221.408, 637.7395
1221.890, 638.7017
1222.372, 647.7193
1222.854, 654.8870
1223.336, 642.2155
1223.818, 624.9437
1224.300, 622.6617
1224.782, 638.2811
1225.265, 645.9283
1225.747, 644.5274
1226.229, 639.0556
1226.711, 629.3026
1227.193, 620.8789
1227.675, 621.2034
1228.157, 626.3864
1228.639, 632.7934
1229.122, 640.3136
1229.604, 644.4542
1230.086, 645.0959
1230.568, 642.8455
1231.050, 636.1436
1231.532, 630.4360
1232.014, 636.0178
1232.496, 644.0104
1232.979, 642.0328
1233.461, 627.7958
1233.943, 617.6498
1234.425, 611.6044
1234.907, 610.5356
1235.389, 616.5507
1235.871, 625.0411
1236.353, 633.5414
1236.835, 640.7665
1237.318, 644.0524
1237.800, 642.4444
1238.282, 646.9756
1238.764, 658.1880
1239.246, 663.8523
1239.728, 659.3738
1240.210, 643.7543
1240.692, 601.2233
1241.175, 555.1851
1241.657, 537.9453
1242.139, 553.1870
1242.621, 579.5577
1243.103, 617.5183
1243.585, 641.1271
1244.067, 621.1417
1244.549, 596.4993
1245.031, 598.7194
1245.514, 609.2468
1245.996, 598.8249
1246.478, 563.9044
1246.960, 555.0108
1247.442, 571.6388
1247.924, 586.6876
1248.406, 579.9689
1248.888, 569.7151
1249.370, 566.7302
1249.853, 565.6763
1250.335, 557.9853
1250.817, 544.1475
1251.299, 536.9296
1251.781, 536.8051
1252.263, 541.4574
1252.745, 552.5440
1253.227, 564.5703
1253.710, 577.3562
1254.192, 587.9323
1254.674, 592.0569
1255.156, 590.2643
1255.638, 585.8295
1256.120, 579.0917
1256.602, 571.3022
1257.084, 561.4102
1257.567, 552.9000
1258.049, 547.6580
1258.531, 543.3142
1259.013, 532.9478
1259.495, 520.8151
1259.977, 525.5786
1260.459, 547.0240
1260.941, 566.7079
1261.423, 583.6815
1261.906, 584.8344
1262.388, 559.7211
1262.870, 530.9824
1263.352, 537.8896
1263.834, 564.5033
1264.316, 574.8073
1264.798, 566.1623
1265.280, 551.4791
1265.762, 528.6166
1266.245, 508.4177
1266.727, 489.9164
1267.209, 481.2382
1267.691, 509.2510
1268.173, 547.0670
1268.655, 540.5970
1269.137, 489.1700
1269.619, 468.0179
1270.102, 500.0778
1270.584, 518.8419
1271.066, 507.3762
1271.548, 489.0692
1272.030, 498.4598
1272.512, 514.5112
1272.994, 507.5960
1273.476, 477.9903
1273.958, 466.5260
1274.441, 477.1225
1274.923, 492.5260
1275.405, 509.9900
1275.887, 526.3769
1276.369, 545.0967
1276.851, 555.9888
1277.333, 543.8509
1277.815, 512.9054
1278.297, 487.6913
1278.780, 467.8330
1279.262, 470.9961
1279.744, 506.3571
1280.226, 533.7316
1280.708, 504.7902
1281.190, 470.3690
1281.672, 470.3127
1282.154, 494.5765
1282.637, 510.0419
1283.119, 516.5486
1283.601, 508.4451
1284.083, 481.3236
1284.565, 463.6804
1285.047, 486.1605
1285.529, 507.2256
1286.011, 503.2412
1286.494, 485.8610
1286.976, 492.3688
1287.458, 513.7784
1287.940, 516.3229
1288.422, 489.9077
1288.904, 472.0088
1289.386, 481.6478
1289.868, 496.4273
1290.350, 511.6162
1290.833, 524.4661
1291.315, 526.4958
1291.797, 522.8742
1292.279, 524.4020
1292.761, 533.8661
1293.243, 541.0575
1293.725, 545.8857
1294.207, 545.4578
1294.689, 537.5424
1295.172, 527.0242
1295.654, 519.1896
1296.136, 514.1636
1296.618, 513.9631
1297.100, 519.5017
1297.582, 515.0633
1298.064, 498.0476
1298.546, 488.1951
1299.029, 493.4381
1299.511, 502.1669
1299.993, 500.3367
1300.475, 497.3619
1300.957, 506.6313
1301.439, 524.7927
1301.921, 526.3021
1302.403, 511.6633
1302.885, 493.9575
1303.368, 473.0775
1303.850, 465.8382
1304.332, 506.4406
1304.814, 540.2887
1305.296, 523.9094
1305.778, 480.3321
1306.260, 503.7785
1306.742, 574.4429
1307.224, 612.6588
1307.707, 595.4320
1308.189, 564.0349
1308.671, 521.3184
1309.153, 485.2180
1309.635, 460.9718
1310.117, 449.6453
1310.599, 463.2076
1311.081, 488.8993
1311.564, 499.4407
1312.046, 487.2339
1312.528, 479.3790
1313.010, 479.7860
1313.492, 481.1952
1313.974, 481.4322
1314.456, 480.9712
1314.938, 478.7840
##END=



