##NAMES=Langbanite
##RRUFFID=R100037
##IDEAL CHEMISTRY=Mn^2+^_4_Mn^3+^_9_Sb^5+^O_16_(SiO_4_)_2_
##LOCALITY=Langban, Filipstad, Varmland, Sweden
##OWNER=RRUFF
##SOURCE=William W Pinch
##DESCRIPTION=Black metallic blocky crystals associated with pale red rhodonite R100038
##STATUS=The identification of this mineral has been confirmed by single-crystal X-ray diffraction.
##URL=rruff.info/R100037
90.49219, 14.37344
90.97430, 14.38390
91.45642, 14.38810
91.93854, 14.40069
92.42065, 14.40252
92.90277, 14.40030
93.38489, 14.41863
93.86700, 14.32688
94.34912, 13.80705
94.83124, 12.94685
95.31335, 12.26697
95.79547, 12.22499
96.27759, 12.66870
96.75970, 12.97246
97.24182, 13.04340
97.72394, 12.94340
98.20605, 12.74560
98.68817, 12.42961
99.17029, 12.17835
99.65240, 12.29447
100.1345, 12.83184
100.6166, 12.86819
101.0988, 11.99705
101.5809, 10.39106
102.0630, 9.558162
102.5451, 9.723780
103.0272, 10.24784
103.5093, 10.36871
103.9915, 9.840794
104.4736, 9.549469
104.9557, 9.805715
105.4378, 10.74338
105.9199, 11.49887
106.4020, 12.16853
106.8842, 12.61406
107.3663, 12.56987
107.8484, 11.63373
108.3305, 10.67254
108.8126, 9.969286
109.2947, 9.526242
109.7769, 9.338401
110.2590, 9.516444
110.7411, 9.970031
111.2232, 10.41321
111.7053, 10.84410
112.1874, 11.26225
112.6696, 11.66384
113.1517, 12.60595
113.6338, 12.93179
114.1159, 12.07272
114.5980, 10.23214
115.0801, 8.838491
115.5623, 8.541842
116.0444, 8.677136
116.5265, 8.730021
117.0086, 8.242492
117.4907, 7.934634
117.9728, 8.196208
118.4550, 9.053959
118.9371, 9.848958
119.4192, 10.44000
119.9013, 10.76821
120.3834, 10.74755
120.8655, 9.961271
121.3477, 9.054197
121.8298, 8.436814
122.3119, 8.129393
122.7940, 8.165526
123.2761, 8.978879
123.7582, 10.19043
124.2404, 10.95611
124.7225, 10.46296
125.2046, 9.396636
125.6867, 8.645556
126.1688, 8.437831
126.6509, 8.311664
127.1331, 7.522137
127.6152, 6.246550
128.0973, 5.365998
128.5794, 5.900190
129.0615, 7.289497
129.5436, 8.150793
130.0258, 7.984576
130.5079, 7.373102
130.9900, 7.466632
131.4721, 8.263671
131.9542, 9.003547
132.4363, 8.838138
132.9185, 7.915907
133.4006, 7.266740
133.8827, 7.222396
134.3648, 7.651755
134.8469, 8.141993
135.3290, 8.718369
135.8112, 9.246458
136.2933, 9.487116
136.7754, 9.414189
137.2575, 9.491638
137.7396, 10.02622
138.2217, 10.98454
138.7039, 11.27289
139.1860, 10.56523
139.6681, 9.702584
140.1502, 10.26559
140.6323, 12.84310
141.1144, 14.86155
141.5966, 15.05227
142.0787, 12.80567
142.5608, 11.46689
143.0429, 11.22906
143.5250, 11.78588
144.0071, 12.49205
144.4893, 13.39494
144.9714, 14.36069
145.4535, 15.33258
145.9356, 16.38305
146.4177, 17.32759
146.8998, 18.27476
147.3820, 19.13364
147.8641, 19.52668
148.3462, 18.97849
148.8283, 18.40674
149.3104, 18.29127
149.7925, 18.78378
150.2747, 19.54620
150.7568, 20.74292
151.2389, 22.31656
151.7210, 23.55295
152.2031, 24.20301
152.6852, 24.65741
153.1674, 25.16531
153.6495, 26.04338
154.1316, 26.64759
154.6137, 26.70405
155.0958, 26.19731
155.5779, 26.01266
156.0601, 26.58832
156.5422, 27.37904
157.0243, 27.91210
157.5064, 27.82071
157.9885, 27.72690
158.4706, 27.82646
158.9528, 28.15434
159.4349, 28.45465
159.9170, 28.56042
160.3991, 28.63389
160.8812, 28.86260
161.3633, 29.53373
161.8455, 30.18472
162.3276, 30.53807
162.8097, 30.47012
163.2918, 30.57543
163.7739, 31.28196
164.2560, 32.25293
164.7382, 32.81053
165.2203, 32.71115
165.7024, 32.53989
166.1845, 32.65369
166.6666, 33.19291
167.1487, 33.69507
167.6309, 33.78012
168.1130, 33.64417
168.5951, 33.70008
169.0772, 34.41855
169.5593, 35.26116
170.0414, 35.74775
170.5236, 35.70704
171.0057, 35.52218
171.4878, 35.58739
171.9699, 35.76717
172.4520, 35.64671
172.9341, 34.46786
173.4163, 33.05002
173.8984, 32.45150
174.3805, 33.27746
174.8626, 34.34204
175.3447, 34.45453
175.8268, 33.78141
176.3090, 33.08488
176.7911, 32.90070
177.2732, 33.03112
177.7553, 33.15717
178.2374, 33.16088
178.7195, 33.16686
179.2017, 33.43363
179.6838, 33.92636
180.1659, 34.28331
180.6480, 33.98102
181.1301, 33.32801
181.6122, 33.07589
182.0944, 33.69076
182.5765, 34.63469
183.0586, 34.97725
183.5407, 34.72034
184.0228, 34.28040
184.5049, 33.92056
184.9871, 33.65769
185.4692, 33.58128
185.9513, 33.82608
186.4334, 34.23254
186.9155, 34.47303
187.3976, 34.55054
187.8798, 34.42292
188.3619, 33.81130
188.8440, 32.82841
189.3261, 32.25950
189.8082, 32.57921
190.2903, 33.50753
190.7725, 34.00787
191.2546, 34.03664
191.7367, 33.90360
192.2188, 33.95113
192.7009, 34.17161
193.1830, 34.42168
193.6652, 34.66662
194.1473, 34.90317
194.6294, 35.10870
195.1115, 35.29410
195.5936, 35.41448
196.0757, 35.43236
196.5579, 35.35047
197.0400, 35.10739
197.5221, 34.51955
198.0042, 33.63667
198.4863, 33.27980
198.9684, 33.56078
199.4506, 34.12551
199.9327, 34.48002
200.4148, 34.61711
200.8969, 34.64061
201.3790, 34.58308
201.8611, 34.44391
202.3433, 34.20989
202.8254, 33.82795
203.3075, 33.43312
203.7896, 33.24278
204.2717, 33.25808
204.7538, 33.45373
205.2360, 33.99352
205.7181, 34.98544
206.2002, 35.24295
206.6823, 34.53538
207.1644, 33.37334
207.6465, 32.68176
208.1287, 32.53004
208.6108, 32.61929
209.0929, 32.87862
209.5750, 33.35999
210.0571, 33.73504
210.5392, 33.98574
211.0214, 34.15060
211.5035, 34.34356
211.9856, 34.63682
212.4677, 34.75962
212.9498, 34.54560
213.4319, 33.90583
213.9140, 33.29647
214.3962, 32.66431
214.8783, 32.09929
215.3604, 31.81778
215.8425, 31.84390
216.3246, 32.08868
216.8067, 32.60548
217.2889, 33.57997
217.7710, 34.12765
218.2531, 34.03603
218.7352, 33.61163
219.2173, 33.64674
219.6994, 34.41535
220.1816, 35.12000
220.6637, 35.38400
221.1458, 35.04121
221.6279, 34.72045
222.1100, 34.37283
222.5921, 34.07356
223.0743, 34.03914
223.5564, 34.39285
224.0385, 34.79707
224.5206, 35.10299
225.0027, 35.31894
225.4848, 35.42178
225.9670, 35.36164
226.4491, 35.20469
226.9312, 35.14514
227.4133, 35.30249
227.8954, 35.36357
228.3775, 35.10797
228.8597, 34.18764
229.3418, 33.82743
229.8239, 34.28419
230.3060, 35.24233
230.7881, 35.84252
231.2702, 36.09565
231.7524, 35.97858
232.2345, 35.37604
232.7166, 33.78278
233.1987, 32.89544
233.6808, 33.02116
234.1629, 33.77708
234.6451, 34.12587
235.1272, 33.80257
235.6093, 33.46441
236.0914, 33.41026
236.5735, 33.77995
237.0556, 34.13720
237.5378, 34.59422
238.0199, 35.00880
238.5020, 34.95425
238.9841, 34.02089
239.4662, 33.22451
239.9483, 33.04331
240.4305, 33.82862
240.9126, 34.41225
241.3947, 34.78631
241.8768, 34.96159
242.3589, 34.92535
242.8410, 34.48462
243.3232, 34.12684
243.8053, 34.09804
244.2874, 34.63156
244.7695, 34.91528
245.2516, 34.83820
245.7337, 34.55721
246.2159, 34.42345
246.6980, 34.49805
247.1801, 34.62457
247.6622, 34.74654
248.1443, 34.85996
248.6264, 34.99696
249.1086, 35.23950
249.5907, 35.46817
250.0728, 35.39762
250.5549, 34.81074
251.0370, 34.28949
251.5191, 34.05713
252.0013, 34.17799
252.4834, 34.40833
252.9655, 34.89237
253.4476, 35.39715
253.9297, 35.40803
254.4118, 34.54757
254.8940, 33.89883
255.3761, 33.90707
255.8582, 34.77598
256.3403, 35.51622
256.8224, 36.19076
257.3046, 36.69112
257.7867, 36.72264
258.2688, 35.91392
258.7509, 35.43625
259.2330, 35.89023
259.7151, 37.60035
260.1973, 38.24245
260.6794, 37.33149
261.1615, 35.81575
261.6436, 35.15540
262.1257, 35.71825
262.6078, 36.22584
263.0900, 36.27043
263.5721, 35.80145
264.0542, 35.34011
264.5363, 34.81011
265.0184, 34.37247
265.5005, 34.28691
265.9827, 34.72169
266.4648, 35.01017
266.9469, 34.88631
267.4290, 34.33574
267.9111, 34.06925
268.3932, 34.13197
268.8754, 34.41302
269.3575, 34.88000
269.8396, 35.67130
270.3217, 36.13915
270.8038, 36.02230
271.2859, 35.36039
271.7681, 34.96021
272.2502, 34.87357
272.7323, 34.94082
273.2144, 35.00061
273.6965, 35.03742
274.1786, 35.16663
274.6608, 35.49062
275.1429, 35.94685
275.6250, 36.00846
276.1071, 35.53881
276.5892, 35.06627
277.0714, 35.18878
277.5535, 35.99899
278.0356, 36.52339
278.5177, 36.47167
278.9998, 36.02588
279.4819, 36.00437
279.9641, 36.50743
280.4462, 37.01709
280.9283, 37.02407
281.4104, 36.50525
281.8925, 36.25267
282.3746, 36.47269
282.8568, 36.97045
283.3389, 37.15907
283.8210, 37.00088
284.3031, 36.82335
284.7852, 36.84325
285.2673, 37.05376
285.7495, 37.35755
286.2316, 37.76559
286.7137, 38.22693
287.1958, 38.66217
287.6779, 39.07248
288.1600, 39.40235
288.6422, 39.62469
289.1243, 39.73919
289.6064, 39.72133
290.0885, 39.54563
290.5706, 39.29937
291.0527, 39.09509
291.5349, 38.93476
292.0170, 38.84278
292.4991, 38.84742
292.9812, 38.93471
293.4633, 39.04702
293.9454, 39.17629
294.4276, 39.35566
294.9097, 39.64531
295.3918, 40.03124
295.8739, 40.43602
296.3560, 40.96466
296.8381, 41.46976
297.3203, 41.50702
297.8024, 41.02923
298.2845, 40.44764
298.7666, 40.10289
299.2487, 39.99364
299.7308, 40.10956
300.2130, 40.73648
300.6951, 41.47858
301.1772, 41.55666
301.6593, 40.97395
302.1414, 40.40868
302.6235, 40.61683
303.1057, 41.26811
303.5878, 41.68866
304.0699, 41.54282
304.5520, 41.15054
305.0341, 40.82875
305.5162, 40.57843
305.9984, 40.39746
306.4805, 40.23584
306.9626, 40.15731
307.4447, 40.27769
307.9268, 40.76955
308.4089, 41.28059
308.8911, 41.53365
309.3732, 41.54945
309.8553, 41.41436
310.3374, 41.16801
310.8195, 40.80058
311.3016, 40.24918
311.7838, 39.34471
312.2659, 38.59243
312.7480, 38.51183
313.2301, 38.86289
313.7122, 39.04651
314.1943, 38.68507
314.6765, 38.12050
315.1586, 37.52989
315.6407, 36.86668
316.1228, 36.43927
316.6049, 36.58397
317.0870, 37.04173
317.5692, 37.38322
318.0513, 37.44682
318.5334, 37.36737
319.0155, 37.20249
319.4976, 36.95536
319.9797, 36.62318
320.4619, 35.99907
320.9440, 35.35785
321.4261, 35.01379
321.9082, 35.50687
322.3903, 35.85391
322.8724, 35.62022
323.3546, 34.78159
323.8367, 34.17992
324.3188, 34.28191
324.8009, 34.51314
325.2830, 34.43459
325.7651, 33.41930
326.2473, 32.72937
326.7294, 32.80524
327.2115, 33.51217
327.6936, 33.77293
328.1757, 33.05950
328.6578, 32.22578
329.1400, 31.69224
329.6221, 31.70924
330.1042, 31.69578
330.5863, 31.63601
331.0684, 31.54240
331.5505, 31.45213
332.0327, 31.35374
332.5148, 31.27133
332.9969, 31.24600
333.4790, 31.39541
333.9611, 31.23981
334.4432, 30.48849
334.9254, 29.59870
335.4075, 29.42850
335.8896, 30.38745
336.3717, 31.23590
336.8538, 31.55413
337.3359, 31.29086
337.8180, 31.08392
338.3001, 30.96338
338.7823, 30.85429
339.2644, 30.61872
339.7465, 30.17370
340.2286, 29.97886
340.7107, 30.24831
341.1928, 30.88566
341.6750, 31.18513
342.1571, 31.11529
342.6392, 30.84535
343.1213, 30.43853
343.6034, 29.89413
344.0855, 29.47626
344.5677, 29.24528
345.0498, 29.15218
345.5319, 29.10065
346.0140, 29.09147
346.4961, 29.10155
346.9782, 29.22903
347.4604, 29.39937
347.9425, 29.15998
348.4246, 28.36527
348.9067, 27.46145
349.3888, 26.99909
349.8709, 26.96454
350.3531, 27.28331
350.8352, 28.32315
351.3173, 29.59961
351.7994, 30.05213
352.2815, 29.58758
352.7636, 28.97119
353.2458, 29.02164
353.7279, 29.47031
354.2100, 29.73545
354.6921, 29.49210
355.1742, 29.03033
355.6563, 28.52931
356.1385, 28.01604
356.6206, 27.73985
357.1027, 28.11667
357.5848, 28.73688
358.0669, 29.12490
358.5490, 29.12043
359.0312, 28.90634
359.5133, 28.42948
359.9954, 27.80226
360.4775, 27.36625
360.9596, 27.27681
361.4417, 27.44091
361.9239, 27.89165
362.4060, 28.83323
362.8881, 29.46945
363.3702, 29.26089
363.8523, 28.60509
364.3344, 28.11151
364.8166, 28.03041
365.2987, 28.06939
365.7808, 28.16849
366.2629, 28.34251
366.7450, 28.40670
367.2271, 28.09261
367.7093, 27.77419
368.1914, 27.78012
368.6735, 28.86629
369.1556, 29.47001
369.6377, 29.03679
370.1198, 27.73478
370.6020, 27.07320
371.0841, 27.57556
371.5662, 28.23225
372.0483, 28.48845
372.5304, 28.05476
373.0125, 27.76132
373.4947, 27.60661
373.9768, 27.60955
374.4589, 27.86326
374.9410, 28.53693
375.4231, 29.11599
375.9052, 29.40924
376.3874, 29.39610
376.8695, 29.22067
377.3516, 28.79598
377.8337, 28.35251
378.3158, 28.22949
378.7979, 28.48488
379.2801, 28.61585
379.7622, 28.44724
380.2443, 28.05172
380.7264, 27.71267
381.2085, 27.42255
381.6906, 27.25736
382.1728, 27.27559
382.6549, 27.47369
383.1370, 27.87477
383.6191, 28.57859
384.1012, 29.32053
384.5833, 29.65228
385.0655, 29.60579
385.5476, 29.43780
386.0297, 29.24971
386.5118, 29.05287
386.9939, 28.86190
387.4760, 28.67856
387.9582, 28.50570
388.4403, 28.26144
388.9224, 28.03034
389.4045, 27.98605
389.8866, 28.43833
390.3687, 28.94191
390.8509, 29.03156
391.3330, 28.74576
391.8151, 28.54362
392.2972, 28.74012
392.7793, 29.13260
393.2614, 29.54867
393.7436, 30.09517
394.2257, 30.43378
394.7078, 30.30697
395.1899, 29.84877
395.6720, 29.41097
396.1541, 28.93005
396.6363, 28.63433
397.1184, 28.73140
397.6005, 29.47828
398.0826, 29.87027
398.5647, 29.43427
399.0468, 28.67384
399.5290, 28.19927
400.0111, 28.09000
400.4932, 28.23823
400.9753, 28.85384
401.4574, 29.93379
401.9395, 30.33537
402.4217, 29.73651
402.9038, 28.80479
403.3859, 27.91085
403.8680, 26.85789
404.3501, 26.34701
404.8322, 26.60801
405.3144, 27.35714
405.7965, 27.83140
406.2786, 27.96586
406.7607, 28.05084
407.2428, 28.20374
407.7249, 28.42661
408.2071, 28.72497
408.6892, 29.15598
409.1713, 29.50126
409.6534, 29.35472
410.1355, 28.75052
410.6176, 28.39312
411.0998, 28.63920
411.5819, 29.16627
412.0640, 29.07621
412.5461, 28.39618
413.0282, 27.80125
413.5103, 27.95187
413.9925, 28.54683
414.4746, 28.98933
414.9567, 29.19679
415.4388, 29.18807
415.9209, 28.83934
416.4030, 28.28093
416.8852, 27.82675
417.3673, 27.56704
417.8494, 27.52771
418.3315, 27.87998
418.8136, 28.63662
419.2957, 29.18244
419.7779, 29.08178
420.2600, 28.63335
420.7421, 28.13772
421.2242, 27.42645
421.7063, 26.94502
422.1884, 26.86889
422.6706, 27.14177
423.1527, 27.54696
423.6348, 28.49533
424.1169, 29.19316
424.5990, 29.18521
425.0811, 27.91270
425.5633, 27.14549
426.0454, 27.35817
426.5275, 27.93056
427.0096, 28.04244
427.4917, 27.11047
427.9738, 26.62540
428.4560, 27.11579
428.9381, 28.51590
429.4202, 29.18859
429.9023, 28.92208
430.3844, 28.31030
430.8665, 27.66270
431.3487, 26.90339
431.8308, 26.63297
432.3129, 27.04357
432.7950, 27.78197
433.2771, 28.09176
433.7592, 27.95445
434.2414, 27.78896
434.7235, 27.83609
435.2056, 28.01851
435.6877, 28.00244
436.1698, 27.77746
436.6519, 27.48800
437.1341, 27.15601
437.6162, 26.87014
438.0983, 26.89436
438.5804, 27.47539
439.0625, 28.14451
439.5446, 28.38654
440.0268, 28.26050
440.5089, 27.98092
440.9910, 27.42141
441.4731, 26.91232
441.9552, 26.83120
442.4373, 27.31498
442.9195, 27.69635
443.4016, 27.50395
443.8837, 27.06088
444.3658, 26.75991
444.8479, 26.88473
445.3300, 27.00022
445.8122, 26.87156
446.2943, 26.54942
446.7764, 26.48705
447.2585, 27.31717
447.7406, 27.98749
448.2227, 27.89616
448.7049, 26.28765
449.1870, 25.38113
449.6691, 25.46626
450.1512, 26.11472
450.6333, 26.70599
451.1154, 27.36734
451.5976, 27.68207
452.0797, 27.35995
452.5618, 26.47930
453.0439, 26.34604
453.5260, 27.18702
454.0081, 28.07461
454.4903, 28.13355
454.9724, 27.37960
455.4545, 27.01638
455.9366, 27.28528
456.4187, 27.80541
456.9008, 27.90590
457.3830, 27.63590
457.8651, 27.37110
458.3472, 27.23131
458.8293, 27.23071
459.3114, 27.50884
459.7935, 28.05798
460.2757, 28.46708
460.7578, 28.13026
461.2399, 27.52713
461.7220, 27.38649
462.2041, 28.23797
462.6862, 29.00799
463.1684, 28.80717
463.6505, 27.98861
464.1326, 27.37352
464.6147, 27.48503
465.0968, 27.72128
465.5789, 27.69297
466.0611, 27.29406
466.5432, 27.24874
467.0253, 28.20078
467.5074, 29.29860
467.9895, 29.82296
468.4716, 29.00252
468.9538, 28.55584
469.4359, 28.74778
469.9180, 29.38310
470.4001, 29.87267
470.8822, 30.26674
471.3643, 30.41383
471.8465, 30.16551
472.3286, 29.45993
472.8107, 29.01037
473.2928, 28.83637
473.7749, 28.87921
474.2570, 29.14997
474.7392, 29.64670
475.2213, 30.09454
475.7034, 30.46770
476.1855, 30.71767
476.6676, 30.59020
477.1497, 30.14208
477.6319, 29.91113
478.1140, 30.56222
478.5961, 31.53040
479.0782, 31.80089
479.5603, 31.27092
480.0424, 30.55268
480.5246, 29.91628
481.0067, 29.46513
481.4888, 29.34926
481.9709, 29.81299
482.4530, 30.39260
482.9352, 31.00839
483.4173, 31.57620
483.8994, 31.83009
484.3815, 31.27333
484.8636, 30.71470
485.3457, 30.60715
485.8279, 31.15832
486.3100, 31.48663
486.7921, 31.04609
487.2742, 30.61202
487.7563, 30.92258
488.2384, 32.71517
488.7206, 33.97852
489.2027, 34.36457
489.6848, 34.08363
490.1669, 33.85651
490.6490, 33.71477
491.1311, 33.53508
491.6133, 33.15258
492.0954, 32.57469
492.5775, 32.50721
493.0596, 33.02206
493.5417, 33.74958
494.0238, 34.32285
494.5060, 34.76769
494.9881, 35.18605
495.4702, 35.58364
495.9523, 35.99092
496.4344, 36.44079
496.9165, 36.93101
497.3987, 37.45109
497.8808, 37.98885
498.3629, 38.56334
498.8450, 39.25725
499.3271, 40.09341
499.8092, 40.76567
500.2914, 40.85622
500.7735, 40.83233
501.2556, 41.14288
501.7377, 42.10472
502.2198, 43.15718
502.7019, 44.19367
503.1841, 45.23730
503.6662, 46.35838
504.1483, 47.69362
504.6304, 48.99025
505.1125, 50.17965
505.5946, 51.26379
506.0768, 52.23570
506.5589, 53.05101
507.0410, 53.81082
507.5231, 54.52678
508.0052, 55.13685
508.4873, 56.13222
508.9695, 57.63675
509.4516, 59.41049
509.9337, 61.02071
510.4158, 62.47363
510.8979, 63.87721
511.3800, 65.26733
511.8622, 66.65556
512.3443, 68.01913
512.8264, 69.35796
513.3085, 70.89408
513.7906, 73.18376
514.2728, 75.62164
514.7549, 77.42487
515.2370, 78.41064
515.7191, 78.85435
516.2012, 78.67512
516.6833, 78.11946
517.1655, 77.56416
517.6476, 77.31381
518.1297, 76.90328
518.6118, 76.08561
519.0939, 74.89867
519.5760, 73.79631
520.0582, 73.19551
520.5403, 72.37920
521.0224, 70.99262
521.5045, 68.73006
521.9866, 66.79122
522.4688, 65.33440
522.9509, 64.02480
523.4330, 62.40767
523.9151, 60.42377
524.3972, 58.42881
524.8793, 56.44927
525.3615, 54.57166
525.8436, 53.08467
526.3257, 51.97644
526.8078, 50.84991
527.2899, 49.22399
527.7720, 47.43772
528.2542, 46.44075
528.7363, 46.30098
529.2184, 46.15051
529.7005, 45.09624
530.1826, 43.63987
530.6647, 42.46638
531.1469, 41.86361
531.6290, 41.43630
532.1111, 40.97873
532.5932, 40.54478
533.0753, 40.24544
533.5574, 40.29520
534.0396, 40.30570
534.5217, 40.17779
535.0038, 39.90795
535.4859, 39.40436
535.9680, 38.27702
536.4501, 37.30232
536.9323, 37.00151
537.4144, 37.76597
537.8965, 38.08121
538.3786, 37.81418
538.8607, 37.23828
539.3428, 36.70546
539.8250, 36.20290
540.3071, 35.88582
540.7892, 35.90540
541.2713, 36.05693
541.7534, 35.77261
542.2355, 35.09114
542.7177, 34.42261
543.1998, 33.96666
543.6819, 33.70543
544.1640, 33.66468
544.6461, 33.85428
545.1282, 34.05292
545.6104, 34.03595
546.0925, 33.96939
546.5746, 34.05811
547.0567, 34.63817
547.5388, 34.98925
548.0209, 34.67669
548.5031, 33.97063
548.9852, 33.46031
549.4673, 33.40940
549.9494, 33.37597
550.4315, 33.20456
550.9136, 32.89665
551.3958, 32.85544
551.8779, 33.27575
552.3600, 33.63491
552.8421, 33.52596
553.3242, 32.87471
553.8063, 32.45300
554.2885, 32.29454
554.7706, 32.36292
555.2527, 32.80537
555.7348, 33.51988
556.2169, 33.83740
556.6990, 33.40914
557.1812, 32.67568
557.6633, 32.16131
558.1454, 31.85785
558.6275, 31.73467
559.1096, 31.87860
559.5917, 32.12612
560.0739, 32.37748
560.5560, 32.62743
561.0381, 32.79740
561.5202, 32.82696
562.0023, 32.78005
562.4844, 32.70528
562.9666, 32.66005
563.4487, 32.49821
563.9308, 31.95978
564.4129, 31.40907
564.8950, 31.50010
565.3771, 32.71394
565.8593, 33.43578
566.3414, 33.04820
566.8235, 31.92329
567.3056, 31.88768
567.7877, 33.08892
568.2698, 34.30908
568.7520, 34.86666
569.2341, 34.85420
569.7162, 34.49803
570.1983, 33.77813
570.6804, 33.19634
571.1625, 33.33332
571.6447, 33.89893
572.1268, 34.44968
572.6089, 34.93610
573.0910, 35.27296
573.5731, 35.23879
574.0552, 35.04763
574.5374, 35.07319
575.0195, 35.59066
575.5016, 36.18887
575.9837, 36.90509
576.4658, 37.68161
576.9479, 37.92030
577.4301, 37.12480
577.9122, 36.36705
578.3943, 36.11814
578.8764, 36.46947
579.3585, 36.86259
579.8406, 37.34422
580.3228, 37.76375
580.8049, 37.93283
581.2870, 37.86400
581.7691, 37.78503
582.2512, 37.72870
582.7333, 37.68979
583.2155, 37.59433
583.6975, 37.49804
584.1796, 37.57508
584.6617, 38.16589
585.1439, 38.77621
585.6260, 38.87437
586.1081, 38.55505
586.5902, 38.30272
587.0723, 38.27908
587.5544, 38.43768
588.0366, 38.84212
588.5187, 39.62279
589.0008, 40.08791
589.4829, 39.77086
589.9650, 39.36843
590.4471, 39.42723
590.9293, 40.23420
591.4114, 40.84045
591.8935, 41.16205
592.3756, 41.28939
592.8577, 41.31736
593.3398, 41.23061
593.8220, 41.30850
594.3041, 41.69409
594.7862, 42.26180
595.2683, 42.82078
595.7504, 43.33941
596.2325, 43.62037
596.7147, 43.16253
597.1968, 42.60054
597.6789, 42.77128
598.1610, 43.74547
598.6431, 44.71013
599.1252, 45.28362
599.6074, 45.60410
600.0895, 45.77032
600.5716, 45.66468
601.0537, 45.64387
601.5358, 46.12048
602.0179, 46.56683
602.5001, 46.15361
602.9822, 43.90203
603.4643, 42.84053
603.9464, 43.91593
604.4285, 46.34538
604.9106, 47.47742
605.3928, 47.16187
605.8749, 46.82172
606.3570, 47.23381
606.8391, 48.15577
607.3212, 48.91270
607.8033, 49.49512
608.2855, 49.71294
608.7676, 48.96878
609.2497, 47.95986
609.7318, 47.67235
610.2139, 48.38509
610.6960, 49.14429
611.1782, 49.39375
611.6603, 49.43056
612.1424, 49.57328
612.6245, 50.22393
613.1066, 50.58073
613.5887, 50.38695
614.0709, 49.86641
614.5530, 49.44036
615.0351, 49.12810
615.5172, 48.89091
615.9993, 48.74697
616.4814, 48.66927
616.9636, 48.49926
617.4457, 48.23216
617.9278, 47.94141
618.4099, 47.62147
618.8920, 47.32108
619.3741, 47.25911
619.8563, 47.44824
620.3384, 47.48797
620.8205, 46.85094
621.3026, 45.96116
621.7847, 45.34259
622.2668, 45.16094
622.7490, 45.08277
623.2311, 45.14149
623.7132, 45.15306
624.1953, 44.88217
624.6774, 43.92743
625.1595, 43.12788
625.6417, 42.58164
626.1238, 42.25506
626.6059, 42.07269
627.0880, 42.05570
627.5701, 42.14220
628.0522, 42.48168
628.5344, 42.90414
629.0165, 42.33692
629.4986, 40.75570
629.9807, 39.25368
630.4628, 38.66122
630.9449, 38.67316
631.4271, 38.75407
631.9092, 38.86563
632.3913, 38.99642
632.8734, 39.21470
633.3555, 39.40958
633.8376, 39.47398
634.3198, 39.39032
634.8019, 39.15906
635.2840, 38.51710
635.7661, 37.81989
636.2482, 37.57843
636.7303, 38.24638
637.2125, 38.61398
637.6946, 38.41034
638.1767, 37.84754
638.6588, 37.55883
639.1409, 37.59576
639.6230, 37.52649
640.1052, 37.10134
640.5873, 36.46935
641.0694, 36.08911
641.5515, 35.94344
642.0336, 35.87038
642.5157, 35.77488
642.9979, 35.68245
643.4800, 35.57756
643.9621, 35.45138
644.4442, 35.50553
644.9263, 36.17532
645.4084, 36.86484
645.8906, 37.05949
646.3727, 36.26878
646.8548, 35.73996
647.3369, 35.68738
647.8190, 35.81963
648.3011, 35.74527
648.7833, 35.29866
649.2654, 35.23646
649.7475, 35.80429
650.2296, 36.65454
650.7117, 37.12348
651.1938, 37.22528
651.6760, 37.07837
652.1581, 36.60243
652.6402, 36.00835
653.1223, 35.50487
653.6044, 35.13492
654.0865, 35.05259
654.5687, 35.69558
655.0508, 36.38206
655.5329, 36.60078
656.0150, 36.29753
656.4971, 36.12962
656.9792, 36.42667
657.4614, 36.74831
657.9435, 36.83156
658.4256, 36.55711
658.9077, 36.47339
659.3898, 36.64305
659.8719, 36.89244
660.3541, 37.00299
660.8362, 36.98262
661.3183, 37.18874
661.8004, 37.75015
662.2825, 38.29247
662.7646, 38.23547
663.2468, 37.77108
663.7289, 37.37453
664.2110, 37.31531
664.6931, 37.25611
665.1752, 36.68900
665.6573, 35.94582
666.1395, 35.79744
666.6216, 37.31019
667.1037, 38.59560
667.5858, 38.86972
668.0679, 38.29918
668.5500, 38.01874
669.0322, 38.14103
669.5143, 38.32769
669.9964, 38.44100
670.4785, 38.48455
670.9606, 38.51558
671.4427, 38.53290
671.9249, 38.54646
672.4070, 38.59887
672.8891, 38.64636
673.3712, 38.58270
673.8533, 38.39006
674.3354, 38.16410
674.8176, 37.95572
675.2997, 37.75674
675.7818, 37.53784
676.2639, 37.13637
676.7460, 37.00605
677.2281, 37.50989
677.7103, 38.22962
678.1924, 38.64250
678.6745, 38.56497
679.1566, 38.59740
679.6387, 38.91103
680.1208, 39.28968
680.6030, 39.15406
681.0851, 38.51015
681.5672, 38.06106
682.0493, 38.18816
682.5314, 38.54075
683.0135, 38.43182
683.4957, 37.98664
683.9778, 37.70399
684.4599, 38.14118
684.9420, 38.60194
685.4241, 38.54597
685.9063, 37.99448
686.3884, 37.50783
686.8705, 37.30000
687.3526, 37.12873
687.8347, 36.82924
688.3168, 36.33572
688.7990, 36.29119
689.2811, 36.96132
689.7632, 37.48893
690.2453, 36.94091
690.7274, 35.44294
691.2095, 34.79392
691.6917, 35.18771
692.1738, 35.84866
692.6559, 36.01228
693.1380, 35.86359
693.6201, 35.69737
694.1022, 35.56242
694.5844, 35.47091
695.0665, 35.43940
695.5486, 35.45290
696.0307, 35.49254
696.5128, 35.85425
696.9949, 35.82432
697.4771, 34.95921
697.9592, 33.83252
698.4413, 33.76544
698.9234, 35.14846
699.4055, 36.00639
699.8876, 35.70929
700.3698, 34.66196
700.8519, 33.69026
701.3340, 32.83099
701.8161, 32.36738
702.2982, 32.76231
702.7803, 33.41817
703.2625, 33.73397
703.7446, 33.73838
704.2267, 33.59688
704.7088, 33.11308
705.1909, 32.73971
705.6730, 32.81901
706.1552, 33.41999
706.6373, 33.68097
707.1194, 33.42890
707.6015, 33.07253
708.0836, 32.86125
708.5657, 32.81278
709.0479, 32.49900
709.5300, 31.87136
710.0121, 31.27338
710.4942, 31.05082
710.9763, 31.09140
711.4584, 31.13411
711.9406, 31.14360
712.4227, 31.17135
712.9048, 31.41211
713.3869, 31.61457
713.8690, 31.48202
714.3511, 30.64534
714.8333, 30.02542
715.3154, 29.87647
715.7975, 29.99100
716.2796, 30.21593
716.7617, 30.69900
717.2438, 30.79749
717.7260, 30.28176
718.2081, 29.58959
718.6902, 29.63160
719.1723, 30.29566
719.6544, 30.69231
720.1365, 30.46623
720.6187, 29.97172
721.1008, 29.44583
721.5829, 28.97957
722.0650, 28.77341
722.5471, 29.17348
723.0292, 29.59490
723.5114, 29.75119
723.9935, 29.70463
724.4756, 29.75821
724.9577, 30.05343
725.4398, 30.23919
725.9219, 30.17536
726.4041, 29.91390
726.8862, 29.75535
727.3683, 29.70398
727.8504, 29.69100
728.3325, 29.72013
728.8146, 29.74730
729.2968, 29.60310
729.7789, 29.32006
730.2610, 29.18781
730.7431, 29.68560
731.2252, 30.18155
731.7073, 30.08444
732.1895, 29.27695
732.6716, 28.80300
733.1537, 29.18300
733.6358, 29.64163
734.1179, 29.79876
734.6000, 29.59532
735.0822, 29.40222
735.5643, 29.20217
736.0464, 29.06577
736.5285, 29.13680
737.0106, 29.33488
737.4927, 29.33981
737.9749, 29.10962
738.4570, 28.79078
738.9391, 28.39063
739.4212, 28.03364
739.9033, 27.90396
740.3854, 28.19590
740.8676, 28.32730
741.3497, 27.79780
741.8318, 27.22283
742.3139, 27.27870
742.7960, 28.39507
743.2781, 29.04864
743.7603, 29.07784
744.2424, 28.72591
744.7245, 28.21977
745.2066, 27.59784
745.6887, 27.12304
746.1708, 26.81073
746.6530, 26.78557
747.1351, 27.50892
747.6172, 28.55783
748.0993, 29.18357
748.5814, 28.84872
749.0635, 28.34942
749.5457, 27.83713
750.0278, 27.36230
750.5099, 27.03784
750.9920, 26.87133
751.4741, 26.84018
751.9562, 26.98672
752.4384, 27.23265
752.9205, 27.37623
753.4026, 27.42059
753.8847, 27.43454
754.3668, 27.40199
754.8489, 27.40122
755.3311, 27.64307
755.8132, 28.02383
756.2953, 28.23262
756.7774, 27.99257
757.2595, 27.67834
757.7416, 27.46331
758.2238, 27.33378
758.7059, 27.15485
759.1880, 26.84185
759.6701, 26.60769
760.1522, 26.52868
760.6343, 26.57868
761.1165, 26.63087
761.5986, 26.68637
762.0807, 26.71100
762.5628, 26.67872
763.0449, 26.60642
763.5270, 26.50562
764.0092, 26.38486
764.4913, 26.28736
764.9734, 26.25770
765.4555, 26.24208
765.9376, 26.15755
766.4197, 26.00270
766.9019, 26.07936
767.3840, 26.62433
767.8661, 27.07642
768.3482, 27.16328
768.8303, 26.90191
769.3124, 26.72067
769.7946, 26.63248
770.2767, 26.48575
770.7588, 26.05349
771.2409, 25.53434
771.7230, 25.31187
772.2051, 25.39016
772.6873, 25.51922
773.1694, 25.46037
773.6515, 25.47140
774.1336, 25.82558
774.6157, 26.66212
775.0978, 27.06240
775.5800, 26.75061
776.0621, 26.33954
776.5442, 26.21172
777.0263, 26.38631
777.5084, 26.38151
777.9905, 26.18295
778.4727, 25.94666
778.9548, 25.68139
779.4369, 25.51135
779.9190, 25.77584
780.4011, 26.53008
780.8832, 27.10990
781.3654, 26.90785
781.8475, 26.53910
782.3296, 26.51831
782.8117, 27.15419
783.2938, 27.27573
783.7759, 26.53577
784.2581, 25.76520
784.7402, 25.70416
785.2223, 26.35343
785.7044, 26.61017
786.1865, 26.39542
786.6686, 26.10342
787.1508, 26.12604
787.6329, 26.30821
788.1150, 26.39970
788.5971, 26.34631
789.0792, 26.31655
789.5613, 26.50687
790.0435, 26.67932
790.5256, 26.62933
791.0077, 26.27504
791.4898, 25.84654
791.9719, 25.16665
792.4540, 24.71638
792.9362, 25.17877
793.4183, 26.44309
793.9004, 27.03426
794.3825, 26.78561
794.8646, 26.38170
795.3467, 26.56421
795.8289, 26.95857
796.3110, 27.02593
796.7931, 26.59940
797.2752, 26.17871
797.7573, 25.90179
798.2394, 25.73204
798.7216, 25.64288
799.2037, 25.68093
799.6858, 25.63826
800.1679, 25.43879
800.6500, 25.33030
801.1321, 25.82741
801.6143, 26.69876
802.0964, 26.60114
802.5785, 25.27612
803.0606, 24.04523
803.5427, 24.23627
804.0248, 25.08361
804.5070, 25.79784
804.9891, 26.28127
805.4712, 26.47521
805.9533, 25.97606
806.4354, 25.47567
806.9175, 25.55643
807.3997, 26.46484
807.8818, 26.84687
808.3639, 26.58968
808.8460, 26.10397
809.3281, 25.76562
809.8102, 25.53584
810.2924, 25.29844
810.7745, 25.02802
811.2566, 24.84426
811.7387, 24.95355
812.2208, 25.11530
812.7029, 25.05027
813.1851, 24.44374
813.6672, 24.42120
814.1493, 25.46125
814.6314, 26.56765
815.1135, 26.84596
815.5956, 26.25094
816.0778, 26.03545
816.5599, 26.29252
817.0420, 26.57191
817.5241, 26.30981
818.0062, 25.83703
818.4883, 25.73166
818.9705, 26.12613
819.4526, 26.39946
819.9347, 26.07488
820.4168, 25.65217
820.8989, 25.53182
821.3810, 25.83648
821.8632, 25.95786
822.3453, 25.84797
822.8274, 25.65924
823.3095, 25.43116
823.7916, 25.20947
824.2737, 25.33905
824.7559, 25.83943
825.2380, 26.33252
825.7201, 26.53777
826.2022, 26.56433
826.6843, 26.48821
827.1664, 26.30892
827.6486, 26.13313
828.1307, 25.91802
828.6128, 25.77557
829.0949, 25.75795
829.5770, 25.86708
830.0591, 26.14427
830.5413, 26.64289
831.0234, 26.97151
831.5055, 26.63449
831.9876, 25.99053
832.4697, 25.75643
832.9518, 25.94456
833.4340, 26.24187
833.9161, 26.72662
834.3982, 27.04401
834.8803, 26.85504
835.3624, 26.09464
835.8445, 25.66958
836.3267, 25.71864
836.8088, 25.83204
837.2909, 25.79136
837.7730, 25.64474
838.2551, 25.72567
838.7372, 26.01796
839.2194, 26.25928
839.7015, 26.26391
840.1836, 26.14906
840.6657, 25.94518
841.1478, 25.69346
841.6299, 25.61960
842.1121, 26.07066
842.5942, 26.40669
843.0763, 26.36213
843.5584, 26.01952
844.0405, 25.79413
844.5226, 25.66344
845.0048, 25.84155
845.4869, 26.67609
845.9690, 27.66884
846.4511, 27.64506
846.9332, 26.89907
847.4153, 26.39668
847.8975, 26.94075
848.3796, 27.50095
848.8617, 27.70805
849.3438, 27.52931
849.8259, 26.87071
850.3080, 25.25587
850.7902, 24.25427
851.2723, 24.37119
851.7544, 25.12081
852.2365, 25.37263
852.7186, 25.24016
853.2007, 25.41822
853.6829, 26.32857
854.1650, 27.35312
854.6471, 28.17625
855.1292, 28.69303
855.6113, 28.72646
856.0934, 27.67706
856.5756, 26.86194
857.0577, 26.47969
857.5398, 26.35514
858.0219, 26.24038
858.5040, 26.13342
858.9861, 26.05113
859.4683, 25.98006
859.9504, 25.99034
860.4325, 26.24343
860.9146, 26.61720
861.3967, 26.89400
861.8788, 26.98148
862.3610, 27.07358
862.8431, 27.36984
863.3252, 27.61599
863.8073, 27.51746
864.2894, 26.76940
864.7715, 26.73619
865.2537, 27.64890
865.7358, 28.60085
866.2179, 28.57477
866.7000, 27.88757
867.1821, 27.35428
867.6642, 27.05201
868.1464, 26.96887
868.6285, 27.34331
869.1106, 27.75220
869.5927, 27.81924
870.0748, 27.39491
870.5569, 27.25140
871.0391, 27.49796
871.5212, 27.82805
872.0033, 28.07939
872.4854, 28.25902
872.9675, 28.47313
873.4496, 28.70946
873.9318, 28.73420
874.4139, 27.99326
874.8960, 27.27205
875.3781, 27.45420
875.8602, 28.42272
876.3423, 29.06098
876.8245, 28.71802
877.3066, 28.47478
877.7887, 28.74827
878.2708, 29.31956
878.7529, 29.17618
879.2350, 28.31932
879.7172, 27.50657
880.1993, 27.08726
880.6814, 26.86862
881.1635, 26.59757
881.6456, 26.33245
882.1277, 26.20913
882.6099, 26.45187
883.0920, 26.63785
883.5741, 26.65818
884.0562, 26.55312
884.5383, 26.37251
885.0204, 26.11210
885.5026, 25.77085
885.9847, 25.30010
886.4668, 24.89091
886.9489, 24.95280
887.4310, 25.24466
887.9131, 25.20842
888.3953, 24.49924
888.8774, 24.04725
889.3595, 24.61341
889.8416, 25.41272
890.3237, 25.66500
890.8058, 25.08380
891.2880, 24.77295
891.7701, 24.78708
892.2522, 24.90878
892.7343, 24.92481
893.2164, 24.89475
893.6985, 25.03521
894.1807, 25.35834
894.6628, 25.57067
895.1449, 25.34796
895.6270, 25.05774
896.1091, 24.92420
896.5912, 24.97231
897.0734, 25.17698
897.5555, 25.68912
898.0376, 25.98119
898.5197, 25.67561
899.0018, 24.99262
899.4839, 24.78800
899.9661, 24.97682
900.4482, 25.06407
900.9303, 24.63042
901.4124, 24.14131
901.8945, 23.78212
902.3766, 23.60675
902.8588, 23.79912
903.3409, 24.63977
903.8230, 25.34744
904.3051, 25.84467
904.7872, 26.07368
905.2693, 25.73647
905.7515, 24.95776
906.2336, 24.54501
906.7157, 24.86463
907.1978, 25.20269
907.6799, 24.79441
908.1620, 24.11633
908.6442, 23.75416
909.1263, 24.13168
909.6084, 24.27238
910.0905, 23.96118
910.5726, 23.67087
911.0547, 23.92125
911.5369, 24.65143
912.0190, 25.14767
912.5011, 25.36533
912.9832, 25.43598
913.4653, 25.43287
913.9474, 25.35832
914.4296, 25.15289
914.9117, 24.80230
915.3938, 24.65609
915.8759, 24.99326
916.3580, 25.20629
916.8401, 24.92206
917.3223, 24.30419
917.8044, 24.46735
918.2865, 25.35442
918.7686, 26.04758
919.2507, 25.86980
919.7328, 25.43318
920.2150, 25.26127
920.6971, 25.30685
921.1792, 25.44723
921.6613, 25.79077
922.1434, 26.03570
922.6255, 26.08331
923.1077, 26.06670
923.5898, 26.32042
924.0719, 26.80920
924.5540, 26.87877
925.0361, 26.32169
925.5182, 25.63506
926.0004, 25.14002
926.4825, 24.88601
926.9646, 24.97330
927.4467, 25.58680
927.9288, 26.06058
928.4109, 26.30081
928.8931, 26.41866
929.3752, 26.51773
929.8573, 26.59443
930.3394, 26.26577
930.8215, 25.53465
931.3036, 25.05962
931.7858, 25.66089
932.2679, 26.50790
932.7500, 26.72990
933.2321, 26.37943
933.7142, 26.17970
934.1964, 26.61858
934.6785, 26.75609
935.1606, 26.19434
935.6427, 25.26087
936.1248, 25.00069
936.6069, 25.36361
937.0891, 25.75567
937.5712, 25.99191
938.0533, 26.15942
938.5354, 26.32784
939.0175, 26.48904
939.4996, 26.62942
939.9818, 26.96423
940.4639, 26.88799
940.9460, 26.07548
941.4281, 25.28049
941.9102, 25.46252
942.3923, 26.47919
942.8745, 26.93328
943.3566, 26.71464
943.8387, 26.37624
944.3208, 26.31100
944.8029, 26.37129
945.2850, 26.39820
945.7672, 26.37433
946.2493, 26.61235
946.7314, 27.39867
947.2135, 27.94530
947.6956, 27.87381
948.1777, 27.36689
948.6599, 27.06656
949.1420, 26.94483
949.6241, 26.85121
950.1062, 26.68418
950.5883, 26.55875
951.0704, 26.54952
951.5526, 26.63884
952.0347, 26.80453
952.5168, 27.12574
952.9989, 27.33163
953.4810, 27.34945
953.9631, 27.35186
954.4453, 27.68705
954.9274, 28.19445
955.4095, 28.16318
955.8916, 27.44537
956.3737, 26.99031
956.8558, 27.83712
957.3380, 28.87036
957.8201, 29.23328
958.3022, 28.84485
958.7843, 28.45094
959.2664, 28.04638
959.7485, 27.64202
960.2307, 27.19409
960.7128, 26.78143
961.1949, 26.63396
961.6770, 26.69699
962.1591, 26.77907
962.6412, 26.71833
963.1234, 26.74043
963.6055, 27.04000
964.0876, 27.44314
964.5697, 27.66526
965.0518, 27.67974
965.5339, 27.62220
966.0161, 27.49584
966.4982, 27.35026
966.9803, 27.19653
967.4624, 27.08073
967.9445, 27.11459
968.4266, 27.33733
968.9088, 27.50849
969.3909, 27.44598
969.8730, 27.40180
970.3551, 27.55996
970.8372, 27.89361
971.3193, 27.92883
971.8015, 27.65748
972.2836, 27.30659
972.7657, 26.98940
973.2478, 26.67241
973.7299, 26.23858
974.2120, 25.77368
974.6942, 25.48501
975.1763, 25.44192
975.6584, 25.60585
976.1405, 26.11392
976.6226, 26.66616
977.1047, 26.78131
977.5869, 26.50358
978.0690, 26.29685
978.5511, 26.22803
979.0332, 26.22278
979.5153, 26.31525
979.9974, 26.37692
980.4796, 26.26812
980.9617, 25.94767
981.4438, 25.66215
981.9259, 25.41336
982.4080, 25.20709
982.8901, 25.04336
983.3723, 24.92221
983.8544, 24.76691
984.3365, 24.63467
984.8186, 24.76312
985.3007, 25.80412
985.7828, 26.54200
986.2650, 26.04001
986.7471, 24.98793
987.2292, 24.58854
987.7113, 25.08077
988.1934, 25.37003
988.6755, 25.33980
989.1577, 25.19042
989.6398, 25.08161
990.1219, 25.03061
990.6040, 25.13873
991.0861, 25.42064
991.5682, 25.51162
992.0504, 25.02000
992.5325, 24.56548
993.0146, 24.47811
993.4967, 24.66677
993.9788, 24.57150
994.4609, 24.19382
994.9431, 23.86922
995.4252, 23.73021
995.9073, 23.71332
996.3894, 23.85398
996.8715, 24.03698
997.3536, 24.07535
997.8358, 23.73466
998.3179, 23.51961
998.8000, 23.44927
999.2821, 23.49497
999.7642, 23.74954
1000.246, 24.12362
1000.728, 23.98727
1001.211, 23.33643
1001.693, 22.88570
1002.175, 23.36929
1002.657, 23.97107
1003.139, 24.15054
1003.621, 23.93975
1004.103, 23.76482
1004.585, 23.64571
1005.068, 23.48369
1005.550, 23.23823
1006.032, 22.96014
1006.514, 22.64250
1006.996, 22.36937
1007.478, 22.34441
1007.960, 22.79013
1008.442, 23.06311
1008.924, 22.70288
1009.407, 22.33036
1009.889, 22.37548
1010.371, 22.85465
1010.853, 23.33583
1011.335, 23.82548
1011.817, 24.13893
1012.299, 23.91771
1012.781, 23.66675
1013.263, 24.09903
1013.746, 24.92282
1014.228, 25.05995
1014.710, 23.81061
1015.192, 22.89139
1015.674, 22.57475
1016.156, 22.65745
1016.638, 22.95526
1017.120, 23.38931
1017.603, 23.72044
1018.085, 23.91083
1018.567, 23.99792
1019.049, 23.87594
1019.531, 23.77054
1020.013, 23.92893
1020.495, 24.32858
1020.977, 24.17259
1021.459, 23.37021
1021.942, 22.82157
1022.424, 23.06919
1022.906, 23.65606
1023.388, 24.08622
1023.870, 24.36016
1024.352, 24.47864
1024.834, 24.42339
1025.316, 24.20914
1025.799, 23.71679
1026.281, 23.24139
1026.763, 23.07272
1027.245, 23.19380
1027.727, 23.52793
1028.209, 24.06323
1028.691, 24.61756
1029.173, 25.39666
1029.656, 25.85515
1030.138, 25.29541
1030.620, 23.99884
1031.102, 23.52405
1031.584, 24.11634
1032.066, 24.53281
1032.548, 24.43115
1033.030, 24.10888
1033.512, 23.93935
1033.995, 23.88102
1034.477, 23.84906
1034.959, 23.78465
1035.441, 23.90586
1035.923, 24.55944
1036.405, 25.07148
1036.887, 24.98835
1037.369, 24.40430
1037.851, 24.20872
1038.334, 24.36230
1038.816, 24.46238
1039.298, 24.26581
1039.780, 23.95763
1040.262, 23.48178
1040.744, 23.02987
1041.226, 23.03565
1041.708, 23.85384
1042.191, 23.99372
1042.673, 23.17811
1043.155, 22.33695
1043.637, 22.59870
1044.119, 23.42350
1044.601, 23.90915
1045.083, 23.99526
1045.565, 23.98644
1046.047, 23.93369
1046.530, 23.86666
1047.012, 23.75713
1047.494, 23.66281
1047.976, 23.82310
1048.458, 24.19079
1048.940, 24.32782
1049.422, 24.01757
1049.904, 23.76690
1050.386, 24.23851
1050.869, 24.78833
1051.351, 24.62824
1051.833, 23.52170
1052.315, 23.10250
1052.797, 23.52254
1053.279, 23.93034
1053.761, 23.66793
1054.243, 23.18493
1054.726, 23.37394
1055.208, 23.98199
1055.690, 24.33979
1056.172, 23.86507
1056.654, 23.61710
1057.136, 23.87836
1057.618, 24.23474
1058.100, 24.13780
1058.583, 23.67443
1059.065, 23.47171
1059.547, 23.56931
1060.029, 23.55820
1060.511, 22.75629
1060.993, 22.13272
1061.475, 22.56702
1061.957, 23.73898
1062.439, 24.22800
1062.922, 23.92903
1063.404, 23.58354
1063.886, 23.35119
1064.368, 23.22203
1064.850, 23.28812
1065.332, 23.39898
1065.814, 23.32300
1066.296, 22.95472
1066.778, 22.68756
1067.261, 22.56600
1067.743, 22.52744
1068.225, 22.52634
1068.707, 22.58984
1069.189, 22.94361
1069.671, 23.46371
1070.153, 23.68859
1070.635, 23.07673
1071.118, 22.58587
1071.600, 22.68396
1072.082, 23.04936
1072.564, 23.45753
1073.046, 23.94325
1073.528, 23.90133
1074.010, 23.29867
1074.492, 22.66187
1074.974, 22.30519
1075.457, 22.17489
1075.939, 22.30437
1076.421, 22.63144
1076.903, 22.93092
1077.385, 23.22450
1077.867, 23.37773
1078.349, 23.34530
1078.831, 23.22539
1079.313, 23.18013
1079.796, 23.12766
1080.278, 22.85896
1080.760, 22.32622
1081.242, 21.95899
1081.724, 21.84315
1082.206, 22.03076
1082.688, 22.71047
1083.170, 23.61655
1083.652, 23.80732
1084.135, 23.40800
1084.617, 23.04664
1085.099, 22.94493
1085.581, 22.88013
1086.063, 22.63575
1086.545, 22.42956
1087.027, 22.50150
1087.509, 22.90438
1087.992, 22.98463
1088.474, 22.71753
1088.956, 22.51288
1089.438, 22.65555
1089.920, 22.95517
1090.402, 23.34459
1090.884, 23.71673
1091.366, 23.82360
1091.849, 23.37904
1092.331, 23.20977
1092.813, 23.46056
1093.295, 23.70204
1093.777, 23.29188
1094.259, 22.64112
1094.741, 22.77089
1095.223, 23.59041
1095.705, 24.07962
1096.188, 23.39200
1096.670, 22.87006
1097.152, 22.89470
1097.634, 23.22353
1098.116, 23.40032
1098.598, 23.47519
1099.080, 23.84034
1099.562, 24.61808
1100.044, 25.02039
1100.527, 24.10894
1101.009, 23.01909
1101.491, 22.50849
1101.973, 22.49718
1102.455, 22.52038
1102.937, 22.57697
1103.419, 22.71817
1103.901, 23.03037
1104.384, 23.25452
1104.866, 22.86849
1105.348, 22.37192
1105.830, 22.41428
1106.312, 23.25476
1106.794, 23.92964
1107.276, 24.47423
1107.758, 24.72084
1108.240, 24.45749
1108.723, 23.93701
1109.205, 23.45113
1109.687, 23.07554
1110.169, 22.97745
1110.651, 23.54754
1111.133, 23.90695
1111.615, 23.99694
1112.097, 23.86637
1112.579, 23.45919
1113.062, 22.87383
1113.544, 22.36677
1114.026, 21.98708
1114.508, 22.00581
1114.990, 23.02705
1115.472, 23.91811
1115.954, 24.25829
1116.436, 24.23988
1116.919, 24.07029
1117.401, 23.75982
1117.883, 23.44656
1118.365, 23.13832
1118.847, 23.04873
1119.329, 23.67556
1119.811, 24.27216
1120.293, 24.19475
1120.776, 23.62003
1121.258, 23.33045
1121.740, 23.36743
1122.222, 23.28228
1122.704, 22.93947
1123.186, 22.57325
1123.668, 22.41818
1124.150, 22.37408
1124.632, 22.33012
1125.115, 22.26948
1125.597, 22.29208
1126.079, 22.45761
1126.561, 22.48566
1127.043, 22.16047
1127.525, 21.81066
1128.007, 22.00116
1128.489, 22.54386
1128.971, 23.15053
1129.454, 23.85720
1129.936, 24.31924
1130.418, 24.52685
1130.900, 24.47730
1131.382, 24.10608
1131.864, 23.50724
1132.346, 22.79534
1132.828, 22.07721
1133.311, 21.69400
1133.793, 22.07665
1134.275, 22.40109
1134.757, 22.38424
1135.239, 22.35713
1135.721, 22.70139
1136.203, 23.33403
1136.685, 23.58621
1137.167, 23.46934
1137.650, 23.19178
1138.132, 22.63555
1138.614, 22.21813
1139.096, 22.26239
1139.578, 22.49013
1140.060, 22.51166
1140.542, 22.32353
1141.024, 22.22588
1141.506, 22.24310
1141.989, 22.33213
1142.471, 22.32314
1142.953, 22.50257
1143.435, 23.36604
1143.917, 24.57339
1144.399, 25.00300
1144.881, 24.56853
1145.363, 23.90279
1145.846, 23.06492
1146.328, 22.37477
1146.810, 22.19799
1147.292, 22.31064
1147.774, 22.52567
1148.256, 22.83072
1148.738, 23.26278
1149.220, 23.92622
1149.703, 24.30299
1150.185, 24.23751
1150.667, 23.87014
1151.149, 22.99946
1151.631, 22.13263
1152.113, 22.11817
1152.595, 23.26767
1153.077, 23.83645
1153.559, 23.51575
1154.042, 23.14866
1154.524, 23.03493
1155.006, 23.12205
1155.488, 23.63379
1155.970, 24.19279
1156.452, 23.90044
1156.934, 21.94801
1157.416, 21.04922
1157.898, 21.95827
1158.381, 23.01631
1158.863, 23.27465
1159.345, 23.03876
1159.827, 23.20784
1160.309, 23.61870
1160.791, 23.80507
1161.273, 23.32615
1161.755, 23.13082
1162.238, 23.73815
1162.720, 24.23306
1163.202, 23.69573
1163.684, 22.43845
1164.166, 22.29431
1164.648, 23.00586
1165.130, 23.43543
1165.612, 22.57732
1166.094, 21.94121
1166.577, 22.20211
1167.059, 22.68601
1167.541, 22.64978
1168.023, 22.19025
1168.505, 22.25092
1168.987, 22.80905
1169.469, 23.41678
1169.951, 24.13076
1170.433, 24.46906
1170.916, 23.87966
1171.398, 23.00231
1171.880, 22.66525
1172.362, 22.84023
1172.844, 23.03278
1173.326, 23.20241
1173.808, 23.28573
1174.290, 23.09854
1174.773, 22.95472
1175.255, 23.13206
1175.737, 23.44705
1176.219, 23.52575
1176.701, 23.36737
1177.183, 23.26567
1177.665, 23.25359
1178.147, 23.36995
1178.630, 23.94049
1179.112, 24.37691
1179.594, 24.04156
1180.076, 23.23919
1180.558, 22.96659
1181.040, 23.24266
1181.522, 23.71891
1182.004, 24.38327
1182.486, 24.85399
1182.969, 24.57889
1183.451, 24.14059
1183.933, 24.04841
1184.415, 24.25929
1184.897, 24.29148
1185.379, 24.11524
1185.861, 24.15817
1186.343, 24.62017
1186.825, 24.94808
1187.308, 24.35806
1187.790, 23.54492
1188.272, 23.19210
1188.754, 23.32924
1189.236, 23.54428
1189.718, 23.85777
1190.200, 24.02515
1190.682, 23.91534
1191.165, 23.78451
1191.647, 23.97297
1192.129, 24.24364
1192.611, 24.31809
1193.093, 24.15632
1193.575, 24.10333
1194.057, 24.19562
1194.539, 24.09233
1195.021, 23.53574
1195.504, 22.98109
1195.986, 22.92282
1196.468, 23.18522
1196.950, 23.64224
1197.432, 24.37130
1197.914, 24.56246
1198.396, 24.15464
1198.878, 23.59892
1199.360, 23.01719
1199.843, 22.54306
1200.325, 22.32631
1200.807, 22.32869
1201.289, 22.55982
1201.771, 23.12165
1202.253, 23.35551
1202.735, 23.20633
1203.217, 23.09142
1203.700, 23.30354
1204.182, 23.59801
1204.664, 23.61086
1205.146, 23.54567
1205.628, 23.81300
1206.110, 24.78384
1206.592, 24.79972
1207.074, 23.69149
1207.557, 22.70793
1208.039, 22.77921
1208.521, 23.26055
1209.003, 23.49456
1209.485, 23.60624
1209.967, 23.83254
1210.449, 24.28156
1210.931, 24.61134
1211.413, 24.83068
1211.896, 24.88380
1212.378, 24.61212
1212.860, 24.26283
1213.342, 24.02609
1213.824, 23.92997
1214.306, 24.09515
1214.788, 24.74382
1215.270, 24.82378
1215.752, 24.25430
1216.235, 23.59511
1216.717, 23.15174
1217.199, 22.91176
1217.681, 22.87316
1218.163, 23.02857
1218.645, 23.40983
1219.127, 24.16742
1219.609, 24.46407
1220.092, 24.22830
1220.574, 23.90598
1221.056, 23.65900
1221.538, 23.65859
1222.020, 24.44843
1222.502, 25.50921
1222.984, 25.60857
1223.466, 24.44106
1223.948, 23.66220
1224.431, 23.37478
1224.913, 23.40895
1225.395, 23.87263
1225.877, 24.37323
1226.359, 24.59284
1226.841, 24.59258
1227.323, 24.55532
1227.805, 24.46670
1228.287, 24.48655
1228.770, 24.63477
1229.252, 24.71298
1229.734, 24.39332
1230.216, 24.10864
1230.698, 24.33643
1231.180, 24.79330
1231.662, 24.74882
1232.144, 24.13635
1232.627, 24.06023
1233.109, 24.62960
1233.591, 25.06132
1234.073, 24.71578
1234.555, 24.09124
1235.037, 23.12724
1235.519, 22.27624
1236.001, 22.58396
1236.484, 24.04780
1236.966, 24.69161
1237.448, 24.33921
1237.930, 23.90770
1238.412, 24.02136
1238.894, 24.23749
1239.376, 24.31506
1239.858, 24.32787
1240.340, 24.47692
1240.823, 24.71997
1241.305, 24.44674
1241.787, 23.62745
1242.269, 23.05040
1242.751, 23.47829
1243.233, 23.95306
1243.715, 24.06669
1244.197, 23.97691
1244.679, 23.86508
1245.162, 23.75688
1245.644, 23.85147
1246.126, 24.14891
1246.608, 24.34494
1247.090, 24.22983
1247.572, 24.03168
1248.054, 23.75440
1248.536, 23.53603
1249.019, 23.68009
1249.501, 24.05239
1249.983, 24.18896
1250.465, 24.07311
1250.947, 24.03159
1251.429, 24.24468
1251.911, 24.52088
1252.393, 24.90767
1252.875, 25.18026
1253.358, 24.82868
1253.840, 24.19959
1254.322, 24.17532
1254.804, 24.74149
1255.286, 25.11166
1255.768, 24.99551
1256.250, 24.76015
1256.732, 24.40703
1257.214, 24.08633
1257.697, 23.95161
1258.179, 23.98886
1258.661, 24.33042
1259.143, 24.88502
1259.625, 24.98252
1260.107, 24.26286
1260.589, 23.89707
1261.071, 24.10552
1261.554, 24.46784
1262.036, 24.58347
1262.518, 24.56498
1263.000, 24.47128
1263.482, 24.35553
1263.964, 24.42813
1264.446, 24.74378
1264.928, 25.04947
1265.411, 25.32673
1265.893, 25.47211
1266.375, 25.32461
1266.857, 25.06728
1267.339, 24.81389
1267.821, 24.58599
1268.303, 24.45099
1268.785, 24.42759
1269.267, 24.13949
1269.750, 23.53122
1270.232, 23.21217
1270.714, 24.05788
1271.196, 24.90531
1271.678, 24.83266
1272.160, 24.34857
1272.642, 24.26180
1273.124, 24.54227
1273.606, 24.76443
1274.089, 24.89250
1274.571, 24.95488
1275.053, 25.04281
1275.535, 24.95395
1276.017, 24.46553
1276.499, 23.93991
1276.981, 23.93344
1277.463, 24.30041
1277.946, 24.51904
1278.428, 24.55708
1278.910, 24.47260
1279.392, 23.97804
1279.874, 23.84112
1280.356, 24.27039
1280.838, 24.92193
1281.320, 25.69706
1281.802, 26.30584
1282.285, 25.88346
1282.767, 24.67768
1283.249, 23.89910
1283.731, 24.02529
1284.213, 24.31381
1284.695, 24.76740
1285.177, 25.15524
1285.659, 25.30767
1286.141, 25.24152
1286.624, 24.70005
1287.106, 23.98456
1287.588, 24.02055
1288.070, 25.16018
1288.552, 25.70348
1289.034, 25.52740
1289.516, 25.19479
1289.998, 25.14230
1290.481, 25.10058
1290.963, 24.68633
1291.445, 24.22543
1291.927, 24.29181
1292.409, 24.92733
1292.891, 25.29876
1293.373, 25.41013
1293.855, 25.61826
1294.338, 26.49026
1294.820, 27.08379
1295.302, 26.80116
1295.784, 26.14543
1296.266, 25.38143
1296.748, 24.58110
1297.230, 24.33995
1297.712, 24.54692
1298.194, 24.69923
1298.677, 24.38502
1299.159, 24.27414
1299.641, 24.51170
1300.123, 24.85446
1300.605, 25.22350
1301.087, 25.50851
1301.569, 25.33718
1302.051, 24.87904
1302.533, 24.51726
1303.016, 24.31659
##END=



