##NAMES=Lannonite
##RRUFFID=R090036
##IDEAL CHEMISTRY=HCa_4_Mg_2_Al_4_(S^6+^O_4_)_8_F_9_&#183;32H_2_O
##LOCALITY=Lone Pine mine, Catron County, New Mexico, USA
##OWNER=RRUFF
##SOURCE=Bob Jenkins
##DESCRIPTION=Transparent colorless thin square tabular crystals on matrix
##STATUS=The identification of this mineral has been confirmed by single-crystal X-ray diffraction.
##URL=rruff.info/R090036
92.06543, 202.8261
92.54755, 202.6145
93.02966, 203.5401
93.51178, 204.1128
93.99390, 203.5367
94.47601, 202.2020
94.95813, 200.3769
95.44025, 198.1781
95.92236, 195.6605
96.40448, 192.7320
96.88660, 190.0301
97.36871, 187.6868
97.85082, 185.5691
98.33294, 183.6372
98.81506, 181.7739
99.29717, 179.5853
99.77929, 177.3720
100.2614, 175.1840
100.7435, 173.2881
101.2256, 171.8415
101.7078, 170.6763
102.1899, 169.4161
102.6720, 167.7845
103.1541, 166.3039
103.6362, 165.3666
104.1183, 164.9524
104.6005, 164.8421
105.0826, 164.9851
105.5647, 165.4382
106.0468, 165.6474
106.5289, 165.2587
107.0110, 164.6796
107.4931, 164.1425
107.9753, 163.7090
108.4574, 163.2833
108.9395, 162.6596
109.4216, 161.6240
109.9037, 160.7039
110.3858, 159.9706
110.8680, 159.3536
111.3501, 158.7896
111.8322, 158.2427
112.3143, 157.7144
112.7964, 157.2106
113.2785, 156.7226
113.7607, 156.2615
114.2428, 155.8262
114.7249, 155.4190
115.2070, 155.0376
115.6891, 154.6764
116.1712, 154.3420
116.6534, 154.0913
117.1355, 153.8987
117.6176, 153.7974
118.0997, 153.8728
118.5818, 154.1430
119.0639, 154.3890
119.5461, 154.3542
120.0282, 154.1187
120.5103, 153.9031
120.9924, 153.5908
121.4745, 153.3479
121.9566, 153.6865
122.4388, 155.1301
122.9209, 156.4049
123.4030, 156.5749
123.8851, 155.8542
124.3672, 154.9849
124.8493, 154.4572
125.3315, 154.2741
125.8136, 154.3482
126.2957, 155.1991
126.7778, 155.9221
127.2599, 155.9552
127.7420, 155.3285
128.2242, 154.6113
128.7063, 154.6344
129.1884, 155.9649
129.6705, 156.8824
130.1526, 157.3168
130.6347, 157.4555
131.1169, 157.3783
131.5990, 157.1261
132.0811, 156.7655
132.5632, 156.4419
133.0453, 156.1216
133.5274, 155.8851
134.0096, 155.6044
134.4917, 155.4374
134.9738, 155.6713
135.4559, 156.4904
135.9380, 157.6933
136.4201, 158.5720
136.9023, 158.9508
137.3844, 159.3212
137.8665, 159.8773
138.3486, 160.5972
138.8307, 161.4410
139.3128, 162.6459
139.7950, 163.8074
140.2771, 164.0733
140.7592, 162.8628
141.2413, 161.2915
141.7234, 160.6111
142.2055, 161.0253
142.6877, 161.2895
143.1698, 160.5704
143.6519, 159.3473
144.1340, 158.1153
144.6161, 157.0902
145.0982, 156.1588
145.5803, 154.9759
146.0625, 153.2653
146.5446, 151.7554
147.0267, 150.7290
147.5088, 150.0318
147.9909, 149.4533
148.4730, 148.9158
148.9552, 148.3994
149.4373, 147.5446
149.9194, 145.5204
150.4015, 143.9075
150.8836, 143.3116
151.3657, 143.5060
151.8479, 143.8936
152.3300, 143.9663
152.8121, 143.6978
153.2942, 143.2354
153.7763, 142.3858
154.2584, 141.5496
154.7406, 140.8971
155.2227, 140.4541
155.7048, 140.1868
156.1869, 140.1180
156.6690, 140.4034
157.1511, 140.1875
157.6333, 139.0208
158.1154, 137.6153
158.5975, 136.6102
159.0796, 136.1441
159.5617, 135.9381
160.0438, 135.6568
160.5260, 135.2929
161.0081, 134.9866
161.4902, 134.8323
161.9723, 134.7493
162.4544, 134.6026
162.9365, 134.3784
163.4187, 134.0465
163.9008, 133.5571
164.3829, 132.9218
164.8650, 132.2624
165.3471, 131.5666
165.8292, 130.8661
166.3113, 130.3996
166.7935, 130.3618
167.2756, 130.4541
167.7577, 130.4751
168.2398, 130.4112
168.7219, 130.2702
169.2040, 130.0963
169.6862, 129.9173
170.1683, 129.5120
170.6504, 128.5589
171.1325, 127.5559
171.6146, 126.7198
172.0967, 126.1093
172.5789, 125.7084
173.0610, 125.5407
173.5431, 125.7725
174.0252, 125.8570
174.5073, 125.7031
174.9894, 125.4518
175.4716, 125.2001
175.9537, 124.9813
176.4358, 124.7668
176.9179, 124.5050
177.4000, 124.2665
177.8821, 123.8607
178.3643, 122.8354
178.8464, 120.7249
179.3285, 122.1544
179.8106, 122.9535
180.2927, 123.1559
180.7748, 120.9748
181.2570, 121.8716
181.7391, 121.5349
182.2212, 121.1476
182.7033, 122.4775
183.1854, 120.6431
183.6675, 121.9458
184.1497, 121.9963
184.6318, 122.6199
185.1139, 122.0024
185.5960, 121.9500
186.0781, 121.9381
186.5602, 121.7208
187.0423, 121.4436
187.5245, 121.1072
188.0066, 120.8244
188.4887, 120.8447
188.9708, 121.3397
189.4529, 121.8275
189.9350, 121.9009
190.4172, 121.6075
190.8993, 121.4941
191.3814, 121.9760
191.8635, 122.6878
192.3456, 123.1069
192.8277, 123.1279
193.3099, 122.9556
193.7920, 122.7147
194.2741, 122.3755
194.7562, 122.1915
195.2383, 122.5621
195.7204, 123.0128
196.2026, 123.1041
196.6847, 122.6698
197.1668, 122.0049
197.6489, 121.4968
198.1310, 121.0948
198.6131, 121.0226
199.0953, 121.6849
199.5774, 122.5159
200.0595, 123.0039
200.5416, 122.9461
201.0237, 122.5345
201.5058, 122.1690
201.9880, 121.8068
202.4701, 121.5831
202.9522, 121.5157
203.4343, 121.5739
203.9164, 121.7593
204.3985, 122.0756
204.8807, 122.4622
205.3628, 122.7212
205.8449, 121.4528
206.3270, 122.8503
206.8091, 123.6172
207.2912, 123.7876
207.7733, 121.5744
208.2555, 122.4391
208.7376, 122.0703
209.2197, 121.6509
209.7018, 122.9488
210.1839, 121.0823
210.6660, 122.3529
211.1482, 122.3713
211.6303, 121.7189
212.1124, 121.7711
212.5945, 122.1207
213.0766, 122.3266
213.5587, 122.3191
214.0409, 122.2664
214.5230, 122.1921
215.0051, 122.0953
215.4872, 121.9641
215.9693, 121.7859
216.4514, 121.5796
216.9336, 121.4179
217.4157, 121.2179
217.8978, 121.1466
218.3799, 121.3656
218.8620, 121.7655
219.3441, 122.0866
219.8263, 122.2213
220.3084, 122.1698
220.7905, 121.9676
221.2726, 121.6293
221.7547, 121.1496
222.2368, 120.3758
222.7190, 119.4076
223.2011, 118.6550
223.6832, 118.3143
224.1653, 118.2987
224.6474, 118.4030
225.1295, 118.7110
225.6117, 118.9404
226.0938, 118.8424
226.5759, 118.4554
227.0580, 118.1027
227.5401, 117.9073
228.0222, 117.8066
228.5043, 117.6815
228.9865, 117.4962
229.4686, 117.4128
229.9507, 117.7264
230.4328, 118.4312
230.9149, 118.7824
231.3970, 118.3350
231.8792, 117.5723
232.3613, 116.8185
232.8434, 116.0969
233.3255, 115.5739
233.8076, 115.5333
234.2897, 116.0327
234.7719, 116.3432
235.2540, 116.1020
235.7361, 115.7454
236.2182, 115.5311
236.7003, 115.4958
237.1824, 115.5359
237.6646, 115.5610
238.1467, 115.5790
238.6288, 115.5349
239.1109, 115.4733
239.5930, 115.3030
240.0751, 114.8680
240.5573, 114.1918
241.0394, 113.5471
241.5215, 113.2861
242.0036, 113.5126
242.4857, 113.6979
242.9678, 113.7490
243.4500, 113.8035
243.9321, 114.0388
244.4142, 114.4084
244.8963, 114.6297
245.3784, 114.2624
245.8605, 112.9951
246.3427, 112.3011
246.8248, 112.6384
247.3069, 113.1232
247.7890, 113.4197
248.2711, 113.4630
248.7532, 113.3035
249.2354, 112.9621
249.7175, 112.3710
250.1996, 111.8967
250.6817, 111.4240
251.1638, 111.1480
251.6459, 111.3650
252.1281, 111.9400
252.6102, 112.3763
253.0923, 112.1437
253.5744, 111.0779
254.0565, 110.3663
254.5386, 110.1209
255.0208, 110.0495
255.5029, 110.1255
255.9850, 110.2795
256.4671, 110.3618
256.9492, 110.2255
257.4313, 109.8402
257.9135, 109.5958
258.3956, 109.5096
258.8777, 109.5099
259.3598, 109.6053
259.8419, 109.7685
260.3240, 109.9403
260.8062, 110.0807
261.2883, 110.1898
261.7704, 110.2521
262.2525, 110.3316
262.7346, 110.3168
263.2167, 110.1226
263.6989, 109.7920
264.1810, 109.4071
264.6631, 108.9781
265.1452, 108.5509
265.6273, 108.5381
266.1094, 109.4676
266.5916, 110.1622
267.0737, 110.0205
267.5558, 109.3095
268.0379, 108.6550
268.5200, 108.3817
269.0021, 108.4363
269.4843, 108.6057
269.9664, 109.0434
270.4485, 109.3861
270.9306, 109.4343
271.4127, 109.3048
271.8948, 109.2630
272.3770, 109.4488
272.8591, 109.7467
273.3412, 109.8565
273.8233, 109.7764
274.3054, 109.5790
274.7875, 109.1130
275.2697, 108.5626
275.7518, 108.3391
276.2339, 108.6530
276.7160, 109.1753
277.1981, 109.1898
277.6802, 108.5571
278.1623, 108.1929
278.6444, 108.5643
279.1266, 109.3250
279.6087, 109.9051
280.0908, 110.1593
280.5729, 110.2122
281.0550, 110.1782
281.5371, 110.0581
282.0193, 109.9575
282.5014, 109.8936
282.9835, 109.8681
283.4656, 109.9034
283.9477, 110.0150
284.4298, 110.1185
284.9120, 110.0602
285.3941, 109.8726
285.8762, 109.8503
286.3583, 110.2472
286.8404, 110.7512
287.3225, 110.9573
287.8047, 110.8085
288.2868, 110.5589
288.7689, 110.3658
289.2510, 110.2323
289.7331, 110.1683
290.2152, 110.2877
290.6974, 110.4110
291.1795, 110.2909
291.6616, 109.9138
292.1437, 109.6122
292.6258, 109.6109
293.1079, 109.8370
293.5901, 110.1127
294.0722, 110.5764
294.5543, 110.9127
295.0364, 110.7744
295.5185, 110.1857
296.0006, 109.5865
296.4828, 109.1431
296.9649, 108.8404
297.4470, 108.6332
297.9291, 108.5546
298.4112, 108.4904
298.8933, 108.3684
299.3755, 108.1934
299.8576, 107.9880
300.3397, 107.7449
300.8218, 107.4889
301.3039, 107.2437
301.7860, 107.0057
302.2682, 106.8060
302.7503, 106.6254
303.2324, 106.4899
303.7145, 106.5558
304.1966, 107.0376
304.6787, 107.4125
305.1609, 106.9573
305.6430, 105.7794
306.1251, 104.8429
306.6072, 104.6770
307.0893, 105.0312
307.5714, 105.4343
308.0536, 105.9104
308.5357, 106.2217
309.0178, 105.9672
309.4999, 105.3559
309.9820, 104.9579
310.4641, 105.0700
310.9463, 105.4567
311.4284, 105.8261
311.9105, 106.1904
312.3926, 106.4293
312.8747, 106.4532
313.3568, 106.2918
313.8390, 105.9573
314.3211, 105.2718
314.8032, 104.6010
315.2853, 104.3184
315.7674, 104.4287
316.2495, 104.7485
316.7317, 105.3746
317.2138, 106.0686
317.6959, 106.4796
318.1780, 106.5488
318.6601, 106.4215
319.1422, 106.1102
319.6243, 105.6493
320.1064, 105.2837
320.5886, 105.0800
321.0707, 105.0237
321.5528, 105.1590
322.0349, 105.5161
322.5170, 105.6795
322.9991, 105.2598
323.4813, 104.4677
323.9634, 103.9250
324.4455, 103.8205
324.9276, 103.8231
325.4097, 103.6136
325.8918, 103.2275
326.3740, 102.8031
326.8561, 102.2616
327.3382, 101.7531
327.8203, 101.5867
328.3024, 101.8534
328.7845, 102.1098
329.2667, 101.9562
329.7488, 101.5350
330.2309, 101.1911
330.7130, 101.0439
331.1951, 100.9619
331.6772, 100.7580
332.1594, 100.4363
332.6415, 100.2983
333.1236, 100.6618
333.6057, 101.2384
334.0878, 101.4056
334.5699, 100.9697
335.0521, 100.4433
335.5342, 100.1133
336.0163, 99.95937
336.4984, 99.90331
336.9805, 99.96461
337.4626, 100.0496
337.9448, 100.0135
338.4269, 99.85230
338.9090, 99.64895
339.3911, 99.39473
339.8732, 99.12801
340.3553, 98.92824
340.8375, 98.81738
341.3196, 98.75083
341.8017, 98.70432
342.2838, 98.67416
342.7659, 98.59399
343.2480, 98.36575
343.7302, 98.12917
344.2123, 98.06193
344.6944, 98.17497
345.1765, 98.30029
345.6586, 98.30849
346.1407, 98.21901
346.6229, 98.18287
347.1050, 98.35997
347.5871, 98.44770
348.0692, 98.13278
348.5513, 97.53521
349.0334, 97.12617
349.5156, 97.18085
349.9977, 97.52973
350.4798, 97.70494
350.9619, 97.63100
351.4440, 97.57275
351.9261, 97.63433
352.4083, 97.76089
352.8904, 97.87904
353.3725, 97.97221
353.8546, 98.01234
354.3367, 97.95870
354.8188, 97.81101
355.3010, 97.56358
355.7831, 96.98755
356.2652, 96.45336
356.7473, 96.38882
357.2294, 96.80588
357.7115, 97.24443
358.1937, 97.26067
358.6758, 96.83155
359.1579, 96.75791
359.6400, 97.56735
360.1221, 98.18607
360.6042, 97.91063
361.0863, 96.99694
361.5685, 96.17012
362.0506, 95.84082
362.5327, 95.89341
363.0148, 95.85933
363.4969, 95.52498
363.9790, 95.37614
364.4612, 95.56813
364.9433, 95.94988
365.4254, 96.43621
365.9075, 96.98544
366.3896, 97.38147
366.8717, 97.24631
367.3539, 96.22134
367.8360, 95.45974
368.3181, 94.97825
368.8002, 94.72571
369.2823, 94.76340
369.7644, 95.03268
370.2466, 95.31457
370.7287, 95.38596
371.2108, 95.21959
371.6929, 95.33404
372.1750, 96.28945
372.6571, 96.90819
373.1393, 96.59499
373.6214, 95.74036
374.1035, 95.01348
374.5856, 94.78315
375.0677, 94.93997
375.5498, 95.14811
376.0320, 95.57768
376.5141, 95.78939
376.9962, 95.61658
377.4783, 95.30594
377.9604, 95.05925
378.4425, 94.93008
378.9247, 94.85783
379.4068, 94.74111
379.8889, 94.52502
380.3710, 94.46081
380.8531, 94.62826
381.3352, 94.87659
381.8174, 95.20486
382.2995, 95.56788
382.7816, 95.87634
383.2637, 96.07018
383.7458, 96.15090
384.2279, 96.10483
384.7101, 95.78790
385.1922, 95.56676
385.6743, 95.56946
386.1564, 95.70821
386.6385, 95.89148
387.1206, 96.09041
387.6028, 96.28320
388.0849, 96.47098
388.5670, 96.69003
389.0491, 96.72342
389.5312, 96.27682
390.0133, 95.79668
390.4955, 95.60092
390.9776, 95.70115
391.4597, 95.85091
391.9418, 95.83469
392.4239, 95.69133
392.9060, 95.67461
393.3882, 95.89763
393.8703, 96.07629
394.3524, 95.98698
394.8345, 95.72275
395.3166, 95.46507
395.7987, 95.17456
396.2809, 95.00925
396.7630, 95.37092
397.2451, 96.31963
397.7272, 96.87919
398.2093, 96.34016
398.6914, 95.30765
399.1736, 94.76709
399.6557, 94.85467
400.1378, 95.07834
400.6199, 95.16030
401.1020, 95.15427
401.5841, 95.23625
402.0662, 95.48614
402.5483, 95.71094
403.0305, 95.64401
403.5126, 95.30676
403.9947, 94.96971
404.4768, 94.62771
404.9589, 94.34046
405.4410, 94.15617
405.9232, 94.07966
406.4053, 94.10758
406.8874, 94.23190
407.3695, 94.46465
407.8516, 94.85738
408.3337, 95.66177
408.8159, 96.31129
409.2980, 96.58073
409.7801, 96.59644
410.2622, 96.56543
410.7443, 96.55939
411.2264, 96.49901
411.7086, 96.22415
412.1907, 95.49655
412.6728, 95.18523
413.1549, 95.46524
413.6370, 96.00510
414.1191, 96.76146
414.6013, 97.61105
415.0834, 98.23956
415.5655, 98.37804
416.0476, 98.05453
416.5297, 97.74891
417.0118, 97.14223
417.4940, 96.93192
417.9761, 97.59314
418.4582, 98.58704
418.9403, 99.16934
419.4224, 99.07150
419.9045, 98.74825
420.3867, 99.05257
420.8688, 100.3175
421.3509, 101.3195
421.8330, 101.9116
422.3151, 102.3245
422.7972, 102.5899
423.2794, 102.7636
423.7615, 102.9733
424.2436, 103.3557
424.7257, 103.8654
425.2078, 104.1781
425.6899, 104.1478
426.1721, 104.1747
426.6542, 104.5000
427.1363, 104.9174
427.6184, 105.0888
428.1005, 104.8336
428.5826, 104.6949
429.0648, 105.5340
429.5469, 107.3740
430.0290, 108.7997
430.5111, 109.3511
430.9932, 109.5343
431.4753, 109.7260
431.9575, 109.9445
432.4396, 110.3328
432.9217, 111.0988
433.4038, 112.0284
433.8859, 112.7410
434.3680, 113.1969
434.8502, 113.6119
435.3323, 114.0426
435.8144, 114.5573
436.2965, 115.3294
436.7786, 116.6178
437.2607, 117.7804
437.7429, 118.4115
438.2250, 118.6600
438.7071, 118.8257
439.1892, 118.9785
439.6713, 119.1879
440.1534, 119.5888
440.6356, 120.2630
441.1177, 120.7426
441.5998, 120.7571
442.0819, 120.7620
442.5640, 121.2153
443.0461, 122.0056
443.5282, 122.5906
444.0103, 122.5743
444.4925, 122.0832
444.9746, 121.8243
445.4567, 121.9354
445.9388, 122.1161
446.4209, 122.3018
446.9030, 122.5596
447.3852, 122.9926
447.8673, 123.6120
448.3494, 124.3092
448.8315, 124.9840
449.3136, 125.6889
449.7957, 126.0988
450.2779, 125.8862
450.7600, 125.6969
451.2421, 125.7064
451.7242, 125.9064
452.2063, 126.3057
452.6884, 126.9707
453.1706, 127.6655
453.6527, 127.7282
454.1348, 126.8915
454.6169, 126.2699
455.0990, 126.5723
455.5811, 126.9004
456.0633, 126.6138
456.5454, 125.6624
457.0275, 124.4664
457.5096, 123.2565
457.9917, 122.0421
458.4738, 120.8826
458.9560, 119.8578
459.4381, 118.6621
459.9202, 116.9085
460.4023, 114.8639
460.8844, 113.0130
461.3665, 111.4987
461.8487, 110.1184
462.3308, 108.7638
462.8129, 107.4244
463.2950, 106.0436
463.7771, 104.5642
464.2592, 103.1177
464.7414, 101.8975
465.2235, 100.9227
465.7056, 99.98821
466.1877, 98.85316
466.6698, 97.90539
467.1519, 97.61924
467.6341, 97.86858
468.1162, 98.03010
468.5983, 97.68303
469.0804, 96.96468
469.5625, 96.51954
470.0446, 96.79012
470.5268, 96.77363
471.0089, 96.11002
471.4910, 95.29274
471.9731, 94.79095
472.4552, 94.68713
472.9373, 94.76904
473.4195, 94.87294
473.9016, 95.03321
474.3837, 94.73991
474.8658, 93.31213
475.3479, 92.17893
475.8300, 91.90134
476.3122, 92.11191
476.7943, 92.27576
477.2764, 92.17172
477.7585, 91.95384
478.2406, 91.83639
478.7227, 91.82055
479.2049, 91.90695
479.6870, 92.21090
480.1691, 92.50016
480.6512, 92.64300
481.1333, 92.63657
481.6154, 92.48633
482.0976, 92.04467
482.5797, 91.52676
483.0618, 91.33218
483.5439, 91.47440
484.0260, 91.54008
484.5081, 91.30782
484.9902, 90.88329
485.4724, 90.46391
485.9545, 89.96455
486.4366, 89.70542
486.9187, 90.13926
487.4008, 90.72459
487.8829, 90.62951
488.3651, 89.75968
488.8472, 88.78224
489.3293, 88.29504
489.8114, 88.29038
490.2935, 88.14211
490.7756, 87.60656
491.2578, 87.23793
491.7399, 87.39048
492.2220, 87.72811
492.7041, 87.77332
493.1862, 87.37516
493.6683, 86.79221
494.1505, 86.40359
494.6326, 86.27135
495.1147, 86.09237
495.5968, 85.23772
496.0789, 85.68997
496.5610, 85.89402
497.0432, 85.86340
497.5253, 84.88342
498.0074, 85.13858
498.4895, 84.90437
498.9716, 84.65394
499.4537, 85.09441
499.9359, 84.27313
500.4180, 84.71075
500.9001, 84.65146
501.3822, 84.82543
501.8643, 84.50698
502.3464, 84.34588
502.8286, 84.68537
503.3107, 84.75392
503.7928, 84.39438
504.2749, 84.60699
504.7570, 83.80852
505.2391, 83.90482
505.7213, 84.38947
506.2034, 84.07494
506.6855, 84.31670
507.1676, 84.35214
507.6497, 83.43570
508.1318, 84.18566
508.6140, 84.22070
509.0961, 83.52158
509.5782, 84.22661
510.0603, 83.63728
510.5424, 83.51540
511.0245, 83.74630
511.5067, 83.61763
511.9888, 84.06621
512.4709, 83.96656
512.9530, 83.82159
513.4351, 83.81164
513.9172, 83.78349
514.3994, 83.75021
514.8815, 83.76436
515.3636, 83.83546
515.8457, 83.83150
516.3278, 83.75164
516.8099, 83.59032
517.2921, 83.19148
517.7742, 82.76181
518.2563, 82.69191
518.7384, 83.22318
519.2205, 83.76172
519.7026, 83.44917
520.1848, 82.43696
520.6669, 81.97494
521.1490, 82.49907
521.6311, 83.27649
522.1132, 83.61008
522.5953, 83.56165
523.0775, 83.35572
523.5596, 82.82546
524.0417, 82.33251
524.5238, 82.20164
525.0059, 82.32268
525.4880, 82.34363
525.9702, 82.10654
526.4523, 81.81065
526.9344, 81.81551
527.4165, 82.31862
527.8986, 82.60826
528.3807, 82.58913
528.8629, 82.46618
529.3450, 82.26481
529.8271, 82.05577
530.3092, 81.98089
530.7913, 82.13221
531.2734, 82.39631
531.7556, 82.47218
532.2377, 82.25600
532.7198, 82.14602
533.2019, 82.28132
533.6840, 82.47130
534.1661, 82.63230
534.6483, 82.75792
535.1304, 82.85818
535.6125, 82.89414
536.0946, 82.93641
536.5767, 83.13798
537.0588, 83.50631
537.5410, 83.87717
538.0231, 84.20316
538.5052, 84.47949
538.9873, 84.75262
539.4694, 85.06828
539.9515, 85.09673
540.4337, 84.43324
540.9158, 83.65044
541.3979, 83.33826
541.8800, 83.47903
542.3621, 83.74850
542.8442, 83.97546
543.3264, 84.13416
543.8085, 84.13086
544.2906, 83.63878
544.7726, 83.44808
545.2548, 83.65285
545.7369, 84.09224
546.2190, 84.82438
546.7011, 85.71177
547.1832, 86.36765
547.6653, 86.44498
548.1475, 86.10342
548.6296, 85.96951
549.1117, 86.08286
549.5938, 86.29822
550.0759, 86.80286
550.5580, 87.24271
551.0402, 87.23946
551.5223, 86.79698
552.0044, 86.46326
552.4865, 86.55703
552.9686, 86.96478
553.4507, 87.58665
553.9329, 88.41911
554.4150, 89.10800
554.8971, 89.46847
555.3792, 89.56163
555.8613, 89.51124
556.3434, 89.26297
556.8256, 89.03835
557.3077, 88.88663
557.7898, 88.77044
558.2719, 88.62057
558.7540, 88.46176
559.2361, 88.40737
559.7183, 88.53460
560.2004, 88.83066
560.6825, 89.29158
561.1646, 90.32986
561.6467, 90.79324
562.1288, 90.09232
562.6110, 89.23540
563.0931, 88.98316
563.5752, 89.30539
564.0573, 89.64068
564.5394, 89.62529
565.0215, 89.33094
565.5037, 88.86146
565.9858, 88.15900
566.4679, 87.66279
566.9500, 87.65238
567.4321, 87.83472
567.9142, 87.82845
568.3964, 87.62717
568.8785, 87.34605
569.3606, 86.85397
569.8427, 86.41520
570.3248, 86.44135
570.8069, 86.82781
571.2891, 86.97622
571.7712, 86.52600
572.2533, 85.74205
572.7354, 85.29984
573.2175, 85.58942
573.6996, 85.52477
574.1818, 84.69445
574.6639, 83.89564
575.1460, 83.59725
575.6281, 83.74731
576.1102, 84.12399
576.5923, 84.63548
577.0745, 85.16641
577.5566, 85.46620
578.0387, 85.52003
578.5208, 85.41188
579.0029, 85.01508
579.4850, 84.60812
579.9672, 84.37869
580.4493, 84.31399
580.9314, 84.34873
581.4135, 84.37417
581.8956, 84.55956
582.3777, 85.37224
582.8599, 86.54992
583.3420, 86.96713
583.8241, 86.13447
584.3062, 84.91658
584.7883, 84.49718
585.2704, 85.09000
585.7526, 85.46799
586.2347, 85.62849
586.7168, 85.59673
587.1989, 85.13831
587.6810, 84.56882
588.1631, 84.42566
588.6453, 84.89133
589.1274, 85.57759
589.6095, 85.94283
590.0916, 85.95937
590.5737, 85.89890
591.0558, 85.66786
591.5380, 85.50152
592.0201, 85.70586
592.5022, 85.97733
592.9843, 85.77356
593.4664, 84.82757
593.9485, 83.91670
594.4307, 83.64170
594.9128, 83.84885
595.3949, 84.26509
595.8770, 84.86063
596.3591, 85.39225
596.8412, 85.69845
597.3234, 85.78181
597.8055, 85.64256
598.2876, 85.18606
598.7697, 84.67130
599.2518, 83.94116
599.7339, 83.29764
600.2161, 83.07546
600.6982, 83.26444
601.1803, 83.59426
601.6624, 83.88396
602.1445, 84.10627
602.6266, 84.08149
603.1088, 83.64315
603.5909, 83.39108
604.0730, 83.66008
604.5551, 84.04235
605.0372, 84.29831
605.5193, 84.40397
606.0015, 84.33511
606.4836, 83.80761
606.9657, 83.27254
607.4478, 83.44944
607.9299, 84.20943
608.4120, 84.76222
608.8942, 84.79283
609.3763, 84.48073
609.8584, 84.05959
610.3405, 83.46196
610.8226, 83.02527
611.3047, 82.63643
611.7869, 82.51922
612.2690, 83.04180
612.7511, 83.83192
613.2332, 84.26492
613.7153, 84.11098
614.1974, 83.71688
614.6796, 83.54475
615.1617, 83.60506
615.6438, 83.64421
616.1259, 83.57378
616.6080, 83.62553
617.0901, 83.95008
617.5723, 84.45662
618.0544, 85.10034
618.5365, 85.98720
619.0186, 86.58381
619.5007, 86.24321
619.9828, 85.54834
620.4650, 85.55854
620.9471, 86.33006
621.4292, 86.99070
621.9113, 86.90775
622.3934, 86.31869
622.8755, 86.13936
623.3577, 86.76696
623.8398, 87.24942
624.3219, 87.56201
624.8040, 87.73899
625.2861, 87.79473
625.7682, 87.73322
626.2504, 87.51677
626.7325, 87.06773
627.2145, 86.60471
627.6967, 86.59628
628.1788, 87.06532
628.6609, 87.45016
629.1430, 87.61198
629.6251, 87.71004
630.1072, 87.92809
630.5894, 88.21364
631.0715, 88.35783
631.5536, 88.35217
632.0357, 88.17455
632.5178, 87.68025
632.9999, 87.05211
633.4821, 86.60898
633.9642, 86.40674
634.4463, 86.20934
634.9284, 85.75918
635.4105, 85.09225
635.8926, 84.78288
636.3748, 85.15288
636.8569, 85.37341
637.3390, 85.32993
637.8211, 85.08064
638.3032, 84.56086
638.7853, 83.83466
639.2675, 83.22160
639.7496, 83.03432
640.2317, 83.01485
640.7138, 82.65356
641.1959, 81.99326
641.6780, 81.63155
642.1602, 81.87440
642.6423, 82.23420
643.1244, 82.01725
643.6065, 81.07878
644.0886, 80.47763
644.5707, 80.47842
645.0529, 80.52112
645.5350, 80.37988
646.0171, 80.13560
646.4992, 79.90633
646.9813, 79.73003
647.4634, 79.59080
647.9456, 79.50203
648.4277, 79.44933
648.9098, 79.24693
649.3919, 78.84579
649.8740, 78.42178
650.3561, 78.01264
650.8383, 77.17768
651.3204, 77.57719
651.8025, 77.72449
652.2846, 77.63313
652.7667, 76.58834
653.2488, 76.77473
653.7310, 76.46767
654.2131, 76.14043
654.6952, 76.50008
655.1773, 75.59397
655.6594, 75.94272
656.1415, 75.79058
656.6237, 75.86762
657.1058, 75.44830
657.5879, 75.18229
658.0700, 75.41287
658.5521, 75.36849
659.0342, 74.89202
659.5164, 74.98364
659.9985, 74.06021
660.4806, 74.02753
660.9627, 74.37920
661.4448, 73.92766
661.9269, 74.02843
662.4091, 73.91879
662.8912, 72.85332
663.3733, 73.45023
663.8554, 73.32820
664.3375, 72.46799
664.8196, 73.00796
665.3018, 72.24947
665.7839, 71.95449
666.2660, 72.08498
666.7481, 72.26100
667.2302, 72.53324
667.7123, 72.62572
668.1945, 72.44045
668.6766, 72.16238
669.1587, 72.08295
669.6408, 72.17355
670.1229, 71.93332
670.6050, 71.21982
671.0872, 70.55833
671.5693, 70.14597
672.0514, 69.99147
672.5335, 70.15554
673.0156, 70.74194
673.4977, 71.13622
673.9799, 71.03413
674.4620, 70.76572
674.9441, 70.60198
675.4262, 70.51255
675.9083, 70.30728
676.3904, 69.90014
676.8726, 69.51160
677.3547, 69.56097
677.8368, 70.15896
678.3189, 70.44753
678.8010, 70.20898
679.2831, 69.97517
679.7653, 70.11991
680.2474, 70.30821
680.7295, 69.99613
681.2116, 69.03920
681.6937, 68.36170
682.1758, 68.83866
682.6580, 69.66367
683.1401, 69.69151
683.6222, 69.02120
684.1043, 68.49569
684.5864, 68.51969
685.0685, 68.77261
685.5507, 68.66924
686.0328, 68.04207
686.5149, 67.72988
686.9970, 68.02351
687.4791, 68.31129
687.9612, 68.50721
688.4434, 68.55425
688.9255, 68.30197
689.4076, 67.72909
689.8897, 67.25796
690.3718, 67.33503
690.8539, 67.69664
691.3361, 67.78859
691.8182, 67.61221
692.3003, 67.53064
692.7824, 67.71703
693.2645, 68.03526
693.7466, 68.30004
694.2288, 68.55949
694.7109, 68.54055
695.1930, 67.98398
695.6751, 67.47160
696.1572, 67.15929
696.6393, 67.02962
697.1215, 67.10525
697.6036, 67.36406
698.0857, 67.61446
698.5678, 67.72432
699.0499, 67.68919
699.5320, 67.44418
700.0142, 66.97886
700.4963, 66.55637
700.9784, 66.25465
701.4605, 66.07166
701.9426, 66.04241
702.4247, 66.19894
702.9069, 66.25182
703.3890, 66.02910
703.8711, 65.89648
704.3532, 66.15421
704.8353, 66.49970
705.3174, 66.05203
705.7996, 66.59159
706.2817, 66.87896
706.7638, 66.92768
707.2459, 66.02297
707.7280, 66.34942
708.2101, 66.18248
708.6923, 65.99529
709.1743, 66.49503
709.6564, 65.72900
710.1385, 66.21783
710.6207, 66.20573
711.1028, 66.42290
711.5849, 66.14364
712.0670, 66.01771
712.5491, 66.38837
713.0313, 66.48406
713.5134, 66.14765
713.9955, 66.37939
714.4776, 65.59602
714.9597, 65.70343
715.4418, 66.19517
715.9240, 65.88371
716.4061, 66.12453
716.8882, 66.15501
717.3703, 65.22961
717.8524, 65.96659
718.3345, 65.98465
718.8167, 65.26451
719.2988, 65.94453
719.7809, 65.32618
720.2630, 65.17126
720.7451, 65.36511
721.2272, 65.19539
721.7094, 65.59888
722.1915, 65.45015
722.6736, 65.25208
723.1557, 65.26933
723.6378, 64.67643
724.1199, 65.07951
724.6021, 64.33811
725.0842, 63.84395
725.5663, 63.72863
726.0484, 63.78399
726.5305, 63.99713
727.0126, 64.26344
727.4948, 64.32972
727.9769, 64.05514
728.4590, 63.97821
728.9411, 64.54987
729.4232, 65.13882
729.9053, 65.10906
730.3875, 64.65358
730.8696, 64.34029
731.3517, 64.40964
731.8338, 64.64127
732.3159, 64.72379
732.7980, 64.65762
733.2802, 64.68217
733.7623, 64.85979
734.2444, 64.95042
734.7265, 64.81686
735.2086, 64.56670
735.6907, 64.30434
736.1729, 64.01502
736.6550, 63.92714
737.1371, 64.26665
737.6192, 64.63572
738.1013, 64.83364
738.5834, 64.88752
739.0656, 64.83495
739.5477, 64.69803
740.0298, 64.53059
740.5119, 64.37332
740.9940, 64.23318
741.4761, 64.13800
741.9583, 64.08784
742.4404, 64.09210
742.9225, 64.20285
743.4046, 64.29990
743.8867, 64.20973
744.3688, 63.97979
744.8510, 63.89050
745.3331, 64.21024
745.8152, 64.36561
746.2973, 63.92735
746.7794, 63.39815
747.2615, 63.33886
747.7437, 63.71660
748.2258, 64.15625
748.7079, 64.45143
749.1900, 64.57927
749.6721, 64.42146
750.1542, 63.98457
750.6364, 63.67737
751.1185, 63.53603
751.6006, 63.58506
752.0827, 64.05235
752.5648, 64.63999
753.0469, 64.42831
753.5291, 62.88348
754.0112, 62.02464
754.4933, 62.61735
754.9754, 63.46575
755.4575, 63.95597
755.9396, 64.13047
756.4218, 64.17673
756.9039, 64.15699
757.3860, 64.01155
757.8681, 63.51970
758.3502, 62.85427
758.8323, 62.75420
759.3145, 63.25260
759.7966, 63.49434
760.2787, 63.02711
760.7608, 62.49321
761.2429, 62.79924
761.7250, 64.06065
762.2072, 64.80018
762.6893, 64.68369
763.1714, 64.51621
763.6535, 64.51859
764.1356, 64.52665
764.6177, 64.35877
765.0999, 64.03305
765.5820, 63.71205
766.0641, 63.48378
766.5462, 63.30973
767.0283, 63.07061
767.5104, 62.83489
767.9926, 62.96083
768.4747, 63.51774
768.9568, 63.95423
769.4389, 63.83036
769.9210, 63.35902
770.4031, 63.27068
770.8853, 63.98949
771.3674, 64.25730
771.8495, 63.66926
772.3316, 63.08742
772.8137, 62.78129
773.2958, 62.75206
773.7780, 63.05606
774.2601, 63.72557
774.7422, 64.31237
775.2243, 64.62118
775.7064, 64.62921
776.1885, 64.12189
776.6707, 63.26896
777.1528, 62.62947
777.6349, 62.39808
778.1170, 62.46077
778.5991, 62.73254
779.0812, 63.19286
779.5634, 63.39800
780.0455, 63.26697
780.5276, 63.05382
781.0097, 62.62104
781.4918, 62.30493
781.9739, 62.49596
782.4561, 63.05172
782.9382, 63.36517
783.4203, 63.18599
783.9024, 62.90930
784.3845, 62.62658
784.8666, 62.40827
785.3488, 62.33807
785.8309, 62.41515
786.3130, 62.64053
786.7951, 63.02880
787.2772, 63.39547
787.7593, 63.35490
788.2415, 62.92075
788.7236, 62.67639
789.2057, 62.68712
789.6878, 62.75597
790.1699, 62.83424
790.6520, 62.87569
791.1342, 62.75405
791.6162, 62.40833
792.0983, 62.27531
792.5804, 62.60314
793.0626, 62.88514
793.5447, 62.94484
794.0268, 62.83790
794.5089, 62.60589
794.9910, 62.27752
795.4731, 61.89271
795.9553, 61.34269
796.4374, 60.94231
796.9195, 61.43864
797.4016, 62.56562
797.8837, 63.02742
798.3658, 62.56973
798.8480, 62.00813
799.3301, 61.94225
799.8122, 62.21553
800.2943, 62.29927
800.7764, 62.03712
801.2585, 61.92253
801.7407, 62.16590
802.2228, 62.33454
802.7049, 62.06333
803.1870, 61.70700
803.6691, 61.86462
804.1512, 62.66403
804.6334, 63.30992
805.1155, 63.29521
805.5976, 63.05115
806.0797, 62.94151
806.5618, 62.92777
807.0439, 62.89006
807.5261, 62.79755
808.0082, 62.70990
808.4903, 62.70895
808.9724, 62.72845
809.4545, 62.44400
809.9366, 61.77220
810.4188, 61.37418
810.9009, 61.45634
811.3830, 61.65712
811.8651, 61.68221
812.3472, 61.61759
812.8293, 61.79782
813.3115, 62.49865
813.7936, 62.85426
814.2757, 62.36905
814.7578, 61.87438
815.2399, 61.94044
815.7220, 62.33627
816.2042, 62.64642
816.6863, 62.74723
817.1684, 62.73502
817.6505, 62.64366
818.1326, 62.51551
818.6147, 62.43967
819.0969, 62.40355
819.5790, 62.36348
820.0611, 62.31224
820.5432, 62.12373
821.0253, 61.63069
821.5074, 60.91265
821.9896, 60.50720
822.4717, 60.49144
822.9538, 60.61265
823.4359, 61.07355
823.9180, 61.41644
824.4001, 61.22640
824.8823, 60.78986
825.3644, 60.69004
825.8465, 61.10316
826.3286, 61.48963
826.8107, 61.75216
827.2928, 61.81297
827.7750, 61.46820
828.2571, 60.91124
828.7392, 60.43465
829.2213, 60.15302
829.7034, 60.19424
830.1855, 60.83390
830.6677, 61.77444
831.1498, 62.14183
831.6319, 61.94731
832.1140, 61.56630
832.5961, 61.00782
833.0782, 60.62030
833.5604, 60.72897
834.0425, 61.21838
834.5246, 61.60457
835.0067, 61.92704
835.4888, 62.06603
835.9709, 61.86920
836.4531, 61.66734
836.9352, 61.60713
837.4173, 61.63123
837.8994, 61.68063
838.3815, 61.74564
838.8636, 61.69355
839.3458, 61.37093
839.8279, 60.97979
840.3100, 60.62130
840.7921, 60.35739
841.2742, 60.30758
841.7563, 60.48672
842.2385, 60.84361
842.7206, 61.39407
843.2027, 61.94796
843.6848, 61.92212
844.1669, 61.30228
844.6490, 60.91165
845.1312, 60.91079
845.6133, 60.92913
846.0954, 60.73586
846.5775, 60.42809
847.0596, 60.19759
847.5417, 60.00159
848.0239, 60.03212
848.5060, 60.59274
848.9881, 61.00261
849.4702, 60.90746
849.9523, 60.64063
850.4344, 60.50935
850.9166, 60.56125
851.3987, 60.77958
851.8808, 61.37259
852.3629, 61.82662
852.8450, 61.54592
853.3271, 60.92453
853.8093, 60.61660
854.2914, 60.64379
854.7735, 60.61874
855.2556, 60.32128
855.7377, 59.99720
856.2198, 60.12410
856.7020, 60.67617
857.1841, 60.99795
857.6662, 61.06636
858.1483, 60.97630
858.6304, 60.76121
859.1125, 60.38907
859.5947, 59.68946
860.0768, 58.65885
860.5589, 58.28194
861.0410, 59.29749
861.5231, 59.90145
862.0052, 59.44994
862.4874, 58.93227
862.9695, 59.15402
863.4516, 59.80808
863.9337, 60.10356
864.4158, 59.77881
864.8979, 59.34394
865.3801, 58.98794
865.8622, 58.77702
866.3443, 58.89276
866.8264, 59.19750
867.3085, 59.40730
867.7906, 59.42365
868.2728, 59.18601
868.7549, 58.50970
869.2370, 57.70070
869.7191, 57.83406
870.2012, 58.89861
870.6833, 59.39644
871.1655, 58.98320
871.6476, 58.45492
872.1297, 58.33692
872.6118, 58.48614
873.0939, 58.55491
873.5760, 58.54101
874.0581, 58.45257
874.5402, 58.16053
875.0223, 57.95034
875.5045, 57.94002
875.9866, 58.02096
876.4687, 58.09700
876.9508, 58.15885
877.4329, 58.21941
877.9150, 58.33897
878.3972, 58.38509
878.8793, 58.19456
879.3614, 57.95728
879.8435, 57.87069
880.3256, 57.93914
880.8077, 58.14632
881.2899, 58.48948
881.7720, 58.73415
882.2541, 58.50658
882.7362, 57.98180
883.2183, 57.67053
883.7004, 57.56746
884.1826, 57.51846
884.6647, 57.47760
885.1468, 57.48011
885.6289, 57.59130
886.1110, 57.75286
886.5931, 57.58778
887.0753, 56.84308
887.5574, 56.56153
888.0395, 57.13789
888.5216, 57.74210
889.0037, 58.01771
889.4858, 57.99326
889.9680, 57.58370
890.4501, 56.64185
890.9322, 56.24977
891.4143, 57.17949
891.8964, 57.94072
892.3785, 57.71999
892.8607, 57.15497
893.3428, 56.94258
893.8249, 57.07379
894.3070, 57.13051
894.7891, 56.89997
895.2712, 56.59462
895.7534, 56.39558
896.2355, 56.25049
896.7176, 56.10288
897.1997, 55.93501
897.6818, 55.63097
898.1639, 55.16429
898.6461, 54.89386
899.1282, 55.34277
899.6103, 56.27322
900.0924, 56.56979
900.5745, 56.19417
901.0566, 56.09692
901.5388, 56.56430
902.0209, 56.91054
902.5030, 56.56769
902.9851, 55.81253
903.4672, 55.44404
903.9493, 55.65408
904.4315, 55.70061
904.9136, 55.31281
905.3957, 55.11216
905.8778, 55.49899
906.3599, 56.00404
906.8420, 56.11834
907.3242, 55.87088
907.8063, 55.72230
908.2884, 55.89549
908.7705, 56.02801
909.2526, 55.89039
909.7347, 55.73222
910.2169, 55.88472
910.6990, 56.17423
911.1811, 56.10325
911.6632, 55.51537
912.1453, 55.03218
912.6274, 55.42478
913.1096, 56.07006
913.5917, 55.89034
914.0738, 55.18035
914.5559, 54.88437
915.0380, 55.15262
915.5201, 55.35049
916.0023, 54.99652
916.4844, 54.39621
916.9665, 54.23429
917.4486, 54.50645
917.9307, 54.69583
918.4128, 54.75260
918.8950, 54.92238
919.3771, 55.39666
919.8592, 55.81211
920.3413, 55.66293
920.8234, 54.96627
921.3055, 54.53210
921.7877, 54.42675
922.2698, 54.46854
922.7519, 54.97021
923.2340, 55.27053
923.7161, 54.79068
924.1982, 53.95554
924.6804, 53.57789
925.1625, 53.82908
925.6446, 53.91787
926.1267, 53.35199
926.6088, 52.92647
927.0909, 53.20408
927.5731, 53.72097
928.0552, 53.96448
928.5373, 53.92344
929.0194, 53.85564
929.5015, 53.87392
929.9836, 53.91577
930.4658, 53.90469
930.9479, 53.89915
931.4300, 54.09854
931.9121, 54.37336
932.3942, 54.23478
932.8763, 53.58319
933.3585, 52.99149
933.8406, 53.02225
934.3227, 53.44293
934.8048, 53.78144
935.2869, 54.01316
935.7690, 53.76124
936.2512, 52.94255
936.7333, 52.48100
937.2154, 52.94806
937.6975, 53.79173
938.1796, 54.06421
938.6617, 53.73006
939.1439, 53.64510
939.6260, 53.89050
940.1081, 54.17430
940.5902, 54.52491
941.0723, 54.76659
941.5544, 54.75750
942.0366, 54.53251
942.5187, 54.17286
943.0008, 53.47632
943.4829, 53.13538
943.9650, 53.48484
944.4471, 53.82350
944.9293, 53.89433
945.4114, 53.82174
945.8935, 53.66803
946.3756, 53.48664
946.8577, 53.49117
947.3398, 53.88409
947.8220, 54.22854
948.3041, 54.27501
948.7862, 54.21551
949.2683, 54.20929
949.7504, 54.23708
950.2325, 54.25627
950.7147, 54.24356
951.1968, 54.11649
951.6789, 53.69683
952.1610, 53.25862
952.6431, 53.17619
953.1252, 53.32505
953.6074, 53.49375
954.0895, 53.62461
954.5716, 53.59863
955.0537, 53.35168
955.5358, 53.12399
956.0179, 53.36647
956.5000, 53.90824
956.9821, 53.80584
957.4642, 53.10212
957.9464, 52.97203
958.4285, 53.74872
958.9106, 54.42762
959.3927, 54.17757
959.8748, 53.44220
960.3569, 53.45312
960.8391, 54.39717
961.3212, 55.06808
961.8033, 55.44176
962.2854, 55.59730
962.7675, 55.47994
963.2496, 55.26991
963.7318, 55.14899
964.2139, 55.10170
964.6960, 55.00569
965.1781, 54.77186
965.6602, 54.63696
966.1423, 54.52303
966.6245, 54.59725
967.1066, 55.06697
967.5887, 55.68032
968.0708, 56.15418
968.5529, 56.46927
969.0350, 56.66514
969.5172, 56.59085
969.9993, 56.61254
970.4814, 56.91472
970.9635, 57.29282
971.4456, 57.57961
971.9277, 57.82267
972.4099, 58.10918
972.8920, 58.46356
973.3741, 58.95809
973.8562, 59.67491
974.3383, 60.50386
974.8204, 61.50260
975.3026, 62.46882
975.7847, 62.97941
976.2668, 63.18251
976.7489, 63.68768
977.2310, 64.76778
977.7131, 66.03362
978.1953, 67.06849
978.6774, 68.04451
979.1595, 69.11509
979.6416, 70.40664
980.1237, 72.40827
980.6058, 75.12048
981.0880, 77.72461
981.5701, 79.65174
982.0522, 81.48653
982.5343, 84.30112
983.0164, 87.89488
983.4985, 91.22621
983.9807, 94.26163
984.4628, 97.17033
984.9449, 99.99344
985.4270, 102.6670
985.9091, 105.0910
986.3912, 107.4127
986.8734, 110.1233
987.3555, 113.2679
987.8376, 116.4306
988.3197, 119.6134
988.8018, 122.7423
989.2839, 125.6849
989.7661, 128.8028
990.2482, 132.5716
990.7303, 136.8688
991.2124, 140.8912
991.6945, 144.5500
992.1766, 148.1519
992.6588, 151.7429
993.1409, 155.2577
993.6230, 158.7043
994.1051, 162.0338
994.5872, 165.4310
995.0693, 168.8744
995.5515, 170.9937
996.0336, 171.6890
996.5157, 171.1904
996.9978, 169.4668
997.4799, 166.6152
997.9620, 162.1923
998.4442, 156.9153
998.9263, 151.6511
999.4084, 146.5212
999.8905, 141.8732
1000.373, 137.3296
1000.855, 133.9310
1001.337, 132.4406
1001.819, 131.9214
1002.301, 131.9805
1002.783, 132.3263
1003.265, 132.5717
1003.747, 132.6277
1004.230, 132.7288
1004.712, 132.6142
1005.194, 133.0120
1005.676, 134.3121
1006.158, 136.4581
1006.640, 139.6631
1007.122, 143.6119
1007.604, 147.5691
1008.086, 151.2928
1008.569, 155.1067
1009.051, 159.1026
1009.533, 163.4383
1010.015, 168.1515
1010.497, 173.3834
1010.979, 179.2768
1011.461, 185.9148
1011.943, 193.8230
1012.426, 203.2202
1012.908, 212.6075
1013.390, 221.7072
1013.872, 228.9300
1014.354, 232.2325
1014.836, 231.0789
1015.318, 223.2931
1015.800, 209.0381
1016.282, 191.0417
1016.765, 170.6740
1017.247, 150.1635
1017.729, 132.1880
1018.211, 116.7014
1018.693, 103.9725
1019.175, 93.91228
1019.657, 85.74921
1020.139, 79.29902
1020.622, 74.37730
1021.104, 70.92842
1021.586, 68.49625
1022.068, 66.30794
1022.550, 64.37624
1023.032, 62.76432
1023.514, 61.47172
1023.996, 60.44131
1024.478, 59.66586
1024.961, 59.12407
1025.443, 58.85744
1025.925, 58.63795
1026.407, 57.87008
1026.889, 56.51072
1027.371, 55.59253
1027.853, 55.16049
1028.335, 54.90195
1028.818, 54.75323
1029.300, 54.72129
1029.782, 54.86671
1030.264, 55.05323
1030.746, 54.89188
1031.228, 54.29970
1031.710, 53.88741
1032.192, 53.77442
1032.674, 53.45790
1033.156, 52.66454
1033.639, 51.90144
1034.121, 51.57253
1034.603, 51.58169
1035.085, 51.65426
1035.567, 51.78976
1036.049, 52.00962
1036.531, 52.46392
1037.013, 52.71364
1037.496, 52.62939
1037.978, 52.31031
1038.460, 51.64371
1038.942, 50.84925
1039.424, 50.66783
1039.906, 51.44218
1040.388, 51.78613
1040.870, 51.33667
1041.353, 50.98049
1041.835, 51.07039
1042.317, 51.20147
1042.799, 50.98488
1043.281, 50.56708
1043.763, 50.39600
1044.245, 50.58136
1044.727, 50.69558
1045.209, 50.83105
1045.692, 50.74882
1046.174, 50.09618
1046.656, 49.46080
1047.138, 49.34885
1047.620, 49.62036
1048.102, 49.88839
1048.584, 50.16972
1049.066, 50.26185
1049.548, 49.90306
1050.031, 49.65768
1050.513, 49.81575
1050.995, 50.05891
1051.477, 50.08632
1051.959, 49.99544
1052.441, 50.11529
1052.923, 50.58221
1053.405, 50.78614
1053.888, 50.43666
1054.370, 50.01165
1054.852, 49.63440
1055.334, 49.30294
1055.816, 49.01769
1056.298, 48.77038
1056.780, 48.49558
1057.262, 48.13685
1057.745, 48.10505
1058.227, 49.04138
1058.709, 49.65090
1059.191, 48.94728
1059.673, 48.09576
1060.155, 48.20025
1060.637, 48.92274
1061.119, 49.39412
1061.601, 49.43472
1062.083, 49.40296
1062.566, 49.36209
1063.048, 49.35109
1063.530, 49.34131
1064.012, 49.40932
1064.494, 49.78155
1064.976, 50.22684
1065.458, 50.22565
1065.940, 49.67702
1066.423, 49.24324
1066.905, 49.16494
1067.387, 49.27650
1067.869, 49.66925
1068.351, 50.06636
1068.833, 50.22239
1069.315, 50.21145
1069.797, 50.18946
1070.280, 50.18833
1070.762, 50.18627
1071.244, 50.24038
1071.726, 50.20433
1072.208, 49.82909
1072.690, 49.51085
1073.172, 49.64573
1073.654, 50.03154
1074.136, 50.32373
1074.619, 50.46156
1075.101, 50.53645
1075.583, 50.49384
1076.065, 50.54794
1076.547, 51.03369
1077.029, 51.42407
1077.511, 51.26917
1077.993, 50.76696
1078.475, 50.08433
1078.958, 49.35858
1079.440, 49.08551
1079.922, 49.67416
1080.404, 50.22618
1080.886, 50.21352
1081.368, 50.11841
1081.850, 50.30807
1082.332, 50.61637
1082.814, 50.84927
1083.297, 50.95947
1083.779, 50.89520
1084.261, 50.56798
1084.743, 50.30160
1085.225, 50.44035
1085.707, 50.46903
1086.189, 49.70418
1086.671, 48.89723
1087.154, 49.04382
1087.636, 49.95768
1088.118, 50.75572
1088.600, 51.20731
1089.082, 51.43958
1089.564, 51.42173
1090.046, 51.30436
1090.528, 51.09782
1091.010, 50.89337
1091.493, 50.66258
1091.975, 50.53244
1092.457, 50.93142
1092.939, 52.03447
1093.421, 52.59212
1093.903, 51.55014
1094.385, 50.63128
1094.867, 50.80151
1095.349, 51.24597
1095.832, 51.22383
1096.314, 50.97108
1096.796, 51.03731
1097.278, 51.50996
1097.760, 52.01467
1098.242, 52.51694
1098.724, 52.92023
1099.206, 53.25344
1099.689, 53.41962
1100.171, 53.16109
1100.653, 52.80115
1101.135, 52.83864
1101.617, 53.28399
1102.099, 53.68903
1102.581, 53.92249
1103.063, 54.15219
1103.546, 54.48771
1104.028, 54.74915
1104.510, 54.61910
1104.992, 54.52388
1105.474, 55.11969
1105.956, 56.22709
1106.438, 56.84348
1106.920, 56.49885
1107.402, 56.47862
1107.885, 57.33189
1108.367, 58.08966
1108.849, 58.32249
1109.331, 58.38644
1109.813, 58.66015
1110.295, 59.01267
1110.777, 58.97832
1111.259, 58.33614
1111.741, 58.11741
1112.224, 58.83646
1112.706, 59.36458
1113.188, 59.34196
1113.670, 59.19377
1114.152, 58.99188
1114.634, 58.93024
1115.116, 59.44749
1115.598, 60.61462
1116.081, 61.48125
1116.563, 62.03592
1117.045, 62.29441
1117.527, 62.03813
1118.009, 61.79690
1118.491, 61.82157
1118.973, 61.98145
1119.455, 62.14948
1119.938, 62.31287
1120.420, 62.36312
1120.902, 62.29593
1121.384, 62.10023
1121.866, 61.63848
1122.348, 61.36095
1122.830, 61.53065
1123.312, 61.73854
1123.794, 61.59467
1124.276, 61.20626
1124.759, 60.91520
1125.241, 60.74677
1125.723, 60.51780
1126.205, 60.19836
1126.687, 59.94606
1127.169, 59.82008
1127.651, 59.70156
1128.133, 59.53520
1128.616, 59.26757
1129.098, 58.74462
1129.580, 58.00265
1130.062, 57.66945
1130.544, 57.78014
1131.026, 57.93309
1131.508, 58.08704
1131.990, 58.08622
1132.473, 58.08897
1132.955, 57.62232
1133.437, 57.91629
1133.919, 57.64346
1134.401, 57.48449
1134.883, 57.51238
1135.365, 57.07381
1135.847, 57.03366
1136.329, 57.08161
1136.812, 57.11707
1137.294, 57.07536
1137.776, 56.89408
1138.258, 56.66546
1138.740, 56.59249
1139.222, 56.34027
1139.704, 56.37113
1140.186, 54.69881
1140.668, 55.98911
1141.151, 56.64856
1141.633, 56.71170
1142.115, 54.39130
1142.597, 55.14875
1143.079, 54.67277
1143.561, 54.14617
1144.043, 55.33685
1144.525, 53.36311
1145.008, 54.52622
1145.490, 54.43738
1145.972, 54.92164
1146.454, 54.16485
1146.936, 53.79136
1147.418, 54.65939
1147.900, 54.83996
1148.382, 53.94030
1148.865, 54.46070
1149.347, 52.44360
1149.829, 52.65349
1150.311, 53.82417
1150.793, 52.72836
1151.275, 52.53564
1151.757, 52.15480
1152.239, 51.79402
1152.721, 51.49517
1153.203, 51.34449
1153.686, 51.63731
1154.168, 51.90829
1154.650, 51.54306
1155.132, 50.81040
1155.614, 50.41884
1156.096, 50.50179
1156.578, 50.45040
1157.060, 49.99535
1157.543, 49.52114
1158.025, 49.00553
1158.507, 48.64111
1158.989, 48.60152
1159.471, 48.73113
1159.953, 48.91284
1160.435, 49.10394
1160.917, 49.06926
1161.400, 48.66404
1161.882, 48.31424
1162.364, 48.03864
1162.846, 47.79108
1163.328, 47.49907
1163.810, 47.32584
1164.292, 47.52089
1164.774, 47.80880
1165.256, 47.55866
1165.739, 46.72380
1166.221, 46.16586
1166.703, 45.87873
1167.185, 45.93481
1167.667, 46.42921
1168.149, 46.99811
1168.631, 47.55758
1169.113, 47.82066
1169.595, 47.40377
1170.078, 46.53148
1170.560, 45.98008
1171.042, 45.74438
1171.524, 45.54878
1172.006, 45.38642
1172.488, 45.39539
1172.970, 45.60889
1173.452, 45.91130
1173.934, 46.23945
1174.417, 46.49389
1174.899, 46.46573
1175.381, 46.28905
1175.863, 46.41771
1176.345, 46.68483
1176.827, 46.45532
1177.309, 45.83781
1177.791, 45.66855
1178.274, 46.17357
1178.756, 46.55813
1179.238, 46.13080
1179.720, 45.56813
1180.202, 45.63274
1180.684, 45.95687
1181.166, 46.22825
1181.648, 46.34195
1182.130, 46.00264
1182.613, 45.37232
1183.095, 45.14253
1183.577, 45.60555
1184.059, 46.07775
1184.541, 46.29443
1185.023, 46.30897
1185.505, 46.03836
1185.987, 45.68587
1186.469, 45.32428
1186.952, 45.04552
1187.434, 45.03949
1187.916, 45.29546
1188.398, 45.41239
1188.880, 45.13906
1189.362, 45.04841
1189.844, 45.59337
1190.326, 45.79306
1190.809, 44.96299
1191.291, 44.07727
1191.773, 43.93154
1192.255, 44.30233
1192.737, 44.72188
1193.219, 45.23184
1193.701, 45.24329
1194.183, 44.52275
1194.666, 44.23652
1195.148, 44.64798
1195.630, 45.06118
1196.112, 45.17109
1196.594, 45.09167
1197.076, 44.91650
1197.558, 44.71128
1198.040, 44.66181
1198.522, 44.76180
1199.005, 45.03443
1199.487, 45.43077
1199.969, 44.95822
1200.451, 45.49645
1200.933, 45.78249
1201.415, 45.82987
1201.897, 44.92383
1202.379, 45.24894
1202.861, 45.08066
1203.344, 44.89207
1203.826, 45.39045
1204.308, 44.62309
1204.790, 45.11058
1205.272, 45.09716
1205.754, 45.31299
1206.236, 45.03239
1206.718, 44.90511
1207.201, 45.27436
1207.683, 45.36872
1208.165, 45.03096
1208.647, 45.26137
1209.129, 44.47665
1209.611, 44.58273
1210.093, 45.03472
1210.575, 45.08945
1211.057, 44.89447
1211.540, 44.67919
1212.022, 44.40361
1212.504, 44.22475
1212.986, 44.21688
1213.468, 44.23320
1213.950, 44.19652
1214.432, 44.20631
1214.914, 44.42456
1215.396, 44.24370
1215.879, 44.60003
1216.361, 44.06460
1216.843, 43.78397
1217.325, 43.77779
1217.807, 43.93190
1218.289, 44.25444
1218.771, 44.44231
1219.253, 44.34138
1219.736, 44.27368
1220.218, 44.61977
1220.700, 44.40134
1221.182, 44.93697
1221.664, 44.40692
1222.146, 44.36186
1222.628, 44.69283
1223.110, 44.93671
1223.593, 45.01215
1224.075, 45.01167
1224.557, 44.97828
1225.039, 44.96201
1225.521, 45.03672
1226.003, 45.10278
1226.485, 45.07218
1226.967, 44.98588
1227.449, 44.85783
1227.932, 44.72003
1228.414, 44.62948
1228.896, 44.57286
1229.378, 44.42671
1229.860, 44.06911
1230.342, 43.99030
1230.824, 44.67414
1231.306, 45.12610
1231.788, 44.72448
1232.271, 44.40134
1232.753, 44.97139
1233.235, 45.66042
1233.717, 45.30101
1234.199, 44.12826
1234.681, 43.75021
1235.163, 44.39637
1235.645, 44.72795
1236.128, 44.69343
1236.610, 44.49167
1237.092, 44.14587
1237.574, 43.88338
1238.056, 43.84155
1238.538, 43.93979
1239.020, 44.11249
1239.502, 44.29053
1239.984, 44.21694
1240.467, 44.43330
1240.949, 44.20185
1241.431, 44.62299
1241.913, 44.84575
1242.395, 44.79840
1242.877, 44.69394
1243.359, 44.62598
1243.841, 44.64252
1244.323, 44.89713
1244.806, 45.10738
1245.288, 45.10897
1245.770, 44.92678
1246.252, 44.30306
1246.734, 43.67408
1247.216, 43.91555
1247.698, 44.92670
1248.180, 45.40376
1248.662, 45.01945
1249.145, 44.44975
1249.627, 43.23969
1250.109, 42.71772
1250.591, 43.60391
1251.073, 44.39116
1251.555, 44.10841
1252.037, 43.47493
1252.519, 43.50280
1253.002, 44.00634
1253.484, 44.08454
1253.966, 43.75033
1254.448, 43.53423
1254.930, 43.46747
1255.412, 43.76434
1255.894, 44.40585
1256.376, 44.69621
1256.859, 44.26241
1257.341, 43.69855
1257.823, 43.65327
1258.305, 43.32372
1258.787, 43.49247
1259.269, 43.13470
1259.751, 43.04194
1260.233, 43.19573
1260.715, 43.63418
1261.198, 44.22831
1261.680, 44.53332
1262.162, 43.80188
1262.644, 44.37267
1263.126, 44.69125
1263.608, 44.77119
1264.090, 43.89770
1264.572, 44.25536
1265.054, 44.11963
1265.537, 43.96367
1266.019, 44.49461
1266.501, 43.75979
1266.983, 44.27984
1267.465, 44.29897
1267.947, 44.54736
1268.429, 44.29931
1268.911, 44.20459
1269.394, 44.60646
1269.876, 44.73338
1270.358, 44.42818
1270.840, 44.69114
1271.322, 43.93898
1271.804, 44.07761
1272.286, 44.60056
1272.768, 44.32032
1273.250, 44.59236
1273.733, 44.65405
1274.215, 43.75986
1274.697, 44.52806
1275.179, 44.57734
1275.661, 43.88842
1276.143, 44.59966
1276.625, 44.01252
1277.107, 43.88882
1277.589, 44.11389
1278.072, 44.22826
1278.554, 43.86428
1279.036, 43.40316
1279.518, 42.99313
1280.000, 42.69958
1280.482, 42.66264
1280.964, 42.86011
1281.446, 43.00111
1281.929, 43.07746
1282.411, 43.09237
1282.893, 43.03707
1283.375, 43.19826
1283.857, 43.64296
1284.339, 44.03816
1284.821, 44.19429
1285.303, 44.19412
1285.786, 44.12059
1286.268, 43.96502
##END=



