##NAMES=Lanthanite-(Nd)
##RRUFFID=R060993
##IDEAL CHEMISTRY=Nd_2_(CO_3_)_3_&#183;8H_2_O
##LOCALITY=Mitsukoshi, Hizen-cho, Karatsu City, Saga Prefecture, Japan
##OWNER=RRUFF
##SOURCE=Marcus Origlieri
##DESCRIPTION=Pink platy crystals and cleavages on rock. This sample was used in the structural study by Morrison et al (2013)
##STATUS=The identification of this mineral is confirmed by single-crystal X-ray diffraction and chemical analysis.
##URL=rruff.info/R060993
##MEASURED CHEMISTRY=(Nd_0.95_La_0.61_Pr_0.17_Sm_0.12_Gd_0.08_Y_0.04_Eu_0.03_)_Σ=2_(CO_3_)_3_·7.97H_2_O
83.43524, 51.44451
83.91736, 52.18118
84.39948, 50.69393
84.88159, 49.51609
85.36371, 50.34082
85.84583, 51.18575
86.32794, 50.82188
86.81006, 48.85435
87.29218, 46.57801
87.77429, 44.68308
88.25641, 43.08160
88.73853, 41.56640
89.22064, 39.86992
89.70276, 38.23592
90.18488, 37.02578
90.66699, 36.62998
91.14911, 36.37165
91.63122, 35.23623
92.11333, 33.27644
92.59545, 31.47171
93.07757, 30.76138
93.55968, 30.94312
94.04180, 31.32499
94.52392, 31.60119
95.00603, 31.86790
95.48815, 32.48637
95.97027, 33.53769
96.45238, 34.70444
96.93450, 35.91914
97.41662, 37.22979
97.89874, 37.43813
98.38085, 35.07587
98.86297, 30.06573
99.34509, 26.89675
99.82720, 26.46639
100.3093, 27.94122
100.7914, 28.00724
101.2736, 25.87561
101.7557, 24.14183
102.2378, 25.23560
102.7199, 30.13060
103.2020, 34.94338
103.6841, 39.39552
104.1663, 43.70915
104.6484, 44.70046
105.1305, 39.83567
105.6126, 33.32285
106.0947, 31.32922
106.5768, 37.18900
107.0589, 43.30367
107.5411, 47.19954
108.0232, 47.10203
108.5053, 48.10998
108.9874, 50.60175
109.4695, 54.30678
109.9516, 58.10446
110.4338, 61.30737
110.9159, 65.14175
111.3980, 70.15809
111.8801, 76.74036
112.3622, 84.20179
112.8443, 92.85054
113.3265, 102.5728
113.8086, 112.1320
114.2907, 119.9933
114.7728, 127.9592
115.2549, 137.5778
115.7370, 148.6017
116.2192, 162.0059
116.7013, 179.1137
117.1834, 200.7074
117.6655, 221.8495
118.1476, 239.1265
118.6297, 254.3264
119.1119, 270.3961
119.5940, 288.8634
120.0761, 308.5603
120.5582, 328.3448
121.0403, 347.0549
121.5224, 367.6074
122.0046, 394.4936
122.4867, 425.7897
122.9688, 453.4816
123.4509, 467.8068
123.9330, 476.4113
124.4151, 490.0536
124.8973, 513.7062
125.3794, 542.6735
125.8615, 572.5262
126.3436, 603.0145
126.8257, 633.1607
127.3078, 663.6071
127.7900, 693.4019
128.2721, 719.0397
128.7542, 736.7596
129.2363, 749.6011
129.7184, 764.9257
130.2005, 783.4273
130.6826, 802.8799
131.1648, 821.6891
131.6469, 839.7787
132.1290, 854.8050
132.6111, 863.4550
133.0932, 866.7940
133.5753, 873.6159
134.0575, 885.9421
134.5396, 901.1707
135.0217, 912.5478
135.5038, 919.5518
135.9859, 926.1922
136.4680, 934.8256
136.9502, 945.3734
137.4323, 959.4261
137.9144, 978.1232
138.3965, 1000.986
138.8786, 1021.770
139.3607, 1039.153
139.8429, 1056.844
140.3250, 1079.358
140.8071, 1107.798
141.2892, 1137.452
141.7713, 1167.635
142.2534, 1199.545
142.7356, 1226.187
143.2177, 1245.364
143.6998, 1261.142
144.1819, 1280.200
144.6640, 1301.866
145.1461, 1327.937
145.6283, 1360.809
146.1104, 1409.881
146.5925, 1446.880
147.0746, 1465.654
147.5567, 1471.383
148.0388, 1484.031
148.5210, 1507.755
149.0031, 1534.790
149.4852, 1560.899
149.9673, 1581.735
150.4494, 1606.957
150.9315, 1639.789
151.4137, 1679.709
151.8958, 1714.873
152.3779, 1741.704
152.8600, 1765.319
153.3421, 1789.864
153.8242, 1814.929
154.3064, 1841.547
154.7885, 1870.896
155.2706, 1903.138
155.7527, 1935.101
156.2348, 1967.177
156.7169, 1998.363
157.1991, 2027.858
157.6812, 2050.664
158.1633, 2075.204
158.6454, 2106.870
159.1275, 2150.813
159.6096, 2187.280
160.0918, 2208.113
160.5739, 2217.561
161.0560, 2224.582
161.5381, 2229.906
162.0202, 2235.052
162.5023, 2241.696
162.9845, 2254.755
163.4666, 2262.126
163.9487, 2257.631
164.4308, 2242.866
164.9129, 2223.725
165.3950, 2197.467
165.8772, 2170.635
166.3593, 2149.271
166.8414, 2141.500
167.3235, 2134.179
167.8056, 2119.461
168.2877, 2097.799
168.7699, 2073.114
169.2520, 2046.558
169.7341, 2018.646
170.2162, 1990.444
170.6983, 1957.188
171.1804, 1926.716
171.6626, 1906.744
172.1447, 1897.865
172.6268, 1891.972
173.1089, 1886.724
173.5910, 1879.910
174.0731, 1867.108
174.5553, 1839.280
175.0374, 1806.829
175.5195, 1783.146
176.0016, 1769.993
176.4837, 1761.384
176.9658, 1752.452
177.4480, 1743.341
177.9301, 1734.642
178.4122, 1726.978
178.8943, 1719.946
179.3764, 1713.337
179.8585, 1707.706
180.3407, 1701.251
180.8228, 1689.626
181.3049, 1673.809
181.7870, 1660.258
182.2691, 1656.073
182.7512, 1658.092
183.2334, 1657.218
183.7155, 1650.098
184.1976, 1640.651
184.6797, 1635.473
185.1618, 1634.581
185.6439, 1636.023
186.1261, 1637.441
186.6082, 1639.457
187.0903, 1645.188
187.5724, 1656.403
188.0545, 1671.538
188.5366, 1688.285
189.0188, 1706.973
189.5009, 1724.045
189.9830, 1734.092
190.4651, 1737.739
190.9472, 1743.707
191.4293, 1756.933
191.9114, 1775.409
192.3936, 1789.694
192.8757, 1799.648
193.3578, 1806.484
193.8399, 1810.906
194.3220, 1812.896
194.8041, 1815.331
195.2863, 1823.030
195.7684, 1835.233
196.2505, 1833.342
196.7326, 1814.145
197.2147, 1786.908
197.6968, 1768.298
198.1790, 1759.602
198.6611, 1749.117
199.1432, 1730.058
199.6253, 1701.930
200.1074, 1673.661
200.5895, 1644.320
201.0717, 1616.151
201.5538, 1596.033
202.0359, 1586.002
202.5180, 1575.113
203.0001, 1556.823
203.4822, 1530.515
203.9644, 1500.618
204.4465, 1466.241
204.9286, 1429.332
205.4107, 1396.079
205.8928, 1366.017
206.3749, 1340.923
206.8571, 1324.192
207.3392, 1318.467
207.8213, 1307.770
208.3034, 1288.174
208.7855, 1261.876
209.2676, 1241.054
209.7498, 1225.922
210.2319, 1215.926
210.7140, 1212.296
211.1961, 1217.666
211.6782, 1219.848
212.1603, 1215.584
212.6425, 1205.486
213.1246, 1198.008
213.6067, 1193.165
214.0888, 1191.009
214.5709, 1192.086
215.0530, 1197.526
215.5352, 1202.957
216.0173, 1206.567
216.4994, 1208.104
216.9815, 1215.167
217.4636, 1231.469
217.9457, 1248.935
218.4279, 1257.012
218.9100, 1251.905
219.3921, 1246.276
219.8742, 1244.049
220.3563, 1246.062
220.8384, 1244.127
221.3206, 1235.688
221.8027, 1225.640
222.2848, 1221.410
222.7669, 1225.417
223.2490, 1230.486
223.7311, 1234.254
224.2132, 1235.908
224.6954, 1240.572
225.1775, 1251.474
225.6596, 1263.294
226.1417, 1265.845
226.6238, 1254.218
227.1059, 1241.815
227.5881, 1233.892
228.0702, 1233.544
228.5523, 1227.809
229.0344, 1213.188
229.5165, 1194.704
229.9986, 1183.464
230.4808, 1184.130
230.9629, 1184.959
231.4450, 1181.081
231.9271, 1170.571
232.4092, 1159.868
232.8913, 1148.942
233.3735, 1137.849
233.8556, 1126.846
234.3377, 1116.587
234.8198, 1105.528
235.3019, 1092.504
235.7840, 1074.626
236.2662, 1061.414
236.7483, 1055.859
237.2304, 1054.919
237.7125, 1047.788
238.1946, 1030.124
238.6767, 1012.198
239.1589, 999.8499
239.6410, 997.6730
240.1231, 991.1439
240.6052, 977.2956
241.0873, 958.4460
241.5694, 945.3698
242.0516, 944.0917
242.5337, 940.7401
243.0158, 925.8193
243.4979, 888.9043
243.9800, 862.1367
244.4621, 851.3738
244.9443, 853.3936
245.4264, 850.4819
245.9085, 839.9521
246.3906, 827.8425
246.8727, 818.1248
247.3548, 812.7207
247.8370, 805.6516
248.3191, 795.8255
248.8012, 783.7057
249.2833, 772.2181
249.7654, 761.2220
250.2475, 750.9908
250.7297, 741.7564
251.2118, 733.7376
251.6939, 726.4117
252.1760, 720.3879
252.6581, 715.3196
253.1402, 708.0823
253.6223, 696.6519
254.1045, 685.6573
254.5866, 679.3879
255.0687, 681.2552
255.5508, 679.5333
256.0329, 670.6797
256.5150, 655.8075
256.9972, 647.4751
257.4793, 648.2997
257.9614, 651.8971
258.4435, 653.5029
258.9256, 652.8195
259.4077, 650.6785
259.8899, 646.5776
260.3720, 640.7739
260.8541, 636.3107
261.3362, 633.5034
261.8183, 631.5375
262.3004, 630.0536
262.7826, 629.6955
263.2647, 627.9921
263.7468, 624.4281
264.2289, 619.0676
264.7110, 612.7352
265.1931, 604.4902
265.6753, 596.8764
266.1574, 592.8793
266.6395, 594.2992
267.1216, 592.9457
267.6037, 585.9576
268.0858, 574.3568
268.5680, 567.7957
269.0501, 567.9668
269.5322, 570.1210
270.0143, 570.0249
270.4964, 567.0765
270.9785, 564.5840
271.4607, 563.8342
271.9428, 564.2794
272.4249, 560.7737
272.9070, 551.6044
273.3891, 542.2478
273.8712, 538.4481
274.3534, 541.4437
274.8355, 542.3683
275.3176, 538.6708
275.7997, 531.3005
276.2818, 526.3701
276.7639, 524.4559
277.2461, 523.2465
277.7282, 520.8778
278.2103, 517.3274
278.6924, 512.7091
279.1745, 506.8828
279.6566, 500.0096
280.1388, 492.5247
280.6209, 484.1203
281.1030, 476.2364
281.5851, 470.6468
282.0672, 467.3940
282.5493, 462.7877
283.0315, 455.0320
283.5136, 445.6986
283.9957, 441.6501
284.4778, 443.7765
284.9599, 445.8921
285.4420, 441.8208
285.9242, 431.9858
286.4063, 422.4689
286.8884, 414.0253
287.3705, 407.0665
287.8526, 403.3282
288.3347, 403.0008
288.8169, 403.5645
289.2990, 402.9398
289.7811, 401.2876
290.2632, 399.9440
290.7453, 399.7729
291.2274, 399.5262
291.7096, 395.4905
292.1917, 387.5945
292.6738, 380.1552
293.1559, 377.3046
293.6380, 377.9473
294.1201, 377.4966
294.6023, 374.1946
295.0844, 370.3481
295.5665, 371.6416
296.0486, 377.6513
296.5307, 381.5890
297.0128, 375.2691
297.4950, 362.8949
297.9771, 355.9322
298.4592, 358.3968
298.9413, 364.3436
299.4234, 365.6612
299.9055, 362.8292
300.3876, 359.2152
300.8698, 355.9279
301.3519, 353.6146
301.8340, 353.6158
302.3161, 356.9147
302.7982, 361.1855
303.2803, 364.0281
303.7625, 365.6140
304.2446, 366.5786
304.7267, 366.4974
305.2088, 366.3076
305.6909, 367.7713
306.1730, 372.3095
306.6552, 375.8817
307.1373, 373.0346
307.6194, 365.9065
308.1015, 360.6024
308.5836, 362.7694
309.0657, 367.4036
309.5479, 369.4630
310.0300, 367.3675
310.5121, 364.9449
310.9942, 366.0454
311.4763, 368.8133
311.9584, 369.1026
312.4406, 360.7595
312.9227, 351.7676
313.4048, 348.6529
313.8869, 353.2597
314.3690, 359.3989
314.8511, 365.6516
315.3333, 371.1088
315.8154, 374.2266
316.2975, 372.4628
316.7796, 369.6660
317.2617, 367.9351
317.7438, 367.6490
318.2260, 367.5481
318.7081, 367.5282
319.1902, 367.3487
319.6723, 366.6865
320.1544, 362.8853
320.6365, 360.8228
321.1187, 363.2845
321.6008, 371.2942
322.0829, 377.9756
322.5650, 380.5851
323.0471, 381.6072
323.5292, 383.6737
324.0114, 390.6797
324.4935, 395.3617
324.9756, 394.4711
325.4577, 387.1657
325.9398, 382.8040
326.4219, 383.1908
326.9041, 386.3080
327.3862, 390.4380
327.8683, 397.2043
328.3504, 403.1538
328.8325, 407.6435
329.3146, 410.6827
329.7968, 413.6033
330.2789, 417.1471
330.7610, 420.0058
331.2431, 421.1532
331.7252, 419.2265
332.2073, 417.7653
332.6895, 417.1479
333.1716, 417.3138
333.6537, 417.8616
334.1358, 419.2561
334.6179, 420.4319
335.1000, 420.7509
335.5822, 420.1604
336.0643, 418.8283
336.5464, 416.6328
337.0285, 413.7243
337.5106, 410.8543
337.9927, 408.4121
338.4749, 405.0289
338.9570, 399.2458
339.4391, 390.2412
339.9212, 383.9389
340.4033, 381.1750
340.8854, 380.7179
341.3676, 380.3998
341.8497, 380.3340
342.3318, 379.7278
342.8139, 378.3321
343.2960, 376.1571
343.7781, 372.9963
344.2603, 369.0677
344.7424, 363.6967
345.2245, 354.3015
345.7066, 341.3008
346.1887, 330.7509
346.6708, 327.0493
347.1530, 328.3042
347.6351, 327.3292
348.1172, 323.9298
348.5993, 319.5914
349.0814, 316.2564
349.5635, 313.5375
350.0457, 309.6897
350.5278, 301.8581
351.0099, 293.4727
351.4920, 292.2424
351.9741, 298.0698
352.4562, 302.7675
352.9384, 296.3726
353.4205, 284.3197
353.9026, 276.4789
354.3847, 278.7761
354.8668, 284.0068
355.3489, 285.5093
355.8311, 283.6169
356.3132, 280.3324
356.7953, 275.4413
357.2774, 270.4165
357.7595, 266.8252
358.2416, 265.3882
358.7238, 264.9420
359.2059, 266.8826
359.6880, 269.6469
360.1701, 268.5468
360.6522, 256.5458
361.1343, 243.0374
361.6164, 234.5840
362.0985, 233.5246
362.5807, 234.3530
363.0628, 236.9541
363.5449, 240.0240
364.0270, 241.1460
364.5091, 238.1037
364.9912, 234.3029
365.4734, 231.2924
365.9555, 229.6552
366.4376, 227.0610
366.9197, 220.8116
367.4018, 214.2426
367.8839, 211.4116
368.3661, 217.4841
368.8482, 222.3162
369.3303, 223.9788
369.8124, 222.3123
370.2945, 218.9271
370.7766, 211.7170
371.2588, 204.3591
371.7409, 200.1313
372.2230, 200.4352
372.7051, 201.4072
373.1872, 203.5148
373.6693, 206.1723
374.1515, 204.6796
374.6336, 196.3343
375.1157, 188.5209
375.5978, 186.6152
376.0799, 192.1639
376.5620, 197.1174
377.0442, 201.1389
377.5263, 203.8871
378.0084, 204.6698
378.4905, 203.4216
378.9726, 200.5564
379.4547, 194.3708
379.9369, 185.3274
380.4190, 182.8164
380.9011, 188.7323
381.3832, 197.3044
381.8653, 199.5313
382.3474, 195.9743
382.8296, 191.7528
383.3117, 188.3319
383.7938, 185.9571
384.2759, 185.8316
384.7580, 188.1407
385.2401, 190.4658
385.7223, 191.0139
386.2044, 189.8111
386.6865, 186.7951
387.1686, 179.3052
387.6507, 172.0247
388.1328, 172.2551
388.6150, 178.9738
389.0971, 184.0090
389.5792, 179.1770
390.0613, 170.6767
390.5434, 165.4795
391.0255, 166.9125
391.5077, 169.5162
391.9898, 169.6707
392.4719, 168.3333
392.9540, 168.1970
393.4361, 173.3015
393.9182, 177.9666
394.4004, 177.9465
394.8825, 170.2200
395.3646, 164.7840
395.8467, 166.9188
396.3288, 172.6183
396.8109, 175.7901
397.2931, 172.6232
397.7752, 169.2101
398.2573, 167.2663
398.7394, 167.0581
399.2215, 167.1907
399.7036, 169.1087
400.1858, 170.4708
400.6679, 169.1074
401.1500, 161.9031
401.6321, 156.6765
402.1142, 154.8574
402.5963, 156.0520
403.0785, 157.2706
403.5606, 159.1860
404.0427, 160.0619
404.5248, 157.8875
405.0069, 150.8642
405.4890, 148.4777
405.9712, 152.9986
406.4533, 160.8865
406.9354, 163.7162
407.4175, 160.7248
407.8996, 157.6165
408.3817, 157.2473
408.8639, 159.4043
409.3460, 162.4052
409.8281, 166.6556
410.3102, 169.9683
410.7923, 168.2093
411.2744, 162.4144
411.7566, 158.2424
412.2387, 158.6755
412.7208, 161.6411
413.2029, 164.0343
413.6850, 165.8001
414.1671, 165.9403
414.6493, 162.1120
415.1314, 156.4662
415.6135, 152.3631
416.0956, 150.9539
416.5777, 150.9444
417.0598, 151.8597
417.5420, 153.4216
418.0241, 154.7995
418.5062, 155.2404
418.9883, 155.5349
419.4704, 156.4409
419.9525, 158.4490
420.4347, 159.7377
420.9168, 158.8522
421.3989, 157.0269
421.8810, 155.9895
422.3631, 157.3871
422.8452, 158.4738
423.3273, 158.5730
423.8094, 157.6512
424.2916, 155.7067
424.7737, 151.4463
425.2558, 146.9849
425.7379, 143.7510
426.2200, 142.5988
426.7021, 141.3385
427.1843, 138.8999
427.6664, 136.1376
428.1485, 136.9353
428.6306, 142.9430
429.1127, 149.4949
429.5948, 154.8244
430.0770, 159.5247
430.5591, 159.4082
431.0412, 152.9044
431.5233, 143.9345
432.0054, 137.9028
432.4875, 134.7642
432.9697, 135.5384
433.4518, 143.5742
433.9339, 155.8732
434.4160, 158.2873
434.8981, 150.1770
435.3802, 140.4613
435.8624, 137.3312
436.3445, 139.2699
436.8266, 141.9529
437.3087, 144.6969
437.7908, 147.1105
438.2729, 149.0558
438.7551, 150.3595
439.2372, 150.3197
439.7193, 146.5052
440.2014, 142.1721
440.6835, 141.1292
441.1656, 144.7414
441.6478, 147.9682
442.1299, 146.7882
442.6120, 143.6728
443.0941, 142.2099
443.5762, 146.5313
444.0583, 150.0663
444.5405, 148.9179
445.0226, 143.0351
445.5047, 140.1321
445.9868, 144.8307
446.4689, 151.0551
446.9510, 154.7337
447.4332, 154.1093
447.9153, 152.8057
448.3974, 150.4700
448.8795, 147.5370
449.3616, 145.0100
449.8438, 141.7139
450.3259, 140.7412
450.8080, 144.4016
451.2901, 154.2052
451.7722, 158.9771
452.2543, 157.5237
452.7365, 153.1507
453.2186, 149.9190
453.7007, 147.8671
454.1828, 145.9036
454.6649, 143.8819
455.1470, 141.6855
455.6292, 138.3351
456.1113, 133.7572
456.5934, 130.6166
457.0755, 131.8400
457.5576, 136.0181
458.0397, 139.9286
458.5219, 143.3976
459.0040, 145.3940
459.4861, 142.8906
459.9682, 137.7915
460.4503, 135.0057
460.9324, 139.8116
461.4146, 145.9960
461.8967, 148.5154
462.3788, 147.1196
462.8609, 144.3236
463.3430, 137.5599
463.8251, 131.7732
464.3073, 131.5762
464.7894, 147.1485
465.2715, 158.6250
465.7536, 158.9580
466.2357, 150.9938
466.7178, 145.0239
467.2000, 143.0519
467.6821, 142.6729
468.1642, 143.3225
468.6463, 145.8890
469.1284, 146.7592
469.6105, 144.6572
470.0927, 141.9152
470.5748, 141.6029
471.0569, 144.5857
471.5390, 147.5804
472.0211, 150.1612
472.5032, 152.1820
472.9854, 152.2316
473.4675, 149.8704
473.9496, 148.0036
474.4317, 150.0199
474.9138, 155.0393
475.3959, 156.1972
475.8781, 151.7688
476.3602, 146.3260
476.8423, 147.0495
477.3244, 152.3949
477.8065, 156.7566
478.2886, 157.8859
478.7708, 156.4201
479.2529, 150.6719
479.7350, 141.0218
480.2171, 135.6936
480.6992, 146.2992
481.1813, 161.2977
481.6635, 168.4815
482.1456, 159.1622
482.6277, 149.9100
483.1098, 147.9759
483.5919, 150.9139
484.0740, 152.8420
484.5562, 151.7527
485.0382, 149.8926
485.5204, 147.4315
486.0025, 143.4989
486.4846, 142.9057
486.9667, 149.2068
487.4488, 156.2368
487.9309, 158.0088
488.4131, 151.2155
488.8952, 146.5377
489.3773, 145.4630
489.8594, 147.3896
490.3415, 150.5694
490.8236, 155.3891
491.3058, 159.8236
491.7879, 163.1007
492.2700, 165.1764
492.7521, 164.2952
493.2342, 159.7531
493.7163, 155.3911
494.1985, 157.8598
494.6806, 164.7647
495.1627, 167.2403
495.6448, 158.6779
496.1269, 147.5943
496.6090, 145.3703
497.0912, 150.5853
497.5733, 156.0130
498.0554, 157.8501
498.5375, 157.7362
499.0196, 156.5831
499.5017, 153.7764
499.9839, 152.5869
500.4660, 156.1602
500.9481, 161.6413
501.4302, 165.3492
501.9123, 164.3852
502.3944, 163.7032
502.8766, 164.8741
503.3587, 167.7822
503.8408, 169.5570
504.3229, 169.1564
504.8050, 168.7551
505.2871, 169.8638
505.7693, 173.8929
506.2514, 174.8261
506.7335, 171.3043
507.2156, 166.1874
507.6977, 164.3773
508.1798, 166.2297
508.6620, 167.8096
509.1441, 167.8226
509.6262, 166.6564
510.1083, 165.1073
510.5904, 163.1800
511.0725, 162.2599
511.5547, 164.3862
512.0368, 168.1288
512.5189, 170.8006
513.0010, 171.9724
513.4832, 172.0087
513.9653, 171.0849
514.4474, 169.2620
514.9295, 166.6552
515.4116, 160.8975
515.8937, 156.4404
516.3758, 156.5601
516.8579, 160.9937
517.3400, 164.8602
517.8221, 165.6060
518.3043, 166.1794
518.7864, 168.4949
519.2685, 175.4853
519.7506, 179.8921
520.2327, 181.3697
520.7148, 180.3500
521.1970, 176.9916
521.6791, 169.4689
522.1612, 163.7797
522.6433, 161.6687
523.1254, 162.8618
523.6075, 165.7518
524.0897, 171.0625
524.5718, 174.7565
525.0539, 171.5444
525.5360, 163.1316
526.0181, 160.3361
526.5002, 165.5730
526.9824, 172.7995
527.4645, 174.6056
527.9466, 172.2331
528.4287, 169.2692
528.9108, 166.0531
529.3929, 163.7846
529.8751, 163.9571
530.3572, 166.3255
530.8393, 168.8550
531.3214, 171.3436
531.8035, 173.0843
532.2856, 173.6089
532.7678, 172.6668
533.2499, 170.8803
533.7320, 167.1365
534.2141, 162.9769
534.6962, 160.7404
535.1783, 162.1105
535.6605, 163.0860
536.1426, 162.7461
536.6247, 161.3150
537.1068, 160.5032
537.5889, 160.3170
538.0710, 160.7529
538.5532, 162.2710
539.0353, 164.9042
539.5174, 165.9299
539.9995, 164.9089
540.4816, 163.3611
540.9637, 163.3939
541.4459, 164.6511
541.9280, 165.5633
542.4101, 165.0117
542.8922, 164.4583
543.3743, 166.3725
543.8564, 170.1627
544.3386, 173.2126
544.8207, 174.0031
545.3028, 173.4552
545.7849, 171.7286
546.2670, 168.3735
546.7491, 166.4726
547.2313, 168.7066
547.7134, 172.2011
548.1955, 174.0497
548.6776, 172.7868
549.1597, 171.1047
549.6418, 168.0139
550.1240, 164.6649
550.6061, 165.5650
551.0882, 173.5670
551.5703, 180.1460
552.0524, 181.0386
552.5345, 176.1225
553.0167, 174.9227
553.4988, 178.2242
553.9809, 182.1179
554.4630, 181.4680
554.9451, 177.4998
555.4272, 177.5617
555.9094, 184.7651
556.3915, 192.6238
556.8736, 191.6765
557.3557, 184.4833
557.8378, 178.3194
558.3199, 178.8251
558.8021, 180.3213
559.2842, 177.0394
559.7663, 169.2316
560.2484, 164.5013
560.7305, 169.3231
561.2126, 176.0751
561.6948, 179.3378
562.1769, 175.2706
562.6590, 173.2224
563.1411, 175.4305
563.6232, 179.1915
564.1053, 180.5863
564.5875, 178.0310
565.0696, 176.5723
565.5517, 177.6079
566.0338, 180.6212
566.5159, 182.9438
566.9980, 184.5632
567.4802, 185.7171
567.9623, 186.4579
568.4444, 186.8663
568.9265, 187.3021
569.4086, 187.8117
569.8907, 188.1698
570.3729, 188.2139
570.8550, 187.9418
571.3371, 187.2839
571.8192, 185.6480
572.3013, 184.3992
572.7834, 183.9061
573.2656, 184.4684
573.7477, 186.8723
574.2298, 195.7137
574.7119, 202.6261
575.1940, 202.8035
575.6761, 194.8676
576.1583, 189.8583
576.6404, 190.0017
577.1225, 191.2628
577.6046, 190.6406
578.0867, 186.7525
578.5688, 185.5154
579.0510, 187.7428
579.5331, 192.0238
580.0152, 196.6418
580.4973, 201.5825
580.9794, 205.5988
581.4615, 209.0054
581.9437, 210.7056
582.4258, 205.9816
582.9079, 195.9474
583.3900, 189.0479
583.8721, 194.8500
584.3542, 204.6432
584.8364, 208.5493
585.3185, 204.8392
585.8006, 200.4696
586.2827, 197.4926
586.7648, 196.3725
587.2469, 197.5254
587.7291, 203.0216
588.2112, 208.4624
588.6933, 214.6320
589.1754, 220.2388
589.6575, 221.9589
590.1396, 218.1375
590.6218, 213.3186
591.1039, 208.1706
591.5860, 202.9090
592.0681, 201.7947
592.5502, 205.6960
593.0323, 209.3677
593.5145, 206.9871
593.9966, 200.4438
594.4787, 199.1597
594.9608, 205.0492
595.4429, 211.2142
595.9250, 208.9745
596.4072, 202.0294
596.8893, 197.2284
597.3714, 198.0370
597.8535, 200.7993
598.3356, 204.4053
598.8177, 208.4237
599.2999, 211.4536
599.7820, 212.3366
600.2641, 212.7862
600.7462, 213.4456
601.2283, 214.3748
601.7104, 215.2459
602.1926, 216.7437
602.6747, 217.3386
603.1568, 215.7221
603.6389, 211.4742
604.1210, 206.8383
604.6031, 201.1882
605.0853, 196.7844
605.5674, 198.5703
606.0495, 205.6441
606.5316, 211.1605
607.0137, 212.7244
607.4958, 211.7258
607.9780, 208.6284
608.4601, 204.2172
608.9422, 201.6359
609.4243, 204.7551
609.9064, 208.9080
610.3885, 210.5736
610.8707, 209.3071
611.3528, 207.7375
611.8349, 205.2112
612.3170, 203.5430
612.7991, 204.2655
613.2813, 210.4174
613.7634, 213.7500
614.2455, 213.1308
614.7276, 210.5143
615.2097, 209.1187
615.6918, 209.1946
616.1740, 208.9086
616.6561, 207.3724
617.1382, 205.4225
617.6203, 205.9210
618.1024, 208.6103
618.5845, 210.5662
619.0667, 209.6065
619.5488, 207.0019
620.0309, 204.0783
620.5130, 200.8853
620.9951, 198.4082
621.4772, 196.8748
621.9594, 196.5386
622.4415, 197.8666
622.9236, 202.8983
623.4057, 206.0174
623.8878, 204.8443
624.3699, 201.6954
624.8521, 200.2086
625.3342, 203.1472
625.8163, 202.0891
626.2984, 193.5669
626.7805, 180.6305
627.2626, 174.3788
627.7448, 175.3126
628.2269, 178.4504
628.7090, 182.3187
629.1911, 186.3343
629.6732, 188.5200
630.1553, 188.8470
630.6375, 188.3229
631.1196, 187.5550
631.6017, 186.4470
632.0838, 184.5809
632.5659, 181.3240
633.0480, 179.1736
633.5302, 180.3094
634.0123, 182.8461
634.4944, 184.5027
634.9765, 182.8952
635.4586, 182.9842
635.9407, 187.4844
636.4229, 193.7078
636.9050, 193.3351
637.3871, 183.6658
637.8692, 174.8213
638.3513, 170.3457
638.8334, 169.6689
639.3155, 170.0887
639.7976, 171.6371
640.2797, 173.0941
640.7618, 172.6596
641.2440, 171.7327
641.7261, 173.4028
642.2082, 178.2867
642.6903, 182.7484
643.1724, 183.9216
643.6545, 183.3615
644.1367, 182.7581
644.6188, 183.1221
645.1009, 182.6626
645.5830, 180.7021
646.0651, 177.7009
646.5472, 174.3291
647.0294, 168.9990
647.5115, 166.2735
647.9936, 167.9959
648.4757, 173.0763
648.9578, 176.4132
649.4399, 177.9198
649.9221, 178.2932
650.4042, 177.0473
650.8863, 175.0027
651.3684, 175.6166
651.8505, 178.9237
652.3326, 180.7242
652.8148, 174.1600
653.2969, 165.8589
653.7790, 163.9431
654.2611, 172.1778
654.7432, 180.0445
655.2253, 185.7890
655.7075, 187.9177
656.1896, 184.4336
656.6717, 164.3545
657.1538, 153.3236
657.6359, 157.4587
658.1180, 170.1306
658.6002, 174.7100
659.0823, 169.1120
659.5644, 164.4427
660.0465, 164.9412
660.5286, 169.1404
661.0107, 172.5484
661.4929, 175.1779
661.9750, 176.9074
662.4571, 176.0169
662.9392, 175.0007
663.4213, 178.6765
663.9034, 187.7318
664.3856, 192.9567
664.8677, 184.4898
665.3498, 173.2614
665.8319, 168.3314
666.3140, 175.8403
666.7961, 181.0483
667.2783, 180.5589
667.7604, 178.9859
668.2425, 182.9646
668.7246, 195.4200
669.2067, 202.7545
669.6888, 201.5724
670.1710, 195.2651
670.6531, 191.0380
671.1352, 188.6632
671.6173, 185.6714
672.0994, 178.0975
672.5815, 171.1375
673.0637, 173.7934
673.5458, 184.3775
674.0279, 193.6337
674.5100, 195.9270
674.9921, 195.9248
675.4742, 195.9508
675.9564, 196.0359
676.4385, 197.8315
676.9206, 203.7630
677.4027, 209.6142
677.8848, 212.4099
678.3669, 210.0915
678.8491, 211.6304
679.3312, 217.9913
679.8133, 226.6393
680.2954, 234.8553
680.7775, 242.5804
681.2596, 249.3690
681.7418, 254.2918
682.2239, 259.8963
682.7060, 271.9467
683.1881, 287.1341
683.6702, 297.3213
684.1523, 296.9831
684.6345, 293.0688
685.1166, 290.1344
685.5987, 286.9676
686.0808, 277.6999
686.5629, 253.3078
687.0450, 231.0772
687.5272, 216.5352
688.0093, 209.7752
688.4914, 201.3411
688.9735, 190.2657
689.4556, 180.4211
689.9377, 174.5648
690.4199, 172.2999
690.9020, 172.1486
691.3841, 174.2314
691.8662, 176.1163
692.3483, 175.7444
692.8304, 173.7383
693.3126, 170.7216
693.7947, 166.2018
694.2768, 162.3154
694.7589, 159.4405
695.2410, 157.9386
695.7231, 158.4135
696.2053, 163.8847
696.6874, 167.1637
697.1695, 166.5050
697.6516, 163.8290
698.1337, 164.0692
698.6158, 167.9387
699.0980, 170.0543
699.5801, 167.1691
700.0622, 162.4007
700.5443, 165.5744
701.0264, 175.0951
701.5085, 180.8176
701.9907, 171.3577
702.4728, 158.8297
702.9549, 155.1113
703.4370, 160.4389
703.9191, 166.5173
704.4012, 172.4775
704.8834, 176.5161
705.3655, 176.8272
705.8476, 171.8616
706.3297, 169.2197
706.8118, 169.0397
707.2939, 170.9388
707.7761, 176.0375
708.2582, 184.5087
708.7403, 188.0002
709.2224, 185.1176
709.7045, 179.4600
710.1866, 171.8214
710.6688, 165.0177
711.1509, 166.4172
711.6330, 183.4246
712.1151, 199.7970
712.5972, 202.7949
713.0793, 197.9691
713.5615, 194.9795
714.0436, 197.0051
714.5257, 200.4075
715.0078, 204.8036
715.4899, 209.9267
715.9720, 215.2390
716.4542, 221.0437
716.9363, 225.8068
717.4184, 228.2000
717.9005, 229.2370
718.3826, 233.1034
718.8647, 239.6355
719.3469, 246.3144
719.8290, 251.0933
720.3111, 255.3944
720.7932, 260.6484
721.2753, 266.9236
721.7574, 274.7350
722.2396, 286.6896
722.7217, 298.4661
723.2038, 307.1192
723.6859, 311.5816
724.1680, 314.9014
724.6501, 314.0917
725.1323, 315.9126
725.6144, 328.2553
726.0965, 352.1242
726.5786, 371.5277
727.0607, 385.6085
727.5428, 394.1769
728.0250, 393.8556
728.5071, 388.1618
728.9892, 385.3164
729.4713, 388.7092
729.9534, 393.4735
730.4355, 396.4667
730.9177, 398.6600
731.3998, 401.6225
731.8819, 411.7502
732.3640, 415.1864
732.8461, 406.8177
733.3282, 390.9890
733.8104, 379.4187
734.2925, 372.9840
734.7746, 367.6263
735.2567, 361.7223
735.7388, 356.1800
736.2209, 355.0884
736.7031, 357.6302
737.1852, 357.8116
737.6673, 349.9726
738.1494, 339.6044
738.6315, 331.8305
739.1136, 326.6136
739.5958, 321.6175
740.0779, 315.0677
740.5600, 309.2893
741.0421, 305.4337
741.5242, 303.4787
742.0063, 303.6157
742.4885, 307.1997
742.9706, 310.2094
743.4527, 308.4538
743.9348, 302.4928
744.4169, 300.7860
744.8990, 303.7235
745.3812, 310.7776
745.8633, 322.8621
746.3454, 338.2967
746.8275, 354.6477
747.3096, 371.1715
747.7917, 388.9628
748.2739, 407.9568
748.7560, 428.9023
749.2381, 452.1438
749.7202, 478.1087
750.2023, 506.6766
750.6844, 539.4907
751.1666, 573.0822
751.6487, 596.5031
752.1308, 608.7791
752.6129, 642.8934
753.0950, 710.1983
753.5771, 793.2242
754.0593, 865.9139
754.5414, 933.8671
755.0235, 1009.013
755.5056, 1100.388
755.9877, 1197.013
756.4698, 1290.400
756.9520, 1384.168
757.4341, 1493.656
757.9162, 1634.172
758.3983, 1773.303
758.8804, 1907.680
759.3625, 2035.696
759.8447, 2159.627
760.3268, 2281.222
760.8089, 2381.311
761.2910, 2454.263
761.7731, 2498.425
762.2552, 2513.029
762.7373, 2496.891
763.2194, 2441.557
763.7015, 2333.981
764.1837, 2191.635
764.6658, 2016.509
765.1479, 1809.242
765.6300, 1608.966
766.1121, 1417.385
766.5942, 1238.924
767.0764, 1076.225
767.5585, 929.0651
768.0406, 801.1278
768.5227, 692.1778
769.0048, 602.4672
769.4869, 535.6381
769.9691, 486.5943
770.4512, 444.6204
770.9333, 409.0365
771.4154, 377.5527
771.8975, 348.7787
772.3796, 323.2140
772.8618, 300.9382
773.3439, 281.9272
773.8260, 266.5549
774.3081, 257.1512
774.7902, 249.4196
775.2723, 239.5675
775.7545, 226.2307
776.2366, 217.9638
776.7187, 216.2947
777.2008, 215.9235
777.6829, 208.9883
778.1650, 198.2073
778.6472, 191.7770
779.1293, 192.4260
779.6114, 194.3765
780.0935, 193.8388
780.5756, 191.7161
781.0577, 189.1060
781.5399, 186.8654
782.0220, 183.2051
782.5041, 175.9949
782.9862, 168.6086
783.4683, 166.6432
783.9504, 171.5027
784.4326, 173.0625
784.9147, 168.2478
785.3968, 161.9639
785.8789, 164.2159
786.3610, 171.9827
786.8431, 176.0487
787.3253, 170.1736
787.8074, 163.2698
788.2895, 160.7155
788.7716, 161.4190
789.2537, 163.0918
789.7358, 166.9159
790.2180, 169.6263
790.7001, 170.8724
791.1822, 170.5858
791.6643, 168.2649
792.1464, 163.6822
792.6285, 158.8220
793.1107, 153.8492
793.5928, 149.4923
794.0749, 147.1351
794.5570, 146.5277
795.0391, 146.7199
795.5212, 147.7805
796.0034, 148.9852
796.4855, 150.9559
796.9676, 153.0132
797.4497, 151.9232
797.9318, 143.3140
798.4139, 137.5471
798.8961, 138.8439
799.3782, 145.1611
799.8603, 145.3478
800.3424, 139.1230
800.8245, 134.5445
801.3066, 138.1117
801.7888, 144.7219
802.2709, 144.8643
802.7530, 139.9629
803.2351, 136.8642
803.7172, 141.2586
804.1993, 146.2346
804.6815, 148.3548
805.1636, 147.4359
805.6457, 145.6620
806.1278, 142.1475
806.6099, 139.4318
807.0920, 138.5049
807.5742, 139.2928
808.0563, 142.5829
808.5384, 148.2295
809.0205, 151.8180
809.5026, 148.5652
809.9847, 142.5881
810.4669, 138.6382
810.9490, 136.7795
811.4311, 135.7324
811.9132, 134.3061
812.3953, 134.2382
812.8774, 137.4785
813.3596, 144.1573
813.8417, 146.4562
814.3238, 143.0473
814.8059, 139.1199
815.2880, 138.0096
815.7701, 139.0262
816.2523, 138.7984
816.7344, 137.4219
817.2165, 137.0490
817.6986, 141.3191
818.1807, 145.7930
818.6628, 146.0276
819.1450, 141.4610
819.6271, 138.0097
820.1092, 137.9788
820.5913, 138.4057
821.0734, 138.1908
821.5555, 137.3406
822.0377, 134.8046
822.5198, 129.9625
823.0019, 127.3228
823.4840, 132.8664
823.9661, 142.1681
824.4482, 145.8703
824.9304, 143.6240
825.4125, 140.7267
825.8946, 140.0900
826.3767, 140.1268
826.8588, 139.9792
827.3409, 139.6468
827.8231, 138.3083
828.3052, 135.2512
828.7873, 132.3759
829.2694, 131.2033
829.7515, 131.5974
830.2336, 130.2347
830.7158, 127.0282
831.1979, 125.0160
831.6800, 127.3711
832.1621, 131.8309
832.6442, 136.4364
833.1263, 141.0422
833.6085, 143.5303
834.0906, 141.7908
834.5727, 138.8439
835.0548, 135.8135
835.5369, 132.4368
836.0190, 132.1559
836.5012, 135.4268
836.9833, 140.0393
837.4654, 146.0663
837.9475, 151.9515
838.4296, 151.9117
838.9117, 146.0096
839.3939, 140.5860
839.8760, 140.2274
840.3581, 141.8071
840.8402, 142.9530
841.3223, 143.3032
841.8044, 144.6229
842.2866, 146.6492
842.7687, 150.1923
843.2508, 157.5265
843.7329, 168.1987
844.2150, 168.2205
844.6971, 157.1158
845.1793, 146.7471
845.6614, 147.1776
846.1435, 152.6182
846.6256, 156.7681
847.1077, 159.1464
847.5898, 159.0848
848.0720, 153.1956
848.5541, 147.6678
849.0362, 145.3352
849.5183, 146.1971
850.0004, 149.4557
850.4825, 156.1058
850.9647, 161.4072
851.4468, 161.9362
851.9289, 158.9684
852.4110, 155.6810
852.8931, 152.2136
853.3752, 149.6900
853.8574, 150.4296
854.3395, 150.9924
854.8216, 147.7608
855.3037, 140.8173
855.7858, 138.5233
856.2679, 143.9818
856.7501, 149.6718
857.2322, 153.0545
857.7143, 154.1668
858.1964, 152.5576
858.6785, 148.3204
859.1606, 144.7504
859.6428, 144.3409
860.1249, 145.2602
860.6070, 145.5172
861.0891, 145.3004
861.5712, 145.7192
862.0533, 148.8505
862.5355, 150.7452
863.0176, 149.3561
863.4997, 145.6295
863.9818, 144.7383
864.4639, 147.1217
864.9460, 149.1275
865.4282, 148.3201
865.9103, 146.9295
866.3924, 150.9837
866.8745, 158.4404
867.3566, 162.3655
867.8387, 155.1272
868.3209, 148.0748
868.8030, 147.5116
869.2851, 151.4277
869.7672, 152.0049
870.2493, 147.4547
870.7314, 143.8788
871.2136, 143.0938
871.6957, 143.7445
872.1778, 142.2585
872.6599, 139.2788
873.1420, 137.7980
873.6241, 139.1922
874.1063, 142.2012
874.5884, 147.5619
875.0705, 153.5354
875.5526, 156.8914
876.0347, 154.8261
876.5168, 152.9692
876.9990, 152.1344
877.4811, 151.5093
877.9632, 149.0226
878.4453, 144.8096
878.9274, 143.0580
879.4095, 145.4698
879.8917, 148.4191
880.3738, 147.7677
880.8559, 145.0154
881.3380, 142.3806
881.8201, 140.1745
882.3022, 138.6588
882.7844, 138.3526
883.2665, 138.4391
883.7486, 137.2965
884.2307, 134.0362
884.7128, 137.2685
885.1949, 149.4790
885.6770, 161.1360
886.1591, 158.7339
886.6412, 149.1005
887.1234, 144.2153
887.6055, 147.1329
888.0876, 150.7166
888.5697, 153.1469
889.0518, 153.9087
889.5339, 152.2777
890.0161, 147.2296
890.4982, 143.8163
890.9803, 141.9964
891.4624, 141.7740
891.9445, 143.8491
892.4266, 147.4209
892.9088, 151.3169
893.3909, 155.3934
893.8730, 156.5331
894.3551, 149.6992
894.8372, 141.8078
895.3193, 137.6526
895.8015, 137.9026
896.2836, 138.4712
896.7657, 139.3094
897.2478, 140.6198
897.7299, 143.0445
898.2120, 145.9771
898.6942, 146.9228
899.1763, 146.0493
899.6584, 144.6542
900.1405, 141.8472
900.6226, 140.2816
901.1047, 143.4263
901.5869, 150.1621
902.0690, 153.4397
902.5511, 150.4371
903.0332, 147.7362
903.5153, 146.8839
903.9974, 147.5650
904.4796, 149.1318
904.9617, 151.5085
905.4438, 154.2309
905.9259, 158.5551
906.4080, 161.2144
906.8901, 156.9830
907.3723, 149.3127
907.8544, 144.9284
908.3365, 150.3486
908.8186, 152.4086
909.3007, 147.4102
909.7828, 140.5708
910.2650, 141.3501
910.7471, 149.3076
911.2292, 154.1886
911.7113, 153.6986
912.1934, 151.1527
912.6755, 150.2284
913.1577, 149.3832
913.6398, 146.2337
914.1219, 138.1024
914.6040, 132.7651
915.0861, 132.5048
915.5682, 134.2085
916.0504, 135.4386
916.5325, 136.1040
917.0146, 138.9043
917.4967, 144.2151
917.9788, 148.4504
918.4609, 147.4755
918.9431, 144.1383
919.4252, 141.4904
919.9073, 139.8351
920.3894, 139.5644
920.8715, 143.1190
921.3536, 145.6351
921.8358, 144.1471
922.3179, 139.1518
922.8000, 138.8769
923.2821, 143.6642
923.7642, 147.1114
924.2463, 143.4488
924.7285, 137.4894
925.2106, 134.9723
925.6927, 135.5827
926.1748, 138.0791
926.6569, 147.1601
927.1390, 151.7403
927.6212, 145.4204
928.1033, 133.9195
928.5854, 132.5539
929.0675, 142.3383
929.5496, 148.7063
930.0317, 146.9969
930.5139, 141.7414
930.9960, 137.4930
931.4781, 134.3544
931.9602, 132.5314
932.4423, 132.8956
932.9244, 133.2315
933.4066, 132.4689
933.8887, 131.8566
934.3708, 133.0126
934.8529, 136.3096
935.3350, 137.5179
935.8171, 135.9951
936.2993, 134.4377
936.7814, 137.7566
937.2635, 141.7309
937.7456, 138.4041
938.2277, 125.6652
938.7098, 118.3407
939.1920, 128.5507
939.6741, 138.7345
940.1562, 139.5200
940.6383, 131.1067
941.1204, 126.9037
941.6025, 126.9958
942.0847, 129.4588
942.5668, 136.6019
943.0489, 143.0836
943.5310, 139.6467
944.0131, 128.8841
944.4952, 121.4967
944.9774, 122.8022
945.4595, 126.4326
945.9416, 132.2039
946.4237, 138.3436
946.9058, 139.6468
947.3879, 136.0729
947.8701, 131.6841
948.3522, 126.8778
948.8343, 123.4065
949.3164, 124.9927
949.7985, 128.8296
950.2806, 130.3161
950.7628, 125.4725
951.2449, 123.0770
951.7270, 126.8990
952.2091, 130.8127
952.6912, 127.2122
953.1733, 116.0026
953.6555, 113.0596
954.1376, 119.9381
954.6197, 127.9346
955.1018, 130.7337
955.5839, 130.0117
956.0660, 125.7578
956.5482, 117.7014
957.0303, 114.7161
957.5124, 122.2608
957.9945, 129.6890
958.4766, 133.2855
958.9587, 133.3969
959.4409, 130.8219
959.9230, 125.8378
960.4051, 121.8276
960.8872, 120.6768
961.3693, 121.0946
961.8514, 122.9441
962.3336, 125.4680
962.8157, 126.8859
963.2978, 127.3970
963.7799, 125.3639
964.2620, 118.3054
964.7441, 111.7497
965.2263, 118.0639
965.7084, 133.7346
966.1905, 141.2394
966.6726, 135.9937
967.1547, 128.0816
967.6368, 121.9171
968.1190, 118.7959
968.6011, 121.2582
969.0832, 132.5237
969.5653, 137.4154
970.0474, 134.0843
970.5295, 129.0726
971.0117, 126.5954
971.4938, 126.0872
971.9759, 125.4499
972.4580, 124.8110
972.9401, 125.3926
973.4222, 130.5127
973.9044, 134.4687
974.3865, 131.9815
974.8686, 125.4689
975.3507, 125.6613
975.8328, 135.1260
976.3149, 140.5410
976.7971, 137.1148
977.2792, 130.0026
977.7613, 126.9864
978.2434, 126.7321
978.7255, 126.3835
979.2076, 125.4664
979.6898, 123.5434
980.1719, 117.3556
980.6540, 112.3427
981.1361, 114.5517
981.6182, 125.8759
982.1003, 130.0556
982.5825, 126.0396
983.0646, 120.7927
983.5467, 121.1582
984.0288, 123.5066
984.5109, 122.6693
984.9930, 118.5618
985.4752, 116.0154
985.9573, 117.7157
986.4394, 119.7707
986.9215, 120.9521
987.4036, 121.6199
987.8857, 123.4258
988.3679, 126.2325
988.8500, 128.4050
989.3321, 129.3353
989.8142, 129.3280
990.2963, 127.8015
990.7784, 125.7828
991.2606, 124.9204
991.7427, 126.4206
992.2248, 127.6492
992.7069, 128.6885
993.1890, 129.1566
993.6711, 128.2376
994.1533, 126.3786
994.6354, 125.4596
995.1175, 125.6664
995.5996, 125.4215
996.0817, 121.8813
996.5638, 119.0981
997.0460, 120.8341
997.5281, 126.7168
998.0102, 129.9323
998.4923, 130.3310
998.9744, 128.3461
999.4565, 122.5390
999.9387, 116.2866
1000.421, 117.9924
1000.903, 124.1845
1001.385, 126.4695
1001.867, 114.6999
1002.349, 107.2351
1002.831, 112.4771
1003.313, 121.5183
1003.796, 124.1250
1004.278, 119.8907
1004.760, 118.6053
1005.242, 121.4234
1005.724, 124.0676
1006.206, 121.0890
1006.688, 116.8359
1007.170, 115.6874
1007.653, 118.1398
1008.135, 122.6090
1008.617, 131.6790
1009.099, 137.8118
1009.581, 137.3256
1010.063, 132.1782
1010.545, 128.7876
1011.027, 126.8399
1011.509, 124.8750
1011.992, 121.3703
1012.474, 118.8582
1012.956, 119.6853
1013.438, 122.0967
1013.920, 123.3029
1014.402, 122.8342
1014.884, 122.6329
1015.366, 123.0068
1015.848, 122.9185
1016.331, 119.5997
1016.813, 115.7234
1017.295, 117.1944
1017.777, 124.4950
1018.259, 129.7170
1018.741, 127.8298
1019.223, 125.3894
1019.705, 125.2166
1020.188, 126.6093
1020.670, 125.4274
1021.152, 121.8018
1021.634, 119.9507
1022.116, 122.1628
1022.598, 125.7396
1023.080, 128.8362
1023.562, 131.3612
1024.044, 133.1614
1024.527, 135.5214
1025.009, 134.1592
1025.491, 127.0188
1025.973, 120.5420
1026.455, 123.1815
1026.937, 131.3172
1027.419, 132.7285
1027.901, 127.1372
1028.384, 123.3355
1028.866, 128.6820
1029.348, 134.7210
1029.830, 136.4807
1030.312, 135.2988
1030.794, 137.1898
1031.276, 142.6055
1031.758, 146.3413
1032.240, 146.5681
1032.723, 144.8207
1033.205, 142.4429
1033.687, 139.5488
1034.169, 135.9716
1034.651, 129.6156
1035.133, 127.5347
1035.615, 132.0768
1036.097, 137.8866
1036.579, 141.0375
1037.062, 141.8237
1037.544, 141.2375
1038.026, 139.5022
1038.508, 138.7870
1038.990, 141.7348
1039.472, 144.8152
1039.954, 145.8067
1040.436, 145.2477
1040.919, 144.8190
1041.401, 144.4487
1041.883, 144.7114
1042.365, 145.9457
1042.847, 147.1875
1043.329, 147.2797
1043.811, 146.5218
1044.293, 145.3317
1044.776, 143.7816
1045.258, 141.6836
1045.740, 136.4168
1046.222, 134.1807
1046.704, 139.5367
1047.186, 151.0083
1047.668, 160.1947
1048.150, 166.9185
1048.632, 169.8385
1049.115, 163.8211
1049.597, 158.2431
1050.079, 158.8067
1050.561, 163.6759
1051.043, 169.2590
1051.525, 176.6899
1052.007, 179.3096
1052.489, 175.3130
1052.971, 171.3254
1053.454, 176.3652
1053.936, 185.2113
1054.418, 189.7687
1054.900, 188.9580
1055.382, 189.6237
1055.864, 195.2346
1056.346, 200.2652
1056.828, 202.4470
1057.311, 202.9329
1057.793, 205.8197
1058.275, 210.6498
1058.757, 214.8960
1059.239, 217.5804
1059.721, 219.6566
1060.203, 219.5371
1060.685, 220.4162
1061.167, 226.2569
1061.650, 238.5240
1062.132, 250.4483
1062.614, 262.2116
1063.096, 271.7943
1063.578, 274.3960
1064.060, 275.8469
1064.542, 283.6870
1065.024, 297.5478
1065.506, 314.2582
1065.989, 336.3185
1066.471, 355.6534
1066.953, 369.7352
1067.435, 381.9378
1067.917, 395.1757
1068.399, 411.3665
1068.881, 438.7044
1069.363, 480.1044
1069.846, 523.3862
1070.328, 555.8995
1070.810, 592.3014
1071.292, 642.9216
1071.774, 707.3569
1072.256, 770.9833
1072.738, 832.7305
1073.220, 904.0776
1073.702, 989.9808
1074.185, 1086.789
1074.667, 1190.724
1075.149, 1301.513
1075.631, 1416.655
1076.113, 1526.666
1076.595, 1659.151
1077.077, 1817.009
1077.559, 1987.037
1078.042, 2158.429
1078.524, 2328.550
1079.006, 2495.972
1079.488, 2659.171
1079.970, 2810.739
1080.452, 2942.973
1080.934, 3069.347
1081.416, 3192.135
1081.898, 3315.553
1082.380, 3450.596
1082.863, 3597.053
1083.345, 3757.949
1083.827, 3933.219
1084.309, 4127.648
1084.791, 4348.106
1085.273, 4592.381
1085.755, 4856.637
1086.237, 5137.392
1086.720, 5464.381
1087.202, 5839.302
1087.684, 6251.782
1088.166, 6719.220
1088.648, 7205.776
1089.130, 7696.832
1089.612, 8167.160
1090.094, 8560.724
1090.577, 8888.123
1091.059, 9087.682
1091.541, 9157.268
1092.023, 9105.035
1092.505, 8945.261
1092.987, 8671.613
1093.469, 8245.774
1093.951, 7668.730
1094.433, 6985.607
1094.916, 6133.264
1095.398, 5272.795
1095.880, 4442.067
1096.362, 3659.583
1096.844, 2983.706
1097.326, 2411.497
1097.808, 1941.022
1098.290, 1578.051
1098.772, 1287.557
1099.255, 1061.296
1099.737, 882.1083
1100.219, 739.8116
1100.701, 635.3237
1101.183, 554.3877
1101.665, 499.9518
1102.147, 455.4751
1102.629, 413.9480
1103.112, 377.4930
1103.594, 349.9195
1104.076, 329.7982
1104.558, 313.6570
1105.040, 305.7499
1105.522, 293.3562
1106.004, 273.5342
1106.486, 252.6478
1106.969, 235.8771
1107.451, 223.0591
1107.933, 212.9351
1108.415, 205.7463
1108.897, 202.9050
1109.379, 213.8459
1109.861, 219.2697
1110.343, 206.1231
1110.825, 185.6348
1111.307, 178.4074
1111.790, 184.1386
1112.272, 187.6571
1112.754, 186.6088
1113.236, 183.2646
1113.718, 180.1712
1114.200, 175.1777
1114.682, 164.1173
1115.164, 147.6185
1115.647, 140.0022
1116.129, 142.6982
1116.611, 146.8804
1117.093, 149.9062
1117.575, 152.1519
1118.057, 155.2305
1118.539, 157.4308
1119.021, 155.8250
1119.504, 147.4421
1119.986, 141.1906
1120.468, 137.1831
1120.950, 135.6567
1121.432, 138.2545
1121.914, 142.8472
1122.396, 144.4612
1122.878, 143.3374
1123.360, 140.2733
1123.843, 133.4279
1124.325, 127.5093
1124.807, 122.8814
1125.289, 120.0957
1125.771, 120.6518
1126.253, 123.8418
1126.735, 124.9205
1127.217, 123.6813
1127.699, 122.9001
1128.182, 125.1604
1128.664, 127.4700
1129.146, 128.2464
1129.628, 127.9091
1130.110, 127.1767
1130.592, 126.0399
1131.074, 125.7389
1131.556, 126.7227
1132.039, 127.4520
1132.521, 127.3389
1133.003, 125.7749
1133.485, 120.6111
1133.967, 111.7742
1134.449, 109.8308
1134.931, 115.8012
1135.413, 122.8307
1135.896, 129.4633
1136.378, 133.6176
1136.860, 130.3332
1137.342, 123.6970
1137.824, 119.7151
1138.306, 120.3829
1138.788, 122.8952
1139.270, 128.9372
1139.752, 132.2193
1140.234, 126.2208
1140.717, 115.8949
1141.199, 111.8537
1141.681, 112.4120
1142.163, 112.4910
1142.645, 108.5142
1143.127, 106.6249
1143.609, 108.4054
1144.091, 111.1008
1144.574, 111.9381
1145.056, 111.2121
1145.538, 109.0173
1146.020, 105.7339
1146.502, 104.5746
1146.984, 110.7984
1147.466, 114.9835
1147.948, 112.6011
1148.431, 107.5074
1148.913, 108.1888
1149.395, 113.4808
1149.877, 112.9806
1150.359, 104.2118
1150.841, 98.33881
1151.323, 107.5805
1151.805, 117.6102
1152.287, 118.3598
1152.770, 111.8415
1153.252, 107.9788
1153.734, 106.7252
1154.216, 105.4217
1154.698, 102.8382
1155.180, 101.2473
1155.662, 104.2147
1156.144, 108.1640
1156.626, 109.2051
1157.109, 107.1511
1157.591, 103.8912
1158.073, 99.13985
1158.555, 96.56647
1159.037, 99.19340
1159.519, 103.3263
1160.001, 106.7587
1160.483, 108.2895
1160.966, 105.2613
1161.448, 92.77867
1161.930, 88.37001
1162.412, 93.39617
1162.894, 100.2500
1163.376, 103.3402
1163.858, 104.6300
1164.340, 107.6116
1164.823, 111.2207
1165.305, 111.8957
1165.787, 106.1357
1166.269, 102.7452
1166.751, 102.9396
1167.233, 104.2486
1167.715, 103.9822
1168.197, 102.9993
1168.679, 103.0021
1169.161, 103.9665
1169.644, 104.7633
1170.126, 105.7970
1170.608, 105.2378
1171.090, 101.9251
1171.572, 98.19312
1172.054, 98.19336
1172.536, 100.5410
1173.018, 101.9724
1173.501, 102.0099
1173.983, 101.4559
1174.465, 99.16539
1174.947, 98.19366
1175.429, 99.88867
1175.911, 103.2207
1176.393, 105.6160
1176.875, 107.3962
1177.358, 110.1764
1177.840, 115.2534
1178.322, 117.3772
1178.804, 111.6077
1179.286, 104.7967
1179.768, 99.93811
1180.250, 97.11985
1180.732, 97.18731
1181.214, 99.64949
1181.697, 102.1834
1182.179, 104.3922
1182.661, 105.5993
1183.143, 104.2342
1183.625, 102.8287
1184.107, 104.0488
1184.589, 107.5488
1185.071, 106.0662
1185.553, 100.2602
1186.036, 95.21624
1186.518, 92.78522
1187.000, 92.96776
1187.482, 98.47747
1187.964, 104.8342
1188.446, 107.1533
1188.928, 105.3744
1189.410, 101.3037
1189.893, 95.16647
1190.375, 91.32332
1190.857, 95.05806
1191.339, 99.50616
1191.821, 99.93267
1192.303, 98.61874
1192.785, 99.87651
1193.267, 103.8952
1193.750, 106.6235
1194.232, 107.6596
1194.714, 108.1216
1195.196, 110.1376
1195.678, 110.6958
1196.160, 105.4903
1196.642, 97.34100
1197.124, 95.51740
1197.606, 100.6100
1198.089, 101.5299
1198.571, 95.89664
1199.053, 90.70470
1199.535, 94.32571
1200.017, 99.07642
1200.499, 97.33109
1200.981, 90.55670
1201.463, 88.52962
1201.945, 91.58504
1202.427, 95.11774
1202.910, 98.27996
1203.392, 100.4321
1203.874, 100.3748
1204.356, 99.49418
1204.838, 98.70266
1205.320, 98.13392
1205.802, 99.81632
1206.284, 104.0061
1206.767, 106.7791
1207.249, 106.7431
1207.731, 104.8394
1208.213, 99.65414
1208.695, 94.52058
1209.177, 93.78471
1209.659, 97.72676
1210.141, 101.5430
1210.624, 105.4174
1211.106, 106.2069
1211.588, 100.1514
1212.070, 94.27739
1212.552, 97.33440
1213.034, 103.7909
1213.516, 106.0015
1213.998, 102.8356
1214.480, 100.3652
1214.963, 98.52335
1215.445, 98.06873
1215.927, 100.8916
1216.409, 103.6428
1216.891, 103.0288
1217.373, 100.3350
1217.855, 97.34106
1218.337, 93.49187
1218.819, 92.44437
1219.302, 94.43063
1219.784, 96.34476
1220.266, 94.67363
1220.748, 93.24009
1221.230, 96.28626
1221.712, 101.7067
1222.194, 105.3058
1222.676, 106.8154
1223.159, 107.5129
1223.641, 107.5301
1224.123, 105.5875
1224.605, 97.09875
1225.087, 89.56762
1225.569, 92.19346
1226.051, 100.2182
1226.533, 100.1195
1227.016, 89.55148
1227.498, 86.22225
1227.980, 92.12977
1228.462, 97.99416
1228.944, 94.70175
1229.426, 89.65309
1229.908, 88.43555
1230.390, 90.30048
1230.872, 92.20515
1231.354, 94.15563
1231.837, 96.23109
1232.319, 98.54218
1232.801, 99.51249
1233.283, 96.11870
1233.765, 92.40151
1234.247, 92.63502
1234.729, 94.93993
1235.211, 92.19265
1235.694, 84.14484
1236.176, 81.71053
1236.658, 87.35957
1237.140, 93.03794
1237.622, 91.92137
1238.104, 88.73643
1238.586, 85.99854
1239.068, 84.11747
1239.551, 85.25826
1240.033, 89.18148
1240.515, 88.62247
1240.997, 81.13885
1241.479, 75.28796
1241.961, 77.95886
1242.443, 83.98705
1242.925, 91.69734
1243.407, 99.49719
1243.890, 100.8101
1244.372, 96.33521
1244.854, 91.89164
1245.336, 88.89325
1245.818, 86.72350
1246.300, 84.34454
1246.782, 83.60236
1247.264, 86.10721
1247.746, 90.73238
1248.229, 93.21432
1248.711, 93.75050
1249.193, 93.07695
1249.675, 90.72766
1250.157, 89.85966
1250.639, 93.74859
1251.121, 97.76968
1251.603, 99.75821
1252.086, 99.94147
1252.568, 98.55605
1253.050, 96.12673
1253.532, 94.57559
1254.014, 95.12482
1254.496, 94.63670
1254.978, 90.47410
1255.460, 87.01074
1255.943, 86.33174
1256.425, 88.00356
1256.907, 91.78298
1257.389, 96.74871
1257.871, 100.5579
1258.353, 103.4481
1258.835, 102.0639
1259.317, 93.17721
1259.799, 85.48003
1260.281, 84.91914
1260.764, 88.07781
1261.246, 87.13043
1261.728, 83.50256
1262.210, 80.21772
1262.692, 77.11694
1263.174, 77.19769
1263.656, 81.36743
1264.138, 86.37023
1264.621, 91.27774
1265.103, 94.85732
1265.585, 94.32806
1266.067, 91.01409
1266.549, 87.08685
1267.031, 80.69199
1267.513, 80.55283
1267.995, 88.21243
1268.478, 95.24218
1268.960, 96.00230
1269.442, 93.75160
1269.924, 92.08845
1270.406, 90.48630
1270.888, 87.62665
1271.370, 82.05327
1271.852, 81.44453
1272.334, 86.30260
1272.817, 90.66415
1273.299, 90.63500
1273.781, 88.73875
1274.263, 85.63404
1274.745, 82.86834
1275.227, 82.99928
1275.709, 86.82927
1276.191, 87.47573
1276.673, 85.01755
1277.156, 82.55862
1277.638, 82.46984
1278.120, 82.36070
1278.602, 79.30413
1279.084, 76.60351
1279.566, 78.77480
1280.048, 85.66215
1280.530, 87.53819
1281.013, 84.97918
1281.495, 83.16014
1281.977, 86.02183
1282.459, 88.59225
1282.941, 88.79477
1283.423, 88.33775
1283.905, 89.41334
1284.387, 91.19769
1284.870, 88.63804
1285.352, 82.63480
1285.834, 77.40681
1286.316, 72.33250
1286.798, 72.61218
1287.280, 81.81161
1287.762, 90.38198
1288.244, 87.24977
1288.726, 78.33346
1289.208, 77.22908
1289.691, 82.05869
1290.173, 86.19167
1290.655, 86.97455
1291.137, 88.42455
1291.619, 91.25304
1292.101, 92.68941
1292.583, 89.33472
1293.065, 84.05681
1293.548, 79.55295
1294.030, 76.36457
1294.512, 76.01433
1294.994, 79.18078
1295.476, 82.71697
1295.958, 86.70240
1296.440, 89.57254
1296.922, 88.98211
1297.405, 87.63041
1297.887, 88.61724
1298.369, 90.36558
1298.851, 89.83366
1299.333, 86.71983
1299.815, 84.37501
1300.297, 82.87132
1300.779, 82.20889
##END=



