##NAMES=Lanthanite-(Nd)
##RRUFFID=R060993
##IDEAL CHEMISTRY=Nd_2_(CO_3_)_3_&#183;8H_2_O
##LOCALITY=Mitsukoshi, Hizen-cho, Karatsu City, Saga Prefecture, Japan
##OWNER=RRUFF
##SOURCE=Marcus Origlieri
##DESCRIPTION=Pink platy crystals and cleavages on rock. This sample was used in the structural study by Morrison et al (2013)
##STATUS=The identification of this mineral is confirmed by single-crystal X-ray diffraction and chemical analysis.
##URL=rruff.info/R060993
##MEASURED CHEMISTRY=(Nd_0.95_La_0.61_Pr_0.17_Sm_0.12_Gd_0.08_Y_0.04_Eu_0.03_)_Σ=2_(CO_3_)_3_·7.97H_2_O
88.74414, 86.01163
89.22626, 97.20847
89.70837, 101.4289
90.19049, 99.38332
90.67261, 97.27293
91.15472, 99.11063
91.63684, 101.7047
92.11896, 99.92300
92.60107, 91.07578
93.08319, 80.88125
93.56531, 76.49323
94.04742, 79.27863
94.52954, 80.76991
95.01165, 72.86802
95.49377, 62.54118
95.97588, 57.77616
96.45800, 63.27652
96.94012, 74.57639
97.42223, 81.81660
97.90435, 83.16449
98.38647, 83.57318
98.86858, 85.85917
99.35070, 88.53010
99.83282, 89.00945
100.3149, 84.40924
100.7971, 76.08891
101.2792, 74.14425
101.7613, 87.40130
102.2434, 97.68210
102.7255, 96.98715
103.2076, 88.82076
103.6898, 81.16306
104.1719, 81.02330
104.6540, 89.40295
105.1361, 94.12533
105.6182, 94.48187
106.1003, 91.91712
106.5825, 82.87621
107.0646, 69.94137
107.5467, 60.81473
108.0288, 64.54859
108.5109, 86.32040
108.9930, 103.0811
109.4751, 114.0714
109.9573, 121.9769
110.4394, 127.0840
110.9215, 130.0383
111.4036, 132.9032
111.8857, 138.3869
112.3678, 147.6654
112.8500, 157.6852
113.3321, 172.2648
113.8142, 185.5192
114.2963, 190.0979
114.7784, 184.1507
115.2605, 175.1509
115.7427, 176.6989
116.2248, 195.3809
116.7069, 210.9046
117.1890, 220.4623
117.6711, 225.9188
118.1532, 228.7657
118.6354, 228.9713
119.1175, 228.6528
119.5996, 232.0293
120.0817, 236.7818
120.5638, 248.2556
121.0459, 270.5816
121.5281, 300.9183
122.0102, 332.9410
122.4923, 364.4391
122.9744, 396.0249
123.4565, 427.4794
123.9386, 453.2434
124.4208, 489.3166
124.9029, 546.8289
125.3850, 623.5884
125.8671, 706.5974
126.3492, 792.3396
126.8313, 881.7766
127.3135, 975.3167
127.7956, 1075.291
128.2777, 1176.232
128.7598, 1275.466
129.2419, 1373.897
129.7240, 1465.850
130.2061, 1544.961
130.6883, 1617.680
131.1704, 1691.340
131.6525, 1768.712
132.1346, 1845.775
132.6167, 1922.814
133.0988, 2004.044
133.5810, 2065.048
134.0631, 2085.252
134.5452, 2082.437
135.0273, 2069.500
135.5094, 2046.671
135.9915, 2021.159
136.4737, 2005.903
136.9558, 2003.044
137.4379, 2005.910
137.9200, 2005.742
138.4021, 2010.737
138.8842, 2031.244
139.3664, 2072.248
139.8485, 2131.114
140.3306, 2201.053
140.8127, 2283.137
141.2948, 2376.387
141.7769, 2477.034
142.2591, 2587.322
142.7412, 2709.821
143.2233, 2845.898
143.7054, 2995.457
144.1875, 3156.337
144.6696, 3337.739
145.1518, 3519.214
145.6339, 3702.026
146.1160, 3879.829
146.5981, 4043.635
147.0802, 4187.314
147.5623, 4311.784
148.0445, 4427.775
148.5266, 4534.423
149.0087, 4630.902
149.4908, 4720.514
149.9729, 4799.954
150.4550, 4862.407
150.9371, 4902.782
151.4193, 4921.316
151.9014, 4934.656
152.3835, 4945.587
152.8656, 4948.288
153.3477, 4934.965
153.8298, 4911.592
154.3120, 4890.185
154.7941, 4879.978
155.2762, 4881.222
155.7583, 4885.408
156.2404, 4894.724
156.7225, 4904.544
157.2047, 4908.136
157.6868, 4910.048
158.1689, 4920.877
158.6510, 4948.931
159.1331, 4994.701
159.6152, 5054.675
160.0974, 5140.064
160.5795, 5226.294
161.0616, 5301.104
161.5437, 5366.863
162.0258, 5433.495
162.5079, 5508.849
162.9901, 5592.532
163.4722, 5688.056
163.9543, 5802.028
164.4364, 5918.774
164.9185, 6030.378
165.4007, 6137.133
165.8828, 6242.054
166.3649, 6349.041
166.8470, 6458.323
167.3291, 6560.234
167.8112, 6649.698
168.2934, 6737.059
168.7755, 6831.223
169.2576, 6930.258
169.7397, 7021.937
170.2218, 7094.845
170.7039, 7146.341
171.1861, 7203.561
171.6682, 7275.152
172.1503, 7345.018
172.6324, 7406.991
173.1145, 7459.299
173.5966, 7499.059
174.0788, 7521.291
174.5609, 7524.017
175.0430, 7533.555
175.5251, 7547.591
176.0072, 7569.639
176.4893, 7607.466
176.9714, 7659.077
177.4536, 7708.749
177.9357, 7742.034
178.4178, 7757.531
178.8999, 7780.072
179.3820, 7815.084
179.8641, 7852.681
180.3463, 7881.212
180.8284, 7901.600
181.3105, 7932.288
181.7926, 7993.957
182.2747, 8086.277
182.7568, 8152.633
183.2390, 8177.424
183.7211, 8187.810
184.2032, 8201.019
184.6853, 8218.231
185.1674, 8236.491
185.6495, 8249.645
186.1317, 8260.644
186.6138, 8292.999
187.0959, 8371.721
187.5780, 8454.011
188.0601, 8505.815
188.5422, 8527.006
189.0244, 8542.386
189.5065, 8573.886
189.9886, 8615.806
190.4707, 8630.626
190.9528, 8584.183
191.4349, 8535.139
191.9171, 8531.698
192.3992, 8572.782
192.8813, 8625.262
193.3634, 8673.449
193.8455, 8714.104
194.3276, 8739.378
194.8098, 8737.238
195.2919, 8728.636
195.7740, 8725.170
196.2561, 8727.419
196.7382, 8740.643
197.2203, 8775.986
197.7025, 8824.234
198.1846, 8850.228
198.6667, 8837.559
199.1488, 8815.525
199.6309, 8803.805
200.1130, 8801.353
200.5951, 8798.929
201.0773, 8790.791
201.5594, 8778.903
202.0415, 8770.331
202.5236, 8770.605
203.0057, 8768.310
203.4878, 8753.244
203.9700, 8727.122
204.4521, 8702.320
204.9342, 8686.010
205.4163, 8674.663
205.8984, 8658.524
206.3805, 8633.909
206.8627, 8609.513
207.3448, 8589.198
207.8269, 8573.125
208.3090, 8562.197
208.7911, 8557.370
209.2732, 8558.097
209.7554, 8562.670
210.2375, 8574.543
210.7196, 8583.678
211.2017, 8585.118
211.6838, 8579.374
212.1659, 8564.892
212.6481, 8532.775
213.1302, 8501.647
213.6123, 8507.819
214.0944, 8561.647
214.5765, 8619.575
215.0586, 8666.441
215.5408, 8702.141
216.0229, 8724.077
216.5050, 8725.966
216.9871, 8722.096
217.4692, 8737.676
217.9513, 8776.163
218.4335, 8814.385
218.9156, 8836.537
219.3977, 8852.084
219.8798, 8885.034
220.3619, 8946.754
220.8440, 9016.936
221.3262, 9066.026
221.8083, 9094.439
222.2904, 9115.460
222.7725, 9120.867
223.2546, 9124.245
223.7367, 9151.764
224.2189, 9212.523
224.7010, 9285.856
225.1831, 9344.794
225.6652, 9389.482
226.1473, 9437.623
226.6294, 9507.305
227.1115, 9577.404
227.5937, 9613.394
228.0758, 9606.850
228.5579, 9591.722
229.0400, 9602.138
229.5221, 9637.970
230.0042, 9682.176
230.4864, 9744.318
230.9685, 9807.346
231.4506, 9853.094
231.9327, 9879.636
232.4148, 9898.021
232.8969, 9916.827
233.3791, 9935.791
233.8612, 9950.992
234.3433, 9945.113
234.8254, 9947.810
235.3075, 9991.743
235.7896, 10074.15
236.2718, 10153.78
236.7539, 10201.76
237.2360, 10218.82
237.7181, 10235.09
238.2002, 10251.47
238.6823, 10266.23
239.1645, 10278.03
239.6466, 10287.24
240.1287, 10294.62
240.6108, 10299.54
241.0929, 10303.59
241.5750, 10314.61
242.0572, 10334.19
242.5393, 10357.91
243.0214, 10396.91
243.5035, 10439.36
243.9856, 10455.37
244.4677, 10427.39
244.9499, 10369.78
245.4320, 10327.22
245.9141, 10302.20
246.3962, 10285.58
246.8783, 10281.99
247.3604, 10284.17
247.8426, 10282.90
248.3247, 10275.06
248.8068, 10259.08
249.2889, 10229.87
249.7710, 10169.10
250.2531, 10127.70
250.7352, 10125.68
251.2174, 10136.75
251.6995, 10134.26
252.1816, 10111.22
252.6637, 10075.84
253.1458, 10038.97
253.6279, 9996.882
254.1101, 9962.616
254.5922, 9942.030
255.0743, 9924.695
255.5564, 9904.094
256.0385, 9879.060
256.5207, 9850.990
257.0028, 9822.124
257.4849, 9794.191
257.9670, 9755.696
258.4491, 9698.248
258.9312, 9640.128
259.4134, 9585.464
259.8955, 9537.365
260.3776, 9503.527
260.8597, 9493.085
261.3418, 9506.312
261.8239, 9493.911
262.3060, 9425.486
262.7881, 9364.818
263.2703, 9334.715
263.7524, 9324.591
264.2345, 9314.766
264.7166, 9293.849
265.1987, 9263.026
265.6808, 9227.934
266.1630, 9184.495
266.6451, 9141.302
267.1272, 9096.619
267.6093, 9053.698
268.0914, 9017.309
268.5735, 8989.482
269.0557, 8965.773
269.5378, 8933.788
270.0199, 8876.890
270.5020, 8844.723
270.9841, 8866.208
271.4662, 8894.508
271.9484, 8889.229
272.4305, 8842.271
272.9126, 8781.560
273.3947, 8744.085
273.8768, 8735.724
274.3589, 8728.710
274.8411, 8728.836
275.3232, 8723.861
275.8053, 8701.705
276.2874, 8665.433
276.7695, 8632.571
277.2516, 8621.453
277.7338, 8632.352
278.2159, 8637.362
278.6980, 8630.865
279.1801, 8624.651
279.6622, 8630.550
280.1443, 8641.286
280.6265, 8639.016
281.1086, 8605.951
281.5907, 8553.382
282.0728, 8520.490
282.5549, 8515.933
283.0370, 8512.130
283.5192, 8490.552
284.0013, 8463.308
284.4834, 8448.413
284.9655, 8457.799
285.4476, 8473.577
285.9297, 8471.535
286.4119, 8450.481
286.8940, 8421.064
287.3761, 8381.380
287.8582, 8338.503
288.3403, 8300.653
288.8224, 8269.994
289.3046, 8240.821
289.7867, 8207.552
290.2688, 8171.515
290.7509, 8139.265
291.2330, 8109.994
291.7151, 8089.153
292.1973, 8088.428
292.6794, 8109.729
293.1615, 8119.889
293.6436, 8100.435
294.1257, 8062.221
294.6078, 8021.777
295.0900, 7980.521
295.5721, 7943.955
296.0542, 7921.683
296.5363, 7912.560
297.0184, 7895.073
297.5005, 7857.229
297.9827, 7816.064
298.4648, 7783.966
298.9469, 7761.934
299.4290, 7749.518
299.9111, 7749.314
300.3932, 7759.212
300.8754, 7759.191
301.3575, 7747.739
301.8396, 7729.307
302.3217, 7702.980
302.8038, 7671.134
303.2859, 7637.292
303.7681, 7602.447
304.2502, 7569.238
304.7323, 7545.059
305.2144, 7542.205
305.6965, 7532.634
306.1786, 7510.583
306.6608, 7482.998
307.1429, 7457.030
307.6250, 7434.721
308.1071, 7412.396
308.5892, 7384.417
309.0714, 7346.291
309.5535, 7314.645
310.0356, 7297.514
310.5177, 7278.999
310.9998, 7249.214
311.4819, 7208.996
311.9640, 7165.088
312.4461, 7121.558
312.9283, 7078.581
313.4104, 7043.938
313.8925, 7026.426
314.3746, 7008.582
314.8567, 6984.510
315.3388, 6957.622
315.8210, 6935.135
316.3031, 6922.362
316.7852, 6912.104
317.2673, 6883.152
317.7494, 6823.681
318.2315, 6772.043
318.7137, 6741.476
319.1958, 6719.783
319.6779, 6697.162
320.1600, 6671.124
320.6421, 6646.039
321.1242, 6624.982
321.6064, 6607.678
322.0885, 6601.409
322.5706, 6620.004
323.0527, 6636.369
323.5348, 6628.159
324.0169, 6597.521
324.4991, 6564.354
324.9812, 6536.445
325.4633, 6514.266
325.9454, 6500.120
326.4275, 6495.835
326.9096, 6493.793
327.3918, 6489.033
327.8739, 6482.318
328.3560, 6475.428
328.8381, 6475.942
329.3202, 6470.879
329.8023, 6441.199
330.2845, 6391.749
330.7666, 6354.907
331.2487, 6350.081
331.7308, 6364.700
332.2129, 6365.141
332.6950, 6349.850
333.1772, 6326.675
333.6593, 6294.887
334.1414, 6257.528
334.6235, 6215.376
335.1056, 6168.236
335.5877, 6127.290
336.0699, 6110.143
336.5520, 6132.043
337.0341, 6130.695
337.5162, 6089.112
337.9983, 6038.875
338.4804, 5998.031
338.9626, 5967.659
339.4447, 5941.706
339.9268, 5914.875
340.4089, 5887.553
340.8910, 5869.577
341.3731, 5875.666
341.8553, 5874.936
342.3374, 5851.408
342.8195, 5820.506
343.3016, 5806.344
343.7837, 5819.724
344.2658, 5844.316
344.7480, 5843.410
345.2301, 5800.583
345.7122, 5773.059
346.1943, 5782.785
346.6764, 5797.991
347.1585, 5799.220
347.6407, 5784.185
348.1228, 5761.950
348.6049, 5734.355
349.0870, 5702.916
349.5691, 5691.321
350.0512, 5715.422
350.5334, 5737.058
351.0155, 5730.772
351.4976, 5706.533
351.9797, 5685.738
352.4618, 5681.364
352.9439, 5681.375
353.4261, 5666.359
353.9082, 5635.518
354.3903, 5607.630
354.8724, 5593.249
355.3545, 5585.875
355.8366, 5572.638
356.3188, 5551.913
356.8009, 5529.514
357.2830, 5506.589
357.7651, 5484.270
358.2472, 5464.619
358.7293, 5448.278
359.2115, 5434.687
359.6936, 5424.645
360.1757, 5420.167
360.6578, 5407.252
361.1399, 5374.393
361.6220, 5341.808
362.1041, 5326.489
362.5862, 5325.417
363.0684, 5322.884
363.5505, 5307.692
364.0326, 5281.858
364.5147, 5260.395
364.9968, 5245.315
365.4789, 5232.300
365.9611, 5225.435
366.4432, 5218.438
366.9253, 5201.673
367.4074, 5172.641
367.8895, 5141.387
368.3716, 5124.124
368.8538, 5124.926
369.3359, 5127.076
369.8180, 5133.457
370.3001, 5138.049
370.7822, 5136.828
371.2643, 5130.892
371.7465, 5124.542
372.2286, 5120.040
372.7107, 5117.621
373.1928, 5121.536
373.6749, 5140.289
374.1570, 5144.574
374.6392, 5100.880
375.1213, 5041.971
375.6034, 5010.020
376.0855, 5022.937
376.5676, 5043.269
377.0497, 5036.468
377.5319, 5007.112
378.0140, 4979.596
378.4961, 4960.786
378.9782, 4945.729
379.4603, 4928.828
379.9424, 4910.463
380.4246, 4889.145
380.9067, 4854.921
381.3888, 4823.624
381.8709, 4815.313
382.3530, 4828.999
382.8351, 4844.318
383.3173, 4848.331
383.7994, 4841.053
384.2815, 4821.558
384.7636, 4775.164
385.2457, 4736.036
385.7278, 4716.262
386.2100, 4706.971
386.6921, 4698.062
387.1742, 4685.695
387.6563, 4669.395
388.1384, 4645.658
388.6205, 4604.061
389.1027, 4583.601
389.5848, 4610.045
390.0669, 4633.165
390.5490, 4622.094
391.0311, 4584.911
391.5132, 4551.181
391.9954, 4541.681
392.4775, 4551.270
392.9596, 4563.706
393.4417, 4585.901
393.9238, 4593.850
394.4059, 4564.775
394.8881, 4522.891
395.3702, 4492.191
395.8523, 4478.180
396.3344, 4471.692
396.8165, 4469.265
397.2986, 4468.967
397.7808, 4461.987
398.2629, 4444.907
398.7450, 4424.826
399.2271, 4409.872
399.7092, 4399.424
400.1913, 4385.959
400.6735, 4368.011
401.1556, 4346.893
401.6377, 4323.090
402.1198, 4297.034
402.6019, 4268.738
403.0840, 4237.870
403.5662, 4206.006
404.0483, 4179.014
404.5304, 4158.290
405.0125, 4140.747
405.4946, 4131.786
405.9767, 4122.787
406.4589, 4103.596
406.9410, 4073.904
407.4231, 4043.777
407.9052, 4023.494
408.3873, 4013.540
408.8694, 4008.321
409.3516, 4019.195
409.8336, 4021.448
410.3158, 4000.010
410.7979, 3966.959
411.2800, 3941.244
411.7621, 3931.442
412.2442, 3930.175
412.7263, 3930.226
413.2085, 3932.450
413.6906, 3920.780
414.1727, 3877.883
414.6548, 3832.983
415.1369, 3817.343
415.6190, 3830.377
416.1012, 3844.184
416.5833, 3853.190
417.0654, 3853.600
417.5475, 3834.550
418.0296, 3796.204
418.5117, 3761.819
418.9939, 3747.385
419.4760, 3749.368
419.9581, 3747.933
420.4402, 3739.477
420.9223, 3732.641
421.4044, 3732.760
421.8866, 3734.389
422.3687, 3729.427
422.8508, 3716.268
423.3329, 3701.230
423.8150, 3692.314
424.2971, 3690.388
424.7793, 3690.491
425.2614, 3701.737
425.7435, 3705.671
426.2256, 3690.448
426.7077, 3664.084
427.1898, 3641.064
427.6720, 3628.811
428.1541, 3623.431
428.6362, 3618.949
429.1183, 3616.112
429.6004, 3609.725
430.0826, 3595.182
430.5647, 3579.370
431.0468, 3568.981
431.5289, 3563.999
432.0110, 3557.647
432.4931, 3543.507
432.9753, 3527.269
433.4574, 3517.389
433.9395, 3514.411
434.4216, 3516.659
434.9037, 3524.449
435.3858, 3536.368
435.8680, 3546.005
436.3501, 3560.911
436.8322, 3564.425
437.3143, 3541.913
437.7964, 3510.386
438.2785, 3489.141
438.7607, 3483.163
439.2428, 3488.026
439.7249, 3500.290
440.2070, 3521.749
440.6891, 3536.791
441.1712, 3546.721
441.6534, 3548.536
442.1355, 3530.827
442.6176, 3506.961
443.0997, 3499.948
443.5818, 3521.703
444.0639, 3551.456
444.5461, 3552.755
445.0282, 3522.479
445.5103, 3503.986
445.9924, 3512.641
446.4745, 3527.521
446.9566, 3529.109
447.4388, 3519.533
447.9209, 3513.785
448.4030, 3517.903
448.8851, 3528.207
449.3672, 3544.784
449.8493, 3565.968
450.3315, 3580.064
450.8136, 3581.913
451.2957, 3572.000
451.7778, 3549.237
452.2599, 3493.639
452.7420, 3461.446
453.2242, 3471.450
453.7063, 3497.973
454.1884, 3525.064
454.6705, 3547.938
455.1526, 3562.515
455.6347, 3563.431
456.1169, 3552.905
456.5990, 3553.827
457.0811, 3577.321
457.5632, 3595.152
458.0453, 3595.276
458.5274, 3590.084
459.0095, 3594.322
459.4916, 3611.369
459.9738, 3625.610
460.4559, 3617.463
460.9380, 3592.718
461.4201, 3578.753
461.9022, 3578.737
462.3843, 3588.561
462.8665, 3613.563
463.3486, 3646.788
463.8307, 3663.799
464.3128, 3644.588
464.7949, 3627.945
465.2770, 3638.247
465.7592, 3664.554
466.2413, 3687.621
466.7234, 3701.483
467.2055, 3707.523
467.6876, 3706.105
468.1697, 3693.002
468.6519, 3690.491
469.1340, 3707.887
469.6161, 3724.721
470.0982, 3734.793
470.5803, 3738.320
471.0624, 3734.278
471.5446, 3720.770
472.0267, 3708.680
472.5088, 3724.152
472.9909, 3773.942
473.4730, 3797.726
473.9551, 3764.577
474.4373, 3725.293
474.9194, 3724.659
475.4015, 3754.797
475.8836, 3774.023
476.3657, 3756.039
476.8478, 3727.536
477.3300, 3714.477
477.8121, 3715.878
478.2942, 3725.854
478.7763, 3743.799
479.2584, 3764.279
479.7405, 3776.046
480.2227, 3772.160
480.7048, 3774.429
481.1869, 3792.249
481.6690, 3808.954
482.1511, 3808.891
482.6332, 3797.104
483.1154, 3791.500
483.5975, 3804.544
484.0796, 3830.430
484.5617, 3851.500
485.0438, 3869.205
485.5259, 3878.391
486.0081, 3869.563
486.4902, 3857.472
486.9723, 3850.919
487.4544, 3850.574
487.9365, 3854.016
488.4186, 3856.568
488.9008, 3863.350
489.3829, 3889.066
489.8650, 3933.612
490.3471, 3967.631
490.8292, 3973.124
491.3113, 3960.641
491.7935, 3958.449
492.2756, 3971.268
492.7577, 3982.637
493.2398, 3982.788
493.7219, 3985.773
494.2040, 4010.158
494.6862, 4051.925
495.1683, 4087.987
495.6504, 4101.025
496.1325, 4094.276
496.6146, 4082.447
497.0967, 4057.473
497.5789, 4043.507
498.0610, 4052.374
498.5431, 4068.606
499.0252, 4077.764
499.5073, 4079.360
499.9894, 4089.107
500.4716, 4124.466
500.9537, 4173.229
501.4358, 4213.181
501.9179, 4243.532
502.4000, 4258.697
502.8821, 4247.102
503.3643, 4223.500
503.8464, 4231.177
504.3285, 4287.106
504.8106, 4334.864
505.2927, 4364.715
505.7748, 4381.151
506.2570, 4380.256
506.7391, 4367.222
507.2212, 4361.324
507.7033, 4378.832
508.1854, 4414.191
508.6675, 4438.024
509.1496, 4443.206
509.6317, 4450.464
510.1139, 4470.922
510.5960, 4490.030
511.0781, 4491.183
511.5602, 4474.980
512.0424, 4466.482
512.5245, 4489.777
513.0066, 4528.667
513.4887, 4552.938
513.9708, 4561.584
514.4529, 4563.896
514.9351, 4562.173
515.4172, 4559.364
515.8993, 4564.994
516.3814, 4591.136
516.8635, 4598.309
517.3456, 4561.927
517.8278, 4519.239
518.3099, 4498.618
518.7920, 4500.294
519.2741, 4513.045
519.7562, 4531.492
520.2383, 4550.433
520.7205, 4550.175
521.2026, 4521.908
521.6847, 4498.100
522.1668, 4485.898
522.6489, 4480.201
523.1310, 4481.469
523.6132, 4488.014
524.0953, 4490.190
524.5774, 4479.327
525.0595, 4463.748
525.5416, 4451.855
526.0237, 4444.350
526.5059, 4447.002
526.9880, 4465.056
527.4701, 4488.208
527.9522, 4497.856
528.4343, 4488.930
528.9164, 4477.324
529.3986, 4454.104
529.8807, 4436.584
530.3628, 4440.756
530.8449, 4458.140
531.3270, 4469.135
531.8091, 4463.406
532.2913, 4448.146
532.7734, 4436.186
533.2554, 4427.963
533.7375, 4418.762
534.2197, 4400.735
534.7018, 4390.968
535.1839, 4405.567
535.6660, 4439.020
536.1481, 4472.267
536.6302, 4505.351
537.1124, 4531.404
537.5945, 4538.884
538.0766, 4535.812
538.5587, 4543.707
539.0408, 4569.158
539.5229, 4596.063
540.0051, 4603.183
540.4872, 4587.147
540.9693, 4575.314
541.4514, 4567.450
541.9335, 4564.145
542.4156, 4567.205
542.8978, 4574.424
543.3799, 4585.512
543.8620, 4600.259
544.3441, 4610.454
544.8262, 4607.147
545.3083, 4591.883
545.7905, 4569.751
546.2726, 4538.932
546.7547, 4511.097
547.2368, 4493.778
547.7189, 4485.180
548.2010, 4478.243
548.6832, 4477.329
549.1653, 4470.784
549.6474, 4450.363
550.1295, 4425.924
550.6116, 4407.944
551.0938, 4396.864
551.5759, 4386.955
552.0580, 4374.906
552.5401, 4359.234
553.0222, 4331.060
553.5043, 4279.285
553.9865, 4240.997
554.4686, 4241.970
554.9507, 4246.528
555.4328, 4225.191
555.9149, 4180.316
556.3970, 4144.524
556.8792, 4143.530
557.3613, 4152.310
557.8434, 4143.413
558.3255, 4118.352
558.8076, 4083.653
559.2897, 4039.950
559.7719, 3996.951
560.2540, 3971.053
560.7361, 3970.101
561.2182, 3960.463
561.7003, 3938.488
562.1824, 3912.898
562.6646, 3884.487
563.1467, 3855.469
563.6288, 3829.088
564.1109, 3806.813
564.5930, 3784.645
565.0751, 3758.199
565.5573, 3727.535
566.0394, 3691.476
566.5215, 3646.421
567.0036, 3607.991
567.4857, 3590.823
567.9678, 3588.860
568.4500, 3576.953
568.9321, 3541.277
569.4142, 3516.851
569.8963, 3524.728
570.3784, 3541.834
570.8605, 3544.078
571.3427, 3529.718
571.8248, 3510.862
572.3069, 3496.583
572.7890, 3485.483
573.2711, 3471.616
573.7532, 3453.934
574.2354, 3436.527
574.7175, 3414.449
575.1996, 3398.230
575.6817, 3402.010
576.1638, 3422.377
576.6459, 3433.030
577.1281, 3418.769
577.6102, 3395.054
578.0923, 3371.697
578.5744, 3350.325
579.0565, 3336.432
579.5386, 3332.129
580.0208, 3330.000
580.5029, 3319.295
580.9850, 3297.632
581.4671, 3282.820
581.9492, 3284.634
582.4313, 3282.508
582.9135, 3266.553
583.3956, 3246.079
583.8777, 3233.727
584.3598, 3232.572
584.8419, 3232.471
585.3240, 3227.094
585.8062, 3216.250
586.2883, 3196.757
586.7704, 3168.296
587.2525, 3142.739
587.7346, 3126.551
588.2167, 3117.681
588.6989, 3111.396
589.1810, 3109.224
589.6631, 3106.922
590.1452, 3112.294
590.6273, 3110.430
591.1094, 3083.366
591.5916, 3042.104
592.0737, 3013.266
592.5558, 3011.257
593.0379, 3021.613
593.5200, 3019.964
594.0021, 3007.206
594.4843, 3009.314
594.9664, 3037.092
595.4485, 3062.270
595.9306, 3061.068
596.4127, 3037.695
596.8948, 3017.479
597.3770, 2997.328
597.8591, 2984.828
598.3412, 2991.102
598.8233, 3000.770
599.3054, 2996.213
599.7875, 2976.829
600.2697, 2953.833
600.7518, 2934.675
601.2339, 2920.108
601.7160, 2914.764
602.1981, 2921.710
602.6802, 2924.855
603.1624, 2918.710
603.6445, 2909.349
604.1266, 2902.404
604.6087, 2897.457
605.0908, 2891.585
605.5729, 2880.986
606.0551, 2872.364
606.5372, 2872.859
607.0193, 2877.470
607.5014, 2877.922
607.9835, 2871.787
608.4656, 2859.485
608.9478, 2838.856
609.4299, 2810.840
609.9120, 2801.208
610.3941, 2825.407
610.8762, 2838.156
611.3583, 2809.977
611.8405, 2774.557
612.3226, 2763.221
612.8047, 2778.020
613.2868, 2794.221
613.7689, 2803.903
614.2510, 2807.857
614.7332, 2806.664
615.2153, 2800.440
615.6974, 2787.529
616.1795, 2766.962
616.6616, 2745.824
617.1437, 2734.960
617.6259, 2736.506
618.1080, 2734.196
618.5901, 2729.566
619.0722, 2718.653
619.5543, 2690.594
620.0364, 2660.896
620.5186, 2651.295
621.0007, 2666.663
621.4828, 2679.244
621.9649, 2667.123
622.4470, 2644.943
622.9291, 2633.516
623.4113, 2632.375
623.8934, 2631.748
624.3755, 2627.404
624.8576, 2618.875
625.3397, 2604.387
625.8218, 2580.245
626.3040, 2562.079
626.7861, 2554.535
627.2682, 2548.374
627.7503, 2540.103
628.2324, 2531.576
628.7145, 2526.026
629.1967, 2524.677
629.6788, 2523.506
630.1609, 2521.078
630.6430, 2516.240
631.1251, 2506.264
631.6072, 2491.255
632.0893, 2473.746
632.5714, 2454.431
633.0535, 2435.463
633.5356, 2421.402
634.0178, 2409.871
634.4999, 2408.885
634.9820, 2431.214
635.4641, 2450.221
635.9462, 2455.275
636.4283, 2449.149
636.9105, 2435.961
637.3926, 2415.521
637.8747, 2396.827
638.3568, 2386.289
638.8389, 2383.112
639.3210, 2388.294
639.8032, 2401.116
640.2853, 2411.255
640.7674, 2412.490
641.2495, 2406.962
641.7316, 2399.974
642.2137, 2388.723
642.6959, 2381.777
643.1780, 2385.729
643.6601, 2387.041
644.1422, 2374.812
644.6243, 2356.598
645.1064, 2347.916
645.5886, 2355.812
646.0707, 2364.579
646.5528, 2357.620
647.0349, 2342.953
647.5170, 2338.890
647.9991, 2346.581
648.4813, 2353.433
648.9634, 2352.200
649.4455, 2344.224
649.9276, 2332.293
650.4097, 2308.910
650.8918, 2297.030
651.3740, 2303.872
651.8561, 2314.431
652.3382, 2328.215
652.8203, 2339.573
653.3024, 2338.174
653.7845, 2319.081
654.2667, 2294.561
654.7488, 2267.098
655.2309, 2243.224
655.7130, 2239.016
656.1951, 2253.556
656.6772, 2266.756
657.1594, 2266.641
657.6415, 2257.679
658.1236, 2251.378
658.6057, 2252.120
659.0878, 2244.553
659.5699, 2220.220
660.0521, 2196.090
660.5342, 2181.205
661.0163, 2170.558
661.4984, 2152.354
661.9805, 2119.564
662.4626, 2098.677
662.9448, 2122.269
663.4269, 2159.287
663.9090, 2165.384
664.3911, 2140.915
664.8732, 2109.054
665.3553, 2081.401
665.8375, 2058.543
666.3196, 2042.188
666.8017, 2033.539
667.2838, 2027.125
667.7659, 2024.390
668.2480, 2021.937
668.7302, 2019.202
669.2123, 2015.436
669.6944, 2009.382
670.1765, 2000.633
670.6586, 1990.738
671.1407, 1982.109
671.6229, 1971.360
672.1050, 1951.846
672.5871, 1926.961
673.0692, 1908.220
673.5513, 1900.714
674.0334, 1897.774
674.5156, 1888.782
674.9977, 1873.174
675.4798, 1858.962
675.9619, 1845.011
676.4440, 1835.262
676.9261, 1836.960
677.4083, 1840.976
677.8904, 1833.450
678.3725, 1812.487
678.8546, 1790.416
679.3367, 1762.453
679.8188, 1741.742
680.3010, 1746.943
680.7831, 1763.417
681.2652, 1761.543
681.7473, 1732.625
682.2294, 1698.857
682.7115, 1685.105
683.1937, 1688.523
683.6758, 1693.176
684.1579, 1699.866
684.6400, 1702.699
685.1221, 1699.531
685.6042, 1691.401
686.0864, 1679.146
686.5685, 1662.271
687.0506, 1644.137
687.5327, 1621.902
688.0148, 1601.830
688.4969, 1588.186
688.9791, 1576.853
689.4612, 1563.226
689.9433, 1546.503
690.4254, 1528.492
690.9075, 1508.279
691.3896, 1489.305
691.8718, 1481.671
692.3539, 1483.329
692.8360, 1474.099
693.3181, 1446.214
693.8002, 1418.636
694.2823, 1412.398
694.7645, 1426.660
695.2466, 1430.187
695.7287, 1410.455
696.2108, 1397.336
696.6929, 1399.875
697.1750, 1405.401
697.6572, 1405.516
698.1393, 1399.845
698.6214, 1390.578
699.1035, 1377.241
699.5856, 1362.844
700.0677, 1350.574
700.5499, 1339.008
701.0320, 1322.708
701.5141, 1302.058
701.9962, 1289.342
702.4783, 1295.497
702.9604, 1311.321
703.4426, 1304.779
703.9247, 1265.387
704.4068, 1240.905
704.8889, 1241.870
705.3710, 1250.635
705.8531, 1260.467
706.3353, 1269.539
706.8174, 1274.198
707.2995, 1274.591
707.7816, 1269.019
708.2637, 1254.245
708.7458, 1235.343
709.2280, 1211.901
709.7101, 1188.712
710.1922, 1178.731
710.6743, 1187.998
711.1564, 1200.684
711.6385, 1191.648
712.1207, 1164.584
712.6028, 1149.887
713.0849, 1149.613
713.5670, 1156.333
714.0491, 1169.615
714.5313, 1184.228
715.0134, 1191.297
715.4955, 1189.193
715.9776, 1185.083
716.4597, 1182.718
716.9418, 1174.056
717.4240, 1147.695
717.9061, 1118.228
718.3882, 1105.073
718.8703, 1110.119
719.3524, 1115.526
719.8345, 1103.650
720.3167, 1089.593
720.7988, 1097.873
721.2809, 1121.365
721.7630, 1136.280
722.2451, 1136.048
722.7272, 1127.476
723.2094, 1116.102
723.6915, 1102.649
724.1736, 1091.607
724.6557, 1080.006
725.1378, 1078.916
725.6199, 1099.986
726.1021, 1122.289
726.5842, 1132.428
727.0663, 1131.748
727.5484, 1124.725
728.0305, 1105.524
728.5126, 1090.714
728.9948, 1092.335
729.4769, 1097.485
729.9590, 1090.610
730.4411, 1074.871
730.9232, 1064.508
731.4053, 1067.105
731.8874, 1076.253
732.3695, 1083.942
732.8516, 1090.077
733.3337, 1095.996
733.8159, 1102.698
734.2980, 1098.762
734.7801, 1074.131
735.2622, 1041.898
735.7443, 1027.308
736.2264, 1035.887
736.7086, 1043.860
737.1907, 1056.634
737.6728, 1062.479
738.1549, 1049.673
738.6370, 1032.713
739.1191, 1029.938
739.6013, 1043.260
740.0834, 1055.356
740.5655, 1056.088
741.0476, 1052.704
741.5297, 1055.708
742.0118, 1059.077
742.4940, 1043.381
742.9761, 1007.220
743.4582, 979.4128
743.9403, 987.8383
744.4224, 1021.391
744.9045, 1040.491
745.3867, 1044.497
745.8688, 1036.357
746.3509, 1009.295
746.8330, 984.7404
747.3151, 980.8201
747.7972, 993.2366
748.2794, 1002.020
748.7615, 1004.665
749.2436, 1008.058
749.7257, 1016.709
750.2078, 1022.782
750.6899, 1015.549
751.1721, 1003.421
751.6542, 1003.273
752.1363, 1021.176
752.6184, 1045.843
753.1005, 1073.802
753.5826, 1099.570
754.0648, 1112.917
754.5469, 1114.884
755.0290, 1109.891
755.5111, 1099.348
755.9932, 1093.268
756.4753, 1106.900
756.9575, 1139.328
757.4396, 1156.594
757.9217, 1152.063
758.4038, 1151.595
758.8859, 1164.716
759.3680, 1181.851
759.8502, 1193.582
760.3323, 1200.685
760.8144, 1208.831
761.2965, 1225.167
761.7786, 1233.832
762.2607, 1229.081
762.7429, 1215.975
763.2250, 1194.755
763.7071, 1169.197
764.1892, 1148.944
764.6713, 1140.292
765.1534, 1130.112
765.6356, 1100.334
766.1177, 1059.662
766.5998, 1027.009
767.0819, 1003.887
767.5640, 985.6320
768.0461, 969.8515
768.5283, 959.1749
769.0104, 959.5727
769.4925, 972.5273
769.9746, 978.5602
770.4567, 974.5045
770.9388, 970.4090
771.4210, 966.3729
771.9031, 966.6683
772.3852, 981.6684
772.8673, 1010.497
773.3494, 1022.437
773.8315, 999.4742
774.3137, 977.2163
774.7958, 966.9468
775.2779, 963.4588
775.7600, 963.1275
776.2421, 964.5308
776.7242, 965.8797
777.2064, 966.2575
777.6885, 966.2916
778.1706, 965.7206
778.6527, 965.5720
779.1348, 969.3738
779.6169, 976.7195
780.0991, 982.2489
780.5812, 983.1046
781.0633, 980.7429
781.5454, 976.1467
782.0275, 968.3890
782.5096, 970.4987
782.9918, 986.4560
783.4739, 1002.045
783.9560, 1014.463
784.4381, 1021.613
784.9202, 1017.202
785.4023, 1000.610
785.8845, 994.5682
786.3666, 1008.772
786.8487, 1022.443
787.3308, 1030.705
787.8129, 1035.385
788.2950, 1036.072
788.7772, 1034.691
789.2593, 1037.453
789.7414, 1050.065
790.2235, 1059.948
790.7056, 1052.075
791.1877, 1035.998
791.6699, 1027.776
792.1520, 1027.373
792.6341, 1025.607
793.1162, 1017.872
793.5983, 1010.599
794.0804, 1015.036
794.5626, 1030.442
795.0447, 1043.256
795.5268, 1054.750
796.0089, 1055.616
796.4910, 1038.586
796.9731, 1017.433
797.4553, 1009.313
797.9374, 1014.565
798.4195, 1013.015
798.9016, 996.8818
799.3837, 984.4645
799.8658, 975.0296
800.3480, 972.2879
800.8301, 980.2996
801.3122, 997.0438
801.7943, 1018.068
802.2764, 1045.769
802.7585, 1067.420
803.2407, 1073.852
803.7228, 1072.738
804.2049, 1069.176
804.6870, 1065.019
805.1691, 1061.611
805.6512, 1059.688
806.1334, 1061.965
806.6155, 1075.072
807.0976, 1093.664
807.5797, 1102.698
808.0618, 1102.764
808.5439, 1096.107
809.0261, 1082.252
809.5082, 1075.014
809.9903, 1089.490
810.4724, 1120.347
810.9545, 1136.719
811.4366, 1133.458
811.9188, 1131.224
812.4009, 1134.587
812.8830, 1135.707
813.3651, 1122.426
813.8472, 1105.659
814.3293, 1111.516
814.8115, 1152.330
815.2936, 1176.297
815.7757, 1163.692
816.2578, 1146.004
816.7399, 1130.957
817.2220, 1124.233
817.7042, 1136.402
818.1863, 1166.201
818.6684, 1192.651
819.1505, 1205.165
819.6326, 1207.431
820.1147, 1195.978
820.5969, 1179.452
821.0790, 1175.955
821.5611, 1185.610
822.0432, 1193.311
822.5253, 1189.610
823.0074, 1180.437
823.4896, 1174.229
823.9717, 1171.400
824.4538, 1177.529
824.9359, 1193.773
825.4180, 1209.661
825.9001, 1221.406
826.3823, 1228.621
826.8644, 1230.466
827.3465, 1226.759
827.8286, 1220.640
828.3107, 1207.038
828.7928, 1200.249
829.2749, 1203.851
829.7570, 1214.745
830.2391, 1236.424
830.7213, 1263.861
831.2034, 1278.829
831.6855, 1271.209
832.1676, 1265.979
832.6497, 1270.882
833.1318, 1278.575
833.6140, 1286.065
834.0961, 1291.959
834.5782, 1295.137
835.0603, 1295.213
835.5424, 1291.588
836.0245, 1274.543
836.5067, 1261.231
836.9888, 1280.491
837.4709, 1316.350
837.9530, 1329.946
838.4351, 1316.315
838.9172, 1302.768
839.3994, 1310.043
839.8815, 1326.856
840.3636, 1326.895
840.8457, 1313.016
841.3278, 1314.089
841.8099, 1333.878
842.2921, 1354.612
842.7742, 1367.976
843.2563, 1375.612
843.7384, 1380.345
844.2205, 1382.315
844.7026, 1378.466
845.1848, 1361.593
845.6669, 1353.989
846.1490, 1363.686
846.6311, 1382.182
847.1132, 1408.296
847.5953, 1438.386
848.0775, 1453.318
848.5596, 1437.838
849.0417, 1429.146
849.5238, 1433.533
850.0059, 1444.873
850.4880, 1466.705
850.9702, 1490.143
851.4523, 1499.934
851.9344, 1492.407
852.4165, 1482.703
852.8986, 1477.632
853.3807, 1474.726
853.8629, 1470.966
854.3450, 1468.425
854.8271, 1471.688
855.3092, 1480.351
855.7913, 1488.305
856.2734, 1491.051
856.7556, 1493.466
857.2377, 1503.908
857.7198, 1519.591
858.2019, 1529.853
858.6840, 1535.269
859.1661, 1552.687
859.6483, 1590.823
860.1304, 1625.552
860.6125, 1618.075
861.0946, 1574.758
861.5767, 1566.061
862.0588, 1598.308
862.5410, 1625.404
863.0231, 1636.070
863.5052, 1641.129
863.9873, 1649.931
864.4694, 1660.216
864.9515, 1662.225
865.4337, 1647.140
865.9158, 1642.134
866.3979, 1652.871
866.8800, 1666.889
867.3621, 1682.719
867.8442, 1696.991
868.3264, 1704.352
868.8085, 1704.394
869.2906, 1706.056
869.7727, 1713.752
870.2548, 1719.558
870.7369, 1718.869
871.2191, 1716.695
871.7012, 1713.452
872.1833, 1712.987
872.6654, 1726.370
873.1475, 1761.557
873.6296, 1792.112
874.1118, 1790.679
874.5939, 1784.443
875.0760, 1809.061
875.5581, 1848.692
876.0402, 1865.502
876.5223, 1852.331
877.0045, 1838.353
877.4866, 1848.057
877.9687, 1868.020
878.4508, 1875.487
878.9329, 1875.334
879.4150, 1881.925
879.8972, 1896.988
880.3793, 1918.360
880.8614, 1945.520
881.3435, 1970.570
881.8256, 1977.020
882.3077, 1967.193
882.7899, 1973.981
883.2720, 1999.504
883.7541, 2016.544
884.2362, 2016.007
884.7183, 2009.851
885.2004, 2007.016
885.6826, 2009.068
886.1647, 2025.718
886.6468, 2066.477
887.1289, 2092.754
887.6110, 2093.324
888.0931, 2095.279
888.5753, 2115.305
889.0574, 2141.464
889.5395, 2151.690
890.0216, 2141.058
890.5037, 2151.396
890.9858, 2209.612
891.4680, 2252.383
891.9501, 2257.636
892.4322, 2251.588
892.9143, 2250.394
893.3964, 2254.333
893.8785, 2260.273
894.3607, 2266.844
894.8428, 2277.961
895.3249, 2300.965
895.8070, 2322.729
896.2891, 2331.927
896.7712, 2336.189
897.2534, 2346.371
897.7355, 2363.782
898.2176, 2382.543
898.6997, 2400.278
899.1818, 2417.154
899.6639, 2433.387
900.1461, 2448.792
900.6282, 2462.431
901.1103, 2474.941
901.5924, 2489.447
902.0745, 2506.914
902.5566, 2520.835
903.0388, 2518.617
903.5209, 2511.623
904.0030, 2519.617
904.4851, 2541.123
904.9672, 2578.396
905.4493, 2628.391
905.9315, 2663.117
906.4136, 2662.556
906.8957, 2644.012
907.3778, 2637.023
907.8599, 2640.729
908.3420, 2645.517
908.8242, 2651.008
909.3063, 2682.873
909.7884, 2753.778
910.2705, 2824.610
910.7526, 2851.895
911.2347, 2843.975
911.7169, 2844.601
912.1990, 2854.997
912.6811, 2868.419
913.1632, 2888.267
913.6453, 2896.099
914.1274, 2873.491
914.6096, 2845.704
915.0917, 2860.312
915.5738, 2924.446
916.0559, 2964.103
916.5380, 2962.014
917.0201, 2969.317
917.5023, 3006.779
917.9844, 3044.464
918.4665, 3053.805
918.9486, 3046.048
919.4307, 3059.849
919.9128, 3112.865
920.3950, 3144.848
920.8771, 3131.042
921.3592, 3122.995
921.8413, 3139.298
922.3234, 3169.821
922.8055, 3210.367
923.2877, 3257.074
923.7698, 3289.459
924.2519, 3291.617
924.7340, 3297.936
925.2161, 3320.978
925.6982, 3348.616
926.1804, 3372.361
926.6625, 3395.092
927.1446, 3424.986
927.6267, 3462.890
928.1088, 3493.617
928.5909, 3504.260
929.0730, 3512.349
929.5551, 3525.919
930.0372, 3544.616
930.5193, 3572.239
931.0015, 3603.799
931.4836, 3624.465
931.9657, 3627.652
932.4478, 3635.946
932.9299, 3675.594
933.4120, 3721.249
933.8942, 3740.740
934.3763, 3747.833
934.8584, 3771.851
935.3405, 3814.196
935.8226, 3853.994
936.3047, 3880.235
936.7869, 3896.012
937.2690, 3898.431
937.7511, 3896.426
938.2332, 3907.810
938.7153, 3930.589
939.1974, 3956.162
939.6796, 3981.361
940.1617, 4003.528
940.6438, 4019.231
941.1259, 4033.097
941.6080, 4054.517
942.0901, 4081.936
942.5723, 4111.479
943.0544, 4141.826
943.5365, 4163.786
944.0186, 4173.183
944.5007, 4184.624
944.9828, 4216.679
945.4650, 4264.225
945.9471, 4310.335
946.4292, 4354.591
946.9113, 4385.439
947.3934, 4400.599
947.8755, 4414.945
948.3577, 4437.241
948.8398, 4462.428
949.3219, 4481.081
949.8040, 4493.643
950.2861, 4512.552
950.7682, 4538.317
951.2504, 4568.118
951.7325, 4603.059
952.2146, 4633.772
952.6967, 4651.826
953.1788, 4663.144
953.6609, 4683.096
954.1431, 4712.869
954.6252, 4744.010
955.1073, 4776.993
955.5894, 4808.411
956.0715, 4833.803
956.5536, 4864.958
957.0358, 4917.438
957.5179, 4983.350
958.0000, 5024.055
958.4821, 5028.287
958.9642, 5039.038
959.4464, 5059.183
959.9285, 5081.895
960.4106, 5102.596
960.8927, 5127.180
961.3748, 5165.830
961.8569, 5216.775
962.3391, 5253.980
962.8212, 5261.204
963.3033, 5286.130
963.7854, 5347.000
964.2675, 5405.562
964.7496, 5444.125
965.2318, 5470.263
965.7139, 5492.995
966.1960, 5511.744
966.6781, 5534.093
967.1602, 5557.885
967.6423, 5588.226
968.1245, 5631.799
968.6066, 5675.528
969.0887, 5712.771
969.5708, 5744.987
970.0529, 5773.452
970.5350, 5796.443
971.0172, 5827.770
971.4993, 5879.734
971.9814, 5924.943
972.4635, 5948.634
972.9456, 5971.407
973.4277, 6007.381
973.9099, 6053.839
974.3920, 6105.498
974.8741, 6165.548
975.3562, 6213.467
975.8383, 6235.834
976.3204, 6258.480
976.8026, 6287.453
977.2847, 6323.103
977.7668, 6367.467
978.2489, 6418.510
978.7310, 6471.658
979.2131, 6528.726
979.6953, 6579.594
980.1774, 6618.211
980.6595, 6654.430
981.1416, 6683.089
981.6237, 6718.930
982.1058, 6789.903
982.5880, 6882.843
983.0701, 6941.009
983.5522, 6932.498
984.0343, 6939.014
984.5164, 7007.552
984.9985, 7074.923
985.4807, 7091.858
985.9628, 7096.050
986.4449, 7136.703
986.9270, 7212.013
987.4091, 7284.274
987.8912, 7349.628
988.3734, 7393.994
988.8555, 7393.240
989.3376, 7389.447
989.8197, 7403.075
990.3018, 7435.466
990.7839, 7491.323
991.2661, 7567.252
991.7482, 7642.772
992.2303, 7719.638
992.7124, 7778.420
993.1945, 7791.473
993.6766, 7802.802
994.1588, 7841.466
994.6409, 7902.096
995.1230, 7980.066
995.6051, 8070.727
996.0872, 8150.400
996.5693, 8204.503
997.0515, 8254.140
997.5336, 8298.228
998.0157, 8352.389
998.4978, 8443.563
998.9799, 8546.956
999.4620, 8616.256
999.9442, 8647.446
1000.426, 8693.115
1000.908, 8796.485
1001.391, 8889.627
1001.873, 8929.661
1002.355, 8954.859
1002.837, 8989.749
1003.319, 9036.613
1003.801, 9098.852
1004.283, 9175.350
1004.765, 9244.220
1005.247, 9287.731
1005.730, 9333.284
1006.212, 9391.729
1006.694, 9460.731
1007.176, 9550.062
1007.658, 9644.328
1008.140, 9714.285
1008.622, 9755.611
1009.104, 9795.742
1009.586, 9840.611
1010.069, 9894.570
1010.551, 9967.753
1011.033, 10043.29
1011.515, 10099.28
1011.997, 10149.42
1012.479, 10226.58
1012.961, 10335.86
1013.443, 10430.41
1013.926, 10468.46
1014.408, 10518.03
1014.890, 10627.55
1015.372, 10745.31
1015.854, 10823.36
1016.336, 10878.42
1016.818, 10949.64
1017.300, 11044.29
1017.782, 11123.53
1018.265, 11149.10
1018.747, 11188.49
1019.229, 11283.34
1019.711, 11389.77
1020.193, 11465.76
1020.675, 11530.08
1021.157, 11631.35
1021.639, 11776.83
1022.122, 11886.37
1022.604, 11893.71
1023.086, 11916.13
1023.568, 12011.95
1024.050, 12121.84
1024.532, 12197.58
1025.014, 12258.50
1025.496, 12348.26
1025.978, 12472.75
1026.461, 12584.52
1026.943, 12651.97
1027.425, 12732.87
1027.907, 12859.93
1028.389, 12989.72
1028.871, 13094.15
1029.353, 13181.34
1029.835, 13261.61
1030.318, 13336.35
1030.800, 13422.85
1031.282, 13542.97
1031.764, 13648.38
1032.246, 13705.20
1032.728, 13770.25
1033.210, 13882.86
1033.692, 14021.91
1034.174, 14159.96
1034.656, 14295.64
1035.139, 14406.42
1035.621, 14466.71
1036.103, 14536.85
1036.585, 14630.39
1037.067, 14728.35
1037.549, 14815.18
1038.031, 14904.62
1038.513, 15019.74
1038.996, 15160.49
1039.478, 15295.97
1039.960, 15425.78
1040.442, 15550.08
1040.924, 15674.47
1041.406, 15785.61
1041.888, 15861.88
1042.370, 15935.44
1042.853, 16048.26
1043.335, 16197.84
1043.817, 16344.45
1044.299, 16493.36
1044.781, 16624.66
1045.263, 16724.68
1045.745, 16832.42
1046.227, 16971.93
1046.709, 17113.86
1047.192, 17219.25
1047.674, 17298.52
1048.156, 17420.11
1048.638, 17604.16
1049.120, 17756.52
1049.602, 17859.58
1050.084, 17973.89
1050.566, 18122.25
1051.048, 18288.18
1051.531, 18457.89
1052.013, 18629.99
1052.495, 18800.02
1052.977, 18969.14
1053.459, 19129.23
1053.941, 19277.44
1054.423, 19427.95
1054.905, 19583.41
1055.388, 19746.61
1055.870, 19920.14
1056.352, 20097.23
1056.834, 20251.50
1057.316, 20384.83
1057.798, 20566.89
1058.280, 20798.42
1058.762, 21000.03
1059.245, 21151.91
1059.727, 21301.27
1060.209, 21482.93
1060.691, 21680.21
1061.173, 21863.58
1061.655, 22036.18
1062.137, 22221.64
1062.619, 22415.76
1063.101, 22581.03
1063.583, 22716.76
1064.066, 22888.34
1064.548, 23136.67
1065.030, 23408.13
1065.512, 23635.57
1065.994, 23835.19
1066.476, 24035.00
1066.958, 24241.64
1067.440, 24481.61
1067.923, 24748.56
1068.405, 24990.19
1068.887, 25185.26
1069.369, 25384.88
1069.851, 25634.08
1070.333, 25919.04
1070.815, 26242.44
1071.297, 26577.75
1071.780, 26876.79
1072.262, 27146.19
1072.744, 27420.84
1073.226, 27709.18
1073.708, 27989.73
1074.190, 28227.27
1074.672, 28478.12
1075.154, 28788.98
1075.636, 29133.75
1076.119, 29496.19
1076.601, 29871.10
1077.083, 30260.07
1077.565, 30661.92
1078.047, 31055.77
1078.529, 31428.74
1079.011, 31803.79
1079.493, 32202.52
1079.975, 32593.96
1080.458, 32946.32
1080.940, 33286.88
1081.422, 33645.40
1081.904, 34024.44
1082.386, 34419.61
1082.868, 34844.59
1083.350, 35248.87
1083.832, 35597.66
1084.314, 35957.16
1084.797, 36328.96
1085.279, 36743.61
1085.761, 37251.66
1086.243, 37826.17
1086.725, 38386.30
1087.207, 38920.30
1087.689, 39479.39
1088.171, 40097.61
1088.654, 40676.14
1089.136, 41176.84
1089.618, 41667.51
1090.100, 42201.30
1090.582, 42748.02
1091.064, 43244.71
1091.546, 43690.70
1092.028, 44154.72
1092.510, 44634.73
1092.993, 45162.05
1093.475, 45752.07
1093.957, 46316.74
1094.439, 46807.29
1094.921, 47259.21
1095.403, 47699.77
1095.885, 48146.88
1096.367, 48679.93
1096.849, 49287.03
1097.332, 49863.52
1097.814, 50402.18
1098.296, 50965.50
1098.778, 51574.40
1099.260, 52194.96
1099.742, 52801.80
1100.224, 53403.49
1100.706, 54012.59
1101.189, 54629.86
1101.671, 55282.21
1102.153, 55943.46
1102.635, 56528.02
1103.117, 57039.59
1103.599, 57582.56
1104.081, 58215.97
1104.563, 58913.93
1105.046, 59718.96
1105.528, 60509.33
1106.010, 61115.89
1106.492, 61655.61
1106.974, 62292.47
1107.456, 63021.27
1107.938, 63758.48
1108.420, 64478.75
1108.902, 65187.24
1109.385, 65903.82
1109.867, 66579.71
1110.349, 67133.07
1110.831, 67690.84
1111.313, 68381.77
1111.795, 69133.76
1112.277, 69820.54
1112.759, 70432.07
1113.241, 71057.13
1113.724, 71750.47
1114.206, 72397.37
1114.688, 72944.55
1115.170, 73504.16
1115.652, 74154.33
1116.134, 74800.23
1116.616, 75342.38
1117.098, 75802.59
1117.581, 76249.56
1118.063, 76657.95
1118.545, 77185.55
1119.027, 77892.90
1119.509, 78470.28
1119.991, 78822.73
1120.473, 79113.31
1120.955, 79441.97
1121.438, 79803.66
1121.920, 80196.67
1122.402, 80616.25
1122.884, 81049.70
1123.366, 81489.13
1123.848, 81845.78
1124.330, 82117.07
1124.812, 82390.16
1125.294, 82703.53
1125.776, 83016.13
1126.259, 83295.63
1126.741, 83538.05
1127.223, 83724.58
1127.705, 83875.87
1128.187, 84021.97
1128.669, 84169.55
1129.151, 84348.77
1129.633, 84547.05
1130.116, 84665.22
1130.598, 84637.97
1131.080, 84581.05
1131.562, 84533.31
1132.044, 84530.55
1132.526, 84644.21
1133.008, 84785.02
1133.490, 84875.66
1133.973, 84900.94
1134.455, 84826.47
1134.937, 84621.18
1135.419, 84517.48
1135.901, 84693.86
1136.383, 84783.05
1136.865, 84600.77
1137.347, 84427.40
1137.829, 84452.13
1138.312, 84536.41
1138.794, 84500.50
1139.276, 84355.98
1139.758, 84217.03
1140.240, 84076.32
1140.722, 83979.02
1141.204, 83951.55
1141.686, 83844.59
1142.168, 83587.52
1142.651, 83371.84
1143.133, 83363.32
1143.615, 83442.66
1144.097, 83350.22
1144.579, 83125.41
1145.061, 82990.73
1145.543, 82942.43
1146.025, 82998.40
1146.508, 83134.38
1146.990, 83189.45
1147.472, 83096.05
1147.954, 82979.54
1148.436, 82951.72
1148.918, 82967.36
1149.400, 82959.00
1149.882, 82969.73
1150.365, 83104.23
1150.847, 83285.18
1151.329, 83349.71
1151.811, 83286.69
1152.293, 83213.39
1152.775, 83152.07
1153.257, 83151.80
1153.739, 83272.27
1154.221, 83408.78
1154.703, 83499.34
1155.186, 83593.14
1155.668, 83724.59
1156.150, 83896.80
1156.632, 84125.52
1157.114, 84419.34
1157.596, 84660.34
1158.078, 84811.31
1158.560, 84997.45
1159.043, 85256.38
1159.525, 85474.30
1160.007, 85582.98
1160.489, 85686.84
1160.971, 85895.23
1161.453, 86189.30
1161.935, 86552.27
1162.417, 86965.45
1162.900, 87146.98
1163.382, 87122.59
1163.864, 87157.98
1164.346, 87309.55
1164.828, 87518.73
1165.310, 87755.01
1165.792, 87988.98
1166.274, 88182.72
1166.756, 88361.03
1167.239, 88552.46
1167.721, 88749.09
1168.203, 88926.25
1168.685, 89101.54
1169.167, 89331.12
1169.649, 89613.75
1170.131, 89854.90
1170.613, 90013.55
1171.095, 90131.50
1171.578, 90169.25
1172.060, 90238.39
1172.542, 90469.52
1173.024, 90692.36
1173.506, 90702.24
1173.988, 90591.20
1174.470, 90593.05
1174.952, 90722.34
1175.434, 90831.42
1175.917, 90915.43
1176.399, 90998.12
1176.881, 91086.04
1177.363, 91155.41
1177.845, 91196.63
1178.327, 91205.23
1178.809, 91169.96
1179.291, 91114.34
1179.774, 91096.53
1180.256, 91108.70
1180.738, 91115.00
1181.220, 91123.89
1181.702, 91190.30
1182.184, 91305.10
1182.666, 91365.73
1183.148, 91322.93
1183.630, 91299.99
1184.113, 91432.05
1184.595, 91582.99
1185.077, 91619.62
1185.559, 91644.28
1186.041, 91750.88
1186.523, 91920.77
1187.005, 92115.71
1187.487, 92329.89
1187.969, 92561.48
1188.452, 92799.68
1188.934, 93077.69
1189.416, 93440.71
1189.898, 93764.37
1190.380, 93967.17
1190.862, 94209.63
1191.344, 94596.87
1191.826, 95085.60
1192.309, 95618.94
1192.791, 96190.44
1193.273, 96729.73
1193.755, 97241.65
1194.237, 97808.43
1194.719, 98442.20
1195.201, 99137.99
1195.683, 99895.52
1196.166, 100723.9
1196.648, 101637.2
1197.130, 102599.9
1197.612, 103558.2
1198.094, 104548.2
1198.576, 105622.3
1199.058, 106750.1
1199.540, 107880.6
1200.022, 109015.8
1200.505, 110165.3
1200.987, 111332.6
1201.469, 112507.2
1201.951, 113627.4
1202.433, 114849.2
1202.915, 116239.1
1203.397, 117687.9
1203.879, 119166.2
1204.361, 120676.6
1204.844, 122250.6
1205.326, 123831.1
1205.808, 125269.7
1206.290, 126569.6
1206.772, 128121.4
1207.254, 129935.4
1207.736, 131727.2
1208.218, 133473.5
1208.701, 135222.8
1209.183, 136984.7
1209.665, 138687.1
1210.147, 140253.0
1210.629, 141795.9
1211.111, 143467.3
1211.593, 145191.1
1212.075, 146829.5
1212.557, 148453.3
1213.040, 150209.7
1213.522, 152045.6
1214.004, 153797.5
1214.486, 155423.4
1214.968, 156991.8
1215.450, 158470.6
1215.932, 159965.3
1216.414, 161614.7
1216.896, 163121.0
1217.379, 164304.9
1217.861, 165423.8
1218.343, 166724.0
1218.825, 168096.5
1219.307, 169297.8
1219.789, 170330.2
1220.271, 171252.7
1220.753, 172065.6
1221.236, 172818.1
1221.718, 173518.4
1222.200, 174178.8
1222.682, 174798.4
1223.164, 175341.2
1223.646, 175791.9
1224.128, 176105.5
1224.610, 176139.0
1225.093, 176095.5
1225.575, 176276.5
1226.057, 176458.4
1226.539, 176321.2
1227.021, 175933.9
1227.503, 175552.6
1227.985, 175223.2
1228.467, 174768.9
1228.949, 174118.9
1229.432, 173412.1
1229.914, 172668.0
1230.396, 171864.2
1230.878, 171005.6
1231.360, 170036.9
1231.842, 168878.7
1232.324, 167690.8
1232.806, 166819.8
1233.288, 166160.4
1233.771, 165132.3
1234.253, 163808.7
1234.735, 162489.8
1235.217, 161206.6
1235.699, 159937.5
1236.181, 158670.9
1236.663, 157383.2
1237.145, 156064.4
1237.628, 154734.6
1238.110, 153398.8
1238.592, 152086.2
1239.074, 150820.5
1239.556, 149592.1
1240.038, 148399.3
1240.520, 147233.9
1241.002, 146090.2
1241.484, 144968.1
1241.967, 143862.8
1242.449, 142767.7
1242.931, 141682.8
1243.413, 140579.7
1243.895, 139683.3
1244.377, 139060.0
1244.859, 138454.8
1245.341, 137723.5
1245.823, 136975.4
1246.306, 136329.7
1246.788, 135750.8
1247.270, 135176.1
1247.752, 134637.8
1248.234, 134170.2
1248.716, 133793.5
1249.198, 133555.5
1249.680, 133438.0
1250.163, 133360.1
1250.645, 133298.3
1251.127, 133283.3
1251.609, 133345.3
1252.091, 133419.9
1252.573, 133463.9
1253.055, 133565.5
1253.537, 133752.7
1254.020, 134031.3
1254.502, 134422.8
1254.984, 134879.1
1255.466, 135264.9
1255.948, 135602.2
1256.430, 136068.2
1256.912, 136634.6
1257.394, 137176.8
1257.876, 137691.9
1258.359, 138266.5
1258.841, 138915.4
1259.323, 139551.5
1259.805, 140111.5
1260.287, 140695.2
1260.769, 141386.4
1261.251, 142094.9
1261.733, 142826.1
1262.215, 143492.8
1262.698, 143973.2
1263.180, 144372.4
1263.662, 144886.0
1264.144, 145486.7
1264.626, 145969.2
1265.108, 146324.2
1265.590, 146665.9
1266.072, 147001.5
1266.555, 147313.9
1267.037, 147592.3
1267.519, 147830.2
1268.001, 148033.4
1268.483, 148201.6
1268.965, 148346.0
1269.447, 148429.5
1269.929, 148388.0
1270.411, 148286.9
1270.894, 148231.8
1271.376, 148098.9
1271.858, 147768.5
##END=



