##NAMES=Larisaite
##RRUFFID=R060879
##IDEAL CHEMISTRY=Na(H_3_O)(U^6+^O_2_)_3_(Se^4+^O_3_)_2_O_2_&#183;4H_2_O
##LOCALITY=Repete mine, San Juan County, Utah, USA
##OWNER=RRUFF
##SOURCE=Michael Scott
##DESCRIPTION=Flattened aggregate of greenish yellow platy crystals
##STATUS=The identification of this mineral has been made only by X-ray diffraction.
##URL=rruff.info/R060879
194.8047, 79737.76
195.2868, 79735.65
195.7689, 79744.06
196.2511, 79764.88
196.7332, 79797.87
197.2153, 79839.20
197.6974, 79888.87
198.1795, 79954.67
198.6616, 80060.02
199.1437, 80211.48
199.6259, 80308.98
200.1080, 80323.68
200.5901, 80281.95
201.0722, 80275.54
201.5543, 80306.13
202.0364, 80361.60
202.5186, 80433.91
203.0007, 80522.23
203.4828, 80619.96
203.9649, 80728.28
204.4470, 80842.15
204.9291, 80933.30
205.4113, 80991.75
205.8934, 81044.41
206.3755, 81115.02
206.8576, 81203.80
207.3397, 81305.73
207.8218, 81436.56
208.3040, 81590.54
208.7861, 81660.93
209.2682, 81620.76
209.7503, 81549.34
210.2324, 81542.82
210.7145, 81634.34
211.1967, 81690.30
211.6788, 81665.10
212.1609, 81556.84
212.6430, 81502.29
213.1251, 81520.13
213.6072, 81573.25
214.0894, 81616.27
214.5715, 81645.22
215.0536, 81672.74
215.5357, 81689.66
216.0178, 81685.40
216.4999, 81748.87
216.9820, 81906.34
217.4642, 82098.24
217.9463, 82242.37
218.4284, 82324.81
218.9105, 82377.35
219.3926, 82405.47
219.8747, 82404.20
220.3569, 82391.54
220.8390, 82352.77
221.3211, 82314.18
221.8032, 82329.55
222.2853, 82442.05
222.7674, 82531.34
223.2496, 82545.26
223.7317, 82450.74
224.2138, 82403.11
224.6959, 82421.27
225.1780, 82479.81
225.6601, 82526.45
226.1423, 82552.20
226.6244, 82581.77
227.1065, 82625.73
227.5886, 82692.44
228.0707, 82747.74
228.5528, 82782.14
229.0350, 82805.30
229.5171, 82843.49
229.9992, 82901.37
230.4813, 82963.99
230.9634, 83025.09
231.4455, 83086.05
231.9276, 83144.31
232.4098, 83211.37
232.8919, 83274.39
233.3740, 83286.73
233.8561, 83212.19
234.3382, 83141.63
234.8203, 83119.71
235.3025, 83170.56
235.7846, 83223.14
236.2667, 83280.45
236.7488, 83339.70
237.2309, 83383.56
237.7130, 83387.82
238.1952, 83411.16
238.6773, 83495.48
239.1594, 83708.23
239.6415, 83838.07
240.1236, 83844.07
240.6057, 83759.03
241.0879, 83718.56
241.5700, 83729.63
242.0521, 83777.13
242.5342, 83858.91
243.0163, 84003.39
243.4984, 84119.07
243.9806, 84186.57
244.4627, 84216.27
244.9448, 84262.42
245.4269, 84324.17
245.9090, 84396.61
246.3911, 84478.77
246.8732, 84579.14
247.3554, 84661.62
247.8375, 84714.23
248.3196, 84742.68
248.8017, 84788.30
249.2838, 84886.19
249.7659, 84954.16
250.2481, 84932.13
250.7302, 84760.13
251.2123, 84642.88
251.6944, 84624.73
252.1765, 84685.37
252.6586, 84695.34
253.1408, 84625.98
253.6229, 84555.33
254.1050, 84537.92
254.5871, 84604.80
255.0692, 84658.48
255.5513, 84685.31
256.0334, 84692.25
256.5156, 84720.13
256.9977, 84787.75
257.4798, 84847.23
257.9619, 84853.61
258.4440, 84758.75
258.9261, 84730.78
259.4083, 84802.13
259.8904, 84952.91
260.3725, 85074.83
260.8546, 85147.98
261.3367, 85220.40
261.8188, 85331.58
262.3010, 85507.49
262.7831, 85639.69
263.2652, 85701.48
263.7473, 85708.64
264.2294, 85750.50
264.7115, 85845.84
265.1937, 85938.79
265.6758, 85991.41
266.1579, 85999.05
266.6400, 85978.65
267.1221, 85911.85
267.6042, 85821.67
268.0864, 85827.82
268.5685, 85978.42
269.0506, 86124.88
269.5327, 86154.31
270.0148, 86038.08
270.4969, 85941.70
270.9791, 85887.40
271.4612, 85867.49
271.9433, 85848.75
272.4254, 85827.34
272.9075, 85822.05
273.3896, 85849.55
273.8718, 85914.11
274.3539, 85985.16
274.8360, 86061.23
275.3181, 86140.63
275.8002, 86223.51
276.2823, 86313.72
276.7645, 86388.41
277.2466, 86425.46
277.7287, 86419.03
278.2108, 86419.99
278.6929, 86434.14
279.1750, 86456.09
279.6572, 86469.38
280.1393, 86469.76
280.6214, 86476.66
281.1035, 86500.73
281.5856, 86541.20
282.0677, 86601.40
282.5499, 86690.98
283.0320, 86788.88
283.5141, 86847.52
283.9962, 86865.71
284.4783, 86860.36
284.9604, 86841.78
285.4425, 86810.45
285.9247, 86755.08
286.4068, 86661.98
286.8889, 86568.72
287.3710, 86558.77
287.8531, 86633.61
288.3352, 86720.41
288.8174, 86783.45
289.2995, 86823.37
289.7816, 86842.62
290.2637, 86840.26
290.7458, 86817.33
291.2279, 86774.87
291.7101, 86712.24
292.1922, 86629.30
292.6743, 86490.77
293.1564, 86326.63
293.6385, 86257.50
294.1206, 86312.97
294.6028, 86407.87
295.0849, 86426.88
295.5670, 86381.67
296.0491, 86333.85
296.5312, 86326.16
297.0133, 86343.12
297.4955, 86348.70
297.9776, 86342.65
298.4597, 86327.41
298.9418, 86286.09
299.4239, 86233.06
299.9060, 86216.05
300.3882, 86268.90
300.8703, 86368.66
301.3524, 86479.82
301.8345, 86598.37
302.3166, 86720.66
302.7987, 86841.65
303.2809, 86959.95
303.7630, 87079.92
304.2451, 87209.42
304.7272, 87332.35
305.2093, 87427.73
305.6914, 87493.50
306.1736, 87535.70
306.6557, 87557.98
307.1378, 87561.88
307.6199, 87551.02
308.1020, 87495.16
308.5841, 87449.20
309.0663, 87481.41
309.5484, 87595.04
310.0305, 87695.38
310.5126, 87733.47
310.9947, 87722.09
311.4768, 87675.73
311.9590, 87545.32
312.4411, 87425.40
312.9232, 87390.63
313.4053, 87435.16
313.8874, 87474.93
314.3695, 87489.44
314.8516, 87469.80
315.3337, 87407.80
315.8159, 87211.16
316.2980, 87056.12
316.7801, 87044.91
317.2622, 87156.81
317.7443, 87253.68
318.2264, 87287.23
318.7086, 87283.43
319.1907, 87259.13
319.6728, 87173.85
320.1549, 87123.13
320.6370, 87143.49
321.1191, 87222.77
321.6013, 87313.86
322.0834, 87442.76
322.5655, 87550.31
323.0476, 87599.38
323.5297, 87516.25
324.0118, 87471.21
324.4940, 87500.42
324.9761, 87584.38
325.4582, 87671.84
325.9403, 87760.76
326.4224, 87847.43
326.9045, 87932.34
327.3867, 88026.46
327.8688, 88096.57
328.3509, 88130.30
328.8330, 88140.73
329.3151, 88152.82
329.7972, 88182.55
330.2794, 88197.88
330.7615, 88183.77
331.2436, 88121.84
331.7257, 88095.09
332.2078, 88126.29
332.6899, 88181.34
333.1721, 88210.46
333.6542, 88197.44
334.1363, 88188.69
334.6184, 88202.78
335.1005, 88245.27
335.5826, 88253.24
336.0648, 88196.34
336.5469, 88142.41
337.0290, 88176.19
337.5111, 88334.56
337.9932, 88463.86
338.4753, 88516.84
338.9575, 88502.04
339.4396, 88528.82
339.9217, 88616.34
340.4038, 88692.77
340.8859, 88683.27
341.3680, 88578.20
341.8502, 88479.77
342.3323, 88403.99
342.8144, 88352.30
343.2965, 88345.61
343.7786, 88392.94
344.2607, 88433.08
344.7429, 88406.77
345.2250, 88324.97
345.7071, 88281.54
346.1892, 88293.98
346.6713, 88347.84
347.1534, 88421.98
347.6355, 88515.27
348.1176, 88616.95
348.5998, 88714.76
349.0819, 88812.72
349.5640, 88933.53
350.0461, 89085.66
350.5282, 89229.73
351.0103, 89308.76
351.4925, 89335.27
351.9746, 89360.67
352.4567, 89427.63
352.9388, 89501.07
353.4209, 89530.99
353.9030, 89513.66
354.3852, 89469.05
354.8673, 89396.87
355.3494, 89313.88
355.8315, 89249.17
356.3136, 89220.15
356.7957, 89216.20
357.2779, 89242.24
357.7600, 89298.78
358.2421, 89345.81
358.7242, 89335.56
359.2063, 89313.52
359.6884, 89327.98
360.1706, 89428.43
360.6527, 89534.70
361.1348, 89624.61
361.6169, 89693.37
362.0990, 89717.31
362.5811, 89622.39
363.0633, 89518.04
363.5454, 89482.38
364.0275, 89615.28
364.5096, 89690.60
364.9917, 89600.05
365.4738, 89408.38
365.9560, 89285.24
366.4381, 89350.87
366.9202, 89421.13
367.4023, 89414.01
367.8844, 89262.80
368.3665, 89174.95
368.8487, 89207.73
369.3308, 89299.10
369.8129, 89353.14
370.2950, 89329.94
370.7771, 89319.43
371.2592, 89351.15
371.7414, 89434.23
372.2235, 89489.07
372.7056, 89501.84
373.1877, 89495.82
373.6698, 89492.23
374.1519, 89484.02
374.6341, 89489.80
375.1162, 89520.74
375.5983, 89569.42
376.0804, 89572.22
376.5625, 89508.07
377.0446, 89446.92
377.5267, 89454.02
378.0089, 89539.13
378.4910, 89607.55
378.9731, 89653.12
379.4552, 89672.84
379.9373, 89645.98
380.4194, 89571.09
380.9016, 89498.96
381.3837, 89457.76
381.8658, 89447.75
382.3479, 89463.62
382.8300, 89510.37
383.3121, 89570.88
383.7943, 89616.15
384.2764, 89650.88
384.7585, 89699.07
385.2406, 89759.66
385.7227, 89841.83
386.2048, 89980.46
386.6870, 90176.44
387.1691, 90349.19
387.6512, 90381.02
388.1333, 90340.25
388.6154, 90351.16
389.0975, 90534.55
389.5797, 90719.10
390.0618, 90721.08
390.5439, 90570.33
391.0260, 90448.73
391.5081, 90504.09
391.9902, 90616.96
392.4724, 90683.39
392.9545, 90665.63
393.4366, 90627.55
393.9187, 90592.17
394.4008, 90561.02
394.8829, 90532.84
395.3651, 90487.45
395.8472, 90463.79
396.3293, 90483.49
396.8114, 90559.05
397.2935, 90645.18
397.7756, 90775.25
398.2578, 90897.22
398.7399, 90944.30
399.2220, 90762.84
399.7041, 90659.14
400.1862, 90725.41
400.6683, 90975.70
401.1505, 91142.91
401.6326, 91184.67
402.1147, 91182.96
402.5968, 91200.61
403.0789, 91244.72
403.5610, 91294.01
404.0432, 91339.52
404.5253, 91390.62
405.0074, 91494.12
405.4895, 91675.90
405.9716, 91844.16
406.4537, 91934.74
406.9359, 91940.84
407.4180, 91973.92
407.9001, 92041.98
408.3822, 92131.80
408.8643, 92224.50
409.3464, 92319.67
409.8285, 92422.43
410.3106, 92534.95
410.7928, 92656.08
411.2749, 92793.17
411.7570, 92949.86
412.2391, 93090.51
412.7212, 93147.42
413.2033, 93159.81
413.6855, 93238.48
414.1676, 93462.05
414.6497, 93717.14
415.1318, 93853.13
415.6139, 93889.01
416.0960, 93921.55
416.5782, 94017.79
417.0603, 94138.52
417.5424, 94244.88
418.0245, 94332.55
418.5066, 94393.70
418.9887, 94407.89
419.4709, 94393.59
419.9530, 94386.28
420.4351, 94459.13
420.9172, 94494.13
421.3993, 94407.92
421.8814, 94175.80
422.3636, 94000.93
422.8457, 93962.06
423.3278, 93987.88
423.8099, 94015.31
424.2920, 94098.33
424.7741, 94116.42
425.2563, 94024.31
425.7384, 93839.61
426.2205, 93694.41
426.7026, 93610.71
427.1847, 93539.34
427.6668, 93452.91
428.1490, 93333.67
428.6311, 93240.80
429.1132, 93178.61
429.5953, 93136.00
430.0774, 93092.99
430.5595, 93046.82
431.0417, 93005.75
431.5238, 92980.29
432.0059, 92967.13
432.4880, 92919.91
432.9701, 92834.08
433.4522, 92735.80
433.9344, 92656.66
434.4165, 92593.41
434.8986, 92503.96
435.3807, 92357.67
435.8628, 92206.55
436.3449, 92168.49
436.8271, 92228.42
437.3092, 92269.48
437.7913, 92176.26
438.2734, 92027.22
438.7555, 91944.90
439.2376, 91956.99
439.7197, 91982.80
440.2018, 91965.10
440.6840, 91912.95
441.1661, 91842.98
441.6482, 91718.61
442.1303, 91612.53
442.6124, 91581.55
443.0945, 91625.23
443.5767, 91657.26
444.0588, 91635.70
444.5409, 91595.71
445.0230, 91564.20
445.5051, 91603.20
445.9872, 91586.66
446.4694, 91443.06
446.9515, 91224.55
447.4336, 91099.94
447.9157, 91186.20
448.3978, 91250.18
448.8799, 91192.11
449.3621, 90951.20
449.8442, 90826.38
450.3263, 90863.83
450.8084, 90968.74
451.2905, 91028.31
451.7726, 91030.80
452.2548, 91022.16
452.7369, 91004.28
453.2190, 90982.34
453.7011, 90993.11
454.1832, 91043.03
454.6653, 91080.70
455.1475, 91051.55
455.6296, 90969.74
456.1117, 90928.99
456.5938, 90950.34
457.0759, 90987.43
457.5580, 90968.41
458.0402, 90907.79
458.5223, 90858.52
459.0044, 90868.27
459.4865, 90893.31
459.9686, 90870.60
460.4507, 90800.59
460.9329, 90735.05
461.4150, 90710.87
461.8971, 90712.32
462.3792, 90724.68
462.8613, 90767.16
463.3434, 90788.07
463.8256, 90725.02
464.3077, 90617.84
464.7898, 90574.55
465.2719, 90689.50
465.7540, 90824.39
466.2361, 90918.43
466.7183, 90956.02
467.2004, 90991.28
467.6825, 91033.66
468.1646, 91071.20
468.6467, 91089.50
469.1288, 91059.79
469.6109, 91056.69
470.0930, 91106.73
470.5752, 91193.62
471.0573, 91218.06
471.5394, 91150.98
472.0215, 91085.58
472.5036, 91095.64
472.9857, 91188.92
473.4679, 91212.52
473.9500, 91151.09
474.4321, 91040.50
474.9142, 90921.84
475.3963, 90797.91
475.8784, 90683.69
476.3606, 90589.50
476.8427, 90510.75
477.3248, 90437.34
477.8069, 90371.82
478.2890, 90322.33
478.7711, 90309.91
479.2533, 90315.16
479.7354, 90305.03
480.2175, 90257.98
480.6996, 90230.82
481.1817, 90286.71
481.6638, 90386.61
482.1460, 90456.95
482.6281, 90426.05
483.1102, 90388.81
483.5923, 90386.41
484.0744, 90420.14
484.5565, 90453.33
485.0387, 90469.62
485.5208, 90481.41
486.0029, 90498.77
486.4850, 90553.61
486.9671, 90565.03
487.4492, 90511.27
487.9314, 90417.02
488.4135, 90347.71
488.8956, 90318.43
489.3777, 90293.66
489.8598, 90273.58
490.3419, 90262.72
490.8241, 90183.63
491.3062, 90017.81
491.7883, 89849.34
492.2704, 89774.12
492.7525, 89785.56
493.2346, 89794.34
493.7168, 89779.35
494.1989, 89752.20
494.6810, 89736.66
495.1631, 89727.67
495.6452, 89702.84
496.1273, 89621.59
496.6095, 89526.08
497.0916, 89481.62
497.5737, 89496.33
498.0558, 89508.17
498.5379, 89468.63
499.0201, 89406.73
499.5022, 89357.00
499.9843, 89331.06
500.4664, 89320.35
500.9485, 89335.98
501.4306, 89369.50
501.9127, 89386.13
502.3948, 89356.12
502.8770, 89329.05
503.3591, 89324.05
503.8412, 89341.43
504.3233, 89378.18
504.8054, 89451.16
505.2875, 89524.92
505.7697, 89555.27
506.2518, 89518.60
506.7339, 89507.62
507.2160, 89552.42
507.6981, 89627.30
508.1802, 89631.61
508.6624, 89556.59
509.1445, 89493.91
509.6266, 89534.99
510.1087, 89643.94
510.5908, 89646.51
511.0729, 89523.27
511.5551, 89381.26
512.0372, 89333.64
512.5193, 89354.46
513.0014, 89386.10
513.4835, 89420.70
513.9656, 89447.29
514.4478, 89446.05
514.9299, 89425.26
515.4120, 89416.46
515.8941, 89418.40
516.3762, 89446.36
516.8583, 89517.90
517.3405, 89647.73
517.8226, 89760.77
518.3047, 89866.98
518.7868, 89935.62
519.2689, 89930.52
519.7510, 89731.20
520.2332, 89623.97
520.7153, 89687.24
521.1974, 89867.34
521.6795, 89947.55
522.1616, 89894.52
522.6437, 89819.74
523.1259, 89766.88
523.6080, 89735.77
524.0901, 89757.49
524.5722, 89848.48
525.0543, 89937.69
525.5364, 89927.63
526.0186, 89838.77
526.5007, 89784.09
526.9828, 89803.04
527.4649, 89853.17
527.9470, 89879.37
528.4291, 89885.09
528.9113, 89887.09
529.3934, 89900.92
529.8755, 89910.83
530.3576, 89905.17
530.8397, 89883.10
531.3218, 89841.04
531.8040, 89773.52
532.2861, 89687.62
532.7682, 89592.24
533.2503, 89462.87
533.7324, 89356.22
534.2145, 89273.91
534.6967, 89222.30
535.1788, 89218.97
535.6609, 89327.77
536.1430, 89396.01
536.6251, 89356.93
537.1072, 89204.34
537.5894, 89119.16
538.0715, 89112.17
538.5536, 89146.77
539.0357, 89201.19
539.5178, 89273.95
539.9999, 89333.48
540.4821, 89370.88
540.9642, 89397.07
541.4463, 89433.90
541.9284, 89474.91
542.4105, 89497.45
542.8926, 89460.13
543.3748, 89413.11
543.8569, 89427.45
544.3390, 89497.04
544.8211, 89555.68
545.3032, 89552.59
545.7853, 89528.43
546.2675, 89519.73
546.7495, 89546.08
547.2316, 89560.43
547.7137, 89538.44
548.1959, 89501.85
548.6780, 89481.73
549.1601, 89503.30
549.6422, 89517.36
550.1243, 89517.86
550.6064, 89505.41
551.0886, 89476.34
551.5707, 89413.97
552.0528, 89371.74
552.5349, 89395.03
553.0170, 89487.98
553.4991, 89535.88
553.9813, 89532.82
554.4634, 89497.55
554.9455, 89443.31
555.4276, 89373.55
555.9097, 89302.73
556.3918, 89225.98
556.8740, 89164.22
557.3561, 89150.63
557.8382, 89176.81
558.3203, 89213.11
558.8024, 89260.27
559.2845, 89301.00
559.7667, 89320.95
560.2488, 89317.92
560.7309, 89311.94
561.2130, 89302.70
561.6951, 89296.45
562.1772, 89297.58
562.6594, 89297.41
563.1415, 89314.35
563.6236, 89343.95
564.1057, 89389.38
564.5878, 89463.74
565.0699, 89580.46
565.5521, 89687.14
566.0342, 89782.84
566.5163, 89856.34
566.9984, 89815.52
567.4805, 89644.95
567.9626, 89488.55
568.4448, 89466.89
568.9269, 89545.63
569.4090, 89626.76
569.8911, 89706.30
570.3732, 89752.54
570.8553, 89708.20
571.3375, 89611.33
571.8196, 89530.51
572.3017, 89492.13
572.7838, 89472.20
573.2659, 89454.57
573.7480, 89443.52
574.2302, 89452.94
574.7123, 89544.13
575.1944, 89606.02
575.6765, 89577.96
576.1586, 89436.19
576.6407, 89338.16
577.1229, 89315.95
577.6050, 89305.57
578.0871, 89252.19
578.5692, 89139.50
579.0513, 89057.28
579.5334, 89021.97
580.0156, 89009.55
580.4977, 88952.82
580.9798, 88858.10
581.4619, 88842.37
581.9440, 89002.23
582.4261, 89234.61
582.9083, 89348.89
583.3904, 89353.30
583.8725, 89318.77
584.3546, 89252.75
584.8367, 89189.45
585.3188, 89164.18
585.8010, 89186.17
586.2831, 89215.38
586.7652, 89253.66
587.2473, 89280.84
587.7294, 89277.35
588.2115, 89183.48
588.6937, 89129.99
589.1758, 89156.12
589.6579, 89225.41
590.1400, 89245.75
590.6221, 89200.25
591.1042, 89144.37
591.5864, 89092.98
592.0685, 89046.91
592.5506, 89011.95
593.0327, 88988.58
593.5148, 88978.09
593.9969, 89003.02
594.4791, 89042.85
594.9612, 89023.65
595.4433, 88928.98
595.9254, 88828.45
596.4075, 88783.60
596.8896, 88778.70
597.3718, 88788.66
597.8539, 88816.56
598.3360, 88844.62
598.8181, 88866.07
599.3002, 88881.39
599.7823, 88891.84
600.2645, 88908.61
600.7466, 88908.34
601.2287, 88870.02
601.7108, 88787.80
602.1929, 88753.51
602.6750, 88785.28
603.1572, 88836.12
603.6393, 88875.84
604.1214, 88903.27
604.6035, 88923.90
605.0856, 88933.27
605.5677, 88948.08
606.0499, 89014.23
606.5320, 89112.45
607.0141, 89156.16
607.4962, 89086.95
607.9783, 88989.76
608.4604, 88958.47
608.9425, 88979.88
609.4246, 89014.25
609.9067, 89064.20
610.3889, 89102.30
610.8710, 89103.24
611.3531, 89063.23
611.8352, 89038.76
612.3173, 89054.19
612.7994, 89079.80
613.2816, 89101.65
613.7637, 89137.47
614.2458, 89128.17
614.7279, 89049.86
615.2100, 88958.67
615.6921, 88953.32
616.1743, 89046.66
616.6564, 89054.96
617.1385, 88893.15
617.6206, 88679.52
618.1027, 88672.38
618.5848, 88839.36
619.0670, 88996.23
619.5491, 89036.92
620.0312, 89017.84
620.5133, 88971.82
620.9954, 88904.18
621.4775, 88881.63
621.9597, 88991.52
622.4418, 89120.54
622.9239, 89187.02
623.4060, 89151.29
623.8881, 89119.19
624.3702, 89105.00
624.8524, 89096.03
625.3345, 89081.28
625.8166, 89064.42
626.2987, 89029.61
626.7808, 88964.79
627.2629, 88890.74
627.7451, 88860.42
628.2272, 88874.74
628.7093, 88895.48
629.1914, 88935.63
629.6735, 88958.93
630.1556, 88858.43
630.6378, 88651.55
631.1199, 88464.09
631.6020, 88372.50
632.0841, 88344.26
632.5662, 88363.77
633.0483, 88439.31
633.5305, 88501.32
634.0126, 88511.26
634.4947, 88502.43
634.9768, 88503.52
635.4589, 88537.55
635.9410, 88550.47
636.4232, 88534.54
636.9053, 88499.44
637.3874, 88457.89
637.8695, 88404.91
638.3516, 88363.58
638.8337, 88341.80
639.3159, 88332.44
639.7980, 88313.34
640.2801, 88285.95
640.7622, 88269.69
641.2443, 88282.66
641.7264, 88312.12
642.2086, 88347.97
642.6907, 88390.55
643.1728, 88419.98
643.6549, 88417.71
644.1370, 88405.79
644.6191, 88397.34
645.1013, 88378.91
645.5834, 88403.38
646.0655, 88541.09
646.5476, 88691.04
647.0297, 88734.98
647.5118, 88593.66
647.9940, 88538.60
648.4761, 88625.80
648.9582, 88793.30
649.4403, 88912.13
649.9224, 88978.03
650.4045, 89014.95
650.8867, 89025.27
651.3688, 89014.70
651.8509, 88986.27
652.3330, 88943.80
652.8151, 88913.91
653.2972, 88935.61
653.7794, 88965.20
654.2615, 88967.43
654.7436, 88938.94
655.2257, 88902.40
655.7078, 88847.82
656.1899, 88801.33
656.6721, 88785.73
657.1542, 88846.98
657.6363, 88849.55
658.1184, 88760.85
658.6005, 88647.31
659.0826, 88610.61
659.5648, 88657.93
660.0469, 88691.05
660.5290, 88692.81
661.0111, 88661.77
661.4932, 88574.20
661.9753, 88446.53
662.4575, 88345.56
662.9396, 88316.67
663.4217, 88325.23
663.9038, 88357.34
664.3859, 88408.20
664.8680, 88440.77
665.3502, 88429.63
665.8323, 88406.91
666.3144, 88386.66
666.7965, 88368.13
667.2786, 88351.64
667.7607, 88315.86
668.2429, 88299.41
668.7250, 88339.99
669.2071, 88447.48
669.6892, 88509.02
670.1713, 88506.22
670.6534, 88477.93
671.1355, 88484.81
671.6176, 88512.41
672.0997, 88507.05
672.5818, 88452.58
673.0640, 88368.72
673.5461, 88254.76
674.0282, 88131.98
674.5103, 88040.24
674.9924, 88034.38
675.4745, 88033.36
675.9567, 88013.58
676.4388, 87977.13
676.9209, 87928.44
677.4030, 87870.10
677.8851, 87801.35
678.3672, 87707.99
678.8494, 87588.91
679.3315, 87541.39
679.8136, 87568.23
680.2957, 87640.13
680.7778, 87761.20
681.2599, 87905.66
681.7421, 87969.97
682.2242, 87934.37
682.7063, 87902.23
683.1884, 88002.90
683.6705, 88146.00
684.1526, 88207.98
684.6348, 88103.89
685.1169, 88015.03
685.5990, 88032.91
686.0811, 88099.66
686.5632, 88123.44
687.0453, 88073.03
687.5275, 88030.03
688.0096, 88009.24
688.4917, 88006.23
688.9738, 88003.79
689.4559, 88001.66
689.9380, 88011.37
690.4202, 88046.09
690.9023, 88090.20
691.3844, 88087.83
691.8665, 88047.25
692.3486, 88036.63
692.8307, 88143.01
693.3129, 88266.95
693.7950, 88318.26
694.2771, 88287.20
694.7592, 88227.00
695.2413, 88107.99
695.7234, 87998.35
696.2056, 87954.43
696.6877, 88020.80
697.1698, 88023.08
697.6519, 87941.34
698.1340, 87828.77
698.6161, 87730.41
699.0983, 87647.91
699.5804, 87616.49
700.0625, 87656.95
700.5446, 87708.18
701.0267, 87676.10
701.5089, 87591.19
701.9910, 87525.75
702.4731, 87505.55
702.9552, 87512.06
703.4373, 87537.88
703.9194, 87580.05
704.4016, 87632.93
704.8837, 87740.59
705.3658, 87804.39
705.8479, 87779.20
706.3300, 87682.75
706.8121, 87619.42
707.2943, 87596.59
707.7764, 87584.73
708.2585, 87576.78
708.7406, 87569.96
709.2227, 87535.13
709.7048, 87473.58
710.1870, 87435.70
710.6691, 87486.13
711.1512, 87572.02
711.6333, 87618.11
712.1154, 87613.73
712.5975, 87621.67
713.0797, 87698.20
713.5618, 87784.88
714.0439, 87832.73
714.5260, 87808.70
715.0081, 87794.12
715.4902, 87791.59
715.9724, 87794.63
716.4545, 87787.28
716.9366, 87761.45
717.4187, 87794.46
717.9008, 87917.95
718.3829, 88053.13
718.8651, 88055.69
719.3472, 87967.15
719.8293, 87921.20
720.3114, 87990.45
720.7935, 88088.60
721.2756, 88170.50
721.7578, 88229.12
722.2399, 88245.48
722.7220, 88135.40
723.2041, 88067.36
723.6862, 88137.52
724.1683, 88302.31
724.6505, 88342.12
725.1326, 88207.05
725.6147, 88071.78
726.0968, 88004.43
726.5789, 87997.53
727.0610, 88025.84
727.5432, 88088.52
728.0253, 88143.68
728.5074, 88158.22
728.9895, 88150.77
729.4716, 88149.77
729.9537, 88158.15
730.4359, 88147.72
730.9180, 88078.70
731.4000, 88006.04
731.8821, 87971.79
732.3643, 88008.30
732.8464, 88008.90
733.3285, 87953.24
733.8106, 87884.34
734.2927, 87840.72
734.7748, 87823.79
735.2570, 87799.52
735.7391, 87760.86
736.2212, 87725.93
736.7033, 87734.08
737.1854, 87762.42
737.6675, 87756.77
738.1497, 87698.51
738.6318, 87614.66
739.1139, 87487.37
739.5960, 87358.31
740.0781, 87290.16
740.5602, 87389.05
741.0424, 87441.72
741.5245, 87395.82
742.0066, 87294.59
742.4887, 87233.99
742.9708, 87217.51
743.4529, 87221.16
743.9351, 87239.78
744.4172, 87266.60
744.8993, 87293.01
745.3814, 87314.08
745.8635, 87317.50
746.3456, 87264.12
746.8278, 87209.74
747.3099, 87234.07
747.7920, 87313.23
748.2741, 87323.85
748.7562, 87162.52
749.2383, 86984.57
749.7205, 86863.01
750.2026, 86800.19
750.6847, 86719.40
751.1668, 86626.12
751.6489, 86514.74
752.1310, 86359.56
752.6132, 86175.61
753.0953, 86074.28
753.5774, 86056.38
754.0595, 86076.44
754.5416, 86137.70
755.0237, 86191.57
755.5059, 86162.68
755.9880, 86025.71
756.4701, 85912.57
756.9522, 85891.50
757.4343, 85900.72
757.9164, 85893.85
758.3986, 85870.38
758.8807, 85826.13
759.3628, 85765.98
759.8449, 85680.79
760.3270, 85546.14
760.8091, 85371.12
761.2913, 85244.46
761.7734, 85191.71
762.2555, 85157.85
762.7376, 85059.03
763.2197, 84946.41
763.7018, 84907.92
764.1840, 85010.84
764.6661, 85117.64
765.1482, 85175.20
765.6303, 85198.16
766.1124, 85203.34
766.5945, 85147.80
767.0767, 85151.33
767.5588, 85246.95
768.0409, 85381.13
768.5230, 85440.21
769.0051, 85424.43
769.4872, 85432.07
769.9694, 85503.98
770.4515, 85591.38
770.9336, 85632.12
771.4157, 85634.70
771.8978, 85621.27
772.3799, 85566.10
772.8621, 85535.84
773.3442, 85585.70
773.8263, 85690.50
774.3084, 85752.70
774.7905, 85772.20
775.2726, 85746.64
775.7548, 85649.41
776.2369, 85516.17
776.7190, 85509.02
777.2011, 85628.85
777.6832, 85751.50
778.1653, 85789.35
778.6475, 85804.30
779.1296, 85894.85
779.6117, 86047.42
780.0938, 86199.59
780.5759, 86290.89
781.0580, 86392.73
781.5402, 86547.32
782.0223, 86756.31
782.5044, 86951.22
782.9865, 87131.98
783.4686, 87288.98
783.9507, 87396.17
784.4329, 87463.93
784.9150, 87633.38
785.3971, 87908.05
785.8792, 88197.57
786.3613, 88447.43
786.8434, 88674.47
787.3256, 88884.65
787.8077, 89080.85
788.2898, 89316.76
788.7719, 89651.63
789.2540, 90006.55
789.7361, 90321.95
790.2183, 90584.30
790.7004, 90880.74
791.1825, 91216.56
791.6646, 91578.20
792.1467, 91983.80
792.6288, 92418.23
793.1110, 92731.27
793.5930, 92906.18
794.0751, 93086.97
794.5573, 93447.55
795.0394, 93864.13
795.5215, 94157.63
796.0036, 94284.47
796.4857, 94424.32
796.9678, 94707.33
797.4500, 94982.01
797.9321, 95131.73
798.4142, 95098.65
798.8963, 95130.17
799.3784, 95261.52
799.8605, 95383.92
800.3427, 95374.19
800.8248, 95259.37
801.3069, 95178.00
801.7890, 95155.37
802.2711, 95098.09
802.7532, 94911.67
803.2354, 94649.10
803.7175, 94359.41
804.1996, 94036.34
804.6817, 93729.76
805.1638, 93461.47
805.6459, 93206.80
806.1281, 92950.59
806.6102, 92698.38
807.0923, 92410.98
807.5744, 92073.22
808.0565, 91735.88
808.5386, 91457.50
809.0208, 91228.99
809.5029, 91046.55
809.9850, 90930.08
810.4671, 90778.05
810.9492, 90488.40
811.4313, 90133.98
811.9135, 89796.77
812.3956, 89482.95
812.8777, 89204.12
813.3598, 88975.77
813.8419, 88765.84
814.3240, 88533.92
814.8062, 88279.55
815.2883, 88031.24
815.7704, 87791.31
816.2525, 87572.38
816.7346, 87416.95
817.2167, 87290.74
817.6989, 87122.80
818.1810, 86875.47
818.6631, 86629.38
819.1452, 86413.74
819.6273, 86224.05
820.1094, 86060.06
820.5916, 85946.02
821.0737, 85805.77
821.5558, 85625.88
822.0379, 85434.26
822.5200, 85257.99
823.0021, 85102.34
823.4843, 85023.02
823.9664, 85056.93
824.4485, 85085.84
824.9306, 84960.57
825.4127, 84756.28
825.8948, 84585.68
826.3770, 84505.52
826.8591, 84419.67
827.3412, 84286.61
827.8233, 84144.80
828.3054, 84047.09
828.7875, 84010.74
829.2697, 83942.14
829.7518, 83823.91
830.2339, 83684.50
830.7160, 83540.58
831.1981, 83406.44
831.6802, 83333.55
832.1624, 83371.74
832.6445, 83379.59
833.1266, 83203.48
833.6087, 82963.96
834.0908, 82812.45
834.5729, 82891.63
835.0551, 82895.54
835.5372, 82768.38
836.0193, 82614.38
836.5014, 82589.52
836.9835, 82692.05
837.4656, 82748.75
837.9478, 82726.57
838.4299, 82663.82
838.9120, 82558.06
839.3941, 82453.66
839.8762, 82437.38
840.3583, 82623.12
840.8405, 82715.52
841.3226, 82508.73
841.8047, 82215.15
842.2868, 82076.95
842.7689, 82157.64
843.2510, 82191.42
843.7332, 82144.55
844.2153, 82080.53
844.6974, 82106.86
845.1795, 82186.23
845.6616, 82182.47
846.1437, 82050.01
846.6259, 81908.53
847.1080, 81831.38
847.5901, 81800.08
848.0722, 81796.97
848.5543, 81842.98
849.0364, 81877.91
849.5186, 81918.16
850.0007, 81927.63
850.4828, 81846.21
850.9649, 81675.62
851.4470, 81578.39
851.9291, 81577.79
852.4113, 81616.05
852.8934, 81670.87
853.3755, 81714.73
853.8576, 81695.40
854.3397, 81577.88
854.8218, 81500.20
855.3039, 81546.23
855.7860, 81625.29
856.2681, 81662.91
856.7502, 81640.42
857.2324, 81643.01
857.7145, 81674.58
858.1966, 81711.98
858.6787, 81733.27
859.1608, 81741.33
859.6429, 81740.56
860.1251, 81729.05
860.6072, 81728.41
861.0893, 81779.65
861.5714, 81826.46
862.0535, 81818.83
862.5356, 81728.73
863.0178, 81670.45
863.4999, 81666.85
863.9820, 81657.11
864.4641, 81583.71
864.9462, 81457.17
865.4283, 81404.66
865.9105, 81427.99
866.3926, 81447.83
866.8747, 81415.35
867.3568, 81341.63
867.8389, 81221.84
868.3210, 81057.33
868.8032, 80925.05
869.2853, 80874.89
869.7674, 80835.28
870.2495, 80775.99
870.7316, 80699.70
871.2137, 80641.48
871.6959, 80600.19
872.1780, 80600.72
872.6601, 80712.64
873.1422, 80848.55
873.6243, 80847.93
874.1064, 80731.05
874.5886, 80639.76
875.0707, 80671.57
875.5528, 80709.52
876.0349, 80680.15
876.5170, 80600.67
876.9991, 80590.23
877.4813, 80670.14
877.9634, 80738.62
878.4455, 80753.75
878.9276, 80732.59
879.4097, 80705.27
879.8918, 80676.65
880.3740, 80664.33
880.8561, 80715.98
881.3382, 80750.58
881.8203, 80692.34
882.3024, 80580.66
882.7845, 80542.75
883.2667, 80625.27
883.7488, 80695.92
884.2309, 80721.50
884.7130, 80727.95
885.1951, 80791.72
885.6772, 80895.89
886.1594, 80945.35
886.6415, 80891.46
887.1236, 80801.63
887.6057, 80699.55
888.0878, 80609.38
888.5699, 80570.03
889.0521, 80642.67
889.5342, 80696.73
890.0163, 80716.23
890.4984, 80721.59
890.9805, 80741.52
891.4626, 80775.24
891.9448, 80797.97
892.4269, 80800.84
892.9090, 80806.71
893.3911, 80835.57
893.8732, 80880.88
894.3553, 80934.50
894.8375, 80993.40
895.3196, 81056.81
895.8017, 81149.00
896.2838, 81221.97
896.7659, 81243.38
897.2480, 81211.84
897.7302, 81137.29
898.2123, 81020.08
898.6944, 80880.57
899.1765, 80720.82
899.6586, 80563.05
900.1407, 80450.31
900.6229, 80388.55
901.1050, 80327.23
901.5871, 80226.87
902.0692, 80143.05
902.5513, 80109.03
903.0334, 80126.31
903.5156, 80125.05
903.9977, 80101.43
904.4798, 80073.84
904.9619, 80031.80
905.4440, 79999.36
905.9261, 80062.43
906.4083, 80192.18
906.8904, 80256.96
907.3725, 80104.81
907.8546, 79955.88
908.3367, 79941.68
908.8188, 80021.13
909.3010, 80011.58
909.7831, 79881.02
910.2652, 79783.28
910.7473, 79772.30
911.2294, 79812.25
911.7115, 79851.29
912.1937, 79882.43
912.6758, 79883.29
913.1579, 79810.68
913.6400, 79747.95
914.1221, 79731.43
914.6042, 79750.80
915.0864, 79797.38
915.5685, 79917.95
916.0506, 79930.31
916.5327, 79784.62
917.0148, 79598.41
917.4969, 79531.54
917.9790, 79555.91
918.4611, 79590.45
918.9432, 79622.77
919.4254, 79655.34
919.9075, 79692.48
920.3896, 79730.20
920.8717, 79760.41
921.3538, 79769.96
921.8359, 79817.26
922.3181, 79919.56
922.8002, 80012.20
923.2823, 80027.27
923.7644, 79985.48
924.2465, 79973.45
924.7286, 79990.91
925.2108, 80014.77
925.6929, 80015.44
926.1750, 80027.45
926.6571, 80093.87
927.1392, 80214.38
927.6213, 80265.95
928.1035, 80221.99
928.5856, 80171.59
929.0677, 80157.30
929.5498, 80159.17
930.0319, 80112.59
930.5140, 80026.05
930.9962, 79931.86
931.4783, 79793.05
931.9604, 79707.70
932.4425, 79789.24
932.9246, 79959.98
933.4067, 80030.92
933.8889, 79941.60
934.3710, 79863.54
934.8531, 79823.98
935.3352, 79798.65
935.8173, 79732.29
936.2994, 79644.70
936.7816, 79621.12
937.2637, 79697.80
937.7458, 79773.92
938.2279, 79781.90
938.7100, 79752.57
939.1921, 79711.92
939.6743, 79649.25
940.1564, 79626.07
940.6385, 79671.38
941.1206, 79690.02
941.6027, 79572.52
942.0848, 79363.77
942.5670, 79218.46
943.0491, 79144.16
943.5312, 79117.40
944.0133, 79176.45
944.4954, 79233.75
944.9775, 79224.87
945.4597, 79149.63
945.9418, 79094.64
946.4239, 79067.49
946.9060, 79039.12
947.3881, 78982.43
947.8702, 78932.09
948.3524, 79011.77
948.8345, 79179.00
949.3166, 79282.19
949.7987, 79203.84
950.2808, 79096.39
950.7629, 79006.25
951.2451, 78945.48
951.7272, 78936.31
952.2093, 78996.01
952.6914, 79052.70
953.1735, 79099.41
953.6556, 79134.31
954.1378, 79141.58
954.6199, 79136.98
955.1020, 79170.65
955.5841, 79265.97
956.0662, 79317.10
956.5483, 79218.02
957.0305, 79094.07
957.5126, 79044.80
957.9947, 79084.45
958.4768, 79104.32
958.9589, 79102.95
959.4410, 79094.64
959.9232, 79092.25
960.4053, 79087.83
960.8874, 79064.18
961.3695, 79022.73
961.8516, 78975.95
962.3337, 78886.30
962.8159, 78838.97
963.2980, 78889.63
963.7801, 78999.66
964.2622, 79072.98
964.7443, 79110.22
965.2264, 79101.47
965.7086, 79035.48
966.1907, 78943.86
966.6728, 78852.95
967.1549, 78769.42
967.6370, 78707.45
968.1191, 78684.68
968.6013, 78658.66
969.0834, 78609.97
969.5655, 78565.42
970.0476, 78550.06
970.5297, 78565.43
971.0118, 78562.69
971.4940, 78537.01
971.9761, 78540.51
972.4582, 78680.23
972.9403, 78829.70
973.4224, 78841.68
973.9045, 78709.20
974.3867, 78597.15
974.8688, 78483.17
975.3509, 78474.34
975.8330, 78657.38
976.3151, 78951.03
976.7972, 79023.21
977.2794, 78901.21
977.7615, 78795.69
978.2435, 78815.09
978.7256, 78859.00
979.2078, 78824.37
979.6899, 78766.23
980.1720, 78787.42
980.6541, 79005.95
981.1362, 79084.16
981.6183, 78962.17
982.1005, 78782.19
982.5826, 78716.73
983.0647, 78732.66
983.5468, 78723.80
984.0289, 78678.02
984.5110, 78617.13
984.9932, 78518.04
985.4753, 78439.58
985.9574, 78446.35
986.4395, 78537.68
986.9216, 78555.68
987.4037, 78484.23
987.8859, 78407.99
988.3680, 78360.63
988.8501, 78341.05
989.3322, 78369.04
989.8143, 78424.38
990.2964, 78450.33
990.7786, 78414.41
991.2607, 78354.61
991.7428, 78247.22
992.2249, 78143.84
992.7070, 78135.01
993.1891, 78231.38
993.6713, 78265.34
994.1534, 78206.25
994.6355, 78140.70
995.1176, 78158.92
995.5997, 78222.60
996.0818, 78294.90
996.5640, 78376.52
997.0461, 78421.32
997.5282, 78393.74
998.0103, 78370.50
998.4924, 78391.60
998.9745, 78446.95
999.4567, 78484.02
999.9388, 78503.84
1000.421, 78516.41
1000.903, 78524.51
1001.385, 78529.38
1001.867, 78542.52
1002.349, 78550.60
1002.831, 78516.91
1003.314, 78405.45
1003.796, 78348.80
1004.278, 78382.57
1004.760, 78424.73
1005.242, 78344.41
1005.724, 78194.26
1006.206, 78089.13
1006.688, 78050.16
1007.171, 78056.61
1007.653, 78174.16
1008.135, 78265.81
1008.617, 78234.62
1009.099, 78085.27
1009.581, 78006.10
1010.063, 78000.03
1010.545, 78020.72
1011.027, 78050.47
1011.510, 78086.49
1011.992, 78130.80
1012.474, 78177.06
1012.956, 78210.70
1013.438, 78211.46
1013.920, 78221.56
1014.402, 78256.93
1014.884, 78289.00
1015.367, 78284.81
1015.849, 78243.95
1016.331, 78143.20
1016.813, 77971.89
1017.295, 77840.35
1017.777, 77873.83
1018.259, 77952.70
1018.741, 77990.17
1019.223, 77979.54
1019.706, 77937.30
1020.188, 77849.99
1020.670, 77780.14
1021.152, 77757.45
1021.634, 77769.84
1022.116, 77803.81
1022.598, 77851.25
1023.080, 77890.96
1023.563, 77864.77
1024.045, 77890.63
1024.527, 78054.58
1025.009, 78241.36
1025.491, 78308.04
1025.973, 78250.44
1026.455, 78209.88
1026.937, 78197.32
1027.419, 78200.66
1027.901, 78230.74
1028.384, 78256.67
1028.866, 78252.55
1029.348, 78216.47
1029.830, 78142.98
1030.312, 77999.81
1030.794, 77904.45
1031.276, 77924.20
1031.758, 77996.98
1032.241, 77947.48
1032.723, 77814.34
1033.205, 77714.77
1033.687, 77702.79
1034.169, 77716.96
1034.651, 77731.29
1035.133, 77757.32
1035.615, 77812.64
1036.098, 77906.73
1036.580, 77950.80
1037.062, 77935.80
1037.544, 77915.02
1038.026, 77936.81
1038.508, 77970.95
1038.990, 77981.13
1039.472, 77967.64
1039.954, 77956.99
1040.437, 77977.20
1040.919, 77964.42
1041.401, 77894.92
1041.883, 77799.29
1042.365, 77748.21
1042.847, 77729.10
1043.329, 77679.75
1043.811, 77572.45
1044.293, 77480.80
1044.776, 77468.29
1045.258, 77478.57
1045.740, 77465.34
1046.222, 77427.80
1046.704, 77351.94
1047.186, 77225.17
1047.668, 77154.46
1048.150, 77273.13
1048.633, 77440.66
1049.115, 77450.36
1049.597, 77349.71
1050.079, 77291.24
1050.561, 77356.95
1051.043, 77419.27
1051.525, 77465.82
1052.007, 77497.34
1052.490, 77498.88
1052.972, 77483.12
1053.454, 77512.65
1053.936, 77598.94
1054.418, 77680.81
1054.900, 77720.67
1055.382, 77736.13
1055.864, 77736.58
1056.346, 77721.38
1056.828, 77674.66
1057.311, 77589.07
1057.793, 77535.23
1058.275, 77575.83
1058.757, 77617.20
1059.239, 77506.71
1059.721, 77320.73
1060.203, 77191.70
1060.685, 77200.86
1061.168, 77209.46
1061.650, 77220.13
1062.132, 77219.55
1062.614, 77199.66
1063.096, 77159.27
1063.578, 77069.21
1064.060, 76937.20
1064.542, 76847.79
1065.025, 76887.48
1065.507, 76943.24
1065.989, 76963.52
1066.471, 76954.98
1066.953, 76929.03
1067.435, 76884.39
1067.917, 76835.47
1068.399, 76781.17
1068.881, 76738.12
1069.364, 76709.48
1069.846, 76709.01
1070.328, 76760.73
1070.810, 76885.16
1071.292, 76984.00
1071.774, 77063.95
1072.256, 77088.62
1072.738, 77008.27
1073.220, 76871.66
1073.703, 76821.33
1074.185, 76833.11
1074.667, 76835.31
1075.149, 76776.15
1075.631, 76729.74
1076.113, 76741.94
1076.595, 76760.39
1077.077, 76724.46
1077.559, 76636.78
1078.042, 76552.61
1078.524, 76477.83
1079.006, 76410.79
1079.488, 76338.67
1079.970, 76286.98
1080.452, 76276.25
1080.934, 76308.43
1081.416, 76367.56
1081.899, 76467.11
1082.381, 76538.49
1082.863, 76557.49
1083.345, 76550.48
1083.827, 76543.45
1084.309, 76539.74
1084.791, 76541.41
1085.273, 76539.13
1085.755, 76576.27
1086.238, 76703.77
1086.720, 76801.48
1087.202, 76789.90
1087.684, 76696.98
1088.166, 76645.64
1088.648, 76630.55
1089.130, 76617.23
1089.612, 76588.24
1090.094, 76560.38
1090.577, 76531.20
1091.059, 76516.61
1091.541, 76539.41
1092.023, 76603.95
1092.505, 76684.78
1092.987, 76783.58
1093.469, 76845.86
1093.951, 76783.71
1094.434, 76693.28
1094.916, 76664.77
1095.398, 76695.51
1095.880, 76719.38
1096.362, 76721.89
1096.844, 76744.38
1097.326, 76804.59
1097.808, 76868.95
1098.291, 76891.95
1098.773, 76879.71
1099.255, 76838.48
1099.737, 76762.76
1100.219, 76695.60
1100.701, 76622.91
1101.183, 76598.77
1101.665, 76674.65
1102.147, 76817.26
1102.630, 76858.79
1103.112, 76815.23
1103.594, 76764.59
1104.076, 76748.46
1104.558, 76722.48
1105.040, 76627.45
1105.522, 76532.70
1106.004, 76527.95
1106.486, 76628.80
1106.969, 76691.18
1107.451, 76711.16
1107.933, 76689.49
1108.415, 76596.02
1108.897, 76487.95
1109.379, 76415.14
1109.861, 76375.80
1110.343, 76348.59
1110.826, 76333.52
1111.308, 76339.45
1111.790, 76383.16
1112.272, 76405.51
1112.754, 76287.68
1113.236, 76117.02
1113.718, 76035.86
1114.200, 76067.52
1114.682, 76110.63
1115.165, 76166.93
1115.647, 76187.97
1116.129, 76140.81
1116.611, 76056.47
1117.093, 76030.34
1117.575, 76040.30
1118.057, 76009.16
1118.539, 75877.50
1119.021, 75786.29
1119.504, 75846.37
1119.986, 75926.21
1120.468, 75926.19
1120.950, 75849.56
1121.432, 75833.44
1121.914, 75875.54
1122.396, 75922.62
1122.878, 75953.84
1123.361, 75972.16
1123.843, 75989.09
1124.325, 75990.59
1124.807, 75943.20
1125.289, 75824.45
1125.771, 75772.60
1126.253, 75798.47
1126.735, 75872.23
1127.218, 75993.88
1127.700, 76127.28
1128.182, 76240.95
1128.664, 76328.70
1129.146, 76381.00
1129.628, 76383.24
1130.110, 76385.63
1130.592, 76404.75
1131.074, 76405.46
1131.557, 76292.84
1132.039, 76141.48
1132.521, 76100.57
1133.003, 76207.04
1133.485, 76296.09
1133.967, 76338.71
1134.449, 76357.16
1134.931, 76371.32
1135.413, 76363.27
1135.896, 76242.15
1136.378, 76053.95
1136.860, 75938.60
1137.342, 75984.01
1137.824, 76018.76
1138.306, 75963.92
1138.788, 75887.06
1139.270, 75817.61
1139.752, 75757.29
1140.235, 75765.97
1140.717, 75833.71
1141.199, 75897.06
1141.681, 75904.72
1142.163, 75910.25
1142.645, 75976.39
1143.127, 76037.78
1143.609, 75987.11
1144.092, 75808.05
1144.574, 75703.98
1145.056, 75690.85
1145.538, 75676.34
1146.020, 75567.05
1146.502, 75447.38
1146.984, 75391.56
1147.466, 75393.59
1147.948, 75403.30
1148.431, 75424.34
1148.913, 75437.08
1149.395, 75433.70
1149.877, 75438.12
1150.359, 75481.23
1150.841, 75541.45
1151.323, 75601.78
1151.805, 75657.05
1152.287, 75669.21
1152.770, 75605.57
1153.252, 75582.25
1153.734, 75655.69
1154.216, 75748.50
1154.698, 75707.83
1155.180, 75601.64
1155.662, 75548.95
1156.144, 75589.09
1156.627, 75639.96
1157.109, 75704.71
1157.591, 75756.83
1158.073, 75791.54
1158.555, 75799.95
1159.037, 75720.55
1159.519, 75593.88
1160.001, 75535.12
1160.484, 75656.81
1160.966, 75727.61
1161.448, 75679.30
1161.930, 75593.63
1162.412, 75542.49
1162.894, 75510.03
1163.376, 75375.45
1163.858, 75162.09
1164.340, 75015.62
1164.823, 75042.35
1165.305, 75114.71
1165.787, 75241.90
1166.269, 75351.42
1166.751, 75327.73
1167.233, 75189.25
1167.715, 75118.06
1168.197, 75126.70
1168.679, 75153.55
1169.162, 75185.18
1169.644, 75194.18
1170.126, 75126.72
1170.608, 75036.80
1171.090, 75048.45
1171.572, 75158.19
1172.054, 75269.26
1172.536, 75365.90
1173.019, 75439.70
1173.501, 75471.94
1173.983, 75487.64
1174.465, 75507.53
1174.947, 75528.47
1175.429, 75522.47
1175.911, 75487.36
1176.393, 75493.14
1176.875, 75581.90
1177.358, 75644.40
1177.840, 75516.65
1178.322, 75349.97
1178.804, 75317.60
1179.286, 75435.52
1179.768, 75487.78
1180.250, 75468.03
1180.732, 75437.62
1181.214, 75407.52
1181.697, 75404.23
1182.179, 75480.63
1182.661, 75590.38
1183.143, 75671.58
1183.625, 75720.66
1184.107, 75712.85
1184.589, 75636.59
1185.071, 75561.62
1185.554, 75538.53
1186.036, 75532.88
1186.518, 75503.05
1187.000, 75458.05
1187.482, 75417.02
1187.964, 75392.34
1188.446, 75352.02
1188.928, 75294.38
1189.411, 75230.27
1189.893, 75157.05
1190.375, 75092.10
1190.857, 75069.16
1191.339, 75077.65
1191.821, 75081.45
1192.303, 75091.05
1192.785, 75047.60
1193.267, 74921.96
1193.750, 74817.00
1194.232, 74872.03
1194.714, 74999.84
1195.196, 75082.06
1195.678, 75110.88
1196.160, 75089.59
1196.642, 74965.91
1197.124, 74902.40
1197.606, 74939.86
1198.089, 75006.78
1198.571, 75007.25
1199.053, 74971.43
1199.535, 74944.87
1200.017, 74933.45
1200.499, 74937.22
1200.981, 74995.53
1201.463, 74979.98
1201.945, 74815.98
1202.428, 74647.48
1202.910, 74777.98
1203.392, 75052.44
1203.874, 75179.41
1204.356, 75092.28
1204.838, 75019.54
1205.320, 75010.62
1205.802, 75001.47
1206.285, 74962.22
1206.767, 74918.68
1207.249, 74937.64
1207.731, 74988.28
1208.213, 75005.35
1208.695, 74959.73
1209.177, 74936.95
1209.659, 74977.63
1210.141, 74983.55
1210.624, 74882.63
1211.106, 74738.52
1211.588, 74695.03
1212.070, 74724.48
1212.552, 74763.43
1213.034, 74786.19
1213.516, 74840.62
1213.998, 74967.30
1214.480, 75051.41
1214.963, 74992.31
1215.445, 74856.12
1215.927, 74814.66
1216.409, 74840.01
1216.891, 74860.31
1217.373, 74869.59
1217.855, 74840.04
1218.337, 74755.21
1218.820, 74668.10
1219.302, 74622.24
1219.784, 74604.91
1220.266, 74592.81
1220.748, 74581.10
1221.230, 74555.24
1221.712, 74472.84
1222.194, 74437.59
1222.677, 74477.32
1223.159, 74521.13
1223.641, 74477.68
1224.123, 74397.86
1224.605, 74403.36
1225.087, 74476.38
1225.569, 74531.42
1226.051, 74530.19
1226.533, 74517.48
1227.016, 74490.70
1227.498, 74468.93
1227.980, 74475.77
1228.462, 74501.09
1228.944, 74537.16
1229.426, 74577.73
1229.908, 74590.01
1230.390, 74534.33
1230.872, 74504.58
1231.355, 74515.15
1231.837, 74555.51
1232.319, 74647.06
1232.801, 74742.51
1233.283, 74739.62
1233.765, 74644.48
1234.247, 74601.72
1234.729, 74667.33
1235.212, 74714.77
1235.694, 74714.83
1236.176, 74701.98
1236.658, 74720.27
1237.140, 74754.30
1237.622, 74804.65
1238.104, 74864.64
1238.586, 74816.16
1239.068, 74596.21
1239.551, 74440.19
1240.033, 74413.23
1240.515, 74446.71
1240.997, 74485.56
1241.479, 74510.72
1241.961, 74486.01
1242.443, 74408.25
1242.925, 74364.70
1243.407, 74369.46
1243.890, 74364.94
1244.372, 74321.31
1244.854, 74299.30
1245.336, 74423.77
1245.818, 74582.84
1246.300, 74625.22
1246.782, 74519.77
1247.264, 74491.38
1247.747, 74555.35
1248.229, 74590.92
1248.711, 74550.81
1249.193, 74485.35
1249.675, 74439.40
1250.157, 74406.83
1250.639, 74387.84
1251.121, 74384.66
1251.604, 74361.26
1252.086, 74318.85
1252.568, 74278.23
1253.050, 74252.47
1253.532, 74224.59
1254.014, 74165.15
1254.496, 74105.41
1254.978, 74082.16
1255.460, 74092.98
1255.943, 74066.16
1256.425, 74000.73
1256.907, 74026.45
1257.389, 74260.01
1257.871, 74450.99
1258.353, 74360.00
1258.835, 74172.13
1259.317, 74060.95
1259.799, 74022.97
1260.281, 73953.66
1260.764, 73861.40
1261.246, 73826.98
1261.728, 73937.82
1262.210, 74015.99
1262.692, 73948.17
1263.174, 73825.87
1263.656, 73712.16
1264.138, 73610.27
1264.621, 73536.93
1265.103, 73490.60
1265.585, 73454.91
1266.067, 73409.77
1266.549, 73400.98
1267.031, 73452.03
1267.513, 73538.10
1267.995, 73658.02
1268.478, 73795.98
1268.960, 73884.46
1269.442, 73935.11
1269.924, 73994.71
1270.406, 74104.52
1270.888, 74173.20
1271.370, 74165.93
1271.852, 74148.73
1272.334, 74164.05
1272.817, 74204.19
1273.299, 74267.70
1273.781, 74339.88
1274.263, 74386.01
1274.745, 74422.66
1275.227, 74373.37
1275.709, 74212.55
1276.191, 74045.53
1276.673, 73947.77
1277.156, 73895.81
1277.638, 73872.42
1278.120, 73859.03
1278.602, 73805.90
1279.084, 73651.67
1279.566, 73600.73
1280.048, 73673.93
1280.530, 73747.25
1281.013, 73716.84
1281.495, 73653.42
1281.977, 73612.92
1282.459, 73600.38
1282.941, 73637.66
1283.423, 73755.03
1283.905, 73743.69
1284.387, 73592.38
1284.870, 73479.31
1285.352, 73559.96
1285.834, 73686.90
1286.316, 73791.96
1286.798, 73856.87
1287.280, 73851.98
1287.762, 73772.62
1288.244, 73759.28
1288.726, 73807.71
1289.208, 73828.41
1289.691, 73757.15
1290.173, 73660.40
1290.655, 73532.87
1291.137, 73427.80
1291.619, 73402.88
1292.101, 73442.49
1292.583, 73498.49
1293.065, 73572.09
1293.548, 73595.11
##END=



