##NAMES=Lasalite
##RRUFFID=R070476
##IDEAL CHEMISTRY=Na_2_Mg_2_(V^5+^_10_O_28_)&#183;20H_2_O
##LOCALITY=Vanadium Queen mine, Paradox Valley, San Juan County, Utah, USA
##OWNER=RRUFF
##SOURCE=Dakota Matrix Minerals
##DESCRIPTION=Orange massive
##STATUS=The identification of this mineral has been confirmed by single-crystal X-ray diffraction.
##URL=rruff.info/R070476
138.5845, 6350.496
139.0667, 6696.608
139.5488, 7063.459
140.0309, 7453.425
140.5130, 7852.203
140.9951, 8267.295
141.4772, 8688.227
141.9594, 9096.729
142.4415, 9509.699
142.9236, 9882.141
143.4057, 10205.21
143.8878, 10474.96
144.3699, 10702.14
144.8521, 10903.58
145.3342, 11058.69
145.8163, 11096.75
146.2984, 10973.19
146.7805, 10786.45
147.2626, 10580.33
147.7448, 10355.12
148.2269, 10111.65
148.7090, 9834.017
149.1911, 9527.363
149.6732, 9265.346
150.1554, 9051.815
150.6375, 8879.381
151.1196, 8747.199
151.6017, 8682.551
152.0838, 8626.690
152.5659, 8564.734
153.0481, 8492.884
153.5302, 8461.796
154.0123, 8488.037
154.4944, 8550.491
154.9765, 8629.216
155.4586, 8720.634
155.9408, 8829.462
156.4229, 8956.093
156.9050, 9064.152
157.3871, 9148.324
157.8692, 9251.367
158.3513, 9370.359
158.8335, 9494.927
159.3156, 9630.715
159.7977, 9766.261
160.2798, 9892.487
160.7619, 9995.504
161.2440, 10122.34
161.7262, 10304.65
162.2083, 10521.52
162.6904, 10728.84
163.1725, 10882.70
163.6546, 11037.31
164.1367, 11226.43
164.6189, 11470.66
165.1010, 11732.23
165.5831, 11990.55
166.0652, 12250.11
166.5473, 12531.44
167.0294, 12831.59
167.5116, 13157.44
167.9937, 13514.47
168.4758, 13930.97
168.9579, 14352.74
169.4400, 14745.42
169.9221, 15110.76
170.4043, 15466.03
170.8864, 15824.60
171.3685, 16177.64
171.8506, 16520.50
172.3327, 16889.33
172.8148, 17220.40
173.2970, 17452.06
173.7791, 17583.65
174.2612, 17654.48
174.7433, 17702.73
175.2254, 17713.30
175.7076, 17656.10
176.1897, 17519.97
176.6718, 17309.70
177.1539, 17021.21
177.6360, 16649.46
178.1181, 16229.23
178.6003, 15769.62
179.0824, 15276.62
179.5645, 14790.66
180.0466, 14318.58
180.5287, 13859.24
181.0108, 13416.87
181.4930, 12988.01
181.9751, 12575.68
182.4572, 12182.39
182.9393, 11807.10
183.4214, 11467.45
183.9035, 11188.23
184.3857, 10953.56
184.8678, 10716.56
185.3499, 10471.70
185.8320, 10223.76
186.3141, 9987.281
186.7962, 9759.693
187.2784, 9533.667
187.7605, 9300.080
188.2426, 9062.731
188.7247, 8833.673
189.2068, 8619.855
189.6889, 8414.580
190.1711, 8196.238
190.6532, 7965.793
191.1353, 7737.452
191.6174, 7522.686
192.0995, 7324.121
192.5816, 7140.142
193.0638, 6975.442
193.5459, 6825.277
194.0280, 6670.061
194.5101, 6505.429
194.9922, 6352.638
195.4743, 6237.026
195.9565, 6159.615
196.4386, 6085.000
196.9207, 6000.295
197.4028, 5909.771
197.8849, 5841.386
198.3671, 5796.855
198.8492, 5767.109
199.3313, 5738.569
199.8134, 5709.572
200.2955, 5698.001
200.7776, 5712.854
201.2598, 5753.079
201.7419, 5794.313
202.2240, 5834.663
202.7061, 5880.266
203.1882, 5942.043
203.6703, 6022.545
204.1525, 6106.262
204.6346, 6183.572
205.1167, 6252.354
205.5988, 6345.962
206.0809, 6468.917
206.5630, 6610.359
207.0452, 6755.142
207.5273, 6906.903
208.0094, 7050.792
208.4915, 7180.314
208.9736, 7291.739
209.4557, 7405.269
209.9379, 7522.880
210.4200, 7641.255
210.9021, 7757.990
211.3842, 7881.439
211.8663, 7982.018
212.3484, 8041.976
212.8306, 8054.668
213.3127, 8056.609
213.7948, 8049.947
214.2769, 8032.897
214.7590, 7997.082
215.2411, 7934.726
215.7233, 7870.887
216.2054, 7820.195
216.6875, 7786.501
217.1696, 7752.713
217.6517, 7716.629
218.1338, 7679.657
218.6160, 7651.033
219.0981, 7640.791
219.5802, 7620.479
220.0623, 7568.015
220.5444, 7465.809
221.0265, 7380.831
221.5087, 7320.107
221.9908, 7280.333
222.4729, 7244.257
222.9550, 7202.709
223.4371, 7178.261
223.9192, 7188.681
224.4014, 7246.457
224.8835, 7307.812
225.3656, 7367.015
225.8477, 7425.707
226.3298, 7492.374
226.8119, 7572.333
227.2941, 7653.773
227.7762, 7725.255
228.2583, 7766.997
228.7404, 7840.515
229.2225, 7963.810
229.7046, 8130.547
230.1868, 8277.653
230.6689, 8393.658
231.1510, 8501.238
231.6331, 8618.604
232.1152, 8745.937
232.5974, 8881.447
233.0795, 9029.285
233.5616, 9188.516
234.0437, 9344.779
234.5258, 9493.729
235.0079, 9647.447
235.4901, 9816.479
235.9722, 10001.47
236.4543, 10203.10
236.9364, 10432.91
237.4185, 10691.33
237.9006, 10908.11
238.3828, 11054.31
238.8649, 11188.36
239.3470, 11368.86
239.8291, 11624.73
240.3112, 11871.90
240.7933, 12091.94
241.2755, 12284.98
241.7576, 12473.37
242.2397, 12658.51
242.7218, 12836.83
243.2039, 13002.27
243.6860, 13141.45
244.1682, 13294.64
244.6503, 13480.94
245.1324, 13704.82
245.6145, 13872.24
246.0966, 13956.05
246.5787, 14010.30
247.0609, 14094.34
247.5430, 14234.89
248.0251, 14354.61
248.5072, 14438.01
248.9893, 14483.68
249.4714, 14508.80
249.9536, 14517.11
250.4357, 14501.20
250.9178, 14453.01
251.3999, 14372.64
251.8820, 14261.51
252.3641, 14120.47
252.8463, 13951.43
253.3284, 13739.51
253.8105, 13461.24
254.2926, 13167.57
254.7747, 12918.27
255.2568, 12731.37
255.7390, 12550.05
256.2211, 12356.16
256.7032, 12149.35
257.1853, 11964.32
257.6674, 11803.37
258.1495, 11663.94
258.6317, 11544.81
259.1138, 11450.32
259.5959, 11368.26
260.0780, 11298.08
260.5601, 11239.43
261.0422, 11186.62
261.5244, 11145.38
262.0065, 11102.70
262.4886, 11040.32
262.9707, 10943.98
263.4528, 10865.00
263.9349, 10821.29
264.4171, 10814.25
264.8992, 10790.38
265.3813, 10748.78
265.8634, 10691.09
266.3455, 10613.87
266.8276, 10505.94
267.3098, 10412.81
267.7919, 10353.82
268.2740, 10328.77
268.7561, 10262.97
269.2382, 10143.49
269.7203, 10007.59
270.2025, 9893.098
270.6846, 9803.742
271.1667, 9725.482
271.6488, 9662.841
272.1309, 9613.567
272.6130, 9525.546
273.0952, 9388.208
273.5773, 9234.756
274.0594, 9099.525
274.5415, 8986.076
275.0236, 8872.908
275.5057, 8753.317
275.9879, 8629.379
276.4700, 8520.849
276.9521, 8431.242
277.4342, 8347.740
277.9163, 8256.094
278.3984, 8154.858
278.8806, 8059.708
279.3627, 7976.251
279.8448, 7902.395
280.3269, 7823.081
280.8090, 7736.896
281.2911, 7650.450
281.7733, 7566.999
282.2554, 7486.237
282.7375, 7413.138
283.2196, 7348.223
283.7017, 7291.695
284.1838, 7245.836
284.6660, 7211.188
285.1481, 7182.973
285.6302, 7159.034
286.1123, 7139.061
286.5944, 7115.543
287.0765, 7084.232
287.5587, 7049.925
288.0408, 7027.035
288.5229, 7016.127
289.0050, 7010.905
289.4871, 7007.223
289.9692, 7005.055
290.4514, 7003.269
290.9335, 6999.695
291.4156, 6998.334
291.8977, 7006.963
292.3798, 7025.523
292.8619, 7054.204
293.3441, 7099.212
293.8262, 7155.959
294.3083, 7201.876
294.7904, 7224.874
295.2726, 7247.209
295.7547, 7311.646
296.2368, 7415.007
296.7189, 7528.332
297.2010, 7632.872
297.6831, 7730.636
298.1653, 7827.250
298.6474, 7922.865
299.1295, 8019.595
299.6116, 8112.285
300.0937, 8204.832
300.5758, 8323.273
301.0580, 8496.772
301.5401, 8703.099
302.0222, 8908.234
302.5043, 9105.514
302.9864, 9299.539
303.4685, 9481.771
303.9507, 9660.570
304.4328, 9858.229
304.9149, 10101.06
305.3970, 10364.29
305.8791, 10621.91
306.3612, 10868.28
306.8434, 11108.93
307.3255, 11339.04
307.8076, 11563.21
308.2897, 11796.30
308.7718, 12054.01
309.2539, 12317.13
309.7361, 12567.90
310.2182, 12802.67
310.7003, 13030.48
311.1824, 13256.42
311.6645, 13477.28
312.1466, 13686.83
312.6288, 13891.55
313.1109, 14079.54
313.5930, 14239.03
314.0751, 14368.41
314.5572, 14496.84
315.0393, 14664.16
315.5215, 14833.61
316.0036, 14957.86
316.4857, 14989.46
316.9678, 14999.39
317.4499, 15018.47
317.9320, 15048.50
318.4142, 15084.88
318.8963, 15155.32
319.3784, 15218.88
319.8605, 15236.80
320.3426, 15153.98
320.8247, 15065.44
321.3069, 15013.31
321.7890, 14994.16
322.2711, 14942.63
322.7532, 14837.37
323.2353, 14696.59
323.7174, 14533.44
324.1996, 14349.12
324.6817, 14142.40
325.1638, 13909.24
325.6459, 13651.54
326.1280, 13388.42
326.6101, 13121.84
327.0923, 12849.61
327.5744, 12573.55
328.0565, 12285.37
328.5386, 12001.81
329.0207, 11725.76
329.5028, 11456.93
329.9850, 11183.50
330.4671, 10902.61
330.9492, 10620.60
331.4313, 10335.34
331.9134, 10025.38
332.3955, 9753.497
332.8777, 9536.693
333.3598, 9354.687
333.8419, 9150.219
334.3240, 8900.285
334.8061, 8662.711
335.2882, 8459.688
335.7704, 8300.995
336.2525, 8135.518
336.7346, 7954.118
337.2167, 7771.832
337.6988, 7615.134
338.1809, 7492.716
338.6631, 7366.082
339.1452, 7218.968
339.6273, 7048.776
340.1094, 6904.995
340.5915, 6793.005
341.0736, 6693.777
341.5558, 6585.796
342.0379, 6465.826
342.5200, 6355.041
343.0021, 6260.796
343.4842, 6180.437
343.9663, 6093.899
344.4485, 6000.780
344.9306, 5907.635
345.4127, 5823.213
345.8948, 5746.979
346.3769, 5672.522
346.8590, 5598.498
347.3412, 5526.271
347.8233, 5456.453
348.3054, 5389.514
348.7875, 5337.444
349.2696, 5328.105
349.7517, 5343.235
350.2339, 5322.942
350.7160, 5245.202
351.1981, 5152.424
351.6802, 5104.757
352.1623, 5094.961
352.6444, 5085.785
353.1266, 5048.083
353.6087, 4998.499
354.0908, 4964.979
354.5729, 4954.058
355.0550, 4945.601
355.5371, 4919.419
356.0193, 4881.598
356.5014, 4846.289
356.9835, 4822.245
357.4656, 4803.242
357.9477, 4785.309
358.4298, 4768.505
358.9120, 4750.306
359.3941, 4724.596
359.8762, 4698.134
360.3583, 4679.152
360.8404, 4684.122
361.3225, 4686.211
361.8047, 4667.852
362.2868, 4629.764
362.7689, 4596.181
363.2510, 4584.408
363.7331, 4576.611
364.2152, 4558.299
364.6974, 4514.396
365.1795, 4472.068
365.6616, 4440.053
366.1437, 4415.547
366.6258, 4384.975
367.1079, 4317.369
367.5901, 4264.373
368.0722, 4253.147
368.5543, 4322.566
369.0364, 4379.984
369.5185, 4444.900
370.0006, 4494.873
370.4828, 4475.076
370.9649, 4317.544
371.4470, 4166.996
371.9291, 4070.760
372.4112, 4043.603
372.8933, 4020.803
373.3755, 4005.768
373.8576, 3992.701
374.3397, 3972.789
374.8218, 3941.488
375.3039, 3914.424
375.7861, 3898.209
376.2682, 3892.443
376.7503, 3873.785
377.2324, 3836.841
377.7145, 3798.891
378.1967, 3779.202
378.6788, 3780.613
379.1609, 3773.512
379.6430, 3748.679
380.1251, 3713.630
380.6072, 3693.083
381.0894, 3688.574
381.5715, 3685.707
382.0536, 3673.800
382.5357, 3654.294
383.0178, 3635.493
383.4999, 3617.994
383.9821, 3602.179
384.4642, 3585.366
384.9463, 3568.827
385.4284, 3561.830
385.9105, 3579.393
386.3926, 3607.018
386.8748, 3616.797
387.3569, 3605.478
387.8390, 3588.612
388.3211, 3579.628
388.8032, 3575.730
389.2853, 3571.687
389.7675, 3560.155
390.2496, 3550.958
390.7317, 3557.618
391.2138, 3578.967
391.6959, 3593.582
392.1780, 3581.062
392.6602, 3559.108
393.1423, 3546.067
393.6244, 3552.896
394.1065, 3562.201
394.5886, 3565.795
395.0707, 3565.852
395.5529, 3570.148
396.0350, 3587.115
396.5171, 3604.586
396.9992, 3615.623
397.4813, 3615.208
397.9634, 3616.349
398.4456, 3616.494
398.9277, 3619.892
399.4098, 3633.895
399.8919, 3681.289
400.3740, 3716.989
400.8561, 3725.029
401.3383, 3698.646
401.8204, 3686.720
402.3025, 3693.932
402.7846, 3711.767
403.2667, 3734.210
403.7488, 3767.652
404.2310, 3790.424
404.7131, 3795.079
405.1952, 3785.687
405.6773, 3786.484
406.1594, 3800.106
406.6415, 3817.029
407.1237, 3829.937
407.6058, 3837.985
408.0879, 3851.945
408.5700, 3873.660
409.0521, 3900.167
409.5342, 3928.402
410.0164, 3958.156
410.4985, 3980.915
410.9806, 3990.005
411.4627, 3988.246
411.9448, 3984.180
412.4269, 3977.265
412.9091, 3973.210
413.3912, 3976.526
413.8733, 3987.446
414.3554, 4007.682
414.8375, 4048.104
415.3196, 4089.837
415.8018, 4107.820
416.2839, 4104.207
416.7660, 4096.362
417.2481, 4090.552
417.7302, 4089.098
418.2123, 4095.809
418.6945, 4115.995
419.1766, 4135.677
419.6587, 4146.663
420.1408, 4151.188
420.6229, 4153.937
421.1050, 4147.412
421.5872, 4147.125
422.0693, 4163.956
422.5514, 4203.663
423.0335, 4237.987
423.5156, 4255.707
423.9977, 4267.276
424.4799, 4284.247
424.9620, 4312.200
425.4441, 4340.313
425.9262, 4365.697
426.4083, 4388.634
426.8904, 4417.052
427.3726, 4454.885
427.8547, 4494.271
428.3368, 4530.425
428.8189, 4562.148
429.3010, 4594.227
429.7831, 4625.167
430.2653, 4657.966
430.7474, 4701.353
431.2295, 4757.979
431.7116, 4814.933
432.1937, 4865.677
432.6758, 4910.769
433.1580, 4960.500
433.6401, 5014.177
434.1222, 5075.296
434.6043, 5152.226
435.0864, 5242.551
435.5685, 5328.702
436.0507, 5405.050
436.5328, 5474.744
437.0149, 5538.309
437.4970, 5596.920
437.9791, 5662.056
438.4612, 5755.597
438.9434, 5856.131
439.4255, 5924.310
439.9076, 5942.976
440.3897, 5965.059
440.8718, 6042.971
441.3539, 6155.138
441.8361, 6259.905
442.3182, 6332.473
442.8003, 6397.748
443.2824, 6470.972
443.7645, 6553.342
444.2466, 6634.278
444.7288, 6716.795
445.2109, 6792.252
445.6930, 6852.245
446.1751, 6885.985
446.6572, 6915.354
447.1393, 6936.867
447.6215, 6954.704
448.1036, 6986.596
448.5857, 7058.287
449.0678, 7117.804
449.5499, 7144.129
450.0320, 7127.250
450.5142, 7109.141
450.9963, 7089.953
451.4784, 7069.533
451.9605, 7047.481
452.4426, 7022.757
452.9247, 6999.963
453.4069, 6982.003
453.8890, 6966.596
454.3711, 6942.913
454.8532, 6911.089
455.3353, 6868.818
455.8174, 6808.983
456.2996, 6734.311
456.7817, 6667.681
457.2638, 6613.848
457.7459, 6563.998
458.2281, 6507.184
458.7102, 6443.935
459.1923, 6374.257
459.6744, 6286.105
460.1565, 6197.585
460.6386, 6142.663
461.1208, 6121.770
461.6029, 6093.954
462.0850, 6019.906
462.5671, 5927.373
463.0492, 5849.655
463.5313, 5804.052
464.0135, 5765.178
464.4956, 5724.308
464.9777, 5681.565
465.4598, 5638.818
465.9419, 5592.475
466.4240, 5549.420
466.9062, 5514.057
467.3883, 5489.793
467.8704, 5463.464
468.3525, 5435.303
468.8346, 5403.517
469.3167, 5364.672
469.7989, 5309.907
470.2810, 5262.826
470.7631, 5228.418
471.2452, 5205.256
471.7273, 5183.559
472.2094, 5166.492
472.6916, 5143.394
473.1737, 5104.419
473.6558, 5048.792
474.1379, 4999.853
474.6200, 4960.031
475.1021, 4924.158
475.5843, 4882.686
476.0664, 4836.610
476.5485, 4794.309
477.0306, 4760.901
477.5127, 4733.140
477.9948, 4704.017
478.4770, 4673.766
478.9591, 4647.548
479.4412, 4633.841
479.9233, 4624.923
480.4054, 4609.182
480.8875, 4580.717
481.3697, 4552.336
481.8518, 4532.270
482.3339, 4518.296
482.8160, 4506.010
483.2981, 4489.137
483.7802, 4477.342
484.2624, 4481.794
484.7445, 4505.303
485.2266, 4511.313
485.7087, 4479.591
486.1908, 4435.849
486.6729, 4399.543
487.1551, 4365.005
487.6372, 4347.088
488.1193, 4356.655
488.6014, 4381.713
489.0835, 4387.790
489.5656, 4363.996
490.0478, 4345.402
490.5299, 4350.825
491.0120, 4381.894
491.4941, 4387.404
491.9762, 4360.836
492.4583, 4329.674
492.9405, 4327.842
493.4226, 4351.866
493.9047, 4364.597
494.3868, 4351.408
494.8689, 4331.918
495.3510, 4348.029
495.8332, 4392.422
496.3153, 4424.836
496.7974, 4404.797
497.2795, 4366.779
497.7616, 4354.307
498.2437, 4372.120
498.7259, 4398.016
499.2080, 4423.188
499.6901, 4446.225
500.1722, 4465.629
500.6543, 4480.118
501.1364, 4491.802
501.6186, 4497.122
502.1007, 4499.211
502.5828, 4510.404
503.0649, 4544.129
503.5470, 4578.101
504.0291, 4602.421
504.5113, 4614.060
504.9934, 4626.949
505.4755, 4635.839
505.9576, 4650.666
506.4397, 4685.918
506.9218, 4751.273
507.4040, 4805.695
507.8861, 4839.621
508.3682, 4858.389
508.8503, 4876.719
509.3324, 4893.604
509.8145, 4918.813
510.2967, 4967.161
510.7788, 5030.218
511.2609, 5069.897
511.7430, 5081.797
512.2252, 5089.569
512.7073, 5118.561
513.1894, 5161.785
513.6715, 5203.804
514.1536, 5233.589
514.6357, 5266.755
515.1179, 5322.037
515.6000, 5393.612
516.0821, 5459.050
516.5642, 5504.035
517.0463, 5543.400
517.5284, 5584.552
518.0106, 5627.388
518.4927, 5676.708
518.9748, 5745.238
519.4569, 5815.162
519.9390, 5866.777
520.4211, 5881.035
520.9033, 5904.388
521.3854, 5943.611
521.8675, 5995.560
522.3496, 6047.553
522.8317, 6100.182
523.3138, 6152.538
523.7960, 6204.641
524.2781, 6257.069
524.7602, 6302.990
525.2423, 6341.273
525.7244, 6379.065
526.2065, 6425.104
526.6887, 6477.767
527.1708, 6532.191
527.6529, 6590.521
528.1350, 6643.713
528.6171, 6675.699
529.0992, 6691.300
529.5814, 6707.621
530.0635, 6733.461
530.5456, 6764.566
531.0277, 6801.026
531.5098, 6843.051
531.9919, 6876.619
532.4741, 6889.021
532.9562, 6893.348
533.4383, 6901.144
533.9204, 6916.346
534.4025, 6933.029
534.8846, 6956.028
535.3668, 6979.885
535.8489, 6990.024
536.3310, 6977.853
536.8131, 6965.540
537.2952, 6960.516
537.7773, 6963.157
538.2595, 6960.974
538.7416, 6951.944
539.2237, 6944.002
539.7058, 6946.307
540.1879, 6958.305
540.6700, 6964.887
541.1522, 6964.271
541.6343, 6957.275
542.1164, 6943.829
542.5985, 6924.542
543.0806, 6902.154
543.5627, 6870.039
544.0449, 6839.903
544.5270, 6826.388
545.0091, 6827.947
545.4912, 6833.945
545.9733, 6844.334
546.4554, 6852.719
546.9376, 6854.633
547.4197, 6850.467
547.9018, 6836.798
548.3839, 6803.125
548.8660, 6762.596
549.3481, 6733.125
549.8303, 6725.689
550.3124, 6717.147
550.7945, 6700.543
551.2766, 6679.450
551.7587, 6674.400
552.2408, 6690.989
552.7230, 6710.512
553.2051, 6721.434
553.6872, 6723.250
554.1693, 6735.760
554.6514, 6760.208
555.1335, 6790.225
555.6157, 6823.196
556.0978, 6856.440
556.5799, 6878.200
557.0620, 6881.788
557.5441, 6878.418
558.0262, 6875.485
558.5084, 6875.819
558.9905, 6887.871
559.4726, 6920.930
559.9547, 6963.383
560.4368, 7010.698
560.9189, 7062.283
561.4011, 7109.214
561.8832, 7141.595
562.3653, 7172.779
562.8474, 7212.466
563.3295, 7264.042
563.8116, 7320.258
564.2938, 7382.550
564.7759, 7448.717
565.2580, 7516.115
565.7401, 7584.467
566.2222, 7655.791
566.7043, 7733.941
567.1865, 7815.709
567.6686, 7881.995
568.1507, 7931.347
568.6328, 7986.458
569.1149, 8065.513
569.5970, 8163.483
570.0792, 8265.580
570.5613, 8371.308
571.0434, 8474.980
571.5255, 8568.451
572.0076, 8657.383
572.4897, 8753.296
572.9719, 8865.422
573.4540, 8977.280
573.9361, 9080.107
574.4182, 9174.867
574.9003, 9264.243
575.3824, 9329.966
575.8646, 9408.071
576.3467, 9522.762
576.8288, 9681.123
577.3109, 9801.690
577.7930, 9863.909
578.2751, 9911.161
578.7573, 9972.428
579.2394, 10050.36
579.7215, 10130.53
580.2036, 10212.88
580.6857, 10297.73
581.1678, 10390.86
581.6500, 10490.56
582.1321, 10578.78
582.6142, 10646.62
583.0963, 10700.78
583.5784, 10752.22
584.0605, 10800.74
584.5427, 10846.20
585.0248, 10886.91
585.5069, 10925.01
585.9890, 10966.51
586.4711, 11013.68
586.9532, 11044.60
587.4354, 11030.26
587.9175, 11006.23
588.3996, 11003.12
588.8817, 11046.94
589.3638, 11084.92
589.8459, 11119.50
590.3281, 11144.83
590.8102, 11147.64
591.2923, 11117.42
591.7744, 11090.48
592.2565, 11079.96
592.7386, 11081.40
593.2208, 11069.83
593.7029, 11044.61
594.1850, 11011.94
594.6671, 10979.62
595.1492, 10943.54
595.6313, 10891.16
596.1135, 10820.43
596.5956, 10741.33
597.0777, 10655.33
597.5598, 10567.92
598.0419, 10488.36
598.5240, 10420.59
599.0062, 10358.79
599.4883, 10309.58
599.9704, 10263.80
600.4525, 10200.28
600.9346, 10102.36
601.4167, 9998.654
601.8989, 9888.514
602.3810, 9774.134
602.8631, 9692.182
603.3452, 9665.159
603.8273, 9630.870
604.3094, 9543.340
604.7916, 9396.463
605.2737, 9266.510
605.7558, 9153.915
606.2379, 9060.544
606.7200, 8998.633
607.2021, 8957.747
607.6843, 8897.454
608.1664, 8798.464
608.6485, 8689.695
609.1306, 8596.188
609.6127, 8517.477
610.0948, 8447.150
610.5770, 8401.732
611.0591, 8348.180
611.5412, 8259.993
612.0233, 8138.493
612.5054, 8033.725
612.9875, 7971.907
613.4697, 7916.747
613.9518, 7850.854
614.4339, 7770.506
614.9160, 7689.782
615.3981, 7606.252
615.8802, 7526.844
616.3624, 7459.693
616.8445, 7405.704
617.3266, 7354.910
617.8087, 7307.441
618.2908, 7258.862
618.7729, 7193.487
619.2551, 7117.391
619.7372, 7057.406
620.2193, 7044.571
620.7014, 7041.766
621.1835, 7007.433
621.6656, 6945.580
622.1478, 6884.609
622.6299, 6840.894
623.1120, 6800.468
623.5941, 6754.375
624.0762, 6698.787
624.5583, 6647.734
625.0405, 6603.427
625.5226, 6563.594
626.0047, 6526.749
626.4868, 6495.170
626.9689, 6458.499
627.4510, 6411.226
627.9332, 6363.765
628.4153, 6341.404
628.8974, 6343.555
629.3795, 6336.834
629.8616, 6304.979
630.3438, 6260.162
630.8259, 6223.129
631.3080, 6192.950
631.7901, 6164.907
632.2722, 6145.151
632.7543, 6120.221
633.2365, 6071.350
633.7186, 5994.989
634.2007, 5934.311
634.6828, 5914.858
635.1649, 5910.586
635.6470, 5902.753
636.1292, 5888.108
636.6113, 5873.426
637.0934, 5861.717
637.5755, 5847.856
638.0576, 5822.170
638.5397, 5781.111
639.0219, 5747.013
639.5040, 5725.916
639.9861, 5712.638
640.4682, 5695.673
640.9503, 5675.431
641.4324, 5655.551
641.9146, 5639.387
642.3967, 5623.669
642.8788, 5602.189
643.3609, 5575.889
643.8430, 5553.666
644.3251, 5548.749
644.8073, 5544.192
645.2894, 5526.052
645.7715, 5486.060
646.2536, 5454.479
646.7357, 5441.039
647.2178, 5433.895
647.7000, 5424.081
648.1821, 5412.143
648.6642, 5396.399
649.1463, 5376.441
649.6284, 5353.234
650.1105, 5328.424
650.5927, 5302.180
651.0748, 5274.749
651.5569, 5244.313
652.0390, 5214.863
652.5211, 5192.851
653.0032, 5177.778
653.4854, 5167.644
653.9675, 5171.527
654.4496, 5172.118
654.9317, 5149.114
655.4138, 5102.033
655.8959, 5069.540
656.3781, 5086.927
656.8602, 5105.752
657.3423, 5092.911
657.8244, 5027.076
658.3065, 4989.087
658.7886, 4988.568
659.2708, 5004.273
659.7529, 5018.657
660.2350, 5032.898
660.7171, 5024.643
661.1992, 4985.352
661.6813, 4933.882
662.1635, 4900.746
662.6456, 4881.764
663.1277, 4862.222
663.6099, 4831.450
664.0920, 4801.465
664.5741, 4780.461
665.0562, 4768.384
665.5383, 4764.985
666.0204, 4785.550
666.5026, 4800.965
666.9847, 4796.321
667.4668, 4768.474
667.9489, 4741.279
668.4310, 4710.250
668.9131, 4685.464
669.3953, 4676.596
669.8774, 4687.375
670.3595, 4683.005
670.8416, 4660.752
671.3237, 4631.366
671.8058, 4601.938
672.2880, 4574.553
672.7701, 4556.555
673.2522, 4551.979
673.7343, 4549.868
674.2164, 4543.386
674.6985, 4531.616
675.1807, 4512.853
675.6628, 4476.659
676.1449, 4444.386
676.6270, 4421.910
677.1091, 4409.118
677.5912, 4404.724
678.0734, 4418.333
678.5555, 4425.604
679.0376, 4417.235
679.5197, 4395.330
680.0018, 4381.132
680.4839, 4375.924
680.9661, 4369.788
681.4482, 4354.864
681.9303, 4333.898
682.4124, 4314.263
682.8945, 4296.344
683.3766, 4280.414
683.8588, 4269.213
684.3409, 4258.917
684.8230, 4244.357
685.3051, 4221.358
685.7872, 4203.311
686.2693, 4200.400
686.7515, 4202.503
687.2336, 4197.805
687.7157, 4182.756
688.1978, 4166.290
688.6799, 4149.078
689.1620, 4130.799
689.6442, 4108.816
690.1263, 4082.205
690.6084, 4064.571
691.0905, 4064.447
691.5726, 4071.856
692.0547, 4066.305
692.5369, 4049.980
693.0190, 4033.357
693.5011, 4024.765
693.9832, 4016.493
694.4653, 4000.449
694.9474, 3977.298
695.4296, 3957.720
695.9117, 3939.024
696.3938, 3930.374
696.8759, 3943.035
697.3580, 3986.178
697.8401, 3997.868
698.3223, 3965.813
698.8044, 3922.963
699.2865, 3897.086
699.7686, 3887.737
700.2507, 3873.133
700.7328, 3848.967
701.2150, 3830.794
701.6971, 3848.495
702.1792, 3884.303
702.6613, 3897.994
703.1434, 3867.940
703.6255, 3835.244
704.1077, 3826.710
704.5898, 3832.669
705.0719, 3837.265
705.5540, 3838.926
706.0361, 3836.305
706.5182, 3829.833
707.0004, 3819.210
707.4825, 3801.154
707.9646, 3772.019
708.4467, 3748.817
708.9288, 3738.329
709.4109, 3738.252
709.8931, 3742.855
710.3752, 3751.703
710.8573, 3757.479
711.3394, 3756.082
711.8215, 3748.820
712.3036, 3734.132
712.7858, 3712.521
713.2679, 3695.642
713.7500, 3689.041
714.2321, 3689.226
714.7142, 3695.419
715.1964, 3711.245
715.6785, 3720.224
716.1606, 3717.097
716.6427, 3713.016
717.1248, 3718.788
717.6069, 3735.888
718.0891, 3746.776
718.5712, 3749.370
719.0533, 3747.696
719.5354, 3747.903
720.0175, 3747.882
720.4996, 3740.323
720.9818, 3717.884
721.4639, 3699.348
721.9460, 3703.174
722.4281, 3719.811
722.9102, 3733.446
723.3923, 3740.628
723.8745, 3743.526
724.3566, 3740.365
724.8387, 3733.611
725.3208, 3729.288
725.8029, 3727.785
726.2850, 3727.130
726.7672, 3726.428
727.2493, 3725.992
727.7314, 3727.009
728.2135, 3729.348
728.6956, 3732.932
729.1777, 3738.189
729.6599, 3744.234
730.1420, 3751.402
730.6241, 3759.148
731.1062, 3763.533
731.5883, 3759.807
732.0704, 3754.573
732.5526, 3752.396
733.0347, 3755.098
733.5168, 3752.886
733.9989, 3742.513
734.4810, 3732.454
734.9631, 3729.242
735.4453, 3733.503
735.9274, 3734.122
736.4095, 3730.147
736.8916, 3726.496
737.3737, 3728.298
737.8558, 3734.099
738.3380, 3742.625
738.8201, 3755.616
739.3022, 3762.886
739.7843, 3750.468
740.2664, 3731.677
740.7485, 3721.572
741.2307, 3734.325
741.7128, 3741.802
742.1949, 3739.546
742.6770, 3733.063
743.1591, 3729.352
743.6412, 3727.599
744.1234, 3735.639
744.6055, 3761.210
745.0876, 3787.240
745.5697, 3769.154
746.0518, 3720.129
746.5339, 3691.870
747.0161, 3729.741
747.4982, 3774.388
747.9803, 3768.572
748.4624, 3729.353
748.9445, 3707.824
749.4266, 3736.456
749.9088, 3766.940
750.3909, 3787.139
750.8730, 3797.191
751.3551, 3794.176
751.8372, 3772.981
752.3193, 3754.721
752.8015, 3750.846
753.2836, 3757.718
753.7657, 3759.730
754.2478, 3757.391
754.7299, 3756.792
755.2120, 3765.491
755.6942, 3776.004
756.1763, 3779.569
756.6584, 3775.599
757.1405, 3770.780
757.6226, 3763.928
758.1047, 3759.583
758.5869, 3762.382
759.0690, 3775.547
759.5511, 3776.545
760.0332, 3758.977
760.5153, 3741.726
760.9974, 3744.288
761.4796, 3763.644
761.9617, 3768.241
762.4438, 3755.434
762.9259, 3736.471
763.4080, 3718.708
763.8901, 3703.159
764.3723, 3690.317
764.8544, 3678.679
765.3365, 3675.361
765.8186, 3695.484
766.3007, 3718.966
766.7828, 3723.666
767.2650, 3695.336
767.7471, 3675.392
768.2292, 3666.631
768.7113, 3664.689
769.1934, 3665.160
769.6755, 3667.753
770.1577, 3669.969
770.6398, 3672.595
771.1219, 3670.890
771.6040, 3652.146
772.0861, 3626.210
772.5682, 3611.366
773.0504, 3629.036
773.5325, 3640.723
774.0146, 3625.902
774.4967, 3596.719
774.9788, 3578.594
775.4609, 3580.724
775.9431, 3576.912
776.4252, 3559.213
776.9073, 3535.758
777.3894, 3528.753
777.8715, 3537.351
778.3536, 3544.347
778.8358, 3542.994
779.3179, 3536.774
779.8000, 3529.970
780.2821, 3522.156
780.7642, 3512.154
781.2463, 3488.486
781.7285, 3473.494
782.2106, 3483.414
782.6927, 3513.072
783.1748, 3531.332
783.6569, 3539.533
784.1390, 3531.536
784.6212, 3496.426
785.1033, 3444.876
785.5854, 3430.344
786.0675, 3451.089
786.5496, 3473.900
787.0317, 3473.739
787.5139, 3467.725
787.9960, 3481.820
788.4781, 3511.827
788.9602, 3530.443
789.4423, 3513.299
789.9244, 3493.237
790.4066, 3486.715
790.8887, 3494.048
791.3708, 3502.022
791.8529, 3513.733
792.3350, 3518.961
792.8171, 3507.494
793.2993, 3483.425
793.7814, 3474.635
794.2635, 3480.939
794.7456, 3494.473
795.2277, 3516.708
795.7098, 3538.903
796.1920, 3547.535
796.6741, 3541.830
797.1562, 3544.527
797.6383, 3576.786
798.1204, 3608.412
798.6025, 3618.827
799.0847, 3603.256
799.5668, 3607.067
800.0489, 3633.515
800.5310, 3669.953
801.0131, 3715.250
801.4952, 3763.825
801.9774, 3783.747
802.4595, 3772.874
802.9416, 3766.127
803.4237, 3792.471
803.9058, 3834.708
804.3879, 3878.229
804.8701, 3921.896
805.3522, 3961.741
805.8343, 3994.241
806.3164, 4024.801
806.7985, 4057.942
807.2806, 4095.556
807.7628, 4121.895
808.2449, 4132.448
808.7270, 4150.681
809.2091, 4210.373
809.6912, 4293.075
810.1733, 4352.986
810.6555, 4383.316
811.1376, 4408.250
811.6197, 4441.875
812.1018, 4478.819
812.5839, 4513.623
813.0660, 4541.754
813.5482, 4577.799
814.0303, 4622.544
814.5124, 4673.577
814.9945, 4731.389
815.4766, 4796.610
815.9587, 4852.453
816.4409, 4896.791
816.9230, 4940.457
817.4051, 4990.212
817.8872, 5047.468
818.3693, 5116.056
818.8514, 5199.767
819.3336, 5281.975
819.8157, 5355.812
820.2978, 5425.185
820.7799, 5492.611
821.2620, 5551.042
821.7441, 5624.502
822.2263, 5717.848
822.7084, 5817.521
823.1905, 5907.272
823.6726, 5990.493
824.1547, 6091.016
824.6368, 6214.834
825.1190, 6339.526
825.6011, 6450.938
826.0832, 6552.299
826.5653, 6643.814
827.0474, 6719.677
827.5295, 6804.731
828.0117, 6915.006
828.4938, 7030.609
828.9760, 7136.815
829.4581, 7231.821
829.9402, 7327.995
830.4223, 7428.085
830.9044, 7519.761
831.3865, 7582.793
831.8687, 7628.524
832.3508, 7690.078
832.8329, 7776.477
833.3150, 7850.862
833.7971, 7894.638
834.2792, 7913.163
834.7614, 7911.146
835.2435, 7884.561
835.7256, 7844.513
836.2077, 7788.250
836.6898, 7722.413
837.1719, 7653.329
837.6541, 7580.800
838.1362, 7503.424
838.6183, 7421.935
839.1004, 7323.279
839.5825, 7183.478
840.0646, 7022.836
840.5468, 6870.876
841.0289, 6735.711
841.5110, 6594.133
841.9931, 6431.443
842.4752, 6265.879
842.9573, 6112.909
843.4395, 5979.946
843.9216, 5828.838
844.4037, 5656.248
844.8858, 5481.242
845.3679, 5318.696
845.8500, 5169.011
846.3322, 5033.685
846.8143, 4913.001
847.2964, 4804.732
847.7785, 4718.416
848.2606, 4636.717
848.7427, 4545.507
849.2249, 4443.298
849.7070, 4327.714
850.1891, 4187.206
850.6712, 4050.780
851.1533, 3936.968
851.6354, 3845.072
852.1176, 3767.615
852.5997, 3704.680
853.0818, 3642.898
853.5639, 3565.425
854.0460, 3486.682
854.5281, 3427.302
855.0103, 3390.723
855.4924, 3348.637
855.9745, 3282.565
856.4566, 3216.612
856.9387, 3162.574
857.4208, 3121.175
857.9030, 3090.129
858.3851, 3072.051
858.8672, 3051.040
859.3493, 3012.270
859.8314, 2962.883
860.3135, 2916.516
860.7957, 2873.641
861.2778, 2837.960
861.7599, 2814.600
862.2420, 2796.117
862.7241, 2779.584
863.2062, 2764.988
863.6884, 2744.367
864.1705, 2713.841
864.6526, 2684.817
865.1347, 2662.965
865.6168, 2646.912
866.0989, 2628.759
866.5811, 2608.697
867.0632, 2591.906
867.5453, 2587.119
868.0274, 2582.186
868.5095, 2564.187
868.9916, 2535.140
869.4738, 2510.178
869.9559, 2498.025
870.4380, 2484.287
870.9201, 2462.615
871.4022, 2436.919
871.8843, 2427.910
872.3665, 2436.289
872.8486, 2440.065
873.3307, 2418.484
873.8128, 2396.536
874.2949, 2426.501
874.7770, 2486.976
875.2592, 2517.818
875.7413, 2468.433
876.2234, 2414.252
876.7055, 2375.536
877.1876, 2350.815
877.6697, 2340.472
878.1519, 2349.169
878.6340, 2350.965
879.1161, 2337.016
879.5982, 2316.451
880.0803, 2303.104
880.5624, 2296.496
881.0446, 2296.033
881.5267, 2310.678
882.0088, 2318.337
882.4909, 2298.875
882.9730, 2268.494
883.4551, 2255.062
883.9373, 2270.975
884.4194, 2276.638
884.9015, 2263.988
885.3836, 2247.099
885.8657, 2251.354
886.3478, 2270.772
886.8300, 2279.757
887.3121, 2271.879
887.7942, 2256.478
888.2763, 2233.550
888.7584, 2210.686
889.2405, 2196.155
889.7227, 2192.573
890.2048, 2197.510
890.6869, 2217.363
891.1690, 2236.425
891.6511, 2238.082
892.1332, 2223.448
892.6154, 2209.381
893.0975, 2196.558
893.5796, 2188.882
894.0617, 2193.791
894.5438, 2202.965
895.0259, 2207.454
895.5081, 2205.692
895.9902, 2202.838
896.4723, 2200.283
896.9544, 2196.760
897.4365, 2190.373
897.9186, 2181.170
898.4008, 2181.109
898.8829, 2190.753
899.3650, 2200.339
899.8471, 2203.673
900.3292, 2202.737
900.8113, 2197.564
901.2935, 2189.354
901.7756, 2186.003
902.2577, 2192.932
902.7398, 2202.898
903.2219, 2213.528
903.7040, 2224.555
904.1862, 2235.795
904.6683, 2247.477
905.1504, 2256.670
905.6325, 2262.024
906.1146, 2264.524
906.5967, 2263.448
907.0789, 2260.827
907.5610, 2262.336
908.0431, 2273.892
908.5252, 2286.107
909.0073, 2297.600
909.4894, 2307.212
909.9716, 2312.311
910.4537, 2311.772
910.9358, 2311.408
911.4179, 2311.636
911.9000, 2314.060
912.3821, 2324.532
912.8643, 2338.606
913.3464, 2345.143
913.8285, 2336.499
914.3106, 2331.272
914.7927, 2342.416
915.2748, 2358.879
915.7570, 2368.662
916.2391, 2367.560
916.7212, 2371.046
917.2033, 2379.786
917.6854, 2392.048
918.1675, 2407.913
918.6497, 2425.757
919.1318, 2442.547
919.6139, 2458.045
920.0960, 2467.383
920.5781, 2455.733
921.0602, 2446.286
921.5424, 2460.494
922.0245, 2502.148
922.5066, 2521.700
922.9887, 2512.022
923.4708, 2500.834
923.9529, 2506.506
924.4351, 2521.693
924.9172, 2520.989
925.3993, 2507.896
925.8814, 2502.785
926.3635, 2519.421
926.8456, 2544.899
927.3278, 2577.448
927.8099, 2613.426
928.2920, 2639.371
928.7741, 2653.052
929.2562, 2661.477
929.7383, 2663.503
930.2205, 2665.438
930.7026, 2683.023
931.1847, 2711.868
931.6668, 2737.172
932.1489, 2750.243
932.6310, 2765.373
933.1132, 2787.522
933.5953, 2817.906
934.0774, 2858.941
934.5595, 2917.847
935.0416, 2969.147
935.5237, 3009.285
936.0059, 3049.332
936.4880, 3101.709
936.9701, 3164.926
937.4522, 3234.236
937.9343, 3309.771
938.4164, 3393.833
938.8986, 3485.557
939.3807, 3590.291
939.8628, 3718.211
940.3449, 3875.540
940.8270, 4009.013
941.3091, 4107.972
941.7913, 4213.444
942.2734, 4353.711
942.7555, 4516.022
943.2376, 4674.083
943.7197, 4826.701
944.2018, 4971.467
944.6840, 5088.786
945.1661, 5215.365
945.6482, 5380.078
946.1303, 5571.294
946.6124, 5751.054
947.0945, 5921.408
947.5767, 6072.998
948.0588, 6201.149
948.5409, 6313.708
949.0230, 6426.400
949.5051, 6532.431
949.9872, 6616.396
950.4694, 6670.615
950.9515, 6707.957
951.4336, 6732.441
951.9157, 6743.703
952.3978, 6740.077
952.8799, 6712.995
953.3621, 6700.401
953.8442, 6704.407
954.3263, 6718.603
954.8084, 6742.308
955.2905, 6769.901
955.7726, 6790.000
956.2548, 6801.440
956.7369, 6810.795
957.2190, 6822.644
957.7011, 6831.457
958.1832, 6833.559
958.6653, 6829.353
959.1475, 6824.563
959.6296, 6818.752
960.1117, 6815.025
960.5938, 6805.812
961.0759, 6807.842
961.5580, 6841.579
962.0402, 6908.584
962.5223, 7013.571
963.0044, 7178.735
963.4865, 7358.656
963.9686, 7543.715
964.4507, 7738.176
964.9329, 7941.269
965.4150, 8153.676
965.8971, 8394.740
966.3792, 8669.936
966.8613, 8954.511
967.3434, 9228.532
967.8256, 9488.728
968.3077, 9728.192
968.7898, 9958.109
969.2719, 10128.25
969.7540, 10223.78
970.2361, 10262.52
970.7183, 10256.52
971.2004, 10204.59
971.6825, 10077.34
972.1646, 9874.916
972.6467, 9601.121
973.1288, 9227.326
973.6110, 8808.328
974.0931, 8374.083
974.5752, 7938.298
975.0573, 7546.287
975.5394, 7213.913
976.0215, 6915.032
976.5037, 6635.484
976.9858, 6388.844
977.4679, 6198.067
977.9500, 6062.127
978.4321, 5985.442
978.9142, 5971.856
979.3964, 6009.968
979.8785, 6086.705
980.3606, 6212.997
980.8427, 6402.979
981.3248, 6650.953
981.8069, 6969.957
982.2891, 7358.238
982.7712, 7831.133
983.2533, 8422.521
983.7354, 9104.980
984.2175, 9818.906
984.6996, 10562.83
985.1818, 11352.34
985.6639, 12238.96
986.1460, 13132.71
986.6281, 13966.65
987.1102, 14765.91
987.5923, 15632.38
988.0745, 16583.73
988.5566, 17519.45
989.0387, 18414.89
989.5208, 19262.55
990.0029, 20073.30
990.4850, 20826.29
990.9672, 21473.54
991.4493, 22055.65
991.9314, 22447.78
992.4135, 22649.93
992.8957, 22628.35
993.3778, 22339.09
993.8599, 21780.78
994.3420, 20996.76
994.8242, 19988.14
995.3063, 18820.21
995.7884, 17439.65
996.2705, 15990.75
996.7526, 14586.85
997.2347, 13250.20
997.7169, 12001.30
998.1990, 10815.06
998.6811, 9745.335
999.1632, 8796.621
999.6453, 7957.943
1000.127, 7217.407
1000.610, 6570.341
1001.092, 6010.987
1001.574, 5555.531
1002.056, 5165.629
1002.538, 4828.498
1003.020, 4538.978
1003.502, 4293.077
1003.984, 4100.880
1004.466, 3922.967
1004.949, 3759.908
1005.431, 3610.149
1005.913, 3471.195
1006.395, 3346.989
1006.877, 3250.575
1007.359, 3181.883
1007.841, 3114.848
1008.323, 3031.600
1008.806, 2955.307
1009.288, 2897.645
1009.770, 2855.574
1010.252, 2811.130
1010.734, 2764.266
1011.216, 2723.749
1011.698, 2697.497
1012.180, 2670.018
1012.662, 2614.373
1013.145, 2548.188
1013.627, 2499.293
1014.109, 2489.529
1014.591, 2474.860
1015.073, 2454.805
1015.555, 2428.127
1016.037, 2386.260
1016.519, 2335.327
1017.002, 2313.524
1017.484, 2321.413
1017.966, 2325.567
1018.448, 2301.210
1018.930, 2268.729
1019.412, 2236.180
1019.894, 2205.968
1020.376, 2191.708
1020.858, 2198.751
1021.341, 2198.263
1021.823, 2179.072
1022.305, 2152.692
1022.787, 2133.929
1023.269, 2122.424
1023.751, 2119.010
1024.233, 2134.383
1024.715, 2135.857
1025.198, 2101.055
1025.680, 2063.993
1026.162, 2052.938
1026.644, 2067.839
1027.126, 2075.067
1027.608, 2073.987
1028.090, 2069.166
1028.572, 2062.138
1029.054, 2053.973
1029.536, 2044.050
1030.019, 2033.275
1030.501, 2027.464
1030.983, 2030.620
1031.465, 2029.809
1031.947, 2022.229
1032.429, 2009.599
1032.911, 1990.896
1033.393, 1970.113
1033.876, 1956.917
1034.358, 1955.279
1034.840, 1956.089
1035.322, 1959.156
1035.804, 1960.065
1036.286, 1954.491
1036.768, 1941.872
1037.250, 1938.071
1037.733, 1943.371
1038.215, 1946.868
1038.697, 1938.645
1039.179, 1927.432
1039.661, 1924.036
1040.143, 1924.926
1040.625, 1918.515
1041.107, 1894.844
1041.589, 1877.684
1042.072, 1870.874
1042.554, 1870.478
1043.036, 1871.242
1043.518, 1873.753
1044.000, 1882.141
1044.482, 1898.260
1044.964, 1907.911
1045.446, 1899.299
1045.928, 1885.029
1046.411, 1871.338
1046.893, 1858.705
1047.375, 1853.919
1047.857, 1857.195
1048.339, 1864.274
1048.821, 1876.503
1049.303, 1887.331
1049.785, 1889.423
1050.268, 1884.321
1050.750, 1874.916
1051.232, 1850.481
1051.714, 1840.489
1052.196, 1851.413
1052.678, 1866.952
1053.160, 1872.279
1053.642, 1868.373
1054.125, 1854.859
1054.607, 1832.546
1055.089, 1816.462
1055.571, 1824.844
1056.053, 1832.081
1056.535, 1819.694
1057.017, 1795.595
1057.499, 1788.587
1057.981, 1799.830
1058.464, 1812.699
1058.946, 1825.152
1059.428, 1830.341
1059.910, 1812.705
1060.392, 1786.459
1060.874, 1769.493
1061.356, 1765.939
1061.838, 1772.800
1062.320, 1795.658
1062.803, 1816.358
1063.285, 1821.107
1063.767, 1814.320
1064.249, 1807.622
1064.731, 1801.828
1065.213, 1800.950
1065.695, 1812.508
1066.177, 1822.885
1066.660, 1829.345
1067.142, 1830.218
1067.624, 1819.082
1068.106, 1795.080
1068.588, 1758.434
1069.070, 1788.159
1069.552, 1805.817
1070.034, 1812.030
1070.516, 1773.923
1070.999, 1791.973
1071.481, 1786.859
1071.963, 1780.345
1072.445, 1804.954
1072.927, 1770.880
1073.409, 1794.050
1073.891, 1793.713
1074.373, 1803.451
1074.855, 1789.888
1075.338, 1782.902
1075.820, 1798.292
1076.302, 1800.565
1076.784, 1782.496
1077.266, 1790.090
1077.748, 1750.527
1078.230, 1751.464
1078.713, 1769.595
1079.195, 1750.329
1079.677, 1757.612
1080.159, 1773.832
1080.641, 1784.259
1081.123, 1778.163
1081.605, 1760.238
1082.087, 1744.865
1082.569, 1730.146
1083.052, 1726.730
1083.534, 1738.046
1084.016, 1753.650
1084.498, 1765.915
1084.980, 1773.083
1085.462, 1770.531
1085.944, 1756.552
1086.426, 1747.842
1086.908, 1750.581
1087.391, 1752.526
1087.873, 1748.667
1088.355, 1741.095
1088.837, 1708.891
1089.319, 1734.062
1089.801, 1747.632
1090.283, 1750.227
1090.765, 1708.972
1091.248, 1724.337
1091.730, 1717.013
1092.212, 1708.758
1092.694, 1732.096
1093.176, 1697.219
1093.658, 1720.055
1094.140, 1719.853
1094.622, 1730.196
1095.104, 1717.706
1095.587, 1712.265
1096.069, 1729.667
1096.551, 1734.422
1097.033, 1719.304
1097.515, 1730.317
1097.997, 1694.642
1098.479, 1698.658
1098.961, 1701.031
1099.443, 1708.900
1099.926, 1711.183
1100.408, 1706.285
1100.890, 1701.335
1101.372, 1698.093
1101.854, 1694.936
1102.336, 1691.835
1102.818, 1688.136
1103.300, 1679.948
1103.783, 1669.491
1104.265, 1664.946
1104.747, 1671.754
1105.229, 1678.110
1105.711, 1677.639
1106.193, 1675.108
1106.675, 1674.310
1107.157, 1669.796
1107.640, 1680.834
1108.122, 1686.199
1108.604, 1686.193
1109.086, 1664.729
1109.568, 1670.974
1110.050, 1666.114
1110.532, 1660.799
1111.014, 1670.943
1111.496, 1652.600
1111.979, 1662.496
1112.461, 1661.121
1112.943, 1664.907
1113.425, 1657.519
1113.907, 1653.582
1114.389, 1660.822
1114.871, 1661.874
1115.353, 1653.199
1115.835, 1657.313
1116.318, 1638.576
1116.800, 1639.890
1117.282, 1649.856
1117.764, 1641.743
1118.246, 1646.061
1118.728, 1645.645
1119.210, 1642.276
1119.692, 1646.874
1120.175, 1625.102
1120.657, 1602.686
1121.139, 1592.130
1121.621, 1591.953
1122.103, 1595.965
1122.585, 1603.150
1123.067, 1605.889
1123.549, 1596.458
1124.031, 1588.491
1124.514, 1593.779
1124.996, 1603.004
1125.478, 1604.443
1125.960, 1595.940
1126.442, 1592.536
1126.924, 1594.609
1127.406, 1597.235
1127.888, 1594.564
1128.370, 1592.637
1128.853, 1600.445
1129.335, 1613.628
1129.817, 1617.349
1130.299, 1606.844
1130.781, 1599.190
1131.263, 1597.523
1131.745, 1595.151
1132.227, 1577.730
1132.710, 1558.337
1133.192, 1560.534
1133.674, 1585.608
1134.156, 1601.296
1134.638, 1595.927
1135.120, 1590.453
1135.602, 1591.690
1136.084, 1594.298
1136.567, 1585.735
1137.049, 1570.533
1137.531, 1559.115
1138.013, 1553.515
1138.495, 1553.279
1138.977, 1567.170
1139.459, 1576.526
1139.941, 1569.887
1140.423, 1551.438
1140.906, 1540.772
1141.388, 1537.661
1141.870, 1542.075
1142.352, 1561.197
1142.834, 1576.275
1143.316, 1573.838
1143.798, 1566.067
1144.280, 1565.726
1144.762, 1573.837
1145.245, 1574.754
1145.727, 1568.498
1146.209, 1562.956
1146.691, 1565.890
1147.173, 1568.705
1147.655, 1562.945
1148.137, 1553.064
1148.619, 1549.784
1149.102, 1554.662
1149.584, 1558.816
1150.066, 1561.558
1150.548, 1562.084
1151.030, 1558.422
1151.512, 1553.026
1151.994, 1546.569
1152.476, 1540.090
1152.958, 1540.717
1153.441, 1552.287
1153.923, 1559.663
1154.405, 1559.179
1154.887, 1554.981
1155.369, 1551.291
1155.851, 1548.173
1156.333, 1546.412
1156.815, 1546.521
1157.297, 1542.718
1157.780, 1530.059
1158.262, 1523.828
1158.744, 1533.108
1159.226, 1548.079
1159.708, 1544.510
1160.190, 1531.336
1160.672, 1529.731
1161.154, 1553.119
1161.637, 1566.527
1162.119, 1559.348
1162.601, 1547.346
1163.083, 1537.520
1163.565, 1530.619
1164.047, 1531.637
1164.529, 1538.436
1165.011, 1543.254
1165.494, 1542.311
1165.976, 1539.342
1166.458, 1533.186
1166.940, 1527.658
1167.422, 1528.168
1167.904, 1533.335
1168.386, 1528.466
1168.868, 1514.575
1169.350, 1502.959
1169.833, 1500.244
1170.315, 1501.340
1170.797, 1507.693
1171.279, 1514.278
1171.761, 1512.966
1172.243, 1504.193
1172.725, 1498.679
1173.207, 1497.398
1173.689, 1497.552
1174.172, 1496.764
1174.654, 1497.139
1175.136, 1501.676
1175.618, 1508.172
1176.100, 1510.677
1176.582, 1509.161
1177.064, 1506.207
1177.546, 1501.490
1178.029, 1500.654
1178.511, 1514.542
1178.993, 1529.741
1179.475, 1534.286
1179.957, 1528.962
1180.439, 1519.757
1180.921, 1505.857
1181.403, 1498.163
1181.885, 1501.963
1182.368, 1507.479
1182.850, 1503.201
1183.332, 1496.087
1183.814, 1494.143
1184.296, 1498.535
1184.778, 1501.419
1185.260, 1502.626
1185.742, 1503.632
1186.224, 1505.155
1186.707, 1506.745
1187.189, 1509.566
1187.671, 1511.423
1188.153, 1508.463
1188.635, 1497.931
1189.117, 1490.986
1189.599, 1488.347
1190.081, 1485.641
1190.564, 1479.311
1191.046, 1471.919
1191.528, 1465.661
1192.010, 1461.044
1192.492, 1459.283
1192.974, 1460.459
1193.456, 1465.658
1193.938, 1476.490
1194.421, 1484.733
1194.903, 1480.257
1195.385, 1471.066
1195.867, 1467.335
1196.349, 1468.690
1196.831, 1473.020
1197.313, 1484.534
1197.795, 1488.377
1198.277, 1481.571
1198.760, 1471.912
1199.242, 1467.125
1199.724, 1465.108
1200.206, 1463.107
1200.688, 1460.877
1201.170, 1458.213
1201.652, 1452.081
1202.134, 1453.193
1202.616, 1466.772
1203.099, 1479.510
1203.581, 1467.165
1204.063, 1445.112
1204.545, 1441.937
1205.027, 1460.189
1205.509, 1468.505
1205.991, 1455.797
1206.473, 1447.227
1206.956, 1450.708
1207.438, 1458.722
1207.920, 1459.269
1208.402, 1455.823
1208.884, 1455.280
1209.366, 1459.689
1209.848, 1458.127
1210.330, 1445.486
1210.813, 1435.836
1211.295, 1435.479
1211.777, 1439.356
1212.259, 1438.516
1212.741, 1434.666
1213.223, 1430.404
1213.705, 1425.349
1214.187, 1424.423
1214.669, 1430.914
1215.151, 1434.459
1215.634, 1427.455
1216.116, 1417.126
1216.598, 1418.121
1217.080, 1427.011
1217.562, 1437.453
1218.044, 1451.833
1218.526, 1455.579
1219.008, 1442.224
1219.491, 1431.124
1219.973, 1436.822
1220.455, 1450.733
1220.937, 1455.371
1221.419, 1452.992
1221.901, 1448.909
1222.383, 1443.572
1222.865, 1438.070
1223.348, 1431.070
1223.830, 1427.148
1224.312, 1433.054
1224.794, 1442.870
1225.276, 1445.071
1225.758, 1441.075
1226.240, 1434.828
1226.722, 1420.977
1227.204, 1417.073
1227.687, 1427.356
1228.169, 1438.131
1228.651, 1436.531
1229.133, 1427.570
1229.615, 1416.577
1230.097, 1405.779
1230.579, 1402.479
1231.061, 1415.484
1231.543, 1421.991
1232.026, 1419.015
1232.508, 1412.803
1232.990, 1406.933
1233.472, 1403.565
1233.954, 1409.355
1234.436, 1421.731
1234.918, 1426.631
1235.400, 1416.861
1235.883, 1412.094
1236.365, 1415.767
1236.847, 1421.137
1237.329, 1423.855
1237.811, 1421.668
1238.293, 1407.051
1238.775, 1382.373
1239.257, 1369.595
1239.740, 1372.971
1240.222, 1380.054
1240.704, 1390.205
1241.186, 1397.798
1241.668, 1392.988
1242.150, 1384.312
1242.632, 1381.108
1243.114, 1364.553
1243.596, 1386.653
1244.079, 1398.897
1244.561, 1401.818
1245.043, 1367.483
1245.525, 1381.256
1246.007, 1375.749
1246.489, 1369.452
1246.971, 1389.995
1247.453, 1361.079
1247.936, 1381.196
1248.418, 1381.740
1248.900, 1391.243
1249.382, 1381.347
1249.864, 1377.443
1250.346, 1392.943
1250.828, 1397.699
1251.310, 1385.571
1251.792, 1395.643
1252.275, 1366.048
1252.757, 1371.262
1253.239, 1391.493
1253.721, 1380.340
1254.203, 1390.766
1254.685, 1392.974
1255.167, 1357.831
1255.649, 1387.645
1256.131, 1389.367
1256.614, 1362.244
1257.096, 1389.833
1257.578, 1366.687
1258.060, 1361.650
1258.542, 1370.242
1259.024, 1364.626
1259.506, 1381.409
1259.988, 1376.614
1260.471, 1369.891
1260.953, 1371.581
1261.435, 1349.431
1261.917, 1371.510
1262.399, 1363.377
1262.881, 1370.262
1263.363, 1380.551
1263.845, 1364.775
1264.328, 1376.592
1264.810, 1345.618
1265.292, 1350.450
1265.774, 1351.427
1266.256, 1375.289
1266.738, 1344.524
1267.220, 1366.534
1267.702, 1370.273
1268.184, 1372.429
1268.667, 1370.084
1269.149, 1365.426
1269.631, 1365.908
1270.113, 1370.398
1270.595, 1376.161
1271.077, 1384.359
1271.559, 1389.093
1272.041, 1391.361
1272.523, 1387.158
1273.006, 1370.586
1273.488, 1348.502
1273.970, 1335.231
1274.452, 1329.627
1274.934, 1329.907
1275.416, 1337.575
1275.898, 1348.900
1276.380, 1367.133
1276.863, 1378.076
1277.345, 1367.925
1277.827, 1349.729
1278.309, 1341.266
1278.791, 1340.198
1279.273, 1342.843
1279.755, 1349.913
1280.237, 1356.960
1280.719, 1364.511
1281.202, 1368.270
1281.684, 1362.560
1282.166, 1355.370
1282.648, 1357.614
1283.130, 1362.386
1283.612, 1357.239
1284.094, 1337.854
1284.576, 1334.188
1285.058, 1346.357
1285.541, 1359.620
1286.023, 1370.277
1286.505, 1373.081
1286.987, 1352.034
1287.469, 1329.563
1287.951, 1335.489
1288.433, 1370.225
1288.915, 1379.911
1289.398, 1366.884
1289.880, 1352.759
1290.362, 1349.808
1290.844, 1347.284
1291.326, 1337.193
1291.808, 1329.531
1292.290, 1334.836
1292.772, 1350.110
##END=



