##NAMES=Lasalite
##RRUFFID=R070476
##IDEAL CHEMISTRY=Na_2_Mg_2_(V^5+^_10_O_28_)&#183;20H_2_O
##LOCALITY=Vanadium Queen mine, Paradox Valley, San Juan County, Utah, USA
##OWNER=RRUFF
##SOURCE=Dakota Matrix Minerals
##DESCRIPTION=Orange massive
##STATUS=The identification of this mineral has been confirmed by single-crystal X-ray diffraction.
##URL=rruff.info/R070476
140.2025, 8054.048
140.6847, 8654.676
141.1668, 9312.794
141.6489, 10028.18
142.1310, 10793.56
142.6131, 11596.53
143.0952, 12446.98
143.5774, 13376.91
144.0595, 14211.41
144.5416, 15014.60
145.0237, 15677.14
145.5058, 16147.73
145.9879, 16421.06
146.4701, 16524.54
146.9522, 16482.34
147.4343, 16278.35
147.9164, 15962.41
148.3985, 15482.62
148.8806, 14949.83
149.3628, 14401.27
149.8449, 13854.61
150.3270, 13336.19
150.8091, 12878.29
151.2912, 12480.57
151.7733, 12158.38
152.2555, 11908.77
152.7376, 11720.83
153.2197, 11583.11
153.7018, 11494.59
154.1839, 11465.28
154.6660, 11508.03
155.1481, 11625.65
155.6303, 11829.51
156.1124, 12145.75
156.5945, 12523.64
157.0766, 12922.96
157.5587, 13334.07
158.0408, 13774.52
158.5230, 14270.80
159.0051, 14848.10
159.4872, 15453.11
159.9693, 16077.89
160.4514, 16657.00
160.9335, 17209.31
161.4157, 17776.86
161.8978, 18348.25
162.3799, 18906.23
162.8620, 19451.65
163.3441, 19982.25
163.8262, 20477.23
164.3084, 20970.09
164.7905, 21498.07
165.2726, 22071.14
165.7547, 22671.24
166.2368, 23271.87
166.7189, 23854.90
167.2011, 24481.88
167.6832, 25165.63
168.1653, 25893.88
168.6474, 26657.73
169.1295, 27457.86
169.6116, 28270.79
170.0938, 29060.13
170.5759, 29817.09
171.0580, 30580.80
171.5401, 31404.97
172.0222, 32225.16
172.5043, 32972.53
172.9865, 33634.59
173.4686, 34198.53
173.9507, 34636.30
174.4328, 34984.20
174.9149, 35152.48
175.3970, 35116.58
175.8792, 34891.40
176.3613, 34492.23
176.8434, 33916.64
177.3255, 33187.20
177.8076, 32310.24
178.2897, 31268.81
178.7719, 30177.12
179.2540, 29022.85
179.7361, 27841.05
180.2182, 26693.93
180.7003, 25597.98
181.1824, 24546.56
181.6646, 23544.16
182.1467, 22580.31
182.6288, 21668.83
183.1109, 20804.34
183.5930, 19997.25
184.0751, 19266.75
184.5573, 18626.31
185.0394, 18046.13
185.5215, 17477.71
186.0036, 16907.48
186.4857, 16390.01
186.9678, 15960.61
187.4500, 15588.21
187.9321, 15217.31
188.4142, 14828.86
188.8963, 14450.05
189.3784, 14127.54
189.8605, 13861.61
190.3427, 13595.27
190.8248, 13302.51
191.3069, 12998.65
191.7890, 12705.94
192.2711, 12428.40
192.7532, 12168.89
193.2354, 11932.87
193.7175, 11718.83
194.1996, 11517.21
194.6817, 11317.45
195.1638, 11130.30
195.6459, 10978.36
196.1281, 10871.29
196.6102, 10785.94
197.0923, 10693.09
197.5744, 10593.06
198.0565, 10513.21
198.5386, 10466.48
199.0208, 10443.56
199.5029, 10425.31
199.9850, 10404.10
200.4671, 10402.21
200.9492, 10453.19
201.4313, 10548.55
201.9135, 10659.09
202.3956, 10769.06
202.8777, 10891.33
203.3598, 11048.90
203.8419, 11247.05
204.3240, 11469.28
204.8061, 11708.21
205.2883, 11961.11
205.7704, 12212.72
206.2525, 12429.59
206.7346, 12653.24
207.2167, 12960.91
207.6988, 13371.88
208.1810, 13785.50
208.6631, 14098.86
209.1452, 14331.65
209.6273, 14564.25
210.1094, 14833.93
210.5915, 15101.70
211.0737, 15333.02
211.5558, 15527.70
212.0379, 15657.34
212.5200, 15683.00
213.0021, 15618.17
213.4842, 15515.30
213.9664, 15373.10
214.4485, 15201.73
214.9306, 15004.89
215.4127, 14782.64
215.8948, 14551.68
216.3769, 14322.40
216.8591, 14092.99
217.3412, 13854.02
217.8233, 13612.28
218.3054, 13356.34
218.7875, 13074.54
219.2696, 12766.25
219.7518, 12443.77
220.2339, 12103.07
220.7160, 11755.94
221.1981, 11434.81
221.6802, 11133.57
222.1623, 10862.55
222.6445, 10628.24
223.1266, 10430.13
223.6087, 10271.11
224.0908, 10159.56
224.5729, 10088.71
225.0550, 10025.96
225.5372, 9958.237
226.0193, 9914.215
226.5014, 9916.462
226.9835, 9958.332
227.4656, 10012.21
227.9477, 10067.29
228.4298, 10126.11
228.9120, 10192.28
229.3941, 10261.88
229.8762, 10344.56
230.3583, 10453.56
230.8404, 10579.58
231.3225, 10692.18
231.8047, 10769.91
232.2868, 10845.89
232.7689, 10995.25
233.2510, 11237.71
233.7331, 11477.70
234.2152, 11681.70
234.6974, 11864.87
235.1795, 12050.24
235.6616, 12245.08
236.1437, 12446.13
236.6258, 12651.18
237.1079, 12868.30
237.5901, 13062.28
238.0722, 13205.60
238.5543, 13329.78
239.0364, 13480.67
239.5185, 13670.77
240.0006, 13866.85
240.4828, 14028.06
240.9649, 14147.48
241.4470, 14262.08
241.9291, 14364.08
242.4112, 14468.78
242.8933, 14596.99
243.3755, 14750.85
243.8576, 14900.37
244.3397, 15013.39
244.8218, 15080.79
245.3039, 15170.53
245.7860, 15306.86
246.2682, 15446.49
246.7503, 15563.04
247.2324, 15654.91
247.7145, 15728.52
248.1966, 15786.70
248.6787, 15829.21
249.1609, 15869.87
249.6430, 15940.45
250.1251, 15979.83
250.6072, 15966.97
251.0893, 15900.73
251.5714, 15780.96
252.0535, 15605.76
252.5357, 15377.85
253.0178, 15124.05
253.4999, 14816.64
253.9820, 14518.02
254.4641, 14249.16
254.9462, 13999.76
255.4284, 13747.57
255.9105, 13479.90
256.3926, 13210.48
256.8747, 12982.72
257.3568, 12831.47
257.8390, 12683.85
258.3211, 12529.30
258.8032, 12377.90
259.2853, 12242.83
259.7674, 12128.54
260.2495, 12026.42
260.7317, 11921.02
261.2138, 11810.93
261.6959, 11698.74
262.1780, 11586.64
262.6601, 11471.78
263.1422, 11352.45
263.6244, 11228.64
264.1065, 11101.01
264.5886, 10968.62
265.0707, 10825.49
265.5528, 10697.86
266.0349, 10598.76
266.5170, 10502.03
266.9991, 10396.41
267.4813, 10280.49
267.9634, 10155.72
268.4455, 10019.79
268.9276, 9870.669
269.4097, 9740.736
269.8918, 9647.762
270.3740, 9557.683
270.8561, 9462.463
271.3382, 9361.892
271.8203, 9258.476
272.3024, 9153.266
272.7845, 9046.112
273.2667, 8936.754
273.7488, 8828.341
274.2309, 8712.750
274.7130, 8583.706
275.1951, 8448.845
275.6772, 8319.179
276.1594, 8201.529
276.6415, 8087.517
277.1236, 7958.213
277.6057, 7806.574
278.0878, 7658.079
278.5699, 7514.723
279.0521, 7380.468
279.5342, 7262.547
280.0163, 7163.676
280.4984, 7069.649
280.9805, 6959.875
281.4626, 6832.167
281.9448, 6719.701
282.4269, 6638.241
282.9090, 6568.252
283.3911, 6493.862
283.8732, 6414.373
284.3553, 6337.986
284.8375, 6269.139
285.3196, 6207.852
285.8017, 6155.188
286.2838, 6118.421
286.7659, 6078.077
287.2480, 6006.286
287.7302, 5913.239
288.2123, 5843.136
288.6944, 5830.354
289.1765, 5845.676
289.6586, 5836.420
290.1407, 5795.240
290.6229, 5757.714
291.1050, 5754.020
291.5871, 5773.819
292.0692, 5787.149
292.5513, 5789.599
293.0334, 5784.365
293.5156, 5763.172
293.9977, 5730.448
294.4798, 5719.453
294.9619, 5749.644
295.4440, 5812.988
295.9261, 5884.378
296.4083, 5978.814
296.8904, 6056.897
297.3725, 6086.010
297.8546, 6088.758
298.3367, 6110.134
298.8188, 6166.076
299.3010, 6243.728
299.7831, 6319.858
300.2652, 6390.748
300.7473, 6469.699
301.2294, 6564.811
301.7115, 6664.701
302.1937, 6752.660
302.6758, 6827.568
303.1579, 6911.131
303.6400, 7029.317
304.1221, 7190.162
304.6042, 7342.272
305.0864, 7481.059
305.5685, 7616.163
306.0506, 7742.695
306.5327, 7868.195
307.0148, 8013.717
307.4969, 8198.085
307.9791, 8416.026
308.4612, 8619.113
308.9433, 8796.082
309.4254, 8968.870
309.9075, 9139.252
310.3896, 9307.749
310.8718, 9478.948
311.3539, 9654.639
311.8360, 9826.235
312.3181, 9973.396
312.8002, 10081.90
313.2823, 10194.30
313.7644, 10327.97
314.2466, 10458.20
314.7287, 10566.75
315.2108, 10650.89
315.6929, 10719.43
316.1750, 10778.33
316.6571, 10826.03
317.1393, 10881.34
317.6214, 10969.38
318.1035, 11039.58
318.5856, 11059.92
319.0677, 11039.58
319.5498, 11011.19
320.0320, 10992.08
320.5141, 10980.48
320.9962, 10975.81
321.4783, 10987.83
321.9604, 10981.87
322.4425, 10935.79
322.9247, 10861.15
323.4068, 10770.06
323.8889, 10663.47
324.3710, 10544.33
324.8531, 10413.09
325.3352, 10270.14
325.8174, 10125.29
326.2995, 9988.444
326.7816, 9844.346
327.2637, 9667.312
327.7458, 9449.673
328.2279, 9230.606
328.7101, 9028.379
329.1922, 8836.126
329.6743, 8637.681
330.1564, 8429.106
330.6385, 8216.466
331.1206, 8007.788
331.6028, 7801.564
332.0849, 7598.372
332.5670, 7393.088
333.0491, 7194.122
333.5312, 7004.845
334.0133, 6826.866
334.4955, 6661.501
334.9776, 6510.449
335.4597, 6373.338
335.9418, 6242.346
336.4239, 6126.606
336.9060, 6004.668
337.3882, 5863.707
337.8703, 5715.322
338.3524, 5577.250
338.8345, 5457.208
339.3166, 5347.265
339.7987, 5231.577
340.2809, 5097.733
340.7630, 4980.458
341.2451, 4888.213
341.7272, 4804.427
342.2093, 4717.381
342.6914, 4626.415
343.1736, 4540.549
343.6557, 4472.995
344.1378, 4425.267
344.6199, 4363.265
345.1020, 4269.145
345.5841, 4180.528
346.0663, 4111.721
346.5484, 4058.245
347.0305, 4011.584
347.5126, 3969.044
347.9947, 3929.121
348.4768, 3888.432
348.9590, 3846.176
349.4411, 3805.994
349.9232, 3771.003
350.4053, 3737.814
350.8874, 3701.175
351.3695, 3658.446
351.8517, 3621.941
352.3338, 3607.549
352.8159, 3608.564
353.2980, 3595.049
353.7801, 3555.723
354.2622, 3510.934
354.7444, 3486.207
355.2265, 3479.159
355.7086, 3469.244
356.1907, 3443.749
356.6728, 3418.306
357.1549, 3414.368
357.6371, 3430.421
358.1192, 3440.441
358.6013, 3425.402
359.0834, 3388.696
359.5655, 3356.554
360.0476, 3326.462
360.5298, 3302.976
361.0119, 3289.543
361.4940, 3283.093
361.9761, 3280.935
362.4582, 3282.011
362.9403, 3282.290
363.4224, 3273.823
363.9045, 3248.106
364.3867, 3231.037
364.8688, 3231.031
365.3509, 3231.722
365.8330, 3222.661
366.3151, 3204.255
366.7972, 3183.468
367.2794, 3166.637
367.7615, 3153.165
368.2436, 3135.274
368.7257, 3111.399
369.2078, 3084.611
369.6899, 3050.006
370.1721, 3015.283
370.6542, 2991.999
371.1363, 2986.506
371.6184, 2985.998
372.1005, 2971.338
372.5826, 2941.352
373.0648, 2911.796
373.5469, 2884.774
374.0290, 2861.178
374.5111, 2841.995
374.9932, 2827.165
375.4753, 2813.579
375.9575, 2802.105
376.4396, 2790.095
376.9217, 2769.542
377.4038, 2738.360
377.8859, 2711.917
378.3680, 2705.109
378.8502, 2714.469
379.3323, 2713.731
379.8144, 2694.354
380.2965, 2672.871
380.7786, 2657.314
381.2607, 2646.033
381.7429, 2635.715
382.2250, 2625.239
382.7071, 2613.691
383.1892, 2598.809
383.6713, 2572.603
384.1534, 2557.856
384.6356, 2567.235
385.1177, 2578.625
385.5998, 2572.991
386.0819, 2551.580
386.5640, 2530.786
387.0461, 2525.946
387.5283, 2536.313
388.0104, 2539.544
388.4925, 2528.846
388.9746, 2519.071
389.4567, 2511.560
389.9388, 2507.663
390.4210, 2510.459
390.9031, 2521.760
391.3852, 2534.485
391.8673, 2535.383
392.3494, 2522.281
392.8315, 2520.682
393.3137, 2548.702
393.7958, 2576.416
394.2779, 2576.132
394.7600, 2551.061
395.2421, 2530.528
395.7242, 2533.926
396.2064, 2548.966
396.6885, 2554.824
397.1706, 2550.038
397.6527, 2544.555
398.1348, 2544.530
398.6169, 2548.769
399.0991, 2551.914
399.5812, 2554.011
400.0633, 2555.080
400.5454, 2553.789
401.0275, 2551.799
401.5096, 2551.158
401.9918, 2552.490
402.4739, 2557.015
402.9560, 2566.933
403.4381, 2584.358
403.9202, 2600.194
404.4023, 2609.500
404.8845, 2621.991
405.3666, 2650.962
405.8487, 2687.429
406.3308, 2707.995
406.8129, 2695.603
407.2950, 2661.860
407.7772, 2648.167
408.2593, 2664.620
408.7414, 2681.338
409.2235, 2693.551
409.7056, 2702.887
410.1877, 2709.350
410.6699, 2713.233
411.1520, 2718.256
411.6341, 2726.990
412.1162, 2739.477
412.5983, 2757.255
413.0804, 2783.491
413.5625, 2808.081
414.0446, 2822.144
414.5268, 2828.933
415.0089, 2835.006
415.4910, 2845.745
415.9731, 2852.184
416.4552, 2843.257
416.9373, 2823.742
417.4195, 2809.104
417.9016, 2804.911
418.3837, 2809.128
418.8658, 2819.766
419.3479, 2843.426
419.8300, 2856.578
420.3122, 2849.996
420.7943, 2839.285
421.2764, 2833.123
421.7585, 2833.079
422.2406, 2838.832
422.7227, 2850.150
423.2049, 2867.072
423.6870, 2890.667
424.1691, 2932.323
424.6512, 2963.552
425.1333, 2974.213
425.6154, 2976.625
426.0976, 2979.327
426.5797, 2985.042
427.0618, 2998.075
427.5439, 3029.588
428.0260, 3077.390
428.5081, 3106.171
428.9903, 3103.625
429.4724, 3098.713
429.9545, 3110.574
430.4366, 3134.628
430.9187, 3161.555
431.4008, 3191.158
431.8830, 3220.605
432.3651, 3248.098
432.8472, 3273.542
433.3293, 3294.176
433.8114, 3306.625
434.2935, 3320.663
434.7757, 3354.982
435.2578, 3420.138
435.7399, 3473.072
436.2220, 3504.644
436.7041, 3528.792
437.1862, 3553.339
437.6684, 3579.404
438.1505, 3606.532
438.6326, 3634.242
439.1147, 3662.706
439.5968, 3693.462
440.0789, 3727.755
440.5611, 3762.238
441.0432, 3800.040
441.5253, 3835.489
442.0074, 3859.821
442.4895, 3873.222
442.9716, 3890.876
443.4538, 3928.384
443.9359, 3982.964
444.4180, 4040.217
444.9001, 4103.847
445.3822, 4159.817
445.8643, 4197.409
446.3465, 4221.704
446.8286, 4239.850
447.3107, 4248.561
447.7928, 4257.908
448.2749, 4274.047
448.7570, 4295.778
449.2392, 4322.348
449.7213, 4354.652
450.2034, 4384.346
450.6855, 4401.823
451.1676, 4405.675
451.6497, 4400.911
452.1319, 4384.230
452.6140, 4363.043
453.0961, 4338.657
453.5782, 4312.789
454.0603, 4288.713
454.5424, 4268.302
455.0246, 4248.241
455.5067, 4220.694
455.9888, 4182.421
456.4709, 4145.818
456.9530, 4112.512
457.4352, 4080.813
457.9173, 4054.973
458.3994, 4031.568
458.8815, 3997.070
459.3636, 3932.154
459.8457, 3856.513
460.3279, 3809.176
460.8100, 3792.044
461.2921, 3776.007
461.7742, 3749.095
462.2563, 3715.396
462.7384, 3682.811
463.2205, 3652.916
463.7026, 3619.800
464.1848, 3577.875
464.6669, 3534.460
465.1490, 3495.548
465.6311, 3462.499
466.1132, 3436.193
466.5953, 3418.551
467.0775, 3408.069
467.5596, 3390.580
468.0417, 3362.669
468.5238, 3331.355
469.0059, 3291.518
469.4880, 3252.207
469.9702, 3223.380
470.4523, 3206.090
470.9344, 3191.208
471.4165, 3167.114
471.8986, 3135.395
472.3807, 3114.377
472.8629, 3110.808
473.3450, 3104.237
473.8271, 3076.989
474.3092, 3040.497
474.7913, 3012.459
475.2734, 2997.976
475.7556, 2987.446
476.2377, 2977.185
476.7198, 2966.097
477.2019, 2951.886
477.6840, 2934.002
478.1661, 2912.719
478.6483, 2886.406
479.1304, 2853.695
479.6125, 2833.622
480.0946, 2838.296
480.5767, 2840.199
481.0588, 2827.375
481.5410, 2807.082
482.0231, 2790.623
482.5052, 2781.950
482.9873, 2775.307
483.4694, 2760.057
483.9515, 2733.807
484.4337, 2718.669
484.9158, 2724.816
485.3979, 2730.727
485.8800, 2724.330
486.3621, 2709.643
486.8442, 2695.103
487.3264, 2682.569
487.8085, 2672.575
488.2906, 2667.328
488.7727, 2665.449
489.2548, 2660.562
489.7369, 2650.176
490.2191, 2638.986
490.7012, 2632.746
491.1833, 2632.489
491.6654, 2632.273
492.1475, 2631.537
492.6296, 2631.417
493.1118, 2632.538
493.5939, 2634.675
494.0760, 2636.574
494.5581, 2637.654
495.0402, 2640.609
495.5223, 2653.760
496.0045, 2684.025
496.4866, 2695.585
496.9687, 2668.857
497.4508, 2640.195
497.9329, 2626.670
498.4150, 2625.213
498.8972, 2627.025
499.3793, 2629.106
499.8614, 2632.139
500.3435, 2639.058
500.8256, 2648.529
501.3077, 2651.698
501.7899, 2644.431
502.2720, 2633.924
502.7541, 2628.815
503.2362, 2629.796
503.7183, 2633.260
504.2004, 2641.832
504.6826, 2650.225
505.1647, 2659.299
505.6468, 2665.474
506.1289, 2660.347
506.6110, 2640.159
507.0931, 2614.061
507.5753, 2597.803
508.0574, 2592.356
508.5395, 2593.388
509.0216, 2606.195
509.5037, 2619.949
509.9858, 2632.360
510.4680, 2641.496
510.9501, 2642.330
511.4322, 2627.534
511.9143, 2612.167
512.3964, 2616.169
512.8785, 2635.081
513.3607, 2647.654
513.8428, 2647.745
514.3249, 2641.140
514.8070, 2633.993
515.2891, 2626.389
515.7712, 2616.847
516.2534, 2599.091
516.7355, 2585.991
517.2176, 2584.208
517.6997, 2590.708
518.1818, 2601.304
518.6639, 2614.214
519.1461, 2627.427
519.6282, 2638.437
520.1103, 2647.215
520.5924, 2653.401
521.0745, 2655.828
521.5566, 2657.054
522.0388, 2656.615
522.5209, 2656.286
523.0030, 2659.575
523.4851, 2668.303
523.9672, 2678.961
524.4493, 2688.203
524.9315, 2697.298
525.4136, 2710.050
525.8957, 2727.448
526.3778, 2746.559
526.8599, 2765.278
527.3420, 2783.766
527.8242, 2798.411
528.3063, 2802.669
528.7884, 2811.620
529.2705, 2836.787
529.7526, 2864.829
530.2347, 2878.167
530.7169, 2873.832
531.1990, 2865.763
531.6811, 2867.713
532.1632, 2879.186
532.6453, 2896.005
533.1274, 2921.289
533.6096, 2943.807
534.0917, 2944.391
534.5738, 2944.766
535.0559, 2982.317
535.5380, 3074.656
536.0201, 3153.372
536.5022, 3186.712
536.9843, 3188.977
537.4664, 3169.205
537.9485, 3132.834
538.4307, 3101.139
538.9128, 3088.827
539.3949, 3093.956
539.8770, 3108.377
540.3591, 3144.463
540.8412, 3170.687
541.3234, 3178.194
541.8055, 3181.246
542.2876, 3188.490
542.7697, 3200.954
543.2518, 3217.072
543.7339, 3237.888
544.2161, 3260.126
544.6982, 3278.155
545.1803, 3291.978
545.6624, 3298.513
546.1445, 3291.528
546.6266, 3283.972
547.1088, 3298.022
547.5909, 3336.854
548.0730, 3365.954
548.5551, 3369.023
549.0372, 3372.856
549.5193, 3402.424
550.0015, 3444.491
550.4836, 3465.245
550.9657, 3450.232
551.4478, 3424.855
551.9299, 3436.111
552.4120, 3494.594
552.8942, 3529.794
553.3763, 3524.437
553.8584, 3514.497
554.3405, 3514.246
554.8226, 3522.599
555.3047, 3538.824
555.7869, 3566.116
556.2690, 3593.049
556.7511, 3607.399
557.2332, 3616.222
557.7153, 3635.358
558.1974, 3667.570
558.6796, 3703.575
559.1617, 3737.643
559.6438, 3768.692
560.1259, 3785.757
560.6080, 3772.270
561.0901, 3765.659
561.5723, 3767.560
562.0544, 3779.253
562.5365, 3803.809
563.0186, 3840.060
563.5007, 3881.839
563.9828, 3929.512
564.4650, 3976.809
564.9471, 4002.150
565.4292, 4002.823
565.9113, 4017.711
566.3934, 4066.507
566.8755, 4129.717
567.3577, 4178.620
567.8398, 4212.453
568.3219, 4244.202
568.8040, 4270.568
569.2861, 4299.796
569.7682, 4336.938
570.2504, 4380.793
570.7325, 4428.929
571.2146, 4480.248
571.6967, 4535.307
572.1788, 4597.612
572.6609, 4669.274
573.1431, 4731.517
573.6252, 4777.455
574.1073, 4824.368
574.5894, 4882.661
575.0715, 4947.234
575.5536, 5009.943
576.0358, 5069.914
576.5179, 5126.815
577.0000, 5175.752
577.4821, 5223.243
577.9642, 5279.350
578.4464, 5344.965
578.9285, 5417.613
579.4106, 5497.445
579.8927, 5579.852
580.3748, 5643.520
580.8569, 5677.662
581.3391, 5710.835
581.8212, 5741.813
582.3033, 5775.481
582.7854, 5814.433
583.2675, 5858.701
583.7496, 5907.808
584.2318, 5962.284
584.7139, 6019.861
585.1960, 6083.000
585.6781, 6148.137
586.1602, 6195.126
586.6423, 6216.588
587.1245, 6224.809
587.6066, 6231.159
588.0887, 6235.351
588.5708, 6242.786
589.0529, 6257.407
589.5350, 6270.190
590.0172, 6278.183
590.4993, 6283.307
590.9814, 6290.221
591.4635, 6298.604
591.9456, 6299.780
592.4277, 6283.876
592.9099, 6254.463
593.3920, 6224.450
593.8741, 6193.671
594.3562, 6163.948
594.8383, 6140.376
595.3204, 6114.135
595.8026, 6066.054
596.2847, 5990.839
596.7668, 5931.423
597.2489, 5904.931
597.7310, 5885.525
598.2131, 5861.012
598.6953, 5830.133
599.1774, 5793.472
599.6595, 5751.096
600.1416, 5702.968
600.6237, 5645.585
601.1058, 5578.202
601.5880, 5525.200
602.0701, 5502.124
602.5522, 5464.169
603.0343, 5371.325
603.5164, 5255.000
603.9985, 5160.518
604.4807, 5093.673
604.9628, 5044.052
605.4449, 5029.328
605.9270, 5015.394
606.4091, 4960.974
606.8912, 4871.336
607.3734, 4777.634
607.8555, 4697.120
608.3376, 4628.543
608.8197, 4569.687
609.3018, 4522.415
609.7839, 4478.011
610.2661, 4438.103
610.7482, 4398.674
611.2303, 4361.729
611.7124, 4323.018
612.1945, 4272.672
612.6766, 4203.452
613.1588, 4133.769
613.6409, 4061.132
614.1230, 4001.145
614.6051, 3999.353
615.0872, 4051.800
615.5693, 4078.356
616.0515, 4018.020
616.5336, 3893.167
617.0157, 3786.088
617.4978, 3695.409
617.9799, 3626.253
618.4620, 3591.622
618.9442, 3567.160
619.4263, 3545.776
619.9084, 3523.865
620.3905, 3493.087
620.8726, 3445.677
621.3547, 3396.189
621.8369, 3358.240
622.3190, 3328.314
622.8011, 3298.978
623.2832, 3268.673
623.7653, 3236.582
624.2474, 3201.380
624.7296, 3163.808
625.2117, 3128.740
625.6938, 3094.859
626.1759, 3066.270
626.6580, 3051.510
627.1401, 3034.872
627.6223, 3002.489
628.1044, 2957.413
628.5865, 2915.196
629.0686, 2883.877
629.5507, 2857.239
630.0328, 2827.365
630.5150, 2796.098
630.9971, 2771.065
631.4792, 2754.299
631.9613, 2738.486
632.4434, 2716.131
632.9255, 2687.882
633.4077, 2664.323
633.8898, 2647.894
634.3719, 2632.998
634.8539, 2620.480
635.3361, 2608.081
635.8182, 2594.769
636.3003, 2580.081
636.7824, 2562.882
637.2645, 2541.025
637.7466, 2518.048
638.2288, 2498.635
638.7109, 2481.905
639.1930, 2462.957
639.6751, 2439.987
640.1572, 2420.250
640.6393, 2412.490
641.1215, 2416.092
641.6036, 2410.627
642.0857, 2392.792
642.5678, 2369.700
643.0499, 2332.271
643.5320, 2297.540
644.0142, 2281.971
644.4963, 2283.753
644.9784, 2286.779
645.4605, 2284.794
645.9426, 2277.002
646.4247, 2259.302
646.9069, 2234.478
647.3890, 2212.426
647.8711, 2195.613
648.3532, 2183.417
648.8353, 2175.476
649.3174, 2171.707
649.7996, 2170.911
650.2817, 2182.129
650.7638, 2183.173
651.2459, 2163.809
651.7280, 2139.346
652.2101, 2120.832
652.6923, 2108.632
653.1744, 2097.345
653.6565, 2083.501
654.1386, 2070.203
654.6207, 2059.662
655.1028, 2052.489
655.5850, 2052.880
656.0671, 2061.858
656.5492, 2068.716
657.0313, 2062.948
657.5134, 2045.672
657.9955, 2029.326
658.4777, 2011.748
658.9598, 1998.814
659.4419, 1995.493
659.9240, 1993.161
660.4061, 1984.745
660.8882, 1971.504
661.3704, 1960.268
661.8525, 1955.503
662.3346, 1951.558
662.8167, 1942.230
663.2988, 1930.279
663.7809, 1922.030
664.2631, 1918.544
664.7452, 1915.901
665.2273, 1910.986
665.7094, 1904.034
666.1915, 1895.669
666.6736, 1883.011
667.1558, 1875.621
667.6379, 1879.626
668.1200, 1885.002
668.6021, 1887.583
669.0842, 1886.734
669.5663, 1880.826
670.0485, 1866.093
670.5306, 1851.674
671.0127, 1845.920
671.4948, 1842.801
671.9769, 1830.708
672.4590, 1810.342
672.9412, 1794.986
673.4233, 1794.610
673.9054, 1803.336
674.3875, 1804.473
674.8696, 1795.714
675.3517, 1790.591
675.8339, 1796.804
676.3160, 1798.204
676.7981, 1774.876
677.2802, 1740.252
677.7623, 1725.911
678.2444, 1748.219
678.7266, 1764.139
679.2087, 1750.641
679.6908, 1728.999
680.1729, 1718.860
680.6550, 1719.853
681.1371, 1724.272
681.6193, 1728.446
682.1014, 1730.309
682.5835, 1725.788
683.0656, 1714.889
683.5477, 1702.342
684.0298, 1686.381
684.5120, 1675.710
684.9941, 1678.564
685.4762, 1688.358
685.9583, 1689.257
686.4404, 1678.485
686.9225, 1668.030
687.4047, 1659.343
687.8868, 1651.273
688.3689, 1642.414
688.8510, 1633.891
689.3331, 1628.033
689.8152, 1625.548
690.2974, 1624.143
690.7795, 1622.906
691.2616, 1620.751
691.7437, 1611.243
692.2258, 1594.064
692.7079, 1587.044
693.1901, 1601.202
693.6722, 1619.825
694.1543, 1616.574
694.6364, 1585.661
695.1185, 1562.916
695.6006, 1550.819
696.0828, 1543.516
696.5649, 1540.034
697.0470, 1540.228
697.5291, 1546.983
698.0112, 1559.217
698.4933, 1566.212
698.9755, 1558.450
699.4576, 1544.476
699.9397, 1531.992
700.4218, 1521.841
700.9039, 1517.814
701.3860, 1520.785
701.8682, 1524.755
702.3503, 1524.548
702.8324, 1519.867
703.3145, 1507.084
703.7966, 1479.958
704.2787, 1459.134
704.7609, 1450.576
705.2430, 1447.727
705.7251, 1447.779
706.2072, 1449.781
706.6893, 1450.550
707.1714, 1449.610
707.6536, 1446.953
708.1357, 1441.265
708.6178, 1434.651
709.0999, 1429.886
709.5820, 1426.763
710.0641, 1423.207
710.5463, 1417.928
711.0284, 1411.578
711.5105, 1405.095
711.9926, 1398.497
712.4747, 1391.755
712.9568, 1383.648
713.4390, 1380.052
713.9211, 1387.221
714.4032, 1399.823
714.8853, 1403.596
715.3674, 1394.140
715.8495, 1387.047
716.3317, 1386.042
716.8138, 1384.593
717.2959, 1378.223
717.7780, 1369.537
718.2601, 1362.486
718.7422, 1358.229
719.2244, 1356.446
719.7065, 1360.716
720.1886, 1365.496
720.6707, 1359.116
721.1528, 1343.078
721.6349, 1326.066
722.1171, 1310.644
722.5992, 1302.182
723.0813, 1310.331
723.5634, 1335.318
724.0455, 1339.963
724.5276, 1307.226
725.0098, 1284.656
725.4919, 1291.917
725.9740, 1306.626
726.4561, 1312.381
726.9382, 1310.205
727.4203, 1309.802
727.9025, 1319.096
728.3846, 1324.583
728.8667, 1313.546
729.3488, 1297.972
729.8309, 1294.662
730.3130, 1303.189
730.7952, 1311.136
731.2773, 1310.779
731.7594, 1305.055
732.2415, 1297.987
732.7236, 1289.791
733.2057, 1285.385
733.6878, 1286.278
734.1699, 1286.539
734.6520, 1282.611
735.1342, 1275.517
735.6163, 1267.292
736.0984, 1253.518
736.5805, 1248.961
737.0626, 1265.104
737.5447, 1277.561
738.0269, 1271.490
738.5090, 1257.533
738.9911, 1251.444
739.4732, 1256.441
739.9553, 1261.328
740.4374, 1257.347
740.9196, 1250.706
741.4017, 1249.201
741.8838, 1251.327
742.3659, 1251.940
742.8480, 1249.662
743.3301, 1247.743
743.8123, 1249.873
744.2944, 1255.016
744.7765, 1256.800
745.2586, 1254.342
745.7407, 1252.013
746.2228, 1250.355
746.7050, 1249.556
747.1871, 1250.826
747.6692, 1253.276
748.1513, 1252.932
748.6334, 1250.156
749.1155, 1243.838
749.5977, 1226.713
750.0798, 1212.115
750.5619, 1213.762
751.0440, 1225.502
751.5261, 1232.099
752.0082, 1227.319
752.4904, 1218.982
752.9725, 1214.772
753.4546, 1212.548
753.9367, 1206.739
754.4188, 1197.860
754.9009, 1191.135
755.3831, 1188.670
755.8652, 1190.447
756.3473, 1197.880
756.8294, 1211.383
757.3115, 1214.533
757.7936, 1200.133
758.2758, 1190.694
758.7579, 1197.768
759.2400, 1207.535
759.7221, 1206.362
760.2042, 1195.627
760.6863, 1186.186
761.1685, 1179.083
761.6506, 1174.315
762.1327, 1171.824
762.6148, 1171.748
763.0969, 1176.315
763.5790, 1183.508
764.0612, 1187.757
764.5433, 1186.245
765.0254, 1180.723
765.5075, 1172.039
765.9896, 1161.237
766.4717, 1148.948
766.9539, 1135.798
767.4360, 1132.877
767.9181, 1147.303
768.4002, 1166.116
768.8823, 1165.590
769.3644, 1141.493
769.8466, 1133.243
770.3287, 1150.361
770.8108, 1166.122
771.2929, 1172.299
771.7750, 1173.331
772.2571, 1173.560
772.7393, 1172.829
773.2214, 1168.137
773.7035, 1152.089
774.1856, 1140.316
774.6677, 1141.747
775.1498, 1148.743
775.6320, 1154.563
776.1141, 1158.219
776.5962, 1160.850
777.0783, 1163.124
777.5604, 1164.236
778.0425, 1161.089
778.5247, 1156.335
779.0068, 1158.327
779.4889, 1167.314
779.9710, 1176.846
780.4531, 1184.057
780.9352, 1188.358
781.4174, 1187.984
781.8995, 1182.239
782.3816, 1179.587
782.8637, 1180.008
783.3458, 1183.913
783.8279, 1196.361
784.3101, 1208.108
784.7922, 1205.644
785.2743, 1190.728
785.7564, 1185.993
786.2385, 1206.294
786.7206, 1221.064
787.2028, 1215.477
787.6849, 1204.870
788.1670, 1201.548
788.6491, 1205.791
789.1312, 1214.295
789.6133, 1226.779
790.0955, 1237.294
790.5776, 1236.863
791.0597, 1231.806
791.5418, 1233.640
792.0239, 1242.497
792.5060, 1255.652
792.9882, 1272.081
793.4703, 1286.007
793.9524, 1288.127
794.4345, 1279.477
794.9166, 1278.505
795.3987, 1286.899
795.8809, 1295.712
796.3630, 1301.968
796.8451, 1308.838
797.3272, 1320.380
797.8093, 1335.886
798.2914, 1347.717
798.7736, 1351.958
799.2557, 1358.510
799.7378, 1370.435
800.2199, 1382.954
800.7020, 1391.770
801.1841, 1399.174
801.6663, 1410.512
802.1484, 1427.746
802.6305, 1444.986
803.1126, 1456.887
803.5947, 1468.465
804.0768, 1485.140
804.5590, 1505.682
805.0411, 1528.202
805.5232, 1551.459
806.0053, 1570.752
806.4874, 1579.569
806.9695, 1583.395
807.4517, 1599.584
807.9338, 1627.140
808.4159, 1647.833
808.8980, 1657.096
809.3801, 1666.932
809.8622, 1686.822
810.3444, 1713.205
810.8265, 1734.953
811.3086, 1749.403
811.7907, 1766.278
812.2728, 1789.529
812.7549, 1809.875
813.2371, 1813.839
813.7192, 1818.097
814.2013, 1848.671
814.6834, 1909.052
815.1655, 1956.583
815.6476, 1972.630
816.1298, 1985.610
816.6119, 2004.779
817.0940, 2029.622
817.5761, 2063.781
818.0582, 2103.199
818.5403, 2132.487
819.0225, 2138.071
819.5046, 2145.389
819.9867, 2186.191
820.4688, 2244.634
820.9509, 2289.958
821.4330, 2322.619
821.9152, 2362.254
822.3973, 2417.797
822.8794, 2475.506
823.3615, 2512.604
823.8436, 2532.732
824.3257, 2571.355
824.8079, 2630.894
825.2900, 2689.942
825.7721, 2740.623
826.2542, 2794.665
826.7363, 2866.351
827.2184, 2951.626
827.7006, 3019.094
828.1827, 3051.714
828.6648, 3096.560
829.1469, 3163.618
829.6290, 3235.537
830.1111, 3307.128
830.5933, 3377.126
831.0754, 3446.068
831.5575, 3515.567
832.0396, 3571.184
832.5217, 3598.739
833.0038, 3621.332
833.4859, 3654.595
833.9680, 3689.662
834.4501, 3714.713
834.9323, 3728.212
835.4144, 3736.111
835.8965, 3743.333
836.3786, 3743.684
836.8607, 3729.968
837.3428, 3704.272
837.8250, 3671.352
838.3071, 3631.103
838.7892, 3578.337
839.2713, 3509.969
839.7534, 3436.270
840.2355, 3375.806
840.7177, 3325.403
841.1998, 3250.574
841.6819, 3148.569
842.1640, 3048.953
842.6461, 2961.165
843.1282, 2877.553
843.6104, 2790.493
844.0925, 2700.993
844.5746, 2615.741
845.0567, 2535.830
845.5388, 2457.201
846.0209, 2380.019
846.5031, 2303.869
846.9852, 2224.985
847.4673, 2148.403
847.9494, 2084.391
848.4315, 2037.189
848.9136, 1981.565
849.3958, 1902.098
849.8779, 1825.668
850.3600, 1764.028
850.8421, 1712.003
851.3242, 1662.920
851.8063, 1617.086
852.2885, 1580.044
852.7706, 1558.225
853.2527, 1537.316
853.7348, 1506.490
854.2169, 1469.265
854.6990, 1426.653
855.1812, 1381.929
855.6633, 1343.096
856.1454, 1313.314
856.6275, 1290.064
857.1096, 1272.816
857.5917, 1259.342
858.0739, 1242.776
858.5560, 1223.630
859.0381, 1206.791
859.5202, 1193.575
860.0023, 1177.427
860.4844, 1152.092
860.9666, 1122.393
861.4487, 1103.049
861.9308, 1095.514
862.4129, 1089.373
862.8950, 1085.255
863.3771, 1079.724
863.8593, 1071.910
864.3414, 1061.061
864.8235, 1044.447
865.3056, 1021.173
865.7877, 1004.887
866.2698, 1001.374
866.7520, 996.9158
867.2341, 990.5169
867.7162, 982.0751
868.1983, 969.7323
868.6804, 955.5811
869.1625, 944.3236
869.6447, 936.5345
870.1268, 932.3336
870.6089, 936.3052
871.0910, 939.0974
871.5731, 931.1854
872.0552, 920.3803
872.5374, 920.5510
873.0195, 931.4879
873.5016, 936.1822
873.9837, 920.5151
874.4658, 902.1876
874.9479, 898.2776
875.4301, 901.9503
875.9122, 904.5554
876.3943, 904.5864
876.8764, 901.0149
877.3585, 893.4321
877.8406, 885.8005
878.3228, 885.8881
878.8049, 888.7371
879.2870, 875.5156
879.7691, 850.0652
880.2512, 840.7019
880.7333, 854.1650
881.2155, 866.7785
881.6976, 858.9495
882.1797, 840.1472
882.6618, 837.9667
883.1439, 854.1062
883.6260, 862.5793
884.1082, 860.9235
884.5903, 856.2592
885.0724, 850.6469
885.5545, 845.2385
886.0366, 841.5649
886.5187, 839.6135
887.0009, 838.0284
887.4830, 835.7159
887.9651, 836.1120
888.4472, 844.6146
888.9293, 850.3088
889.4114, 842.3527
889.8936, 827.6877
890.3757, 821.0221
890.8578, 825.1060
891.3399, 828.7379
891.8220, 829.9591
892.3041, 831.5743
892.7863, 835.6071
893.2684, 839.8333
893.7505, 841.3959
894.2326, 840.8501
894.7147, 841.8197
895.1968, 846.7693
895.6790, 850.6912
896.1611, 848.6172
896.6432, 846.8873
897.1253, 854.2471
897.6074, 865.0129
898.0895, 867.3843
898.5717, 858.9677
899.0538, 848.9320
899.5359, 840.0895
900.0180, 836.3221
900.5001, 846.0435
900.9822, 861.8649
901.4644, 870.7332
901.9465, 872.0690
902.4286, 871.5670
902.9107, 871.9299
903.3928, 874.2428
903.8749, 882.1557
904.3571, 892.3677
904.8392, 895.6635
905.3213, 892.9569
905.8034, 889.1373
906.2855, 885.5688
906.7676, 883.7655
907.2498, 884.6647
907.7319, 888.9546
908.2140, 901.4376
908.6961, 921.6160
909.1782, 927.8785
909.6603, 917.4241
910.1425, 908.9039
910.6246, 909.5720
911.1067, 916.4375
911.5888, 926.7435
912.0709, 939.9500
912.5530, 950.6172
913.0352, 958.0871
913.5173, 964.6419
913.9994, 967.9894
914.4815, 976.7124
914.9636, 1000.811
915.4457, 1028.733
915.9279, 1036.605
916.4100, 1019.085
916.8921, 1011.819
917.3742, 1022.550
917.8563, 1031.692
918.3384, 1031.388
918.8206, 1031.869
919.3027, 1043.076
919.7848, 1060.829
920.2669, 1071.674
920.7490, 1069.219
921.2311, 1074.570
921.7133, 1097.648
922.1954, 1120.145
922.6775, 1135.520
923.1596, 1145.627
923.6417, 1151.066
924.1238, 1152.899
924.6060, 1155.849
925.0881, 1162.011
925.5702, 1168.006
926.0523, 1169.282
926.5344, 1173.030
927.0165, 1188.224
927.4987, 1208.213
927.9808, 1220.228
928.4629, 1222.454
928.9450, 1227.078
929.4271, 1241.130
929.9092, 1259.214
930.3914, 1280.352
930.8734, 1301.301
931.3555, 1316.555
931.8376, 1328.232
932.3198, 1343.413
932.8019, 1364.682
933.2840, 1386.626
933.7661, 1402.273
934.2482, 1417.987
934.7303, 1439.704
935.2125, 1468.251
935.6946, 1506.991
936.1767, 1554.743
936.6588, 1603.711
937.1409, 1649.663
937.6230, 1697.042
938.1052, 1750.714
938.5873, 1809.912
939.0694, 1870.469
939.5515, 1934.699
940.0336, 2013.189
940.5157, 2107.786
940.9979, 2211.193
941.4800, 2318.849
941.9621, 2428.275
942.4442, 2533.611
942.9263, 2636.373
943.4084, 2745.032
943.8906, 2859.186
944.3727, 2970.841
944.8548, 3077.527
945.3369, 3189.779
945.8190, 3319.599
946.3011, 3461.561
946.7833, 3594.720
947.2654, 3719.551
947.7475, 3852.546
948.2296, 3995.626
948.7117, 4143.481
949.1938, 4297.427
949.6760, 4437.148
950.1581, 4536.462
950.6402, 4595.974
951.1223, 4615.340
951.6044, 4588.643
952.0865, 4562.136
952.5687, 4543.505
953.0508, 4519.309
953.5329, 4476.054
954.0150, 4433.902
954.4971, 4428.138
954.9792, 4459.948
955.4614, 4506.886
955.9435, 4578.149
956.4256, 4638.738
956.9077, 4689.627
957.3898, 4712.865
957.8719, 4691.277
958.3541, 4637.455
958.8362, 4581.423
959.3183, 4527.476
959.8004, 4446.159
960.2825, 4307.374
960.7646, 4200.074
961.2468, 4151.632
961.7289, 4132.719
962.2110, 4116.652
962.6931, 4112.173
963.1752, 4148.285
963.6573, 4230.681
964.1395, 4339.559
964.6216, 4465.342
965.1037, 4630.500
965.5858, 4854.620
966.0679, 5109.146
966.5500, 5359.444
967.0322, 5614.090
967.5143, 5918.763
967.9964, 6313.466
968.4785, 6679.748
968.9606, 7005.513
969.4427, 7309.364
969.9249, 7631.834
970.4070, 7910.829
970.8891, 8096.509
971.3712, 8183.847
971.8533, 8161.460
972.3354, 8012.100
972.8176, 7780.220
973.2997, 7438.815
973.7818, 7053.449
974.2639, 6623.239
974.7460, 6187.236
975.2281, 5782.162
975.7103, 5411.472
976.1924, 5073.227
976.6745, 4763.786
977.1566, 4493.462
977.6387, 4262.084
978.1208, 4072.907
978.6030, 3929.730
979.0851, 3831.535
979.5672, 3776.908
980.0493, 3765.659
980.5314, 3797.512
981.0135, 3880.018
981.4957, 3995.259
981.9778, 4122.977
982.4599, 4296.589
982.9420, 4537.849
983.4241, 4841.347
983.9063, 5200.426
984.3884, 5611.958
984.8705, 6063.643
985.3526, 6536.817
985.8347, 7069.732
986.3168, 7687.026
986.7990, 8358.182
987.2811, 9051.690
987.7632, 9782.078
988.2453, 10569.82
988.7274, 11421.88
989.2095, 12331.96
989.6917, 13302.07
990.1738, 14324.09
990.6559, 15462.75
991.1380, 16585.33
991.6201, 17658.40
992.1022, 18600.74
992.5844, 19318.71
993.0665, 19790.65
993.5486, 19906.55
994.0307, 19570.21
994.5128, 18930.30
994.9949, 17974.85
995.4771, 16823.45
995.9592, 15504.90
996.4413, 14096.22
996.9234, 12685.93
997.4055, 11292.23
997.8876, 10010.58
998.3698, 8892.649
998.8519, 7885.872
999.3340, 6957.445
999.8161, 6125.762
1000.298, 5410.232
1000.780, 4803.650
1001.262, 4296.334
1001.745, 3884.489
1002.227, 3534.035
1002.709, 3242.042
1003.191, 2991.110
1003.673, 2777.755
1004.155, 2597.036
1004.637, 2455.382
1005.119, 2342.088
1005.602, 2239.547
1006.084, 2143.286
1006.566, 2052.197
1007.048, 1968.085
1007.530, 1886.037
1008.012, 1798.561
1008.494, 1716.262
1008.976, 1653.421
1009.458, 1601.937
1009.941, 1542.116
1010.423, 1469.162
1010.905, 1396.243
1011.387, 1318.754
1011.869, 1254.924
1012.351, 1223.843
1012.833, 1201.414
1013.315, 1166.323
1013.797, 1122.278
1014.280, 1080.098
1014.762, 1042.029
1015.244, 1008.395
1015.726, 980.2889
1016.208, 955.1119
1016.690, 931.5581
1017.172, 910.6395
1017.654, 894.8804
1018.137, 882.0028
1018.619, 866.6993
1019.101, 847.8890
1019.583, 833.2308
1020.065, 830.4185
1020.547, 825.4604
1021.029, 811.7480
1021.511, 794.7697
1021.993, 774.3656
1022.476, 755.7681
1022.958, 750.1548
1023.440, 759.1328
1023.922, 761.9188
1024.404, 747.7515
1024.886, 733.5023
1025.368, 722.0005
1025.850, 714.6911
1026.333, 717.9747
1026.815, 723.5212
1027.297, 715.5951
1027.779, 692.7183
1028.261, 676.9658
1028.743, 681.0144
1029.225, 680.9576
1029.707, 666.5110
1030.189, 651.5356
1030.672, 643.1426
1031.154, 640.0189
1031.636, 641.9084
1032.118, 648.3251
1032.600, 649.1516
1033.082, 634.2255
1033.564, 626.9878
1034.046, 640.7943
1034.528, 651.3462
1035.011, 644.6801
1035.493, 629.5179
1035.975, 615.2212
1036.457, 602.3331
1036.939, 593.4599
1037.421, 590.8653
1037.903, 588.7195
1038.385, 585.2893
1038.868, 584.2101
1039.350, 590.5877
1039.832, 596.8730
1040.314, 593.6185
1040.796, 582.4899
1041.278, 575.0079
1041.760, 571.4374
1042.242, 571.2820
1042.724, 578.7634
1043.207, 582.2711
1043.689, 574.9041
1044.171, 566.1391
1044.653, 565.3870
1045.135, 570.5126
1045.617, 573.0323
1046.099, 572.9867
1046.581, 569.6091
1047.063, 559.9678
1047.546, 555.2311
1048.028, 561.8842
1048.510, 566.9597
1048.992, 558.6439
1049.474, 542.5767
1049.956, 533.5747
1050.438, 531.9490
1050.920, 536.3386
1051.403, 549.2302
1051.885, 555.5570
1052.367, 550.5084
1052.849, 543.3378
1053.331, 539.6691
1053.813, 539.5670
1054.295, 544.7914
1054.777, 554.7786
1055.260, 553.8149
1055.742, 541.2830
1056.224, 531.0708
1056.706, 525.5956
1057.188, 522.6429
1057.670, 520.9821
1058.152, 521.6010
1058.634, 527.5484
1059.116, 536.0973
1059.599, 533.4891
1060.081, 521.3671
1060.563, 513.2753
1061.045, 510.6865
1061.527, 509.0029
1062.009, 506.2313
1062.491, 504.4185
1062.973, 506.0221
1063.455, 509.6531
1063.938, 513.4933
1064.420, 516.5477
1064.902, 514.1440
1065.384, 507.6673
1065.866, 505.0642
1066.348, 508.4479
1066.830, 511.7074
1067.312, 509.6488
1067.795, 506.2890
1068.277, 508.2470
1068.759, 511.8837
1069.241, 510.7265
1069.723, 506.0275
1070.205, 500.9011
1070.687, 496.5065
1071.169, 494.0417
1071.651, 494.3863
1072.134, 495.8134
1072.616, 498.0136
1073.098, 499.4708
1073.580, 497.7761
1074.062, 494.7730
1074.544, 492.5442
1075.026, 491.7811
1075.508, 494.1150
1075.990, 500.8508
1076.473, 504.5323
1076.955, 498.2560
1077.437, 491.3286
1077.919, 489.2411
1078.401, 489.3419
1078.883, 489.8302
1079.365, 490.0166
1079.847, 488.0200
1080.329, 483.2356
1080.812, 483.1371
1081.294, 497.4445
1081.776, 505.6885
1082.258, 498.3494
1082.740, 487.4295
1083.222, 476.4904
1083.704, 468.8745
1084.186, 471.4373
1084.669, 483.8893
1085.151, 489.7434
1085.633, 480.5256
1086.115, 478.1968
1086.597, 490.1736
1087.079, 498.4981
1087.561, 494.4486
1088.043, 486.8258
1088.526, 484.1818
1089.008, 485.0392
1089.490, 483.3409
1089.972, 477.8713
1090.454, 475.4284
1090.936, 477.8400
1091.418, 475.7493
1091.900, 465.0363
1092.382, 455.7453
1092.865, 454.9838
1093.347, 460.1223
1093.829, 467.1832
1094.311, 475.7713
1094.793, 479.3221
1095.275, 477.9846
1095.757, 480.6464
1096.239, 488.5890
1096.721, 493.5143
1097.204, 491.4351
1097.686, 484.7137
1098.168, 475.0485
1098.650, 464.1762
1099.132, 455.1877
1099.614, 448.7835
1100.096, 447.9742
1100.578, 451.9716
1101.061, 457.5999
1101.543, 463.5105
1102.025, 467.6147
1102.507, 467.6192
1102.989, 467.9610
1103.471, 476.2536
1103.953, 485.6754
1104.435, 486.7159
1104.917, 482.5359
1105.400, 477.7132
1105.882, 474.2158
1106.364, 475.7221
1106.846, 484.6191
1107.328, 491.2194
1107.810, 490.2310
1108.292, 485.1628
1108.774, 474.0393
1109.256, 463.5362
1109.739, 460.6628
1110.221, 463.0560
1110.703, 465.0100
1111.185, 465.6335
1111.667, 467.3708
1112.149, 473.1627
1112.631, 476.4017
1113.113, 472.8566
1113.596, 470.0127
1114.078, 473.8681
1114.560, 478.4385
1115.042, 475.4578
1115.524, 467.1164
1116.006, 466.9738
1116.488, 481.9109
1116.970, 483.5471
1117.453, 465.3286
1117.935, 452.5437
1118.417, 452.4907
1118.899, 458.2707
1119.381, 466.3118
1119.863, 473.5798
1120.345, 473.1611
1120.827, 466.0331
1121.309, 464.0619
1121.792, 467.0332
1122.274, 470.1240
1122.756, 472.5098
1123.238, 471.8242
1123.720, 467.0504
1124.202, 462.3001
1124.684, 461.5150
1125.166, 463.9487
1125.648, 470.7338
1126.131, 478.5596
1126.613, 478.7728
1127.095, 473.5581
1127.577, 469.9148
1128.059, 469.4921
1128.541, 471.2709
1129.023, 475.4402
1129.505, 477.7079
1129.988, 471.9549
1130.470, 465.8456
1130.952, 466.1630
1131.434, 469.6549
1131.916, 473.2089
1132.398, 476.0849
1132.880, 478.3010
1133.362, 479.9466
1133.844, 478.0794
1134.327, 467.2643
1134.809, 459.5555
1135.291, 460.2148
1135.773, 462.2418
1136.255, 459.6809
1136.737, 458.1109
1137.219, 466.4542
1137.701, 481.9801
1138.183, 489.8755
1138.666, 488.5051
1139.148, 483.8163
1139.630, 473.7861
1140.112, 466.9645
1140.594, 465.8018
1141.076, 467.2024
1141.558, 469.5965
1142.040, 471.8027
1142.523, 471.8136
1143.005, 469.8506
1143.487, 467.1776
1143.969, 463.7542
1144.451, 457.4803
1144.933, 449.3117
1145.415, 449.4403
1145.897, 460.8881
1146.380, 472.1151
1146.862, 473.8641
1147.344, 470.7081
1147.826, 467.9010
1148.308, 464.6060
1148.790, 456.7416
1149.272, 448.8561
1149.754, 451.6287
1150.236, 462.7802
1150.719, 469.1194
1151.201, 465.6903
1151.683, 462.8696
1152.165, 468.5485
1152.647, 472.4276
1153.129, 467.0109
1153.611, 460.5617
1154.093, 460.6354
1154.575, 463.0129
1155.058, 459.2475
1155.540, 449.8198
1156.022, 447.8951
1156.504, 461.0096
1156.986, 466.0580
1157.468, 458.9279
1157.950, 452.4482
1158.432, 450.4016
1158.915, 448.9591
1159.397, 445.0757
1159.879, 440.6758
1160.361, 439.0959
1160.843, 440.2972
1161.325, 444.7555
1161.807, 452.1957
1162.289, 458.0889
1162.771, 461.8729
1163.254, 462.8526
1163.736, 460.9974
1164.218, 459.9962
1164.700, 463.5351
1165.182, 466.9377
1165.664, 462.6183
1166.146, 455.1810
1166.628, 450.6399
1167.110, 448.6165
1167.593, 448.1580
1168.075, 448.9111
1168.557, 451.4232
1169.039, 456.0217
1169.521, 456.9895
1170.003, 446.5549
1170.485, 439.2315
1170.967, 442.9893
1171.450, 449.4491
1171.932, 455.2818
1172.414, 459.2740
1172.896, 458.6500
1173.378, 454.8232
1173.860, 455.3737
1174.342, 462.8372
1174.824, 465.6230
1175.307, 462.1097
1175.789, 458.7324
1176.271, 456.1941
1176.753, 457.2754
1177.235, 464.5482
1177.717, 471.4449
1178.199, 468.5572
1178.681, 459.0140
1179.163, 451.0253
1179.646, 445.5461
1180.128, 449.7790
1180.610, 460.7059
1181.092, 463.6540
1181.574, 456.3091
1182.056, 448.4042
1182.538, 445.0738
1183.020, 444.1319
1183.502, 443.3922
1183.984, 444.5522
1184.467, 452.4989
1184.949, 460.1807
1185.431, 459.4586
1185.913, 452.9414
1186.395, 444.9081
1186.877, 436.5689
1187.359, 433.6104
1187.841, 442.7981
1188.324, 446.8222
1188.806, 440.9279
1189.288, 434.9962
1189.770, 429.4739
1190.252, 428.8055
1190.734, 438.5829
1191.216, 451.0840
1191.698, 451.0486
1192.181, 440.6113
1192.663, 439.7559
1193.145, 447.8736
1193.627, 449.6415
1194.109, 444.4498
1194.591, 442.9883
1195.073, 448.1394
1195.555, 452.8029
1196.037, 452.2362
1196.520, 448.4752
1197.002, 439.5039
1197.484, 432.7983
1197.966, 441.9637
1198.448, 456.0282
1198.930, 460.5063
1199.412, 456.4639
1199.894, 447.9767
1200.376, 436.7508
1200.859, 432.1046
1201.341, 443.1749
1201.823, 449.4154
1202.305, 440.5076
1202.787, 435.0842
1203.269, 442.3721
1203.751, 451.3640
1204.233, 454.6589
1204.716, 453.7736
1205.198, 451.1080
1205.680, 446.8594
1206.162, 443.7558
1206.644, 441.7908
1207.126, 441.2327
1207.608, 442.0253
1208.090, 442.7785
1208.573, 443.0508
1209.055, 442.9699
1209.537, 442.5933
1210.019, 442.1331
1210.501, 442.8468
1210.983, 442.6769
1211.465, 437.6410
1211.947, 431.0874
1212.429, 425.8206
1212.911, 423.6209
1213.394, 429.6182
1213.876, 442.9639
1214.358, 448.8347
1214.840, 437.8220
1215.322, 430.5503
1215.804, 432.8087
1216.286, 436.0548
1216.768, 439.2150
1217.251, 440.6867
1217.733, 438.3479
1218.215, 435.6212
1218.697, 438.7954
1219.179, 445.9143
1219.661, 442.8777
1220.143, 430.7723
1220.625, 430.3269
1221.108, 440.9500
1221.590, 447.6003
1222.072, 446.6958
1222.554, 441.8703
1223.036, 434.8861
1223.518, 428.9525
1224.000, 427.7712
1224.482, 428.2959
1224.964, 428.2069
1225.447, 427.8265
1225.929, 427.4138
1226.411, 427.0001
1226.893, 425.6258
1227.375, 424.0520
1227.857, 427.2143
1228.339, 440.8156
1228.821, 442.0651
1229.303, 420.3575
1229.786, 408.0208
1230.268, 411.8523
1230.750, 421.4104
1231.232, 433.3544
1231.714, 442.9919
1232.196, 445.1494
1232.678, 441.9992
1233.160, 436.9156
1233.643, 431.4165
1234.125, 432.4984
1234.607, 437.7183
1235.089, 439.3033
1235.571, 436.9489
1236.053, 433.9712
1236.535, 431.6846
1237.017, 431.5580
1237.500, 436.1018
1237.982, 439.7013
1238.464, 440.3518
1238.946, 438.1775
1239.428, 430.2194
1239.910, 422.1855
1240.392, 420.2439
1240.874, 421.6192
1241.356, 420.5350
1241.839, 417.2246
1242.321, 420.3478
1242.803, 431.5708
1243.285, 435.7110
1243.767, 431.5887
1244.249, 427.2117
1244.731, 424.8474
1245.213, 424.7044
1245.695, 427.0284
1246.178, 429.3785
1246.660, 427.3594
1247.142, 425.6497
1247.624, 433.3756
1248.106, 442.2921
1248.588, 442.0292
1249.070, 435.5686
1249.552, 426.6491
1250.035, 417.6195
1250.517, 414.6881
1250.999, 420.7825
1251.481, 425.0717
1251.963, 427.2880
1252.445, 425.8678
1252.927, 417.9258
1253.409, 412.9178
1253.891, 414.7318
1254.374, 421.4771
1254.856, 432.9712
1255.338, 443.0613
1255.820, 434.2727
1256.302, 415.3179
1256.784, 419.0879
1257.266, 435.2271
1257.748, 435.5595
1258.230, 422.8001
1258.713, 414.2882
1259.195, 413.7934
1259.677, 413.8130
1260.159, 411.1426
1260.641, 408.7409
1261.123, 404.7777
1261.605, 405.4798
1262.087, 421.3684
1262.570, 432.6136
1263.052, 422.9013
##END=



