##NAMES=Laueite
##RRUFFID=R060013
##IDEAL CHEMISTRY=Mn^2+^Fe^3+^_2_(PO_4_)_2_(OH)_2_&#183;8H_2_O
##LOCALITY=Hagendorf, Germany
##OWNER=RRUFF
##SOURCE=University of Arizona Mineral Museum
##DESCRIPTION=Orange prismatic crystals associated with what appears to be accicular ferristrunzite
##STATUS=The identification of this mineral is confirmed by single-crystal X-ray diffraction and chemical analysis.
##URL=rruff.info/R060013
##MEASURED CHEMISTRY=(Mn^2+^_0.54_Fe^2+^_0.35_Mg_0.11_)_Σ=1_Fe^3+^_2.00_(P_1.00_O_4_)_2_(OH)_2_·8H_2_O
112.6909, 90.97337
113.1730, 91.20924
113.6551, 91.88864
114.1373, 93.91342
114.6194, 95.92744
115.1015, 96.85287
115.5836, 94.99874
116.0657, 93.30293
116.5478, 92.86697
117.0300, 93.82511
117.5121, 94.85583
117.9942, 95.62374
118.4763, 96.15993
118.9584, 96.50330
119.4405, 96.00790
119.9227, 95.77597
120.4048, 96.71240
120.8869, 99.19596
121.3690, 101.5977
121.8511, 102.5926
122.3332, 102.7617
122.8154, 103.3281
123.2975, 105.7158
123.7796, 108.4673
124.2617, 109.8982
124.7438, 109.1493
125.2259, 108.2458
125.7081, 109.1433
126.1902, 111.5326
126.6723, 113.8186
127.1544, 115.7750
127.6365, 117.6649
128.1186, 119.2367
128.6008, 120.4221
129.0829, 121.2837
129.5650, 122.0159
130.0471, 122.6056
130.5292, 122.6770
131.0113, 121.8106
131.4935, 120.1384
131.9756, 118.1434
132.4577, 115.8226
132.9398, 113.3241
133.4219, 111.1573
133.9040, 109.3265
134.3862, 107.6425
134.8683, 105.8270
135.3504, 103.8755
135.8325, 102.3052
136.3146, 101.3691
136.7967, 101.0062
137.2789, 100.5837
137.7610, 100.0694
138.2431, 99.55987
138.7252, 99.16984
139.2073, 98.89991
139.6894, 98.73257
140.1716, 98.66685
140.6537, 98.70859
141.1358, 98.80843
141.6179, 98.97256
142.1000, 99.19022
142.5821, 99.43309
143.0643, 99.68880
143.5464, 99.99972
144.0285, 100.3107
144.5106, 100.3577
144.9927, 101.1548
145.4748, 103.1858
145.9570, 105.8729
146.4391, 107.3912
146.9212, 106.9486
147.4033, 106.3229
147.8854, 106.3484
148.3675, 107.5484
148.8497, 108.5770
149.3318, 109.3536
149.8139, 109.9095
150.2960, 110.3868
150.7781, 110.3185
151.2602, 110.5055
151.7424, 111.3787
152.2245, 114.0416
152.7066, 116.1242
153.1887, 117.1287
153.6708, 117.1588
154.1529, 117.6322
154.6351, 119.2018
155.1172, 120.9173
155.5993, 122.1419
156.0814, 122.3504
156.5635, 122.5462
157.0456, 122.7450
157.5278, 122.9534
158.0099, 123.7392
158.4920, 125.7736
158.9741, 128.1921
159.4562, 130.2333
159.9383, 131.6367
160.4205, 132.7187
160.9026, 133.6154
161.3847, 134.3462
161.8668, 134.7146
162.3489, 134.2429
162.8310, 133.4952
163.3132, 133.1282
163.7953, 133.7499
164.2774, 134.5060
164.7595, 135.0020
165.2416, 135.2005
165.7237, 135.1752
166.2059, 134.7566
166.6880, 134.1668
167.1701, 133.7444
167.6522, 133.8979
168.1343, 134.1007
168.6164, 133.8024
169.0985, 132.7554
169.5807, 132.0882
170.0628, 132.8679
170.5449, 134.5630
171.0270, 136.1324
171.5091, 137.0596
171.9912, 137.6195
172.4734, 138.0715
172.9555, 138.4628
173.4376, 138.7181
173.9197, 138.7298
174.4018, 138.5489
174.8839, 138.3086
175.3661, 138.1114
175.8482, 137.8926
176.3303, 137.5526
176.8124, 137.0411
177.2945, 136.4835
177.7766, 135.9508
178.2588, 135.4596
178.7409, 135.1063
179.2230, 134.8513
179.7051, 134.7825
180.1872, 135.1017
180.6693, 135.9276
181.1515, 136.9975
181.6336, 138.0163
182.1157, 138.9794
182.5978, 139.8488
183.0799, 140.5395
183.5620, 141.1199
184.0442, 141.7716
184.5263, 142.5643
185.0084, 143.4059
185.4905, 144.2215
185.9726, 145.0017
186.4547, 145.6078
186.9369, 145.9586
187.4190, 146.0564
187.9011, 145.8464
188.3832, 145.1780
188.8653, 144.3264
189.3474, 144.0446
189.8296, 144.3573
190.3117, 144.5310
190.7938, 143.6607
191.2759, 141.9247
191.7580, 140.7639
192.2401, 140.6521
192.7223, 141.2321
193.2044, 141.4673
193.6865, 141.3329
194.1686, 141.0606
194.6507, 140.8404
195.1328, 140.6685
195.6150, 140.4893
196.0971, 140.2573
196.5792, 140.0134
197.0613, 139.8691
197.5434, 139.7905
198.0255, 139.9600
198.5077, 140.7207
198.9898, 142.1089
199.4719, 143.2072
199.9540, 143.7042
200.4361, 143.7269
200.9182, 144.0195
201.4004, 144.6574
201.8825, 145.3347
202.3646, 145.7967
202.8467, 146.0504
203.3288, 146.0249
203.8109, 145.7346
204.2931, 145.1638
204.7752, 144.0672
205.2573, 142.2909
205.7394, 140.3600
206.2215, 138.8560
206.7036, 137.8860
207.1858, 136.8542
207.6679, 135.6400
208.1500, 134.2449
208.6321, 132.6137
209.1142, 130.5868
209.5963, 128.6214
210.0785, 127.2410
210.5606, 126.5726
211.0427, 126.0550
211.5248, 125.5805
212.0069, 125.1486
212.4890, 124.7063
212.9712, 124.2208
213.4533, 123.7755
213.9354, 123.5093
214.4175, 123.5196
214.8996, 123.3865
215.3817, 122.8738
215.8639, 121.9826
216.3460, 121.7132
216.8281, 122.2510
217.3102, 123.1647
217.7923, 124.0393
218.2744, 124.9933
218.7565, 125.5942
219.2387, 125.5545
219.7208, 124.8448
220.2029, 124.8043
220.6850, 125.7068
221.1671, 126.9530
221.6492, 127.8706
222.1314, 128.3498
222.6135, 128.7717
223.0956, 129.2158
223.5777, 129.6922
224.0598, 130.0746
224.5419, 130.2792
225.0241, 130.4866
225.5062, 130.9285
225.9883, 131.7681
226.4704, 132.4899
226.9525, 132.9542
227.4346, 133.1576
227.9168, 133.3246
228.3989, 133.4157
228.8810, 133.5123
229.3631, 133.7074
229.8452, 134.0693
230.3273, 134.3958
230.8095, 134.6116
231.2916, 134.7078
231.7737, 134.9880
232.2558, 135.6469
232.7379, 136.2893
233.2200, 136.4426
233.7022, 135.7000
234.1843, 135.2651
234.6664, 135.3876
235.1485, 136.0692
235.6306, 137.0042
236.1127, 138.3249
236.5949, 139.7758
237.0770, 141.0896
237.5591, 142.0514
238.0412, 143.2985
238.5233, 145.0598
239.0054, 147.3425
239.4876, 149.2519
239.9697, 150.4833
240.4518, 151.6894
240.9339, 153.4662
241.4160, 156.0545
241.8981, 158.7214
242.3803, 161.2601
242.8624, 163.6984
243.3445, 166.6361
243.8266, 170.5513
244.3087, 174.4525
244.7908, 177.4273
245.2730, 178.8079
245.7551, 180.6234
246.2372, 183.3888
246.7193, 186.9933
247.2014, 189.8869
247.6835, 191.6282
248.1657, 193.1553
248.6478, 195.1593
249.1299, 197.8710
249.6120, 200.5834
250.0941, 203.2347
250.5762, 205.8229
251.0584, 208.4102
251.5405, 211.2855
252.0226, 213.7475
252.5047, 215.0852
252.9868, 214.4400
253.4689, 214.7072
253.9511, 216.2218
254.4332, 218.9063
254.9153, 222.4077
255.3974, 227.3445
255.8795, 232.1464
256.3616, 235.6543
256.8438, 237.2548
257.3259, 239.2884
257.8080, 242.2528
258.2901, 245.7502
258.7722, 248.3573
259.2543, 250.0407
259.7365, 250.8868
260.2186, 250.9847
260.7007, 250.3883
261.1828, 248.8774
261.6649, 246.4305
262.1470, 243.0615
262.6292, 238.5815
263.1113, 232.6155
263.5934, 226.3397
264.0755, 220.3149
264.5576, 214.4873
265.0397, 208.9103
265.5219, 203.5153
266.0040, 198.3859
266.4861, 193.6104
266.9682, 189.3333
267.4503, 185.1422
267.9324, 180.8995
268.4146, 176.4539
268.8967, 172.3553
269.3788, 168.5632
269.8609, 165.1618
270.3430, 162.4482
270.8251, 160.5531
271.3073, 158.9229
271.7894, 157.3972
272.2715, 155.9759
272.7536, 154.6784
273.2357, 153.6257
273.7178, 152.5338
274.2000, 150.8379
274.6821, 148.3786
275.1642, 146.0527
275.6463, 144.1677
276.1284, 142.7233
276.6105, 141.5337
277.0927, 140.7203
277.5748, 139.8978
278.0569, 138.4501
278.5390, 136.2824
279.0211, 134.3360
279.5032, 132.9880
279.9854, 132.1737
280.4675, 131.1226
280.9496, 129.7390
281.4317, 128.4431
281.9138, 127.8586
282.3959, 128.0249
282.8781, 127.8332
283.3602, 126.8447
283.8423, 125.2963
284.3244, 124.2596
284.8065, 123.7798
285.2886, 123.4820
285.7708, 123.0183
286.2529, 122.4014
286.7350, 121.8955
287.2171, 121.5811
287.6992, 121.3920
288.1813, 121.0985
288.6635, 120.6847
289.1456, 120.4073
289.6277, 120.4793
290.1098, 120.8750
290.5919, 121.4493
291.0740, 122.2466
291.5562, 123.1156
292.0383, 123.7528
292.5204, 124.1695
293.0025, 124.4897
293.4846, 124.7716
293.9667, 125.0236
294.4489, 125.2299
294.9310, 125.3317
295.4131, 125.5350
295.8952, 126.3407
296.3773, 127.6332
296.8594, 128.6835
297.3416, 128.9407
297.8237, 128.6837
298.3058, 128.4764
298.7879, 128.3275
299.2700, 128.3837
299.7521, 129.0154
300.2343, 130.0446
300.7164, 130.8707
301.1985, 131.2508
301.6806, 131.2422
302.1627, 130.8606
302.6448, 130.0862
303.1270, 129.1766
303.6091, 128.1074
304.0912, 127.0809
304.5733, 126.4682
305.0554, 126.8934
305.5375, 127.5607
306.0197, 127.4560
306.5018, 126.6239
306.9839, 125.8409
307.4660, 125.8723
307.9481, 126.2747
308.4302, 126.4115
308.9124, 125.8895
309.3945, 125.2243
309.8766, 124.7785
310.3587, 124.5381
310.8408, 124.4512
311.3229, 124.5984
311.8051, 124.8350
312.2872, 125.0057
312.7693, 125.0339
313.2514, 125.0609
313.7335, 125.1913
314.2156, 125.3912
314.6978, 125.5629
315.1799, 125.5819
315.6620, 125.6050
316.1441, 125.7257
316.6262, 125.9351
317.1083, 126.3061
317.5905, 126.9585
318.0726, 127.7793
318.5547, 128.5833
319.0368, 129.3619
319.5189, 130.0571
320.0010, 130.6305
320.4832, 131.0761
320.9653, 131.4348
321.4474, 131.5027
321.9295, 131.5618
322.4116, 131.9424
322.8937, 133.0372
323.3759, 134.1558
323.8580, 135.0302
324.3401, 135.6234
324.8222, 136.4572
325.3043, 137.6504
325.7864, 139.0901
326.2686, 140.6891
326.7507, 143.0216
327.2328, 144.8691
327.7149, 145.8308
328.1970, 145.9947
328.6791, 146.4429
329.1613, 146.9926
329.6434, 147.9716
330.1255, 149.5958
330.6076, 153.1611
331.0897, 155.4694
331.5718, 155.8002
332.0540, 154.8537
332.5361, 154.6438
333.0182, 155.5318
333.5003, 156.6794
333.9824, 157.7095
334.4645, 158.4342
334.9467, 159.7085
335.4288, 161.9244
335.9109, 164.4049
336.3930, 165.9615
336.8751, 166.3186
337.3572, 166.4250
337.8394, 166.5334
338.3215, 166.6448
338.8036, 166.7627
339.2857, 166.9958
339.7678, 167.0452
340.2499, 166.5141
340.7320, 165.3243
341.2141, 164.0669
341.6963, 162.8474
342.1784, 161.6729
342.6605, 160.6043
343.1426, 159.6546
343.6247, 158.7874
344.1068, 157.9752
344.5890, 157.2282
345.0711, 156.6350
345.5532, 156.3337
346.0353, 156.0237
346.5174, 155.0255
346.9995, 153.3380
347.4817, 151.4662
347.9638, 149.5336
348.4459, 147.6366
348.9280, 146.2209
349.4101, 145.4082
349.8922, 144.7164
350.3744, 143.3930
350.8565, 141.6292
351.3386, 140.1387
351.8207, 139.6027
352.3028, 139.4553
352.7849, 138.6194
353.2671, 137.0651
353.7492, 135.5826
354.2313, 135.1027
354.7134, 135.1341
355.1955, 134.8017
355.6776, 133.6718
356.1598, 132.1941
356.6419, 130.6107
357.1240, 128.9711
357.6061, 127.5385
358.0882, 126.6829
358.5703, 126.0117
359.0525, 125.0984
359.5346, 123.6389
360.0167, 122.3491
360.4988, 121.8361
360.9809, 121.8090
361.4630, 121.6367
361.9452, 120.8244
362.4273, 119.9659
362.9094, 119.3698
363.3915, 119.0777
363.8736, 119.0103
364.3557, 119.5040
364.8379, 120.0879
365.3200, 120.2080
365.8021, 119.2816
366.2842, 118.3254
366.7663, 117.6503
367.2484, 117.2652
367.7306, 116.8544
368.2127, 116.2079
368.6948, 115.6360
369.1769, 115.3411
369.6590, 116.0189
370.1411, 116.1232
370.6233, 115.3612
371.1054, 113.9407
371.5875, 112.6207
372.0696, 111.3085
372.5517, 110.2280
373.0338, 109.5315
373.5160, 109.4681
373.9981, 109.0404
374.4802, 108.0579
374.9623, 106.8573
375.4444, 106.0138
375.9265, 105.6455
376.4087, 105.2840
376.8908, 104.7965
377.3729, 104.1847
377.8550, 103.5696
378.3371, 102.9796
378.8192, 102.3234
379.3014, 101.4155
379.7835, 100.2233
380.2656, 99.37846
380.7477, 99.11467
381.2298, 99.16614
381.7119, 98.81587
382.1941, 98.05820
382.6762, 97.28670
383.1583, 96.75183
383.6404, 96.42020
384.1225, 96.21741
384.6046, 96.16689
385.0868, 96.12999
385.5689, 95.87415
386.0510, 95.46411
386.5331, 95.13924
387.0152, 95.11367
387.4973, 95.19685
387.9795, 95.13600
388.4616, 94.92805
388.9437, 94.59378
389.4258, 93.81997
389.9079, 93.01305
390.3900, 92.81278
390.8722, 93.91360
391.3543, 95.08546
391.8364, 95.20956
392.3185, 94.58360
392.8006, 94.31279
393.2827, 95.53207
393.7649, 96.91101
394.2470, 97.35658
394.7291, 96.21389
395.2112, 95.48324
395.6933, 96.30363
396.1754, 97.87879
396.6576, 99.01783
397.1397, 98.81965
397.6218, 98.72327
398.1039, 99.33401
398.5860, 100.7636
399.0681, 101.8288
399.5503, 102.2042
400.0324, 102.3008
400.5145, 102.4176
400.9966, 102.5569
401.4787, 102.7301
401.9608, 103.0802
402.4430, 103.4810
402.9251, 103.3517
403.4072, 102.1267
403.8893, 101.2357
404.3714, 101.5516
404.8535, 103.6388
405.3357, 104.5094
405.8178, 103.8314
406.2999, 102.3696
406.7820, 101.0726
407.2641, 99.89043
407.7462, 99.19253
408.2284, 99.30275
408.7105, 99.99055
409.1926, 100.0282
409.6747, 99.34875
410.1568, 98.51665
410.6389, 97.96514
411.1211, 97.67318
411.6032, 97.54153
412.0853, 97.64406
412.5674, 97.71822
413.0495, 97.31113
413.5316, 96.48959
414.0138, 95.60957
414.4959, 94.75113
414.9780, 93.98772
415.4601, 93.45296
415.9422, 93.15345
416.4243, 93.00014
416.9065, 93.16747
417.3886, 93.37679
417.8707, 93.19692
418.3528, 91.88899
418.8349, 90.70862
419.3170, 90.56274
419.7992, 91.27635
420.2813, 92.02171
420.7634, 92.58797
421.2455, 92.96804
421.7276, 93.15498
422.2097, 93.13632
422.6919, 92.95821
423.1740, 92.37491
423.6561, 91.69679
424.1382, 91.38673
424.6203, 92.00358
425.1024, 92.51399
425.5846, 92.59063
426.0667, 92.19884
426.5488, 91.97742
427.0309, 91.75849
427.5130, 91.85636
427.9951, 92.60770
428.4773, 94.70678
428.9594, 95.87137
429.4415, 95.51367
429.9236, 94.33077
430.4057, 94.29176
430.8878, 95.89553
431.3700, 97.09474
431.8521, 96.67981
432.3342, 94.65183
432.8163, 93.81943
433.2984, 94.42275
433.7805, 95.38795
434.2627, 95.34769
434.7448, 94.42843
435.2269, 93.94131
435.7090, 94.38123
436.1911, 95.27534
436.6732, 95.57957
437.1554, 95.37671
437.6375, 95.33267
438.1196, 96.10155
438.6017, 97.25657
439.0838, 98.06333
439.5659, 98.38630
440.0480, 98.65137
440.5302, 99.19746
441.0123, 99.93906
441.4944, 100.7331
441.9765, 101.6987
442.4586, 102.5515
442.9407, 103.0715
443.4229, 103.2851
443.9050, 103.4637
444.3871, 103.5543
444.8692, 103.7523
445.3513, 104.1853
445.8334, 104.9019
446.3156, 105.8082
446.7977, 107.2295
447.2798, 108.7725
447.7619, 109.7289
448.2440, 109.3111
448.7261, 109.0989
449.2083, 109.4549
449.6904, 110.4017
450.1725, 111.4766
450.6546, 112.7702
451.1367, 114.0633
451.6188, 115.1725
452.1010, 116.0463
452.5831, 116.9206
453.0652, 117.7971
453.5473, 118.7201
454.0294, 119.8531
454.5115, 121.2308
454.9937, 122.5773
455.4758, 123.7916
455.9579, 124.8790
456.4400, 125.8078
456.9221, 126.5521
457.4042, 127.4479
457.8864, 128.9914
458.3685, 130.9683
458.8506, 132.7977
459.3327, 134.2805
459.8148, 135.6186
460.2969, 137.0342
460.7791, 138.5105
461.2612, 139.9483
461.7433, 141.3321
462.2254, 142.6352
462.7075, 143.7713
463.1896, 144.7285
463.6718, 145.7310
464.1539, 147.2264
464.6360, 148.6797
465.1181, 149.5302
465.6002, 148.9807
466.0823, 148.5229
466.5645, 148.6483
467.0466, 149.1936
467.5287, 149.5242
468.0108, 149.4961
468.4929, 149.3043
468.9750, 149.0950
469.4572, 149.0514
469.9393, 148.2720
470.4214, 146.3843
470.9035, 144.1023
471.3856, 142.2078
471.8677, 140.8248
472.3499, 139.4461
472.8320, 138.0293
473.3141, 136.5127
473.7962, 134.5485
474.2783, 132.0598
474.7604, 129.6879
475.2426, 127.8691
475.7247, 126.5151
476.2068, 125.1640
476.6889, 123.7984
477.1710, 122.4000
477.6531, 120.8427
478.1353, 119.2268
478.6174, 117.8531
479.0995, 116.9981
479.5816, 116.2176
480.0637, 114.9755
480.5458, 113.3694
481.0280, 111.7836
481.5101, 110.2293
481.9922, 108.9055
482.4743, 108.0353
482.9564, 107.6902
483.4385, 107.4727
483.9207, 107.5456
484.4028, 107.5338
484.8849, 107.0406
485.3670, 105.5089
485.8491, 104.0280
486.3312, 102.5794
486.8134, 101.2831
487.2955, 100.7011
487.7776, 101.4582
488.2597, 102.1964
488.7418, 102.3474
489.2239, 101.7628
489.7061, 101.3364
490.1882, 101.1790
490.6703, 101.0157
491.1524, 100.4334
491.6345, 99.33382
492.1166, 98.54466
492.5988, 98.24045
493.0809, 98.30709
493.5630, 98.54679
494.0451, 98.95330
494.5272, 99.30431
495.0093, 99.35355
495.4915, 99.27104
495.9736, 99.51479
496.4557, 100.1222
496.9378, 100.7130
497.4199, 100.8351
497.9020, 100.7468
498.3842, 100.8461
498.8663, 101.3329
499.3484, 101.9270
499.8305, 102.5419
500.3126, 103.1342
500.7947, 103.5903
501.2769, 103.7328
501.7590, 103.8539
502.2411, 104.0567
502.7232, 104.3402
503.2053, 104.7911
503.6874, 105.6003
504.1696, 106.4637
504.6517, 107.1458
505.1338, 107.5128
505.6159, 107.9146
506.0980, 108.2903
506.5801, 108.7423
507.0623, 109.5677
507.5444, 110.9194
508.0265, 112.1875
508.5086, 113.1587
508.9907, 113.8573
509.4728, 114.3906
509.9550, 114.7137
510.4371, 115.2009
510.9192, 116.4333
511.4013, 118.1555
511.8834, 119.2726
512.3655, 119.4870
512.8477, 119.5263
513.3298, 120.2534
513.8119, 121.4686
514.2940, 122.6948
514.7761, 123.7937
515.2582, 124.7617
515.7404, 125.5459
516.2225, 126.1750
516.7046, 126.8467
517.1867, 127.8187
517.6688, 128.7453
518.1509, 129.3884
518.6331, 129.6239
519.1152, 129.7976
519.5973, 130.0618
520.0794, 130.2460
520.5615, 130.1249
521.0436, 129.3935
521.5258, 128.8227
522.0079, 128.5452
522.4900, 128.5202
522.9721, 128.6058
523.4542, 128.8861
523.9363, 129.0248
524.4185, 128.8346
524.9006, 128.3153
525.3827, 127.6421
525.8648, 126.7840
526.3469, 125.9221
526.8290, 125.3959
527.3112, 125.0674
527.7933, 124.3709
528.2754, 123.0727
528.7575, 121.5288
529.2396, 119.9987
529.7217, 118.5311
530.2039, 117.2953
530.6860, 116.6882
531.1681, 116.0959
531.6502, 114.9502
532.1323, 113.2342
532.6144, 111.6650
533.0966, 110.3074
533.5787, 109.3202
534.0608, 108.8545
534.5429, 109.6462
535.0250, 109.7987
535.5071, 108.5871
535.9893, 106.8703
536.4714, 105.9711
536.9535, 106.5165
537.4356, 106.6463
537.9177, 105.7878
538.3998, 104.1509
538.8820, 103.0969
539.3641, 102.7179
539.8462, 102.5474
540.3283, 102.2292
540.8104, 101.8336
541.2925, 101.9896
541.7747, 102.8032
542.2568, 103.6337
542.7389, 103.7286
543.2210, 103.3135
543.7031, 102.9057
544.1852, 102.6192
544.6674, 102.4428
545.1495, 102.3657
545.6316, 102.3942
546.1137, 102.5440
546.5958, 103.0605
547.0779, 103.4979
547.5601, 103.6239
548.0422, 103.4220
548.5243, 103.0497
549.0064, 102.1954
549.4885, 101.4269
549.9706, 101.1187
550.4528, 101.6426
550.9349, 101.9105
551.4170, 101.7764
551.8991, 101.5042
552.3812, 101.5252
552.8633, 101.9447
553.3455, 102.2233
553.8276, 102.2166
554.3097, 101.9886
554.7918, 101.7312
555.2739, 101.4495
555.7560, 101.1193
556.2382, 100.7976
556.7203, 100.4062
557.2024, 99.67966
557.6845, 98.59606
558.1666, 97.56684
558.6487, 96.83733
559.1309, 96.40641
559.6130, 96.37261
560.0951, 97.14005
560.5772, 97.55336
561.0593, 96.62737
561.5414, 95.03576
562.0236, 93.98238
562.5057, 94.22482
562.9878, 94.53748
563.4699, 94.69883
563.9520, 94.69078
564.4341, 94.28716
564.9163, 93.15417
565.3984, 92.09276
565.8805, 91.50937
566.3626, 91.47952
566.8447, 91.46994
567.3268, 91.48851
567.8090, 91.50417
568.2911, 91.55214
568.7732, 91.60487
569.2553, 91.33001
569.7374, 90.48006
570.2195, 89.64433
570.7017, 89.84443
571.1838, 90.77829
571.6659, 91.48345
572.1480, 91.37579
572.6301, 90.92772
573.1122, 90.43238
573.5944, 89.91264
574.0765, 89.51196
574.5586, 89.38232
575.0407, 89.32549
575.5228, 89.25048
576.0049, 89.21403
576.4871, 88.96255
576.9692, 88.19863
577.4513, 87.38696
577.9334, 86.95670
578.4155, 87.03142
578.8976, 87.23093
579.3798, 87.56719
579.8619, 87.96049
580.3440, 88.25779
580.8261, 88.47100
581.3082, 88.43642
581.7903, 87.96278
582.2725, 87.22328
582.7546, 86.68125
583.2367, 86.33512
583.7188, 86.19442
584.2009, 86.41911
584.6830, 86.79233
585.1652, 87.11800
585.6473, 87.41923
586.1294, 87.32988
586.6115, 86.21430
587.0936, 84.78019
587.5757, 83.78629
588.0578, 83.85450
588.5399, 83.86854
589.0220, 83.59266
589.5042, 83.12789
589.9863, 82.72600
590.4684, 82.53743
590.9505, 82.16667
591.4326, 81.44721
591.9147, 80.43217
592.3969, 79.57948
592.8790, 78.89357
593.3611, 78.35316
593.8432, 78.02697
594.3253, 77.86446
594.8074, 77.52552
595.2896, 76.98314
595.7717, 76.41173
596.2538, 76.07838
596.7359, 75.81921
597.2180, 75.29405
597.7001, 74.28472
598.1823, 73.30708
598.6644, 72.58678
599.1465, 72.15575
599.6286, 72.06879
600.1107, 72.93552
600.5928, 73.53703
601.0750, 73.31100
601.5571, 72.36855
602.0392, 71.75136
602.5213, 71.56577
603.0034, 71.57268
603.4855, 71.73096
603.9677, 72.06234
604.4498, 72.26284
604.9319, 72.35075
605.4140, 72.25245
605.8961, 71.68123
606.3782, 70.76367
606.8604, 70.52106
607.3425, 71.20538
607.8246, 72.05264
608.3067, 72.00423
608.7888, 71.43411
609.2709, 71.16425
609.7531, 71.82442
610.2352, 72.48595
610.7173, 72.42667
611.1994, 71.88021
611.6815, 71.48463
612.1636, 71.53285
612.6458, 71.68155
613.1279, 71.88632
613.6100, 72.14617
614.0921, 72.11422
614.5742, 71.53209
615.0563, 70.99946
615.5385, 70.86953
616.0206, 71.21687
616.5027, 71.56004
616.9848, 71.93029
617.4669, 72.20332
617.9490, 72.19666
618.4312, 71.94981
618.9133, 71.64748
619.3954, 71.30134
619.8775, 70.97160
620.3596, 70.63819
620.8417, 70.37631
621.3239, 70.35590
621.8060, 70.87113
622.2881, 71.43935
622.7702, 71.88317
623.2523, 72.17187
623.7344, 72.19656
624.2166, 71.43404
624.6987, 70.87041
625.1808, 71.00798
625.6629, 71.91326
626.1450, 72.48500
626.6271, 72.64304
627.1093, 72.60356
627.5914, 72.51928
628.0735, 72.39772
628.5556, 72.06637
629.0377, 71.46530
629.5198, 70.85996
630.0020, 70.50707
630.4841, 70.39985
630.9662, 70.56621
631.4483, 71.14538
631.9304, 71.71790
632.4125, 71.91148
632.8947, 71.79613
633.3768, 71.51578
633.8589, 70.87955
634.3410, 70.34264
634.8231, 70.16051
635.3052, 70.27478
635.7874, 70.31721
636.2695, 70.22604
636.7516, 70.07397
637.2337, 69.80761
637.7158, 69.40229
638.1979, 69.46842
638.6801, 70.17630
639.1622, 70.86374
639.6443, 70.91486
640.1264, 70.41442
640.6085, 70.14391
641.0906, 70.18881
641.5728, 70.30844
642.0549, 70.32521
642.5370, 70.22104
643.0191, 69.92671
643.5012, 69.27958
643.9833, 68.72947
644.4655, 68.69447
644.9476, 68.92214
645.4297, 68.98103
645.9118, 68.50942
646.3939, 68.12635
646.8760, 67.91793
647.3582, 67.90813
647.8403, 68.29637
648.3224, 69.47421
648.8045, 70.26296
649.2866, 70.04292
649.7687, 68.97055
650.2509, 68.70554
650.7330, 69.33334
651.2151, 69.83353
651.6972, 69.12602
652.1793, 67.76617
652.6614, 67.19878
653.1436, 67.55814
653.6257, 68.00986
654.1078, 67.68241
654.5899, 67.19858
655.0720, 67.34293
655.5541, 68.86098
656.0363, 69.81644
656.5184, 69.12313
657.0005, 67.71648
657.4826, 66.80794
657.9647, 66.64896
658.4468, 66.65263
658.9290, 66.81664
659.4111, 67.06534
659.8932, 67.21762
660.3753, 67.26689
660.8574, 67.26196
661.3395, 67.17129
661.8217, 67.06862
662.3038, 67.19216
662.7859, 67.50566
663.2680, 67.76283
663.7501, 67.86974
664.2322, 67.80610
664.7144, 67.38876
665.1965, 66.63885
665.6786, 66.22872
666.1607, 66.77373
666.6428, 67.50802
667.1249, 67.96690
667.6071, 68.04572
668.0892, 67.98827
668.5713, 67.72005
669.0534, 67.39842
669.5355, 67.14884
670.0176, 66.96595
670.4998, 66.88875
670.9819, 66.92735
671.4640, 67.05647
671.9461, 67.35753
672.4282, 67.74095
672.9103, 67.85690
673.3925, 67.50118
673.8746, 67.00185
674.3567, 66.58987
674.8388, 66.29140
675.3209, 66.16872
675.8030, 66.28868
676.2852, 66.54837
676.7673, 67.02235
677.2494, 67.64775
677.7315, 68.04100
678.2136, 68.05794
678.6957, 68.03957
679.1779, 68.13956
679.6600, 68.34354
680.1421, 68.24727
680.6242, 67.79855
681.1063, 67.35214
681.5884, 67.23680
682.0706, 67.31810
682.5527, 67.10715
683.0348, 66.56857
683.5169, 66.05723
683.9990, 65.79913
684.4811, 65.74191
684.9633, 65.84980
685.4454, 66.16634
685.9275, 66.48593
686.4096, 66.83790
686.8917, 67.11291
687.3738, 67.18806
687.8560, 67.01736
688.3381, 66.69137
688.8202, 65.98954
689.3023, 65.33592
689.7844, 65.62583
690.2665, 66.95802
690.7487, 67.86018
691.2308, 67.82970
691.7129, 67.34943
692.1950, 67.20751
692.6771, 67.34040
693.1592, 67.51456
693.6414, 67.72578
694.1235, 67.84226
694.6056, 67.65954
695.0877, 67.26427
695.5698, 67.01421
696.0519, 67.30064
696.5341, 67.48412
697.0162, 67.19183
697.4983, 66.43652
697.9804, 66.07908
698.4625, 66.19994
698.9446, 66.55971
699.4268, 67.20515
699.9089, 68.09804
700.3910, 68.17071
700.8731, 67.35134
701.3552, 66.62466
701.8373, 67.17303
702.3195, 68.30726
702.8016, 68.76212
703.2837, 68.28804
703.7658, 67.74611
704.2479, 67.75565
704.7300, 67.90462
705.2122, 67.78450
705.6943, 66.99433
706.1764, 66.47349
706.6585, 66.38519
707.1406, 66.52034
707.6227, 66.64178
708.1049, 66.74052
708.5870, 66.87826
709.0691, 67.09599
709.5512, 67.29667
710.0333, 67.29202
710.5154, 67.10739
710.9976, 66.86644
711.4797, 66.53239
711.9618, 66.26968
712.4439, 66.32868
712.9260, 66.59496
713.4081, 66.79326
713.8903, 66.73815
714.3724, 66.67139
714.8545, 66.68663
715.3366, 66.77558
715.8187, 66.84749
716.3008, 66.82260
716.7830, 66.93192
717.2651, 67.34914
717.7472, 67.99944
718.2293, 68.19511
718.7114, 67.91149
719.1935, 67.59130
719.6757, 67.63374
720.1578, 67.79561
720.6399, 67.47051
721.1220, 66.68491
721.6041, 66.12476
722.0862, 66.54750
722.5684, 67.15851
723.0505, 67.29932
723.5326, 66.73961
724.0147, 66.47237
724.4968, 66.94769
724.9789, 67.49286
725.4611, 67.65995
725.9432, 67.29271
726.4253, 67.17879
726.9074, 67.38130
727.3895, 67.66615
727.8716, 67.80141
728.3538, 67.80798
728.8359, 67.75652
729.3180, 67.65529
729.8001, 67.51677
730.2822, 67.16609
730.7643, 66.84953
731.2465, 66.92622
731.7286, 67.83147
732.2107, 68.61485
732.6928, 69.01891
733.1749, 69.14034
733.6570, 69.12666
734.1392, 68.91594
734.6213, 68.70545
735.1034, 68.52836
735.5855, 68.35416
736.0676, 68.04472
736.5497, 67.62218
737.0319, 67.46947
737.5140, 67.89422
737.9961, 68.39917
738.4782, 68.26147
738.9603, 67.67221
739.4424, 67.12257
739.9246, 66.61337
740.4067, 66.41393
740.8888, 66.86525
741.3709, 67.79330
741.8530, 68.39938
742.3351, 68.61870
742.8173, 68.54458
743.2994, 68.07877
743.7815, 67.33839
744.2636, 67.02431
744.7457, 67.16821
745.2278, 67.29411
745.7100, 67.02599
746.1921, 66.59721
746.6742, 66.48641
747.1563, 66.65692
747.6384, 66.85082
748.1205, 67.04313
748.6027, 67.10581
749.0848, 66.84871
749.5669, 66.24825
750.0490, 65.89668
750.5311, 65.97394
751.0132, 66.19323
751.4954, 66.46886
751.9775, 66.81509
752.4596, 67.02243
752.9417, 67.09013
753.4238, 67.03066
753.9059, 66.86478
754.3881, 66.58045
754.8702, 65.99647
755.3523, 65.09502
755.8344, 64.49563
756.3165, 64.91037
756.7986, 65.68475
757.2808, 66.25565
757.7629, 66.51722
758.2450, 66.67802
758.7271, 66.65161
759.2092, 66.63809
759.6913, 66.83406
760.1735, 67.38113
760.6556, 67.44772
761.1377, 66.87155
761.6198, 66.26459
762.1019, 66.50100
762.5840, 67.27505
763.0662, 67.48717
763.5483, 66.83852
764.0304, 66.25921
764.5125, 66.78397
764.9946, 67.70514
765.4767, 68.18919
765.9589, 67.75447
766.4410, 67.40118
766.9231, 67.42944
767.4052, 67.53575
767.8873, 67.33265
768.3694, 66.63512
768.8516, 66.44318
769.3337, 67.01772
769.8158, 67.77328
770.2979, 67.76141
770.7800, 67.17990
771.2621, 66.75399
771.7443, 66.72334
772.2264, 66.77904
772.7085, 66.60450
773.1906, 66.36195
773.6727, 66.29342
774.1548, 66.74808
774.6370, 67.03153
775.1191, 66.83340
775.6012, 66.49026
776.0833, 66.55875
776.5654, 67.14293
777.0475, 67.75472
777.5297, 68.40234
778.0118, 68.86579
778.4939, 68.63512
778.9760, 67.85239
779.4581, 67.01713
779.9402, 66.13234
780.4224, 65.53098
780.9045, 65.61633
781.3866, 66.15968
781.8687, 66.73416
782.3508, 67.46056
782.8329, 67.90127
783.3151, 67.80280
783.7972, 67.43967
784.2793, 67.49592
784.7614, 68.09121
785.2435, 68.41658
785.7256, 68.13587
786.2077, 67.61704
786.6898, 67.61791
787.1719, 68.03428
787.6541, 68.48064
788.1362, 69.00835
788.6183, 69.30095
789.1004, 68.93501
789.5825, 68.16911
790.0646, 67.65894
790.5468, 67.49644
791.0289, 67.71046
791.5110, 68.59904
791.9931, 69.78020
792.4752, 69.91418
792.9573, 68.88078
793.4395, 67.86855
793.9216, 67.22605
794.4037, 66.91313
794.8858, 67.02068
795.3679, 67.41470
795.8500, 67.66703
796.3322, 67.18600
796.8143, 66.87836
797.2964, 67.59913
797.7785, 68.96462
798.2606, 69.54025
798.7427, 68.59191
799.2249, 67.75163
799.7070, 67.35092
800.1891, 67.33992
800.6712, 67.68832
801.1533, 68.40268
801.6354, 68.89378
802.1176, 68.80276
802.5997, 68.45870
803.0818, 68.27087
803.5639, 68.23136
804.0460, 68.31531
804.5281, 68.66723
805.0103, 68.97977
805.4924, 69.11460
805.9745, 69.09302
806.4566, 69.04585
806.9387, 68.94091
807.4208, 68.88222
807.9030, 68.90639
808.3851, 68.99061
808.8672, 69.07066
809.3493, 69.14742
809.8314, 69.23789
810.3135, 69.47385
810.7957, 69.61227
811.2778, 69.26848
811.7599, 68.61263
812.2420, 68.12234
812.7241, 67.98872
813.2062, 68.02624
813.6884, 68.29651
814.1705, 68.68811
814.6526, 68.80617
815.1347, 68.55383
815.6168, 68.45217
816.0989, 68.75251
816.5811, 69.20426
817.0632, 69.22250
817.5453, 68.88680
818.0274, 68.52257
818.5095, 68.11418
818.9916, 67.89496
819.4738, 68.25627
819.9559, 68.93327
820.4380, 69.21491
820.9201, 68.58987
821.4022, 68.01335
821.8843, 67.56728
822.3665, 67.31747
822.8486, 67.56577
823.3307, 68.32910
823.8128, 68.94400
824.2949, 69.12791
824.7770, 69.14165
825.2592, 69.47511
825.7413, 69.94320
826.2234, 70.11915
826.7055, 69.43659
827.1876, 68.85304
827.6697, 68.84199
828.1519, 69.17102
828.6340, 69.29243
829.1161, 69.15018
829.5982, 68.90481
830.0803, 68.53287
830.5624, 68.14626
831.0446, 67.97005
831.5267, 67.97940
832.0088, 68.03575
832.4909, 68.08918
832.9730, 68.18516
833.4551, 68.43043
833.9373, 68.72971
834.4194, 68.92828
834.9015, 68.92921
835.3836, 68.89336
835.8657, 68.77740
836.3478, 68.68119
836.8300, 68.79021
837.3121, 69.13113
837.7942, 69.39966
838.2763, 69.53935
838.7584, 69.60876
839.2405, 69.80688
839.7227, 69.97569
840.2048, 69.74954
840.6869, 68.81672
841.1690, 67.93639
841.6511, 67.22600
842.1332, 66.87369
842.6154, 67.17519
843.0975, 68.68405
843.5796, 69.56734
844.0617, 69.59859
844.5438, 69.27884
845.0259, 69.18712
845.5081, 69.27715
845.9902, 69.30949
846.4723, 69.23575
846.9544, 69.18568
847.4365, 69.41624
847.9186, 69.65755
848.4008, 69.52446
848.8829, 68.60136
849.3650, 68.31236
849.8471, 69.45409
850.3292, 70.63834
850.8113, 70.76765
851.2935, 69.72048
851.7756, 68.76699
852.2577, 67.91512
852.7398, 67.37563
853.2219, 67.58713
853.7040, 68.13213
854.1862, 68.30354
854.6683, 68.00399
855.1504, 67.76616
855.6325, 67.77615
856.1146, 67.98027
856.5967, 68.41023
857.0789, 69.10744
857.5610, 69.56622
858.0431, 69.73898
858.5252, 69.80204
859.0073, 69.87888
859.4894, 69.93690
859.9716, 69.79198
860.4537, 69.47021
860.9358, 69.26210
861.4179, 69.47245
861.9000, 69.76287
862.3821, 69.88186
862.8643, 69.82779
863.3464, 69.86430
863.8285, 70.18552
864.3106, 70.29051
864.7927, 69.83899
865.2748, 69.06049
865.7570, 69.20744
866.2391, 70.21804
866.7212, 71.00473
867.2033, 70.76157
867.6854, 70.21362
868.1675, 70.06523
868.6497, 70.24552
869.1318, 70.55685
869.6139, 71.33205
870.0960, 71.74238
870.5781, 71.46420
871.0602, 70.75252
871.5424, 70.15321
872.0245, 69.63908
872.5066, 69.57900
872.9887, 70.27987
873.4708, 71.06893
873.9529, 70.71858
874.4351, 69.69551
874.9172, 69.02006
875.3993, 69.14555
875.8814, 69.49580
876.3635, 70.07087
876.8456, 70.65353
877.3278, 70.93179
877.8099, 70.77596
878.2920, 70.75162
878.7741, 70.98452
879.2562, 71.16540
879.7383, 70.68502
880.2205, 69.84333
880.7026, 69.58646
881.1847, 70.19186
881.6668, 70.74177
882.1489, 70.41640
882.6310, 69.88448
883.1132, 69.79321
883.5953, 70.46886
884.0774, 70.77531
884.5595, 70.60065
885.0416, 70.26313
885.5237, 69.92444
886.0059, 69.61262
886.4880, 69.57339
886.9701, 69.80703
887.4522, 70.04126
887.9343, 70.08493
888.4164, 70.03635
888.8986, 69.88804
889.3807, 69.65002
889.8628, 69.73327
890.3449, 70.49121
890.8270, 71.13676
891.3091, 71.33924
891.7913, 71.19152
892.2734, 71.15514
892.7555, 71.22836
893.2376, 71.36316
893.7197, 71.64835
894.2018, 71.88789
894.6840, 71.80068
895.1661, 71.49979
895.6482, 71.30183
896.1303, 71.29439
896.6124, 71.42068
897.0945, 71.72737
897.5767, 72.11881
898.0588, 72.42699
898.5409, 72.66093
899.0230, 72.61549
899.5051, 72.13866
899.9872, 71.64863
900.4694, 71.66202
900.9515, 72.02494
901.4336, 72.49839
901.9157, 73.12095
902.3978, 73.63748
902.8799, 74.12235
903.3621, 74.35728
903.8442, 73.99574
904.3263, 72.82008
904.8084, 72.49257
905.2905, 73.22514
905.7726, 74.00407
906.2548, 73.63459
906.7369, 72.74697
907.2190, 72.32813
907.7011, 72.48676
908.1832, 72.97255
908.6653, 74.15341
909.1475, 75.18957
909.6296, 75.58472
910.1117, 75.35168
910.5938, 75.16544
911.0759, 75.03957
911.5580, 74.89358
912.0402, 74.63894
912.5223, 74.35744
913.0044, 74.12318
913.4865, 73.98843
913.9686, 74.16244
914.4507, 75.15403
914.9329, 76.03905
915.4150, 76.35612
915.8971, 76.28517
916.3792, 76.31394
916.8613, 76.53377
917.3434, 76.40697
917.8256, 75.65125
918.3077, 74.84644
918.7898, 75.03455
919.2719, 75.90285
919.7540, 76.76318
920.2361, 77.55025
920.7183, 77.97581
921.2004, 77.62569
921.6825, 77.01463
922.1646, 76.66942
922.6467, 76.67091
923.1288, 76.70116
923.6110, 76.73134
924.0931, 76.88453
924.5752, 77.50529
925.0573, 78.27786
925.5394, 78.35503
926.0215, 77.69263
926.5037, 77.13010
926.9858, 77.18211
927.4679, 77.42641
927.9500, 77.72224
928.4321, 78.03794
928.9142, 77.91927
929.3964, 77.19058
929.8785, 76.68850
930.3606, 76.83696
930.8427, 77.40060
931.3248, 77.97329
931.8069, 78.51624
932.2891, 78.90250
932.7712, 78.96449
933.2533, 78.98308
933.7354, 79.09472
934.2175, 79.23392
934.6996, 79.22895
935.1818, 78.93703
935.6639, 79.05204
936.1460, 79.76277
936.6281, 80.62660
937.1102, 81.03069
937.5923, 81.15268
938.0745, 81.31865
938.5566, 81.56023
939.0387, 82.03727
939.5208, 83.26547
940.0029, 84.41158
940.4850, 84.86563
940.9672, 84.58697
941.4493, 83.73792
941.9314, 82.07192
942.4135, 81.02653
942.8956, 82.07948
943.3777, 84.23073
943.8599, 85.57192
944.3420, 86.19077
944.8241, 86.72541
945.3062, 87.39226
945.7883, 88.11802
946.2704, 88.98264
946.7526, 89.87108
947.2347, 90.37772
947.7168, 90.40088
948.1989, 90.75182
948.6810, 91.71191
949.1631, 92.92369
949.6453, 93.88577
950.1274, 94.72300
950.6095, 95.66615
951.0916, 96.87517
951.5737, 97.99153
952.0558, 98.79984
952.5380, 99.55054
953.0201, 100.3805
953.5022, 101.2492
953.9843, 102.5411
954.4664, 104.2717
954.9485, 106.2074
955.4307, 108.4644
955.9128, 110.6294
956.3949, 111.9776
956.8770, 112.5659
957.3591, 113.4401
957.8412, 114.9354
958.3234, 116.8073
958.8055, 118.9571
959.2876, 121.4385
959.7697, 124.6325
960.2518, 128.5343
960.7339, 132.1436
961.2161, 134.9026
961.6982, 137.6464
962.1803, 141.2472
962.6624, 145.4775
963.1445, 150.0386
963.6266, 155.0147
964.1088, 160.0793
964.5909, 165.0960
965.0730, 170.3945
965.5551, 176.4168
966.0372, 183.0411
966.5193, 189.2980
967.0015, 195.0585
967.4836, 201.1811
967.9657, 208.3549
968.4478, 216.0827
968.9299, 223.9314
969.4120, 231.8695
969.8942, 239.9417
970.3763, 248.1477
970.8584, 256.6189
971.3405, 265.5926
971.8226, 274.7985
972.3047, 283.6470
972.7869, 292.2462
973.2690, 301.2192
973.7511, 311.3907
974.2332, 321.1361
974.7153, 329.4469
975.1974, 336.8789
975.6796, 344.4392
976.1617, 352.3593
976.6438, 359.9074
977.1259, 367.1430
977.6080, 373.4007
978.0901, 377.9683
978.5723, 380.9233
979.0544, 382.3375
979.5365, 382.2114
980.0186, 381.0604
980.5007, 379.6411
980.9828, 376.7128
981.4650, 371.5749
981.9471, 364.4305
982.4291, 356.1615
982.9113, 346.7071
983.3934, 336.8472
983.8755, 327.0087
984.3576, 316.7215
984.8397, 304.8712
985.3218, 292.0314
985.8040, 279.4810
986.2861, 267.6581
986.7682, 256.0992
987.2503, 244.6304
987.7324, 233.4319
988.2145, 222.5994
988.6967, 212.1371
989.1788, 203.1259
989.6609, 195.6191
990.1430, 189.1474
990.6251, 183.6299
991.1072, 178.6452
991.5894, 173.8015
992.0715, 169.1323
992.5536, 164.9572
993.0357, 161.4690
993.5178, 158.0222
993.9999, 154.3053
994.4821, 150.6556
994.9642, 147.9637
995.4463, 146.0946
995.9284, 144.5290
996.4105, 143.2678
996.8926, 141.9561
997.3748, 140.4091
997.8569, 138.7114
998.3390, 136.8808
998.8211, 134.7110
999.3032, 133.2660
999.7853, 132.7234
1000.267, 132.1623
1000.750, 130.5716
1001.232, 128.5830
1001.714, 127.0976
1002.196, 126.1729
1002.678, 125.7112
1003.160, 126.1287
1003.642, 126.5063
1004.124, 126.5470
1004.607, 126.3657
1005.089, 126.2266
1005.571, 126.1339
1006.053, 126.2520
1006.535, 126.7167
1007.017, 127.1316
1007.499, 126.9983
1007.981, 126.6670
1008.463, 126.5699
1008.946, 126.9632
1009.428, 127.1355
1009.910, 127.1101
1010.392, 126.7992
1010.874, 126.0643
1011.356, 125.0008
1011.838, 123.9460
1012.320, 122.9086
1012.802, 121.8912
1013.285, 121.1258
1013.767, 120.1510
1014.249, 118.5998
1014.731, 116.7170
1015.213, 115.0473
1015.695, 113.6154
1016.177, 112.2199
1016.659, 110.7931
1017.142, 109.5449
1017.624, 108.8878
1018.106, 108.5194
1018.588, 108.0078
1019.070, 107.2633
1019.552, 106.5031
1020.034, 105.7431
1020.516, 105.0131
1020.998, 104.3395
1021.481, 103.7037
1021.963, 102.9656
1022.445, 102.1579
1022.927, 101.5326
1023.409, 101.2455
1023.891, 101.1456
1024.373, 101.4444
1024.855, 101.7661
1025.338, 101.3600
1025.820, 99.72147
1026.302, 98.79470
1026.784, 98.79607
1027.266, 99.17953
1027.748, 99.54061
1028.230, 99.81885
1028.712, 99.80640
1029.194, 99.51553
1029.677, 99.42656
1030.159, 100.0691
1030.641, 100.5714
1031.123, 100.6239
1031.605, 100.3096
1032.087, 99.72319
1032.569, 98.90929
1033.051, 98.67306
1033.534, 99.44538
1034.016, 100.4227
1034.498, 101.0486
1034.980, 101.3829
1035.462, 101.4427
1035.944, 101.0442
1036.426, 100.9868
1036.908, 101.4528
1037.391, 101.7576
1037.873, 101.1594
1038.355, 100.1047
1038.837, 99.85274
1039.319, 100.2374
1039.801, 100.4985
1040.283, 100.0279
1040.765, 99.67518
1041.247, 99.70131
1041.729, 100.0082
1042.212, 100.4975
1042.694, 101.1699
1043.176, 101.9334
1043.658, 102.8424
1044.140, 103.3767
1044.622, 102.6773
1045.104, 101.6521
1045.586, 101.1990
1046.069, 101.4484
1046.551, 101.6779
1047.033, 101.8384
1047.515, 102.0258
1047.997, 102.3051
1048.479, 102.6026
1048.961, 102.6354
1049.443, 102.5602
1049.926, 102.8092
1050.408, 103.8317
1050.890, 104.6631
1051.372, 104.7734
1051.854, 104.7062
1052.336, 104.9855
1052.818, 105.6617
1053.300, 105.5286
1053.782, 104.5701
1054.265, 103.8046
1054.747, 103.9811
1055.229, 104.6449
1055.711, 105.7367
1056.193, 107.0182
1056.675, 107.6659
1057.157, 107.4861
1057.639, 107.0368
1058.121, 106.2689
1058.604, 105.5995
1059.086, 105.7072
1059.568, 106.3093
1060.050, 106.9035
1060.532, 107.4249
1061.014, 107.7758
1061.496, 107.7881
1061.978, 107.7536
1062.461, 107.8299
1062.943, 107.9594
1063.425, 107.8385
1063.907, 107.4868
1064.389, 107.0791
1064.871, 106.5716
1065.353, 106.2312
1065.835, 106.3815
1066.318, 106.7621
1066.800, 107.0381
1067.282, 107.1560
1067.764, 107.3351
1068.246, 107.6307
1068.728, 107.7165
1069.210, 106.9275
1069.692, 105.9975
1070.174, 106.2778
1070.656, 107.5017
1071.139, 108.5543
1071.621, 108.8496
1072.103, 109.2263
1072.585, 109.7757
1073.067, 110.5241
1073.549, 111.7287
1074.031, 113.1975
1074.513, 114.0517
1074.996, 114.1285
1075.478, 114.3504
1075.960, 115.4182
1076.442, 116.7114
1076.924, 117.8183
1077.406, 118.7968
1077.888, 119.9146
1078.370, 121.1607
1078.853, 122.7501
1079.335, 124.8196
1079.817, 127.0804
1080.299, 129.1911
1080.781, 131.3381
1081.263, 133.8051
1081.745, 137.0145
1082.227, 139.4844
1082.709, 140.7850
1083.192, 142.4259
1083.674, 145.7659
1084.156, 150.0420
1084.638, 153.2903
1085.120, 155.7604
1085.602, 158.3961
1086.084, 161.5119
1086.566, 165.0154
1087.048, 169.1634
1087.531, 173.3931
1088.013, 176.9328
1088.495, 179.8749
1088.977, 183.2192
1089.459, 187.0486
1089.941, 190.6728
1090.423, 193.6117
1090.905, 196.1704
1091.387, 198.3251
1091.870, 200.2590
1092.352, 202.7608
1092.834, 206.0334
1093.316, 208.4134
1093.798, 209.3282
1094.280, 209.9401
1094.762, 212.1189
1095.244, 214.5345
1095.727, 215.3842
1096.209, 214.0939
1096.691, 213.0842
1097.173, 212.6889
1097.655, 212.2416
1098.137, 211.6843
1098.619, 210.6581
1099.101, 207.9923
1099.583, 204.1945
1100.066, 200.4588
1100.548, 197.4506
1101.030, 194.0833
1101.512, 189.9418
1101.994, 185.5269
1102.476, 181.2045
1102.958, 176.9886
1103.440, 172.3876
1103.922, 167.4805
1104.405, 162.9504
1104.887, 159.6891
1105.369, 156.3559
1105.851, 151.7046
1106.333, 146.5867
1106.815, 142.7475
1107.297, 140.3793
1107.779, 137.9013
1108.262, 135.1303
1108.744, 132.3320
1109.226, 129.5874
1109.708, 127.0198
1110.190, 124.7750
1110.672, 122.8416
1111.154, 120.8780
1111.636, 118.8627
1112.119, 116.7975
1112.601, 114.6023
1113.083, 112.5050
1113.565, 110.8205
1114.047, 109.4448
1114.529, 108.2349
1115.011, 107.1687
1115.493, 106.1063
1115.975, 104.8398
1116.458, 103.8705
1116.940, 103.6347
1117.422, 103.7105
1117.904, 102.3993
1118.386, 100.1706
1118.868, 98.60331
1119.350, 98.58749
1119.832, 98.71529
1120.314, 98.49609
1120.797, 98.09981
1121.279, 97.67592
1121.761, 97.22123
1122.243, 96.37782
1122.725, 95.18128
1123.207, 94.18492
1123.689, 93.86117
1124.171, 93.70011
1124.654, 93.41397
1125.136, 93.05231
1125.618, 92.73464
1126.100, 92.49790
1126.582, 92.06824
1127.064, 91.40406
1127.546, 90.78014
1128.028, 90.52173
1128.510, 90.35748
1128.993, 90.01546
1129.475, 89.51143
1129.957, 88.94847
1130.439, 88.21270
1130.921, 87.77438
1131.403, 87.74619
1131.885, 87.93395
1132.367, 88.37898
1132.849, 88.73592
1133.332, 88.31252
1133.814, 87.01351
1134.296, 86.04174
1134.778, 85.84935
1135.260, 85.67228
1135.742, 85.25983
1136.224, 85.06809
1136.706, 84.51934
1137.189, 84.43703
1137.671, 84.21626
1138.153, 83.73388
1138.635, 83.33340
1139.117, 83.14458
1139.599, 83.09449
1140.081, 83.25806
1140.563, 83.51988
1141.046, 83.25938
1141.528, 82.56455
1142.010, 81.83617
1142.492, 81.00066
1142.974, 80.61153
1143.456, 81.57571
1143.938, 82.64748
1144.420, 82.60770
1144.902, 81.39533
1145.385, 80.66675
1145.867, 80.41560
1146.349, 80.49302
1146.831, 81.21743
1147.313, 81.82093
1147.795, 81.72624
1148.277, 81.15201
1148.759, 80.41446
1149.241, 79.37967
1149.724, 79.09459
1150.206, 79.67741
1150.688, 80.14664
1151.170, 79.39664
1151.652, 78.39732
1152.134, 78.09599
1152.616, 78.33304
1153.098, 78.34119
1153.581, 77.87627
1154.063, 77.95156
1154.545, 78.81586
1155.027, 79.72714
1155.509, 79.85522
1155.991, 79.52790
1156.473, 79.01225
1156.955, 78.36675
1157.438, 78.04500
1157.920, 78.23876
1158.402, 78.33825
1158.884, 78.15766
1159.366, 77.92787
1159.848, 78.07603
1160.330, 78.38371
1160.812, 78.46784
1161.294, 78.24968
1161.776, 77.99773
1162.259, 77.63881
1162.741, 77.49281
1163.223, 77.77000
1163.705, 78.20573
1164.187, 78.14170
1164.669, 77.77527
1165.151, 77.58876
1165.633, 77.76450
1166.116, 77.90292
1166.598, 77.89169
1167.080, 77.82828
1167.562, 77.78310
1168.044, 77.71105
1168.526, 77.35169
1169.008, 76.81270
1169.490, 76.46463
1169.973, 76.44141
1170.455, 76.63024
1170.937, 77.19357
1171.419, 77.76103
1171.901, 78.09750
1172.383, 78.21570
1172.865, 78.19341
1173.347, 78.04964
1173.829, 77.88859
1174.312, 77.81352
1174.794, 77.67006
1175.276, 77.30965
1175.758, 76.91130
1176.240, 76.56824
1176.722, 76.29183
1177.204, 76.61448
1177.686, 77.47652
1178.168, 78.06180
1178.651, 77.56193
1179.133, 76.97452
1179.615, 76.78115
1180.097, 76.83835
1180.579, 76.96640
1181.061, 77.16511
1181.543, 77.35205
1182.025, 77.52237
1182.508, 77.57800
1182.990, 77.40621
1183.472, 77.13824
1183.954, 76.75232
1184.436, 76.36788
1184.918, 76.32197
1185.400, 76.65130
1185.882, 76.49373
1186.365, 75.69405
1186.847, 74.97106
1187.329, 74.79541
1187.811, 75.03347
1188.293, 75.97227
1188.775, 77.23973
1189.257, 77.38128
1189.739, 76.29892
1190.221, 75.38679
1190.703, 74.88976
1191.186, 74.73231
1191.668, 74.91479
1192.150, 75.34504
1192.632, 76.15798
1193.114, 77.23092
1193.596, 77.54797
1194.078, 77.02664
1194.560, 76.50648
1195.043, 76.17860
1195.525, 76.07356
1196.007, 76.55510
1196.489, 77.04843
1196.971, 76.84533
1197.453, 75.91460
1197.935, 75.38254
1198.417, 75.27611
1198.900, 75.37261
1199.382, 75.67599
1199.864, 75.94645
1200.346, 75.90060
1200.828, 75.70177
1201.310, 75.49723
1201.792, 75.28423
1202.274, 75.31813
1202.756, 75.63109
1203.239, 75.91959
1203.721, 76.08169
1204.203, 76.09917
1204.685, 75.80247
1205.167, 75.41820
1205.649, 75.27414
1206.131, 75.43408
1206.613, 75.58249
1207.095, 75.70682
1207.578, 75.93588
1208.060, 76.44039
1208.542, 76.94991
1209.024, 77.34450
1209.506, 77.47171
1209.988, 76.95287
1210.470, 75.46124
1210.952, 74.69798
1211.435, 74.71422
1211.917, 75.00626
1212.399, 75.40482
1212.881, 75.78101
1213.363, 76.01650
1213.845, 76.13147
1214.327, 76.13828
1214.809, 75.92738
1215.292, 76.13081
1215.774, 76.83701
1216.256, 77.20071
1216.738, 76.19388
1217.220, 74.91025
1217.702, 74.32313
1218.184, 74.26119
1218.666, 74.32279
1219.148, 74.46413
1219.630, 74.80008
1220.113, 75.36194
1220.595, 75.85023
1221.077, 76.02702
1221.559, 76.02399
1222.041, 75.92761
1222.523, 75.74625
1223.005, 75.43987
1223.487, 74.88451
1223.970, 74.89055
1224.452, 75.55512
1224.934, 76.30706
1225.416, 76.94631
1225.898, 77.24356
1226.380, 76.75603
1226.862, 75.79553
1227.344, 75.24007
1227.827, 75.13316
1228.309, 75.25462
1228.791, 75.61093
1229.273, 75.79984
1229.755, 75.22164
1230.237, 74.58677
1230.719, 74.50658
1231.201, 74.81945
1231.683, 74.98061
1232.166, 74.96548
1232.648, 75.11556
1233.130, 75.48161
1233.612, 75.79610
1234.094, 75.84792
1234.576, 75.76235
1235.058, 75.44671
1235.540, 75.11143
1236.022, 75.40115
1236.505, 76.33546
1236.987, 76.60415
1237.469, 76.00255
1237.951, 75.40984
1238.433, 75.62251
1238.915, 75.95337
1239.397, 75.95318
1239.879, 75.74379
1240.362, 75.63243
1240.844, 75.60108
1241.326, 75.23875
1241.808, 74.44563
1242.290, 73.92432
1242.772, 74.43376
1243.254, 75.05594
1243.736, 75.31895
1244.219, 75.33569
1244.701, 75.33083
1245.183, 75.31915
1245.665, 75.42664
1246.147, 75.67858
1246.629, 75.93508
1247.111, 76.20979
1247.593, 76.34771
1248.075, 76.22328
1248.557, 75.99119
1249.040, 76.11073
1249.522, 76.44654
1250.004, 76.36441
1250.486, 75.73026
1250.968, 75.25100
1251.450, 75.27168
1251.932, 75.53317
1252.414, 76.03438
1252.897, 76.60752
1253.379, 76.92384
1253.861, 77.00473
1254.343, 76.81934
1254.825, 76.33407
1255.307, 76.10863
1255.789, 76.71224
1256.271, 76.98714
1256.754, 76.48289
1257.236, 75.64418
1257.718, 75.17105
1258.200, 75.02356
1258.682, 75.20937
1259.164, 75.75781
1259.646, 76.20100
1260.128, 76.50915
1260.610, 76.60876
1261.093, 76.41998
1261.575, 76.14199
1262.057, 76.01533
1262.539, 76.02977
1263.021, 76.26066
1263.503, 76.74090
1263.985, 76.81734
1264.467, 76.31470
1264.949, 75.96475
1265.432, 76.01952
1265.914, 76.20028
1266.396, 76.15583
1266.878, 76.03427
1267.360, 76.00687
1267.842, 76.09378
1268.324, 76.19095
1268.806, 76.31035
1269.289, 76.34179
1269.771, 76.25977
1270.253, 76.05215
1270.735, 75.52559
1271.217, 75.00220
1271.699, 74.79812
1272.181, 74.88589
1272.663, 75.17592
1273.146, 75.66194
1273.628, 76.11012
1274.110, 76.46293
1274.592, 76.75117
1275.074, 77.16328
1275.556, 77.34323
1276.038, 76.95033
1276.520, 76.19535
1277.002, 75.83982
1277.484, 75.85079
1277.967, 76.07049
1278.449, 76.51738
1278.931, 76.82835
1279.413, 76.71391
1279.895, 76.51134
1280.377, 76.33604
1280.859, 76.21452
1281.341, 76.22276
1281.823, 76.34060
1282.306, 76.58428
1282.788, 77.00967
1283.270, 77.08808
1283.752, 76.36193
1284.234, 75.73864
1284.716, 75.49918
1285.198, 75.54305
1285.680, 75.93353
1286.163, 76.37685
1286.645, 76.20370
1287.127, 75.22865
1287.609, 74.87096
1288.091, 75.45338
1288.573, 76.02624
1289.055, 76.31568
1289.537, 76.45280
1290.020, 76.50740
1290.502, 76.57755
1290.984, 76.87645
1291.466, 77.40506
1291.948, 77.44600
1292.430, 76.92503
1292.912, 76.47490
1293.394, 76.28271
1293.876, 76.10764
1294.359, 75.51421
1294.841, 75.01047
1295.323, 75.19219
1295.805, 75.85516
1296.287, 76.28725
1296.769, 76.49229
1297.251, 76.41342
1297.733, 76.00013
1298.215, 75.66906
1298.698, 75.59114
1299.180, 75.82017
1299.662, 76.50183
1300.144, 77.35500
1300.626, 77.80900
1301.108, 77.86345
1301.590, 77.34284
1302.072, 76.18206
##END=



