##NAMES=Laumontite
##RRUFFID=R060114
##IDEAL CHEMISTRY=Ca(Si_4_Al_2_)O_12_&#183;4H_2_O
##LOCALITY=Pine Creek, Tungsten mine, Bishop, California, USA
##OWNER=RRUFF
##SOURCE=University of Arizona Mineral Museum
##DESCRIPTION=White colored elongated prismatic single-crystals
##STATUS=The identification of this mineral has been confirmed by X-ray diffraction and chemical analysis
##URL=rruff.info/R060114
##MEASURED CHEMISTRY=Ca_1.00_(Si_4.00_Al_2.00_)O_12_Â·4H_2_O
92.02539, 254.6871
92.50751, 267.9904
92.98962, 276.1273
93.47174, 270.2353
93.95386, 258.5805
94.43597, 246.9446
94.91809, 238.1160
95.40021, 231.4764
95.88232, 224.1002
96.36444, 215.5685
96.84656, 206.9305
97.32867, 198.3248
97.81078, 189.9773
98.29290, 182.2654
98.77502, 175.4847
99.25713, 169.5558
99.73925, 162.8516
100.2214, 154.3374
100.7035, 146.1408
101.1856, 138.9697
101.6677, 132.9375
102.1498, 128.0006
102.6320, 124.1638
103.1141, 121.7575
103.5962, 119.8233
104.0783, 118.7299
104.5604, 117.9285
105.0425, 116.8720
105.5247, 115.4089
106.0068, 113.5670
106.4889, 111.2452
106.9710, 108.3556
107.4531, 105.5785
107.9352, 103.2587
108.4173, 101.3260
108.8995, 99.37473
109.3816, 97.14259
109.8637, 94.92404
110.3458, 93.01051
110.8279, 91.43559
111.3100, 90.11170
111.7922, 88.91306
112.2743, 87.80022
112.7564, 86.97535
113.2385, 86.71246
113.7206, 86.63355
114.2027, 86.41575
114.6849, 85.90878
115.1670, 85.18954
115.6491, 84.54465
116.1312, 84.14946
116.6133, 83.60720
117.0954, 82.77911
117.5776, 81.77152
118.0597, 80.70738
118.5418, 79.64074
119.0239, 78.56396
119.5060, 77.94272
119.9881, 77.97209
120.4703, 78.16401
120.9524, 78.38551
121.4345, 78.60612
121.9166, 78.82812
122.3987, 79.10770
122.8808, 79.46106
123.3630, 79.37051
123.8451, 78.37532
124.3272, 77.16926
124.8093, 76.51143
125.2914, 76.57920
125.7735, 76.81250
126.2557, 76.40073
126.7378, 75.49952
127.2199, 74.93783
127.7020, 75.33897
128.1841, 76.37697
128.6662, 76.99598
129.1483, 76.89669
129.6305, 76.46178
130.1126, 75.97254
130.5947, 75.44142
131.0768, 74.92842
131.5589, 74.41731
132.0410, 73.87304
132.5232, 73.62377
133.0053, 74.00497
133.4874, 74.49999
133.9695, 74.89249
134.4516, 75.12730
134.9337, 75.23421
135.4159, 75.24410
135.8980, 75.07728
136.3801, 74.96093
136.8622, 74.97258
137.3443, 74.99685
137.8264, 74.92948
138.3086, 74.73198
138.7907, 74.44856
139.2728, 74.20495
139.7549, 74.13803
140.2370, 73.95006
140.7191, 73.57573
141.2013, 73.07326
141.6834, 72.53121
142.1655, 72.00217
142.6476, 71.46067
143.1297, 70.80184
143.6118, 69.93742
144.0939, 69.07762
144.5761, 68.30730
145.0582, 67.61620
145.5403, 66.95663
146.0224, 66.33379
146.5045, 65.70938
146.9866, 64.98270
147.4688, 64.05767
147.9509, 63.10758
148.4330, 62.28590
148.9151, 61.59627
149.3972, 61.00692
149.8793, 60.49214
150.3615, 60.06292
150.8436, 59.77108
151.3257, 59.73106
151.8078, 59.79369
152.2899, 59.61159
152.7720, 59.08919
153.2542, 58.46340
153.7363, 57.77224
154.2184, 57.06902
154.7005, 56.42136
155.1826, 55.86029
155.6647, 55.38980
156.1469, 55.07450
156.6290, 55.22858
157.1111, 55.23016
157.5932, 54.76887
158.0753, 54.01207
158.5574, 53.32367
159.0396, 53.01633
159.5217, 53.13093
160.0038, 53.26762
160.4859, 53.62338
160.9680, 53.82808
161.4501, 53.59724
161.9323, 53.00724
162.4144, 52.41488
162.8965, 52.20758
163.3786, 52.52103
163.8607, 52.64217
164.3428, 52.51295
164.8250, 52.25325
165.3071, 51.91353
165.7892, 51.50889
166.2713, 51.08694
166.7534, 50.66211
167.2355, 50.20727
167.7177, 50.01231
168.1998, 50.45742
168.6819, 51.05832
169.1640, 51.14461
169.6461, 50.51942
170.1282, 49.60034
170.6104, 48.85662
171.0925, 48.26673
171.5746, 47.70020
172.0567, 47.07458
172.5388, 46.43143
173.0209, 45.90380
173.5031, 45.56161
173.9852, 45.28434
174.4673, 44.98474
174.9494, 44.65992
175.4315, 44.26730
175.9136, 43.72252
176.3958, 43.03283
176.8779, 42.45550
177.3600, 42.11549
177.8421, 41.82991
178.3242, 41.49279
178.8063, 41.10083
179.2885, 40.71809
179.7706, 40.43597
180.2527, 40.30056
180.7348, 40.05877
181.2169, 39.54712
181.6990, 39.03469
182.1812, 38.71019
182.6633, 38.58018
183.1454, 38.47826
183.6275, 38.13255
184.1096, 37.29499
184.5917, 36.75227
185.0738, 36.65571
185.5560, 36.69566
186.0381, 36.67871
186.5202, 36.54840
187.0023, 36.35180
187.4844, 36.16236
187.9665, 35.89620
188.4487, 35.79095
188.9308, 35.90374
189.4129, 36.14049
189.8950, 36.50797
190.3771, 36.99973
190.8592, 37.42083
191.3414, 37.33980
191.8235, 36.31845
192.3056, 35.62736
192.7877, 35.58579
193.2698, 35.89843
193.7519, 36.20073
194.2341, 36.37609
194.7162, 36.45321
195.1983, 36.45542
195.6804, 36.34203
196.1625, 36.29944
196.6446, 36.40371
197.1268, 36.61970
197.6089, 36.88752
198.0910, 37.22330
198.5731, 37.54387
199.0552, 37.72303
199.5373, 37.75603
200.0195, 37.72611
200.5016, 37.65664
200.9837, 37.55424
201.4658, 37.45369
201.9479, 37.36573
202.4300, 37.28262
202.9122, 37.23657
203.3943, 37.24189
203.8764, 37.14097
204.3585, 36.72997
204.8406, 36.01077
205.3227, 35.40461
205.8048, 35.00614
206.2870, 34.78053
206.7691, 34.78244
207.2512, 35.01097
207.7333, 35.22803
208.2154, 35.10735
208.6975, 34.55629
209.1797, 34.22022
209.6618, 34.47185
210.1439, 34.79425
210.6260, 34.90031
211.1081, 34.74487
211.5902, 34.48291
212.0724, 34.32367
212.5545, 34.32977
213.0366, 34.24834
213.5187, 33.92473
214.0008, 33.61222
214.4829, 33.52659
214.9651, 33.68299
215.4472, 33.86966
215.9293, 33.74498
216.4114, 33.05184
216.8935, 32.57976
217.3756, 32.40081
217.8578, 32.34961
218.3399, 32.36506
218.8220, 32.41106
219.3041, 32.42239
219.7862, 32.29442
220.2683, 31.94499
220.7505, 31.60194
221.2326, 31.19831
221.7147, 30.83896
222.1968, 30.65685
222.6789, 30.66518
223.1610, 30.69873
223.6432, 30.49288
224.1253, 29.78186
224.6074, 29.40360
225.0895, 29.65526
225.5716, 30.06958
226.0537, 30.20945
226.5358, 29.97603
227.0180, 29.59464
227.5001, 29.38672
227.9822, 29.44470
228.4643, 29.37972
228.9464, 28.98607
229.4285, 28.54282
229.9107, 28.37964
230.3928, 28.57488
230.8749, 28.91272
231.3570, 29.14585
231.8391, 29.27551
232.3212, 29.31586
232.8034, 29.14449
233.2855, 28.93151
233.7676, 28.94860
234.2497, 29.28061
234.7318, 29.62632
235.2139, 29.55759
235.6961, 29.13366
236.1782, 28.84475
236.6603, 28.88468
237.1424, 29.11179
237.6245, 29.35040
238.1066, 29.61296
238.5888, 29.77316
239.0709, 29.58540
239.5530, 29.16529
240.0351, 28.88755
240.5172, 28.98579
240.9993, 29.28744
241.4815, 29.43461
241.9636, 29.33273
242.4457, 29.27218
242.9278, 29.54523
243.4099, 30.01719
243.8920, 30.41251
244.3742, 30.58360
244.8563, 30.60365
245.3384, 30.64355
245.8205, 30.72775
246.3026, 30.77430
246.7847, 30.76748
247.2668, 30.69484
247.7490, 30.51396
248.2311, 30.13557
248.7132, 29.67174
249.1953, 29.40822
249.6774, 29.43340
250.1595, 29.48892
250.6417, 29.52403
251.1238, 29.50658
251.6059, 29.37189
252.0880, 29.05339
252.5701, 28.64651
253.0522, 28.40189
253.5344, 28.41636
254.0165, 28.40910
254.4986, 28.23242
254.9807, 28.01513
255.4628, 27.91040
255.9449, 27.99652
256.4271, 28.18773
256.9092, 28.27390
257.3913, 28.16547
257.8734, 28.12315
258.3555, 28.29606
258.8376, 28.50195
259.3198, 28.51571
259.8019, 28.24574
260.2840, 27.89731
260.7661, 27.93747
261.2482, 28.67171
261.7303, 29.21683
262.2125, 29.48991
262.6946, 29.56185
263.1767, 29.41902
263.6588, 29.07493
264.1409, 28.68572
264.6230, 28.53786
265.1052, 28.77568
265.5873, 28.98649
266.0694, 29.14441
266.5515, 29.27634
267.0336, 29.42774
267.5157, 29.59716
267.9979, 29.71406
268.4800, 29.64514
268.9621, 29.20609
269.4442, 28.99242
269.9263, 29.08946
270.4084, 29.30085
270.8906, 29.57121
271.3727, 29.85526
271.8548, 30.05258
272.3369, 30.01229
272.8190, 29.59649
273.3011, 29.41236
273.7833, 29.59869
274.2654, 29.85215
274.7475, 30.04490
275.2296, 30.14832
275.7117, 30.15243
276.1938, 30.01987
276.6760, 29.68851
277.1581, 29.62207
277.6402, 29.95071
278.1223, 30.35644
278.6044, 30.73458
279.0865, 31.06573
279.5686, 31.33619
280.0508, 31.51722
280.5329, 31.60273
281.0150, 31.87264
281.4971, 32.53596
281.9792, 33.13387
282.4613, 33.44574
282.9435, 33.55170
283.4256, 33.66940
283.9077, 33.94684
284.3898, 34.35622
284.8719, 34.62948
285.3540, 34.69570
285.8362, 34.73090
286.3183, 34.70592
286.8004, 34.68837
287.2825, 34.81548
287.7646, 35.17254
288.2467, 35.67904
288.7289, 36.05650
289.2110, 36.10371
289.6931, 36.27776
290.1752, 36.75745
290.6573, 37.37648
291.1394, 37.87502
291.6216, 38.14648
292.1037, 38.32571
292.5858, 38.71077
293.0679, 39.48376
293.5500, 40.10658
294.0321, 40.30833
294.5143, 40.42880
294.9964, 40.92418
295.4785, 41.91700
295.9606, 43.03020
296.4427, 43.71920
296.9248, 43.80157
297.4070, 43.98018
297.8891, 44.28612
298.3712, 44.69279
298.8533, 45.21178
299.3354, 45.83307
299.8175, 46.47121
300.2997, 47.03420
300.7818, 47.50459
301.2639, 48.01862
301.7460, 48.48261
302.2281, 49.05608
302.7102, 49.93322
303.1924, 51.07567
303.6745, 52.20407
304.1566, 53.10064
304.6387, 53.77373
305.1208, 54.52819
305.6029, 55.52592
306.0851, 56.44590
306.5672, 57.07891
307.0493, 57.48916
307.5314, 57.88617
308.0135, 58.37801
308.4956, 58.95509
308.9778, 59.57002
309.4599, 60.38923
309.9420, 61.04174
310.4241, 61.38146
310.9062, 61.47403
311.3883, 61.46801
311.8705, 61.44706
312.3526, 61.28680
312.8347, 60.62794
313.3168, 59.20119
313.7989, 57.99186
314.2810, 57.32814
314.7632, 56.94357
315.2453, 56.50908
315.7274, 55.94041
316.2095, 55.26229
316.6916, 54.45396
317.1737, 53.43217
317.6559, 52.66707
318.1380, 52.29105
318.6201, 52.13142
319.1022, 52.07659
319.5843, 52.10052
320.0664, 52.13018
320.5485, 52.07229
321.0306, 51.91956
321.5128, 51.94906
321.9949, 52.17441
322.4770, 52.56185
322.9591, 53.23854
323.4412, 54.11410
323.9233, 54.81914
324.4055, 55.09650
324.8876, 54.98404
325.3697, 54.80336
325.8518, 54.63246
326.3339, 54.32470
326.8160, 53.87966
327.2982, 53.25766
327.7803, 52.33780
328.2624, 51.03311
328.7445, 49.46836
329.2266, 47.96839
329.7087, 46.63270
330.1909, 45.17733
330.6730, 43.34153
331.1551, 41.43447
331.6372, 39.91083
332.1193, 38.90688
332.6014, 38.11737
333.0836, 37.09035
333.5657, 35.69459
334.0478, 34.45636
334.5299, 33.44716
335.0120, 32.57235
335.4941, 31.78129
335.9763, 31.06095
336.4584, 30.35177
336.9405, 29.58055
337.4226, 28.72994
337.9047, 28.11258
338.3868, 27.87033
338.8690, 27.69206
339.3511, 27.40775
339.8332, 27.04652
340.3153, 26.74114
340.7974, 26.58718
341.2795, 26.55015
341.7617, 26.40685
342.2438, 26.01871
342.7259, 25.70430
343.2080, 25.56851
343.6901, 25.54229
344.1722, 25.52391
344.6544, 25.47156
345.1365, 25.40964
345.6186, 25.39008
346.1007, 25.46743
346.5828, 25.50468
347.0649, 25.53389
347.5471, 25.50340
348.0292, 25.34886
348.5113, 25.06752
348.9934, 24.71980
349.4755, 24.36744
349.9576, 23.97749
350.4398, 23.73406
350.9219, 23.74751
351.4040, 23.78258
351.8861, 23.73489
352.3682, 23.60179
352.8503, 23.41037
353.3325, 23.17182
353.8146, 22.89359
354.2967, 22.69088
354.7788, 22.55564
355.2609, 22.50416
355.7430, 22.60312
356.2252, 22.77226
356.7073, 22.91513
357.1894, 22.98644
357.6715, 22.98424
358.1536, 22.89768
358.6357, 22.62986
359.1179, 22.42435
359.5999, 22.31626
360.0821, 22.25164
360.5642, 22.17867
361.0463, 22.09121
361.5284, 22.03246
362.0105, 22.06489
362.4926, 22.22082
362.9748, 22.34391
363.4569, 22.43942
363.9390, 22.50012
364.4211, 22.47662
364.9032, 22.40994
365.3853, 22.40351
365.8675, 22.54738
366.3496, 22.82138
366.8317, 23.03396
367.3138, 23.17976
367.7959, 23.26082
368.2780, 23.09799
368.7602, 22.93574
369.2423, 23.15508
369.7244, 23.93700
370.2065, 24.91671
370.6886, 25.33483
371.1707, 24.94130
371.6529, 24.60409
372.1350, 24.35321
372.6171, 24.25801
373.0992, 24.43554
373.5813, 24.87015
374.0634, 25.35665
374.5456, 25.66447
375.0277, 25.78134
375.5098, 25.98222
375.9919, 26.37648
376.4740, 26.74304
376.9561, 27.01128
377.4383, 27.17659
377.9204, 27.23193
378.4025, 27.15407
378.8846, 26.97503
379.3667, 26.72586
379.8488, 26.27817
380.3310, 26.10184
380.8131, 26.73431
381.2952, 27.57474
381.7773, 27.98116
382.2594, 27.74451
382.7415, 27.27002
383.2237, 27.01668
383.7058, 26.98190
384.1879, 26.81486
384.6700, 26.44876
385.1521, 25.88575
385.6342, 25.04447
386.1164, 23.96026
386.5985, 23.02381
387.0806, 22.53161
387.5627, 22.34267
388.0448, 22.10983
388.5269, 21.78169
389.0091, 21.49593
389.4912, 21.44674
389.9733, 21.51522
390.4554, 21.42393
390.9375, 20.97392
391.4196, 20.47540
391.9018, 20.23384
392.3839, 20.22287
392.8660, 20.19846
393.3481, 20.01586
393.8302, 19.79853
394.3123, 19.81239
394.7945, 20.14625
395.2766, 20.40174
395.7587, 20.38960
396.2408, 20.20579
396.7229, 19.96734
397.2050, 19.68393
397.6872, 19.48164
398.1693, 19.53504
398.6514, 19.87367
399.1335, 20.12186
399.6156, 20.20562
400.0977, 20.24293
400.5798, 20.34152
401.0620, 20.47985
401.5441, 20.54398
402.0262, 20.45776
402.5083, 20.24595
402.9904, 20.03098
403.4725, 19.67837
403.9547, 19.48646
404.4368, 19.62113
404.9189, 19.90596
405.4010, 20.10245
405.8831, 20.13994
406.3652, 20.15499
406.8474, 20.37641
407.3295, 20.98927
407.8116, 21.24350
408.2937, 20.86467
408.7758, 20.41558
409.2579, 20.20731
409.7401, 20.21756
410.2222, 20.26309
410.7043, 20.20942
411.1864, 20.07000
411.6685, 19.96316
412.1506, 19.93231
412.6328, 19.88181
413.1149, 19.82533
413.5970, 19.73042
414.0791, 19.53842
414.5612, 19.23443
415.0433, 18.90310
415.5255, 18.66751
416.0076, 18.52850
416.4897, 18.48122
416.9718, 18.62870
417.4539, 18.78149
417.9360, 18.88614
418.4182, 18.92283
418.9003, 18.85639
419.3824, 18.61521
419.8645, 18.25563
420.3466, 18.02718
420.8287, 17.95905
421.3109, 17.96842
421.7930, 18.12355
422.2751, 18.29109
422.7572, 18.29763
423.2393, 18.07400
423.7214, 17.78817
424.2036, 17.63525
424.6857, 17.60879
425.1678, 17.51358
425.6499, 17.21710
426.1320, 16.95693
426.6141, 17.01536
427.0963, 17.34502
427.5784, 17.57002
428.0605, 17.42538
428.5426, 17.12423
429.0247, 17.01681
429.5068, 17.13156
429.9890, 17.24044
430.4711, 17.17198
430.9532, 16.99755
431.4353, 16.96108
431.9174, 17.21354
432.3995, 17.38064
432.8817, 17.14720
433.3638, 16.70534
433.8459, 16.47911
434.3280, 16.61328
434.8101, 16.91341
435.2922, 17.12897
435.7744, 17.24966
436.2565, 17.30166
436.7386, 17.16886
437.2207, 17.06057
437.7028, 17.19817
438.1849, 17.51887
438.6671, 17.74041
439.1492, 17.65924
439.6313, 17.33612
440.1134, 17.12908
440.5955, 17.04495
441.0776, 17.07329
441.5598, 17.35023
442.0418, 17.67067
442.5240, 17.81029
443.0061, 17.71841
443.4882, 17.52313
443.9703, 17.37632
444.4524, 17.27036
444.9345, 17.24860
445.4167, 17.39714
445.8988, 17.54609
446.3809, 17.65030
446.8630, 17.70808
447.3451, 17.71352
447.8272, 17.64656
448.3094, 17.56491
448.7915, 17.63167
449.2736, 17.90734
449.7557, 18.15819
450.2378, 18.33930
450.7199, 18.46728
451.2021, 18.51492
451.6842, 18.49034
452.1663, 18.50745
452.6484, 18.66035
453.1305, 18.93146
453.6126, 19.27662
454.0948, 19.76605
454.5769, 20.14958
455.0590, 20.13596
455.5411, 19.91360
456.0232, 19.81042
456.5053, 19.95652
456.9875, 20.16132
457.4696, 20.24088
457.9517, 20.23176
458.4338, 20.32866
458.9159, 20.64238
459.3980, 20.99735
459.8802, 21.06562
460.3623, 20.80534
460.8444, 20.72793
461.3265, 21.04449
461.8086, 21.49981
462.2907, 21.88256
462.7729, 22.18051
463.2550, 22.45663
463.7371, 22.75012
464.2192, 23.06083
464.7013, 23.39949
465.1834, 23.95060
465.6656, 24.29464
466.1477, 24.18137
466.6298, 23.92972
467.1119, 23.89065
467.5940, 24.14081
468.0761, 24.51451
468.5583, 24.82806
469.0404, 25.08846
469.5225, 25.25657
470.0046, 25.15562
470.4867, 25.14632
470.9688, 25.48354
471.4510, 25.95567
471.9331, 26.18545
472.4152, 25.97539
472.8973, 25.56445
473.3794, 25.36886
473.8615, 25.38159
474.3437, 25.64495
474.8258, 26.51347
475.3079, 27.35596
475.7900, 27.71159
476.2721, 27.63607
476.7542, 27.56748
477.2364, 27.77728
477.7185, 28.17899
478.2006, 28.60201
478.6827, 29.05382
479.1648, 29.46130
479.6469, 29.71492
480.1291, 29.93672
480.6112, 30.33446
481.0933, 30.94116
481.5754, 31.65298
482.0575, 32.46619
482.5396, 33.33828
483.0217, 34.19177
483.5038, 35.01070
483.9860, 35.82202
484.4681, 36.64270
484.9502, 37.47291
485.4323, 38.39216
485.9144, 39.34670
486.3965, 40.43665
486.8787, 41.83377
487.3608, 43.37850
487.8429, 44.75106
488.3250, 45.82832
488.8071, 46.80001
489.2892, 48.02312
489.7714, 49.76350
490.2535, 51.11141
490.7356, 52.02409
491.2177, 52.65372
491.6998, 53.02861
492.1819, 53.18205
492.6641, 53.17482
493.1462, 53.06054
493.6283, 52.77671
494.1104, 52.12786
494.5925, 51.06340
495.0746, 49.77523
495.5568, 47.92448
496.0389, 46.14120
496.5210, 44.87830
497.0031, 44.16423
497.4852, 43.72112
497.9673, 43.43585
498.4495, 43.27378
498.9316, 43.15636
499.4137, 43.09198
499.8958, 43.01606
500.3779, 42.84124
500.8600, 42.64856
501.3422, 42.58230
501.8243, 42.61365
502.3064, 42.84987
502.7885, 43.44188
503.2706, 44.25115
503.7527, 45.06903
504.2349, 45.85012
504.7170, 46.55555
505.1991, 47.13363
505.6812, 47.58010
506.1633, 48.03838
506.6454, 48.47557
507.1276, 48.95874
507.6097, 49.49929
508.0918, 50.10621
508.5739, 50.80174
509.0560, 51.59179
509.5381, 52.43385
510.0203, 53.30298
510.5024, 54.33147
510.9845, 54.93408
511.4666, 54.72355
511.9487, 54.46799
512.4308, 54.53987
512.9130, 54.77858
513.3951, 54.84388
513.8772, 54.56657
514.3593, 54.02071
514.8414, 53.31774
515.3235, 52.44462
515.8057, 51.48537
516.2878, 50.38891
516.7699, 49.27259
517.2520, 48.29828
517.7341, 47.43021
518.2162, 46.41479
518.6984, 45.08053
519.1805, 43.57267
519.6626, 42.03388
520.1447, 40.47363
520.6268, 38.95653
521.1089, 37.51293
521.5911, 36.12937
522.0732, 34.81258
522.5553, 33.57210
523.0374, 32.33946
523.5195, 30.97358
524.0016, 29.70624
524.4838, 28.81976
524.9659, 28.27424
525.4480, 27.76630
525.9301, 27.07815
526.4122, 26.25628
526.8943, 25.52130
527.3765, 24.89902
527.8586, 24.34504
528.3407, 23.91992
528.8228, 23.50994
529.3049, 22.98537
529.7870, 22.35883
530.2692, 21.78955
530.7513, 21.43258
531.2334, 21.25568
531.7155, 21.07900
532.1976, 20.93598
532.6797, 20.71550
533.1619, 20.27407
533.6440, 19.77856
534.1261, 19.38774
534.6082, 19.12820
535.0903, 18.95076
535.5724, 18.92135
536.0546, 18.93097
536.5367, 18.68804
537.0188, 18.13679
537.5009, 17.61168
537.9830, 17.35117
538.4651, 17.32954
538.9473, 17.36496
539.4294, 17.53367
539.9115, 17.65826
540.3936, 17.77984
540.8757, 17.78840
541.3578, 17.44198
541.8400, 16.74575
542.3221, 16.07569
542.8042, 15.83360
543.2863, 16.02702
543.7684, 16.17916
544.2505, 16.23540
544.7326, 16.31434
545.2147, 16.53292
545.6968, 16.73781
546.1790, 16.72434
546.6611, 16.45328
547.1432, 16.12834
547.6253, 15.94939
548.1074, 15.91073
548.5895, 15.99160
549.0717, 16.29830
549.5538, 16.49335
550.0359, 16.28029
550.5180, 15.84891
551.0001, 15.45592
551.4822, 15.12943
551.9644, 14.87973
552.4465, 14.71049
552.9286, 14.62231
553.4107, 14.63745
553.8928, 14.76219
554.3749, 14.91413
554.8571, 15.03681
555.3392, 15.12756
555.8213, 15.10347
556.3034, 14.81576
556.7855, 14.61164
557.2676, 14.62400
557.7498, 14.74651
558.2319, 14.87216
558.7140, 14.96650
559.1961, 15.01990
559.6782, 15.00055
560.1603, 14.90617
560.6425, 14.94947
561.1246, 15.31814
561.6067, 15.54354
562.0888, 15.34465
562.5709, 15.01149
563.0530, 14.87905
563.5352, 15.03097
564.0173, 15.27830
564.4994, 15.54772
564.9815, 15.78705
565.4636, 15.77054
565.9457, 15.42465
566.4279, 15.09705
566.9100, 15.01556
567.3921, 15.14147
567.8742, 15.29981
568.3563, 15.53664
568.8384, 15.72915
569.3206, 15.81467
569.8027, 15.84363
570.2848, 15.85295
570.7669, 15.86062
571.2490, 15.91749
571.7311, 16.07336
572.2133, 16.31885
572.6954, 16.54604
573.1775, 16.78729
573.6596, 16.96177
574.1417, 16.95691
574.6238, 16.95303
575.1060, 17.11147
575.5881, 17.44644
576.0702, 17.86035
576.5523, 18.36456
577.0344, 18.87607
577.5165, 18.99680
577.9987, 18.59773
578.4808, 18.38421
578.9629, 18.80383
579.4450, 19.47494
579.9271, 19.82487
580.4092, 19.79026
580.8914, 19.82725
581.3735, 20.13818
581.8556, 20.58814
582.3377, 21.09953
582.8198, 21.62935
583.3019, 22.01911
583.7841, 22.15742
584.2662, 22.14342
584.7483, 22.25147
585.2304, 22.57054
585.7125, 22.87195
586.1946, 23.17937
586.6768, 23.45094
587.1589, 23.62946
587.6410, 23.74973
588.1231, 23.90728
588.6052, 24.16503
589.0873, 24.46701
589.5695, 24.74472
590.0516, 25.03171
590.5337, 25.02912
591.0158, 24.50856
591.4979, 23.87682
591.9800, 23.54622
592.4622, 23.41740
592.9443, 23.07541
593.4264, 21.96720
593.9085, 20.98628
594.3906, 21.14982
594.8727, 22.04136
595.3549, 22.47058
595.8370, 22.04545
596.3191, 21.28348
596.8012, 20.81048
597.2833, 20.68151
597.7654, 20.44873
598.2476, 20.06259
598.7297, 19.64710
599.2118, 19.23332
599.6939, 18.81379
600.1760, 18.37019
600.6581, 17.89807
601.1403, 17.42006
601.6224, 16.90407
602.1045, 16.35958
602.5866, 16.08319
603.0687, 16.17930
603.5508, 16.31553
604.0330, 16.32391
604.5151, 16.28214
604.9972, 16.32667
605.4793, 16.52493
605.9614, 16.54865
606.4435, 16.03706
606.9257, 15.34862
607.4078, 14.98966
607.8899, 14.98899
608.3720, 15.14526
608.8541, 15.36845
609.3362, 15.59609
609.8184, 15.62271
610.3005, 15.13640
610.7826, 14.92074
611.2647, 15.37733
611.7468, 15.74433
612.2289, 15.38008
612.7111, 14.50206
613.1932, 13.77179
613.6753, 13.56103
614.1574, 13.70751
614.6395, 13.99113
615.1216, 14.43778
615.6038, 14.67172
616.0859, 14.52478
616.5680, 14.29153
617.0501, 14.25742
617.5322, 14.34996
618.0143, 14.31361
618.4965, 13.89946
618.9786, 13.56399
619.4607, 13.66189
619.9428, 14.01015
620.4249, 14.32545
620.9070, 14.52683
621.3892, 14.52423
621.8713, 14.17155
622.3534, 13.47703
622.8355, 13.15065
623.3176, 13.56027
623.7997, 13.87660
624.2819, 13.97990
624.7640, 13.93860
625.2461, 13.73626
625.7282, 13.41829
626.2103, 13.19556
626.6924, 13.25567
627.1745, 13.51734
627.6566, 13.85089
628.1387, 14.27677
628.6208, 14.47446
629.1030, 14.25801
629.5851, 13.83551
630.0672, 13.43616
630.5493, 13.03452
631.0314, 12.90114
631.5135, 13.38998
631.9957, 13.85846
632.4778, 13.82526
632.9599, 13.47440
633.4420, 13.20586
633.9241, 13.17372
634.4063, 13.27818
634.8884, 13.39262
635.3705, 13.52133
635.8526, 13.62795
636.3347, 13.71194
636.8168, 13.77193
637.2990, 13.84265
637.7811, 13.87556
638.2632, 13.75993
638.7453, 13.46075
639.2274, 13.26479
639.7095, 13.51956
640.1917, 13.95407
640.6738, 14.05161
641.1559, 13.78931
641.6380, 13.46509
642.1201, 13.20319
642.6022, 13.04124
643.0844, 13.08483
643.5665, 13.55023
644.0486, 13.76382
644.5307, 13.48438
645.0128, 13.18780
645.4949, 13.10672
645.9771, 13.21458
646.4592, 13.44761
646.9413, 13.78228
647.4234, 14.10232
647.9055, 14.23269
648.3876, 14.17622
648.8698, 14.06428
649.3519, 13.87202
649.8340, 13.70639
650.3161, 13.67964
650.7982, 13.71272
651.2803, 13.61675
651.7625, 13.25712
652.2446, 13.08498
652.7267, 13.46377
653.2088, 14.00205
653.6909, 14.26202
654.1730, 14.24057
654.6552, 14.11925
655.1373, 13.98230
655.6194, 13.71001
656.1015, 14.16186
656.5836, 14.46182
657.0657, 14.61803
657.5479, 14.20006
658.0300, 14.52356
658.5121, 14.54988
658.9942, 14.56404
659.4763, 14.99189
659.9584, 15.36660
660.4406, 15.86634
660.9227, 15.90594
661.4048, 15.64054
661.8869, 15.47027
662.3690, 15.45469
662.8511, 15.46632
663.3333, 15.40109
663.8154, 15.30053
664.2975, 15.33965
664.7796, 15.68476
665.2617, 15.93624
665.7438, 16.04112
666.2260, 16.08969
666.7081, 16.10305
667.1902, 16.11442
667.6723, 16.18389
668.1544, 16.34675
668.6365, 16.56581
669.1187, 16.81506
669.6008, 17.08945
670.0829, 17.26477
670.5650, 17.30529
671.0471, 17.29438
671.5292, 17.31730
672.0114, 17.33181
672.4935, 17.18747
672.9756, 16.69866
673.4577, 16.37227
673.9398, 16.56889
674.4219, 16.85251
674.9041, 16.74616
675.3862, 16.29475
675.8683, 15.85566
676.3504, 15.64104
676.8325, 15.61247
677.3146, 15.76189
677.7968, 16.20766
678.2789, 16.22608
678.7610, 15.39446
679.2431, 14.56671
679.7252, 14.31209
680.2073, 14.41319
680.6895, 14.42383
681.1716, 14.19337
681.6537, 14.01435
682.1358, 14.16212
682.6179, 14.41244
683.1000, 14.40634
683.5822, 14.13875
684.0643, 13.86753
684.5464, 13.75478
685.0285, 13.76700
685.5106, 13.82835
685.9927, 14.03619
686.4749, 14.06397
686.9570, 13.73892
687.4391, 13.39071
687.9212, 13.09584
688.4033, 12.89484
688.8854, 12.85984
689.3676, 13.03753
689.8497, 13.28098
690.3318, 13.53857
690.8139, 13.75387
691.2960, 13.79316
691.7781, 13.64512
692.2603, 13.37219
692.7424, 12.96576
693.2245, 12.53924
693.7066, 12.39931
694.1887, 12.75488
694.6708, 12.98077
695.1530, 12.96120
695.6351, 12.94002
696.1172, 13.05493
696.5993, 13.24432
697.0814, 13.39441
697.5635, 13.46559
698.0457, 13.49022
698.5278, 13.50347
699.0099, 13.49663
699.4920, 13.43591
699.9741, 13.31748
700.4562, 13.17526
700.9384, 13.02321
701.4205, 12.86093
701.9026, 12.65772
702.3847, 12.27098
702.8668, 12.25664
703.3489, 13.06369
703.8311, 13.78585
704.3132, 13.85864
704.7953, 13.58765
705.2774, 13.50918
705.7595, 13.78437
706.2416, 14.11465
706.7238, 14.13550
707.2059, 13.93308
707.6880, 13.92374
708.1701, 14.14696
708.6522, 14.29489
709.1343, 14.20415
709.6164, 14.01401
710.0985, 13.93838
710.5806, 13.98878
711.0627, 14.05754
711.5449, 14.23829
712.0270, 14.32675
712.5091, 14.12248
712.9912, 13.81134
713.4733, 13.68389
713.9554, 13.78917
714.4376, 13.90175
714.9197, 13.79593
715.4018, 13.52720
715.8839, 13.28600
716.3660, 13.06190
716.8481, 12.97602
717.3303, 13.18516
717.8124, 13.38486
718.2945, 13.11379
718.7766, 12.42122
719.2587, 12.03798
719.7408, 12.28537
720.2230, 12.54670
720.7051, 12.54428
721.1872, 12.44516
721.6693, 12.46073
722.1514, 12.60767
722.6335, 12.75525
723.1157, 12.80290
723.5978, 12.78491
724.0799, 12.81883
724.5620, 12.92329
725.0441, 12.86030
725.5262, 12.46595
726.0084, 12.11064
726.4905, 12.23074
726.9726, 12.65693
727.4547, 12.71426
727.9368, 12.02727
728.4189, 11.50447
728.9011, 11.48106
729.3832, 11.69161
729.8653, 12.01760
730.3474, 12.34998
730.8295, 12.44544
731.3116, 12.15072
731.7938, 11.71264
732.2759, 11.55108
732.7580, 11.66949
733.2401, 11.91014
733.7222, 12.35020
734.2043, 12.67414
734.6865, 12.64221
735.1686, 12.39314
735.6507, 12.23309
736.1328, 12.17491
736.6149, 12.16158
737.0970, 12.25916
737.5792, 12.32555
738.0613, 12.20930
738.5434, 11.99976
739.0255, 11.86655
739.5076, 11.87023
739.9897, 11.97584
740.4719, 12.18698
740.9540, 12.47635
741.4361, 12.64582
741.9182, 12.68225
742.4003, 12.64466
742.8824, 12.46639
743.3646, 12.32469
743.8467, 12.54581
744.3288, 13.13766
744.8109, 13.47180
745.2930, 13.38086
745.7751, 13.15971
746.2573, 12.76582
746.7394, 12.39811
747.2215, 12.36617
747.7036, 12.64560
748.1857, 12.85387
748.6678, 12.66116
749.1500, 12.27954
749.6321, 12.23113
750.1142, 12.51560
750.5963, 12.66143
751.0784, 12.54290
751.5605, 12.36714
752.0427, 12.29813
752.5248, 12.31369
753.0069, 12.28702
753.4890, 12.21484
753.9711, 12.11008
754.4532, 11.86667
754.9354, 11.68550
755.4175, 11.76811
755.8996, 12.02282
756.3817, 12.22968
756.8638, 12.29673
757.3459, 12.29149
757.8281, 12.24670
758.3102, 12.19403
758.7923, 12.30297
759.2744, 12.59585
759.7565, 12.76974
760.2386, 12.62906
760.7208, 12.38328
761.2029, 12.42168
761.6850, 12.87654
762.1671, 13.07030
762.6492, 12.78227
763.1313, 12.51785
763.6135, 12.45883
764.0956, 12.49078
764.5777, 12.48645
765.0598, 12.42714
765.5419, 12.36380
766.0240, 12.29828
766.5062, 12.27515
766.9883, 12.40597
767.4704, 12.64435
767.9525, 12.77299
768.4346, 12.73645
768.9167, 12.70084
769.3989, 12.83379
769.8810, 13.08525
770.3631, 13.13066
770.8452, 12.76118
771.3273, 12.56644
771.8094, 12.76769
772.2916, 12.96934
772.7737, 12.92094
773.2558, 12.72352
773.7379, 12.61711
774.2200, 12.69354
774.7021, 12.75636
775.1843, 12.63998
775.6664, 12.45537
776.1485, 12.33984
776.6306, 12.30004
777.1127, 12.31960
777.5948, 12.39297
778.0770, 12.47109
778.5591, 12.46221
779.0412, 12.35639
779.5233, 12.39106
780.0054, 12.66123
780.4875, 12.87235
780.9697, 12.90462
781.4518, 12.85204
781.9339, 12.79049
782.4160, 12.72309
782.8981, 12.66780
783.3802, 12.59837
783.8624, 12.57690
784.3445, 12.67094
784.8266, 12.81161
785.3087, 12.92108
785.7908, 12.98473
786.2729, 13.01698
786.7551, 13.02919
787.2372, 13.00850
787.7193, 12.89918
788.2014, 12.70357
788.6835, 12.61336
789.1656, 12.68244
789.6478, 12.72727
790.1299, 12.55776
790.6120, 12.33848
791.0941, 12.53122
791.5762, 13.41069
792.0583, 13.85906
792.5404, 13.48702
793.0225, 13.03230
793.5046, 12.78684
793.9868, 12.69281
794.4689, 12.63013
794.9510, 12.58009
795.4331, 12.63650
795.9152, 13.00315
796.3973, 13.42640
796.8795, 13.37478
797.3616, 12.96643
797.8437, 12.84440
798.3258, 13.18029
798.8079, 13.47733
799.2900, 13.23317
799.7722, 12.61490
800.2543, 12.61462
800.7364, 13.81218
801.2185, 14.44071
801.7006, 13.80538
802.1827, 13.13142
802.6649, 13.01442
803.1470, 13.24745
803.6291, 13.43917
804.1112, 13.51281
804.5933, 13.53843
805.0754, 13.46747
805.5576, 13.43026
806.0397, 13.59202
806.5218, 13.89160
807.0039, 14.21532
807.4860, 14.50849
807.9681, 14.65168
808.4503, 14.44838
808.9324, 13.99636
809.4145, 13.87025
809.8966, 14.13764
810.3787, 14.29257
810.8608, 14.14207
811.3430, 13.96815
811.8251, 14.02893
812.3072, 14.29631
812.7893, 14.55322
813.2714, 14.88904
813.7535, 15.08066
814.2357, 14.99855
814.7178, 14.85187
815.1999, 14.75152
815.6820, 14.70665
816.1641, 14.73764
816.6462, 14.85499
817.1284, 14.89978
817.6105, 14.66994
818.0926, 14.29136
818.5747, 13.95496
819.0568, 13.68682
819.5389, 13.62979
820.0211, 13.84700
820.5032, 14.07787
820.9853, 13.98812
821.4674, 13.61583
821.9495, 13.58125
822.4316, 14.13883
822.9138, 14.47721
823.3959, 14.32549
823.8780, 14.04172
824.3601, 13.79542
824.8422, 13.60707
825.3243, 13.53686
825.8065, 13.65719
826.2886, 13.74316
826.7707, 13.69847
827.2528, 13.59188
827.7349, 13.47353
828.2170, 13.34547
828.6992, 13.16786
829.1813, 12.93552
829.6634, 12.77533
830.1455, 12.90124
830.6276, 13.19182
831.1097, 13.18298
831.5919, 12.88152
832.0740, 12.68535
832.5561, 12.71442
833.0382, 12.85063
833.5203, 12.98832
834.0024, 13.13171
834.4846, 13.33088
834.9667, 13.81587
835.4488, 13.96784
835.9309, 13.38015
836.4130, 12.86210
836.8951, 12.93357
837.3773, 13.33171
837.8594, 13.56078
838.3415, 13.50088
838.8236, 13.38569
839.3057, 13.29376
839.7878, 13.23729
840.2700, 13.30171
840.7521, 13.39424
841.2342, 13.25202
841.7163, 12.84424
842.1984, 12.50393
842.6805, 12.55633
843.1627, 12.88114
843.6448, 13.17645
844.1269, 13.44674
844.6090, 13.44491
845.0911, 13.04058
845.5732, 12.67539
846.0554, 12.68880
846.5375, 12.94204
847.0196, 13.03023
847.5017, 12.81758
847.9838, 12.75081
848.4659, 12.98088
848.9481, 13.17601
849.4302, 13.17795
849.9123, 13.09433
850.3944, 13.07927
850.8765, 13.14106
851.3586, 13.12803
851.8408, 12.89918
852.3229, 12.62865
852.8050, 12.43514
853.2871, 12.31282
853.7692, 12.22693
854.2513, 12.19209
854.7335, 12.32985
855.2156, 12.73588
855.6977, 13.21469
856.1798, 13.40183
856.6619, 13.30410
857.1440, 13.06459
857.6262, 12.63946
858.1083, 12.35353
858.5904, 12.40093
859.0725, 12.57014
859.5546, 12.54386
860.0367, 12.28954
860.5189, 12.22657
861.0010, 12.60860
861.4831, 12.82983
861.9652, 12.68119
862.4473, 12.43836
862.9294, 12.27206
863.4116, 12.19111
863.8937, 12.16964
864.3758, 12.20640
864.8579, 12.27651
865.3400, 12.41515
865.8221, 12.54144
866.3043, 12.54623
866.7864, 12.45972
867.2685, 12.35668
867.7506, 12.26934
868.2327, 12.24065
868.7148, 12.35278
869.1970, 12.53436
869.6791, 12.50662
870.1612, 12.26935
870.6433, 12.15087
871.1254, 12.25274
871.6075, 12.31883
872.0897, 12.13363
872.5718, 11.78244
873.0539, 11.52927
873.5360, 11.30384
874.0181, 11.33841
874.5002, 12.12080
874.9823, 12.59562
875.4644, 12.06389
875.9465, 11.26125
876.4286, 11.12219
876.9108, 11.68285
877.3929, 12.04034
877.8750, 11.61683
878.3571, 11.22795
878.8392, 11.48119
879.3214, 11.92017
879.8035, 11.96927
880.2856, 11.65903
880.7677, 11.33861
881.2498, 11.17588
881.7319, 11.13801
882.2141, 11.23870
882.6962, 11.42279
883.1783, 11.53615
883.6604, 11.57181
884.1425, 11.51582
884.6246, 11.35698
885.1068, 11.15797
885.5889, 10.97020
886.0710, 10.80944
886.5531, 10.83841
887.0352, 11.19231
887.5173, 11.32707
887.9995, 11.01853
888.4816, 10.69834
888.9637, 10.63892
889.4458, 10.74954
889.9279, 10.87835
890.4100, 11.07075
890.8922, 11.07855
891.3743, 10.65744
891.8564, 10.28781
892.3385, 10.17431
892.8206, 10.23807
893.3027, 10.45487
893.7849, 10.76266
894.2670, 10.95334
894.7491, 10.85981
895.2312, 10.75252
895.7133, 10.94914
896.1954, 11.26188
896.6776, 11.38038
897.1597, 11.30869
897.6418, 11.21145
898.1239, 11.15862
898.6060, 11.05420
899.0881, 10.72217
899.5703, 10.24082
900.0524, 10.05577
900.5345, 10.18466
901.0166, 10.24822
901.4987, 10.11757
901.9808, 10.09010
902.4630, 10.49198
902.9451, 11.11835
903.4272, 11.21665
903.9093, 10.41607
904.3914, 9.950238
904.8735, 10.02411
905.3557, 10.18187
905.8378, 10.36106
906.3199, 10.48092
906.8020, 10.39046
907.2841, 10.10615
907.7662, 9.960498
908.2484, 10.21581
908.7305, 10.39067
909.2126, 10.23923
909.6947, 9.963930
910.1768, 9.664130
910.6589, 9.419124
911.1411, 9.378217
911.6232, 9.602330
912.1053, 9.863348
912.5874, 9.939197
913.0695, 9.946383
913.5516, 10.10461
914.0338, 10.34822
914.5159, 10.46075
914.9980, 10.39600
915.4801, 10.24924
915.9622, 10.07942
916.4443, 9.927151
916.9265, 9.900461
917.4086, 9.999060
917.8907, 10.09122
918.3728, 10.16197
918.8549, 10.28673
919.3370, 10.55796
919.8192, 10.76391
920.3013, 10.53985
920.7834, 9.862598
921.2655, 9.688735
921.7476, 10.50566
922.2297, 10.98253
922.7119, 10.62290
923.1940, 10.18514
923.6761, 10.07907
924.1582, 10.20994
924.6403, 10.37595
925.1224, 10.55412
925.6046, 10.77822
926.0867, 11.24150
926.5688, 11.54277
927.0509, 11.34853
927.5330, 10.95064
928.0151, 10.69555
928.4973, 10.59892
928.9794, 10.43974
929.4615, 10.02496
929.9436, 9.760022
930.4257, 10.24246
930.9078, 10.94953
931.3900, 11.05903
931.8721, 10.67654
932.3542, 10.30940
932.8363, 10.13731
933.3184, 10.04886
933.8005, 9.965382
934.2827, 9.851062
934.7648, 9.490168
935.2469, 8.944877
935.7290, 8.894629
936.2111, 9.468257
936.6932, 10.08350
937.1754, 10.42054
937.6575, 10.52641
938.1396, 10.45947
938.6217, 10.19967
939.1038, 10.01352
939.5859, 9.899387
940.0681, 9.863648
940.5502, 9.925417
941.0323, 10.04328
941.5144, 10.20669
941.9965, 10.39791
942.4786, 10.53348
942.9608, 10.51233
943.4429, 10.64698
943.9250, 11.23587
944.4071, 11.64654
944.8892, 11.46316
945.3713, 11.07124
945.8535, 10.88751
946.3356, 10.94071
946.8177, 11.07487
947.2998, 11.38260
947.7819, 11.54301
948.2640, 11.22852
948.7462, 10.84147
949.2283, 10.80142
949.7104, 10.98177
950.1925, 11.04895
950.6746, 10.90700
951.1567, 10.72072
951.6389, 10.62602
952.1210, 10.54914
952.6031, 10.39244
953.0852, 10.18024
953.5673, 9.923437
954.0494, 9.654037
954.5316, 9.513974
955.0137, 9.582991
955.4958, 9.729230
955.9779, 9.832769
956.4600, 9.854259
956.9421, 9.504270
957.4242, 8.799955
957.9063, 8.254486
958.3884, 7.989925
958.8705, 8.023388
959.3527, 8.417397
959.8348, 9.020390
960.3169, 9.391651
960.7990, 9.518057
961.2811, 9.442769
961.7632, 9.018783
962.2454, 8.826518
962.7275, 9.217387
963.2096, 9.739074
963.6917, 9.920985
964.1738, 9.781157
964.6559, 9.510213
965.1381, 8.860532
965.6202, 8.484704
966.1023, 8.617783
966.5844, 8.774054
967.0665, 8.683766
967.5486, 8.527240
968.0308, 8.598431
968.5129, 8.910506
968.9950, 9.065388
969.4771, 8.764693
969.9592, 8.581306
970.4413, 8.896461
970.9235, 9.234701
971.4056, 9.137691
971.8877, 8.783770
972.3698, 8.580587
972.8519, 8.636999
973.3340, 8.776702
973.8162, 8.997665
974.2983, 9.161041
974.7804, 9.068380
975.2625, 8.893855
975.7446, 8.915816
976.2267, 9.107717
976.7089, 9.238134
977.1910, 9.195557
977.6731, 9.125523
978.1552, 9.253462
978.6373, 9.410385
979.1194, 9.231356
979.6016, 8.827653
980.0837, 8.500467
980.5658, 8.344629
981.0479, 8.550993
981.5300, 9.303638
982.0121, 10.12736
982.4943, 10.01778
982.9764, 9.183850
983.4585, 8.858111
983.9406, 9.064178
984.4227, 9.190726
984.9048, 9.040862
985.3870, 8.839578
985.8691, 8.791492
986.3512, 8.851453
986.8333, 8.852262
987.3154, 8.769437
987.7975, 8.857766
988.2797, 9.182663
988.7618, 9.474065
989.2439, 9.634907
989.7260, 9.692456
990.2081, 9.643721
990.6902, 9.513501
991.1724, 9.557157
991.6545, 9.944765
992.1366, 10.09456
992.6187, 9.731171
993.1008, 9.490185
993.5829, 9.751511
994.0651, 10.23353
994.5472, 10.58630
995.0293, 10.80945
995.5114, 10.90727
995.9935, 10.82261
996.4756, 10.69658
996.9578, 10.38765
997.4399, 10.20973
997.9220, 10.52223
998.4041, 10.99591
998.8862, 11.05462
999.3683, 10.62649
999.8505, 10.34070
1000.333, 10.44961
1000.815, 10.59862
1001.297, 10.71530
1001.779, 10.76917
1002.261, 10.59499
1002.743, 10.38301
1003.225, 10.58333
1003.707, 11.31219
1004.190, 11.89623
1004.672, 11.91544
1005.154, 11.77463
1005.636, 11.68187
1006.118, 11.62453
1006.600, 11.58034
1007.082, 11.54985
1007.564, 11.54060
1008.046, 11.55510
1008.529, 11.60357
1009.011, 11.76465
1009.493, 11.90047
1009.975, 11.72711
1010.457, 11.47606
1010.939, 11.60836
1011.421, 12.10446
1011.903, 12.63175
1012.385, 13.03057
1012.868, 13.29341
1013.350, 13.35539
1013.832, 13.30630
1014.314, 13.31473
1014.796, 13.35736
1015.278, 13.31403
1015.760, 13.19464
1016.242, 13.22515
1016.725, 13.54908
1017.207, 13.94529
1017.689, 14.11076
1018.171, 14.07997
1018.653, 13.87666
1019.135, 13.55800
1019.617, 13.56771
1020.099, 13.98859
1020.581, 14.33690
1021.064, 14.26338
1021.546, 14.03024
1022.028, 14.22048
1022.510, 14.76671
1022.992, 14.81064
1023.474, 14.33843
1023.956, 13.88442
1024.438, 13.57660
1024.921, 13.38970
1025.403, 13.32532
1025.885, 13.30941
1026.367, 13.18238
1026.849, 12.94644
1027.331, 12.51106
1027.813, 11.79494
1028.295, 11.37539
1028.777, 11.49299
1029.260, 11.64467
1029.742, 11.40532
1030.224, 10.92542
1030.706, 10.65658
1031.188, 10.67476
1031.670, 10.41997
1032.152, 9.622440
1032.634, 9.416751
1033.116, 10.51114
1033.599, 11.52500
1034.081, 11.18848
1034.563, 9.959569
1035.045, 9.271502
1035.527, 9.264614
1036.009, 9.327269
1036.491, 9.570883
1036.973, 9.663921
1037.456, 9.420779
1037.938, 9.111681
1038.420, 8.907907
1038.902, 8.827409
1039.384, 8.963820
1039.866, 9.503018
1040.348, 9.730098
1040.830, 9.398234
1041.313, 9.106829
1041.795, 9.021406
1042.277, 9.021582
1042.759, 9.007723
1043.241, 9.001405
1043.723, 9.079112
1044.205, 9.288374
1044.687, 9.451425
1045.169, 9.688980
1045.651, 9.711337
1046.134, 9.227942
1046.616, 8.680608
1047.098, 8.397909
1047.580, 8.349330
1048.062, 8.406976
1048.544, 8.562367
1049.026, 8.815872
1049.508, 9.379730
1049.991, 9.766803
1050.473, 9.738522
1050.955, 9.537601
1051.437, 9.279460
1051.919, 9.031528
1052.401, 8.942389
1052.883, 9.073728
1053.365, 9.180115
1053.848, 9.180677
1054.330, 9.185582
1054.812, 9.262336
1055.294, 9.339047
1055.776, 9.303617
1056.258, 9.226850
1056.740, 9.297748
1057.222, 9.570252
1057.704, 9.850897
1058.187, 10.11455
1058.669, 10.33823
1059.151, 10.67281
1059.633, 10.82090
1060.115, 10.26983
1060.597, 9.393442
1061.079, 9.087541
1061.561, 9.581056
1062.043, 10.02820
1062.526, 10.08277
1063.008, 10.10344
1063.490, 10.24363
1063.972, 10.42770
1064.454, 10.58910
1064.936, 10.73770
1065.418, 10.92635
1065.900, 11.16772
1066.383, 11.33037
1066.865, 11.31250
1067.347, 11.27065
1067.829, 11.21827
1068.311, 11.22680
1068.793, 11.38469
1069.275, 11.63883
1069.757, 11.91032
1070.240, 12.17793
1070.722, 12.37265
1071.204, 12.42108
1071.686, 12.44889
1072.168, 12.53882
1072.650, 12.60986
1073.132, 12.55572
1073.614, 12.45197
1074.096, 12.43879
1074.578, 12.53300
1075.061, 12.63337
1075.543, 12.73736
1076.025, 12.77787
1076.507, 12.72659
1076.989, 12.59557
1077.471, 12.31255
1077.953, 11.99796
1078.435, 11.83654
1078.918, 11.83932
1079.400, 11.87968
1079.882, 11.93765
1080.364, 11.96610
1080.846, 11.86963
1081.328, 11.81194
1081.810, 12.01575
1082.292, 12.26959
1082.774, 12.21549
1083.257, 11.90135
1083.739, 11.77293
1084.221, 12.08884
1084.703, 12.27222
1085.185, 11.90268
1085.667, 11.48686
1086.149, 11.27721
1086.631, 11.26636
1087.114, 11.57646
1087.596, 12.05373
1088.078, 12.19594
1088.560, 11.77904
1089.042, 11.41879
1089.524, 11.37962
1090.006, 11.45512
1090.488, 11.54070
1090.970, 11.67237
1091.453, 12.00948
1091.935, 12.40540
1092.417, 12.43380
1092.899, 11.95048
1093.381, 11.61454
1093.863, 11.78404
1094.345, 12.00738
1094.827, 12.14610
1095.309, 12.18847
1095.792, 12.06201
1096.274, 11.86085
1096.756, 11.73352
1097.238, 11.70744
1097.720, 11.81377
1098.202, 12.29160
1098.684, 12.58455
1099.166, 12.35759
1099.649, 12.03614
1100.131, 11.89969
1100.613, 11.87049
1101.095, 11.79645
1101.577, 11.66923
1102.059, 11.60183
1102.541, 11.63619
1103.023, 11.70828
1103.505, 11.89483
1103.988, 12.01030
1104.470, 11.89724
1104.952, 11.69917
1105.434, 11.57936
1105.916, 11.53375
1106.398, 11.47824
1106.880, 11.39856
1107.362, 11.31337
1107.844, 11.30828
1108.327, 11.19282
1108.809, 10.69683
1109.291, 10.22974
1109.773, 10.23495
1110.255, 10.56009
1110.737, 10.75623
1111.219, 10.82856
1111.701, 10.63734
1112.184, 9.737720
1112.666, 9.182570
1113.148, 9.490222
1113.630, 9.915114
1114.112, 9.995284
1114.594, 9.850481
1115.076, 9.705809
1115.558, 9.569547
1116.041, 9.354887
1116.523, 9.024033
1117.005, 8.675052
1117.487, 8.211654
1117.969, 7.881340
1118.451, 7.816843
1118.933, 7.939220
1119.415, 8.226306
1119.897, 8.638762
1120.380, 8.739169
1120.862, 8.415057
1121.344, 8.016414
1121.826, 7.327133
1122.308, 7.102804
1122.790, 7.900603
1123.272, 8.740263
1123.754, 8.629715
1124.236, 7.864676
1124.719, 7.435748
1125.201, 7.370580
1125.683, 7.551393
1126.165, 8.121757
1126.647, 8.340516
1127.129, 7.919383
1127.611, 7.495963
1128.093, 7.514094
1128.576, 7.787248
1129.058, 7.988892
1129.540, 8.117605
1130.022, 8.141036
1130.504, 8.048395
1130.986, 7.990850
1131.468, 8.001525
1131.950, 7.923864
1132.432, 7.670749
1132.915, 7.373930
1133.397, 7.192153
1133.879, 7.098686
1134.361, 6.981877
1134.843, 6.851981
1135.325, 6.887401
1135.807, 7.084933
1136.289, 7.111687
1136.771, 6.866609
1137.254, 6.738629
1137.736, 7.070442
1138.218, 7.571960
1138.700, 7.702670
1139.182, 7.566461
1139.664, 7.477545
1140.146, 7.445554
1140.628, 7.482573
1141.111, 7.578096
1141.593, 7.683924
1142.075, 7.777557
1142.557, 7.757251
1143.039, 7.421807
1143.521, 6.968682
1144.003, 6.703877
1144.485, 6.586709
1144.968, 6.543924
1145.450, 6.565454
1145.932, 6.686936
1146.414, 6.904066
1146.896, 7.073143
1147.378, 7.047651
1147.860, 7.028633
1148.342, 7.326788
1148.824, 7.640615
1149.307, 7.539100
1149.789, 7.222902
1150.271, 7.058757
1150.753, 7.097319
1151.235, 7.238737
1151.717, 7.483373
1152.199, 7.626147
1152.681, 7.491066
1153.163, 7.285226
1153.646, 7.141114
1154.128, 6.999960
1154.610, 6.679802
1155.092, 6.339380
1155.574, 6.398548
1156.056, 6.948700
1156.538, 7.391719
1157.020, 7.549118
1157.503, 7.585589
1157.985, 7.435014
1158.467, 7.302423
1158.949, 7.387022
1159.431, 7.510673
1159.913, 7.387817
1160.395, 7.052405
1160.877, 6.880423
1161.359, 7.019087
1161.842, 7.064507
1162.324, 6.918199
1162.806, 6.825331
1163.288, 6.915177
1163.770, 6.991163
1164.252, 6.858882
1164.734, 6.645469
1165.216, 6.640694
1165.698, 6.860612
1166.181, 7.097404
1166.663, 7.399992
1167.145, 7.531606
1167.627, 7.446810
1168.109, 7.201452
1168.591, 6.754004
1169.073, 6.400233
1169.555, 6.525105
1170.037, 6.964286
1170.520, 7.086624
1171.002, 6.900703
1171.484, 6.733977
1171.966, 6.605250
1172.448, 6.681922
1172.930, 7.002323
1173.412, 7.152581
1173.894, 6.831083
1174.377, 6.422221
1174.859, 6.578985
1175.341, 7.062055
1175.823, 7.201629
1176.305, 7.101863
1176.787, 7.067995
1177.269, 7.121150
1177.751, 7.152885
1178.234, 7.124007
1178.716, 7.067312
1179.198, 7.004523
1179.680, 6.933085
1180.162, 6.821043
1180.644, 6.722494
1181.126, 6.748656
1181.608, 6.818331
1182.090, 6.753007
1182.573, 6.574571
1183.055, 6.468274
1183.537, 6.502958
1184.019, 6.614586
1184.501, 6.813937
1184.983, 7.025456
1185.465, 7.314211
1185.947, 7.495690
1186.429, 7.290166
1186.912, 6.919368
1187.394, 6.811572
1187.876, 6.998811
1188.358, 7.117366
1188.840, 7.068819
1189.322, 7.013911
1189.804, 6.956746
1190.286, 6.911283
1190.769, 6.900321
1191.251, 6.880261
1191.733, 6.762420
1192.215, 6.636510
1192.697, 6.782128
1193.179, 7.270898
1193.661, 7.368444
1194.143, 6.916594
1194.625, 6.683916
1195.108, 6.830025
1195.590, 7.016496
1196.072, 7.093850
1196.554, 7.085104
1197.036, 7.001589
1197.518, 6.880543
1198.000, 6.823382
1198.482, 6.833593
1198.964, 6.990335
1199.447, 7.264727
1199.929, 7.386037
1200.411, 7.305169
1200.893, 7.193803
1201.375, 7.149834
1201.857, 7.144559
1202.339, 7.163535
1202.821, 7.182381
1203.304, 7.139951
1203.786, 7.080787
1204.268, 7.168999
1204.750, 7.290977
1205.232, 7.047094
1205.714, 6.433030
1206.196, 6.056901
1206.678, 6.321160
1207.161, 6.589904
1207.643, 6.286926
1208.125, 6.060569
1208.607, 6.593590
1209.089, 7.245038
1209.571, 7.245010
1210.053, 6.818389
1210.535, 6.629037
1211.017, 6.784655
1211.500, 6.896424
1211.982, 6.826613
1212.464, 6.834993
1212.946, 7.068933
1213.428, 7.237731
1213.910, 7.247129
1214.392, 7.119725
1214.874, 6.787601
1215.356, 6.389776
1215.839, 6.380146
1216.321, 6.811646
1216.803, 7.113039
1217.285, 7.259236
1217.767, 7.502446
1218.249, 7.925875
1218.731, 7.975761
1219.213, 7.349416
1219.696, 6.631572
1220.178, 6.467052
1220.660, 6.666131
1221.142, 6.873342
1221.624, 7.052535
1222.106, 7.030017
1222.588, 6.869668
1223.070, 6.855293
1223.552, 6.990071
1224.035, 6.956512
1224.517, 6.604864
1224.999, 6.316054
1225.481, 6.550714
1225.963, 6.833244
1226.445, 6.675982
1226.927, 6.389313
1227.409, 6.236142
1227.891, 6.231050
1228.374, 6.424380
1228.856, 6.752402
1229.338, 6.893694
1229.820, 6.652612
1230.302, 6.603552
1230.784, 7.146342
1231.266, 7.528330
1231.748, 7.396555
1232.231, 7.162223
1232.713, 7.052044
1233.195, 7.020841
1233.677, 7.039754
1234.159, 7.086617
1234.641, 6.940854
1235.123, 6.537351
1235.605, 6.240288
1236.088, 6.060786
1236.570, 5.986225
1237.052, 6.012026
1237.534, 6.179125
1238.016, 6.534345
1238.498, 6.884714
1238.980, 6.927276
1239.462, 6.791699
1239.944, 6.833084
1240.427, 6.991356
1240.909, 7.120518
1241.391, 7.193079
1241.873, 7.161320
1242.355, 7.031236
1242.837, 6.887780
1243.319, 6.769270
1243.801, 6.691179
1244.283, 6.625774
1244.766, 6.650240
1245.248, 6.865950
1245.730, 7.162119
1246.212, 7.579381
1246.694, 7.919530
1247.176, 7.735282
1247.658, 7.066607
1248.140, 6.750989
1248.622, 7.156369
1249.105, 7.394264
1249.587, 7.332315
1250.069, 7.228256
1250.551, 7.118431
1251.033, 7.017204
1251.515, 6.934632
1251.997, 6.861916
1252.479, 6.782134
1252.962, 6.702178
1253.444, 6.685694
1253.926, 6.729159
1254.408, 6.616402
1254.890, 6.351078
1255.372, 6.135920
1255.854, 6.033453
1256.336, 6.149246
1256.818, 6.549680
1257.301, 6.976053
1257.783, 7.138806
1258.265, 7.169712
1258.747, 7.236060
1259.229, 7.288690
1259.711, 7.243772
1260.193, 7.138993
1260.675, 7.069078
1261.157, 7.026000
1261.640, 6.878833
1262.122, 6.537524
1262.604, 6.343579
1263.086, 6.473954
1263.568, 6.668349
1264.050, 6.928559
1264.532, 7.131331
1265.014, 7.199124
1265.497, 7.179483
1265.979, 7.123553
1266.461, 7.025052
1266.943, 6.816541
1267.425, 6.436467
1267.907, 6.468146
1268.389, 6.958433
1268.871, 7.388309
1269.354, 7.669114
1269.836, 7.667063
1270.318, 7.317110
1270.800, 6.957082
1271.282, 6.932971
1271.764, 7.036880
1272.246, 6.898703
1272.728, 6.679903
1273.210, 6.678527
1273.693, 6.808088
1274.175, 6.886785
1274.657, 6.917069
1275.139, 6.977481
1275.621, 7.094007
1276.103, 7.317249
1276.585, 7.921354
1277.067, 8.216631
1277.549, 7.736459
1278.032, 7.199785
1278.514, 6.845949
1278.996, 6.692200
1279.478, 6.835553
1279.960, 7.115768
1280.442, 7.221676
1280.924, 7.158414
1281.406, 7.094603
1281.889, 7.038862
1282.371, 6.843890
1282.853, 6.474907
1283.335, 6.570268
1283.817, 7.304690
1284.299, 7.993225
1284.781, 8.207566
1285.263, 7.999613
1285.745, 7.420226
1286.228, 6.467086
##END=



