##NAMES=Laumontite
##RRUFFID=R040020
##IDEAL CHEMISTRY=Ca(Si_4_Al_2_)O_12_&#183;4H_2_O
##LOCALITY=Pine Creek Tungsten mine, Bishop, Inyo County, California, USA
##OWNER=RRUFF
##SOURCE=University of Arizona Mineral Museum
##DESCRIPTION=Pale gray long prism coated with smaller crystals
##STATUS=The identification of this mineral has been confirmed by X-ray diffraction and chemical analysis
##URL=rruff.info/R040020
##MEASURED CHEMISTRY=(Ca_0.99_K_0.01_)_Σ=1_(Si_4.01_Al_1.99_)O_12_·4H_2_O; H_2_O estimated by difference
181.2911, 327.2739
181.7732, 324.9742
182.2553, 323.5759
182.7374, 323.9575
183.2195, 324.2696
183.7016, 324.1783
184.1838, 323.7759
184.6659, 323.2083
185.1480, 322.5107
185.6301, 321.7463
186.1122, 321.5800
186.5943, 322.0481
187.0764, 322.9048
187.5586, 324.2267
188.0407, 325.9005
188.5228, 327.5885
189.0049, 329.0284
189.4870, 330.2892
189.9691, 331.8388
190.4513, 333.7139
190.9334, 335.8171
191.4155, 338.1672
191.8976, 340.7388
192.3797, 343.3508
192.8618, 345.9430
193.3440, 348.4580
193.8261, 350.7339
194.3082, 352.1932
194.7903, 353.7762
195.2724, 356.6099
195.7545, 360.8376
196.2367, 365.3378
196.7188, 370.0479
197.2009, 374.4737
197.6830, 377.7700
198.1651, 379.3914
198.6472, 379.9456
199.1294, 380.5245
199.6115, 381.3468
200.0936, 381.5953
200.5757, 381.3696
201.0578, 380.3169
201.5399, 377.7623
202.0221, 373.0800
202.5042, 366.9136
202.9863, 361.0499
203.4684, 355.6654
203.9505, 350.3772
204.4326, 344.7455
204.9148, 339.1628
205.3969, 334.1385
205.8790, 329.9431
206.3611, 326.5182
206.8432, 323.4730
207.3253, 320.7385
207.8075, 318.5568
208.2896, 317.1978
208.7717, 316.3608
209.2538, 315.6360
209.7359, 314.7809
210.2180, 313.8058
210.7002, 312.8339
211.1823, 311.6293
211.6644, 310.6835
212.1465, 310.5808
212.6286, 310.7733
213.1107, 310.2857
213.5929, 308.4119
214.0750, 305.2667
214.5571, 302.5928
215.0392, 300.8815
215.5213, 299.0540
216.0034, 296.8038
216.4856, 294.2101
216.9677, 291.5213
217.4498, 288.8905
217.9319, 286.3160
218.4140, 283.5065
218.8961, 280.1568
219.3783, 276.9610
219.8604, 274.0954
220.3425, 271.5826
220.8246, 269.4599
221.3067, 267.8005
221.7888, 266.5528
222.2710, 265.2278
222.7531, 263.8166
223.2352, 262.3510
223.7173, 260.6727
224.1994, 258.8778
224.6815, 257.4567
225.1637, 256.9114
225.6458, 256.9111
226.1279, 256.1559
226.6100, 253.8496
227.0921, 251.5878
227.5742, 250.6146
228.0564, 250.8166
228.5385, 250.9531
229.0206, 250.2130
229.5027, 249.0275
229.9848, 248.4101
230.4669, 248.8196
230.9491, 249.2659
231.4312, 248.5409
231.9133, 246.6298
232.3954, 245.5057
232.8775, 247.0112
233.3596, 249.4087
233.8418, 250.4040
234.3239, 249.4408
234.8060, 247.5708
235.2881, 245.3727
235.7702, 242.6703
236.2523, 241.3290
236.7345, 243.6023
237.2166, 246.8408
237.6987, 248.7147
238.1808, 248.6443
238.6629, 247.6524
239.1451, 246.7385
239.6272, 245.8086
240.1093, 245.4499
240.5914, 246.5963
241.0735, 247.9704
241.5556, 248.6082
242.0378, 248.2707
242.5199, 247.5925
243.0020, 247.2847
243.4841, 247.2968
243.9662, 247.9081
244.4483, 249.7637
244.9305, 251.8342
245.4126, 253.5555
245.8947, 254.7785
246.3768, 255.5945
246.8589, 256.0444
247.3410, 255.9675
247.8231, 256.0219
248.3053, 255.7601
248.7874, 255.9873
249.2695, 257.5990
249.7516, 260.5789
250.2337, 263.7818
250.7158, 265.5911
251.1980, 265.3737
251.6801, 265.4571
252.1622, 265.8610
252.6443, 266.5504
253.1264, 267.6135
253.6085, 269.0065
254.0907, 270.5295
254.5728, 271.9902
255.0549, 273.5586
255.5370, 274.5121
256.0191, 273.8591
256.5013, 273.4930
256.9834, 274.6261
257.4655, 277.2223
257.9476, 280.3506
258.4297, 283.0555
258.9118, 285.3676
259.3940, 287.0805
259.8761, 287.5352
260.3582, 288.0795
260.8403, 289.4566
261.3224, 291.6260
261.8045, 294.0733
262.2867, 296.3112
262.7688, 298.2561
263.2509, 300.5546
263.7330, 303.8122
264.2151, 306.7783
264.6972, 308.5919
265.1794, 309.4942
265.6615, 310.5366
266.1436, 312.6606
266.6257, 315.9591
267.1078, 318.2509
267.5899, 319.1269
268.0721, 319.6726
268.5542, 320.2210
269.0363, 320.8177
269.5184, 321.4404
270.0005, 322.0388
270.4826, 322.6429
270.9648, 323.6534
271.4469, 325.2782
271.9290, 326.9900
272.4111, 328.6172
272.8932, 330.1766
273.3753, 331.7431
273.8575, 333.3503
274.3396, 334.9935
274.8217, 336.6590
275.3038, 338.0450
275.7859, 339.7688
276.2680, 342.1064
276.7502, 344.9109
277.2323, 347.8869
277.7144, 350.8785
278.1965, 353.9842
278.6786, 357.5805
279.1607, 361.8155
279.6428, 366.1044
280.1249, 370.4098
280.6071, 374.6680
281.0892, 378.6843
281.5713, 382.3689
282.0534, 385.9168
282.5355, 389.6271
283.0176, 393.2580
283.4998, 397.6516
283.9819, 403.4262
284.4640, 409.9755
284.9461, 416.4317
285.4282, 422.5822
285.9103, 428.4910
286.3925, 434.1327
286.8746, 439.4358
287.3567, 445.1525
287.8388, 451.7888
288.3209, 458.8163
288.8030, 465.4582
289.2852, 471.5970
289.7673, 477.6522
290.2494, 484.1334
290.7315, 491.0375
291.2136, 497.6273
291.6957, 503.8697
292.1779, 509.7414
292.6600, 514.9977
293.1421, 519.5893
293.6242, 524.2634
294.1063, 529.6933
294.5884, 535.7581
295.0706, 541.6024
295.5527, 547.1069
296.0348, 552.3855
296.5169, 557.3510
296.9990, 562.0190
297.4811, 566.9525
297.9633, 572.3287
298.4454, 578.3202
298.9275, 585.1036
299.4096, 592.5517
299.8917, 600.9393
300.3738, 610.7867
300.8560, 621.9515
301.3381, 633.1956
301.8202, 643.7769
302.3023, 654.3328
302.7844, 666.2965
303.2665, 679.9872
303.7487, 694.0740
304.2308, 707.7458
304.7129, 721.1238
305.1950, 734.9019
305.6771, 749.6974
306.1592, 764.4147
306.6414, 777.8839
307.1235, 790.3733
307.6056, 800.8832
308.0877, 809.1511
308.5698, 815.1588
309.0519, 818.7727
309.5341, 819.7603
310.0162, 818.8204
310.4983, 816.9756
310.9804, 814.2498
311.4625, 808.8895
311.9446, 799.7672
312.4268, 787.8698
312.9089, 774.5540
313.3910, 759.8480
313.8731, 743.7834
314.3552, 725.3726
314.8373, 705.3900
315.3195, 686.0908
315.8016, 667.8079
316.2837, 650.4422
316.7658, 633.8892
317.2479, 618.1387
317.7300, 603.4788
318.2122, 589.7737
318.6943, 577.4560
319.1764, 567.3412
319.6585, 560.1229
320.1406, 554.3393
320.6227, 548.7244
321.1049, 543.4474
321.5870, 539.7825
322.0691, 538.7186
322.5512, 539.3400
323.0333, 539.7343
323.5154, 539.7267
323.9976, 540.0386
324.4797, 541.8280
324.9618, 544.3424
325.4439, 545.4430
325.9260, 544.7982
326.4081, 542.0140
326.8903, 536.3626
327.3724, 528.0787
327.8545, 518.0427
328.3366, 506.0342
328.8187, 492.6565
329.3008, 478.4932
329.7830, 463.3796
330.2651, 448.5714
330.7472, 435.3952
331.2293, 423.6415
331.7114, 412.2978
332.1935, 401.3471
332.6757, 390.6246
333.1578, 379.5382
333.6399, 368.0537
334.1220, 357.7778
334.6041, 349.9706
335.0862, 344.2780
335.5684, 338.8368
336.0505, 333.2581
336.5326, 328.2703
337.0147, 324.5302
337.4968, 321.8465
337.9789, 319.2776
338.4611, 316.2184
338.9432, 313.2496
339.4253, 311.6650
339.9074, 311.8875
340.3895, 312.1873
340.8716, 311.5727
341.3538, 310.6011
341.8359, 310.5083
342.3180, 311.7654
342.8001, 313.5349
343.2822, 314.5796
343.7643, 314.8170
344.2465, 315.3381
344.7286, 316.7951
345.2107, 318.4076
345.6928, 319.4466
346.1749, 319.8066
346.6570, 319.3864
347.1392, 318.0360
347.6213, 315.6543
348.1034, 312.8966
348.5855, 310.0414
349.0676, 306.5642
349.5497, 301.6888
350.0319, 295.6961
350.5140, 289.9082
350.9961, 285.0587
351.4782, 281.0332
351.9603, 277.3018
352.4424, 274.3586
352.9246, 271.0581
353.4067, 266.4476
353.8888, 261.3126
354.3709, 257.0392
354.8530, 254.1474
355.3351, 252.3750
355.8173, 251.3942
356.2994, 251.8494
356.7815, 251.5748
357.2636, 249.5838
357.7457, 247.2269
358.2278, 245.8633
358.7100, 245.7068
359.1921, 246.0004
359.6742, 245.8833
360.1563, 245.1838
360.6384, 245.2584
361.1205, 246.7878
361.6027, 248.3878
362.0848, 249.1937
362.5669, 249.3812
363.0490, 249.6806
363.5311, 250.5910
364.0132, 252.0425
364.4954, 253.4748
364.9775, 254.7117
365.4596, 256.1303
365.9417, 257.9748
366.4238, 259.9901
366.9059, 261.8532
367.3881, 263.4400
367.8702, 264.7842
368.3523, 265.9133
368.8344, 266.1367
369.3165, 267.3392
369.7986, 270.2783
370.2808, 273.5869
370.7629, 276.1471
371.2450, 277.8846
371.7271, 279.5750
372.2092, 282.0496
372.6913, 285.4409
373.1735, 288.8858
373.6556, 292.0176
374.1377, 295.5549
374.6198, 299.8341
375.1019, 304.7285
375.5840, 309.8822
376.0662, 315.0761
376.5483, 320.3494
377.0304, 325.8047
377.5125, 331.7106
377.9946, 337.3920
378.4767, 342.8132
378.9589, 347.9079
379.4410, 352.8984
379.9231, 357.8036
380.4052, 361.8331
380.8873, 363.8144
381.3694, 363.6036
381.8516, 361.7067
382.3337, 357.5618
382.8158, 352.2236
383.2979, 346.0731
383.7800, 339.1685
384.2621, 331.4409
384.7443, 322.5917
385.2264, 312.7543
385.7085, 303.0868
386.1906, 293.2470
386.6727, 284.1350
387.1548, 276.0517
387.6370, 268.8382
388.1191, 262.3596
388.6012, 256.5765
389.0833, 251.3761
389.5654, 246.5599
390.0475, 242.0798
390.5297, 238.2128
391.0118, 235.3124
391.4939, 232.9221
391.9760, 230.6972
392.4581, 228.5870
392.9402, 226.8393
393.4224, 225.7968
393.9045, 225.3542
394.3866, 224.8385
394.8687, 224.0413
395.3508, 223.3584
395.8329, 223.1789
396.3151, 223.3773
396.7972, 223.5637
397.2793, 223.3965
397.7614, 223.2242
398.2435, 223.6578
398.7256, 224.7465
399.2078, 225.7846
399.6899, 226.2866
400.1720, 226.4999
400.6541, 226.9427
401.1362, 227.5714
401.6183, 228.5503
402.1004, 230.1826
402.5826, 232.2514
403.0647, 234.1407
403.5468, 235.6207
404.0289, 236.9610
404.5110, 238.6430
404.9931, 240.7292
405.4753, 242.4501
405.9574, 243.4276
406.4395, 244.1173
406.9216, 244.9969
407.4037, 246.0865
407.8858, 247.0608
408.3680, 247.7092
408.8501, 248.0122
409.3322, 247.8660
409.8143, 247.3428
410.2964, 246.3747
410.7785, 244.7336
411.2607, 242.6699
411.7428, 240.6040
412.2249, 238.7226
412.7070, 236.8677
413.1891, 234.7005
413.6712, 231.7083
414.1534, 229.3825
414.6355, 228.5092
415.1176, 227.6971
415.5997, 225.8219
416.0818, 222.9092
416.5639, 219.7709
417.0461, 217.0826
417.5282, 214.8462
418.0103, 213.1253
418.4924, 212.3822
418.9745, 211.6760
419.4566, 210.8814
419.9388, 209.9752
420.4209, 208.8428
420.9030, 207.4326
421.3851, 206.0437
421.8672, 205.3822
422.3493, 205.8298
422.8315, 206.0232
423.3136, 205.7421
423.7957, 205.2523
424.2778, 204.6380
424.7599, 203.9425
425.2420, 203.2594
425.7242, 202.6936
426.2063, 202.2237
426.6884, 201.6400
427.1705, 200.7999
427.6526, 200.0928
428.1347, 199.7579
428.6169, 199.6226
429.0990, 199.4585
429.5811, 199.2078
430.0632, 198.8542
430.5453, 198.2479
431.0274, 197.3767
431.5096, 196.8807
431.9917, 197.1473
432.4738, 197.6703
432.9559, 197.9371
433.4380, 197.9492
433.9201, 197.8066
434.4023, 197.4970
434.8844, 197.0808
435.3665, 196.5918
435.8486, 196.0024
436.3307, 195.6250
436.8128, 195.7892
437.2950, 196.3707
437.7771, 196.7840
438.2592, 197.1367
438.7413, 197.1851
439.2234, 196.5112
439.7055, 195.4308
440.1877, 194.7386
440.6698, 194.7491
441.1519, 195.1403
441.6340, 195.4099
442.1161, 195.5200
442.5982, 195.6094
443.0804, 195.6281
443.5625, 195.6710
444.0446, 195.7267
444.5267, 195.8498
445.0088, 196.2572
445.4909, 197.1699
445.9731, 198.5018
446.4552, 199.4207
446.9373, 199.5016
447.4194, 199.6835
447.9015, 200.0343
448.3836, 200.5852
448.8658, 201.4342
449.3479, 202.5822
449.8300, 203.8131
450.3121, 204.7571
450.7942, 205.2485
451.2763, 206.0776
451.7585, 207.6928
452.2406, 209.2316
452.7227, 210.1343
453.2048, 210.6928
453.6869, 211.6374
454.1690, 213.5135
454.6512, 215.8889
455.1333, 217.6313
455.6154, 218.5143
456.0975, 219.4324
456.5796, 220.5415
457.0617, 221.8811
457.5439, 223.5940
458.0260, 225.6856
458.5081, 227.8393
458.9902, 229.7738
459.4723, 231.5594
459.9544, 233.4512
460.4366, 235.4611
460.9187, 237.6305
461.4008, 240.1369
461.8829, 242.8352
462.3650, 245.3433
462.8471, 247.3488
463.3293, 249.4228
463.8114, 251.8864
464.2935, 254.7589
464.7756, 258.2598
465.2577, 262.6394
465.7398, 267.2386
466.2220, 270.8054
466.7041, 273.0992
467.1862, 275.4947
467.6683, 278.0796
468.1504, 280.8709
468.6325, 283.8983
469.1147, 287.1528
469.5968, 290.5204
470.0789, 293.9179
470.5610, 297.3904
471.0431, 301.1880
471.5252, 305.6167
472.0074, 310.0316
472.4895, 313.9081
472.9716, 317.9889
473.4537, 322.9909
473.9358, 329.0642
474.4179, 335.9161
474.9001, 343.2759
475.3822, 351.1738
475.8643, 358.9799
476.3464, 366.3976
476.8285, 374.0229
477.3106, 382.2335
477.7928, 390.7311
478.2749, 398.8935
478.7570, 406.3089
479.2391, 413.8016
479.7212, 422.5897
480.2033, 432.7397
480.6855, 443.8773
481.1676, 456.0736
481.6497, 469.3411
482.1318, 483.8240
482.6139, 499.4532
483.0960, 515.2881
483.5782, 529.9461
484.0603, 544.9739
484.5424, 563.2617
485.0245, 584.9329
485.5066, 607.6469
485.9887, 629.8111
486.4709, 652.4438
486.9530, 677.7786
487.4351, 706.5768
487.9172, 736.1813
488.3993, 766.7119
488.8814, 797.2419
489.3636, 827.1014
489.8457, 856.0355
490.3278, 882.1672
490.8099, 904.3754
491.2920, 922.7179
491.7741, 932.8342
492.2563, 936.8054
492.7384, 931.7881
493.2205, 914.3820
493.7026, 888.3039
494.1847, 857.5285
494.6668, 823.8184
495.1490, 788.5892
495.6311, 753.2377
496.1132, 716.5663
496.5953, 684.0731
497.0774, 655.9942
497.5595, 631.8544
498.0417, 612.0427
498.5238, 596.0803
499.0059, 583.1596
499.4880, 572.9692
499.9701, 565.1944
500.4522, 559.3544
500.9344, 555.5107
501.4165, 553.0632
501.8986, 551.6288
502.3807, 551.8938
502.8628, 554.7814
503.3449, 560.1922
503.8271, 565.9741
504.3092, 570.7570
504.7913, 575.4446
505.2734, 581.2773
505.7555, 588.3255
506.2376, 596.6824
506.7198, 606.9582
507.2019, 618.3426
507.6840, 628.2267
508.1661, 636.1132
508.6482, 643.6899
509.1303, 651.5959
509.6125, 659.3311
510.0946, 666.4437
510.5767, 672.7905
511.0588, 678.2097
511.5409, 682.6735
512.0230, 686.1735
512.5051, 687.3475
512.9872, 685.5767
513.4694, 682.1674
513.9515, 677.5701
514.4336, 671.3516
514.9157, 662.9727
515.3978, 652.2736
515.8799, 639.6403
516.3621, 625.1531
516.8442, 608.6904
517.3263, 592.0498
517.8084, 575.5379
518.2905, 558.1732
518.7726, 539.0297
519.2548, 518.9435
519.7369, 499.2488
520.2190, 480.1774
520.7011, 461.9474
521.1832, 444.7382
521.6653, 428.5435
522.1475, 413.4072
522.6296, 399.5589
523.1117, 386.3559
523.5938, 372.9573
524.0759, 359.5114
524.5580, 347.3556
525.0402, 337.4966
525.5223, 328.3100
526.0044, 318.4672
526.4865, 308.3361
526.9686, 298.8875
527.4507, 290.5750
527.9329, 283.2625
528.4150, 276.7545
528.8971, 271.3233
529.3792, 266.2182
529.8613, 261.4316
530.3434, 256.9802
530.8256, 253.0762
531.3077, 249.5004
531.7898, 245.6740
532.2719, 241.2036
532.7540, 236.4971
533.2361, 232.6978
533.7183, 230.1428
534.2004, 227.4929
534.6825, 224.2231
535.1646, 221.0313
535.6467, 218.3487
536.1288, 216.1385
536.6110, 214.1600
537.0931, 212.4839
537.5752, 210.8499
538.0573, 208.5888
538.5394, 205.6463
539.0215, 203.2115
539.5037, 201.9581
539.9858, 201.3279
540.4679, 200.4074
540.9500, 199.1770
541.4321, 197.8171
541.9142, 196.1870
542.3964, 194.5774
542.8785, 193.2760
543.3606, 192.2876
543.8427, 191.5041
544.3248, 190.8975
544.8069, 190.3835
545.2891, 189.6459
545.7712, 188.3798
546.2533, 187.3060
546.7354, 186.4880
547.2175, 185.8375
547.6996, 185.5023
548.1818, 185.3268
548.6639, 184.7462
549.1460, 183.1663
549.6281, 180.9497
550.1102, 179.7301
550.5923, 179.9012
551.0745, 180.0328
551.5566, 179.5202
552.0387, 178.9019
552.5208, 178.6569
553.0029, 178.8126
553.4850, 178.9115
553.9672, 178.6594
554.4493, 178.1892
554.9314, 177.6072
555.4135, 176.9183
555.8956, 176.6419
556.3777, 177.2232
556.8599, 178.2861
557.3420, 178.7586
557.8241, 178.3560
558.3062, 178.1564
558.7883, 178.4903
559.2704, 179.0287
559.7526, 179.5555
560.2347, 180.0051
560.7168, 180.3162
561.1989, 180.4405
561.6810, 180.3906
562.1631, 180.1558
562.6453, 179.0750
563.1274, 178.9920
563.6095, 180.7521
564.0916, 182.9348
564.5737, 184.6100
565.0558, 185.7110
565.5380, 186.6168
566.0201, 187.6004
566.5022, 188.5821
566.9843, 189.1441
567.4664, 189.1133
567.9485, 189.8723
568.4307, 192.4193
568.9128, 195.6346
569.3949, 197.8836
569.8770, 199.0861
570.3591, 200.4907
570.8412, 202.5240
571.3234, 204.9627
571.8055, 207.7374
572.2876, 210.7469
572.7697, 213.4955
573.2518, 215.6046
573.7339, 217.5646
574.2161, 220.6415
574.6982, 226.0115
575.1803, 230.4738
575.6624, 233.4443
576.1445, 236.0563
576.6266, 238.6755
577.1088, 241.5231
577.5909, 244.9831
578.0730, 249.3420
578.5551, 254.2063
579.0372, 258.7311
579.5193, 262.8679
580.0015, 266.8720
580.4836, 270.5580
580.9657, 274.3568
581.4478, 278.6166
581.9299, 283.2763
582.4120, 288.0589
582.8942, 292.9330
583.3763, 297.8421
583.8584, 302.6657
584.3405, 307.4431
584.8226, 312.4354
585.3047, 317.7837
585.7869, 323.1221
586.2690, 327.9240
586.7511, 332.0941
587.2332, 336.1128
587.7153, 340.3805
588.1974, 344.1024
588.6796, 346.9957
589.1617, 349.1202
589.6438, 350.6987
590.1259, 351.7883
590.6080, 352.0909
591.0901, 351.1552
591.5723, 348.9415
592.0544, 345.8190
592.5365, 341.5854
593.0186, 336.7213
593.5007, 331.4899
593.9828, 325.8487
594.4650, 319.6581
594.9471, 312.8985
595.4292, 305.6718
595.9113, 297.6380
596.3934, 289.3028
596.8755, 282.1587
597.3577, 276.4816
597.8398, 270.8390
598.3219, 264.0170
598.8040, 256.2856
599.2861, 249.4263
599.7682, 243.9357
600.2504, 238.5205
600.7325, 232.6820
601.2146, 227.0045
601.6967, 222.1062
602.1788, 217.9710
602.6609, 214.0826
603.1431, 210.0449
603.6252, 205.9375
604.1073, 202.1871
604.5894, 198.7468
605.0715, 195.7783
605.5536, 193.6915
606.0358, 191.8166
606.5179, 189.6280
607.0000, 187.1611
607.4821, 184.8496
607.9642, 182.9413
608.4464, 181.2800
608.9285, 179.8058
609.4106, 178.4586
609.8927, 176.8767
610.3748, 174.8530
610.8569, 172.7715
611.3391, 171.2143
611.8212, 170.3488
612.3033, 169.4092
612.7854, 168.1581
613.2675, 167.0891
613.7496, 166.6808
614.2318, 166.5226
614.7139, 165.7817
615.1960, 164.1923
615.6781, 162.6010
616.1602, 162.5006
616.6423, 164.0115
617.1245, 164.0483
617.6066, 161.5956
618.0887, 159.3670
618.5708, 158.9181
619.0529, 159.4166
619.5350, 159.8452
620.0172, 160.1097
620.4993, 160.0447
620.9814, 159.4204
621.4635, 158.4643
621.9456, 157.4617
622.4277, 156.4629
622.9099, 155.5260
623.3920, 154.6395
623.8741, 153.9111
624.3562, 153.7395
624.8383, 154.7107
625.3204, 155.3996
625.8026, 155.7152
626.2847, 155.8301
626.7668, 155.8244
627.2489, 155.7148
627.7310, 155.4776
628.2131, 155.0659
628.6953, 154.6247
629.1774, 154.4115
629.6595, 154.4330
630.1416, 154.5794
630.6237, 155.0073
631.1058, 155.2667
631.5880, 154.8857
632.0701, 154.0075
632.5522, 153.0115
633.0343, 151.5767
633.5164, 150.4842
633.9985, 150.2154
634.4807, 150.5014
634.9628, 151.1147
635.4449, 151.9293
635.9270, 152.4956
636.4091, 152.3699
636.8912, 151.6152
637.3734, 150.8966
637.8555, 150.2486
638.3376, 149.5814
638.8197, 148.6502
639.3018, 147.8673
639.7839, 147.5842
640.2661, 147.7851
640.7482, 148.1930
641.2303, 148.8639
641.7124, 149.4765
642.1945, 149.4110
642.6766, 148.7242
643.1588, 148.0376
643.6409, 147.4950
644.1230, 147.1759
644.6051, 147.2502
645.0872, 147.7891
645.5693, 148.1150
646.0515, 148.1361
646.5336, 148.0506
647.0157, 147.6375
647.4978, 147.2952
647.9799, 147.7498
648.4620, 149.0722
648.9442, 150.3429
649.4263, 150.4840
649.9084, 149.6596
650.3905, 149.4223
650.8726, 149.8686
651.3547, 150.6554
651.8369, 151.9841
652.3190, 153.3881
652.8011, 154.2912
653.2832, 154.6702
653.7653, 155.2269
654.2474, 156.5810
654.7296, 157.9525
655.2117, 158.3557
655.6938, 158.1162
656.1759, 158.3466
656.6580, 159.4897
657.1401, 161.0686
657.6223, 162.3552
658.1044, 163.2100
658.5865, 164.6100
659.0686, 167.0941
659.5507, 169.5351
660.0328, 171.7296
660.5150, 173.6852
660.9971, 175.3222
661.4792, 176.6403
661.9613, 178.0368
662.4434, 179.8833
662.9255, 182.0106
663.4077, 183.9680
663.8898, 185.7393
664.3719, 187.6944
664.8540, 190.0591
665.3361, 192.6045
665.8182, 194.9402
666.3004, 197.0113
666.7825, 199.0571
667.2646, 200.9274
667.7467, 202.9462
668.2288, 205.5261
668.7109, 208.2843
669.1931, 210.5480
669.6752, 212.1244
670.1573, 213.4951
670.6394, 215.4777
671.1215, 217.9591
671.6036, 219.2466
672.0858, 219.0573
672.5679, 218.5441
673.0500, 218.4349
673.5321, 218.1257
674.0142, 216.6863
674.4963, 213.9730
674.9785, 211.1369
675.4606, 208.5765
675.9427, 205.9707
676.4248, 203.0831
676.9069, 199.9417
677.3890, 196.5961
677.8712, 193.0571
678.3533, 189.5417
678.8354, 186.4290
679.3175, 183.8035
679.7996, 180.7022
680.2817, 176.4373
680.7639, 172.7333
681.2460, 170.3970
681.7281, 168.7592
682.2102, 167.1389
682.6923, 165.4307
683.1744, 163.7633
683.6566, 162.3726
684.1387, 160.9470
684.6208, 158.8751
685.1029, 156.3429
685.5850, 154.1257
686.0671, 152.5423
686.5493, 151.6064
687.0314, 151.4585
687.5135, 152.3766
687.9956, 152.5869
688.4777, 151.2484
688.9598, 150.1723
689.4420, 150.0589
689.9241, 150.3054
690.4062, 150.2173
690.8883, 149.6703
691.3704, 149.0470
691.8525, 148.6020
692.3347, 148.2838
692.8168, 148.0687
693.2989, 147.9347
693.7810, 147.5377
694.2631, 146.6685
694.7452, 145.7111
695.2274, 145.2004
695.7095, 145.2040
696.1916, 145.2819
696.6737, 145.5567
697.1558, 145.7547
697.6379, 145.6361
698.1201, 145.4815
698.6022, 145.7356
699.0843, 146.4019
699.5664, 146.9139
700.0485, 146.7443
700.5306, 146.1076
701.0128, 145.5344
701.4949, 145.0251
701.9770, 144.5315
702.4591, 143.9652
702.9412, 143.5553
703.4233, 143.6066
703.9055, 144.1489
704.3876, 144.7507
704.8697, 145.5720
705.3518, 146.2567
705.8339, 146.3640
706.3160, 146.4443
706.7982, 147.3326
707.2803, 148.9800
707.7624, 150.4205
708.2445, 150.8168
708.7266, 150.5333
709.2087, 150.6586
709.6909, 151.2669
710.1730, 151.4388
710.6550, 150.7829
711.1371, 149.9319
711.6193, 149.5441
712.1014, 149.5084
712.5835, 149.1654
713.0656, 148.2684
713.5477, 147.3107
714.0298, 146.4401
714.5120, 145.6017
714.9941, 144.7317
715.4762, 143.8230
715.9583, 142.9497
716.4404, 142.1906
716.9225, 141.3809
717.4047, 140.0111
717.8868, 137.9771
718.3689, 136.3696
718.8510, 135.4657
719.3331, 134.8053
719.8152, 134.1602
720.2974, 133.5083
720.7795, 132.7815
721.2616, 131.9333
721.7437, 131.1024
722.2258, 130.1609
722.7079, 129.3902
723.1901, 129.2406
723.6722, 129.5245
724.1543, 129.5480
724.6364, 128.9366
725.1185, 128.1158
725.6006, 127.9899
726.0828, 128.6627
726.5649, 128.4217
727.0470, 126.5951
727.5291, 125.1076
728.0112, 125.3335
728.4933, 126.3335
728.9755, 126.5491
729.4576, 125.7143
729.9397, 125.1449
730.4218, 125.4302
730.9039, 125.9298
731.3860, 126.1869
731.8682, 126.2514
732.3503, 126.3378
732.8324, 126.5133
733.3145, 126.5993
733.7966, 126.3359
734.2787, 125.7489
734.7609, 125.2186
735.2430, 124.6836
735.7251, 124.4069
736.2072, 124.6721
736.6893, 125.0793
737.1714, 125.2530
737.6536, 125.1919
738.1357, 124.7747
738.6178, 123.3027
739.0999, 122.1995
739.5820, 122.5002
740.0641, 123.5261
740.5463, 124.4335
741.0284, 124.9881
741.5105, 125.2029
741.9926, 125.0406
742.4747, 124.6150
742.9568, 124.2924
743.4390, 124.0772
743.9211, 123.9556
744.4032, 124.0583
744.8853, 124.0488
745.3674, 123.4965
745.8495, 122.5949
746.3317, 121.9973
746.8138, 121.9338
747.2959, 121.8915
747.7780, 121.5917
748.2601, 121.3320
748.7422, 121.4533
749.2244, 121.8829
749.7065, 122.3393
750.1886, 122.6856
750.6707, 122.9004
751.1528, 122.9689
751.6349, 122.8881
752.1171, 122.5178
752.5992, 121.7161
753.0813, 121.0823
753.5634, 120.9423
754.0455, 121.1582
754.5276, 121.5317
755.0098, 122.1557
755.4919, 122.4950
755.9740, 122.3713
756.4561, 122.0642
756.9382, 121.4527
757.4203, 120.8671
757.9025, 120.8628
758.3846, 121.5256
758.8667, 122.3281
759.3488, 122.7823
759.8309, 122.9976
760.3130, 123.3436
760.7952, 123.8259
761.2773, 123.9982
761.7594, 123.5320
762.2415, 123.2542
762.7236, 124.3294
763.2057, 126.6804
763.6879, 127.4675
764.1700, 124.9948
764.6521, 123.4001
765.1342, 124.0068
765.6163, 125.2614
766.0984, 126.2064
766.5806, 126.6458
767.0627, 126.4677
767.5448, 125.5095
768.0269, 124.3432
768.5090, 123.5784
768.9911, 123.1842
769.4733, 123.1283
769.9554, 123.4103
770.4375, 123.7510
770.9196, 124.0478
771.4017, 124.1832
771.8839, 123.8494
772.3660, 122.7598
772.8481, 122.0217
773.3302, 121.8248
773.8123, 121.7355
774.2944, 121.6222
774.7766, 121.5282
775.2587, 121.5825
775.7408, 121.7858
776.2229, 121.8260
776.7050, 121.3274
777.1871, 120.7016
777.6693, 120.5426
778.1514, 120.6816
778.6335, 120.4715
779.1156, 119.7524
779.5977, 119.1775
780.0798, 119.4409
780.5620, 120.3773
781.0441, 120.8946
781.5262, 120.9014
782.0083, 120.6898
782.4904, 120.0210
782.9725, 119.4276
783.4547, 119.2288
783.9368, 119.3491
784.4189, 119.6560
784.9010, 120.3427
785.3831, 120.6606
785.8652, 119.8379
786.3474, 118.7690
786.8295, 118.4245
787.3116, 118.7056
787.7937, 119.1014
788.2758, 119.3813
788.7579, 119.5125
789.2401, 119.3266
789.7222, 118.8562
790.2043, 118.8844
790.6864, 119.5219
791.1685, 120.2113
791.6506, 120.7973
792.1328, 121.2828
792.6149, 121.6922
793.0970, 122.0261
793.5791, 122.1681
794.0612, 122.0957
794.5433, 121.8481
795.0255, 121.1031
795.5076, 120.4231
795.9897, 120.4116
796.4718, 121.0182
796.9539, 121.7923
797.4360, 122.5260
797.9182, 123.1656
798.4003, 123.5045
798.8824, 123.6682
799.3645, 124.2369
799.8466, 125.2907
800.3287, 126.3038
800.8109, 127.0079
801.2930, 127.4211
801.7751, 127.5310
802.2572, 127.1106
802.7393, 127.1432
803.2214, 128.0426
803.7036, 128.9205
804.1857, 129.4524
804.6678, 129.8930
805.1499, 130.4628
805.6320, 131.2106
806.1141, 132.2288
806.5963, 133.9331
807.0784, 135.5695
807.5605, 136.3310
808.0426, 136.6235
808.5247, 137.2388
809.0068, 138.2952
809.4890, 139.4045
809.9711, 140.2908
810.4532, 140.9888
810.9353, 141.5399
811.4174, 141.9074
811.8995, 142.4516
812.3817, 143.3111
812.8638, 144.1157
813.3459, 144.5239
813.8280, 144.8026
814.3101, 145.6823
814.7922, 147.5618
815.2744, 148.4008
815.7565, 147.0835
816.2386, 145.5706
816.7207, 144.9273
817.2028, 144.6794
817.6849, 144.1427
818.1671, 143.1845
818.6492, 142.0856
819.1313, 141.0546
819.6134, 140.0005
820.0955, 138.7097
820.5776, 137.2510
821.0598, 135.9385
821.5419, 134.8399
822.0240, 133.7686
822.5061, 132.5536
822.9882, 131.3028
823.4703, 130.3891
823.9525, 130.0448
824.4346, 129.4764
824.9167, 128.4747
825.3988, 127.4887
825.8809, 126.7947
826.3630, 126.1717
826.8452, 125.1991
827.3273, 123.7997
827.8094, 122.8446
828.2915, 123.1750
828.7736, 123.5476
829.2557, 122.9206
829.7379, 121.7780
830.2200, 120.9598
830.7021, 120.5896
831.1842, 120.2180
831.6663, 119.4833
832.1484, 118.5734
832.6306, 117.7343
833.1127, 116.9951
833.5948, 117.2013
834.0769, 118.6977
834.5590, 119.9586
835.0411, 120.0192
835.5233, 119.2224
836.0054, 118.3063
836.4875, 116.9815
836.9696, 116.3734
837.4517, 117.2602
837.9338, 117.8698
838.4160, 117.3254
838.8981, 116.3966
839.3802, 115.8774
839.8623, 115.8576
840.3444, 116.0806
840.8265, 116.6617
841.3087, 117.1718
841.7908, 117.1610
842.2729, 116.8736
842.7550, 116.7245
843.2371, 116.7513
843.7192, 116.7875
844.2014, 116.7438
844.6835, 116.5504
845.1656, 115.8841
845.6477, 114.7343
846.1298, 114.5184
846.6119, 115.5886
847.0941, 116.3723
847.5762, 116.0980
848.0583, 115.3177
848.5404, 114.7816
849.0225, 114.5125
849.5046, 114.2924
849.9868, 114.0254
850.4689, 113.9312
850.9510, 114.1973
851.4331, 114.5424
851.9152, 114.8168
852.3973, 114.9606
852.8795, 114.8643
853.3616, 114.4271
853.8437, 113.9345
854.3258, 113.4454
854.8079, 113.1365
855.2900, 113.4546
855.7722, 114.2204
856.2543, 114.7229
856.7364, 114.6768
857.2185, 114.3388
857.7006, 113.9696
858.1827, 113.5916
858.6649, 113.4226
859.1470, 113.5204
859.6291, 113.4243
860.1112, 112.8915
860.5933, 112.4285
861.0754, 112.5883
861.5576, 113.1972
862.0397, 113.3437
862.5218, 112.6179
863.0039, 112.1311
863.4860, 112.0971
863.9681, 112.1317
864.4503, 111.8817
864.9324, 111.6440
865.4145, 112.0458
865.8966, 113.1791
866.3787, 113.9625
866.8608, 113.3891
867.3430, 112.5297
867.8251, 112.5133
868.3072, 112.9462
868.7893, 112.9578
869.2714, 112.4602
869.7535, 112.0803
870.2357, 112.2840
870.7178, 112.7475
871.1999, 112.7990
871.6820, 112.4479
872.1641, 111.9837
872.6462, 111.3575
873.1284, 111.0548
873.6105, 111.4893
874.0926, 112.0474
874.5747, 111.6792
875.0568, 110.1995
875.5389, 109.4144
876.0211, 109.7406
876.5032, 110.2269
876.9853, 111.0898
877.4674, 111.7601
877.9495, 111.7094
878.4316, 111.1045
878.9138, 110.4979
879.3959, 110.0530
879.8780, 109.5804
880.3601, 108.7504
880.8422, 108.0446
881.3243, 108.1097
881.8065, 108.6381
882.2886, 108.9062
882.7707, 108.7002
883.2528, 108.3456
883.7349, 108.0776
884.2170, 107.9344
884.6992, 108.0765
885.1813, 108.4613
885.6634, 108.7761
886.1455, 108.9696
886.6276, 108.9433
887.1097, 108.5989
887.5919, 108.0519
888.0740, 107.5919
888.5561, 107.2202
889.0382, 106.9352
889.5203, 106.7347
890.0024, 106.6275
890.4846, 106.7123
890.9667, 106.8237
891.4488, 106.7296
891.9309, 106.4563
892.4130, 106.3682
892.8951, 106.7762
893.3773, 107.0333
893.8594, 106.8448
894.3415, 106.5153
894.8236, 106.1950
895.3057, 105.9632
895.7878, 105.9993
896.2700, 106.3791
896.7521, 106.6241
897.2342, 106.1883
897.7163, 105.4976
898.1984, 105.0943
898.6805, 104.9598
899.1627, 105.0858
899.6448, 105.4206
900.1269, 105.5607
900.6090, 105.1268
901.0911, 104.3931
901.5732, 104.1200
902.0554, 104.3172
902.5375, 104.3686
903.0196, 104.1699
903.5017, 104.0732
903.9838, 104.3012
904.4659, 104.6451
904.9481, 104.7721
905.4302, 104.6609
905.9123, 104.5374
906.3944, 104.3977
906.8765, 104.2501
907.3586, 103.9844
907.8408, 103.8127
908.3229, 104.0859
908.8050, 104.5483
909.2871, 104.4277
909.7692, 103.2504
910.2513, 102.5648
910.7335, 103.5039
911.2156, 104.5822
911.6977, 104.6367
912.1798, 104.1291
912.6619, 103.8718
913.1440, 104.0132
913.6262, 104.1926
914.1083, 104.1920
914.5904, 104.0671
915.0725, 103.8023
915.5546, 103.4923
916.0367, 103.3683
916.5189, 103.4473
917.0010, 103.6630
917.4831, 103.9878
917.9652, 104.3167
918.4473, 104.4397
918.9294, 104.4016
919.4116, 104.8028
919.8937, 105.7571
920.3758, 106.2842
920.8579, 106.0460
921.3400, 105.5786
921.8221, 105.2736
922.3043, 105.1061
922.7864, 104.9568
923.2685, 104.6053
923.7506, 104.7548
924.2327, 106.0870
924.7148, 107.1124
925.1970, 107.2420
925.6791, 106.8945
926.1612, 106.3183
926.6433, 105.6040
927.1254, 105.3972
927.6075, 106.5826
928.0897, 107.3365
928.5718, 106.7139
929.0539, 105.6143
929.5360, 104.4210
930.0181, 103.4901
930.5002, 103.6076
930.9824, 104.9870
931.4645, 106.0536
931.9466, 105.1200
932.4287, 103.5596
932.9108, 103.1534
933.3929, 103.4762
933.8751, 103.4425
934.3572, 102.9260
934.8393, 102.5863
935.3214, 102.8627
935.8035, 103.4260
936.2856, 103.6803
936.7678, 103.6899
937.2499, 104.0121
937.7320, 104.6816
938.2141, 104.9941
938.6962, 104.6574
939.1783, 104.1430
939.6605, 103.9676
940.1426, 104.0451
940.6247, 103.7669
941.1068, 102.7783
941.5889, 102.5520
942.0710, 103.5246
942.5532, 104.7441
943.0353, 106.0416
943.5174, 107.1217
943.9995, 107.3255
944.4816, 106.5462
944.9637, 106.2558
945.4459, 107.0544
945.9280, 107.5985
946.4101, 107.4185
946.8922, 107.0375
947.3743, 106.7907
947.8564, 106.6631
948.3386, 106.5597
948.8207, 106.4666
949.3028, 106.3456
949.7849, 106.1552
950.2670, 105.9557
950.7491, 105.9849
951.2313, 105.9259
951.7134, 105.0777
952.1955, 103.6114
952.6776, 102.6301
953.1597, 102.8307
953.6418, 103.3265
954.1240, 103.1211
954.6061, 102.5573
955.0882, 102.3319
955.5703, 102.3438
956.0524, 101.9057
956.5345, 100.8589
957.0166, 100.0990
957.4987, 100.5919
957.9808, 101.6945
958.4630, 101.5571
958.9451, 100.3139
959.4272, 99.87636
959.9093, 100.5068
960.3914, 100.9535
960.8735, 100.5739
961.3557, 99.86864
961.8378, 99.54104
962.3199, 99.57793
962.8020, 99.63663
963.2841, 99.69800
963.7662, 99.86373
964.2484, 100.2620
964.7305, 100.5635
965.2126, 100.5505
965.6947, 100.2989
966.1768, 99.92834
966.6589, 99.32030
967.1411, 99.06218
967.6232, 99.46143
968.1053, 99.78692
968.5874, 99.65734
969.0695, 99.58897
969.5516, 100.2840
970.0338, 101.3563
970.5159, 101.5931
970.9980, 100.4799
971.4801, 99.51479
971.9622, 99.23663
972.4443, 99.11105
972.9265, 98.74313
973.4086, 98.40694
973.8907, 98.61034
974.3728, 99.24695
974.8549, 99.57646
975.3370, 99.14101
975.8192, 98.67561
976.3013, 98.78883
976.7834, 99.09438
977.2655, 99.23047
977.7476, 99.18217
978.2297, 98.92417
978.7119, 98.49950
979.1940, 98.16825
979.6761, 98.10564
980.1582, 98.27151
980.6403, 98.73539
981.1224, 99.34577
981.6046, 99.67380
982.0867, 99.74919
982.5688, 99.99735
983.0509, 100.5809
983.5330, 101.0613
984.0151, 100.9099
984.4973, 100.3249
984.9794, 99.85791
985.4615, 99.52234
985.9436, 99.48791
986.4257, 99.77915
986.9078, 100.4009
987.3900, 101.4072
987.8721, 102.5257
988.3542, 103.3524
988.8363, 103.8905
989.3184, 104.1818
989.8005, 104.1329
990.2827, 104.2923
990.7648, 104.8237
991.2469, 105.4193
991.7290, 105.8878
992.2111, 106.2770
992.6932, 106.6758
993.1754, 107.0579
993.6575, 107.5958
994.1396, 108.3294
994.6217, 109.1489
995.1038, 110.0681
995.5859, 111.0245
996.0681, 112.0132
996.5502, 112.9932
997.0323, 113.8287
997.5144, 114.4027
997.9965, 115.1799
998.4786, 116.7151
998.9608, 117.7856
999.4429, 117.6579
999.9250, 117.1768
1000.407, 116.9768
1000.889, 117.0865
1001.371, 117.4409
1001.853, 118.1458
1002.336, 118.7410
1002.818, 118.9999
1003.300, 119.2100
1003.782, 119.4261
1004.264, 119.7604
1004.746, 120.4374
1005.228, 121.3669
1005.710, 122.1291
1006.193, 122.5732
1006.675, 122.8119
1007.157, 122.4841
1007.639, 122.3756
1008.121, 123.4970
1008.603, 125.2200
1009.085, 126.4650
1009.567, 127.0724
1010.049, 127.4720
1010.532, 127.8029
1011.014, 128.3078
1011.496, 129.2006
1011.978, 130.4238
1012.460, 132.0398
1012.942, 133.8812
1013.424, 135.6364
1013.906, 137.1804
1014.388, 138.4098
1014.871, 139.2005
1015.353, 139.7486
1015.835, 140.3548
1016.317, 140.9312
1016.799, 141.0639
1017.281, 140.9171
1017.763, 141.3567
1018.245, 142.6260
1018.728, 144.1093
1019.210, 145.3164
1019.692, 146.1881
1020.174, 146.4775
1020.656, 146.2957
1021.138, 146.1998
1021.620, 146.2237
1022.102, 146.1978
1022.584, 146.0609
1023.067, 145.7166
1023.549, 145.0480
1024.031, 144.1193
1024.513, 143.2881
1024.995, 142.5311
1025.477, 140.6288
1025.959, 137.3884
1026.441, 134.2798
1026.924, 131.9464
1027.406, 129.8616
1027.888, 127.4100
1028.370, 124.6892
1028.852, 122.2608
1029.334, 120.1338
1029.816, 118.2362
1030.298, 116.6017
1030.781, 114.9916
1031.263, 113.2703
1031.745, 111.6439
1032.227, 110.3927
1032.709, 109.4779
1033.191, 108.5128
1033.673, 107.5087
1034.155, 106.3757
1034.637, 104.8643
1035.120, 103.8477
1035.602, 104.0690
1036.084, 104.4672
1036.566, 103.5488
1037.048, 101.4344
1037.530, 100.0434
1038.012, 99.48441
1038.494, 99.43559
1038.976, 100.3004
1039.459, 100.9909
1039.941, 100.8326
1040.423, 100.4272
1040.905, 100.6849
1041.387, 101.5495
1041.869, 101.6546
1042.351, 100.3840
1042.833, 99.38331
1043.316, 98.79033
1043.798, 98.39723
1044.280, 98.18378
1044.762, 98.07713
1045.244, 97.92677
1045.726, 97.75481
1046.208, 97.94408
1046.690, 99.38689
1047.172, 99.83863
1047.655, 97.77996
1048.137, 96.25908
1048.619, 97.29812
1049.101, 99.18803
1049.583, 99.89600
1050.065, 99.42800
1050.547, 98.96786
1051.029, 98.47403
1051.511, 98.29580
1051.994, 98.73573
1052.476, 99.21036
1052.958, 99.48155
1053.440, 99.59488
1053.922, 99.49989
1054.404, 99.27065
1054.886, 99.33292
1055.368, 99.73560
1055.851, 100.4952
1056.333, 102.0822
1056.815, 103.4936
1057.297, 104.1537
1057.779, 104.3624
1058.261, 104.2260
1058.743, 103.9496
1059.225, 104.3554
1059.708, 105.9855
1060.190, 107.5049
1060.672, 108.5839
1061.154, 109.3652
1061.636, 109.6926
1062.118, 109.9322
1062.600, 110.5155
1063.082, 111.4072
1063.564, 112.2406
1064.047, 112.8432
1064.529, 113.6314
1065.011, 114.9447
1065.493, 116.2765
1065.975, 117.2465
1066.457, 118.1421
1066.939, 119.3717
1067.421, 120.8336
1067.903, 122.0683
1068.386, 122.9222
1068.868, 123.6534
1069.350, 124.0320
1069.832, 124.7014
1070.314, 126.5218
1070.796, 128.4603
1071.278, 129.3056
1071.760, 129.2778
1072.243, 129.3146
1072.725, 129.6650
1073.207, 130.1337
1073.689, 130.9105
1074.171, 131.4553
1074.653, 131.2908
1075.135, 130.8791
1075.617, 130.6989
1076.099, 130.6795
1076.582, 130.5405
1077.064, 130.2091
1077.546, 129.7705
1078.028, 129.2000
1078.510, 128.6068
1078.992, 128.1785
1079.474, 127.6452
1079.956, 126.4063
1080.438, 124.9705
1080.921, 124.6291
1081.403, 125.6196
1081.885, 126.0228
1082.367, 124.1374
1082.849, 122.5782
1083.331, 123.2380
1083.813, 124.2576
1084.295, 123.9690
1084.777, 122.8932
1085.260, 122.1226
1085.742, 121.8422
1086.224, 121.5278
1086.706, 120.6595
1087.188, 120.1983
1087.670, 120.8301
1088.152, 121.7842
1088.634, 122.7274
1089.117, 123.4593
1089.599, 123.5443
1090.081, 123.1111
1090.563, 123.1832
1091.045, 124.3914
1091.527, 125.5349
1092.009, 126.1472
1092.491, 126.4956
1092.974, 126.4447
1093.456, 126.4406
1093.938, 127.2801
1094.420, 128.7048
1094.902, 129.3539
1095.384, 128.4649
1095.866, 128.1040
1096.348, 129.6649
1096.830, 131.1945
1097.313, 131.7825
1097.795, 131.7197
1098.277, 130.7718
1098.759, 129.5553
1099.241, 129.7922
1099.723, 132.1542
1100.205, 133.9911
1100.687, 134.2432
1101.169, 134.1351
1101.652, 133.9711
1102.134, 133.8287
1102.616, 133.7423
1103.098, 133.7199
1103.580, 133.8996
1104.062, 134.3309
1104.544, 134.1700
1105.026, 132.8901
1105.509, 131.4589
1105.991, 130.3431
1106.473, 128.9497
1106.955, 126.6846
1107.437, 124.0172
1107.919, 121.5088
1108.401, 119.2353
1108.883, 117.4932
1109.365, 117.1037
1109.848, 116.0395
1110.330, 112.9496
1110.812, 110.3935
1111.294, 110.2250
1111.776, 110.6893
1112.258, 109.8336
1112.740, 107.8157
1113.222, 105.8681
1113.704, 103.7978
1114.187, 102.3805
1114.669, 102.3169
1115.151, 102.0473
1115.633, 100.8502
1116.115, 99.52488
1116.597, 98.78722
1117.079, 98.40285
1117.561, 97.70934
1118.044, 96.57168
1118.526, 95.72021
1119.008, 95.42587
1119.490, 94.94212
1119.972, 93.91930
1120.454, 92.99623
1120.936, 92.64304
1121.418, 92.53536
1121.901, 92.05514
1122.383, 91.18351
1122.865, 90.93449
1123.347, 91.66869
1123.829, 92.08646
1124.311, 92.01772
1124.793, 91.69848
1125.275, 91.10335
1125.757, 90.55160
1126.240, 90.51411
1126.722, 90.81271
1127.204, 90.33908
1127.686, 88.73109
1128.168, 88.26107
1128.650, 89.37856
1129.132, 90.01024
1129.614, 89.37869
1130.096, 88.64451
1130.579, 88.79375
1131.061, 89.42517
1131.543, 89.55433
1132.025, 89.17516
1132.507, 88.90735
1132.989, 88.75771
1133.471, 88.61910
1133.953, 88.48152
1134.436, 88.13134
1134.918, 87.39513
1135.400, 86.75776
1135.882, 86.99159
1136.364, 87.86074
1136.846, 88.46107
1137.328, 88.76836
1137.810, 88.38026
1138.292, 87.33282
1138.775, 86.65996
1139.257, 86.74914
1139.739, 86.92133
1140.221, 86.42705
1140.703, 85.98814
1141.185, 87.84095
1141.667, 90.70876
1142.149, 90.06292
1142.631, 86.74944
1143.114, 85.02245
1143.596, 85.69019
1144.078, 86.67661
1144.560, 86.78650
1145.042, 86.43668
1145.524, 86.00309
1146.006, 85.51572
1146.488, 84.87263
1146.971, 84.27506
1147.453, 84.24566
1147.935, 84.65605
1148.417, 84.86557
1148.899, 84.66245
1149.381, 84.49679
1149.863, 84.86217
1150.345, 85.17213
1150.828, 84.74564
1151.310, 84.09756
1151.792, 83.77759
1152.274, 83.71237
1152.756, 83.69332
1153.238, 83.67882
1153.720, 83.75584
1154.202, 84.09033
1154.684, 84.12080
1155.167, 83.08942
1155.649, 82.19990
1156.131, 82.32463
1156.613, 82.91955
1157.095, 83.67255
1157.577, 84.29806
1158.059, 84.07594
1158.541, 82.71172
1159.023, 81.97571
1159.506, 82.78354
1159.988, 83.56841
1160.470, 84.13354
1160.952, 84.28547
1161.434, 83.55148
1161.916, 82.53709
1162.398, 82.16984
1162.880, 82.43314
1163.363, 82.45814
1163.845, 81.96074
1164.327, 81.74737
1164.809, 82.01749
1165.291, 82.22274
1165.773, 82.04719
1166.255, 81.98971
1166.737, 82.63096
1167.219, 83.54845
1167.702, 83.59024
1168.184, 82.62223
1168.666, 82.30363
1169.148, 82.84595
1169.630, 82.98455
1170.112, 82.42970
1170.594, 81.84616
1171.076, 81.55273
1171.558, 81.47117
1172.041, 81.51050
1172.523, 81.67258
1173.005, 82.03339
1173.487, 82.56125
1173.969, 82.87247
1174.451, 82.94505
1174.933, 82.80583
1175.415, 82.47279
1175.898, 82.11133
1176.380, 81.83043
1176.862, 81.62988
1177.344, 81.52380
1177.826, 81.49010
1178.308, 81.35780
1178.790, 81.29095
1179.272, 81.97270
1179.755, 83.17435
1180.237, 83.67403
1180.719, 83.08479
1181.201, 82.47573
1181.683, 82.67695
1182.165, 83.12484
1182.647, 83.49810
1183.129, 83.62442
1183.611, 83.09385
1184.094, 82.28879
1184.576, 81.80215
1185.058, 81.70603
1185.540, 81.84554
1186.022, 82.22990
1186.504, 82.51848
1186.986, 82.77067
1187.468, 82.62092
1187.950, 81.15037
1188.433, 79.91817
1188.915, 80.61026
1189.397, 82.26138
1189.879, 83.08599
1190.361, 82.93572
1190.843, 82.60113
1191.325, 81.87448
1191.807, 81.42707
1192.290, 81.48842
1192.772, 81.52182
1193.254, 81.22493
1193.736, 81.01526
1194.218, 81.34097
1194.700, 81.96104
1195.182, 82.26793
1195.664, 82.25651
1196.146, 81.91715
1196.629, 81.11806
1197.111, 80.76981
1197.593, 81.08126
1198.075, 81.39785
1198.557, 81.41635
1199.039, 81.27056
1199.521, 81.08445
1200.003, 80.90128
1200.485, 80.82308
1200.968, 80.85417
1201.450, 81.09309
1201.932, 81.48067
1202.414, 81.62938
1202.896, 81.50663
1203.378, 81.54492
1203.860, 81.98549
1204.342, 82.40437
1204.825, 82.19791
1205.307, 81.86073
1205.789, 82.17397
1206.271, 82.70798
1206.753, 82.79850
1207.235, 82.56844
1207.717, 82.46244
1208.199, 82.53035
1208.682, 82.37006
1209.164, 81.63583
1209.646, 81.17461
1210.128, 81.79845
1210.610, 82.34696
1211.092, 81.97191
1211.574, 81.35198
1212.056, 81.04876
1212.538, 81.05042
1213.021, 81.35192
1213.503, 81.99666
1213.985, 82.13630
1214.467, 81.12605
1214.949, 80.58980
1215.431, 80.81161
1215.913, 81.20714
1216.395, 81.77384
1216.877, 82.07592
1217.360, 81.60884
1217.842, 80.70817
1218.324, 80.25202
1218.806, 80.25106
1219.288, 80.24093
1219.770, 80.21469
1220.252, 80.35354
1220.734, 80.68958
1221.217, 80.75914
1221.699, 80.35256
1222.181, 79.96375
1222.663, 80.08527
1223.145, 80.50401
1223.627, 80.84660
1224.109, 81.16769
1224.591, 81.82223
1225.073, 82.50517
1225.556, 82.24223
1226.038, 81.12949
1226.520, 80.12878
1227.002, 79.62753
1227.484, 79.47727
1227.966, 79.75305
1228.448, 80.10999
1228.930, 80.24606
1229.412, 80.41521
1229.895, 80.97541
1230.377, 81.62667
1230.859, 81.95702
1231.341, 81.95847
1231.823, 81.81160
1232.305, 81.50230
1232.787, 81.20983
1233.269, 80.91443
1233.752, 80.69454
1234.234, 80.41805
1234.716, 80.43050
1235.198, 81.00304
1235.680, 81.85761
1236.162, 82.78230
1236.644, 83.62180
1237.126, 83.54082
1237.609, 82.42564
1238.091, 81.57272
1238.573, 81.02654
1239.055, 80.35160
1239.537, 79.45348
1240.019, 79.11220
1240.501, 79.77254
1240.983, 80.70798
1241.465, 81.09132
1241.948, 81.15469
1242.430, 81.29167
1242.912, 81.47050
1243.394, 81.72231
1243.876, 81.92553
1244.358, 81.63634
1244.840, 80.97144
1245.322, 80.80123
1245.804, 81.54151
1246.287, 82.11803
1246.769, 81.56858
1247.251, 81.10689
1247.733, 81.77779
1248.215, 82.42967
1248.697, 81.87698
1249.179, 80.91507
1249.661, 80.76075
1250.144, 81.35452
1250.626, 81.78748
1251.108, 81.96004
1251.590, 82.16615
1252.072, 82.64185
1252.554, 82.52356
1253.036, 81.28631
1253.518, 80.49290
1254.000, 81.12614
1254.483, 82.01034
1254.965, 81.65796
1255.447, 80.58696
1255.929, 80.48309
1256.411, 81.18919
1256.893, 81.64802
1257.375, 81.83309
1257.857, 81.74509
1258.339, 81.45876
1258.822, 81.36919
1259.304, 81.64656
1259.786, 82.00453
1260.268, 82.25076
1260.750, 82.38697
1261.232, 82.36414
1261.714, 82.27603
1262.196, 82.28813
1262.679, 82.25518
1263.161, 81.74501
1263.643, 81.01457
1264.125, 81.01374
1264.607, 82.03352
1265.089, 82.81796
1265.571, 83.06332
1266.053, 83.16999
1266.536, 83.21662
1267.018, 83.10505
1267.500, 82.76102
1267.982, 82.28046
1268.464, 81.66579
1268.946, 81.08755
1269.428, 80.98317
1269.910, 81.33493
1270.392, 81.75942
1270.875, 82.24813
1271.357, 82.53059
1271.839, 82.58186
1272.321, 82.40807
1272.803, 82.05417
##END=



