##NAMES=Laurelite
##RRUFFID=R100035
##IDEAL CHEMISTRY=Pb^2+^_7_F_12_Cl_2_
##LOCALITY=Grand Reef mine, Klondyke, Aravaipa District, Graham County, Arizona, USA
##OWNER=RRUFF
##SOURCE=Natural History Museum of Los Angeles County 
##DESCRIPTION=Colorless fragments from the type specimen, associated with grandreefite R100012 and pseudograndreefite R100006.  Photos of type specimen are courtesy of LACMNH.
##STATUS=The identification of this mineral has been confirmed by single-crystal X-ray diffraction.
##URL=rruff.info/R100035
90.49219, 76.29426
90.97430, 79.46818
91.45642, 80.59944
91.93854, 78.41688
92.42065, 74.55362
92.90277, 71.01746
93.38489, 67.72132
93.86700, 65.56001
94.34912, 66.68574
94.83124, 70.51246
95.31335, 73.63742
95.79547, 73.66873
96.27759, 71.17843
96.75970, 68.49259
97.24182, 65.93661
97.72394, 63.34583
98.20605, 59.79498
98.68817, 55.03735
99.17029, 51.26235
99.65240, 50.52603
100.1345, 53.02419
100.6166, 55.74851
101.0988, 58.21251
101.5809, 60.43171
102.0630, 62.90458
102.5451, 66.22316
103.0272, 68.78497
103.5093, 68.12965
103.9915, 62.30091
104.4736, 58.41724
104.9557, 59.25504
105.4378, 66.22473
105.9199, 69.75617
106.4020, 67.75197
106.8842, 63.35539
107.3663, 62.22092
107.8484, 67.82479
108.3305, 72.67981
108.8126, 74.18595
109.2947, 70.70365
109.7769, 66.57699
110.2590, 59.81338
110.7411, 52.03863
111.2232, 48.48378
111.7053, 54.31647
112.1874, 60.81067
112.6696, 64.00911
113.1517, 59.95702
113.6338, 56.44881
114.1159, 54.26598
114.5980, 53.40725
115.0801, 53.77800
115.5623, 57.02277
116.0444, 60.70089
116.5265, 62.91683
117.0086, 60.92527
117.4907, 59.38681
117.9728, 60.61906
118.4550, 64.77245
118.9371, 68.44743
119.4192, 70.90392
119.9013, 71.85073
120.3834, 70.86840
120.8655, 64.58895
121.3477, 58.33604
121.8298, 56.66186
122.3119, 60.65549
122.7940, 65.00304
123.2761, 65.64326
123.7582, 63.78709
124.2404, 62.13147
124.7225, 61.17834
125.2046, 61.55430
125.6867, 64.56572
126.1688, 71.32328
126.6509, 78.49593
127.1331, 81.54932
127.6152, 81.33080
128.0973, 82.05190
128.5794, 87.11222
129.0615, 95.26795
129.5436, 103.5761
130.0258, 111.3816
130.5079, 119.0755
130.9900, 126.9812
131.4721, 135.0318
131.9542, 144.7199
132.4363, 157.7765
132.9185, 173.8697
133.4006, 190.6409
133.8827, 207.1842
134.3648, 223.8561
134.8469, 242.6119
135.3290, 263.1902
135.8112, 287.1185
136.2933, 316.7585
136.7754, 352.5431
137.2575, 389.1821
137.7396, 425.1422
138.2217, 459.8648
138.7039, 495.9962
139.1860, 534.0664
139.6681, 572.8046
140.1502, 611.6097
140.6323, 650.7479
141.1144, 687.8162
141.5966, 722.1309
142.0787, 753.5989
142.5608, 781.4449
143.0429, 804.1445
143.5250, 824.0303
144.0071, 845.5383
144.4893, 866.2929
144.9714, 892.2484
145.4535, 926.4568
145.9356, 974.4245
146.4177, 1020.201
146.8998, 1061.724
147.3820, 1100.749
147.8641, 1146.769
148.3462, 1204.521
148.8283, 1264.222
149.3104, 1321.262
149.7925, 1371.426
150.2747, 1424.046
150.7568, 1480.598
151.2389, 1540.548
151.7210, 1597.361
152.2031, 1649.524
152.6852, 1698.918
153.1674, 1747.279
153.6495, 1797.283
154.1316, 1843.042
154.6137, 1883.425
155.0958, 1918.377
155.5779, 1950.077
156.0601, 1976.000
156.5422, 2000.093
157.0243, 2025.425
157.5064, 2055.765
157.9885, 2084.423
158.4706, 2108.196
158.9528, 2126.135
159.4349, 2146.539
159.9170, 2171.412
160.3991, 2199.907
160.8812, 2231.047
161.3633, 2265.873
161.8455, 2302.228
162.3276, 2339.784
162.8097, 2378.335
163.2918, 2416.436
163.7739, 2451.721
164.2560, 2483.408
164.7382, 2498.954
165.2203, 2513.944
165.7024, 2530.524
166.1845, 2547.442
166.6666, 2565.724
167.1487, 2580.800
167.6309, 2588.569
168.1130, 2591.532
168.5951, 2594.806
169.0772, 2601.623
169.5593, 2609.388
170.0414, 2616.139
170.5236, 2621.903
171.0057, 2625.829
171.4878, 2627.693
171.9699, 2627.383
172.4520, 2624.497
172.9341, 2615.622
173.4163, 2605.196
173.8984, 2598.736
174.3805, 2598.749
174.8626, 2600.672
175.3447, 2600.440
175.8268, 2598.337
176.3090, 2595.728
176.7911, 2592.004
177.2732, 2588.615
177.7553, 2588.266
178.2374, 2593.079
178.7195, 2599.514
179.2017, 2602.934
179.6838, 2603.607
180.1659, 2603.821
180.6480, 2605.031
181.1301, 2607.108
181.6122, 2609.819
182.0944, 2613.201
182.5765, 2617.078
183.0586, 2621.668
183.5407, 2626.883
184.0228, 2631.560
184.5049, 2634.168
184.9871, 2635.216
185.4692, 2636.392
185.9513, 2638.159
186.4334, 2640.424
186.9155, 2643.027
187.3976, 2645.952
187.8798, 2649.255
188.3619, 2653.854
188.8440, 2659.369
189.3261, 2662.946
189.8082, 2662.838
190.2903, 2660.098
190.7725, 2658.314
191.2546, 2657.452
191.7367, 2657.591
192.2188, 2659.824
192.7009, 2663.970
193.1830, 2666.196
193.6652, 2664.177
194.1473, 2658.695
194.6294, 2654.629
195.1115, 2651.988
195.5936, 2650.683
196.0757, 2650.767
196.5579, 2652.258
197.0400, 2654.558
197.5221, 2658.313
198.0042, 2663.279
198.4863, 2664.973
198.9684, 2662.374
199.4506, 2658.793
199.9327, 2659.333
200.4148, 2664.316
200.8969, 2670.304
201.3790, 2676.614
201.8611, 2683.281
202.3433, 2687.599
202.8254, 2688.911
203.3075, 2688.850
203.7896, 2689.867
204.2717, 2691.862
204.7538, 2695.158
205.2360, 2700.429
205.7181, 2708.005
206.2002, 2714.016
206.6823, 2717.853
207.1644, 2720.825
207.6465, 2725.746
208.1287, 2733.313
208.6108, 2740.283
209.0929, 2744.145
209.5750, 2743.468
210.0571, 2748.171
210.5392, 2759.774
211.0214, 2775.526
211.5035, 2789.833
211.9856, 2802.186
212.4677, 2814.300
212.9498, 2826.938
213.4319, 2840.065
213.9140, 2853.334
214.3962, 2866.331
214.8783, 2879.773
215.3604, 2895.162
215.8425, 2913.069
216.3246, 2931.800
216.8067, 2950.814
217.2889, 2969.827
217.7710, 2989.297
218.2531, 3009.425
218.7352, 3029.772
219.2173, 3049.668
219.6994, 3068.646
220.1816, 3088.122
220.6637, 3109.684
221.1458, 3135.450
221.6279, 3156.966
222.1100, 3172.114
222.5921, 3183.877
223.0743, 3200.983
223.5564, 3226.077
224.0385, 3251.859
224.5206, 3274.133
225.0027, 3291.148
225.4848, 3310.648
225.9670, 3334.292
226.4491, 3359.850
226.9312, 3381.361
227.4133, 3395.807
227.8954, 3410.888
228.3775, 3430.379
228.8597, 3457.973
229.3418, 3481.237
229.8239, 3498.007
230.3060, 3510.819
230.7881, 3526.207
231.2702, 3544.917
231.7524, 3565.177
232.2345, 3586.278
232.7166, 3609.917
233.1987, 3631.013
233.6808, 3649.082
234.1629, 3664.641
234.6451, 3679.430
235.1272, 3693.897
235.6093, 3706.933
236.0914, 3718.250
236.5735, 3728.492
237.0556, 3735.744
237.5378, 3738.997
238.0199, 3739.730
238.5020, 3741.808
238.9841, 3747.102
239.4662, 3751.153
239.9483, 3751.881
240.4305, 3747.807
240.9126, 3743.927
241.3947, 3740.841
241.8768, 3737.683
242.3589, 3732.511
242.8410, 3725.570
243.3232, 3716.090
243.8053, 3703.337
244.2874, 3685.219
244.7695, 3668.953
245.2516, 3656.488
245.7337, 3645.015
246.2159, 3627.946
246.6980, 3602.554
247.1801, 3575.865
247.6622, 3550.500
248.1443, 3527.330
248.6264, 3503.007
249.1086, 3477.508
249.5907, 3450.779
250.0728, 3422.778
250.5549, 3393.931
251.0370, 3363.047
251.5191, 3328.782
252.0013, 3289.458
252.4834, 3253.441
252.9655, 3222.769
253.4476, 3194.425
253.9297, 3162.835
254.4118, 3126.843
254.8940, 3090.334
255.3761, 3054.889
255.8582, 3020.958
256.3403, 2985.485
256.8224, 2947.681
257.3046, 2908.951
257.7867, 2872.444
258.2688, 2838.357
258.7509, 2805.536
259.2330, 2773.924
259.7151, 2743.331
260.1973, 2714.358
260.6794, 2688.492
261.1615, 2663.473
261.6436, 2636.430
262.1257, 2606.074
262.6078, 2576.254
263.0900, 2547.950
263.5721, 2520.709
264.0542, 2497.219
264.5363, 2478.483
265.0184, 2461.956
265.5005, 2443.492
265.9827, 2422.233
266.4648, 2401.872
266.9469, 2383.569
267.4290, 2367.397
267.9111, 2352.303
268.3932, 2339.052
268.8754, 2325.829
269.3575, 2310.361
269.8396, 2291.799
270.3217, 2273.495
270.8038, 2255.776
271.2859, 2238.634
271.7681, 2225.341
272.2502, 2217.364
272.7323, 2210.234
273.2144, 2199.068
273.6965, 2182.829
274.1786, 2167.985
274.6608, 2155.950
275.1429, 2146.468
275.6250, 2137.367
276.1071, 2128.718
276.5892, 2120.299
277.0714, 2112.097
277.5535, 2104.066
278.0356, 2096.385
278.5177, 2089.065
278.9998, 2082.141
279.4819, 2075.877
279.9641, 2070.356
280.4462, 2064.989
280.9283, 2059.261
281.4104, 2053.222
281.8925, 2047.249
282.3746, 2041.498
282.8568, 2035.784
283.3389, 2029.417
283.8210, 2022.288
284.3031, 2015.245
284.7852, 2008.710
285.2673, 2002.721
285.7495, 1997.390
286.2316, 1992.755
286.7137, 1988.662
287.1958, 1984.767
287.6779, 1981.038
288.1600, 1977.756
288.6422, 1975.764
289.1243, 1974.660
289.6064, 1971.509
290.0885, 1965.521
290.5706, 1958.721
291.0527, 1954.846
291.5349, 1953.698
292.0170, 1952.113
292.4991, 1948.222
292.9812, 1942.496
293.4633, 1936.529
293.9454, 1930.281
294.4276, 1924.252
294.9097, 1919.266
295.3918, 1915.183
295.8739, 1911.357
296.3560, 1907.567
296.8381, 1903.795
297.3203, 1900.093
297.8024, 1896.460
298.2845, 1892.891
298.7666, 1889.292
299.2487, 1885.753
299.7308, 1882.477
300.2130, 1880.224
300.6951, 1878.031
301.1772, 1873.948
301.6593, 1868.017
302.1414, 1861.982
302.6235, 1857.629
303.1057, 1854.327
303.5878, 1850.848
304.0699, 1846.088
304.5520, 1841.488
305.0341, 1838.732
305.5162, 1837.729
305.9984, 1837.618
306.4805, 1839.200
306.9626, 1840.923
307.4447, 1840.397
307.9268, 1835.664
308.4089, 1830.181
308.8911, 1826.991
309.3732, 1825.661
309.8553, 1824.472
310.3374, 1822.302
310.8195, 1819.799
311.3016, 1817.706
311.7838, 1816.441
312.2659, 1815.062
312.7480, 1813.143
313.2301, 1810.701
313.7122, 1807.709
314.1943, 1801.881
314.6765, 1796.970
315.1586, 1796.224
315.6407, 1801.273
316.1228, 1806.360
316.6049, 1808.785
317.0870, 1809.434
317.5692, 1809.737
318.0513, 1811.045
318.5334, 1811.422
319.0155, 1809.445
319.4976, 1804.588
319.9797, 1800.107
320.4619, 1796.490
320.9440, 1793.948
321.4261, 1792.761
321.9082, 1793.692
322.3903, 1795.245
322.8724, 1797.823
323.3546, 1801.466
323.8367, 1802.801
324.3188, 1798.271
324.8009, 1792.818
325.2830, 1790.272
325.7651, 1795.295
326.2473, 1798.632
326.7294, 1798.305
327.2115, 1794.792
327.6936, 1791.762
328.1757, 1787.338
328.6578, 1785.038
329.1400, 1786.734
329.6221, 1799.290
330.1042, 1806.457
330.5863, 1805.260
331.0684, 1798.490
331.5505, 1794.396
332.0327, 1794.357
332.5148, 1795.264
332.9969, 1795.962
333.4790, 1796.266
333.9611, 1796.807
334.4432, 1797.994
334.9254, 1799.157
335.4075, 1799.061
335.8896, 1797.142
336.3717, 1795.075
336.8538, 1793.059
337.3359, 1790.919
337.8180, 1790.991
338.3001, 1794.081
338.7823, 1798.184
339.2644, 1801.103
339.7465, 1802.779
340.2286, 1803.547
340.7107, 1803.002
341.1928, 1801.502
341.6750, 1801.657
342.1571, 1803.639
342.6392, 1806.552
343.1213, 1809.964
343.6034, 1813.844
344.0855, 1817.447
344.5677, 1820.848
345.0498, 1823.625
345.5319, 1823.828
346.0140, 1821.332
346.4961, 1819.836
346.9782, 1823.261
347.4604, 1830.259
347.9425, 1833.501
348.4246, 1831.591
348.9067, 1828.158
349.3888, 1828.208
349.8709, 1831.386
350.3531, 1835.642
350.8352, 1840.981
351.3173, 1846.476
351.7994, 1849.771
352.2815, 1850.570
352.7636, 1851.705
353.2458, 1857.314
353.7279, 1865.288
354.2100, 1871.039
354.6921, 1871.277
355.1742, 1869.473
355.6563, 1868.742
356.1385, 1869.090
356.6206, 1870.600
357.1027, 1875.690
357.5848, 1881.091
358.0669, 1882.574
358.5490, 1876.019
359.0312, 1869.752
359.5133, 1870.750
359.9954, 1876.665
360.4775, 1880.233
360.9596, 1875.814
361.4417, 1869.246
361.9239, 1864.298
362.4060, 1861.648
362.8881, 1860.356
363.3702, 1861.875
363.8523, 1864.190
364.3344, 1864.211
364.8166, 1857.585
365.2987, 1851.617
365.7808, 1850.048
366.2629, 1853.763
366.7450, 1855.511
367.2271, 1852.798
367.7093, 1848.344
368.1914, 1844.538
368.6735, 1842.099
369.1556, 1839.779
369.6377, 1838.069
370.1198, 1836.729
370.6020, 1833.457
371.0841, 1825.211
371.5662, 1817.843
372.0483, 1814.885
372.5304, 1820.350
373.0125, 1822.521
373.4947, 1819.998
373.9768, 1814.443
374.4589, 1809.547
374.9410, 1805.237
375.4231, 1801.722
375.9052, 1799.178
376.3874, 1797.720
376.8695, 1796.275
377.3516, 1794.736
377.8337, 1793.378
378.3158, 1792.913
378.7979, 1793.630
379.2801, 1792.932
379.7622, 1789.515
380.2443, 1784.192
380.7264, 1780.685
381.2085, 1779.219
381.6906, 1778.047
382.1728, 1775.088
382.6549, 1770.793
383.1370, 1768.505
383.6191, 1769.287
384.1012, 1771.360
384.5833, 1771.967
385.0655, 1771.196
385.5476, 1769.812
386.0297, 1767.542
386.5118, 1765.127
386.9939, 1764.279
387.4760, 1765.394
387.9582, 1766.315
388.4403, 1764.492
388.9224, 1760.978
389.4045, 1757.988
389.8866, 1756.250
390.3687, 1755.518
390.8509, 1756.562
391.3330, 1759.091
391.8151, 1760.093
392.2972, 1756.342
392.7793, 1750.839
393.2614, 1746.394
393.7436, 1743.747
394.2257, 1742.330
394.7078, 1742.853
395.1899, 1744.551
395.6720, 1745.413
396.1541, 1743.751
396.6363, 1741.973
397.1184, 1741.255
397.6005, 1741.998
398.0826, 1742.967
398.5647, 1744.834
399.0468, 1746.553
399.5290, 1746.854
400.0111, 1743.417
400.4932, 1740.993
400.9753, 1740.899
401.4574, 1743.125
401.9395, 1744.236
402.4217, 1744.124
402.9038, 1743.006
403.3859, 1740.504
403.8680, 1734.452
404.3501, 1732.472
404.8322, 1736.786
405.3144, 1744.674
405.7965, 1748.768
406.2786, 1748.405
406.7607, 1746.531
407.2428, 1743.703
407.7249, 1739.818
408.2071, 1738.755
408.6892, 1741.244
409.1713, 1744.364
409.6534, 1743.616
410.1355, 1739.274
410.6176, 1736.896
411.0998, 1738.975
411.5819, 1743.503
412.0640, 1745.476
412.5461, 1744.966
413.0282, 1744.240
413.5103, 1745.843
413.9925, 1748.377
414.4746, 1748.689
414.9567, 1745.772
415.4388, 1741.990
415.9209, 1738.697
416.4030, 1736.365
416.8852, 1736.085
417.3673, 1741.615
417.8494, 1747.326
418.3315, 1747.393
418.8136, 1741.406
419.2957, 1736.465
419.7779, 1737.351
420.2600, 1740.944
420.7421, 1744.108
421.2242, 1746.609
421.7063, 1747.891
422.1884, 1747.082
422.6706, 1744.772
423.1527, 1743.130
423.6348, 1743.397
424.1169, 1743.892
424.5990, 1743.920
425.0811, 1743.488
425.5633, 1742.452
426.0454, 1739.205
426.5275, 1736.039
427.0096, 1736.043
427.4917, 1742.014
427.9738, 1746.873
428.4560, 1748.504
428.9381, 1747.146
429.4202, 1748.548
429.9023, 1754.400
430.3844, 1759.828
430.8665, 1760.758
431.3487, 1756.330
431.8308, 1752.404
432.3129, 1749.144
432.7950, 1747.024
433.2771, 1747.885
433.7592, 1751.849
434.2414, 1755.103
434.7235, 1755.304
435.2056, 1753.261
435.6877, 1752.292
436.1698, 1752.443
436.6519, 1752.984
437.1341, 1753.373
437.6162, 1753.591
438.0983, 1753.563
438.5804, 1753.114
439.0625, 1752.657
439.5446, 1752.867
440.0268, 1753.550
440.5089, 1753.971
440.9910, 1753.584
441.4731, 1752.842
441.9552, 1752.073
442.4373, 1751.298
442.9195, 1750.734
443.4016, 1750.759
443.8837, 1750.982
444.3658, 1750.921
444.8479, 1750.771
445.3300, 1749.983
445.8122, 1747.475
446.2943, 1743.649
446.7764, 1741.801
447.2585, 1744.578
447.7406, 1747.773
448.2227, 1749.252
448.7049, 1747.945
449.1870, 1746.891
449.6691, 1746.067
450.1512, 1745.512
450.6333, 1745.230
451.1154, 1744.940
451.5976, 1745.580
452.0797, 1747.854
452.5618, 1751.563
453.0439, 1753.500
453.5260, 1753.287
454.0081, 1752.382
454.4903, 1751.921
454.9724, 1751.900
455.4545, 1751.348
455.9366, 1749.810
456.4187, 1748.423
456.9008, 1749.852
457.3830, 1753.693
457.8651, 1756.663
458.3472, 1756.331
458.8293, 1754.418
459.3114, 1753.779
459.7935, 1754.456
460.2757, 1756.360
460.7578, 1761.588
461.2399, 1767.341
461.7220, 1769.281
462.2041, 1763.955
462.6862, 1758.577
463.1684, 1758.162
463.6505, 1761.251
464.1326, 1764.489
464.6147, 1767.036
465.0968, 1768.970
465.5789, 1770.274
466.0611, 1770.944
466.5432, 1770.997
467.0253, 1769.474
467.5074, 1767.820
467.9895, 1767.260
468.4716, 1769.073
468.9538, 1770.409
469.4359, 1771.010
469.9180, 1771.025
470.4001, 1770.915
470.8822, 1770.844
471.3643, 1770.410
471.8465, 1769.391
472.3286, 1767.743
472.8107, 1765.925
473.2928, 1763.539
473.7749, 1762.073
474.2570, 1764.226
474.7392, 1769.971
475.2213, 1773.555
475.7034, 1773.102
476.1855, 1770.551
476.6676, 1769.570
477.1497, 1770.095
477.6319, 1771.542
478.1140, 1774.156
478.5961, 1777.256
479.0782, 1779.685
479.5603, 1781.325
480.0424, 1782.643
480.5246, 1783.682
481.0067, 1784.713
481.4888, 1786.105
481.9709, 1787.776
482.4530, 1790.065
482.9352, 1794.314
483.4173, 1799.531
483.8994, 1802.587
484.3815, 1799.894
484.8636, 1796.863
485.3457, 1796.360
485.8279, 1799.482
486.3100, 1801.717
486.7921, 1802.991
487.2742, 1803.043
487.7563, 1801.315
488.2384, 1794.841
488.7206, 1791.881
489.2027, 1794.632
489.6848, 1801.351
490.1669, 1805.824
490.6490, 1807.562
491.1311, 1808.459
491.6133, 1808.809
492.0954, 1808.657
492.5775, 1810.992
493.0596, 1816.271
493.5417, 1822.121
494.0238, 1826.485
494.5060, 1829.341
494.9881, 1830.081
495.4702, 1827.548
495.9523, 1824.415
496.4344, 1824.658
496.9165, 1827.674
497.3987, 1831.187
497.8808, 1834.308
498.3629, 1837.111
498.8450, 1839.708
499.3271, 1842.125
499.8092, 1844.112
500.2914, 1845.182
500.7735, 1845.916
501.2556, 1846.885
501.7377, 1847.758
502.2198, 1849.396
502.7019, 1853.594
503.1841, 1858.787
503.6662, 1860.750
504.1483, 1856.430
504.6304, 1851.743
505.1125, 1848.209
505.5946, 1845.869
506.0768, 1844.257
506.5589, 1843.803
507.0410, 1843.510
507.5231, 1842.505
508.0052, 1840.678
508.4873, 1839.249
508.9695, 1838.845
509.4516, 1838.188
509.9337, 1833.641
510.4158, 1825.505
510.8979, 1819.590
511.3800, 1820.465
511.8622, 1824.604
512.3443, 1823.528
512.8264, 1817.468
513.3085, 1810.761
513.7906, 1806.135
514.2728, 1803.041
514.7549, 1800.877
515.2370, 1799.691
515.7191, 1798.929
516.2012, 1799.184
516.6833, 1799.450
517.1655, 1798.185
517.6476, 1792.409
518.1297, 1787.513
518.6118, 1786.099
519.0939, 1787.837
519.5760, 1788.462
520.0582, 1786.130
520.5403, 1783.748
521.0224, 1782.619
521.5045, 1783.255
521.9866, 1783.610
522.4688, 1783.683
522.9509, 1783.444
523.4330, 1782.626
523.9151, 1780.972
524.3972, 1780.195
524.8793, 1780.986
525.3615, 1782.599
525.8436, 1783.018
526.3257, 1782.255
526.8078, 1781.323
527.2899, 1780.531
527.7720, 1780.047
528.2542, 1780.565
528.7363, 1782.162
529.2184, 1783.526
529.7005, 1782.890
530.1826, 1781.552
530.6647, 1781.372
531.1469, 1783.573
531.6290, 1785.855
532.1111, 1786.952
532.5932, 1787.198
533.0753, 1787.278
533.5574, 1786.641
534.0396, 1786.573
534.5217, 1788.027
535.0038, 1791.143
535.4859, 1792.767
535.9680, 1791.876
536.4501, 1790.373
536.9323, 1789.346
537.4144, 1789.043
537.8965, 1788.247
538.3786, 1786.222
538.8607, 1784.674
539.3428, 1787.030
539.8250, 1793.712
540.3071, 1798.870
540.7892, 1800.386
541.2713, 1799.675
541.7534, 1799.999
542.2355, 1801.284
542.7177, 1802.635
543.1998, 1804.335
543.6819, 1805.444
544.1640, 1803.655
544.6461, 1798.623
545.1282, 1794.619
545.6104, 1796.135
546.0925, 1799.750
546.5746, 1801.493
547.0567, 1797.809
547.5388, 1795.525
548.0209, 1798.406
548.5031, 1804.231
548.9852, 1808.174
549.4673, 1807.126
549.9494, 1806.659
550.4315, 1808.652
550.9136, 1813.088
551.3958, 1815.853
551.8779, 1816.877
552.3600, 1816.352
552.8421, 1813.437
553.3242, 1807.519
553.8063, 1805.574
554.2885, 1808.697
554.7706, 1813.594
555.2527, 1816.214
555.7348, 1816.748
556.2169, 1816.156
556.6990, 1813.936
557.1812, 1811.763
557.6633, 1812.476
558.1454, 1815.451
558.6275, 1818.354
559.1096, 1820.341
559.5917, 1821.356
560.0739, 1820.613
560.5560, 1818.027
561.0381, 1816.816
561.5202, 1820.544
562.0023, 1824.785
562.4844, 1826.109
562.9666, 1820.267
563.4487, 1817.241
563.9308, 1819.494
564.4129, 1823.959
564.8950, 1825.773
565.3771, 1823.268
565.8593, 1821.876
566.3414, 1823.369
566.8235, 1826.806
567.3056, 1827.635
567.7877, 1825.474
568.2698, 1823.350
568.7520, 1823.078
569.2341, 1824.320
569.7162, 1826.213
570.1983, 1828.810
570.6804, 1830.683
571.1625, 1829.769
571.6447, 1827.422
572.1268, 1825.909
572.6089, 1826.206
573.0910, 1826.518
573.5731, 1825.231
574.0552, 1823.259
574.5374, 1822.162
575.0195, 1822.585
575.5016, 1823.875
575.9837, 1826.620
576.4658, 1830.557
576.9479, 1832.672
577.4301, 1831.878
577.9122, 1830.476
578.3943, 1829.126
578.8764, 1827.537
579.3585, 1827.959
579.8406, 1830.963
580.3228, 1834.695
580.8049, 1837.295
581.2870, 1838.792
581.7691, 1839.867
582.2512, 1840.334
582.7333, 1841.043
583.2155, 1843.815
583.6975, 1847.948
584.1796, 1851.431
584.6617, 1853.152
585.1439, 1853.844
585.6260, 1853.461
586.1081, 1852.343
586.5902, 1852.244
587.0723, 1855.272
587.5544, 1858.537
588.0366, 1860.629
588.5187, 1861.464
589.0008, 1860.775
589.4829, 1855.032
589.9650, 1850.162
590.4471, 1851.167
590.9293, 1862.153
591.4114, 1869.407
591.8935, 1871.139
592.3756, 1869.864
592.8577, 1870.027
593.3398, 1871.727
593.8220, 1873.271
594.3041, 1874.021
594.7862, 1874.328
595.2683, 1874.586
595.7504, 1874.934
596.2325, 1876.413
596.7147, 1882.109
597.1968, 1887.993
597.6789, 1888.201
598.1610, 1882.223
598.6431, 1877.750
599.1252, 1880.889
599.6074, 1886.354
600.0895, 1889.920
600.5716, 1890.682
601.0537, 1889.787
601.5358, 1885.331
602.0179, 1880.118
602.5001, 1877.881
602.9822, 1879.990
603.4643, 1882.461
603.9464, 1885.065
604.4285, 1887.378
604.9106, 1887.920
605.3928, 1886.530
605.8749, 1884.582
606.3570, 1882.225
606.8391, 1879.847
607.3212, 1878.918
607.8033, 1879.384
608.2855, 1880.142
608.7676, 1880.510
609.2497, 1880.594
609.7318, 1880.737
610.2139, 1881.216
610.6960, 1880.621
611.1782, 1876.966
611.6603, 1872.385
612.1424, 1869.104
612.6245, 1869.591
613.1066, 1869.083
613.5887, 1865.935
614.0709, 1861.606
614.5530, 1859.144
615.0351, 1859.934
615.5172, 1859.662
615.9993, 1856.612
616.4814, 1851.567
616.9636, 1848.891
617.4457, 1848.763
617.9278, 1849.138
618.4099, 1848.590
618.8920, 1847.590
619.3741, 1848.006
619.8563, 1849.944
620.3384, 1850.713
620.8205, 1847.210
621.3026, 1841.647
621.7847, 1836.375
622.2668, 1831.181
622.7490, 1828.073
623.2311, 1829.563
623.7132, 1833.010
624.1953, 1835.039
624.6774, 1834.453
625.1595, 1833.112
625.6417, 1830.577
626.1238, 1827.553
626.6059, 1826.351
627.0880, 1827.856
627.5701, 1828.497
628.0522, 1826.640
628.5344, 1822.914
629.0165, 1820.233
629.4986, 1818.600
629.9807, 1818.001
630.4628, 1819.284
630.9449, 1821.341
631.4271, 1821.810
631.9092, 1820.442
632.3913, 1819.248
632.8734, 1820.441
633.3555, 1822.165
633.8376, 1822.296
634.3198, 1818.927
634.8019, 1816.764
635.2840, 1818.645
635.7661, 1821.853
636.2482, 1822.529
636.7303, 1818.671
637.2125, 1815.441
637.6946, 1813.382
638.1767, 1812.470
638.6588, 1813.173
639.1409, 1815.926
639.6230, 1817.335
640.1052, 1815.321
640.5873, 1811.276
641.0694, 1809.515
641.5515, 1809.887
642.0336, 1810.587
642.5157, 1810.700
642.9979, 1810.337
643.4800, 1809.370
643.9621, 1807.757
644.4442, 1806.636
644.9263, 1806.795
645.4084, 1807.528
645.8906, 1808.265
646.3727, 1808.801
646.8548, 1809.470
647.3369, 1810.039
647.8190, 1810.824
648.3011, 1812.436
648.7833, 1815.493
649.2654, 1817.006
649.7475, 1815.971
650.2296, 1813.789
650.7117, 1813.773
651.1938, 1815.686
651.6760, 1816.759
652.1581, 1815.446
652.6402, 1812.984
653.1223, 1810.689
653.6044, 1808.770
654.0865, 1807.946
654.5687, 1810.703
655.0508, 1813.106
655.5329, 1811.882
656.0150, 1806.681
656.4971, 1802.833
656.9792, 1801.715
657.4614, 1802.168
657.9435, 1803.701
658.4256, 1806.721
658.9077, 1809.536
659.3898, 1812.584
659.8719, 1814.618
660.3541, 1813.744
660.8362, 1810.071
661.3183, 1807.270
661.8004, 1805.998
662.2825, 1805.457
662.7646, 1804.789
663.2468, 1804.046
663.7289, 1803.365
664.2110, 1802.967
664.6931, 1802.468
665.1752, 1801.721
665.6573, 1800.699
666.1395, 1799.296
666.6216, 1796.956
667.1037, 1794.801
667.5858, 1793.071
668.0679, 1791.786
668.5500, 1791.130
669.0322, 1790.759
669.5143, 1791.743
669.9964, 1795.459
670.4785, 1801.545
670.9606, 1803.909
671.4427, 1802.271
671.9249, 1799.465
672.4070, 1797.240
672.8891, 1795.578
673.3712, 1794.711
673.8533, 1794.726
674.3354, 1794.536
674.8176, 1792.786
675.2997, 1790.693
675.7818, 1789.585
676.2639, 1790.176
676.7460, 1790.982
677.2281, 1792.447
677.7103, 1793.622
678.1924, 1793.173
678.6745, 1789.870
679.1566, 1787.762
679.6387, 1787.724
680.1208, 1788.841
680.6030, 1789.020
681.0851, 1788.256
681.5672, 1787.922
682.0493, 1789.206
682.5314, 1790.514
683.0135, 1787.906
683.4957, 1782.506
683.9778, 1778.902
684.4599, 1781.906
684.9420, 1785.652
685.4241, 1785.203
685.9063, 1780.853
686.3884, 1778.763
686.8705, 1783.205
687.3526, 1787.885
687.8347, 1790.118
688.3168, 1789.661
688.7990, 1788.316
689.2811, 1785.572
689.7632, 1783.100
690.2453, 1782.313
690.7274, 1783.100
691.2095, 1784.382
691.6917, 1786.252
692.1738, 1787.377
692.6559, 1785.585
693.1380, 1782.240
693.6201, 1779.590
694.1022, 1778.096
694.5844, 1777.445
695.0665, 1777.752
695.5486, 1778.682
696.0307, 1779.814
696.5128, 1781.752
696.9949, 1782.948
697.4771, 1783.068
697.9592, 1782.467
698.4413, 1781.856
698.9234, 1781.310
699.4055, 1780.524
699.8876, 1779.502
700.3698, 1778.131
700.8519, 1775.172
701.3340, 1771.118
701.8161, 1769.301
702.2982, 1774.634
702.7803, 1781.004
703.2625, 1780.386
703.7446, 1774.228
704.2267, 1770.012
704.7088, 1773.163
705.1909, 1777.234
705.6730, 1778.760
706.1552, 1777.295
706.6373, 1776.686
707.1194, 1776.860
707.6015, 1778.014
708.0836, 1780.893
708.5657, 1785.678
709.0479, 1787.199
709.5300, 1784.940
710.0121, 1782.359
710.4942, 1783.259
710.9763, 1786.103
711.4584, 1786.902
711.9406, 1784.796
712.4227, 1783.290
712.9048, 1786.176
713.3869, 1790.398
713.8690, 1792.691
714.3511, 1791.108
714.8333, 1789.799
715.3154, 1790.133
715.7975, 1790.867
716.2796, 1790.597
716.7617, 1788.880
717.2438, 1787.636
717.7260, 1787.097
718.2081, 1787.234
718.6902, 1788.197
719.1723, 1789.905
719.6544, 1791.815
720.1365, 1794.692
720.6187, 1796.213
721.1008, 1791.170
721.5829, 1782.638
722.0650, 1777.726
722.5471, 1782.505
723.0292, 1788.527
723.5114, 1792.399
723.9935, 1794.436
724.4756, 1796.458
724.9577, 1798.629
725.4398, 1800.633
725.9219, 1802.619
726.4041, 1804.368
726.8862, 1803.858
727.3683, 1800.773
727.8504, 1799.202
728.3325, 1803.320
728.8146, 1810.018
729.2968, 1812.392
729.7789, 1810.771
730.2610, 1808.381
730.7431, 1805.827
731.2252, 1804.352
731.7073, 1805.621
732.1895, 1810.077
732.6716, 1812.829
733.1537, 1811.154
733.6358, 1809.184
734.1179, 1809.080
734.6000, 1811.325
735.0822, 1812.411
735.5643, 1812.127
736.0464, 1811.361
736.5285, 1810.586
737.0106, 1809.965
737.4927, 1810.598
737.9749, 1812.813
738.4570, 1814.242
738.9391, 1811.327
739.4212, 1807.216
739.9033, 1805.770
740.3854, 1809.181
740.8676, 1811.954
741.3497, 1811.787
741.8318, 1810.719
742.3139, 1811.018
742.7960, 1813.940
743.2781, 1814.702
743.7603, 1811.947
744.2424, 1808.636
744.7245, 1809.513
745.2066, 1814.054
745.6887, 1818.434
746.1708, 1822.158
746.6530, 1824.291
747.1351, 1822.672
747.6172, 1818.905
748.0993, 1815.820
748.5814, 1813.794
749.0635, 1813.380
749.5457, 1816.263
750.0278, 1820.701
750.5099, 1822.854
750.9920, 1821.561
751.4741, 1820.199
751.9562, 1819.316
752.4384, 1818.828
752.9205, 1818.457
753.4026, 1818.223
753.8847, 1818.480
754.3668, 1819.597
754.8489, 1821.028
755.3311, 1822.569
755.8132, 1823.838
756.2953, 1823.668
756.7774, 1819.297
757.2595, 1815.528
757.7416, 1815.202
758.2238, 1817.721
758.7059, 1819.255
759.1880, 1818.454
759.6701, 1818.582
760.1522, 1821.345
760.6343, 1825.814
761.1165, 1826.512
761.5986, 1823.238
762.0807, 1820.217
762.5628, 1820.377
763.0449, 1822.012
763.5270, 1821.826
764.0092, 1820.221
764.4913, 1819.399
764.9734, 1821.382
765.4555, 1823.852
765.9376, 1825.423
766.4197, 1826.045
766.9019, 1826.750
767.3840, 1828.049
767.8661, 1828.835
768.3482, 1828.512
768.8303, 1827.135
769.3124, 1825.642
769.7946, 1823.963
770.2767, 1823.254
770.7588, 1824.869
771.2409, 1827.815
771.7230, 1830.818
772.2051, 1833.731
772.6873, 1835.318
773.1694, 1832.857
773.6515, 1830.322
774.1336, 1830.752
774.6157, 1835.080
775.0978, 1838.206
775.5800, 1839.525
776.0621, 1840.172
776.5442, 1840.776
777.0263, 1841.343
777.5084, 1841.729
777.9905, 1842.011
778.4727, 1841.358
778.9548, 1838.253
779.4369, 1834.005
779.9190, 1830.245
780.4011, 1827.100
780.8832, 1826.658
781.3654, 1833.097
781.8475, 1840.667
782.3296, 1845.213
782.8117, 1845.605
783.2938, 1844.472
783.7759, 1840.725
784.2581, 1837.022
784.7402, 1835.410
785.2223, 1835.899
785.7044, 1837.483
786.1865, 1840.297
786.6686, 1842.490
787.1508, 1841.428
787.6329, 1838.883
788.1150, 1837.619
788.5971, 1838.153
789.0792, 1839.084
789.5613, 1838.479
790.0435, 1838.747
790.5256, 1842.565
791.0077, 1853.283
791.4898, 1858.016
791.9719, 1854.049
792.4540, 1848.542
792.9362, 1849.022
793.4183, 1854.795
793.9004, 1856.918
794.3825, 1854.348
794.8646, 1851.605
795.3467, 1853.601
795.8289, 1857.875
796.3110, 1861.566
796.7931, 1864.748
797.2752, 1865.130
797.7573, 1857.041
798.2394, 1849.120
798.7216, 1849.040
799.2037, 1861.722
799.6858, 1868.788
800.1679, 1868.621
800.6500, 1866.472
801.1321, 1867.971
801.6143, 1872.203
802.0964, 1874.221
802.5785, 1873.173
803.0606, 1872.552
803.5427, 1875.939
804.0248, 1881.140
804.5070, 1885.776
804.9891, 1889.144
805.4712, 1892.730
805.9533, 1897.504
806.4354, 1902.179
806.9175, 1905.806
807.3997, 1908.198
807.8818, 1910.271
808.3639, 1911.841
808.8460, 1913.887
809.3281, 1918.264
809.8102, 1923.838
810.2924, 1927.561
810.7745, 1928.919
811.2566, 1929.515
811.7387, 1930.012
812.2208, 1930.529
812.7029, 1931.341
813.1851, 1933.138
813.6672, 1933.237
814.1493, 1930.619
814.6314, 1927.361
815.1135, 1925.781
815.5956, 1926.063
816.0778, 1922.156
816.5599, 1913.371
817.0420, 1903.880
817.5241, 1896.849
818.0062, 1892.078
818.4883, 1889.657
818.9705, 1889.862
819.4526, 1889.890
819.9347, 1888.226
820.4168, 1886.031
820.8989, 1883.993
821.3810, 1881.920
821.8632, 1881.073
822.3453, 1881.843
822.8274, 1882.997
823.3095, 1884.016
823.7916, 1884.679
824.2737, 1883.441
824.7559, 1880.222
825.2380, 1876.283
825.7201, 1871.080
826.2022, 1866.667
826.6843, 1865.706
827.1664, 1868.912
827.6486, 1871.502
828.1307, 1872.720
828.6128, 1872.700
829.0949, 1870.889
829.5770, 1867.019
830.0591, 1866.037
830.5413, 1868.332
831.0234, 1871.204
831.5055, 1873.108
831.9876, 1874.023
832.4697, 1873.501
832.9518, 1871.643
833.4340, 1870.019
833.9161, 1869.497
834.3982, 1869.530
834.8803, 1869.929
835.3624, 1870.701
835.8445, 1871.129
836.3267, 1870.941
836.8088, 1870.967
837.2909, 1871.726
837.7730, 1873.078
838.2551, 1874.028
838.7372, 1874.631
839.2194, 1875.492
839.7015, 1876.877
840.1836, 1878.839
840.6657, 1881.709
841.1478, 1885.358
841.6299, 1888.805
842.1121, 1891.810
842.5942, 1894.492
843.0763, 1896.955
843.5584, 1899.144
844.0405, 1900.657
844.5226, 1901.335
845.0048, 1902.227
845.4869, 1903.562
845.9690, 1905.541
846.4511, 1907.948
846.9332, 1911.215
847.4153, 1916.808
847.8975, 1929.616
848.3796, 1940.644
848.8617, 1943.367
849.3438, 1940.663
849.8259, 1942.526
850.3080, 1951.362
850.7902, 1960.018
851.2723, 1966.814
851.7544, 1972.633
852.2365, 1979.775
852.7186, 1987.859
853.2007, 1994.502
853.6829, 1998.340
854.1650, 2001.179
854.6471, 2004.210
855.1292, 2007.460
855.6113, 2010.977
856.0934, 2016.099
856.5756, 2019.574
857.0577, 2020.396
857.5398, 2019.958
858.0219, 2020.500
858.5040, 2022.123
858.9861, 2022.515
859.4683, 2021.150
859.9504, 2018.921
860.4325, 2017.014
860.9146, 2014.992
861.3967, 2012.195
861.8788, 2008.523
862.3610, 2003.896
862.8431, 1998.417
863.3252, 1991.859
863.8073, 1984.108
864.2894, 1974.681
864.7715, 1965.265
865.2537, 1955.747
865.7358, 1946.774
866.2179, 1938.950
866.7000, 1932.139
867.1821, 1926.132
867.6642, 1920.914
868.1464, 1915.436
868.6285, 1907.400
869.1106, 1899.940
869.5927, 1895.679
870.0748, 1895.607
870.5569, 1895.067
871.0391, 1894.222
871.5212, 1892.503
872.0033, 1888.969
872.4854, 1884.018
872.9675, 1880.762
873.4496, 1879.115
873.9318, 1878.875
874.4139, 1881.780
874.8960, 1884.537
875.3781, 1883.531
875.8602, 1879.190
876.3423, 1875.832
876.8245, 1875.393
877.3066, 1875.089
877.7887, 1874.485
878.2708, 1873.433
878.7529, 1870.493
879.2350, 1865.689
879.7172, 1863.055
880.1993, 1865.837
880.6814, 1870.053
881.1635, 1870.674
881.6456, 1868.642
882.1277, 1866.130
882.6099, 1862.686
883.0920, 1860.409
883.5741, 1860.939
884.0562, 1862.503
884.5383, 1861.818
885.0204, 1858.203
885.5026, 1857.060
885.9847, 1859.996
886.4668, 1863.766
886.9489, 1863.392
887.4310, 1860.609
887.9131, 1859.025
888.3953, 1859.915
888.8774, 1860.987
889.3595, 1861.616
889.8416, 1861.694
890.3237, 1860.960
890.8058, 1858.577
891.2880, 1858.051
891.7701, 1859.859
892.2522, 1862.029
892.7343, 1862.919
893.2164, 1862.749
893.6985, 1861.572
894.1807, 1859.433
894.6628, 1858.432
895.1449, 1861.541
895.6270, 1864.942
896.1091, 1865.702
896.5912, 1863.380
897.0734, 1862.516
897.5555, 1863.551
898.0376, 1865.024
898.5197, 1866.476
899.0018, 1867.753
899.4839, 1867.904
899.9661, 1867.169
900.4482, 1866.941
900.9303, 1868.945
901.4124, 1870.835
901.8945, 1870.990
902.3766, 1869.790
902.8588, 1868.480
903.3409, 1866.913
903.8230, 1865.838
904.3051, 1865.358
904.7872, 1865.487
905.2693, 1866.550
905.7515, 1868.349
906.2336, 1869.652
906.7157, 1869.907
907.1978, 1870.112
907.6799, 1871.001
908.1620, 1872.366
908.6442, 1874.106
909.1263, 1878.127
909.6084, 1878.561
910.0905, 1872.903
910.5726, 1867.027
911.0547, 1866.794
911.5369, 1871.702
912.0190, 1875.903
912.5011, 1879.091
912.9832, 1880.830
913.4653, 1879.698
913.9474, 1877.676
914.4296, 1876.461
914.9117, 1876.227
915.3938, 1876.806
915.8759, 1879.263
916.3580, 1880.887
916.8401, 1880.146
917.3223, 1877.601
917.8044, 1876.461
918.2865, 1876.700
918.7686, 1878.015
919.2507, 1881.101
919.7328, 1884.444
920.2150, 1887.317
920.6971, 1889.254
921.1792, 1889.181
921.6613, 1883.296
922.1434, 1880.242
922.6255, 1882.444
923.1077, 1886.945
923.5898, 1888.564
924.0719, 1887.452
924.5540, 1886.021
925.0361, 1884.388
925.5182, 1884.066
926.0004, 1888.161
926.4825, 1893.631
926.9646, 1896.658
927.4467, 1895.457
927.9288, 1894.720
928.4109, 1895.090
928.8931, 1895.892
929.3752, 1897.095
929.8573, 1898.660
930.3394, 1897.643
930.8215, 1894.065
931.3036, 1891.372
931.7858, 1893.397
932.2679, 1896.637
932.7500, 1898.281
933.2321, 1898.126
933.7142, 1895.986
934.1964, 1888.294
934.6785, 1883.516
935.1606, 1884.739
935.6427, 1889.822
936.1248, 1892.175
936.6069, 1892.059
937.0891, 1892.603
937.5712, 1895.345
938.0533, 1898.198
938.5354, 1898.824
939.0175, 1898.333
939.4996, 1898.341
939.9818, 1899.734
940.4639, 1900.881
940.9460, 1901.682
941.4281, 1902.227
941.9102, 1902.173
942.3923, 1901.729
942.8745, 1903.524
943.3566, 1907.865
943.8387, 1911.193
944.3208, 1908.768
944.8029, 1905.396
945.2850, 1905.604
945.7672, 1909.920
946.2493, 1913.102
946.7314, 1914.603
947.2135, 1915.259
947.6956, 1915.414
948.1777, 1914.959
948.6599, 1912.756
949.1420, 1909.279
949.6241, 1907.280
950.1062, 1908.311
950.5883, 1910.939
951.0704, 1915.180
951.5526, 1920.125
952.0347, 1923.966
952.5168, 1926.574
952.9989, 1927.971
953.4810, 1927.613
953.9631, 1927.127
954.4453, 1929.111
954.9274, 1932.701
955.4095, 1934.868
955.8916, 1935.142
956.3737, 1934.593
956.8558, 1932.708
957.3380, 1931.184
957.8201, 1931.453
958.3022, 1933.660
958.7843, 1935.855
959.2664, 1937.994
959.7485, 1940.260
960.2307, 1943.042
960.7128, 1945.805
961.1949, 1946.915
961.6770, 1946.814
962.1591, 1947.022
962.6412, 1948.292
963.1234, 1950.013
963.6055, 1952.701
964.0876, 1955.454
964.5697, 1956.772
965.0518, 1956.430
965.5339, 1955.881
966.0161, 1955.365
966.4982, 1954.536
966.9803, 1952.194
967.4624, 1949.530
967.9445, 1948.620
968.4266, 1949.861
968.9088, 1951.978
969.3909, 1955.880
969.8730, 1959.128
970.3551, 1960.234
970.8372, 1959.309
971.3193, 1958.808
971.8015, 1958.686
972.2836, 1959.736
972.7657, 1963.894
973.2478, 1968.119
973.7299, 1968.096
974.2120, 1965.307
974.6942, 1963.455
975.1763, 1964.071
975.6584, 1965.251
976.1405, 1967.024
976.6226, 1968.954
977.1047, 1970.468
977.5869, 1971.593
978.0690, 1972.279
978.5511, 1972.464
979.0332, 1972.736
979.5153, 1973.386
979.9974, 1974.507
980.4796, 1976.189
980.9617, 1978.479
981.4438, 1981.507
981.9259, 1986.329
982.4080, 1989.698
982.8901, 1989.762
983.3723, 1987.512
983.8544, 1985.398
984.3365, 1983.606
984.8186, 1982.915
985.3007, 1984.051
985.7828, 1985.974
986.2650, 1988.707
986.7471, 1991.698
987.2292, 1994.012
987.7113, 1995.399
988.1934, 1997.163
988.6755, 1999.739
989.1577, 2001.349
989.6398, 1998.487
990.1219, 1993.898
990.6040, 1992.936
991.0861, 1996.263
991.5682, 1998.450
992.0504, 1995.339
992.5325, 1992.773
993.0146, 1993.727
993.4967, 1997.474
993.9788, 2000.292
994.4609, 2002.209
994.9431, 2002.451
995.4252, 1999.727
995.9073, 1996.730
996.3894, 1996.276
996.8715, 1997.598
997.3536, 1999.412
997.8358, 2002.093
998.3179, 2004.115
998.8000, 2004.914
999.2821, 2005.841
999.7642, 2008.191
1000.246, 2011.836
1000.728, 2016.532
1001.211, 2022.198
1001.693, 2026.648
1002.175, 2027.859
1002.657, 2027.920
1003.139, 2028.183
1003.621, 2028.516
1004.103, 2027.689
1004.585, 2025.367
1005.068, 2023.042
1005.550, 2020.907
1006.032, 2019.385
1006.514, 2019.783
1006.996, 2021.162
1007.478, 2021.452
1007.960, 2019.321
1008.442, 2018.067
1008.924, 2019.435
1009.407, 2021.434
1009.889, 2022.822
1010.371, 2023.568
1010.853, 2024.411
1011.335, 2025.362
1011.817, 2026.162
1012.299, 2026.598
1012.781, 2026.853
1013.263, 2027.140
1013.746, 2027.397
1014.228, 2027.362
1014.710, 2026.737
1015.192, 2026.184
1015.674, 2025.400
1016.156, 2025.422
1016.638, 2029.392
1017.120, 2035.451
1017.603, 2036.970
1018.085, 2032.240
1018.567, 2028.256
1019.049, 2030.427
1019.531, 2033.680
1020.013, 2034.490
1020.495, 2032.906
1020.977, 2031.237
1021.459, 2029.352
1021.942, 2028.513
1022.424, 2029.770
1022.906, 2031.872
1023.388, 2034.192
1023.870, 2035.894
1024.352, 2035.328
1024.834, 2028.208
1025.316, 2024.361
1025.799, 2025.365
1026.281, 2028.743
1026.763, 2032.716
1027.245, 2036.982
1027.727, 2039.718
1028.209, 2040.864
1028.691, 2041.491
1029.173, 2042.743
1029.656, 2043.332
1030.138, 2041.153
1030.620, 2037.225
1031.102, 2036.990
1031.584, 2041.331
1032.066, 2045.902
1032.548, 2049.981
1033.030, 2052.952
1033.512, 2052.220
1033.995, 2050.236
1034.477, 2051.856
1034.959, 2059.711
1035.441, 2065.115
1035.923, 2064.586
1036.405, 2062.617
1036.887, 2061.362
1037.369, 2060.766
1037.851, 2060.309
1038.334, 2059.977
1038.816, 2059.389
1039.298, 2058.039
1039.780, 2056.708
1040.262, 2056.080
1040.744, 2055.820
1041.226, 2055.280
1041.708, 2054.594
1042.191, 2053.133
1042.673, 2050.700
1043.155, 2048.034
1043.637, 2045.438
1044.119, 2043.287
1044.601, 2041.967
1045.083, 2041.538
1045.565, 2042.785
1046.047, 2050.338
1046.530, 2053.979
1047.012, 2048.437
1047.494, 2038.112
1047.976, 2035.700
1048.458, 2040.324
1048.940, 2045.245
1049.422, 2048.891
1049.904, 2051.470
1050.386, 2054.024
1050.869, 2055.068
1051.351, 2051.965
1051.833, 2043.224
1052.315, 2039.957
1052.797, 2042.979
1053.279, 2047.770
1053.761, 2053.290
1054.243, 2057.849
1054.726, 2057.498
1055.208, 2053.825
1055.690, 2051.057
1056.172, 2051.144
1056.654, 2051.693
1057.136, 2052.535
1057.618, 2053.437
1058.100, 2054.177
1058.583, 2054.757
1059.065, 2054.936
1059.547, 2054.728
1060.029, 2055.059
1060.511, 2057.803
1060.993, 2060.148
1061.475, 2059.917
1061.957, 2057.726
1062.439, 2056.188
1062.922, 2055.358
1063.404, 2055.030
1063.886, 2055.398
1064.368, 2055.493
1064.850, 2052.937
1065.332, 2049.896
1065.814, 2049.711
1066.296, 2053.921
1066.778, 2056.835
1067.261, 2058.077
1067.743, 2057.599
1068.225, 2054.034
1068.707, 2049.352
1069.189, 2051.333
1069.671, 2058.262
1070.153, 2064.022
1070.635, 2066.256
1071.118, 2066.293
1071.600, 2061.974
1072.082, 2057.493
1072.564, 2057.538
1073.046, 2062.573
1073.528, 2066.362
1074.010, 2068.668
1074.492, 2069.828
1074.974, 2068.824
1075.457, 2067.792
1075.939, 2068.630
1076.421, 2071.098
1076.903, 2074.203
1077.385, 2078.922
1077.867, 2080.911
1078.349, 2078.648
1078.831, 2075.610
1079.313, 2076.562
1079.796, 2079.942
1080.278, 2083.303
1080.760, 2086.369
1081.242, 2088.465
1081.724, 2089.474
1082.206, 2089.099
1082.688, 2086.303
1083.170, 2082.532
1083.652, 2083.151
1084.135, 2087.322
1084.617, 2090.670
1085.099, 2091.427
1085.581, 2092.031
1086.063, 2094.794
1086.545, 2097.518
1087.027, 2097.957
1087.509, 2095.762
1087.992, 2095.360
1088.474, 2096.864
1088.956, 2098.794
1089.438, 2100.290
1089.920, 2101.718
1090.402, 2103.280
1090.884, 2105.083
1091.366, 2107.382
1091.849, 2110.039
1092.331, 2113.578
1092.813, 2118.457
1093.295, 2122.832
1093.777, 2124.789
1094.259, 2124.892
1094.741, 2124.105
1095.223, 2122.568
1095.705, 2120.808
1096.188, 2116.527
1096.670, 2115.764
1097.152, 2121.959
1097.634, 2130.458
1098.116, 2131.435
1098.598, 2126.684
1099.080, 2126.620
1099.562, 2133.399
1100.044, 2139.887
1100.527, 2141.290
1101.009, 2140.910
1101.491, 2140.910
1101.973, 2141.157
1102.455, 2139.866
1102.937, 2136.898
1103.419, 2135.922
1103.901, 2138.771
1104.384, 2142.472
1104.866, 2143.237
1105.348, 2143.395
1105.830, 2146.466
1106.312, 2154.679
1106.794, 2156.920
1107.276, 2151.162
1107.758, 2146.554
1108.240, 2149.436
1108.723, 2155.804
1109.205, 2159.401
1109.687, 2160.823
1110.169, 2161.495
1110.651, 2159.656
1111.133, 2160.844
1111.615, 2167.360
1112.097, 2173.774
1112.579, 2174.656
1113.062, 2171.362
1113.544, 2168.071
1114.026, 2165.117
1114.508, 2163.748
1114.990, 2166.333
1115.472, 2168.600
1115.954, 2169.618
1116.436, 2168.988
1116.919, 2165.124
1117.401, 2158.298
1117.883, 2153.903
1118.365, 2152.590
1118.847, 2151.608
1119.329, 2148.967
1119.811, 2145.830
1120.293, 2143.513
1120.776, 2141.411
1121.258, 2136.204
1121.740, 2127.216
1122.222, 2121.953
1122.704, 2123.011
1123.186, 2124.782
1123.668, 2120.722
1124.150, 2114.545
1124.632, 2110.800
1125.115, 2110.535
1125.597, 2106.468
1126.079, 2096.404
1126.561, 2090.041
1127.043, 2092.673
1127.525, 2098.655
1128.007, 2099.597
1128.489, 2096.934
1128.971, 2092.605
1129.454, 2085.375
1129.936, 2081.727
1130.418, 2083.899
1130.900, 2086.222
1131.382, 2085.077
1131.864, 2081.660
1132.346, 2079.059
1132.828, 2077.204
1133.311, 2075.904
1133.793, 2075.144
1134.275, 2074.829
1134.757, 2075.120
1135.239, 2075.565
1135.721, 2076.402
1136.203, 2077.273
1136.685, 2073.895
1137.167, 2066.895
1137.650, 2062.376
1138.132, 2066.641
1138.614, 2071.077
1139.096, 2071.603
1139.578, 2069.999
1140.060, 2068.406
1140.542, 2066.811
1141.024, 2065.477
1141.506, 2064.435
1141.989, 2063.572
1142.471, 2063.174
1142.953, 2062.582
1143.435, 2060.833
1143.917, 2058.530
1144.399, 2057.459
1144.881, 2057.586
1145.363, 2059.874
1145.846, 2064.901
1146.328, 2069.341
1146.810, 2069.175
1147.292, 2067.197
1147.774, 2065.455
1148.256, 2064.331
1148.738, 2065.670
1149.220, 2070.349
1149.703, 2074.193
1150.185, 2076.251
1150.667, 2076.457
1151.149, 2072.662
1151.631, 2067.979
1152.113, 2067.061
1152.595, 2071.248
1153.077, 2074.685
1153.559, 2076.920
1154.042, 2078.452
1154.524, 2079.347
1155.006, 2079.813
1155.488, 2080.645
1155.970, 2081.229
1156.452, 2080.289
1156.934, 2077.101
1157.416, 2073.399
1157.898, 2068.368
1158.381, 2064.911
1158.863, 2065.435
1159.345, 2068.234
1159.827, 2068.585
1160.309, 2067.088
1160.791, 2065.221
1161.273, 2062.213
1161.755, 2061.529
1162.238, 2065.630
1162.720, 2069.853
1163.202, 2070.797
1163.684, 2068.930
1164.166, 2065.799
1164.648, 2061.896
1165.130, 2059.453
1165.612, 2061.466
1166.094, 2062.573
1166.577, 2060.132
1167.059, 2056.934
1167.541, 2055.854
1168.023, 2056.563
1168.505, 2056.755
1168.987, 2056.275
1169.469, 2054.741
1169.951, 2050.070
1170.433, 2046.383
1170.916, 2046.384
1171.398, 2047.880
1171.880, 2048.217
1172.362, 2047.466
1172.844, 2046.539
1173.326, 2045.538
1173.808, 2044.485
1174.290, 2043.896
1174.773, 2042.822
1175.255, 2040.617
1175.737, 2037.597
1176.219, 2033.793
1176.701, 2029.176
1177.183, 2027.049
1177.665, 2027.911
1178.147, 2029.551
1178.630, 2030.836
1179.112, 2031.681
1179.594, 2031.936
1180.076, 2031.689
1180.558, 2031.391
1181.040, 2031.081
1181.522, 2029.080
1182.004, 2024.701
1182.486, 2021.030
1182.969, 2020.939
1183.451, 2022.573
1183.933, 2025.852
1184.415, 2029.829
1184.897, 2028.127
1185.379, 2019.963
1185.861, 2014.856
1186.343, 2015.819
1186.825, 2018.261
1187.308, 2018.765
1187.790, 2017.850
1188.272, 2015.560
1188.754, 2012.049
1189.236, 2009.142
1189.718, 2006.794
1190.200, 2006.371
1190.682, 2009.150
1191.165, 2011.667
1191.647, 2009.362
1192.129, 2005.377
1192.611, 2002.824
1193.093, 2002.023
1193.575, 2003.235
1194.057, 2006.812
1194.539, 2009.742
1195.021, 2010.954
1195.504, 2010.741
1195.986, 2007.345
1196.468, 2003.786
1196.950, 2004.766
1197.432, 2011.773
1197.914, 2015.092
1198.396, 2014.277
1198.878, 2012.542
1199.360, 2010.780
1199.843, 2009.855
1200.325, 2012.359
1200.807, 2015.668
1201.289, 2015.737
1201.771, 2011.374
1202.253, 2007.204
1202.735, 2002.908
1203.217, 2001.253
1203.700, 2006.117
1204.182, 2011.649
1204.664, 2009.501
1205.146, 2004.052
1205.628, 2002.719
1206.110, 2008.162
1206.592, 2010.959
1207.074, 2010.828
1207.557, 2009.781
1208.039, 2008.269
1208.521, 2007.267
1209.003, 2008.294
1209.485, 2010.453
1209.967, 2012.264
1210.449, 2014.459
1210.931, 2012.969
1211.413, 2006.956
1211.896, 2002.555
1212.378, 2005.782
1212.860, 2011.254
1213.342, 2013.552
1213.824, 2013.722
1214.306, 2013.924
1214.788, 2014.783
1215.270, 2014.112
1215.752, 2011.656
1216.235, 2009.470
1216.717, 2009.886
1217.199, 2010.596
1217.681, 2008.436
1218.163, 2004.996
1218.645, 2004.108
1219.127, 2006.691
1219.609, 2008.483
1220.092, 2009.215
1220.574, 2010.204
1221.056, 2012.826
1221.538, 2015.882
1222.020, 2018.775
1222.502, 2021.067
1222.984, 2021.919
1223.466, 2020.998
1223.948, 2019.859
1224.431, 2018.468
1224.913, 2018.471
1225.395, 2023.419
1225.877, 2028.229
1226.359, 2027.168
1226.841, 2023.108
1227.323, 2023.790
1227.805, 2030.408
1228.287, 2033.123
1228.770, 2031.048
1229.252, 2029.059
1229.734, 2031.802
1230.216, 2035.343
1230.698, 2036.353
1231.180, 2036.107
1231.662, 2038.084
1232.144, 2042.619
1232.627, 2044.056
1233.109, 2041.828
1233.591, 2039.943
1234.073, 2042.935
1234.555, 2045.731
1235.037, 2044.052
1235.519, 2040.244
1236.001, 2038.533
1236.484, 2038.942
1236.966, 2041.566
1237.448, 2046.384
1237.930, 2049.077
1238.412, 2043.639
1238.894, 2038.535
1239.376, 2039.784
1239.858, 2043.818
1240.340, 2044.599
1240.823, 2042.526
1241.305, 2042.726
1241.787, 2045.597
1242.269, 2048.429
1242.751, 2048.782
1243.233, 2049.669
1243.715, 2053.303
1244.197, 2057.411
1244.679, 2057.883
1245.162, 2055.540
1245.644, 2054.569
1246.126, 2055.321
1246.608, 2056.911
1247.090, 2059.452
1247.572, 2062.123
1248.054, 2064.986
1248.536, 2067.350
1249.019, 2068.193
1249.501, 2067.578
1249.983, 2064.420
1250.465, 2059.125
1250.947, 2057.189
1251.429, 2064.892
1251.911, 2070.772
1252.393, 2072.154
1252.875, 2071.328
1253.358, 2071.214
1253.840, 2071.332
1254.322, 2070.238
1254.804, 2068.056
1255.286, 2066.854
1255.768, 2068.091
1256.250, 2068.962
1256.732, 2069.167
1257.214, 2068.660
1257.697, 2066.647
1258.179, 2064.305
1258.661, 2063.624
1259.143, 2064.535
1259.625, 2065.720
1260.107, 2067.166
1260.589, 2068.211
1261.071, 2068.531
1261.554, 2069.426
1262.036, 2074.104
1262.518, 2078.785
1263.000, 2077.979
1263.482, 2072.872
1263.964, 2070.472
1264.446, 2071.455
1264.928, 2073.673
1265.411, 2077.095
1265.893, 2079.662
1266.375, 2078.506
1266.857, 2076.596
1267.339, 2075.872
1267.821, 2076.659
1268.303, 2079.607
1268.785, 2084.986
1269.267, 2089.285
1269.750, 2092.136
1270.232, 2093.199
1270.714, 2090.886
1271.196, 2088.113
1271.678, 2086.911
1272.160, 2086.435
1272.642, 2085.427
1273.124, 2083.908
1273.606, 2081.717
1274.089, 2078.928
1274.571, 2076.714
1275.053, 2075.809
1275.535, 2075.677
1276.017, 2076.257
1276.499, 2077.268
1276.981, 2079.038
1277.463, 2080.906
1277.946, 2079.691
1278.428, 2075.673
1278.910, 2072.208
1279.392, 2070.746
1279.874, 2070.266
1280.356, 2070.985
1280.838, 2071.672
1281.320, 2070.612
1281.802, 2068.669
1282.285, 2067.231
1282.767, 2066.511
1283.249, 2067.301
1283.731, 2072.567
1284.213, 2073.348
1284.695, 2067.956
1285.177, 2061.894
1285.659, 2059.730
1286.141, 2060.190
1286.624, 2062.651
1287.106, 2066.355
1287.588, 2069.534
1288.070, 2072.578
1288.552, 2072.552
1289.034, 2069.010
1289.516, 2065.996
1289.998, 2067.495
1290.481, 2069.865
1290.963, 2069.938
1291.445, 2068.993
1291.927, 2069.171
1292.409, 2070.465
1292.891, 2073.222
1293.373, 2077.292
1293.855, 2080.274
1294.338, 2079.769
1294.820, 2078.968
1295.302, 2079.295
1295.784, 2080.109
1296.266, 2080.814
1296.748, 2081.539
1297.230, 2083.427
1297.712, 2086.218
1298.194, 2088.349
1298.677, 2088.197
1299.159, 2087.440
1299.641, 2085.783
1300.123, 2084.623
1300.605, 2085.461
1301.087, 2087.193
1301.569, 2087.508
1302.051, 2086.045
1302.533, 2082.159
1303.016, 2073.929
##END=



