##NAMES=Lavinskyite
##RRUFFID=R120057
##IDEAL CHEMISTRY=K(LiCu^2+^)Cu^2+^_6_(Si_4_O_11_)_2_(OH)_4_
##LOCALITY=Wessels mine, Kalahari manganese field, Northern Cape Province, South Africa
##OWNER=RRUFF
##SOURCE=William W. Pinch, Robert Lavinsky, and Marcus Origlieri
##DESCRIPTION=Light blue plates, associated with R120019 wesselsite, and R120077 scottyite. This is the type sample.
##STATUS=The identification of this mineral is confirmed by single-crystal X-ray diffraction and chemical analysis.
##URL=rruff.info/R120057
##MEASURED CHEMISTRY=(K_0.99_Ba_0.01_)_Σ=1.00_(Li_1.04_Cu_0.50_Mg_0.43_Na_0.10_Mn_0.01_)_Σ=2.08_Cu_6.00_Si_7.99_O_22_(OH)_4.00_  ; (Lavinskyite is the darkest material in the image)
91.60352, 1568.108
92.08563, 1511.263
92.56775, 1504.273
93.04987, 1573.694
93.53198, 1658.342
94.01410, 1721.148
94.49622, 1762.212
94.97833, 1790.441
95.46045, 1813.416
95.94257, 1831.197
96.42468, 1844.677
96.90680, 1855.242
97.38892, 1863.824
97.87103, 1870.704
98.35315, 1873.886
98.83527, 1872.791
99.31738, 1872.113
99.79950, 1872.678
100.2816, 1873.355
100.7637, 1873.667
101.2458, 1873.652
101.7280, 1873.467
102.2101, 1873.127
102.6922, 1872.286
103.1743, 1869.958
103.6564, 1866.071
104.1385, 1861.801
104.6207, 1857.647
105.1028, 1853.359
105.5849, 1848.035
106.0670, 1840.640
106.5491, 1831.946
107.0313, 1822.759
107.5134, 1812.864
107.9955, 1803.317
108.4776, 1795.372
108.9597, 1789.289
109.4418, 1783.338
109.9240, 1777.034
110.4061, 1770.600
110.8882, 1763.998
111.3703, 1757.137
111.8524, 1750.528
112.3345, 1745.688
112.8167, 1744.489
113.2988, 1742.683
113.7809, 1739.582
114.2630, 1735.545
114.7451, 1730.932
115.2272, 1725.952
115.7094, 1720.605
116.1915, 1715.836
116.6736, 1712.533
117.1557, 1708.783
117.6378, 1703.509
118.1199, 1697.042
118.6021, 1690.632
119.0842, 1685.311
119.5663, 1681.203
120.0484, 1677.350
120.5305, 1674.036
121.0126, 1670.751
121.4948, 1666.963
121.9769, 1662.550
122.4590, 1658.055
122.9411, 1654.374
123.4232, 1651.214
123.9053, 1647.428
124.3875, 1642.185
124.8696, 1635.993
125.3517, 1630.340
125.8338, 1625.665
126.3159, 1621.182
126.7980, 1616.093
127.2802, 1610.564
127.7623, 1605.427
128.2444, 1601.454
128.7265, 1598.776
129.2086, 1596.082
129.6907, 1593.425
130.1729, 1590.614
130.6550, 1587.505
131.1371, 1584.107
131.6192, 1580.590
132.1013, 1577.169
132.5834, 1573.721
133.0656, 1570.608
133.5477, 1567.857
134.0298, 1565.368
134.5119, 1563.075
134.9940, 1560.961
135.4761, 1559.033
135.9583, 1557.338
136.4404, 1556.156
136.9225, 1554.897
137.4046, 1553.572
137.8867, 1552.147
138.3688, 1550.575
138.8510, 1548.814
139.3331, 1546.912
139.8152, 1545.076
140.2973, 1543.668
140.7794, 1541.822
141.2615, 1538.534
141.7437, 1534.234
142.2258, 1530.929
142.7079, 1530.293
143.1900, 1531.060
143.6721, 1530.398
144.1542, 1527.490
144.6364, 1523.963
145.1185, 1521.446
145.6006, 1520.095
146.0827, 1518.802
146.5648, 1517.163
147.0469, 1515.222
147.5291, 1512.957
148.0112, 1510.352
148.4933, 1507.441
148.9754, 1504.285
149.4575, 1500.783
149.9396, 1497.163
150.4218, 1493.501
150.9039, 1489.779
151.3860, 1486.042
151.8681, 1482.358
152.3502, 1478.641
152.8323, 1474.378
153.3145, 1468.536
153.7966, 1463.109
154.2787, 1458.795
154.7608, 1455.189
155.2429, 1451.392
155.7250, 1446.615
156.2072, 1440.752
156.6893, 1435.593
157.1714, 1431.705
157.6535, 1427.810
158.1356, 1423.399
158.6177, 1418.459
159.0999, 1413.190
159.5820, 1407.776
160.0641, 1402.177
160.5462, 1396.367
161.0283, 1389.431
161.5104, 1382.929
161.9926, 1378.613
162.4747, 1376.676
162.9568, 1374.848
163.4389, 1370.516
163.9210, 1363.813
164.4031, 1357.428
164.8853, 1351.669
165.3674, 1346.531
165.8495, 1342.306
166.3316, 1339.281
166.8137, 1336.439
167.2958, 1332.673
167.7780, 1328.212
168.2601, 1323.902
168.7422, 1320.312
169.2243, 1317.244
169.7064, 1313.909
170.1885, 1309.885
170.6707, 1306.053
171.1528, 1303.147
171.6349, 1300.975
172.1170, 1298.696
172.5991, 1295.462
173.0812, 1291.206
173.5634, 1287.428
174.0455, 1284.289
174.5276, 1281.608
175.0097, 1279.637
175.4918, 1278.207
175.9739, 1276.731
176.4561, 1274.596
176.9382, 1271.658
177.4203, 1268.431
177.9024, 1264.453
178.3845, 1260.572
178.8666, 1257.205
179.3488, 1254.435
179.8309, 1252.104
180.3130, 1250.067
180.7951, 1248.465
181.2772, 1246.874
181.7593, 1245.228
182.2415, 1243.637
182.7236, 1242.418
183.2057, 1241.574
183.6878, 1240.526
184.1699, 1238.333
184.6520, 1234.085
185.1342, 1230.465
185.6163, 1227.536
186.0984, 1225.264
186.5805, 1223.825
187.0626, 1223.320
187.5447, 1223.144
188.0269, 1222.281
188.5090, 1220.684
188.9911, 1218.816
189.4732, 1216.344
189.9553, 1213.724
190.4374, 1211.840
190.9196, 1211.040
191.4017, 1210.801
191.8838, 1210.410
192.3659, 1209.874
192.8480, 1209.211
193.3301, 1208.360
193.8123, 1207.362
194.2944, 1206.341
194.7765, 1205.185
195.2586, 1204.203
195.7407, 1203.819
196.2228, 1204.044
196.7050, 1204.102
197.1871, 1203.202
197.6692, 1201.407
198.1513, 1200.073
198.6334, 1199.833
199.1155, 1199.862
199.5977, 1199.642
200.0798, 1199.139
200.5619, 1198.534
201.0440, 1197.808
201.5261, 1196.834
202.0082, 1196.622
202.4904, 1198.153
202.9725, 1199.906
203.4546, 1201.387
203.9367, 1202.432
204.4188, 1202.859
204.9009, 1202.144
205.3831, 1199.543
205.8652, 1198.128
206.3473, 1199.387
206.8294, 1200.719
207.3115, 1200.588
207.7936, 1198.776
208.2758, 1196.096
208.7579, 1193.660
209.2400, 1191.602
209.7221, 1189.505
210.2042, 1187.541
210.6863, 1185.439
211.1685, 1182.887
211.6506, 1179.877
212.1327, 1176.766
212.6148, 1174.051
213.0969, 1171.975
213.5790, 1169.881
214.0612, 1167.988
214.5433, 1165.955
215.0254, 1163.269
215.5075, 1159.889
215.9896, 1156.473
216.4717, 1154.031
216.9539, 1153.186
217.4360, 1151.842
217.9181, 1149.673
218.4002, 1147.134
218.8823, 1144.517
219.3644, 1141.894
219.8466, 1139.508
220.3287, 1137.856
220.8108, 1137.144
221.2929, 1135.918
221.7750, 1133.416
222.2571, 1130.517
222.7393, 1128.463
223.2214, 1127.620
223.7035, 1127.005
224.1856, 1125.291
224.6677, 1122.583
225.1498, 1119.939
225.6320, 1117.789
226.1141, 1115.829
226.5962, 1113.446
227.0783, 1110.370
227.5604, 1107.370
228.0425, 1105.226
228.5247, 1103.796
229.0068, 1102.658
229.4889, 1102.053
229.9710, 1101.608
230.4531, 1100.367
230.9352, 1097.944
231.4174, 1095.335
231.8995, 1093.380
232.3816, 1091.872
232.8637, 1090.270
233.3458, 1088.198
233.8279, 1085.816
234.3101, 1083.610
234.7922, 1081.642
235.2743, 1079.814
235.7564, 1077.993
236.2385, 1076.248
236.7206, 1074.747
237.2028, 1073.926
237.6849, 1073.455
238.1670, 1071.826
238.6491, 1068.386
239.1312, 1064.677
239.6133, 1061.056
240.0955, 1057.665
240.5776, 1054.698
241.0597, 1052.353
241.5418, 1050.514
242.0239, 1048.692
242.5060, 1046.914
242.9882, 1045.103
243.4703, 1043.238
243.9524, 1041.323
244.4345, 1039.381
244.9166, 1037.452
245.3987, 1035.478
245.8809, 1033.193
246.3630, 1029.977
246.8451, 1027.279
247.3272, 1025.831
247.8093, 1024.917
248.2914, 1023.630
248.7736, 1021.473
249.2557, 1018.612
249.7378, 1015.731
250.2199, 1012.413
250.7020, 1009.623
251.1841, 1007.744
251.6663, 1006.373
252.1484, 1005.205
252.6305, 1004.099
253.1126, 1002.848
253.5947, 1000.716
254.0768, 996.2080
254.5590, 992.6479
255.0411, 990.7977
255.5232, 989.7664
256.0053, 988.5129
256.4874, 986.6065
256.9695, 984.4125
257.4517, 982.8179
257.9338, 982.9030
258.4159, 982.2885
258.8980, 980.3411
259.3801, 977.9476
259.8622, 975.9160
260.3444, 974.5359
260.8265, 973.7631
261.3086, 973.5822
261.7907, 975.2786
262.2728, 975.4030
262.7549, 972.6500
263.2371, 968.9127
263.7192, 966.0984
264.2013, 964.7039
264.6834, 963.9224
265.1655, 962.5637
265.6476, 960.3033
266.1298, 958.2203
266.6119, 956.2863
267.0940, 954.5605
267.5761, 953.0519
268.0582, 951.7679
268.5403, 950.8944
269.0225, 950.8483
269.5046, 952.0222
269.9867, 951.9952
270.4688, 949.8688
270.9509, 947.0527
271.4330, 944.6008
271.9152, 942.6718
272.3973, 941.1163
272.8794, 939.8422
273.3615, 938.8811
273.8436, 938.0828
274.3257, 937.5616
274.8079, 937.1099
275.2900, 936.7441
275.7721, 936.4134
276.2542, 935.6307
276.7363, 933.8157
277.2184, 931.1249
277.7006, 929.0548
278.1827, 927.9841
278.6648, 927.2477
279.1469, 926.6270
279.6290, 926.0531
280.1111, 925.0158
280.5933, 922.9451
281.0754, 920.2578
281.5575, 918.3857
282.0396, 917.8039
282.5217, 917.4545
283.0038, 916.7158
283.4860, 915.6522
283.9681, 914.5998
284.4502, 913.7621
284.9323, 912.9786
285.4144, 911.9103
285.8965, 910.4552
286.3787, 908.9850
286.8608, 907.7316
287.3429, 906.6409
287.8250, 905.4146
288.3071, 903.7434
288.7892, 902.2119
289.2714, 901.7316
289.7535, 902.3956
290.2356, 903.1111
290.7177, 903.8341
291.1998, 904.2410
291.6819, 903.2297
292.1641, 900.0222
292.6462, 896.3775
293.1283, 894.1348
293.6104, 893.1458
294.0925, 892.7838
294.5746, 893.5242
295.0568, 894.6110
295.5389, 894.2656
296.0210, 891.8400
296.5031, 889.3102
296.9852, 888.7743
297.4673, 889.5570
297.9495, 889.8505
298.4316, 888.8968
298.9137, 887.1902
299.3958, 885.3890
299.8779, 883.4894
300.3600, 881.5768
300.8422, 879.3141
301.3243, 877.1435
301.8064, 876.0016
302.2885, 876.6619
302.7706, 877.8682
303.2527, 878.1452
303.7349, 877.4334
304.2170, 876.6800
304.6991, 876.5771
305.1812, 876.5499
305.6633, 875.6918
306.1454, 873.5463
306.6276, 871.4343
307.1097, 870.7556
307.5918, 871.4163
308.0739, 871.7393
308.5560, 871.1956
309.0381, 870.0178
309.5203, 868.3649
310.0024, 866.1608
310.4845, 864.2360
310.9666, 863.2535
311.4487, 863.0651
311.9308, 863.0067
312.4130, 863.0836
312.8951, 863.0533
313.3772, 862.7726
313.8593, 862.2394
314.3414, 861.3972
314.8235, 859.7664
315.3057, 857.8184
315.7878, 856.9504
316.2699, 857.7320
316.7520, 858.5042
317.2341, 857.7986
317.7162, 856.1671
318.1984, 854.7653
318.6805, 854.2928
319.1626, 854.1637
319.6447, 853.3270
320.1268, 851.6130
320.6089, 850.0710
321.0911, 849.6229
321.5732, 849.6262
322.0553, 849.1615
322.5374, 847.8460
323.0195, 846.3414
323.5016, 845.3123
323.9838, 844.7543
324.4659, 844.3807
324.9480, 844.2128
325.4301, 844.0901
325.9122, 843.8727
326.3943, 843.5773
326.8765, 843.0410
327.3586, 841.8889
327.8407, 840.2838
328.3228, 839.2340
328.8049, 839.2619
329.2870, 839.5099
329.7692, 839.0116
330.2513, 837.8387
330.7334, 836.7751
331.2155, 836.2732
331.6976, 836.1454
332.1797, 835.9688
332.6619, 835.6960
333.1440, 835.3809
333.6261, 835.0974
334.1082, 834.8105
334.5903, 834.4097
335.0724, 833.6092
335.5546, 832.8061
336.0367, 832.7454
336.5188, 833.5350
337.0009, 833.9285
337.4830, 832.9299
337.9651, 831.1276
338.4473, 829.6243
338.9294, 828.5320
339.4115, 827.7708
339.8936, 827.6006
340.3757, 827.8865
340.8578, 827.5400
341.3400, 825.8487
341.8221, 823.6284
342.3042, 822.1041
342.7863, 821.3173
343.2684, 820.8461
343.7505, 820.6976
344.2327, 820.7032
344.7148, 820.4294
345.1969, 819.7356
345.6790, 818.8766
346.1611, 818.0515
346.6432, 817.2618
347.1254, 816.6732
347.6075, 816.6461
348.0896, 816.6893
348.5717, 816.0994
349.0538, 814.7947
349.5359, 813.4338
350.0181, 812.4575
350.5002, 811.8369
350.9823, 811.3311
351.4644, 811.2657
351.9465, 811.0267
352.4286, 809.9104
352.9108, 808.1425
353.3929, 806.8508
353.8750, 806.7568
354.3571, 807.3087
354.8392, 807.0912
355.3214, 805.8060
355.8035, 804.5590
356.2856, 803.8763
356.7677, 803.4763
357.2498, 802.7752
357.7319, 801.5559
358.2141, 800.2960
358.6962, 799.7646
359.1783, 800.1490
359.6604, 800.0673
360.1425, 798.8510
360.6246, 797.4202
361.1068, 796.9077
361.5889, 797.3207
362.0710, 797.3571
362.5531, 795.7264
363.0352, 792.4720
363.5173, 790.4153
363.9995, 790.3782
364.4816, 790.5880
364.9637, 790.2660
365.4458, 789.5214
365.9279, 788.6509
366.4100, 787.7529
366.8922, 786.9609
367.3743, 786.7715
367.8564, 788.0837
368.3385, 788.6837
368.8206, 787.8157
369.3027, 786.2867
369.7849, 784.9541
370.2670, 784.0737
370.7491, 783.4905
371.2312, 783.0228
371.7133, 782.7594
372.1954, 782.3336
372.6776, 781.5758
373.1597, 780.8135
373.6418, 780.1595
374.1239, 779.6709
374.6060, 779.4828
375.0881, 779.7733
375.5703, 780.5128
376.0524, 780.6486
376.5345, 779.6388
377.0166, 778.6711
377.4987, 778.0822
377.9808, 777.6823
378.4630, 777.0956
378.9451, 776.1465
379.4272, 775.1181
379.9093, 774.7075
380.3914, 775.3723
380.8735, 775.9220
381.3557, 776.5272
381.8378, 776.8672
382.3199, 776.4216
382.8020, 775.2820
383.2841, 774.2967
383.7662, 774.5866
384.2484, 776.4639
384.7305, 777.4037
385.2126, 776.5108
385.6947, 775.4913
386.1768, 774.7666
386.6589, 774.3248
387.1411, 774.0482
387.6232, 773.8839
388.1053, 773.8007
388.5874, 773.7076
389.0695, 773.6632
389.5516, 773.4875
390.0338, 773.0455
390.5159, 772.5260
390.9980, 772.0569
391.4801, 771.6783
391.9622, 771.4705
392.4443, 771.7372
392.9265, 772.6022
393.4086, 772.7415
393.8907, 771.1798
394.3728, 769.6160
394.8549, 769.1233
395.3370, 769.5255
395.8192, 769.9960
396.3013, 770.0989
396.7834, 769.8670
397.2655, 769.2897
397.7476, 768.1259
398.2297, 767.2502
398.7119, 767.5650
399.1940, 768.3046
399.6761, 768.4085
400.1582, 767.3828
400.6403, 766.1593
401.1224, 765.8011
401.6046, 766.2430
402.0867, 766.4245
402.5688, 765.8520
403.0509, 765.0803
403.5330, 764.7819
404.0151, 764.9592
404.4973, 765.2106
404.9794, 765.6788
405.4615, 766.0184
405.9436, 765.4271
406.4257, 763.7094
406.9078, 761.9397
407.3900, 760.9473
407.8721, 760.6790
408.3542, 760.6619
408.8363, 761.0537
409.3184, 761.5284
409.8005, 761.9717
410.2827, 762.3442
410.7648, 762.4436
411.2469, 762.1022
411.7290, 761.5964
412.2111, 761.6081
412.6932, 762.3651
413.1754, 762.9749
413.6575, 763.2275
414.1396, 763.2866
414.6217, 763.3203
415.1038, 763.3552
415.5859, 763.3224
416.0681, 763.1505
416.5502, 762.8268
417.0323, 762.4504
417.5144, 761.7850
417.9965, 761.3140
418.4786, 761.1317
418.9608, 761.2985
419.4429, 762.0071
419.9250, 763.3875
420.4071, 765.1154
420.8892, 766.2993
421.3713, 766.7708
421.8535, 766.8832
422.3356, 766.4417
422.8177, 765.8255
423.2998, 765.2739
423.7819, 764.8459
424.2640, 764.5197
424.7462, 764.2448
425.2283, 764.0029
425.7104, 764.0682
426.1925, 764.8735
426.6746, 765.5215
427.1567, 765.5922
427.6389, 765.3759
428.1210, 765.3555
428.6031, 765.7871
429.0852, 766.4272
429.5673, 766.8096
430.0494, 766.9252
430.5316, 766.8281
431.0137, 766.0119
431.4958, 765.3494
431.9779, 765.5512
432.4600, 766.6075
432.9421, 767.7700
433.4243, 768.6130
433.9064, 769.1220
434.3885, 769.1889
434.8706, 768.6846
435.3527, 768.0272
435.8348, 767.1798
436.3170, 766.4039
436.7991, 766.2419
437.2812, 767.1555
437.7633, 768.2562
438.2454, 768.8566
438.7275, 768.9567
439.2097, 768.4720
439.6918, 767.1801
440.1739, 765.5734
440.6560, 764.2607
441.1381, 763.1629
441.6202, 762.6761
442.1024, 763.6073
442.5845, 764.8287
443.0666, 764.9864
443.5487, 763.9913
444.0308, 762.6188
444.5129, 761.3492
444.9951, 760.2108
445.4772, 759.3704
445.9593, 759.6129
446.4414, 759.2148
446.9235, 757.2648
447.4056, 754.4593
447.8878, 751.7726
448.3699, 749.5445
448.8520, 747.6380
449.3341, 745.8533
449.8162, 744.2653
450.2983, 742.6011
450.7805, 740.8737
451.2626, 739.0767
451.7447, 737.1165
452.2268, 735.0751
452.7089, 733.1231
453.1910, 731.3802
453.6732, 729.8267
454.1553, 728.4241
454.6374, 727.3694
455.1195, 726.1168
455.6016, 724.3799
456.0837, 722.5670
456.5659, 720.9571
457.0480, 719.6171
457.5301, 718.6036
458.0122, 718.2090
458.4943, 718.4077
458.9764, 717.9421
459.4586, 716.5180
459.9407, 714.7797
460.4228, 712.7237
460.9049, 710.6794
461.3870, 709.2756
461.8691, 708.8655
462.3513, 708.9617
462.8334, 709.2082
463.3155, 709.5817
463.7976, 709.4485
464.2797, 708.5580
464.7618, 707.1185
465.2440, 704.9879
465.7261, 702.0977
466.2082, 700.4484
466.6903, 701.7932
467.1724, 704.1520
467.6545, 705.2281
468.1367, 704.8490
468.6188, 703.6811
469.1009, 702.0462
469.5830, 700.0125
470.0651, 697.8796
470.5472, 695.2351
471.0294, 693.0344
471.5115, 691.4865
471.9936, 690.5280
472.4757, 690.3455
472.9578, 690.9052
473.4399, 691.4086
473.9221, 690.8246
474.4042, 688.8744
474.8863, 687.4449
475.3684, 686.5587
475.8505, 686.0812
476.3326, 686.5148
476.8148, 687.2141
477.2969, 687.0056
477.7790, 685.2941
478.2611, 682.8759
478.7432, 681.6002
479.2253, 682.1468
479.7075, 681.9183
480.1896, 679.3002
480.6717, 676.9451
481.1538, 676.8887
481.6359, 678.6477
482.1180, 679.8079
482.6002, 678.3242
483.0823, 675.1980
483.5644, 673.2809
484.0465, 672.8381
484.5286, 672.7003
485.0107, 672.8652
485.4929, 672.7864
485.9750, 671.4942
486.4571, 668.5543
486.9392, 666.1926
487.4213, 666.3356
487.9034, 667.9465
488.3856, 668.8036
488.8677, 668.5574
489.3498, 667.5500
489.8319, 665.7748
490.3140, 663.3441
490.7961, 661.6982
491.2783, 661.2768
491.7604, 661.1513
492.2425, 661.1302
492.7246, 661.0643
493.2067, 660.6273
493.6888, 659.7078
494.1710, 658.6127
494.6531, 657.8198
495.1352, 657.3981
495.6173, 657.0930
496.0994, 657.1775
496.5815, 657.0997
497.0637, 656.5186
497.5458, 655.5691
498.0279, 654.5637
498.5100, 653.6727
498.9921, 652.8538
499.4742, 651.9668
499.9564, 650.9388
500.4385, 650.0266
500.9206, 648.6095
501.4027, 647.8248
501.8848, 649.2839
502.3669, 652.4315
502.8491, 654.3751
503.3312, 652.4550
503.8133, 648.0563
504.2954, 644.8591
504.7775, 643.0096
505.2596, 641.7740
505.7418, 641.3223
506.2239, 641.0395
506.7060, 639.9747
507.1881, 637.9001
507.6702, 635.8258
508.1523, 633.9890
508.6345, 632.5665
509.1166, 632.1105
509.5987, 632.7026
510.0808, 633.2297
510.5629, 632.7309
511.0450, 631.3041
511.5272, 630.1824
512.0093, 629.8130
512.4914, 629.1662
512.9735, 627.4817
513.4556, 625.5304
513.9377, 624.4810
514.4199, 624.5883
514.9020, 624.9443
515.3841, 624.4094
515.8662, 622.8655
516.3483, 621.2672
516.8304, 619.4384
517.3126, 617.7531
517.7947, 616.3214
518.2768, 615.1068
518.7589, 614.0284
519.2410, 613.0500
519.7231, 612.2615
520.2053, 611.8881
520.6874, 611.9724
521.1695, 611.8548
521.6516, 611.4558
522.1337, 610.8088
522.6158, 610.0190
523.0980, 609.0368
523.5801, 607.6865
524.0622, 605.5974
524.5443, 603.4264
525.0264, 601.7665
525.5085, 600.6082
525.9907, 600.0635
526.4728, 600.3215
526.9549, 600.8757
527.4370, 600.9739
527.9191, 600.5605
528.4012, 600.1191
528.8834, 599.9094
529.3655, 599.5079
529.8476, 598.4476
530.3297, 596.9274
530.8118, 595.5292
531.2939, 594.5585
531.7761, 593.9219
532.2582, 593.4215
532.7403, 593.3432
533.2224, 592.8398
533.7045, 591.3102
534.1866, 589.9103
534.6688, 589.5490
535.1509, 589.9542
535.6330, 590.1548
536.1151, 589.4816
536.5972, 588.2229
537.0793, 587.1005
537.5615, 586.1169
538.0436, 585.2957
538.5257, 584.7462
539.0078, 584.3094
539.4899, 583.9333
539.9720, 583.5997
540.4542, 583.0603
540.9363, 582.0010
541.4184, 580.7691
541.9005, 579.8868
542.3826, 579.3590
542.8647, 578.8655
543.3469, 578.2296
543.8290, 577.5255
544.3111, 576.9446
544.7932, 576.5097
545.2753, 576.1170
545.7574, 576.1381
546.2396, 575.9114
546.7217, 574.4689
547.2038, 572.0971
547.6859, 570.2104
548.1680, 569.8541
548.6501, 570.6541
549.1323, 570.9720
549.6144, 570.6953
550.0965, 570.0921
550.5786, 568.8417
551.0607, 567.5922
551.5428, 566.9177
552.0250, 566.7698
552.5071, 566.5818
552.9892, 565.7833
553.4713, 564.6909
553.9534, 564.3931
554.4355, 565.1245
554.9177, 565.4467
555.3998, 564.6118
555.8819, 563.1776
556.3640, 561.8730
556.8461, 560.7010
557.3282, 559.7070
557.8104, 558.9481
558.2925, 558.3458
558.7746, 557.9674
559.2567, 557.7355
559.7388, 557.1149
560.2209, 555.6664
560.7031, 553.7754
561.1852, 552.6726
561.6673, 553.3876
562.1494, 553.4330
562.6315, 552.3796
563.1136, 550.9594
563.5958, 549.4188
564.0779, 547.9690
564.5600, 547.1143
565.0421, 547.3411
565.5242, 548.1836
566.0063, 548.0034
566.4885, 546.4454
566.9706, 544.8996
567.4527, 543.2886
567.9348, 542.1193
568.4169, 542.1337
568.8990, 543.1389
569.3812, 543.7091
569.8633, 542.6741
570.3454, 540.9946
570.8275, 540.1324
571.3096, 540.0398
571.7917, 539.8167
572.2739, 539.0540
572.7560, 538.0038
573.2381, 537.0800
573.7202, 536.2614
574.2023, 535.6295
574.6844, 535.2686
575.1666, 535.0300
575.6487, 534.9736
576.1308, 534.9523
576.6129, 534.5828
577.0950, 533.6454
577.5771, 532.4454
578.0593, 531.6654
578.5414, 531.4485
579.0235, 531.2569
579.5056, 531.1406
579.9877, 530.9690
580.4698, 530.6955
580.9520, 530.3159
581.4341, 529.7993
581.9162, 529.0526
582.3983, 528.3262
582.8804, 528.0098
583.3625, 528.0648
583.8447, 528.1237
584.3268, 528.1552
584.8089, 528.0483
585.2910, 527.5972
585.7731, 526.8477
586.2552, 526.2702
586.7374, 526.0383
587.2195, 525.8531
587.7016, 525.7976
588.1837, 525.6254
588.6658, 524.6985
589.1479, 522.8829
589.6301, 521.0979
590.1122, 520.5759
590.5943, 521.5193
591.0764, 521.7758
591.5585, 520.5184
592.0406, 519.5219
592.5228, 519.5441
593.0049, 519.8849
593.4870, 519.5619
593.9691, 518.3459
594.4512, 517.2144
594.9333, 517.3159
595.4155, 518.3227
595.8976, 518.7874
596.3797, 518.5670
596.8618, 518.0797
597.3439, 517.4079
597.8260, 516.6975
598.3082, 516.3099
598.7903, 516.4008
599.2724, 516.4268
599.7545, 516.2311
600.2366, 515.8763
600.7188, 515.2966
601.2009, 514.5756
601.6830, 514.1017
602.1651, 514.1689
602.6472, 514.5966
603.1293, 514.6989
603.6115, 514.1931
604.0936, 513.8779
604.5757, 514.3967
605.0578, 514.5909
605.5399, 513.3386
606.0220, 511.0827
606.5042, 509.3112
606.9863, 508.9576
607.4684, 509.3812
607.9505, 509.7138
608.4326, 509.9492
608.9147, 509.7674
609.3969, 508.9333
609.8790, 507.9409
610.3611, 507.3585
610.8432, 507.1456
611.3253, 506.8324
611.8074, 506.3798
612.2896, 505.8068
612.7717, 504.7587
613.2538, 503.6986
613.7359, 503.5261
614.2180, 504.4634
614.7001, 505.8159
615.1823, 506.8875
615.6644, 507.7087
616.1465, 507.5331
616.6286, 505.4116
617.1107, 503.5842
617.5928, 502.6230
618.0750, 502.2140
618.5571, 502.2312
619.0392, 502.6081
619.5213, 502.7312
620.0034, 501.7481
620.4855, 500.2766
620.9677, 499.8451
621.4498, 500.5512
621.9319, 501.2674
622.4140, 501.5059
622.8961, 501.3532
623.3782, 500.9482
623.8604, 500.2651
624.3425, 499.4622
624.8246, 498.0190
625.3067, 496.9408
625.7888, 497.3042
626.2709, 498.5714
626.7531, 499.3907
627.2352, 499.0903
627.7173, 498.1353
628.1994, 497.3365
628.6815, 496.7217
629.1636, 496.0804
629.6458, 495.3454
630.1279, 494.6568
630.6100, 493.8224
631.0921, 493.1307
631.5742, 493.2211
632.0563, 494.5331
632.5385, 495.7881
633.0206, 495.9652
633.5027, 495.4604
633.9848, 495.1273
634.4669, 495.0796
634.9490, 494.6685
635.4312, 493.2330
635.9133, 491.1671
636.3954, 490.3327
636.8775, 492.2721
637.3596, 493.4024
637.8417, 493.0247
638.3239, 492.2833
638.8060, 491.9105
639.2881, 491.9203
639.7702, 492.0703
640.2523, 492.2891
640.7344, 492.3727
641.2166, 491.8182
641.6987, 490.5883
642.1808, 489.4274
642.6629, 488.2407
643.1450, 487.5366
643.6271, 488.1983
644.1093, 489.8132
644.5914, 490.8604
645.0735, 490.9391
645.5556, 490.6305
646.0377, 489.3073
646.5198, 488.1339
647.0020, 489.6407
647.4841, 493.8347
647.9662, 497.2006
648.4483, 496.3631
648.9304, 492.0479
649.4125, 489.4127
649.8947, 489.3510
650.3768, 489.3502
650.8589, 488.8542
651.3410, 488.3652
651.8231, 488.3667
652.3052, 488.7534
652.7874, 488.8942
653.2695, 488.2892
653.7516, 487.4556
654.2337, 486.9052
654.7158, 486.6572
655.1979, 486.8150
655.6801, 487.4150
656.1622, 488.4328
656.6443, 490.0794
657.1264, 492.4561
657.6085, 493.3598
658.0906, 491.3937
658.5728, 489.9218
659.0549, 489.7657
659.5370, 490.4732
660.0191, 491.9168
660.5012, 493.8350
660.9833, 495.3181
661.4655, 495.4242
661.9476, 494.6460
662.4297, 494.4542
662.9118, 494.8667
663.3939, 495.7522
663.8760, 497.2328
664.3582, 498.9762
664.8403, 500.7288
665.3224, 502.4764
665.8045, 503.7881
666.2866, 504.3376
666.7687, 504.7051
667.2509, 505.1412
667.7330, 505.6318
668.2151, 506.0868
668.6972, 506.5052
669.1793, 507.0212
669.6614, 507.6696
670.1436, 508.5174
670.6257, 510.6518
671.1078, 515.1121
671.5899, 518.7193
672.0720, 520.0502
672.5541, 520.5803
673.0363, 521.3094
673.5184, 522.3094
674.0005, 523.4455
674.4826, 524.5289
674.9647, 525.8373
675.4468, 528.0754
675.9290, 530.7878
676.4111, 532.4490
676.8932, 532.5665
677.3753, 532.2595
677.8574, 532.8757
678.3395, 534.4702
678.8217, 535.5772
679.3038, 536.3416
679.7859, 536.3846
680.2680, 535.3223
680.7501, 533.7399
681.2322, 532.1010
681.7144, 530.4863
682.1965, 528.7764
682.6786, 526.9109
683.1607, 524.9121
683.6428, 522.7825
684.1249, 520.5345
684.6071, 518.3470
685.0892, 516.2582
685.5713, 514.2697
686.0534, 512.4285
686.5355, 510.7656
687.0176, 508.7287
687.4998, 505.9677
687.9819, 503.3133
688.4640, 500.9740
688.9461, 498.8424
689.4282, 496.8088
689.9103, 494.8535
690.3925, 492.9928
690.8746, 491.3007
691.3567, 489.6697
691.8388, 487.7415
692.3209, 485.4934
692.8030, 483.6871
693.2852, 482.7861
693.7673, 481.8905
694.2494, 479.8100
694.7315, 476.6672
695.2136, 474.4424
695.6957, 473.7227
696.1779, 473.2967
696.6600, 473.0214
697.1421, 472.6631
697.6242, 471.8902
698.1063, 470.7289
698.5884, 469.5193
699.0706, 468.4839
699.5527, 467.6471
700.0348, 467.1996
700.5169, 467.2643
700.9990, 466.8600
701.4811, 465.4590
701.9633, 464.0084
702.4454, 463.3634
702.9275, 463.3327
703.4096, 463.3169
703.8917, 463.3802
704.3738, 463.2490
704.8560, 462.6763
705.3381, 461.9205
705.8202, 461.2503
706.3023, 460.7116
706.7844, 460.2829
707.2665, 459.9719
707.7487, 459.6816
708.2308, 459.1201
708.7129, 458.2076
709.1950, 457.4029
709.6771, 456.8539
710.1592, 456.2980
710.6414, 455.5358
711.1235, 454.6549
711.6056, 453.8280
712.0877, 453.0587
712.5698, 452.4102
713.0519, 451.9437
713.5341, 451.6062
714.0162, 451.4733
714.4983, 451.4437
714.9804, 451.0907
715.4625, 450.1410
715.9446, 448.9293
716.4268, 448.1572
716.9089, 447.8871
717.3910, 447.7812
717.8731, 447.9892
718.3552, 448.1371
718.8373, 447.9626
719.3195, 447.6580
719.8016, 447.5369
720.2837, 447.6925
720.7658, 447.7336
721.2479, 447.5425
721.7300, 447.0946
722.2122, 446.0321
722.6943, 444.6507
723.1764, 443.9767
723.6585, 444.4644
724.1406, 445.5008
724.6227, 446.2129
725.1049, 446.6119
725.5870, 446.5920
726.0691, 445.9113
726.5512, 445.1991
727.0333, 444.6924
727.5154, 444.2431
727.9976, 443.6595
728.4797, 442.9341
728.9618, 442.3712
729.4439, 442.0402
729.9260, 441.9774
730.4081, 442.4427
730.8903, 443.1765
731.3724, 443.6300
731.8545, 443.6322
732.3366, 443.1649
732.8187, 442.0791
733.3008, 440.4844
733.7830, 439.7238
734.2651, 440.1928
734.7472, 440.6489
735.2293, 441.0674
735.7114, 441.1733
736.1935, 440.5200
736.6757, 439.3148
737.1578, 438.4759
737.6399, 438.5033
738.1220, 438.6883
738.6041, 438.6520
739.0862, 438.4279
739.5684, 437.9652
740.0505, 437.3198
740.5326, 436.8182
741.0147, 436.7143
741.4968, 436.8736
741.9789, 436.9051
742.4611, 436.8078
742.9432, 436.5702
743.4253, 436.0541
743.9074, 435.5693
744.3895, 435.2780
744.8716, 435.1385
745.3538, 435.0933
745.8359, 435.1646
746.3180, 435.2289
746.8001, 435.2979
747.2822, 435.2861
747.7643, 434.9059
748.2465, 434.3549
748.7286, 434.3002
749.2107, 435.0477
749.6928, 436.0891
750.1749, 436.6616
750.6570, 436.7432
751.1392, 436.8642
751.6213, 437.1261
752.1034, 437.1882
752.5855, 436.7674
753.0676, 436.1744
753.5497, 435.8119
754.0319, 435.6914
754.5140, 435.4960
754.9961, 435.0933
755.4782, 434.6496
755.9603, 434.1424
756.4424, 433.7085
756.9246, 433.6914
757.4067, 434.0694
757.8888, 434.2323
758.3709, 433.5418
758.8530, 432.3592
759.3351, 432.0341
759.8173, 432.7046
760.2994, 433.0487
760.7815, 432.7140
761.2636, 432.1244
761.7457, 431.5459
762.2278, 431.0054
762.7100, 430.6025
763.1921, 430.3935
763.6742, 430.2479
764.1563, 430.3313
764.6384, 430.3134
765.1205, 429.8773
765.6027, 429.1037
766.0848, 428.1893
766.5669, 427.2028
767.0490, 426.4238
767.5311, 426.4965
768.0132, 427.1775
768.4954, 426.9633
768.9775, 425.6479
769.4596, 424.4211
769.9417, 423.8173
770.4238, 423.6699
770.9059, 423.7393
771.3881, 424.1106
771.8702, 424.3488
772.3523, 424.7816
772.8344, 424.6980
773.3165, 423.3938
773.7986, 421.7151
774.2808, 420.5097
774.7629, 419.9394
775.2450, 419.7958
775.7271, 420.1000
776.2092, 420.6046
776.6913, 421.0392
777.1735, 421.3677
777.6556, 421.4823
778.1377, 421.3658
778.6198, 420.7718
779.1019, 419.3475
779.5840, 417.3717
780.0662, 416.3236
780.5483, 416.7857
781.0304, 417.0730
781.5125, 417.0224
781.9946, 416.8403
782.4767, 416.7482
782.9589, 416.5631
783.4410, 415.7823
783.9231, 414.0835
784.4052, 412.8106
784.8873, 412.5478
785.3694, 413.2993
785.8516, 416.0266
786.3337, 419.8535
786.8158, 421.9051
787.2979, 421.0420
787.7800, 418.5964
788.2621, 416.0338
788.7443, 413.4020
789.2264, 411.7814
789.7085, 411.3893
790.1906, 411.4445
790.6727, 412.1540
791.1548, 412.8036
791.6370, 412.5060
792.1191, 411.4202
792.6012, 410.6797
793.0833, 410.7834
793.5654, 410.8360
794.0475, 410.4360
794.5297, 409.8657
795.0118, 409.3318
795.4939, 408.9034
795.9760, 408.7303
796.4581, 408.9480
796.9402, 409.0978
797.4224, 408.2879
797.9045, 406.7041
798.3866, 405.6658
798.8687, 405.3264
799.3508, 405.1111
799.8329, 404.6874
800.3151, 404.2903
800.7972, 404.4525
801.2793, 405.5215
801.7614, 405.7641
802.2435, 404.3449
802.7256, 403.2086
803.2078, 403.2252
803.6899, 403.6068
804.1720, 403.4099
804.6541, 402.6413
805.1362, 402.1593
805.6183, 402.6310
806.1005, 403.3570
806.5826, 403.6498
807.0647, 403.6343
807.5468, 403.5636
808.0289, 403.4899
808.5110, 403.4131
808.9932, 403.3456
809.4753, 403.2339
809.9574, 402.9025
810.4395, 402.2756
810.9216, 401.7745
811.4037, 401.5353
811.8859, 401.2301
812.3680, 400.5426
812.8501, 399.7616
813.3322, 399.1958
813.8143, 398.7925
814.2964, 399.0989
814.7786, 401.3765
815.2607, 403.1880
815.7428, 402.5710
816.2249, 400.8514
816.7070, 399.9716
817.1891, 400.2406
817.6713, 400.6754
818.1534, 400.5196
818.6355, 400.0821
819.1176, 399.9903
819.5997, 400.1913
820.0818, 400.3534
820.5640, 400.4536
821.0461, 400.1089
821.5282, 398.8739
822.0103, 397.1882
822.4924, 396.4429
822.9745, 397.2596
823.4567, 397.6176
823.9388, 396.8585
824.4209, 396.4021
824.9030, 397.1690
825.3851, 398.3131
825.8672, 398.6295
826.3494, 397.9688
826.8315, 397.4768
827.3136, 398.0953
827.7957, 398.7211
828.2778, 398.2779
828.7599, 397.2199
829.2421, 396.3013
829.7242, 395.7162
830.2063, 395.4783
830.6884, 395.6630
831.1705, 396.0127
831.6526, 395.8203
832.1348, 395.0628
832.6169, 394.4107
833.0990, 393.8856
833.5811, 393.6796
834.0632, 394.1357
834.5453, 394.8055
835.0275, 394.6265
835.5096, 393.1212
835.9917, 392.1826
836.4738, 392.0889
836.9559, 392.2376
837.4380, 392.6233
837.9202, 393.0003
838.4023, 393.1263
838.8844, 392.9749
839.3665, 392.6511
839.8486, 392.0867
840.3307, 391.5358
840.8129, 391.3370
841.2950, 391.3207
841.7771, 391.0856
842.2592, 390.6231
842.7413, 390.3199
843.2234, 390.4434
843.7056, 390.7303
844.1877, 390.5804
844.6698, 389.9378
845.1519, 389.5990
845.6340, 389.7186
846.1161, 389.7599
846.5983, 389.4730
847.0804, 389.0102
847.5625, 388.5039
848.0446, 387.9291
848.5267, 387.6774
849.0089, 388.1637
849.4910, 388.4572
849.9731, 388.1812
850.4552, 387.6931
850.9373, 387.2959
851.4194, 386.9919
851.9016, 386.5839
852.3837, 385.8692
852.8658, 385.4576
853.3479, 386.4331
853.8300, 387.8471
854.3121, 387.7156
854.7943, 386.2772
855.2764, 385.3548
855.7585, 385.7406
856.2406, 386.6556
856.7227, 387.1368
857.2048, 387.2006
857.6870, 387.0464
858.1691, 386.5894
858.6512, 386.2804
859.1333, 386.4115
859.6154, 386.4259
860.0975, 385.7017
860.5797, 384.4028
861.0618, 383.4632
861.5439, 382.8821
862.0260, 382.6514
862.5081, 382.8185
862.9902, 383.2887
863.4724, 384.4588
863.9545, 385.7198
864.4366, 386.0099
864.9187, 385.0966
865.4008, 384.0833
865.8829, 383.6579
866.3651, 383.5480
866.8472, 383.4488
867.3293, 383.4065
867.8114, 383.6790
868.2935, 384.2469
868.7756, 384.4924
869.2578, 383.8644
869.7399, 382.8553
870.2220, 382.8301
870.7041, 383.8528
871.1862, 384.4235
871.6683, 384.3308
872.1505, 384.0639
872.6326, 383.7526
873.1147, 383.5449
873.5968, 383.7430
874.0789, 384.4670
874.5610, 384.9374
875.0432, 385.3824
875.5253, 385.2861
876.0074, 383.8238
876.4895, 382.3403
876.9716, 382.1428
877.4537, 382.9724
877.9359, 383.5412
878.4180, 383.3282
878.9001, 383.0116
879.3822, 383.0326
879.8643, 383.1546
880.3464, 383.1623
880.8286, 383.0263
881.3107, 382.7265
881.7928, 382.2633
882.2749, 381.7059
882.7570, 381.0388
883.2391, 380.3804
883.7213, 380.1590
884.2034, 380.3520
884.6855, 380.5817
885.1676, 380.7634
885.6497, 380.9937
886.1318, 381.4251
886.6140, 381.8774
887.0961, 381.7117
887.5782, 380.6924
888.0603, 379.6248
888.5424, 378.1190
889.0245, 377.1104
889.5067, 377.4153
889.9888, 378.1393
890.4709, 378.2355
890.9530, 377.6642
891.4351, 377.1162
891.9172, 376.6707
892.3994, 376.3473
892.8815, 376.1684
893.3636, 376.1034
893.8457, 376.3342
894.3278, 376.6425
894.8099, 376.3784
895.2921, 375.2015
895.7742, 373.9578
896.2563, 373.5323
896.7384, 373.5317
897.2205, 373.1578
897.7026, 372.5675
898.1848, 372.6088
898.6669, 373.5189
899.1490, 374.5840
899.6311, 375.1685
900.1132, 375.2798
900.5953, 374.7393
901.0775, 373.4306
901.5596, 372.9193
902.0417, 373.6935
902.5238, 374.3344
903.0059, 373.7987
903.4880, 372.8023
903.9702, 372.9352
904.4523, 374.7151
904.9344, 375.5185
905.4165, 374.5403
905.8986, 373.6228
906.3807, 373.0585
906.8629, 372.8006
907.3450, 372.9951
907.8271, 373.4792
908.3092, 373.6187
908.7913, 372.9804
909.2734, 372.5445
909.7556, 372.8851
910.2377, 373.4987
910.7198, 374.1020
911.2019, 374.5783
911.6840, 374.8011
912.1661, 374.7318
912.6483, 374.3974
913.1304, 373.5987
913.6125, 372.7463
914.0946, 372.6100
914.5767, 372.9898
915.0588, 373.3236
915.5410, 373.4895
916.0231, 373.3122
916.5052, 372.6223
916.9873, 371.8612
917.4694, 372.0670
917.9515, 373.3015
918.4337, 373.5796
918.9158, 372.5596
919.3979, 372.2179
919.8800, 373.5813
920.3621, 375.1724
920.8442, 375.4586
921.3264, 374.5287
921.8085, 373.2951
922.2906, 371.0277
922.7727, 369.6563
923.2548, 370.0511
923.7369, 370.4633
924.2191, 369.8355
924.7012, 368.8198
925.1833, 368.4988
925.6654, 369.0255
926.1475, 369.4304
926.6296, 369.3615
927.1118, 369.1780
927.5939, 369.0443
928.0760, 368.9032
928.5581, 368.5900
929.0402, 368.2008
929.5223, 368.0891
930.0045, 368.4455
930.4866, 368.8588
930.9687, 368.8632
931.4508, 368.7396
931.9329, 369.0248
932.4150, 369.5713
932.8972, 369.8008
933.3793, 369.5859
933.8614, 369.4133
934.3435, 369.7766
934.8256, 370.3148
935.3077, 369.9386
935.7899, 368.7472
936.2720, 368.3046
936.7541, 368.8534
937.2362, 369.2022
937.7183, 368.6490
938.2004, 367.9865
938.6826, 368.5224
939.1647, 370.3011
939.6468, 371.2547
940.1289, 371.2220
940.6110, 370.7326
941.0931, 369.5847
941.5753, 368.3934
942.0574, 367.4899
942.5395, 366.8883
943.0216, 366.6451
943.5037, 366.9492
943.9858, 367.0415
944.4680, 366.5657
944.9501, 366.2329
945.4322, 366.5119
945.9143, 366.9190
946.3964, 366.8499
946.8785, 366.3984
947.3607, 366.2331
947.8428, 366.6917
948.3249, 367.2154
948.8070, 367.6995
949.2891, 367.9385
949.7712, 367.4561
950.2534, 366.6567
950.7355, 366.4283
951.2176, 366.9388
951.6997, 367.4339
952.1818, 367.2530
952.6639, 366.8666
953.1461, 366.8550
953.6282, 367.1546
954.1103, 367.7566
954.5924, 368.5638
955.0745, 369.1700
955.5566, 369.3793
956.0388, 369.2094
956.5209, 368.4452
957.0030, 367.3401
957.4851, 367.3919
957.9672, 368.5930
958.4493, 369.3295
958.9315, 369.1842
959.4136, 369.0155
959.8957, 369.5099
960.3778, 370.3174
960.8599, 370.4995
961.3420, 369.9077
961.8242, 369.4185
962.3063, 368.9757
962.7884, 368.7897
963.2705, 369.0467
963.7526, 369.4333
964.2347, 369.6302
964.7169, 369.6703
965.1990, 369.8024
965.6811, 369.8611
966.1632, 370.2730
966.6453, 371.8392
967.1274, 372.8400
967.6096, 372.1035
968.0917, 370.6629
968.5738, 369.6258
969.0559, 369.1139
969.5380, 369.3180
970.0201, 371.3947
970.5023, 372.7122
970.9844, 371.6740
971.4665, 370.1207
971.9486, 369.3789
972.4307, 369.3400
972.9128, 369.5726
973.3950, 369.9526
973.8771, 370.2881
974.3592, 370.5899
974.8413, 370.6772
975.3234, 370.2732
975.8055, 369.6195
976.2877, 368.8773
976.7698, 368.2328
977.2519, 368.2433
977.7340, 369.1952
978.2161, 370.1371
978.6982, 369.6406
979.1804, 368.6378
979.6625, 369.2865
980.1446, 371.0087
980.6267, 371.4804
981.1088, 370.3755
981.5909, 369.6939
982.0731, 370.8918
982.5552, 372.7866
983.0373, 373.1550
983.5194, 372.2134
984.0015, 371.4490
984.4836, 370.9103
984.9658, 370.8172
985.4479, 371.2870
985.9300, 371.7673
986.4121, 371.7107
986.8942, 371.3207
987.3763, 371.4118
987.8585, 372.1251
988.3406, 372.3169
988.8227, 371.7313
989.3048, 371.3250
989.7869, 371.5758
990.2690, 372.0179
990.7512, 372.1048
991.2333, 371.8629
991.7154, 371.6066
992.1975, 371.1893
992.6796, 371.0753
993.1617, 371.4634
993.6439, 371.9250
994.1260, 372.2674
994.6081, 372.5660
995.0902, 373.0372
995.5723, 373.7056
996.0544, 373.8607
996.5366, 372.8901
997.0187, 372.2493
997.5008, 372.4177
997.9829, 372.7306
998.4650, 372.6650
998.9471, 372.5125
999.4293, 372.8880
999.9114, 373.9040
1000.393, 374.6829
1000.876, 374.9926
1001.358, 375.0027
1001.840, 374.4839
1002.322, 373.9456
1002.804, 373.8716
1003.286, 374.1416
1003.768, 374.4030
1004.250, 374.5599
1004.733, 374.7040
1005.215, 374.6896
1005.697, 374.8907
1006.179, 375.9203
1006.661, 377.1215
1007.143, 377.5488
1007.625, 377.3177
1008.107, 377.2039
1008.589, 377.5411
1009.072, 377.8732
1009.554, 377.7388
1010.036, 377.4519
1010.518, 377.3224
1011.000, 377.3530
1011.482, 377.5647
1011.964, 377.9236
1012.446, 378.3214
1012.929, 378.7130
1013.411, 379.0078
1013.893, 379.0210
1014.375, 378.8995
1014.857, 378.8683
1015.339, 378.9747
1015.821, 379.4506
1016.303, 380.2829
1016.785, 380.9080
1017.268, 380.8921
1017.750, 380.7891
1018.232, 381.8124
1018.714, 383.5352
1019.196, 384.0231
1019.678, 383.3634
1020.160, 382.8682
1020.642, 382.8991
1021.125, 383.1027
1021.607, 383.1897
1022.089, 383.2758
1022.571, 383.7632
1023.053, 384.6055
1023.535, 384.7169
1024.017, 384.0225
1024.499, 383.5474
1024.981, 383.6210
1025.464, 383.9660
1025.946, 384.3804
1026.428, 384.7859
1026.910, 384.8689
1027.392, 384.5660
1027.874, 384.5459
1028.356, 384.8369
1028.838, 385.4240
1029.321, 386.4061
1029.803, 387.3856
1030.285, 387.9977
1030.767, 388.2746
1031.249, 388.3692
1031.731, 388.2871
1032.213, 387.9563
1032.695, 387.2279
1033.177, 386.5914
1033.660, 386.0874
1034.142, 385.9976
1034.624, 386.7972
1035.106, 388.2736
1035.588, 389.0571
1036.070, 388.8576
1036.552, 388.6512
1037.034, 388.3866
1037.516, 388.2530
1037.999, 388.5502
1038.481, 388.7648
1038.963, 388.1305
1039.445, 386.8371
1039.927, 386.3726
1040.409, 387.6410
1040.891, 388.1354
1041.373, 386.9676
1041.855, 386.1485
1042.338, 386.6869
1042.820, 387.7304
1043.302, 388.6304
1043.784, 389.3244
1044.266, 389.3754
1044.748, 388.1660
1045.230, 387.3359
1045.712, 386.9968
1046.195, 387.0209
1046.677, 387.8701
1047.159, 388.6945
1047.641, 388.2657
1048.123, 386.8321
1048.605, 386.2768
1049.087, 387.3416
1049.569, 388.2985
1050.052, 389.0660
1050.534, 389.4786
1051.016, 389.2468
1051.498, 388.7656
1051.980, 388.2920
1052.462, 387.9372
1052.944, 388.1479
1053.426, 389.4750
1053.908, 390.4044
1054.391, 390.1524
1054.873, 389.9328
1055.355, 390.6798
1055.837, 391.5681
1056.319, 391.4632
1056.801, 390.5280
1057.283, 390.0140
1057.765, 390.3850
1058.248, 390.7898
1058.730, 390.8763
1059.212, 391.0551
1059.694, 391.8853
1060.176, 392.7044
1060.658, 392.5053
1061.140, 391.5291
1061.622, 391.1452
1062.104, 391.9753
1062.587, 392.6924
1063.069, 392.6512
1063.551, 392.5526
1064.033, 392.9322
1064.515, 393.3868
1064.997, 393.2279
1065.479, 392.6732
1065.961, 392.8001
1066.443, 394.2441
1066.926, 395.1907
1067.408, 394.2773
1067.890, 393.3619
1068.372, 393.6729
1068.854, 394.4966
1069.336, 394.9228
1069.818, 395.0550
1070.300, 395.6540
1070.782, 397.0931
1071.265, 398.2440
1071.747, 398.5732
1072.229, 398.5159
1072.711, 398.0749
1073.193, 397.5858
1073.675, 397.3351
1074.157, 397.3597
1074.639, 397.6617
1075.122, 398.2682
1075.604, 398.9532
1076.086, 399.7470
1076.568, 400.4343
1077.050, 400.8509
1077.532, 401.1290
1078.014, 401.3680
1078.496, 401.5956
1078.979, 401.8568
1079.461, 402.1714
1079.943, 402.3681
1080.425, 402.1960
1080.907, 402.0950
1081.389, 402.5679
1081.871, 403.0032
1082.353, 402.4545
1082.835, 401.5075
1083.318, 401.6885
1083.800, 403.3167
1084.282, 404.4246
1084.764, 403.5652
1085.246, 402.7499
1085.728, 403.1673
1086.210, 403.8886
1086.692, 404.0201
1087.175, 403.8855
1087.657, 404.3434
1088.139, 405.4697
1088.621, 406.0604
1089.103, 405.1418
1089.585, 404.2853
1090.067, 404.3406
1090.549, 404.5396
1091.031, 404.2092
1091.514, 403.6687
1091.996, 403.4395
1092.478, 403.5789
1092.960, 403.8359
1093.442, 404.0284
1093.924, 404.5065
1094.406, 405.9583
1094.888, 407.1415
1095.370, 407.0381
1095.853, 406.3258
1096.335, 405.9618
1096.817, 405.9113
1097.299, 405.3724
1097.781, 403.7500
1098.263, 402.6322
1098.745, 402.7079
1099.227, 403.2008
1099.709, 404.2049
1100.192, 405.0400
1100.674, 404.8855
1101.156, 403.9466
1101.638, 402.9904
1102.120, 401.9991
1102.602, 401.6071
1103.084, 402.6553
1103.566, 403.4351
1104.049, 402.8099
1104.531, 402.0415
1105.013, 402.3796
1105.495, 403.3936
1105.977, 403.8510
1106.459, 403.4617
1106.941, 403.5010
1107.423, 404.7825
1107.906, 405.6772
1108.388, 405.6529
1108.870, 405.2166
1109.352, 404.4852
1109.834, 403.6690
1110.316, 403.0236
1110.798, 402.5499
1111.280, 402.5714
1111.762, 403.7619
1112.245, 404.4772
1112.727, 404.0807
1113.209, 403.6758
1113.691, 403.8598
1114.173, 404.2924
1114.655, 404.5771
1115.137, 404.7148
1115.619, 404.7580
1116.102, 404.7504
1116.584, 404.5541
1117.066, 403.9116
1117.548, 403.4512
1118.030, 403.4033
1118.512, 403.6108
1118.994, 404.0171
1119.476, 404.5414
1119.958, 404.8582
1120.441, 404.9161
1120.923, 404.9111
1121.405, 404.7260
1121.887, 404.7628
1122.369, 405.2740
1122.851, 405.7604
1123.333, 405.8461
1123.815, 405.6557
1124.297, 405.3950
1124.780, 405.0124
1125.262, 405.3825
1125.744, 406.9512
1126.226, 407.4530
1126.708, 406.0954
1127.190, 405.0369
1127.672, 405.5874
1128.154, 406.7602
1128.636, 407.0920
1129.119, 406.7135
1129.601, 406.7737
1130.083, 407.3266
1130.565, 407.6962
1131.047, 407.8008
1131.529, 407.7702
1132.011, 407.6063
1132.493, 407.6959
1132.976, 408.4989
1133.458, 409.7144
1133.940, 410.4881
1134.422, 410.8481
1134.904, 411.1131
1135.386, 411.2979
1135.868, 411.3447
1136.350, 411.2440
1136.833, 411.2515
1137.315, 411.5718
1137.797, 411.9552
1138.279, 411.9492
1138.761, 411.6653
1139.243, 411.3729
1139.725, 411.1484
1140.207, 411.4044
1140.689, 412.1217
1141.172, 412.7757
1141.654, 413.1158
1142.136, 413.1297
1142.618, 412.6100
1143.100, 411.9701
1143.582, 412.0038
1144.064, 412.4078
1144.546, 412.5871
1145.029, 412.5265
1145.511, 412.2707
1145.993, 411.9160
1146.475, 412.0482
1146.957, 413.2845
1147.439, 414.5913
1147.921, 414.9521
1148.403, 414.8065
1148.885, 414.3807
1149.368, 413.9913
1149.850, 414.2615
1150.332, 415.0833
1150.814, 415.6186
1151.296, 415.4520
1151.778, 415.4044
1152.260, 416.2102
1152.742, 417.0232
1153.224, 417.1398
1153.707, 417.0770
1154.189, 417.6150
1154.671, 418.3879
1155.153, 418.3304
1155.635, 417.2179
1156.117, 416.4359
1156.599, 416.3620
1157.081, 416.7656
1157.563, 418.1278
1158.046, 419.3411
1158.528, 419.6048
1159.010, 419.3795
1159.492, 419.1700
1159.974, 419.0476
1160.456, 419.2657
1160.938, 420.1966
1161.420, 420.7787
1161.903, 420.5239
1162.385, 420.5487
1162.867, 421.2565
1163.349, 422.2555
1163.831, 423.5799
1164.313, 424.7716
1164.795, 424.5085
1165.277, 422.4637
1165.760, 421.7518
1166.242, 422.6956
1166.724, 424.1081
1167.206, 426.2149
1167.688, 427.2857
1168.170, 426.0234
1168.652, 424.4967
1169.134, 425.5901
1169.616, 428.5132
1170.099, 429.3014
1170.581, 427.9220
1171.063, 427.4010
1171.545, 427.9290
1172.027, 428.1383
1172.509, 427.6032
1172.991, 427.2831
1173.473, 427.9149
1173.956, 429.1374
1174.438, 430.6230
1174.920, 432.1123
1175.402, 432.5506
1175.884, 432.2321
1176.366, 432.1819
1176.848, 432.5461
1177.330, 433.2147
1177.813, 434.1105
1178.295, 434.6212
1178.777, 433.8770
1179.259, 432.9581
1179.741, 433.4178
1180.223, 434.4148
1180.705, 434.6288
1181.187, 434.4260
1181.669, 434.9146
1182.151, 436.1215
1182.634, 436.9170
1183.116, 436.6337
1183.598, 436.4484
1184.080, 437.0208
1184.562, 437.9522
1185.044, 439.4896
1185.526, 440.8193
1186.008, 440.6914
1186.490, 439.7967
1186.973, 439.9829
1187.455, 441.6208
1187.937, 442.9538
1188.419, 443.8301
1188.901, 444.0918
1189.383, 443.0641
1189.865, 442.1722
1190.347, 441.9710
1190.830, 442.4102
1191.312, 443.7878
1191.794, 445.7814
1192.276, 446.7486
1192.758, 446.2620
1193.240, 446.2411
1193.722, 446.8946
1194.204, 447.3659
1194.687, 447.3743
1195.169, 447.4688
1195.651, 448.0573
1196.133, 448.7508
1196.615, 448.8531
1197.097, 448.5305
1197.579, 448.9343
1198.061, 450.0086
1198.543, 450.5801
1199.026, 450.5644
1199.508, 450.2450
1199.990, 449.7666
1200.472, 450.0967
1200.954, 452.1689
1201.436, 454.6376
1201.918, 455.4062
1202.400, 455.1453
1202.883, 454.9112
1203.365, 454.8634
1203.847, 455.2207
1204.329, 456.0206
1204.811, 457.5276
1205.293, 459.7730
1205.775, 461.2578
1206.257, 460.4822
1206.740, 459.2450
1207.222, 458.7345
1207.704, 458.4642
1208.186, 457.8490
1208.668, 457.2646
1209.150, 457.4668
1209.632, 458.3197
1210.114, 458.7556
1210.596, 458.2452
1211.078, 458.2900
1211.561, 459.7896
1212.043, 461.0497
1212.525, 461.0978
1213.007, 461.2490
1213.489, 462.5368
1213.971, 464.2998
1214.453, 465.5450
1214.935, 466.2868
1215.417, 466.8629
1215.900, 467.3211
1216.382, 467.3383
1216.864, 466.7336
1217.346, 466.4361
1217.828, 466.7856
1218.310, 467.2392
1218.792, 467.3670
1219.274, 467.4291
1219.757, 467.9449
1220.239, 468.8161
1220.721, 469.6385
1221.203, 470.3853
1221.685, 470.9305
1222.167, 471.2439
1222.649, 471.1022
1223.131, 470.5070
1223.614, 470.2610
1224.096, 470.9879
1224.578, 472.2686
1225.060, 474.1214
1225.542, 475.8377
1226.024, 476.4904
1226.506, 476.4469
1226.988, 475.7621
1227.470, 475.0511
1227.953, 476.1877
1228.435, 479.7883
1228.917, 482.0259
1229.399, 479.9819
1229.881, 478.4165
1230.363, 479.1690
1230.845, 480.5148
1231.327, 481.9198
1231.810, 483.0060
1232.292, 483.1769
1232.774, 482.6850
1233.256, 482.4570
1233.738, 482.3670
1234.220, 483.2017
1234.702, 485.4418
1235.184, 486.9527
1235.667, 487.1462
1236.149, 487.4241
1236.631, 488.5981
1237.113, 489.7458
1237.595, 489.6938
1238.077, 488.8833
1238.559, 488.2960
1239.041, 488.1332
1239.523, 490.0668
1240.005, 493.5031
1240.488, 495.0947
1240.970, 494.4233
1241.452, 493.5487
1241.934, 493.4799
1242.416, 493.9453
1242.898, 494.9911
1243.380, 496.1018
1243.862, 496.6874
1244.344, 497.1184
1244.827, 497.6629
1245.309, 498.4497
1245.791, 499.8867
1246.273, 501.7659
1246.755, 502.8692
1247.237, 502.4919
1247.719, 502.7154
1248.201, 504.8222
1248.684, 506.4492
1249.166, 506.6213
1249.648, 506.4273
1250.130, 506.2243
1250.612, 506.2525
1251.094, 506.8453
1251.576, 507.9639
1252.058, 509.4539
1252.541, 511.4688
1253.023, 512.6552
1253.505, 512.9106
1253.987, 513.1462
1254.469, 513.5677
1254.951, 514.3066
1255.433, 515.4383
1255.915, 516.9263
1256.397, 518.9053
1256.880, 520.9637
1257.362, 522.2897
1257.844, 523.0851
1258.326, 523.6728
1258.808, 524.0955
1259.290, 524.2073
1259.772, 524.1449
1260.254, 524.4714
1260.737, 525.3944
1261.219, 526.8957
1261.701, 529.9513
1262.183, 532.2612
1262.665, 531.7969
1263.147, 531.1619
1263.629, 532.6193
1264.111, 534.8520
1264.594, 535.7768
1265.076, 535.6146
1265.558, 536.0077
1266.040, 537.0211
1266.522, 538.4500
1267.004, 540.6236
1267.486, 541.9487
1267.968, 541.9319
1268.450, 541.9493
1268.932, 542.6841
1269.415, 543.9210
1269.897, 545.5671
1270.379, 547.2247
1270.861, 547.6044
1271.343, 547.3175
1271.825, 548.4595
1272.307, 550.5547
1272.789, 552.0507
1273.271, 552.7061
1273.754, 552.6934
1274.236, 552.1190
1274.718, 552.0310
1275.200, 553.4033
1275.682, 555.0400
1276.164, 556.0106
1276.646, 557.2369
1277.128, 560.3379
1277.611, 563.3162
1278.093, 563.4606
1278.575, 561.5374
1279.057, 560.2371
1279.539, 559.6232
1280.021, 560.1474
1280.503, 562.1324
1280.985, 564.1346
1281.468, 566.4413
1281.950, 567.5766
1282.432, 566.7272
1282.914, 566.0259
1283.396, 567.3383
1283.878, 569.5711
1284.360, 570.8846
1284.842, 571.1542
1285.324, 570.1283
##END=



