##NAMES=Lazurite
##RRUFFID=R040023
##IDEAL CHEMISTRY=Na_3_Ca(Si_3_Al_3_)O_12_S^2-^
##LOCALITY=Chile
##OWNER=RRUFF
##SOURCE=University of Arizona Mineral Museum
##DESCRIPTION=Blue fine-grained massive
##STATUS=The identification of this mineral has been confirmed by X-ray diffraction and chemical analysis
##URL=rruff.info/R040023
##MEASURED CHEMISTRY=(Na_0.99_K_0.01_)_6_(Ca_0.99_Na_0.01_)_2_Al_6.00_Si_6.00_O_24_[(SO_4_)_0.67_S_0.32_Cl_0.01_]_2_
138.7252, 1536.264
139.2073, 1538.160
139.6894, 1539.869
140.1716, 1542.118
140.6537, 1545.069
141.1358, 1547.407
141.6179, 1548.851
142.1000, 1550.033
142.5821, 1552.265
143.0643, 1556.172
143.5464, 1559.855
144.0285, 1562.406
144.5106, 1562.983
144.9927, 1564.628
145.4748, 1567.664
145.9570, 1571.695
146.4391, 1575.575
146.9212, 1580.111
147.4033, 1583.583
147.8854, 1585.057
148.3675, 1582.156
148.8497, 1580.969
149.3318, 1582.565
149.8139, 1586.268
150.2960, 1588.773
150.7781, 1589.030
151.2602, 1588.817
151.7424, 1589.085
152.2245, 1590.818
152.7066, 1591.875
153.1887, 1591.397
153.6708, 1589.597
154.1529, 1589.188
154.6351, 1591.533
155.1172, 1594.594
155.5993, 1597.005
156.0814, 1597.927
156.5635, 1598.918
157.0456, 1600.552
157.5278, 1602.827
158.0099, 1604.422
158.4920, 1604.398
158.9741, 1603.922
159.4562, 1604.032
159.9383, 1605.081
160.4205, 1606.685
160.9026, 1609.185
161.3847, 1612.699
161.8668, 1615.318
162.3489, 1614.634
162.8310, 1613.230
163.3132, 1614.105
163.7953, 1620.859
164.2774, 1628.124
164.7595, 1633.028
165.2416, 1635.087
165.7237, 1636.653
166.2059, 1639.236
166.6880, 1642.012
167.1701, 1643.741
167.6522, 1642.795
168.1343, 1641.282
168.6164, 1640.911
169.0985, 1642.156
169.5807, 1643.139
170.0628, 1642.130
170.5449, 1639.970
171.0270, 1638.310
171.5091, 1638.276
171.9912, 1639.008
172.4734, 1639.873
172.9555, 1640.987
173.4376, 1641.627
173.9197, 1640.783
174.4018, 1638.908
174.8839, 1637.228
175.3661, 1636.608
175.8482, 1636.540
176.3303, 1636.167
176.8124, 1634.977
177.2945, 1634.355
177.7766, 1636.745
178.2588, 1641.383
178.7409, 1645.029
179.2230, 1644.183
179.7051, 1641.151
180.1872, 1640.508
180.6693, 1643.773
181.1515, 1648.300
181.6336, 1650.661
182.1157, 1651.008
182.5978, 1650.412
183.0799, 1648.558
183.5620, 1646.245
184.0442, 1645.911
184.5263, 1648.715
185.0084, 1652.748
185.4905, 1654.494
185.9726, 1654.036
186.4547, 1653.707
186.9369, 1655.476
187.4190, 1658.972
187.9011, 1662.725
188.3832, 1666.972
188.8653, 1670.885
189.3474, 1672.375
189.8296, 1671.413
190.3117, 1669.654
190.7938, 1667.978
191.2759, 1666.501
191.7580, 1666.097
192.2401, 1667.079
192.7223, 1669.203
193.2044, 1672.280
193.6865, 1676.546
194.1686, 1680.099
194.6507, 1680.574
195.1328, 1678.125
195.6150, 1676.248
196.0971, 1675.807
196.5792, 1676.504
197.0613, 1677.332
197.5434, 1678.293
198.0255, 1679.256
198.5077, 1679.910
198.9898, 1680.216
199.4719, 1681.039
199.9540, 1682.678
200.4361, 1684.998
200.9182, 1687.611
201.4004, 1690.808
201.8825, 1693.404
202.3646, 1693.717
202.8467, 1691.398
203.3288, 1689.890
203.8109, 1690.277
204.2931, 1692.309
204.7752, 1693.673
205.2573, 1694.084
205.7394, 1694.523
206.2215, 1696.208
206.7036, 1699.414
207.1858, 1702.324
207.6679, 1704.422
208.1500, 1705.764
208.6321, 1707.300
209.1142, 1709.203
209.5963, 1710.971
210.0785, 1711.809
210.5606, 1711.248
211.0427, 1711.551
211.5248, 1713.625
212.0069, 1717.411
212.4890, 1719.877
212.9712, 1720.337
213.4533, 1720.570
213.9354, 1722.833
214.4175, 1728.074
214.8996, 1732.510
215.3817, 1735.030
215.8639, 1735.602
216.3460, 1736.787
216.8281, 1738.568
217.3102, 1740.968
217.7923, 1744.169
218.2744, 1748.680
218.7565, 1752.679
219.2387, 1755.411
219.7208, 1756.844
220.2029, 1759.335
220.6850, 1763.557
221.1671, 1767.999
221.6492, 1770.621
222.1314, 1770.099
222.6135, 1770.900
223.0956, 1774.420
223.5777, 1780.854
224.0598, 1786.289
224.5419, 1790.683
225.0241, 1794.193
225.5062, 1796.833
225.9883, 1797.796
226.4704, 1799.614
226.9525, 1803.286
227.4346, 1809.008
227.9168, 1812.611
228.3989, 1812.891
228.8810, 1812.336
229.3631, 1813.470
229.8452, 1816.704
230.3273, 1820.885
230.8095, 1825.962
231.2916, 1831.970
231.7737, 1838.139
232.2558, 1844.971
232.7379, 1851.460
233.2200, 1856.219
233.7022, 1857.632
234.1843, 1860.530
234.6664, 1866.384
235.1485, 1875.195
235.6306, 1882.751
236.1127, 1888.457
236.5949, 1893.603
237.0770, 1899.427
237.5591, 1906.211
238.0412, 1913.050
238.5233, 1919.434
239.0054, 1925.402
239.4876, 1933.126
239.9697, 1944.014
240.4518, 1955.220
240.9339, 1963.887
241.4160, 1967.665
241.8981, 1973.617
242.3803, 1983.820
242.8624, 1998.135
243.3445, 2009.624
243.8266, 2016.186
244.3087, 2022.393
244.7908, 2032.326
245.2730, 2048.460
245.7551, 2063.235
246.2372, 2074.906
246.7193, 2083.791
247.2014, 2094.619
247.6835, 2108.241
248.1657, 2122.612
248.6478, 2135.945
249.1299, 2147.697
249.6120, 2159.739
250.0941, 2172.371
250.5762, 2185.521
251.0584, 2198.887
251.5405, 2213.428
252.0226, 2226.794
252.5047, 2236.928
252.9868, 2242.481
253.4689, 2248.290
253.9511, 2255.264
254.4332, 2263.049
254.9153, 2269.407
255.3974, 2274.527
255.8795, 2278.043
256.3616, 2279.787
256.8438, 2280.052
257.3259, 2277.875
257.8080, 2272.878
258.2901, 2265.430
258.7722, 2256.708
259.2543, 2246.519
259.7365, 2235.247
260.2186, 2222.502
260.7007, 2207.488
261.1828, 2193.750
261.6649, 2181.987
262.1470, 2171.426
262.6292, 2159.177
263.1113, 2144.339
263.5934, 2129.699
264.0755, 2116.897
264.5576, 2106.476
265.0397, 2095.417
265.5219, 2083.172
266.0040, 2070.511
266.4861, 2058.665
266.9682, 2047.467
267.4503, 2037.804
267.9324, 2030.745
268.4146, 2026.949
268.8967, 2022.233
269.3788, 2016.163
269.8609, 2009.664
270.3430, 2004.657
270.8251, 2001.477
271.3073, 1998.733
271.7894, 1996.143
272.2715, 1993.792
272.7536, 1990.227
273.2357, 1984.616
273.7178, 1978.997
274.2000, 1976.781
274.6821, 1978.645
275.1642, 1980.841
275.6463, 1981.993
276.1284, 1982.083
276.6105, 1982.818
277.0927, 1984.467
277.5748, 1986.162
278.0569, 1986.494
278.5390, 1985.232
279.0211, 1984.657
279.5032, 1985.691
279.9854, 1988.153
280.4675, 1990.461
280.9496, 1992.687
281.4317, 1994.596
281.9138, 1995.693
282.3959, 1995.945
282.8781, 1996.709
283.3602, 1998.700
283.8423, 2001.438
284.3244, 2002.560
284.8065, 2001.848
285.2886, 2000.899
285.7708, 2001.319
286.2529, 2003.011
286.7350, 2004.399
287.2171, 2005.307
287.6992, 2005.559
288.1813, 2004.213
288.6635, 2001.149
289.1456, 1998.312
289.6277, 1997.969
290.1098, 1999.564
290.5919, 1999.284
291.0740, 1996.048
291.5562, 1991.332
292.0383, 1988.145
292.5204, 1986.386
293.0025, 1984.564
293.4846, 1981.525
293.9667, 1977.608
294.4489, 1974.057
294.9310, 1971.243
295.4131, 1968.437
295.8952, 1964.245
296.3773, 1958.936
296.8594, 1954.020
297.3416, 1950.462
297.8237, 1947.874
298.3058, 1945.418
298.7879, 1943.014
299.2700, 1940.811
299.7521, 1938.631
300.2343, 1936.719
300.7164, 1935.977
301.1985, 1938.193
301.6806, 1941.371
302.1627, 1941.846
302.6448, 1939.311
303.1270, 1936.704
303.6091, 1936.941
304.0912, 1939.068
304.5733, 1941.128
305.0554, 1942.463
305.5375, 1943.227
306.0197, 1943.298
306.5018, 1942.718
306.9839, 1942.294
307.4660, 1942.921
307.9481, 1944.014
308.4302, 1944.755
308.9124, 1944.925
309.3945, 1944.636
309.8766, 1943.485
310.3587, 1941.725
310.8408, 1940.722
311.3229, 1941.793
311.8051, 1943.825
312.2872, 1945.725
312.7693, 1947.410
313.2514, 1948.660
313.7335, 1948.850
314.2156, 1948.417
314.6978, 1948.641
315.1799, 1949.747
315.6620, 1951.961
316.1441, 1955.752
316.6262, 1961.991
317.1083, 1967.630
317.5905, 1970.856
318.0726, 1972.631
318.5547, 1974.686
319.0368, 1978.140
319.5189, 1981.575
320.0010, 1984.445
320.4832, 1986.810
320.9653, 1988.098
321.4474, 1987.915
321.9295, 1986.666
322.4116, 1984.827
322.8937, 1980.409
323.3759, 1977.482
323.8580, 1978.040
324.3401, 1982.356
324.8222, 1985.618
325.3043, 1986.469
325.7864, 1986.385
326.2686, 1986.505
326.7507, 1987.405
327.2328, 1987.996
327.7149, 1987.352
328.1970, 1985.750
328.6791, 1986.256
329.1613, 1991.572
329.6434, 1996.859
330.1255, 1999.627
330.6076, 1997.301
331.0897, 1996.142
331.5718, 1996.449
332.0540, 1997.984
332.5361, 2000.223
333.0182, 2004.468
333.5003, 2007.737
333.9824, 2008.539
334.4645, 2005.691
334.9467, 2004.167
335.4288, 2004.852
335.9109, 2006.259
336.3930, 2005.717
336.8751, 2002.147
337.3572, 1999.209
337.8394, 1998.484
338.3215, 2000.169
338.8036, 1999.268
339.2857, 1994.533
339.7678, 1989.377
340.2499, 1987.890
340.7320, 1990.795
341.2141, 1993.254
341.6963, 1994.324
342.1784, 1994.078
342.6605, 1992.529
343.1426, 1989.457
343.6247, 1986.116
344.1068, 1983.498
344.5890, 1981.599
345.0711, 1979.829
345.5532, 1978.165
346.0353, 1976.509
346.5174, 1974.735
346.9995, 1972.823
347.4817, 1970.775
347.9638, 1968.029
348.4459, 1965.056
348.9280, 1963.856
349.4101, 1964.850
349.8922, 1966.468
350.3744, 1966.859
350.8565, 1966.193
351.3386, 1965.107
351.8207, 1963.739
352.3028, 1962.217
352.7849, 1960.399
353.2671, 1958.264
353.7492, 1956.927
354.2313, 1958.049
354.7134, 1960.542
355.1955, 1962.499
355.6776, 1962.995
356.1598, 1962.966
356.6419, 1962.992
357.1240, 1963.161
357.6061, 1963.908
358.0882, 1966.201
358.5703, 1968.889
359.0525, 1970.710
359.5346, 1970.925
360.0167, 1971.174
360.4988, 1972.709
360.9809, 1974.959
361.4630, 1976.679
361.9452, 1976.944
362.4273, 1976.782
362.9094, 1976.399
363.3915, 1975.462
363.8736, 1975.897
364.3557, 1979.721
364.8379, 1984.760
365.3200, 1988.461
365.8021, 1989.979
366.2842, 1990.358
366.7663, 1989.218
367.2484, 1986.563
367.7306, 1985.164
368.2127, 1986.326
368.6948, 1988.291
369.1769, 1989.908
369.6590, 1991.235
370.1411, 1992.156
370.6233, 1992.227
371.1054, 1991.839
371.5875, 1992.617
372.0696, 1996.366
372.5517, 1999.053
373.0338, 1998.356
373.5160, 1991.566
373.9981, 1989.370
374.4802, 1993.456
374.9623, 2000.752
375.4444, 2006.784
375.9265, 2012.159
376.4087, 2014.553
376.8908, 2012.221
377.3729, 2005.385
377.8550, 2001.390
378.3371, 2000.633
378.8192, 2001.739
379.3014, 2003.827
379.7835, 2006.980
380.2656, 2009.690
380.7477, 2011.654
381.2298, 2012.997
381.7119, 2013.610
382.1941, 2013.445
382.6762, 2014.107
383.1583, 2017.889
383.6404, 2023.634
384.1225, 2026.315
384.6046, 2024.942
385.0868, 2022.285
385.5689, 2021.569
386.0510, 2022.509
386.5331, 2023.995
387.0152, 2025.681
387.4973, 2027.565
387.9795, 2030.070
388.4616, 2033.206
388.9437, 2035.505
389.4258, 2034.726
389.9079, 2032.708
390.3900, 2032.148
390.8722, 2034.786
391.3543, 2038.086
391.8364, 2040.256
392.3185, 2041.536
392.8006, 2042.885
393.2827, 2045.048
393.7649, 2047.241
394.2470, 2048.768
394.7291, 2049.163
395.2112, 2049.798
395.6933, 2050.787
396.1754, 2052.345
396.6576, 2054.808
397.1397, 2057.788
397.6218, 2062.083
398.1039, 2069.243
398.5860, 2079.835
399.0681, 2086.700
399.5503, 2086.255
400.0324, 2083.568
400.5145, 2082.407
400.9966, 2084.526
401.4787, 2085.758
401.9608, 2085.341
402.4430, 2083.813
402.9251, 2083.196
403.4072, 2083.551
403.8893, 2084.761
404.3714, 2086.946
404.8535, 2090.452
405.3357, 2093.517
405.8178, 2096.052
406.2999, 2098.187
406.7820, 2099.906
407.2641, 2101.051
407.7462, 2102.747
408.2284, 2105.928
408.7105, 2109.919
409.1926, 2111.195
409.6747, 2109.480
410.1568, 2107.141
410.6389, 2106.108
411.1211, 2106.230
411.6032, 2106.609
412.0853, 2107.226
412.5674, 2107.827
413.0495, 2108.081
413.5316, 2108.010
414.0138, 2107.680
414.4959, 2107.619
414.9780, 2107.144
415.4601, 2104.553
415.9422, 2099.557
416.4243, 2095.284
416.9065, 2094.698
417.3886, 2096.343
417.8707, 2098.094
418.3528, 2099.791
418.8349, 2100.776
419.3170, 2100.192
419.7992, 2098.347
420.2813, 2096.764
420.7634, 2095.977
421.2455, 2095.723
421.7276, 2095.828
422.2097, 2096.253
422.6919, 2097.044
423.1740, 2098.230
423.6561, 2099.783
424.1382, 2101.694
424.6203, 2104.756
425.1024, 2107.333
425.5846, 2108.912
426.0667, 2109.435
426.5488, 2109.984
427.0309, 2110.973
427.5130, 2111.628
427.9951, 2111.188
428.4773, 2108.310
428.9594, 2107.390
429.4415, 2109.384
429.9236, 2113.217
430.4057, 2116.359
430.8878, 2118.888
431.3700, 2120.468
431.8521, 2120.498
432.3342, 2118.995
432.8163, 2119.253
433.2984, 2121.841
433.7805, 2124.286
434.2627, 2122.744
434.7448, 2117.765
435.2269, 2114.919
435.7090, 2115.929
436.1911, 2119.544
436.6732, 2123.990
437.1554, 2129.100
437.6375, 2133.454
438.1196, 2135.784
438.6017, 2136.799
439.0838, 2137.525
439.5659, 2138.003
440.0480, 2138.544
440.5302, 2139.204
441.0123, 2140.138
441.4944, 2141.609
441.9765, 2144.912
442.4586, 2147.817
442.9407, 2148.401
443.4229, 2146.987
443.9050, 2146.302
444.3871, 2148.281
444.8692, 2150.859
445.3513, 2152.747
445.8334, 2153.835
446.3156, 2154.063
446.7977, 2152.828
447.2798, 2150.814
447.7619, 2149.219
448.2440, 2148.092
448.7261, 2147.425
449.2083, 2147.236
449.6904, 2147.526
450.1725, 2148.120
450.6546, 2148.656
451.1367, 2149.936
451.6188, 2153.052
452.1010, 2159.220
452.5831, 2162.963
453.0652, 2163.179
453.5473, 2161.404
454.0294, 2161.124
454.5115, 2162.506
454.9937, 2164.071
455.4758, 2165.256
455.9579, 2166.074
456.4400, 2166.565
456.9221, 2166.685
457.4042, 2166.774
457.8864, 2166.886
458.3685, 2167.194
458.8506, 2168.381
459.3327, 2171.068
459.8148, 2173.896
460.2969, 2174.821
460.7791, 2174.426
461.2612, 2174.622
461.7433, 2177.245
462.2254, 2180.461
462.7075, 2182.374
463.1896, 2182.701
463.6718, 2183.641
464.1539, 2187.323
464.6360, 2191.791
465.1181, 2195.034
465.6002, 2195.352
466.0823, 2195.701
466.5645, 2197.296
467.0466, 2199.633
467.5287, 2200.746
468.0108, 2198.363
468.4929, 2196.567
468.9750, 2197.062
469.4572, 2200.737
469.9393, 2203.265
470.4214, 2204.123
470.9035, 2204.240
471.3856, 2204.458
471.8677, 2204.528
472.3499, 2205.516
472.8320, 2207.938
473.3141, 2211.281
473.7962, 2213.875
474.2783, 2215.715
474.7604, 2217.001
475.2426, 2217.725
475.7247, 2217.978
476.2068, 2218.005
476.6889, 2217.719
477.1710, 2217.965
477.6531, 2219.794
478.1353, 2222.921
478.6174, 2226.654
479.0995, 2231.519
479.5816, 2236.029
480.0637, 2238.115
480.5458, 2238.247
481.0280, 2238.192
481.5101, 2238.221
481.9922, 2238.867
482.4743, 2240.577
482.9564, 2243.447
483.4385, 2246.985
483.9207, 2252.137
484.4028, 2257.348
484.8849, 2260.986
485.3670, 2261.577
485.8491, 2261.825
486.3312, 2261.867
486.8134, 2261.906
487.2955, 2262.776
487.7776, 2264.860
488.2597, 2267.385
488.7418, 2270.102
489.2239, 2273.007
489.7061, 2276.218
490.1882, 2280.045
490.6703, 2283.747
491.1524, 2286.246
491.6345, 2287.285
492.1166, 2289.102
492.5988, 2292.253
493.0809, 2296.288
493.5630, 2300.307
494.0451, 2304.295
494.5272, 2307.661
495.0093, 2309.548
495.4915, 2310.636
495.9736, 2312.363
496.4557, 2314.764
496.9378, 2318.044
497.4199, 2323.625
497.9020, 2329.909
498.3842, 2334.177
498.8663, 2334.325
499.3484, 2334.252
499.8305, 2336.510
500.3126, 2340.510
500.7947, 2344.710
501.2769, 2348.113
501.7590, 2352.042
502.2411, 2357.765
502.7232, 2365.960
503.2053, 2371.981
503.6874, 2372.168
504.1696, 2371.839
504.6517, 2375.017
505.1338, 2385.204
505.6159, 2392.507
506.0980, 2394.810
506.5801, 2394.516
507.0623, 2397.533
507.5444, 2405.074
508.0265, 2412.075
508.5086, 2416.359
508.9907, 2418.364
509.4728, 2421.750
509.9550, 2426.573
510.4371, 2432.214
510.9192, 2438.381
511.4013, 2444.966
511.8834, 2451.146
512.3655, 2456.552
512.8477, 2462.565
513.3298, 2471.585
513.8119, 2482.531
514.2940, 2492.786
514.7761, 2499.903
515.2582, 2506.883
515.7404, 2515.672
516.2225, 2526.326
516.7046, 2538.891
517.1867, 2554.443
517.6688, 2571.175
518.1509, 2587.728
518.6331, 2603.040
519.1152, 2620.325
519.5973, 2639.517
520.0794, 2661.103
520.5615, 2685.280
521.0436, 2713.224
521.5258, 2741.872
522.0079, 2769.642
522.4900, 2797.575
522.9721, 2831.322
523.4542, 2870.827
523.9363, 2914.229
524.4185, 2960.154
524.9006, 3008.834
525.3827, 3062.523
525.8648, 3121.688
526.3469, 3184.852
526.8290, 3249.734
527.3112, 3317.120
527.7933, 3390.754
528.2754, 3473.015
528.7575, 3560.543
529.2396, 3650.427
529.7217, 3743.658
530.2039, 3841.142
530.6860, 3943.826
531.1681, 4051.488
531.6502, 4165.805
532.1323, 4287.306
532.6144, 4415.004
533.0966, 4553.864
533.5787, 4696.248
534.0608, 4838.427
534.5429, 4973.965
535.0250, 5117.121
535.5071, 5268.267
535.9893, 5426.342
536.4714, 5586.640
536.9535, 5746.873
537.4356, 5913.150
537.9177, 6085.647
538.3998, 6265.204
538.8820, 6448.692
539.3641, 6634.319
539.8462, 6821.816
540.3283, 7009.587
540.8104, 7196.608
541.2925, 7385.437
541.7747, 7576.899
542.2568, 7758.833
542.7389, 7920.116
543.2210, 8061.821
543.7031, 8187.571
544.1852, 8302.950
544.6674, 8395.262
545.1495, 8456.261
545.6316, 8484.280
546.1137, 8475.044
546.5958, 8429.880
547.0779, 8344.324
547.5601, 8213.379
548.0422, 8036.602
548.5243, 7828.103
549.0064, 7585.623
549.4885, 7315.682
549.9706, 7020.960
550.4528, 6689.482
550.9349, 6355.708
551.4170, 6007.632
551.8991, 5660.554
552.3812, 5333.085
552.8633, 5024.448
553.3455, 4738.099
553.8276, 4473.365
554.3097, 4232.330
554.7918, 4021.331
555.2739, 3843.774
555.7560, 3690.894
556.2382, 3562.813
556.7203, 3455.582
557.2024, 3361.764
557.6845, 3281.110
558.1666, 3210.874
558.6487, 3151.339
559.1309, 3100.460
559.6130, 3057.176
560.0951, 3022.747
560.5772, 2991.941
561.0593, 2961.885
561.5414, 2933.684
562.0236, 2909.720
562.5057, 2892.421
562.9878, 2877.145
563.4699, 2862.326
563.9520, 2848.159
564.4341, 2836.378
564.9163, 2827.483
565.3984, 2820.222
565.8805, 2813.845
566.3626, 2808.156
566.8447, 2804.671
567.3268, 2803.875
567.8090, 2803.765
568.2911, 2801.867
568.7732, 2798.416
569.2553, 2795.457
569.7374, 2792.986
570.2195, 2792.035
570.7017, 2795.005
571.1838, 2800.861
571.6659, 2806.232
572.1480, 2808.788
572.6301, 2810.728
573.1122, 2813.620
573.5944, 2817.519
574.0765, 2822.330
574.5586, 2829.254
575.0407, 2836.142
575.5228, 2841.500
576.0049, 2844.121
576.4871, 2848.038
576.9692, 2855.082
577.4513, 2862.636
577.9334, 2868.611
578.4155, 2873.446
578.8976, 2875.207
579.3798, 2872.675
579.8619, 2867.751
580.3440, 2865.363
580.8261, 2865.783
581.3082, 2865.583
581.7903, 2863.437
582.2725, 2859.590
582.7546, 2855.124
583.2367, 2849.964
583.7188, 2842.788
584.2009, 2832.012
584.6830, 2818.940
585.1652, 2804.779
585.6473, 2789.331
586.1294, 2774.743
586.6115, 2762.308
587.0936, 2751.141
587.5757, 2740.483
588.0578, 2731.400
588.5399, 2721.242
589.0220, 2709.077
589.5042, 2695.485
589.9863, 2681.819
590.4684, 2667.978
590.9505, 2654.446
591.4326, 2641.411
591.9147, 2628.833
592.3969, 2616.311
592.8790, 2603.824
593.3611, 2591.585
593.8432, 2579.620
594.3253, 2568.146
594.8074, 2556.795
595.2896, 2545.467
595.7717, 2535.431
596.2538, 2528.776
596.7359, 2524.157
597.2180, 2519.048
597.7001, 2512.644
598.1823, 2506.288
598.6644, 2501.833
599.1465, 2497.911
599.6286, 2492.151
600.1107, 2481.350
600.5928, 2471.187
601.0750, 2462.948
601.5571, 2456.788
602.0392, 2452.868
602.5213, 2452.978
603.0034, 2452.787
603.4855, 2450.323
603.9677, 2445.317
604.4498, 2441.362
604.9319, 2438.639
605.4140, 2436.202
605.8961, 2432.915
606.3782, 2428.994
606.8604, 2426.663
607.3425, 2426.576
607.8246, 2426.430
608.3067, 2422.690
608.7888, 2416.849
609.2709, 2412.232
609.7531, 2410.808
610.2352, 2410.094
610.7173, 2408.384
611.1994, 2406.097
611.6815, 2404.335
612.1636, 2404.873
612.6458, 2404.669
613.1279, 2401.567
613.6100, 2395.430
614.0921, 2392.782
614.5742, 2396.318
615.0563, 2399.801
615.5385, 2399.180
616.0206, 2393.198
616.5027, 2391.307
616.9848, 2394.801
617.4669, 2398.527
617.9490, 2394.585
618.4312, 2384.931
618.9133, 2380.263
619.3954, 2383.801
619.8775, 2390.049
620.3596, 2392.864
620.8417, 2393.323
621.3239, 2393.801
621.8060, 2395.050
622.2881, 2396.834
622.7702, 2399.102
623.2523, 2401.795
623.7344, 2404.723
624.2166, 2408.717
624.6987, 2412.047
625.1808, 2413.481
625.6629, 2412.750
626.1450, 2413.906
626.6271, 2417.577
627.1093, 2422.073
627.5914, 2426.573
628.0735, 2431.156
628.5556, 2434.127
629.0377, 2435.011
629.5198, 2435.719
630.0020, 2438.053
630.4841, 2442.059
630.9662, 2448.461
631.4483, 2459.093
631.9304, 2468.738
632.4125, 2471.503
632.8947, 2469.653
633.3768, 2467.775
633.8589, 2466.441
634.3410, 2466.826
634.8231, 2471.113
635.3052, 2478.292
635.7874, 2482.317
636.2695, 2481.660
636.7516, 2478.647
637.2337, 2473.620
637.7158, 2466.403
638.1979, 2459.028
638.6801, 2451.175
639.1622, 2443.706
639.6443, 2437.921
640.1264, 2433.448
640.6085, 2426.379
641.0906, 2416.022
641.5728, 2405.512
642.0549, 2397.864
642.5370, 2392.434
643.0191, 2388.071
643.5012, 2385.059
643.9833, 2381.926
644.4655, 2377.207
644.9476, 2371.891
645.4297, 2367.446
645.9118, 2365.023
646.3939, 2362.841
646.8760, 2360.238
647.3582, 2357.521
647.8403, 2356.032
648.3224, 2356.258
648.8045, 2356.802
649.2866, 2357.526
649.7687, 2358.249
650.2509, 2356.872
650.7330, 2353.204
651.2151, 2349.277
651.6972, 2345.837
652.1793, 2343.348
652.6614, 2343.955
653.1436, 2347.986
653.6257, 2351.119
654.1078, 2348.510
654.5899, 2343.854
655.0720, 2341.184
655.5541, 2342.132
656.0363, 2343.709
656.5184, 2345.739
657.0005, 2347.609
657.4826, 2348.558
657.9647, 2348.923
658.4468, 2347.553
658.9290, 2343.003
659.4111, 2337.352
659.8932, 2336.323
660.3753, 2340.509
660.8574, 2344.124
661.3395, 2344.621
661.8217, 2343.339
662.3038, 2343.477
662.7859, 2344.891
663.2680, 2346.701
663.7501, 2349.099
664.2322, 2351.122
664.7144, 2351.710
665.1965, 2350.844
665.6786, 2349.586
666.1607, 2348.274
666.6428, 2346.831
667.1249, 2345.125
667.6071, 2342.838
668.0892, 2341.297
668.5713, 2340.683
669.0534, 2340.686
669.5355, 2341.182
670.0176, 2342.315
670.4998, 2343.032
670.9819, 2343.081
671.4640, 2343.135
671.9461, 2344.410
672.4282, 2346.570
672.9103, 2348.450
673.3925, 2349.858
673.8746, 2350.538
674.3567, 2349.315
674.8388, 2347.172
675.3209, 2346.255
675.8030, 2349.190
676.2852, 2351.714
676.7673, 2351.552
677.2494, 2349.220
677.7315, 2348.251
678.2136, 2349.908
678.6957, 2351.323
679.1779, 2351.635
679.6600, 2350.845
680.1421, 2348.747
680.6242, 2345.027
681.1063, 2341.745
681.5884, 2340.678
682.0706, 2341.189
682.5527, 2340.861
683.0348, 2339.543
683.5169, 2339.179
683.9990, 2343.331
684.4811, 2348.315
684.9633, 2349.458
685.4454, 2344.238
685.9275, 2340.508
686.4096, 2343.212
686.8917, 2347.691
687.3738, 2348.598
687.8560, 2340.987
688.3381, 2338.553
688.8202, 2344.354
689.3023, 2353.429
689.7844, 2357.203
690.2665, 2355.274
690.7487, 2353.317
691.2308, 2352.638
691.7129, 2352.836
692.1950, 2353.525
692.6771, 2354.523
693.1592, 2355.276
693.6414, 2355.726
694.1235, 2355.621
694.6056, 2354.762
695.0877, 2353.190
695.5698, 2351.035
696.0519, 2346.230
696.5341, 2342.978
697.0162, 2344.055
697.4983, 2349.379
697.9804, 2351.467
698.4625, 2348.867
698.9446, 2346.113
699.4268, 2346.115
699.9089, 2348.703
700.3910, 2350.164
700.8731, 2350.460
701.3552, 2350.188
701.8373, 2349.185
702.3195, 2348.155
702.8016, 2348.667
703.2837, 2351.180
703.7658, 2353.242
704.2479, 2352.987
704.7300, 2351.723
705.2122, 2350.653
705.6943, 2349.720
706.1764, 2349.457
706.6585, 2350.016
707.1406, 2351.125
707.6227, 2352.718
708.1049, 2355.204
708.5870, 2356.168
709.0691, 2354.566
709.5512, 2352.507
710.0333, 2354.885
710.5154, 2360.628
710.9976, 2363.854
711.4797, 2361.204
711.9618, 2356.914
712.4439, 2354.689
712.9260, 2354.268
713.4081, 2354.963
713.8903, 2358.802
714.3724, 2361.380
714.8545, 2359.771
715.3366, 2354.917
715.8187, 2353.097
716.3008, 2356.142
716.7830, 2359.119
717.2651, 2360.117
717.7472, 2359.533
718.2293, 2361.217
718.7114, 2365.414
719.1935, 2367.954
719.6757, 2363.853
720.1578, 2357.023
720.6399, 2355.360
721.1220, 2358.850
721.6041, 2362.877
722.0862, 2364.543
722.5684, 2365.398
723.0505, 2366.704
723.5326, 2368.831
724.0147, 2370.043
724.4968, 2369.496
724.9789, 2368.409
725.4611, 2367.554
725.9432, 2367.139
726.4253, 2366.020
726.9074, 2363.938
727.3895, 2361.949
727.8716, 2361.531
728.3538, 2362.277
728.8359, 2362.390
729.3180, 2361.487
729.8001, 2360.538
730.2822, 2360.351
730.7643, 2360.706
731.2465, 2361.306
731.7286, 2362.075
732.2107, 2363.048
732.6928, 2364.392
733.1749, 2365.838
733.6570, 2366.969
734.1392, 2367.609
734.6213, 2368.141
735.1034, 2368.584
735.5855, 2368.875
736.0676, 2368.626
736.5497, 2367.903
737.0319, 2368.149
737.5140, 2370.675
737.9961, 2373.246
738.4782, 2372.424
738.9603, 2369.271
739.4424, 2366.490
739.9246, 2365.306
740.4067, 2364.826
740.8888, 2364.750
741.3709, 2365.101
741.8530, 2366.001
742.3351, 2368.373
742.8173, 2369.819
743.2994, 2369.140
743.7815, 2366.977
744.2636, 2367.327
744.7457, 2370.409
745.2278, 2372.818
745.7100, 2371.206
746.1921, 2368.092
746.6742, 2369.010
747.1563, 2373.388
747.6384, 2377.206
748.1205, 2377.947
748.6027, 2377.459
749.0848, 2376.658
749.5669, 2375.602
750.0490, 2375.008
750.5311, 2374.330
751.0132, 2374.855
751.4954, 2377.987
751.9775, 2384.168
752.4596, 2385.888
752.9417, 2382.372
753.4238, 2378.294
753.9059, 2377.195
754.3881, 2378.358
754.8702, 2380.512
755.3523, 2383.594
755.8344, 2385.639
756.3165, 2384.048
756.7986, 2381.483
757.2808, 2380.371
757.7629, 2381.448
758.2450, 2382.589
758.7271, 2383.422
759.2092, 2384.247
759.6913, 2385.333
760.1735, 2386.814
760.6556, 2387.656
761.1377, 2387.455
761.6198, 2387.714
762.1019, 2390.969
762.5840, 2396.085
763.0662, 2399.014
763.5483, 2398.687
764.0304, 2398.198
764.5125, 2400.376
764.9946, 2403.710
765.4767, 2406.503
765.9589, 2408.548
766.4410, 2409.753
766.9231, 2410.021
767.4052, 2409.522
767.8873, 2407.997
768.3694, 2404.680
768.8516, 2403.637
769.3337, 2405.608
769.8158, 2409.309
770.2979, 2414.006
770.7800, 2418.995
771.2621, 2421.394
771.7443, 2419.561
772.2264, 2417.130
772.7085, 2416.693
773.1906, 2417.805
773.6727, 2419.805
774.1548, 2423.271
774.6370, 2426.714
775.1191, 2430.053
775.6012, 2433.208
776.0833, 2436.019
776.5654, 2438.538
777.0475, 2440.468
777.5297, 2441.360
778.0118, 2442.391
778.4939, 2446.340
778.9760, 2452.383
779.4581, 2457.341
779.9402, 2458.864
780.4224, 2460.504
780.9045, 2465.495
781.3866, 2472.473
781.8687, 2478.882
782.3508, 2484.129
782.8329, 2488.458
783.3151, 2491.547
783.7972, 2493.845
784.2793, 2496.393
784.7614, 2499.199
785.2435, 2502.119
785.7256, 2505.176
786.2077, 2508.305
786.6898, 2511.076
787.1719, 2513.777
787.6541, 2517.182
788.1362, 2522.784
788.6183, 2528.302
789.1004, 2532.009
789.5825, 2534.499
790.0646, 2537.089
790.5468, 2538.933
791.0289, 2542.546
791.5110, 2549.216
791.9931, 2557.707
792.4752, 2563.391
792.9573, 2565.840
793.4395, 2569.858
793.9216, 2578.598
794.4037, 2588.362
794.8858, 2590.626
795.3679, 2587.637
795.8500, 2586.495
796.3322, 2592.083
796.8143, 2599.032
797.2964, 2604.643
797.7785, 2609.211
798.2606, 2613.853
798.7427, 2619.622
799.2249, 2624.132
799.7070, 2626.885
800.1891, 2628.008
800.6712, 2627.386
801.1533, 2625.019
801.6354, 2623.159
802.1176, 2622.649
802.5997, 2623.340
803.0818, 2626.204
803.5639, 2630.242
804.0460, 2632.370
804.5281, 2629.935
805.0103, 2626.582
805.4924, 2623.343
805.9745, 2620.374
806.4566, 2618.140
806.9387, 2617.261
807.4208, 2615.657
807.9030, 2612.371
808.3851, 2608.169
808.8672, 2605.899
809.3493, 2605.252
809.8314, 2603.485
810.3135, 2597.710
810.7957, 2591.655
811.2778, 2590.942
811.7599, 2593.211
812.2420, 2591.850
812.7241, 2579.654
813.2062, 2568.913
813.6884, 2564.578
814.1705, 2564.474
814.6526, 2561.593
815.1347, 2555.050
815.6168, 2549.380
816.0989, 2546.124
816.5811, 2544.409
817.0632, 2542.278
817.5453, 2539.946
818.0274, 2538.292
818.5095, 2539.063
818.9916, 2539.413
819.4738, 2537.327
819.9559, 2533.354
820.4380, 2529.015
820.9201, 2523.292
821.4022, 2518.776
821.8843, 2515.654
822.3665, 2514.206
822.8486, 2516.498
823.3307, 2522.704
823.8128, 2526.018
824.2949, 2522.847
824.7770, 2517.581
825.2592, 2517.153
825.7413, 2519.740
826.2234, 2520.960
826.7055, 2516.889
827.1876, 2513.387
827.6697, 2513.422
828.1519, 2515.467
828.6340, 2515.837
829.1161, 2513.491
829.5982, 2511.825
830.0803, 2511.367
830.5624, 2512.021
831.0446, 2514.377
831.5267, 2517.947
832.0088, 2520.174
832.4909, 2519.785
832.9730, 2518.594
833.4551, 2517.981
833.9373, 2517.754
834.4194, 2517.583
834.9015, 2517.710
835.3836, 2517.470
835.8657, 2516.965
836.3478, 2515.944
836.8300, 2513.583
837.3121, 2509.588
837.7942, 2507.371
838.2763, 2507.871
838.7584, 2509.137
839.2405, 2508.469
839.7227, 2506.567
840.2048, 2504.837
840.6869, 2503.597
841.1690, 2502.681
841.6511, 2502.695
842.1332, 2502.638
842.6154, 2501.160
843.0975, 2496.903
843.5796, 2494.360
844.0617, 2494.373
844.5438, 2494.889
845.0259, 2493.356
845.5081, 2490.108
845.9902, 2486.663
846.4723, 2483.187
846.9544, 2480.010
847.4365, 2477.762
847.9186, 2475.808
848.4008, 2473.216
848.8829, 2468.803
849.3650, 2466.789
849.8471, 2470.029
850.3292, 2473.451
850.8113, 2472.988
851.2935, 2468.167
851.7756, 2464.400
852.2577, 2461.914
852.7398, 2460.067
853.2219, 2458.281
853.7040, 2456.714
854.1862, 2455.302
854.6683, 2453.990
855.1504, 2454.156
855.6325, 2458.796
856.1146, 2463.159
856.5967, 2463.486
857.0789, 2459.038
857.5610, 2457.702
858.0431, 2460.429
858.5252, 2463.269
859.0073, 2463.021
859.4894, 2460.769
859.9716, 2460.956
860.4537, 2463.328
860.9358, 2464.986
861.4179, 2463.426
861.9000, 2461.055
862.3821, 2459.643
862.8643, 2459.240
863.3464, 2458.177
863.8285, 2455.755
864.3106, 2453.801
864.7927, 2453.161
865.2748, 2453.513
865.7570, 2453.118
866.2391, 2452.065
866.7212, 2451.700
867.2033, 2453.389
867.6854, 2455.572
868.1675, 2456.840
868.6497, 2457.233
869.1318, 2456.852
869.6139, 2454.798
870.0960, 2452.973
870.5781, 2451.661
871.0602, 2450.883
871.5424, 2450.947
872.0245, 2451.966
872.5066, 2452.627
872.9887, 2452.726
873.4708, 2452.036
873.9529, 2449.562
874.4351, 2446.123
874.9172, 2443.555
875.3993, 2442.865
875.8814, 2442.537
876.3635, 2442.551
876.8456, 2442.401
877.3278, 2441.259
877.8099, 2438.417
878.2920, 2436.948
878.7741, 2437.375
879.2562, 2438.659
879.7383, 2439.770
880.2205, 2440.655
880.7026, 2440.986
881.1847, 2440.551
881.6668, 2440.444
882.1489, 2442.088
882.6310, 2443.933
883.1132, 2444.278
883.5953, 2441.668
884.0774, 2441.680
884.5595, 2445.460
885.0416, 2449.609
885.5237, 2451.704
886.0059, 2451.888
886.4880, 2451.087
886.9701, 2449.321
887.4522, 2446.262
887.9343, 2438.633
888.4164, 2431.854
888.8986, 2431.870
889.3807, 2438.914
889.8628, 2443.845
890.3449, 2444.207
890.8270, 2444.220
891.3091, 2445.973
891.7913, 2448.672
892.2734, 2446.910
892.7555, 2440.962
893.2376, 2436.158
893.7197, 2436.602
894.2018, 2438.511
894.6840, 2436.970
895.1661, 2433.555
895.6482, 2432.685
896.1303, 2438.278
896.6124, 2443.407
897.0945, 2447.292
897.5767, 2449.499
898.0588, 2448.217
898.5409, 2443.226
899.0230, 2440.085
899.5051, 2440.267
899.9872, 2442.229
900.4694, 2445.494
900.9515, 2448.794
901.4336, 2449.754
901.9157, 2445.773
902.3978, 2443.324
902.8799, 2445.992
903.3621, 2449.696
903.8442, 2450.817
904.3263, 2448.767
904.8084, 2447.644
905.2905, 2447.718
905.7726, 2448.077
906.2548, 2447.853
906.7369, 2447.310
907.2190, 2447.150
907.7011, 2447.474
908.1832, 2446.765
908.6653, 2443.054
909.1475, 2439.280
909.6296, 2436.806
910.1117, 2435.640
910.5938, 2436.332
911.0759, 2439.307
911.5580, 2441.913
912.0402, 2442.396
912.5223, 2441.696
913.0044, 2441.480
913.4865, 2441.715
913.9686, 2442.285
914.4507, 2444.631
914.9329, 2445.708
915.4150, 2442.733
915.8971, 2437.710
916.3792, 2435.937
916.8613, 2438.441
917.3434, 2439.824
917.8256, 2438.418
918.3077, 2436.391
918.7898, 2437.470
919.2719, 2440.662
919.7540, 2443.868
920.2361, 2447.149
920.7183, 2448.719
921.2004, 2445.913
921.6825, 2442.097
922.1646, 2440.909
922.6467, 2443.907
923.1288, 2444.668
923.6110, 2442.570
924.0931, 2440.241
924.5752, 2440.673
925.0573, 2442.657
925.5394, 2443.302
926.0215, 2442.441
926.5037, 2441.957
926.9858, 2443.631
927.4679, 2445.365
927.9500, 2445.864
928.4321, 2445.181
928.9142, 2443.851
929.3964, 2441.383
929.8785, 2440.132
930.3606, 2441.655
930.8427, 2444.611
931.3248, 2446.221
931.8069, 2446.660
932.2891, 2446.532
932.7712, 2445.448
933.2533, 2444.558
933.7354, 2444.226
934.2175, 2444.440
934.6996, 2445.243
935.1818, 2447.009
935.6639, 2448.194
936.1460, 2448.648
936.6281, 2448.483
937.1102, 2447.196
937.5923, 2445.555
938.0745, 2445.444
938.5566, 2447.554
939.0387, 2449.506
939.5208, 2449.971
940.0029, 2449.905
940.4850, 2449.812
940.9672, 2449.545
941.4493, 2450.557
941.9314, 2453.167
942.4135, 2455.268
942.8956, 2454.522
943.3777, 2452.581
943.8599, 2453.239
944.3420, 2455.935
944.8241, 2457.708
945.3062, 2456.478
945.7883, 2454.739
946.2704, 2453.242
946.7526, 2452.105
947.2347, 2451.749
947.7168, 2452.391
948.1989, 2452.751
948.6810, 2452.503
949.1631, 2451.938
949.6453, 2450.126
950.1274, 2448.602
950.6095, 2450.732
951.0916, 2460.233
951.5737, 2467.095
952.0558, 2465.590
952.5380, 2462.203
953.0201, 2461.931
953.5022, 2465.163
953.9843, 2468.383
954.4664, 2471.515
954.9485, 2474.388
955.4307, 2476.217
955.9128, 2478.088
956.3949, 2481.673
956.8770, 2486.938
957.3591, 2492.125
957.8412, 2496.901
958.3234, 2501.382
958.8055, 2506.018
959.2876, 2510.419
959.7697, 2511.963
960.2518, 2510.785
960.7339, 2512.801
961.2161, 2521.625
961.6982, 2531.864
962.1803, 2537.464
962.6624, 2540.678
963.1445, 2545.115
963.6266, 2550.408
964.1088, 2559.204
964.5909, 2572.892
965.0730, 2588.282
965.5551, 2601.437
966.0372, 2612.796
966.5193, 2627.877
967.0015, 2646.981
967.4836, 2665.776
967.9657, 2681.492
968.4478, 2694.762
968.9299, 2706.472
969.4120, 2716.523
969.8942, 2722.076
970.3763, 2724.263
970.8584, 2719.744
971.3405, 2706.306
971.8226, 2686.199
972.3047, 2663.043
972.7869, 2637.938
973.2690, 2614.937
973.7511, 2595.418
974.2332, 2578.941
974.7153, 2565.494
975.1974, 2554.831
975.6796, 2546.413
976.1617, 2540.980
976.6438, 2535.236
977.1259, 2528.629
977.6080, 2523.284
978.0901, 2521.491
978.5723, 2522.627
979.0544, 2526.542
979.5365, 2533.106
980.0186, 2537.833
980.5007, 2536.482
980.9828, 2534.669
981.4650, 2535.394
981.9471, 2538.160
982.4291, 2539.616
982.9113, 2539.672
983.3934, 2539.269
983.8755, 2538.211
984.3576, 2537.742
984.8397, 2541.220
985.3218, 2546.164
985.8040, 2547.848
986.2861, 2540.285
986.7682, 2535.975
987.2503, 2537.706
987.7324, 2541.616
988.2145, 2544.140
988.6967, 2545.316
989.1788, 2545.151
989.6609, 2543.607
990.1430, 2542.083
990.6251, 2542.169
991.1072, 2542.412
991.5894, 2541.081
992.0715, 2538.239
992.5536, 2537.304
993.0357, 2539.970
993.5178, 2541.307
993.9999, 2539.413
994.4821, 2535.514
994.9642, 2531.810
995.4463, 2528.577
995.9284, 2526.794
996.4105, 2527.575
996.8926, 2528.372
997.3748, 2527.201
997.8569, 2525.681
998.3390, 2525.776
998.8211, 2528.313
999.3032, 2529.777
999.7853, 2530.267
1000.267, 2528.961
1000.750, 2523.180
1001.232, 2516.169
1001.714, 2514.020
1002.196, 2516.337
1002.678, 2517.345
1003.160, 2513.730
1003.642, 2509.688
1004.124, 2505.925
1004.607, 2502.963
1005.089, 2502.497
1005.571, 2504.447
1006.053, 2507.515
1006.535, 2511.748
1007.017, 2515.759
1007.499, 2518.083
1007.981, 2519.541
1008.463, 2521.289
1008.946, 2524.339
1009.428, 2524.923
1009.910, 2521.774
1010.392, 2518.684
1010.874, 2518.658
1011.356, 2520.846
1011.838, 2522.122
1012.320, 2522.696
1012.802, 2523.740
1013.285, 2527.531
1013.767, 2530.305
1014.249, 2528.831
1014.731, 2525.427
1015.213, 2525.306
1015.695, 2529.245
1016.177, 2531.611
1016.659, 2531.068
1017.142, 2530.316
1017.624, 2533.876
1018.106, 2538.668
1018.588, 2539.772
1019.070, 2535.545
1019.552, 2533.247
1020.034, 2535.281
1020.516, 2538.350
1020.998, 2541.388
1021.481, 2544.190
1021.963, 2545.628
1022.445, 2545.769
1022.927, 2545.048
1023.409, 2542.625
1023.891, 2540.626
1024.373, 2540.966
1024.855, 2542.524
1025.338, 2543.270
1025.820, 2542.623
1026.302, 2542.488
1026.784, 2542.959
1027.266, 2544.044
1027.748, 2546.420
1028.230, 2549.176
1028.712, 2549.889
1029.194, 2548.597
1029.677, 2549.251
1030.159, 2557.331
1030.641, 2563.083
1031.123, 2561.601
1031.605, 2555.765
1032.087, 2556.011
1032.569, 2561.983
1033.051, 2567.290
1033.534, 2569.803
1034.016, 2571.243
1034.498, 2571.858
1034.980, 2572.987
1035.462, 2576.508
1035.944, 2584.203
1036.426, 2589.991
1036.908, 2593.528
1037.391, 2596.160
1037.873, 2598.520
1038.355, 2600.777
1038.837, 2603.408
1039.319, 2606.320
1039.801, 2608.940
1040.283, 2608.982
1040.765, 2611.165
1041.247, 2618.356
1041.729, 2627.697
1042.212, 2634.841
1042.694, 2639.707
1043.176, 2644.352
1043.658, 2649.165
1044.140, 2653.224
1044.622, 2656.135
1045.104, 2657.690
1045.586, 2657.792
1046.069, 2656.374
1046.551, 2652.561
1047.033, 2644.435
1047.515, 2638.910
1047.997, 2639.232
1048.479, 2643.139
1048.961, 2646.971
1049.443, 2650.284
1049.926, 2651.843
1050.408, 2649.938
1050.890, 2648.491
1051.372, 2648.474
1051.854, 2649.836
1052.336, 2653.289
1052.818, 2659.120
1053.300, 2660.797
1053.782, 2658.233
1054.265, 2657.691
1054.747, 2665.825
1055.229, 2676.012
1055.711, 2683.284
1056.193, 2687.907
1056.675, 2691.344
1057.157, 2692.399
1057.639, 2695.778
1058.121, 2702.479
1058.604, 2710.995
1059.086, 2720.284
1059.568, 2729.518
1060.050, 2736.882
1060.532, 2741.890
1061.014, 2747.406
1061.496, 2755.603
1061.978, 2763.219
1062.461, 2767.923
1062.943, 2771.032
1063.425, 2779.593
1063.907, 2793.222
1064.389, 2807.513
1064.871, 2821.484
1065.353, 2834.564
1065.835, 2845.353
1066.318, 2855.453
1066.800, 2867.300
1067.282, 2881.297
1067.764, 2895.974
1068.246, 2911.249
1068.728, 2926.903
1069.210, 2942.142
1069.692, 2957.932
1070.174, 2975.771
1070.656, 2995.498
1071.139, 3016.806
1071.621, 3042.090
1072.103, 3065.306
1072.585, 3084.733
1073.067, 3102.844
1073.549, 3123.789
1074.031, 3146.849
1074.513, 3170.737
1074.996, 3195.096
1075.478, 3219.726
1075.960, 3242.940
1076.442, 3267.554
1076.924, 3295.495
1077.406, 3326.557
1077.888, 3357.827
1078.370, 3389.363
1078.853, 3420.531
1079.335, 3450.701
1079.817, 3480.646
1080.299, 3511.807
1080.781, 3543.481
1081.263, 3574.319
1081.745, 3604.093
1082.227, 3634.546
1082.709, 3666.439
1083.192, 3696.883
1083.674, 3722.705
1084.156, 3746.490
1084.638, 3776.439
1085.120, 3810.459
1085.602, 3842.135
1086.084, 3869.026
1086.566, 3893.200
1087.048, 3914.796
1087.531, 3934.577
1088.013, 3953.788
1088.495, 3972.280
1088.977, 3987.021
1089.459, 3997.885
1089.941, 4007.601
1090.423, 4019.917
1090.905, 4030.048
1091.387, 4035.146
1091.870, 4035.200
1092.352, 4029.907
1092.834, 4018.299
1093.316, 4009.026
1093.798, 4005.566
1094.280, 3999.630
1094.762, 3979.068
1095.244, 3951.526
1095.727, 3926.808
1096.209, 3907.662
1096.691, 3883.944
1097.173, 3855.129
1097.655, 3822.359
1098.137, 3785.054
1098.619, 3745.245
1099.101, 3707.660
1099.583, 3671.796
1100.066, 3634.430
1100.548, 3593.063
1101.030, 3552.723
1101.512, 3516.046
1101.994, 3479.964
1102.476, 3441.355
1102.958, 3400.908
1103.440, 3364.641
1103.922, 3332.487
1104.405, 3301.895
1104.887, 3270.075
1105.369, 3240.330
1105.851, 3214.733
1106.333, 3192.093
1106.815, 3170.182
1107.297, 3148.824
1107.779, 3129.582
1108.262, 3112.568
1108.744, 3096.505
1109.226, 3079.057
1109.708, 3062.563
1110.190, 3049.028
1110.672, 3038.652
1111.154, 3030.721
1111.636, 3026.489
1112.119, 3020.339
1112.601, 3009.953
1113.083, 2999.331
1113.565, 2995.857
1114.047, 2995.807
1114.529, 2992.071
1115.011, 2982.602
1115.493, 2974.733
1115.975, 2970.757
1116.458, 2967.589
1116.940, 2963.743
1117.422, 2959.902
1117.904, 2959.522
1118.386, 2961.166
1118.868, 2959.576
1119.350, 2951.035
1119.832, 2942.617
1120.314, 2936.214
1120.797, 2932.140
1121.279, 2931.939
1121.761, 2935.493
1122.243, 2932.317
1122.725, 2922.800
1123.207, 2913.180
1123.689, 2907.212
1124.171, 2902.332
1124.654, 2897.746
1125.136, 2892.743
1125.618, 2886.175
1126.100, 2877.634
1126.582, 2869.381
1127.064, 2861.533
1127.546, 2854.145
1128.028, 2846.801
1128.510, 2840.308
1128.993, 2837.133
1129.475, 2836.055
1129.957, 2829.833
1130.439, 2815.190
1130.921, 2804.077
1131.403, 2799.413
1131.885, 2796.061
1132.367, 2786.859
1132.849, 2774.823
1133.332, 2763.935
1133.814, 2754.687
1134.296, 2747.362
1134.778, 2743.887
1135.260, 2739.038
1135.742, 2730.491
1136.224, 2720.591
1136.706, 2714.134
1137.189, 2710.275
1137.671, 2707.043
1138.153, 2704.388
1138.635, 2700.401
1139.117, 2693.112
1139.599, 2685.617
1140.081, 2679.175
1140.563, 2673.848
1141.046, 2669.226
1141.528, 2665.479
1142.010, 2663.473
1142.492, 2665.313
1142.974, 2665.848
1143.456, 2660.753
1143.938, 2654.405
1144.420, 2650.786
1144.902, 2649.967
1145.385, 2649.721
1145.867, 2649.917
1146.349, 2647.813
1146.831, 2637.452
1147.313, 2628.573
1147.795, 2630.709
1148.277, 2637.833
1148.759, 2639.698
1149.241, 2635.263
1149.724, 2630.009
1150.206, 2624.072
1150.688, 2619.025
1151.170, 2616.753
1151.652, 2615.653
1152.134, 2614.499
1152.616, 2613.285
1153.098, 2612.201
1153.581, 2611.266
1154.063, 2610.569
1154.545, 2610.214
1155.027, 2609.744
1155.509, 2609.220
1155.991, 2607.952
1156.473, 2603.811
1156.955, 2597.098
1157.438, 2594.728
1157.920, 2599.563
1158.402, 2602.791
1158.884, 2601.896
1159.366, 2599.620
1159.848, 2600.706
1160.330, 2603.012
1160.812, 2602.586
1161.294, 2598.519
1161.776, 2594.885
1162.259, 2592.231
1162.741, 2590.446
1163.223, 2589.509
1163.705, 2589.309
1164.187, 2589.335
1164.669, 2589.925
1165.151, 2592.458
1165.633, 2598.551
1166.116, 2601.753
1166.598, 2597.959
1167.080, 2594.198
1167.562, 2594.618
1168.044, 2597.407
1168.526, 2595.482
1169.008, 2590.143
1169.490, 2586.009
1169.973, 2585.710
1170.455, 2585.030
1170.937, 2581.596
1171.419, 2578.353
1171.901, 2577.456
1172.383, 2578.634
1172.865, 2579.909
1173.347, 2581.121
1173.829, 2581.444
1174.312, 2580.369
1174.794, 2578.374
1175.276, 2573.930
1175.758, 2569.886
1176.240, 2569.653
1176.722, 2573.046
1177.204, 2573.931
1177.686, 2572.304
1178.168, 2570.027
1178.651, 2567.019
1179.133, 2565.046
1179.615, 2566.341
1180.097, 2568.548
1180.579, 2567.875
1181.061, 2564.280
1181.543, 2562.219
1182.025, 2561.989
1182.508, 2562.362
1182.990, 2562.586
1183.472, 2562.963
1183.954, 2564.272
1184.436, 2565.699
1184.918, 2565.264
1185.400, 2562.859
1185.882, 2561.001
1186.365, 2560.099
1186.847, 2558.881
1187.329, 2555.458
1187.811, 2552.043
1188.293, 2550.636
1188.775, 2550.802
1189.257, 2550.691
1189.739, 2550.279
1190.221, 2550.138
1190.703, 2550.376
1191.186, 2550.938
1191.668, 2553.150
1192.150, 2554.542
1192.632, 2551.635
1193.114, 2545.163
1193.596, 2542.464
1194.078, 2543.837
1194.560, 2545.957
1195.043, 2548.098
1195.525, 2549.853
1196.007, 2550.581
1196.489, 2550.827
1196.971, 2551.434
1197.453, 2552.434
1197.935, 2551.593
1198.417, 2548.831
1198.900, 2544.669
1199.382, 2538.233
1199.864, 2533.329
1200.346, 2535.848
1200.828, 2541.031
1201.310, 2543.346
1201.792, 2542.118
1202.274, 2540.400
1202.756, 2538.074
1203.239, 2536.508
1203.721, 2536.820
1204.203, 2537.271
1204.685, 2534.855
1205.167, 2531.894
1205.649, 2532.101
1206.131, 2536.748
1206.613, 2538.335
1207.095, 2536.531
1207.578, 2534.429
1208.060, 2533.447
1208.542, 2533.300
1209.024, 2534.497
1209.506, 2536.040
1209.988, 2536.187
1210.470, 2534.481
1210.952, 2533.036
1211.435, 2531.820
1211.917, 2531.373
1212.399, 2532.777
1212.881, 2534.455
1213.363, 2534.698
1213.845, 2534.062
1214.327, 2533.407
1214.809, 2532.225
1215.292, 2533.177
1215.774, 2536.503
1216.256, 2539.582
1216.738, 2539.956
1217.220, 2539.528
1217.702, 2539.940
1218.184, 2540.952
1218.666, 2542.143
1219.148, 2543.725
1219.630, 2544.533
1220.113, 2544.560
1220.595, 2543.409
1221.077, 2539.284
1221.559, 2535.289
1222.041, 2534.560
1222.523, 2536.174
1223.005, 2537.601
1223.487, 2538.826
1223.970, 2539.850
1224.452, 2540.751
1224.934, 2540.786
1225.416, 2538.585
1225.898, 2535.962
1226.380, 2534.216
1226.862, 2533.339
1227.344, 2533.201
1227.827, 2534.070
1228.309, 2533.366
1228.791, 2530.717
1229.273, 2528.419
1229.755, 2529.035
1230.237, 2530.157
1230.719, 2529.452
1231.201, 2527.815
1231.683, 2528.281
1232.166, 2531.192
1232.648, 2531.751
1233.130, 2529.275
1233.612, 2527.030
1234.094, 2528.512
1234.576, 2530.371
1235.058, 2529.584
1235.540, 2527.401
1236.022, 2527.414
1236.505, 2529.689
1236.987, 2529.816
1237.469, 2527.142
1237.951, 2524.122
1238.433, 2522.051
1238.915, 2520.955
1239.397, 2522.069
1239.879, 2523.839
1240.362, 2521.853
1240.844, 2516.547
1241.326, 2514.100
1241.808, 2515.537
1242.290, 2518.787
1242.772, 2524.290
1243.254, 2529.095
1243.736, 2531.341
1244.219, 2531.960
1244.701, 2533.061
1245.183, 2534.534
1245.665, 2536.364
1246.147, 2538.573
1246.629, 2539.409
1247.111, 2536.825
1247.593, 2533.701
1248.075, 2530.842
1248.557, 2528.724
1249.040, 2528.639
1249.522, 2530.278
1250.004, 2532.732
1250.486, 2535.979
1250.968, 2538.100
1251.450, 2538.086
1251.932, 2536.717
1252.414, 2533.566
1252.897, 2530.197
1253.379, 2530.854
1253.861, 2533.894
1254.343, 2534.616
1254.825, 2532.051
1255.307, 2530.307
1255.789, 2531.380
1256.271, 2532.331
1256.754, 2532.092
1257.236, 2531.569
1257.718, 2532.867
1258.200, 2534.963
1258.682, 2535.585
1259.164, 2534.176
1259.646, 2534.212
1260.128, 2537.199
1260.610, 2539.217
1261.093, 2539.040
1261.575, 2537.454
1262.057, 2534.566
1262.539, 2531.616
1263.021, 2530.476
1263.503, 2531.542
1263.985, 2533.497
1264.467, 2536.954
1264.949, 2538.651
1265.432, 2537.217
1265.914, 2534.942
1266.396, 2535.189
1266.878, 2535.971
1267.360, 2534.707
1267.842, 2531.104
1268.324, 2528.174
1268.806, 2525.718
1269.289, 2525.625
1269.771, 2528.865
1270.253, 2532.970
1270.735, 2536.617
1271.217, 2539.157
1271.699, 2539.599
1272.181, 2538.261
1272.663, 2535.955
1273.146, 2532.752
1273.628, 2532.135
1274.110, 2535.780
1274.592, 2538.710
1275.074, 2535.529
1275.556, 2532.038
1276.038, 2532.513
1276.520, 2535.747
1277.002, 2537.111
1277.484, 2536.843
1277.967, 2536.274
1278.449, 2535.678
1278.931, 2535.069
1279.413, 2533.937
1279.895, 2533.399
1280.377, 2534.047
1280.859, 2535.467
1281.341, 2536.639
1281.823, 2537.705
1282.306, 2539.175
1282.788, 2541.167
1283.270, 2543.214
1283.752, 2545.625
1284.234, 2547.300
1284.716, 2547.669
1285.198, 2547.431
1285.680, 2548.758
1286.163, 2550.053
1286.645, 2547.275
1287.127, 2539.193
1287.609, 2536.590
1288.091, 2542.490
1288.573, 2547.167
1289.055, 2547.556
1289.537, 2545.954
1290.020, 2544.396
1290.502, 2543.326
##END=



