##NAMES=Lazulite
##RRUFFID=R050110
##IDEAL CHEMISTRY=MgAl_2_(PO_4_)_2_(OH)_2_
##LOCALITY=Rapid Creek, Yukon Territory, Canada
##OWNER=RRUFF
##SOURCE=Rock Currier
##DESCRIPTION=Azure-blue stubby crystals with complex terminations
##STATUS=The identification of this mineral has been confirmed by X-ray diffraction and chemical analysis
##URL=rruff.info/R050110
##MEASURED CHEMISTRY=(Mg_0.84_Fe_0.16_)Al_2.00_(P_1.00_O_4_)_2_(OH)_2_
143.6380, 876.1776
144.1201, 889.5873
144.6022, 909.8250
145.0843, 945.3456
145.5664, 968.1680
146.0485, 980.0485
146.5307, 978.7261
147.0128, 972.7820
147.4949, 957.2792
147.9770, 937.2052
148.4591, 925.6829
148.9412, 931.2508
149.4234, 938.4033
149.9055, 941.1557
150.3876, 932.1182
150.8697, 927.2430
151.3518, 929.7709
151.8339, 938.5412
152.3161, 944.9241
152.7982, 943.0377
153.2803, 941.3824
153.7624, 945.8928
154.2445, 969.1386
154.7266, 987.1588
155.2087, 992.5953
155.6909, 984.1688
156.1730, 974.9756
156.6551, 967.0505
157.1372, 960.2531
157.6193, 954.3292
158.1014, 946.1012
158.5836, 941.1203
159.0657, 941.7624
159.5478, 948.5394
160.0299, 959.9125
160.5120, 981.9918
160.9941, 1008.399
161.4763, 1025.853
161.9584, 1021.092
162.4405, 1010.122
162.9226, 1003.763
163.4047, 1004.342
163.8868, 1009.824
164.3690, 1020.912
164.8511, 1036.653
165.3332, 1052.935
165.8153, 1063.248
166.2974, 1074.437
166.7795, 1093.763
167.2617, 1127.619
167.7438, 1167.425
168.2259, 1204.133
168.7080, 1237.769
169.1901, 1282.102
169.6722, 1343.111
170.1544, 1421.335
170.6365, 1517.760
171.1186, 1661.960
171.6007, 1809.853
172.0828, 1916.752
172.5649, 1977.682
173.0471, 2017.109
173.5292, 2052.885
174.0113, 2084.102
174.4934, 2107.734
174.9755, 2112.838
175.4576, 2111.366
175.9397, 2122.128
176.4219, 2148.878
176.9040, 2185.112
177.3861, 2225.450
177.8682, 2269.311
178.3503, 2315.551
178.8324, 2361.962
179.3146, 2409.784
179.7967, 2463.589
180.2788, 2522.979
180.7609, 2588.498
181.2430, 2661.672
181.7251, 2741.796
182.2073, 2826.318
182.6894, 2908.587
183.1715, 2991.752
183.6536, 3084.770
184.1357, 3186.329
184.6178, 3301.182
185.1000, 3442.759
185.5821, 3611.796
186.0642, 3810.317
186.5463, 4040.231
187.0284, 4300.443
187.5105, 4602.960
187.9927, 5002.343
188.4748, 5460.560
188.9569, 5837.851
189.4390, 6157.542
189.9211, 6323.723
190.4032, 6139.849
190.8854, 5600.034
191.3675, 4981.093
191.8496, 4381.804
192.3317, 3806.798
192.8138, 3327.258
193.2959, 2955.285
193.7781, 2670.504
194.2602, 2437.889
194.7423, 2262.514
195.2244, 2111.741
195.7065, 1966.343
196.1886, 1826.155
196.6708, 1697.846
197.1529, 1581.979
197.6350, 1478.635
198.1171, 1387.895
198.5992, 1309.469
199.0813, 1244.437
199.5634, 1196.124
200.0456, 1165.872
200.5277, 1140.131
201.0098, 1116.811
201.4919, 1095.617
201.9740, 1075.700
202.4561, 1056.532
202.9383, 1039.722
203.4204, 1026.549
203.9025, 1016.658
204.3846, 1011.946
204.8667, 1014.359
205.3488, 1023.913
205.8310, 1029.663
206.3131, 1028.428
206.7952, 1027.960
207.2773, 1041.114
207.7594, 1072.641
208.2415, 1103.140
208.7237, 1127.540
209.2058, 1146.811
209.6879, 1151.109
210.1700, 1133.035
210.6521, 1106.422
211.1342, 1099.439
211.6164, 1118.550
212.0985, 1141.893
212.5806, 1161.223
213.0627, 1176.870
213.5448, 1186.193
214.0269, 1186.370
214.5091, 1181.345
214.9912, 1181.780
215.4733, 1187.214
215.9554, 1198.842
216.4375, 1219.085
216.9196, 1251.829
217.4018, 1280.414
217.8839, 1301.567
218.3660, 1317.379
218.8481, 1338.531
219.3302, 1364.440
219.8123, 1396.280
220.2945, 1435.939
220.7766, 1487.808
221.2587, 1536.524
221.7408, 1579.241
222.2229, 1616.714
222.7050, 1656.355
223.1871, 1711.407
223.6693, 1753.302
224.1514, 1757.316
224.6335, 1713.714
225.1156, 1651.160
225.5977, 1569.257
226.0798, 1468.194
226.5620, 1367.941
227.0441, 1263.881
227.5262, 1166.317
228.0083, 1084.859
228.4904, 1021.644
228.9725, 971.9819
229.4547, 937.0392
229.9368, 918.6393
230.4189, 900.8633
230.9010, 881.4155
231.3831, 864.1135
231.8652, 854.4206
232.3474, 855.4476
232.8295, 858.7153
233.3116, 860.7095
233.7937, 858.9277
234.2758, 866.4382
234.7579, 886.5706
235.2401, 914.2131
235.7222, 940.5146
236.2043, 964.3079
236.6864, 988.5815
237.1685, 1015.257
237.6507, 1047.546
238.1328, 1072.872
238.6149, 1088.348
239.0970, 1097.851
239.5791, 1110.222
240.0612, 1126.969
240.5434, 1144.445
241.0255, 1159.889
241.5076, 1167.830
241.9897, 1187.152
242.4718, 1224.260
242.9539, 1271.766
243.4360, 1307.282
243.9182, 1324.953
244.4003, 1338.999
244.8824, 1355.989
245.3645, 1375.070
245.8466, 1398.511
246.3287, 1426.139
246.8109, 1458.182
247.2930, 1496.564
247.7751, 1544.799
248.2572, 1593.884
248.7393, 1637.105
249.2214, 1666.631
249.7036, 1706.805
250.1857, 1759.279
250.6678, 1823.594
251.1499, 1903.170
251.6320, 2011.290
252.1141, 2117.089
252.5963, 2203.820
253.0784, 2287.839
253.5605, 2315.192
254.0426, 2271.106
254.5247, 2161.645
255.0068, 2031.191
255.4890, 1864.768
255.9711, 1697.574
256.4532, 1554.438
256.9353, 1436.979
257.4174, 1338.774
257.8995, 1258.080
258.3817, 1195.332
258.8638, 1148.822
259.3459, 1123.687
259.8280, 1107.560
260.3101, 1088.697
260.7922, 1064.480
261.2744, 1044.941
261.7565, 1031.907
262.2386, 1025.196
262.7207, 1025.449
263.2028, 1033.793
263.6849, 1047.347
264.1671, 1064.712
264.6492, 1087.898
265.1313, 1108.112
265.6134, 1122.860
266.0955, 1132.275
266.5776, 1138.530
267.0598, 1139.410
267.5419, 1140.701
268.0240, 1149.161
268.5061, 1166.042
268.9882, 1185.664
269.4703, 1208.790
269.9525, 1235.225
270.4346, 1250.976
270.9167, 1251.944
271.3988, 1250.196
271.8809, 1261.750
272.3630, 1289.248
272.8452, 1316.016
273.3273, 1335.978
273.8094, 1349.327
274.2915, 1366.713
274.7736, 1388.721
275.2557, 1413.371
275.7379, 1436.606
276.2200, 1457.525
276.7021, 1483.867
277.1842, 1520.563
277.6663, 1566.449
278.1484, 1608.338
278.6305, 1645.851
279.1126, 1680.128
279.5948, 1714.157
280.0769, 1748.561
280.5590, 1773.728
281.0411, 1790.003
281.5232, 1795.972
282.0053, 1773.338
282.4875, 1717.888
282.9696, 1646.737
283.4517, 1581.724
283.9338, 1522.846
284.4159, 1461.674
284.8980, 1392.613
285.3802, 1317.265
285.8623, 1249.628
286.3444, 1189.779
286.8265, 1135.777
287.3086, 1083.308
287.7907, 1032.955
288.2729, 991.9891
288.7550, 969.8018
289.2371, 960.8319
289.7192, 941.5497
290.2013, 909.6301
290.6834, 878.1349
291.1656, 867.8406
291.6477, 875.0828
292.1298, 878.9114
292.6119, 867.9247
293.0940, 846.5405
293.5761, 823.8977
294.0583, 799.4058
294.5404, 778.9574
295.0225, 772.2289
295.5046, 776.1376
295.9867, 778.6897
296.4688, 771.9496
296.9510, 760.6537
297.4331, 754.7747
297.9152, 755.1082
298.3973, 756.2469
298.8794, 749.1190
299.3615, 737.8699
299.8437, 733.6615
300.3258, 747.6245
300.8079, 769.3920
301.2900, 784.3665
301.7721, 790.9960
302.2542, 797.2747
302.7364, 810.0189
303.2185, 827.4528
303.7006, 846.1992
304.1827, 864.3542
304.6648, 883.1307
305.1469, 904.0590
305.6291, 927.4045
306.1112, 950.5430
306.5933, 972.6533
307.0754, 993.2133
307.5575, 1010.927
308.0396, 1019.128
308.5218, 1028.365
309.0039, 1049.531
309.4860, 1084.144
309.9681, 1115.832
310.4502, 1129.528
310.9323, 1135.460
311.4145, 1147.744
311.8966, 1176.910
312.3787, 1210.277
312.8608, 1240.569
313.3429, 1267.283
313.8250, 1294.585
314.3072, 1321.537
314.7893, 1351.414
315.2714, 1388.133
315.7535, 1435.447
316.2356, 1487.627
316.7177, 1542.742
317.1999, 1600.922
317.6820, 1661.268
318.1641, 1726.759
318.6462, 1793.538
319.1283, 1856.988
319.6104, 1927.000
320.0926, 1983.075
320.5747, 2022.742
321.0568, 2046.290
321.5389, 2043.158
322.0210, 2002.656
322.5031, 1938.899
322.9852, 1864.623
323.4673, 1766.915
323.9495, 1673.519
324.4316, 1583.825
324.9137, 1497.431
325.3958, 1433.658
325.8779, 1412.145
326.3600, 1403.131
326.8422, 1385.300
327.3243, 1338.672
327.8064, 1308.900
328.2885, 1306.387
328.7706, 1329.880
329.2527, 1348.381
329.7349, 1355.887
330.2170, 1363.723
330.6991, 1380.202
331.1812, 1410.650
331.6633, 1440.028
332.1454, 1467.340
332.6276, 1492.525
333.1097, 1514.909
333.5918, 1532.854
334.0739, 1550.173
334.5560, 1570.444
335.0381, 1595.725
335.5203, 1615.725
336.0024, 1625.723
336.4845, 1630.479
336.9666, 1648.865
337.4487, 1683.763
337.9308, 1723.754
338.4130, 1760.860
338.8951, 1795.218
339.3772, 1829.990
339.8593, 1864.306
340.3414, 1900.729
340.8235, 1949.234
341.3057, 2010.927
341.7878, 2071.977
342.2699, 2119.608
342.7520, 2156.141
343.2341, 2203.261
343.7162, 2270.087
344.1984, 2334.643
344.6805, 2359.227
345.1626, 2345.146
345.6447, 2310.710
346.1268, 2262.502
346.6089, 2201.950
347.0911, 2133.498
347.5732, 2056.556
348.0553, 1976.375
348.5374, 1900.547
349.0195, 1828.471
349.5016, 1755.619
349.9838, 1675.509
350.4659, 1595.946
350.9480, 1529.249
351.4301, 1475.841
351.9122, 1432.971
352.3943, 1403.420
352.8765, 1382.355
353.3586, 1359.610
353.8407, 1321.735
354.3228, 1285.684
354.8049, 1269.007
355.2870, 1273.126
355.7692, 1282.759
356.2513, 1291.064
356.7334, 1298.224
357.2155, 1304.481
357.6976, 1308.222
358.1797, 1312.464
358.6619, 1317.874
359.1440, 1324.551
359.6261, 1335.072
360.1082, 1350.637
360.5903, 1370.443
361.0724, 1393.766
361.5546, 1423.596
362.0367, 1453.694
362.5188, 1481.073
363.0009, 1506.326
363.4830, 1535.780
363.9651, 1579.329
364.4473, 1622.039
364.9294, 1654.719
365.4115, 1659.314
365.8936, 1673.075
366.3757, 1706.055
366.8578, 1753.279
367.3399, 1789.788
367.8221, 1803.933
368.3042, 1817.861
368.7863, 1841.777
369.2684, 1879.033
369.7505, 1921.313
370.2326, 1970.350
370.7148, 2023.452
371.1969, 2072.102
371.6790, 2111.483
372.1611, 2154.206
372.6432, 2206.566
373.1253, 2270.485
373.6075, 2336.003
374.0896, 2407.190
374.5717, 2474.516
375.0538, 2521.291
375.5359, 2544.973
376.0180, 2560.612
376.5002, 2578.505
376.9823, 2597.300
377.4644, 2588.248
377.9465, 2548.708
378.4286, 2489.199
378.9107, 2421.273
379.3929, 2344.289
379.8750, 2257.368
380.3571, 2153.280
380.8392, 2040.472
381.3213, 1937.716
381.8034, 1845.549
382.2856, 1763.486
382.7677, 1695.323
383.2498, 1637.493
383.7319, 1578.857
384.2140, 1512.683
384.6961, 1448.518
385.1783, 1398.762
385.6604, 1362.428
386.1425, 1331.485
386.6246, 1296.507
387.1067, 1264.347
387.5888, 1244.363
388.0710, 1242.869
388.5531, 1246.735
389.0352, 1247.040
389.5173, 1245.171
389.9994, 1245.260
390.4815, 1250.780
390.9637, 1257.981
391.4458, 1264.226
391.9279, 1268.567
392.4100, 1273.262
392.8921, 1279.117
393.3742, 1285.820
393.8564, 1292.726
394.3385, 1292.626
394.8206, 1298.896
395.3027, 1316.458
395.7848, 1346.526
396.2669, 1384.371
396.7491, 1439.672
397.2312, 1498.674
397.7133, 1545.603
398.1954, 1569.261
398.6775, 1594.100
399.1596, 1624.608
399.6418, 1660.958
400.1239, 1697.452
400.6060, 1733.670
401.0881, 1770.618
401.5702, 1809.672
402.0523, 1851.679
402.5345, 1891.896
403.0166, 1927.459
403.4987, 1960.964
403.9808, 2004.293
404.4629, 2058.148
404.9450, 2117.767
405.4272, 2176.909
405.9093, 2235.537
406.3914, 2310.293
406.8735, 2402.269
407.3556, 2510.838
407.8377, 2630.023
408.3199, 2761.025
408.8020, 2918.632
409.2841, 3116.750
409.7662, 3349.663
410.2483, 3607.519
410.7304, 3894.421
411.2126, 4172.525
411.6946, 4452.992
412.1768, 4695.750
412.6589, 4803.524
413.1410, 4714.798
413.6231, 4478.348
414.1052, 4093.054
414.5873, 3566.193
415.0695, 3061.483
415.5516, 2684.025
416.0337, 2393.597
416.5158, 2150.942
416.9979, 1944.368
417.4800, 1777.548
417.9622, 1659.586
418.4443, 1585.844
418.9264, 1531.365
419.4085, 1495.204
419.8906, 1471.310
420.3727, 1456.839
420.8549, 1453.531
421.3370, 1455.821
421.8191, 1462.178
422.3012, 1473.516
422.7833, 1492.047
423.2654, 1523.346
423.7476, 1556.469
424.2297, 1588.929
424.7118, 1621.596
425.1939, 1651.087
425.6760, 1684.003
426.1581, 1708.082
426.6403, 1708.743
427.1224, 1684.099
427.6045, 1640.141
428.0866, 1574.201
428.5687, 1487.855
429.0508, 1404.893
429.5330, 1324.713
430.0151, 1249.199
430.4972, 1177.999
430.9793, 1111.479
431.4614, 1053.403
431.9435, 1005.811
432.4257, 966.1592
432.9078, 928.3167
433.3899, 892.5901
433.8720, 863.7834
434.3541, 848.8979
434.8362, 842.8094
435.3184, 834.9273
435.8005, 823.4733
436.2826, 812.5189
436.7647, 805.6690
437.2468, 802.4018
437.7289, 801.5611
438.2111, 804.1281
438.6932, 807.8364
439.1753, 812.0579
439.6574, 816.8651
440.1395, 818.3849
440.6216, 810.9860
441.1038, 800.7592
441.5859, 794.0659
442.0680, 794.6241
442.5501, 796.7956
443.0322, 800.5173
443.5143, 805.1483
443.9965, 806.8627
444.4786, 798.9153
444.9607, 792.4617
445.4428, 793.4589
445.9249, 808.1602
446.4070, 820.1634
446.8892, 829.9242
447.3713, 836.7835
447.8534, 838.0391
448.3355, 828.0745
448.8176, 823.3391
449.2997, 831.4032
449.7819, 853.4717
450.2640, 870.3972
450.7461, 882.0807
451.2282, 889.2242
451.7103, 889.3814
452.1924, 882.1649
452.6746, 882.7234
453.1567, 898.0488
453.6388, 921.8539
454.1209, 938.3253
454.6030, 947.6183
455.0851, 951.8543
455.5673, 945.9226
456.0494, 936.7131
456.5315, 942.3267
457.0136, 971.0065
457.4957, 1001.190
457.9778, 1010.067
458.4599, 1003.566
458.9420, 997.0217
459.4242, 996.8388
459.9063, 1000.599
460.3884, 1009.180
460.8705, 1023.628
461.3526, 1031.792
461.8347, 1021.476
462.3169, 1004.575
462.7990, 993.2493
463.2811, 998.9923
463.7632, 1001.901
464.2453, 995.7382
464.7274, 981.3665
465.2096, 968.2859
465.6917, 954.1827
466.1738, 944.1393
466.6559, 941.1991
467.1380, 950.5322
467.6201, 956.8775
468.1023, 958.6432
468.5844, 958.3313
469.0665, 960.6184
469.5486, 965.5624
470.0307, 972.7345
470.5128, 981.3293
470.9950, 991.5441
471.4771, 1009.117
471.9592, 1035.937
472.4413, 1062.156
472.9234, 1074.849
473.4055, 1076.360
473.8877, 1082.164
474.3698, 1097.428
474.8519, 1117.446
475.3340, 1137.050
475.8161, 1155.655
476.2982, 1168.844
476.7804, 1172.428
477.2625, 1169.735
477.7446, 1165.838
478.2267, 1162.782
478.7088, 1153.090
479.1909, 1131.574
479.6731, 1100.239
480.1552, 1062.285
480.6373, 1009.934
481.1194, 959.0696
481.6015, 916.4138
482.0836, 882.0621
482.5658, 851.7031
483.0479, 825.1102
483.5300, 801.9175
484.0121, 781.6819
484.4942, 764.6815
484.9763, 750.0875
485.4585, 739.6509
485.9406, 731.4971
486.4227, 719.9613
486.9048, 702.4728
487.3869, 687.2991
487.8690, 677.7264
488.3512, 673.9879
488.8333, 674.8799
489.3154, 682.1334
489.7975, 689.3909
490.2796, 687.5786
490.7617, 677.3890
491.2439, 669.3839
491.7260, 667.4914
492.2081, 668.6849
492.6902, 666.1047
493.1723, 660.3073
493.6544, 656.1186
494.1366, 658.3763
494.6187, 663.8466
495.1008, 668.8126
495.5829, 673.6093
496.0650, 674.8644
496.5471, 667.1117
497.0293, 654.6700
497.5114, 644.9207
497.9935, 641.9813
498.4756, 640.9489
498.9577, 640.1679
499.4398, 639.5430
499.9220, 638.4940
500.4041, 636.4606
500.8862, 634.2155
501.3683, 632.2579
501.8504, 629.5814
502.3325, 628.9028
502.8146, 632.3893
503.2968, 637.4208
503.7789, 636.2816
504.2610, 625.5249
504.7431, 616.9274
505.2252, 616.4495
505.7073, 624.0684
506.1895, 627.8468
506.6716, 626.6769
507.1537, 625.8911
507.6358, 633.0740
508.1179, 646.7708
508.6000, 657.6656
509.0822, 662.9257
509.5643, 664.6896
510.0464, 666.0742
510.5285, 666.9123
511.0106, 666.4088
511.4927, 661.1288
511.9749, 655.7303
512.4570, 655.8040
512.9391, 662.9338
513.4212, 670.8315
513.9033, 678.0224
514.3854, 683.4483
514.8676, 685.6742
515.3497, 680.6344
515.8318, 676.2027
516.3139, 674.0598
516.7960, 674.2871
517.2781, 677.0178
517.7603, 685.0220
518.2424, 692.8167
518.7245, 697.7706
519.2066, 699.0772
519.6887, 699.1407
520.1708, 697.1067
520.6530, 694.6703
521.1351, 694.7966
521.6172, 697.7316
522.0993, 701.3965
522.5814, 705.4528
523.0635, 709.6810
523.5457, 713.0297
524.0278, 715.5023
524.5099, 717.7579
524.9920, 720.9071
525.4741, 724.1528
525.9562, 725.3624
526.4384, 723.4113
526.9205, 721.3795
527.4026, 722.3610
527.8847, 725.3693
528.3668, 728.3311
528.8489, 727.6263
529.3311, 728.7736
529.8132, 737.9978
530.2953, 755.7200
530.7774, 765.6055
531.2595, 755.4028
531.7416, 740.4328
532.2238, 731.7117
532.7059, 738.6012
533.1880, 739.5717
533.6701, 728.2090
534.1522, 712.6225
534.6343, 713.1901
535.1165, 738.4966
535.5986, 759.0991
536.0807, 763.0328
536.5628, 751.2127
537.0449, 742.9789
537.5270, 738.5897
538.0092, 735.9169
538.4913, 734.2037
538.9734, 732.8020
539.4555, 728.4969
539.9376, 719.9417
540.4197, 709.7011
540.9019, 700.1773
541.3840, 691.3633
541.8661, 683.1121
542.3482, 673.4547
542.8303, 665.6634
543.3124, 663.1310
543.7946, 666.2764
544.2767, 669.5035
544.7588, 672.8369
545.2409, 673.9871
545.7230, 671.0805
546.2051, 661.2837
546.6873, 650.3285
547.1694, 635.6679
547.6515, 620.3942
548.1336, 612.5964
548.6157, 615.9247
549.0978, 620.5653
549.5800, 624.2446
550.0621, 627.0331
550.5442, 624.3387
551.0263, 614.7760
551.5084, 604.2828
551.9905, 597.9745
552.4727, 595.7582
552.9548, 597.1985
553.4369, 603.8108
553.9190, 610.8846
554.4011, 609.9231
554.8832, 603.1273
555.3654, 598.2131
555.8475, 599.6294
556.3296, 604.4952
556.8117, 610.6255
557.2938, 617.9189
557.7759, 625.9857
558.2581, 638.0811
558.7402, 649.0045
559.2223, 654.3143
559.7044, 644.1995
560.1865, 640.0534
560.6686, 649.5762
561.1508, 666.0573
561.6329, 675.2594
562.1150, 671.6927
562.5971, 670.1889
563.0792, 675.9884
563.5613, 688.9370
564.0435, 699.0612
564.5256, 706.0344
565.0077, 711.3327
565.4898, 715.8876
565.9719, 719.7150
566.4540, 722.6931
566.9362, 724.0514
567.4183, 726.5712
567.9004, 735.7538
568.3824, 749.3934
568.8646, 760.8385
569.3467, 766.2462
569.8288, 768.8154
570.3109, 769.6407
570.7930, 769.1373
571.2751, 771.5133
571.7573, 777.4178
572.2394, 787.6588
572.7215, 803.3322
573.2036, 829.0811
573.6857, 851.8774
574.1678, 869.6162
574.6500, 884.1711
575.1321, 897.3408
575.6142, 907.2843
576.0963, 919.9953
576.5784, 938.7242
577.0605, 961.3890
577.5427, 976.8554
578.0248, 985.0636
578.5069, 987.2077
578.9890, 983.0821
579.4711, 973.4031
579.9532, 961.2398
580.4354, 946.9434
580.9175, 929.4399
581.3996, 903.1733
581.8817, 873.4675
582.3638, 850.4919
582.8459, 843.0480
583.3281, 837.6852
583.8102, 824.5015
584.2923, 806.0817
584.7744, 791.5021
585.2565, 784.5181
585.7386, 781.3371
586.2208, 779.5983
586.7029, 777.7300
587.1850, 784.0226
587.6671, 803.8372
588.1492, 826.5683
588.6313, 842.3136
589.1135, 848.7578
589.5956, 857.0067
590.0777, 868.5240
590.5598, 882.4262
591.0419, 896.2222
591.5240, 909.8899
592.0062, 926.6986
592.4883, 950.1797
592.9704, 977.4140
593.4525, 1002.223
593.9346, 1024.763
594.4167, 1046.740
594.8989, 1064.629
595.3810, 1084.931
595.8631, 1116.310
596.3452, 1167.516
596.8273, 1213.938
597.3094, 1239.583
597.7916, 1256.128
598.2737, 1282.259
598.7558, 1326.900
599.2379, 1374.793
599.7200, 1423.863
600.2021, 1474.171
600.6843, 1525.211
601.1664, 1577.366
601.6485, 1628.444
602.1306, 1678.357
602.6127, 1727.332
603.0948, 1766.174
603.5770, 1793.004
604.0591, 1814.732
604.5412, 1840.143
605.0233, 1866.546
605.5054, 1885.143
605.9875, 1892.229
606.4697, 1892.821
606.9518, 1888.302
607.4339, 1880.831
607.9160, 1876.037
608.3981, 1867.025
608.8802, 1869.322
609.3624, 1899.013
609.8445, 1960.805
610.3266, 2002.469
610.8087, 2000.285
611.2908, 1989.589
611.7729, 1991.925
612.2551, 2015.362
612.7372, 2030.867
613.2193, 2037.708
613.7014, 2036.058
614.1835, 2021.413
614.6656, 1993.301
615.1478, 1973.544
615.6299, 1967.513
616.1120, 1974.752
616.5941, 1999.875
617.0762, 2040.247
617.5583, 2078.520
618.0405, 2103.750
618.5226, 2121.692
619.0047, 2136.717
619.4868, 2148.507
619.9689, 2163.832
620.4510, 2191.737
620.9332, 2221.393
621.4153, 2242.648
621.8974, 2259.253
622.3795, 2259.770
622.8616, 2239.261
623.3438, 2204.176
623.8259, 2167.195
624.3080, 2127.071
624.7901, 2088.575
625.2722, 2051.294
625.7543, 2016.859
626.2365, 1996.008
626.7186, 1989.359
627.2007, 1985.568
627.6828, 1976.481
628.1649, 1964.171
628.6470, 1952.760
629.1292, 1942.939
629.6113, 1933.116
630.0934, 1924.786
630.5755, 1914.852
631.0576, 1899.310
631.5397, 1863.521
632.0219, 1836.721
632.5040, 1836.689
632.9861, 1852.798
633.4682, 1852.046
633.9503, 1823.143
634.4324, 1791.938
634.9146, 1765.746
635.3967, 1744.390
635.8788, 1718.464
636.3609, 1686.002
636.8430, 1657.386
637.3251, 1644.481
637.8073, 1643.712
638.2894, 1634.570
638.7715, 1613.022
639.2536, 1591.953
639.7357, 1584.854
640.2178, 1587.622
640.7000, 1592.877
641.1821, 1600.686
641.6642, 1607.295
642.1463, 1609.969
642.6284, 1609.782
643.1105, 1609.978
643.5927, 1611.963
644.0748, 1613.852
644.5569, 1616.359
645.0390, 1619.854
645.5211, 1617.176
646.0032, 1609.266
646.4854, 1593.673
646.9675, 1568.786
647.4496, 1534.435
647.9317, 1490.204
648.4138, 1434.263
648.8959, 1376.273
649.3781, 1332.104
649.8602, 1296.489
650.3423, 1253.469
650.8244, 1191.042
651.3065, 1128.736
651.7886, 1082.230
652.2708, 1047.615
652.7529, 1013.548
653.2350, 974.6646
653.7171, 936.7321
654.1992, 901.5868
654.6813, 869.3070
655.1635, 841.0419
655.6456, 819.5170
656.1277, 798.3846
656.6098, 772.7040
657.0919, 741.0327
657.5740, 715.9319
658.0562, 698.6619
658.5382, 685.8774
659.0203, 674.9077
659.5024, 665.2718
659.9846, 655.3414
660.4667, 645.2859
660.9488, 633.7134
661.4309, 615.5124
661.9130, 594.7309
662.3951, 581.2505
662.8773, 585.0358
663.3594, 591.8591
663.8415, 597.6918
664.3236, 602.2002
664.8057, 599.9018
665.2878, 582.8931
665.7700, 568.2538
666.2521, 566.3661
666.7342, 581.3766
667.2163, 583.6088
667.6984, 569.7446
668.1805, 552.1060
668.6627, 544.8175
669.1448, 545.8577
669.6269, 544.4305
670.1090, 538.0892
670.5911, 529.3480
671.0732, 519.4136
671.5554, 509.2047
672.0375, 500.6078
672.5196, 493.8759
673.0017, 489.5987
673.4838, 490.3776
673.9659, 494.8447
674.4481, 494.7460
674.9302, 483.3913
675.4123, 473.2764
675.8944, 469.4558
676.3765, 472.7561
676.8586, 471.8777
677.3408, 465.3615
677.8229, 458.9456
678.3050, 458.5855
678.7871, 463.0505
679.2692, 465.0006
679.7513, 463.3148
680.2335, 460.0861
680.7156, 456.5620
681.1977, 453.2518
681.6798, 451.1022
682.1619, 451.8926
682.6440, 452.1602
683.1262, 449.1609
683.6083, 444.4191
684.0904, 441.9216
684.5725, 446.0649
685.0546, 448.3008
685.5367, 445.5781
686.0189, 438.5607
686.5010, 435.5063
686.9831, 437.1049
687.4652, 440.1761
687.9473, 443.9380
688.4294, 447.8229
688.9116, 447.5330
689.3937, 442.6451
689.8758, 437.9735
690.3579, 437.7114
690.8400, 440.3482
691.3221, 444.3388
691.8043, 451.1697
692.2864, 454.9625
692.7685, 450.7038
693.2506, 442.6565
693.7327, 436.9766
694.2148, 435.3965
694.6970, 435.0115
695.1791, 435.1753
695.6612, 436.3850
696.1433, 440.9944
696.6254, 449.8084
697.1075, 457.2177
697.5897, 459.9767
698.0718, 459.8319
698.5539, 462.8136
699.0360, 468.6766
699.5181, 474.0955
700.0002, 475.6018
700.4824, 475.9492
700.9645, 478.4401
701.4466, 483.9001
701.9287, 487.7875
702.4108, 487.7987
702.8929, 485.8090
703.3751, 483.1675
703.8572, 476.4728
704.3393, 475.3995
704.8214, 482.0437
705.3035, 492.2263
705.7856, 500.8599
706.2678, 508.1156
706.7499, 510.3056
707.2320, 503.4612
707.7141, 495.6862
708.1962, 504.5542
708.6783, 525.7300
709.1605, 543.1365
709.6426, 548.2472
710.1247, 547.1729
710.6068, 541.8227
711.0889, 533.1189
711.5710, 527.2262
712.0532, 526.0624
712.5353, 528.0274
713.0174, 532.7878
713.4995, 540.6977
713.9816, 548.5858
714.4637, 556.5864
714.9459, 564.0845
715.4280, 570.5477
715.9101, 575.9173
716.3922, 580.5626
716.8743, 584.2989
717.3564, 588.1868
717.8386, 591.8110
718.3207, 596.6664
718.8028, 605.7936
719.2849, 623.6733
719.7670, 640.1439
720.2491, 647.6627
720.7313, 650.7873
721.2134, 658.2090
721.6955, 672.9848
722.1776, 689.8417
722.6597, 708.5293
723.1418, 728.5081
723.6240, 747.6763
724.1061, 765.9675
724.5882, 783.7957
725.0703, 801.3892
725.5524, 818.7931
726.0345, 836.3875
726.5167, 854.1539
726.9988, 871.8343
727.4809, 886.5054
727.9630, 902.7453
728.4451, 925.6587
728.9272, 956.7095
729.4094, 987.5673
729.8915, 1017.399
730.3736, 1044.863
730.8557, 1068.754
731.3378, 1087.956
731.8199, 1106.097
732.3021, 1121.656
732.7842, 1138.855
733.2663, 1165.318
733.7484, 1200.184
734.2305, 1231.413
734.7126, 1255.484
735.1948, 1275.830
735.6769, 1298.965
736.1590, 1321.478
736.6411, 1335.428
737.1232, 1325.920
737.6053, 1319.080
738.0875, 1330.855
738.5696, 1356.050
739.0517, 1370.826
739.5338, 1370.543
740.0159, 1365.071
740.4980, 1357.061
740.9802, 1346.395
741.4623, 1332.466
741.9444, 1315.251
742.4265, 1294.652
742.9086, 1270.182
743.3907, 1242.472
743.8729, 1212.888
744.3550, 1181.401
744.8371, 1149.899
745.3192, 1120.187
745.8013, 1090.642
746.2834, 1060.054
746.7656, 1028.345
747.2477, 994.3472
747.7298, 952.1321
748.2119, 911.5500
748.6940, 883.4716
749.1761, 871.7856
749.6582, 854.8685
750.1403, 829.5817
750.6224, 800.8806
751.1046, 776.5057
751.5867, 755.1232
752.0688, 731.6893
752.5509, 699.9591
753.0330, 672.3466
753.5151, 664.5938
753.9973, 668.7570
754.4794, 667.1067
754.9615, 650.5609
755.4436, 630.9000
755.9257, 609.9351
756.4078, 588.3801
756.8900, 569.0233
757.3721, 550.2892
757.8542, 538.4142
758.3363, 539.0166
758.8184, 548.2574
759.3005, 547.5994
759.7827, 537.6291
760.2648, 528.8558
760.7469, 531.9018
761.2290, 538.2958
761.7111, 538.0061
762.1932, 530.1978
762.6754, 521.7035
763.1575, 516.0006
763.6396, 510.0016
764.1217, 500.6648
764.6038, 484.8311
765.0859, 476.4441
765.5681, 478.4918
766.0502, 482.7745
766.5323, 480.1177
767.0144, 471.3351
767.4965, 467.5121
767.9786, 470.9200
768.4608, 475.4779
768.9429, 474.0502
769.4250, 469.3671
769.9071, 465.8917
770.3892, 465.7448
770.8713, 465.7689
771.3535, 466.6436
771.8356, 466.4662
772.3177, 461.4695
772.7998, 446.6998
773.2819, 436.5748
773.7640, 434.0148
774.2462, 436.6728
774.7283, 439.7892
775.2104, 443.2994
775.6925, 445.4078
776.1746, 445.2082
776.6567, 443.3260
777.1389, 439.3139
777.6210, 434.0809
778.1031, 430.8615
778.5852, 433.2368
779.0673, 436.0637
779.5494, 436.0854
780.0316, 433.3978
780.5137, 434.3353
780.9958, 440.8123
781.4779, 447.5481
781.9600, 452.9111
782.4421, 456.7293
782.9243, 456.0035
783.4064, 450.6088
783.8885, 444.4144
784.3706, 439.6654
784.8527, 436.3998
785.3348, 435.4465
785.8170, 437.0268
786.2991, 437.6700
786.7812, 433.4048
787.2633, 429.1260
787.7454, 429.1044
788.2275, 436.4947
788.7097, 439.3857
789.1918, 435.8026
789.6739, 430.9275
790.1560, 430.4297
790.6381, 433.9068
791.1202, 435.6694
791.6024, 435.1488
792.0845, 432.3582
792.5666, 424.8385
793.0487, 415.7647
793.5308, 410.2499
794.0129, 410.6584
794.4951, 413.0530
794.9772, 418.8091
795.4593, 424.7202
795.9414, 425.9911
796.4235, 420.9154
796.9056, 414.3956
797.3878, 405.2134
797.8699, 396.9804
798.3520, 398.3941
798.8341, 408.3238
799.3162, 416.9411
799.7983, 420.9557
800.2805, 421.9731
800.7626, 421.3873
801.2447, 419.1299
801.7268, 415.0571
802.2089, 404.6167
802.6910, 397.1489
803.1732, 398.3253
803.6553, 405.0665
804.1374, 406.9679
804.6195, 401.5243
805.1016, 399.1345
805.5837, 405.2869
806.0659, 416.3508
806.5480, 420.7521
807.0301, 419.0536
807.5122, 415.6451
807.9943, 411.4173
808.4764, 407.8706
808.9586, 406.5869
809.4407, 407.4227
809.9228, 408.6055
810.4049, 410.5117
810.8870, 411.7365
811.3691, 411.6059
811.8513, 410.1270
812.3334, 408.7045
812.8155, 407.3789
813.2976, 405.8666
813.7797, 403.0335
814.2618, 399.9945
814.7440, 400.3504
815.2261, 404.0808
815.7082, 407.6738
816.1903, 409.5286
816.6724, 409.7662
817.1545, 407.9570
817.6367, 403.3299
818.1188, 400.4911
818.6009, 401.6457
819.0830, 402.3709
819.5651, 398.8578
820.0472, 390.5287
820.5294, 386.9578
821.0115, 388.8349
821.4936, 392.1723
821.9757, 394.3728
822.4578, 395.0218
822.9399, 392.2264
823.4221, 384.5539
823.9042, 380.0918
824.3863, 385.9943
824.8684, 395.1473
825.3505, 401.1222
825.8326, 403.2828
826.3148, 402.5464
826.7969, 396.9664
827.2790, 391.8001
827.7611, 393.8658
828.2432, 402.1800
828.7253, 409.5717
829.2075, 415.1494
829.6896, 418.5555
830.1717, 418.0210
830.6538, 415.6349
831.1359, 414.4267
831.6180, 418.0499
832.1002, 418.0377
832.5823, 406.6240
833.0644, 393.7884
833.5465, 391.3695
834.0286, 402.0290
834.5107, 412.5696
834.9929, 422.3279
835.4750, 429.1119
835.9571, 427.6854
836.4392, 420.5462
836.9213, 414.9819
837.4034, 413.7003
837.8855, 413.5493
838.3676, 410.0293
838.8497, 407.0125
839.3318, 410.6602
839.8140, 435.2474
840.2961, 446.7885
840.7782, 437.1121
841.2603, 417.7267
841.7424, 410.0776
842.2245, 413.9576
842.7067, 416.9783
843.1888, 415.1517
843.6709, 412.5122
844.1530, 414.7513
844.6351, 419.9056
845.1172, 424.0358
845.5994, 424.2715
846.0815, 424.7752
846.5636, 427.7846
847.0457, 431.6642
847.5278, 432.9615
848.0099, 430.9483
848.4921, 428.7564
848.9742, 427.0588
849.4563, 425.5545
849.9384, 422.3545
850.4205, 418.5260
850.9026, 418.1505
851.3848, 426.9063
851.8669, 435.1964
852.3490, 435.5337
852.8311, 430.5141
853.3132, 426.4622
853.7953, 423.3739
854.2775, 423.0561
854.7596, 426.9427
855.2417, 433.1494
855.7238, 436.4871
856.2059, 437.0238
856.6880, 437.5362
857.1702, 439.9666
857.6523, 441.7179
858.1344, 437.6014
858.6165, 430.1030
859.0986, 425.4006
859.5807, 430.9590
860.0629, 434.3044
860.5450, 427.9576
861.0271, 416.7149
861.5092, 412.8572
861.9913, 418.4639
862.4734, 423.2180
862.9556, 423.7348
863.4377, 422.1055
863.9198, 424.1940
864.4019, 428.3261
864.8840, 428.5142
865.3661, 417.7241
865.8483, 406.3220
866.3304, 400.1971
866.8125, 398.1090
867.2946, 395.7094
867.7767, 389.8933
868.2589, 388.7423
868.7410, 396.4864
869.2231, 408.1279
869.7052, 409.5943
870.1873, 401.5993
870.6694, 392.3205
871.1516, 383.5129
871.6337, 376.7407
872.1158, 375.4455
872.5979, 377.5939
873.0800, 378.2552
873.5621, 374.9679
874.0443, 371.0146
874.5264, 366.3673
875.0085, 361.8643
875.4906, 360.3632
875.9727, 362.3074
876.4548, 362.7895
876.9370, 359.3036
877.4191, 354.9491
877.9012, 355.5883
878.3833, 359.3959
878.8654, 361.6642
879.3475, 358.7175
879.8297, 355.6580
880.3118, 354.7162
880.7939, 355.0235
881.2760, 354.2734
881.7581, 351.6959
882.2402, 350.7054
882.7224, 353.2689
883.2045, 356.1482
883.6866, 349.5570
884.1687, 336.8657
884.6508, 330.9035
885.1329, 341.8406
885.6151, 354.1786
886.0972, 358.0690
886.5793, 356.3906
887.0614, 354.9150
887.5435, 354.5689
888.0256, 354.2925
888.5078, 354.5571
888.9899, 354.1715
889.4720, 349.9004
889.9541, 342.2875
890.4362, 336.1524
890.9183, 332.8517
891.4005, 331.5831
891.8826, 332.6915
892.3647, 335.0581
892.8468, 336.9058
893.3289, 334.6821
893.8110, 336.3976
894.2932, 346.4017
894.7753, 357.7847
895.2574, 357.1235
895.7395, 343.8355
896.2216, 342.2136
896.7037, 360.4088
897.1859, 380.0002
897.6680, 375.2478
898.1501, 357.2822
898.6322, 344.5547
899.1143, 344.0288
899.5964, 345.7198
900.0786, 350.8587
900.5607, 354.6589
901.0428, 350.6054
901.5249, 336.0653
902.0070, 328.8989
902.4891, 332.2024
902.9713, 338.1814
903.4534, 335.6263
903.9355, 329.3471
904.4176, 329.5840
904.8997, 340.7875
905.3818, 350.2296
905.8640, 351.0053
906.3461, 347.9002
906.8282, 344.9470
907.3103, 341.0582
907.7924, 341.8891
908.2745, 349.4432
908.7567, 355.6408
909.2388, 346.7336
909.7209, 330.8497
910.2030, 332.9975
910.6851, 357.7933
911.1672, 376.9034
911.6494, 365.6418
912.1315, 346.7411
912.6136, 338.1551
913.0957, 343.2015
913.5778, 349.3663
914.0599, 357.2595
914.5421, 364.6783
915.0242, 371.0524
915.5063, 375.6660
915.9884, 375.1542
916.4705, 369.5201
916.9526, 361.7124
917.4348, 349.9371
917.9169, 339.8174
918.3990, 336.0308
918.8811, 339.4522
919.3632, 343.3078
919.8453, 347.9853
920.3275, 351.8418
920.8096, 353.2899
921.2917, 353.2966
921.7738, 357.5935
922.2559, 365.6885
922.7380, 372.2626
923.2202, 374.5948
923.7023, 373.7419
924.1844, 368.4204
924.6665, 359.6564
925.1486, 355.0419
925.6307, 357.8369
926.1129, 360.1558
926.5950, 358.9160
927.0771, 355.9823
927.5591, 359.0272
928.0413, 367.2052
928.5234, 373.2896
929.0055, 372.2865
929.4876, 369.4036
929.9697, 368.9030
930.4518, 369.8488
930.9340, 369.9923
931.4161, 366.6640
931.8982, 365.8193
932.3803, 369.2316
932.8624, 374.6402
933.3445, 377.9787
933.8267, 379.3362
934.3088, 379.4875
934.7909, 378.1362
935.2730, 376.8705
935.7551, 378.1400
936.2372, 380.1411
936.7194, 380.3477
937.2015, 372.2730
937.6836, 371.5559
938.1657, 383.7121
938.6478, 397.5173
939.1299, 398.1268
939.6121, 386.6712
940.0942, 378.7167
940.5763, 376.4873
941.0584, 376.9590
941.5405, 379.5574
942.0226, 382.2650
942.5048, 382.4325
942.9869, 378.0693
943.4690, 376.4789
943.9511, 379.9420
944.4332, 383.8471
944.9153, 384.2298
945.3975, 381.4715
945.8796, 383.0315
946.3617, 389.0543
946.8438, 393.0688
947.3259, 387.1489
947.8080, 378.8526
948.2902, 375.5707
948.7723, 377.9611
949.2544, 378.1929
949.7365, 372.8932
950.2186, 368.9325
950.7007, 369.0744
951.1829, 372.8437
951.6650, 378.3047
952.1471, 385.2910
952.6292, 391.8849
953.1113, 398.8870
953.5934, 403.3206
954.0756, 400.3187
954.5577, 392.2954
955.0398, 388.2752
955.5219, 391.8149
956.0040, 395.9017
956.4861, 400.0814
956.9683, 403.1423
957.4504, 400.5839
957.9325, 393.6447
958.4146, 390.0049
958.8967, 393.5226
959.3788, 398.6291
959.8610, 401.2651
960.3431, 402.6967
960.8252, 404.8688
961.3073, 409.6551
961.7894, 411.9705
962.2715, 409.8775
962.7537, 408.3225
963.2358, 415.8065
963.7179, 429.4003
964.2000, 436.2325
964.6821, 433.8410
965.1642, 429.7079
965.6464, 427.0454
966.1285, 426.5284
966.6106, 429.6200
967.0927, 438.0586
967.5748, 442.2253
968.0569, 440.7172
968.5391, 438.5075
969.0212, 438.0138
969.5033, 439.5671
969.9854, 446.9986
970.4675, 459.2196
970.9496, 465.8904
971.4318, 453.8054
971.9139, 441.1839
972.3960, 440.1062
972.8781, 448.9978
973.3602, 451.9062
973.8423, 445.7025
974.3245, 445.5796
974.8066, 460.3552
975.2887, 480.2832
975.7708, 484.5398
976.2529, 478.0131
976.7350, 474.8665
977.2172, 485.0455
977.6993, 495.2020
978.1814, 500.1378
978.6635, 502.3804
979.1456, 505.7183
979.6277, 510.4635
980.1099, 514.1063
980.5920, 515.7585
981.0741, 518.2851
981.5562, 525.9923
982.0383, 536.6987
982.5204, 547.3434
983.0026, 557.9410
983.4847, 566.1019
983.9668, 568.8625
984.4489, 570.7856
984.9310, 574.5331
985.4131, 580.1272
985.8953, 586.9794
986.3774, 595.1498
986.8595, 603.4483
987.3416, 612.4650
987.8237, 620.1427
988.3058, 621.2741
988.7880, 616.8254
989.2701, 620.4424
989.7522, 639.0499
990.2343, 661.1890
990.7164, 686.0950
991.1985, 711.1116
991.6807, 725.0236
992.1628, 729.0574
992.6449, 734.0309
993.1270, 744.8596
993.6091, 757.9199
994.0912, 769.9327
994.5734, 782.1953
995.0555, 797.1650
995.5376, 815.9178
996.0197, 836.5211
996.5018, 860.5261
996.9839, 882.9628
997.4661, 893.5179
997.9482, 896.7182
998.4303, 907.7746
998.9124, 930.5305
999.3945, 952.1187
999.8766, 959.1666
1000.359, 965.5325
1000.841, 983.3534
1001.323, 1014.923
1001.805, 1040.742
1002.287, 1060.479
1002.769, 1077.025
1003.251, 1089.558
1003.734, 1101.640
1004.216, 1122.054
1004.698, 1149.083
1005.180, 1173.781
1005.662, 1189.992
1006.144, 1205.536
1006.626, 1223.245
1007.108, 1242.277
1007.591, 1259.290
1008.073, 1274.225
1008.555, 1293.959
1009.037, 1322.323
1009.519, 1352.892
1010.001, 1378.361
1010.483, 1401.354
1010.965, 1426.069
1011.447, 1449.919
1011.930, 1481.472
1012.412, 1523.834
1012.894, 1569.038
1013.376, 1611.887
1013.858, 1651.532
1014.340, 1684.019
1014.822, 1708.784
1015.304, 1728.839
1015.786, 1744.313
1016.269, 1757.365
1016.751, 1772.307
1017.233, 1788.956
1017.715, 1791.554
1018.197, 1779.251
1018.679, 1755.654
1019.161, 1719.985
1019.643, 1675.943
1020.125, 1627.722
1020.608, 1577.213
1021.090, 1529.891
1021.572, 1488.140
1022.054, 1449.711
1022.536, 1416.366
1023.018, 1384.785
1023.500, 1349.362
1023.982, 1309.735
1024.465, 1273.430
1024.947, 1241.504
1025.429, 1212.851
1025.911, 1183.460
1026.393, 1158.759
1026.875, 1145.687
1027.357, 1147.729
1027.839, 1151.068
1028.322, 1156.585
1028.804, 1159.476
1029.286, 1157.235
1029.768, 1150.053
1030.250, 1133.107
1030.732, 1109.593
1031.214, 1099.946
1031.696, 1131.251
1032.178, 1163.911
1032.661, 1174.185
1033.143, 1169.414
1033.625, 1171.521
1034.107, 1180.921
1034.589, 1194.899
1035.071, 1212.775
1035.553, 1235.570
1036.035, 1266.501
1036.517, 1303.099
1037.000, 1341.303
1037.482, 1379.469
1037.964, 1421.427
1038.446, 1471.291
1038.928, 1521.182
1039.410, 1561.552
1039.892, 1593.261
1040.374, 1646.724
1040.857, 1720.598
1041.339, 1801.865
1041.821, 1875.311
1042.303, 1956.829
1042.785, 2062.752
1043.267, 2189.436
1043.749, 2313.126
1044.231, 2428.173
1044.714, 2556.104
1045.196, 2702.424
1045.678, 2864.538
1046.160, 3040.524
1046.642, 3230.375
1047.124, 3437.206
1047.606, 3669.394
1048.088, 3900.842
1048.570, 4117.616
1049.052, 4334.525
1049.535, 4564.178
1050.017, 4807.774
1050.499, 5041.303
1050.981, 5264.331
1051.463, 5488.912
1051.945, 5712.281
1052.427, 5947.654
1052.909, 6215.117
1053.392, 6510.992
1053.874, 6785.569
1054.356, 7031.096
1054.838, 7268.187
1055.320, 7503.843
1055.802, 7728.035
1056.284, 7923.655
1056.766, 8087.951
1057.249, 8212.297
1057.731, 8297.073
1058.213, 8334.526
1058.695, 8336.495
1059.177, 8273.962
1059.659, 8121.322
1060.141, 7876.359
1060.623, 7574.745
1061.105, 7216.044
1061.588, 6820.546
1062.070, 6380.556
1062.552, 5927.771
1063.034, 5482.115
1063.516, 5046.586
1063.998, 4644.554
1064.480, 4284.203
1064.962, 3945.957
1065.444, 3622.593
1065.927, 3322.336
1066.409, 3052.848
1066.891, 2814.518
1067.373, 2607.021
1067.855, 2432.230
1068.337, 2278.525
1068.819, 2144.308
1069.301, 2025.766
1069.783, 1921.787
1070.266, 1831.524
1070.748, 1753.826
1071.230, 1687.830
1071.712, 1629.265
1072.194, 1575.972
1072.676, 1527.006
1073.158, 1479.000
1073.640, 1433.689
1074.123, 1398.836
1074.605, 1377.577
1075.087, 1360.414
1075.569, 1345.655
1076.051, 1333.007
1076.533, 1322.300
1077.015, 1313.115
1077.497, 1303.576
1077.979, 1290.017
1078.462, 1285.864
1078.944, 1308.332
1079.426, 1330.407
1079.908, 1331.809
1080.390, 1313.128
1080.872, 1314.453
1081.354, 1335.212
1081.836, 1358.009
1082.318, 1370.573
1082.801, 1382.524
1083.283, 1401.351
1083.765, 1425.547
1084.247, 1448.038
1084.729, 1465.780
1085.211, 1493.195
1085.693, 1536.234
1086.175, 1579.813
1086.658, 1598.772
1087.140, 1606.247
1087.622, 1623.548
1088.104, 1655.860
1088.586, 1692.600
1089.068, 1738.341
1089.550, 1777.870
1090.032, 1800.836
1090.515, 1810.904
1090.997, 1828.087
1091.479, 1851.144
1091.961, 1871.517
1092.443, 1882.441
1092.925, 1892.370
1093.407, 1908.259
1093.889, 1924.972
1094.371, 1932.968
1094.854, 1930.760
1095.336, 1929.374
1095.818, 1929.679
1096.300, 1933.048
1096.782, 1942.453
1097.264, 1954.674
1097.746, 1967.047
1098.228, 1979.451
1098.710, 1987.794
1099.193, 1992.905
1099.675, 1992.078
1100.157, 1986.021
1100.639, 1971.457
1101.121, 1937.116
1101.603, 1887.584
1102.085, 1836.376
1102.567, 1788.025
1103.050, 1738.785
1103.532, 1685.927
1104.014, 1632.703
1104.496, 1584.271
1104.978, 1539.637
1105.460, 1481.806
1105.942, 1409.700
1106.424, 1342.773
1106.906, 1294.303
1107.389, 1255.634
1107.871, 1222.665
1108.353, 1193.942
1108.835, 1162.080
1109.317, 1125.125
1109.799, 1094.304
1110.281, 1072.092
1110.763, 1057.396
1111.245, 1054.262
1111.728, 1055.408
1112.210, 1050.118
1112.692, 1032.850
1113.174, 1018.163
1113.656, 1004.971
1114.138, 998.3743
1114.620, 1005.006
1115.102, 1020.196
1115.585, 1030.609
1116.067, 1036.608
1116.549, 1039.824
1117.031, 1033.779
1117.513, 1034.220
1117.995, 1047.537
1118.477, 1068.045
1118.959, 1086.198
1119.442, 1102.783
1119.924, 1127.833
1120.406, 1163.620
1120.888, 1197.498
1121.370, 1212.014
1121.852, 1227.339
1122.334, 1261.710
1122.816, 1313.454
1123.298, 1360.728
1123.781, 1402.867
1124.263, 1446.568
1124.745, 1494.330
1125.227, 1545.202
1125.709, 1597.090
1126.191, 1651.479
1126.673, 1711.855
1127.155, 1785.193
1127.637, 1852.972
1128.120, 1912.869
1128.602, 1971.698
1129.084, 2035.460
1129.566, 2101.916
1130.048, 2166.216
1130.530, 2229.480
1131.012, 2297.948
1131.494, 2385.386
1131.977, 2464.602
1132.459, 2527.994
1132.941, 2580.352
1133.423, 2629.342
1133.905, 2674.500
1134.387, 2713.914
1134.869, 2749.341
1135.351, 2768.069
1135.833, 2763.860
1136.316, 2737.393
1136.798, 2689.291
1137.280, 2620.970
1137.762, 2542.371
1138.244, 2454.255
1138.726, 2361.052
1139.208, 2264.302
1139.690, 2165.512
1140.172, 2064.101
1140.655, 1963.331
1141.137, 1868.803
1141.619, 1780.715
1142.101, 1694.680
1142.583, 1610.153
1143.065, 1531.185
1143.547, 1464.582
1144.029, 1404.465
1144.512, 1344.223
1144.994, 1284.453
1145.476, 1233.621
1145.958, 1197.256
1146.440, 1159.095
1146.922, 1112.829
1147.404, 1067.793
1147.886, 1043.190
1148.369, 1030.327
1148.851, 1011.915
1149.333, 982.8723
1149.815, 955.9739
1150.297, 933.1821
1150.779, 915.0706
1151.261, 903.6402
1151.743, 896.6536
1152.225, 884.4123
1152.708, 867.8449
1153.190, 850.8364
1153.672, 835.4378
1154.154, 819.5933
1154.636, 798.5930
1155.118, 779.8051
1155.600, 773.7759
1156.082, 779.9478
1156.564, 771.8693
1157.047, 748.5651
1157.529, 729.1071
1158.011, 731.3300
1158.493, 737.6751
1158.975, 737.8478
1159.457, 732.8358
1159.939, 725.1934
1160.421, 714.4756
1160.903, 707.0697
1161.386, 704.9843
1161.868, 703.5230
1162.350, 696.2604
1162.832, 688.3246
1163.314, 686.5677
1163.796, 692.6774
1164.278, 688.5054
1164.760, 671.0519
1165.243, 657.6709
1165.725, 658.6738
1166.207, 664.8458
1166.689, 665.0645
1167.171, 660.6944
1167.653, 654.0979
1168.135, 640.8228
1168.617, 634.3434
1169.099, 635.9875
1169.582, 640.7150
1170.064, 647.0167
1170.546, 652.1158
1171.028, 649.8619
1171.510, 641.1429
1171.992, 631.1459
1172.474, 615.2421
1172.956, 608.5560
1173.438, 617.7343
1173.921, 630.2587
1174.403, 624.8943
1174.885, 608.3397
1175.367, 598.1195
1175.849, 596.9375
1176.331, 598.4142
1176.813, 601.7162
1177.295, 605.5111
1177.778, 610.6879
1178.260, 615.1718
1178.742, 611.4941
1179.224, 601.1837
1179.706, 589.4028
1180.188, 574.5282
1180.670, 566.7330
1181.152, 579.9484
1181.635, 594.1998
1182.117, 594.2933
1182.599, 581.0660
1183.081, 570.0082
1183.563, 561.0430
1184.045, 554.3460
1184.527, 552.8805
1185.009, 550.5790
1185.491, 540.6436
1185.974, 529.9536
1186.456, 530.7524
1186.938, 544.0992
1187.420, 543.8223
1187.902, 527.3698
1188.384, 512.9643
1188.866, 520.4902
1189.348, 529.6940
1189.830, 523.2499
1190.313, 505.9538
1190.795, 497.0901
1191.277, 497.2864
1191.759, 499.4632
1192.241, 502.7835
1192.723, 504.6388
1193.205, 499.8789
1193.687, 494.1649
1194.170, 494.3735
1194.652, 501.1780
1195.134, 501.6594
1195.616, 494.7333
1196.098, 489.9596
1196.580, 492.8565
1197.062, 497.1343
1197.544, 495.0971
1198.026, 489.9244
1198.509, 486.2171
1198.991, 484.6135
1199.473, 484.3875
1199.955, 485.6724
1200.437, 487.7155
1200.919, 488.6423
1201.401, 491.0510
1201.883, 500.9157
1202.365, 514.9753
1202.848, 523.4455
1203.330, 523.9271
1203.812, 521.4315
1204.294, 515.6357
1204.776, 509.6055
1205.258, 505.1570
1205.740, 503.2969
1206.222, 506.0234
1206.705, 513.1085
1207.187, 521.5716
1207.669, 533.6323
1208.151, 540.0595
1208.633, 537.4060
1209.115, 531.4936
1209.597, 531.2867
1210.079, 533.6245
1210.562, 533.3034
1211.044, 529.1157
1211.526, 524.9575
1212.008, 520.3097
1212.490, 518.2034
1212.972, 521.1577
1213.454, 525.7233
1213.936, 523.0645
1214.418, 517.3029
1214.901, 517.4918
1215.383, 533.0878
1215.865, 536.1727
1216.347, 517.3601
1216.829, 501.8198
1217.311, 513.4446
1217.793, 537.2065
1218.275, 534.5961
1218.757, 513.9373
1219.240, 500.4615
1219.722, 511.0275
1220.204, 517.4827
1220.686, 516.2066
1221.168, 512.3051
1221.650, 513.3867
1222.132, 514.8021
1222.614, 501.9312
1223.097, 476.9756
1223.579, 459.1441
1224.061, 460.1919
1224.543, 463.4806
1225.025, 468.3552
1225.507, 470.4570
1225.989, 459.5150
1226.471, 441.8693
1226.953, 431.8488
1227.436, 431.5109
1227.918, 432.4083
1228.400, 433.0061
1228.882, 433.0338
1229.364, 432.1527
1229.846, 430.9604
1230.328, 431.1701
1230.810, 431.9476
1231.292, 431.6644
1231.775, 430.2766
1232.257, 425.9906
1232.739, 415.2256
1233.221, 407.4470
1233.703, 409.3879
1234.185, 415.6282
1234.667, 409.4973
1235.149, 396.1357
1235.632, 388.9944
1236.114, 398.9858
1236.596, 402.4272
1237.078, 394.5027
1237.560, 384.1127
1238.042, 375.6045
1238.524, 370.1677
1239.006, 374.1626
1239.489, 384.3544
1239.971, 389.4123
1240.453, 381.3914
1240.935, 372.9143
1241.417, 363.9979
1241.899, 357.7359
1242.381, 357.7094
1242.863, 362.4953
1243.345, 371.4388
1243.828, 383.1859
1244.310, 389.5461
1244.792, 384.6833
1245.274, 378.2953
1245.756, 370.5224
1246.238, 364.4319
1246.720, 365.5051
1247.202, 370.9985
1247.684, 377.3690
1248.167, 384.1189
1248.649, 386.1174
1249.131, 379.4572
1249.613, 373.9646
1250.095, 372.0271
1250.577, 372.8294
1251.059, 378.4884
1251.541, 384.5904
1252.023, 382.1008
1252.506, 367.3828
1252.988, 357.9780
1253.470, 356.3206
1253.952, 357.5121
1254.434, 360.2415
1254.916, 363.6852
1255.398, 368.3034
1255.880, 372.0113
1256.363, 370.5289
1256.845, 358.9510
1257.327, 354.4136
1257.809, 359.4701
1258.291, 363.7706
1258.773, 359.9453
1259.255, 353.2130
1259.737, 351.2275
1260.219, 352.2485
1260.702, 352.7863
1261.184, 350.6822
1261.666, 352.2677
1262.148, 358.3842
1262.630, 364.1178
1263.112, 365.0022
1263.594, 364.0835
1264.076, 365.6924
1264.558, 368.2612
1265.041, 367.0318
1265.523, 360.1521
1266.005, 355.5838
1266.487, 353.9814
1266.969, 354.1977
1267.451, 355.7681
1267.933, 358.2723
1268.415, 362.0683
1268.898, 366.4267
1269.380, 368.8591
1269.862, 369.2582
1270.344, 367.7752
1270.826, 364.1247
1271.308, 361.1220
1271.790, 363.3019
1272.272, 365.5239
1272.755, 361.8060
1273.237, 354.4040
1273.719, 353.8000
1274.201, 360.1475
1274.683, 362.6036
1275.165, 358.4219
1275.647, 351.9425
1276.129, 344.2269
1276.611, 337.6682
1277.094, 333.4726
1277.576, 331.8680
1278.058, 336.9159
1278.540, 347.4369
1279.022, 351.2185
1279.504, 342.0067
1279.986, 334.5653
1280.468, 340.8219
1280.950, 348.6831
1281.433, 349.5602
1281.915, 345.2614
1282.397, 345.6218
1282.879, 349.9372
1283.361, 355.4461
1283.843, 363.7946
1284.325, 367.4006
1284.807, 360.0398
1285.290, 350.8181
1285.772, 344.3176
1286.254, 340.6424
1286.736, 340.3077
1287.218, 343.1767
1287.700, 348.8806
1288.182, 363.6186
1288.664, 370.5469
1289.146, 365.5181
1289.629, 357.1707
1290.111, 350.7729
1290.593, 347.0020
1291.075, 350.1064
1291.557, 357.4906
1292.039, 360.8309
1292.521, 353.5898
1293.003, 348.3853
1293.485, 346.1621
1293.968, 344.4237
1294.450, 340.4316
1294.932, 336.0985
##END=



