##NAMES=Lazulite
##RRUFFID=R050269
##IDEAL CHEMISTRY=MgAl_2_(PO_4_)_2_(OH)_2_
##LOCALITY=Horsjoberg, Varmland, Sweden
##OWNER=RRUFF
##SOURCE=Marcus Origlieri
##DESCRIPTION=Deep-blue indistinct crystals
##STATUS=The identification of this mineral has been confirmed by X-ray diffraction and chemical analysis
##URL=rruff.info/R050269
##MEASURED CHEMISTRY=(Mg_0.69_Fe_0.25_Mn_0.01_)Al_2.00_(P_1.00_O_4_)_2_(OH)_2_
92.67285, 56.53548
93.15497, 56.35497
93.63708, 56.55251
94.11920, 57.96243
94.60132, 59.80751
95.08344, 62.03048
95.56555, 63.56807
96.04767, 64.65733
96.52979, 65.77041
97.01190, 66.71588
97.49402, 67.22919
97.97614, 67.49472
98.45825, 67.28741
98.94037, 66.68806
99.42249, 65.56139
99.90460, 63.70237
100.3867, 61.13946
100.8688, 58.17649
101.3510, 55.18955
101.8331, 52.00023
102.3152, 49.10226
102.7973, 46.90171
103.2794, 45.40031
103.7615, 44.11758
104.2437, 42.84327
104.7258, 41.67898
105.2079, 40.76931
105.6900, 40.18884
106.1721, 39.81309
106.6542, 39.37867
107.1364, 38.84597
107.6185, 38.28669
108.1006, 37.59834
108.5827, 36.91657
109.0648, 36.43744
109.5469, 36.31301
110.0291, 36.53114
110.5112, 36.62260
110.9933, 36.49817
111.4754, 36.33616
111.9575, 36.15077
112.4396, 35.96516
112.9218, 35.81342
113.4039, 35.72495
113.8860, 35.70425
114.3681, 35.77339
114.8502, 36.06489
115.3323, 36.35386
115.8144, 36.44903
116.2966, 36.31319
116.7787, 36.07537
117.2608, 35.84526
117.7429, 35.60101
118.2250, 35.55772
118.7071, 36.00249
119.1893, 36.67768
119.6714, 36.99298
120.1535, 36.65936
120.6356, 36.11518
121.1177, 35.84878
121.5998, 35.85938
122.0820, 35.95605
122.5641, 35.99941
123.0462, 35.98455
123.5283, 36.00663
124.0104, 36.16555
124.4925, 36.32249
124.9747, 36.41740
125.4568, 36.43474
125.9389, 36.35297
126.4210, 36.09732
126.9031, 35.49135
127.3852, 35.08345
127.8674, 35.04597
128.3495, 35.14460
128.8316, 35.15302
129.3137, 34.96798
129.7958, 34.67306
130.2780, 34.57253
130.7601, 35.01834
131.2422, 35.28563
131.7243, 35.22878
132.2064, 34.94699
132.6885, 34.58305
133.1707, 34.21262
133.6528, 33.84507
134.1349, 33.57999
134.6170, 33.41825
135.0991, 33.33063
135.5812, 33.32565
136.0633, 33.39367
136.5455, 33.49505
137.0276, 33.63043
137.5097, 33.77567
137.9918, 33.82456
138.4739, 33.64405
138.9560, 33.42867
139.4382, 33.43062
139.9203, 33.71215
140.4024, 33.97324
140.8845, 33.94060
141.3666, 33.72571
141.8487, 33.51350
142.3309, 33.37962
142.8130, 33.30893
143.2951, 33.24514
143.7772, 33.15786
144.2593, 33.12831
144.7414, 33.26591
145.2236, 33.49555
145.7057, 33.63663
146.1878, 33.50886
146.6699, 33.09069
147.1520, 32.76999
147.6341, 32.57380
148.1163, 32.46107
148.5984, 32.48543
149.0805, 32.60663
149.5626, 32.70670
150.0447, 32.64754
150.5268, 32.36351
151.0090, 32.10828
151.4911, 31.82144
151.9732, 31.59838
152.4553, 31.51919
152.9374, 31.58950
153.4195, 31.73700
153.9017, 31.86175
154.3838, 31.97245
154.8659, 32.02700
155.3480, 31.91157
155.8301, 31.78779
156.3122, 31.90193
156.7944, 32.35562
157.2765, 32.86580
157.7586, 32.83082
158.2407, 32.12187
158.7228, 31.52617
159.2049, 31.28910
159.6871, 31.32239
160.1692, 31.44872
160.6513, 31.65324
161.1334, 31.86869
161.6155, 31.98565
162.0976, 31.98714
162.5798, 31.99009
163.0619, 32.05763
163.5440, 32.18856
164.0261, 32.37629
164.5082, 32.66520
164.9903, 32.98083
165.4725, 33.24002
165.9546, 33.42088
166.4367, 33.62436
166.9188, 33.93471
167.4009, 34.33343
167.8830, 34.93122
168.3652, 35.98455
168.8473, 37.11129
169.3294, 38.02645
169.8115, 38.63805
170.2936, 39.10004
170.7757, 39.72897
171.2579, 40.69307
171.7400, 41.51226
172.2221, 42.12103
172.7042, 42.58881
173.1863, 42.95920
173.6684, 43.25172
174.1506, 43.49450
174.6327, 43.77314
175.1148, 44.14192
175.5969, 44.48910
176.0790, 44.65942
176.5611, 44.83898
177.0433, 45.28412
177.5254, 46.13844
178.0075, 47.32580
178.4896, 48.48973
178.9717, 49.61821
179.4538, 50.73722
179.9360, 51.83057
180.4181, 52.91535
180.9002, 54.00658
181.3823, 55.08514
181.8644, 56.19764
182.3465, 57.52029
182.8287, 59.08741
183.3108, 60.78620
183.7929, 62.39290
184.2750, 64.00146
184.7571, 66.14298
185.2392, 69.27242
185.7214, 73.16981
186.2035, 76.94730
186.6856, 80.30156
187.1677, 83.80495
187.6498, 88.25732
188.1319, 93.73348
188.6141, 98.68796
189.0962, 102.9262
189.5783, 105.8238
190.0604, 106.3597
190.5425, 103.8481
191.0246, 99.37369
191.5068, 94.15565
191.9889, 87.99165
192.4710, 81.74337
192.9531, 75.39518
193.4352, 69.32774
193.9173, 63.99239
194.3995, 59.61062
194.8816, 56.00216
195.3637, 52.69543
195.8458, 49.60602
196.3279, 47.07221
196.8100, 45.43147
197.2922, 44.19851
197.7743, 42.74342
198.2564, 40.66620
198.7385, 38.28705
199.2206, 36.87563
199.7027, 37.36769
200.1849, 37.68425
200.6670, 37.33331
201.1491, 36.60232
201.6312, 35.87987
202.1133, 35.39694
202.5954, 35.10344
203.0776, 34.69927
203.5597, 33.80451
204.0418, 33.21004
204.5239, 33.29454
205.0060, 33.73477
205.4881, 34.01068
205.9703, 33.79173
206.4524, 33.14407
206.9345, 32.64085
207.4166, 32.28618
207.8987, 32.04876
208.3808, 32.00726
208.8630, 32.08376
209.3451, 32.10862
209.8272, 31.96129
210.3093, 31.68067
210.7914, 31.56309
211.2735, 31.73545
211.7557, 31.90482
212.2378, 31.93506
212.7199, 31.86068
213.2020, 31.80392
213.6841, 31.84574
214.1662, 31.96001
214.6484, 32.01920
215.1305, 31.99492
215.6126, 31.94918
216.0947, 31.87463
216.5768, 31.78688
217.0589, 31.78108
217.5410, 31.88977
218.0232, 32.14527
218.5053, 32.57739
218.9874, 33.37837
219.4695, 34.12733
219.9516, 34.45963
220.4337, 34.38200
220.9159, 34.21091
221.3980, 34.02168
221.8801, 33.86367
222.3622, 33.82834
222.8443, 33.99324
223.3264, 34.16139
223.8086, 34.11976
224.2907, 33.85361
224.7728, 33.52687
225.2549, 33.16327
225.7370, 32.78936
226.2191, 32.41250
226.7013, 32.02200
227.1834, 31.67911
227.6655, 31.47639
228.1476, 31.43962
228.6297, 31.43397
229.1118, 31.47115
229.5940, 31.49450
230.0761, 31.41494
230.5582, 31.19927
231.0403, 31.00934
231.5224, 31.12791
232.0045, 31.68308
232.4867, 32.16771
232.9688, 32.50364
233.4509, 32.73704
233.9330, 32.86653
234.4151, 32.89737
234.8972, 32.89779
235.3794, 32.99299
235.8615, 33.26684
236.3436, 33.43933
236.8257, 33.44146
237.3078, 33.38006
237.7899, 33.26155
238.2721, 33.11171
238.7542, 33.05803
239.2363, 33.35478
239.7184, 34.33345
240.2005, 35.00270
240.6826, 35.14451
241.1648, 35.15389
241.6469, 35.26526
242.1290, 35.54994
242.6111, 35.98444
243.0932, 36.54113
243.5753, 37.29942
244.0575, 38.03102
244.5396, 38.77174
245.0217, 39.46434
245.5038, 39.99947
245.9859, 40.38880
246.4680, 40.80039
246.9502, 41.45447
247.4323, 42.36329
247.9144, 43.56199
248.3965, 45.32487
248.8786, 47.16128
249.3607, 48.72079
249.8429, 49.94912
250.3250, 51.02197
250.8071, 52.17943
251.2892, 53.54171
251.7713, 54.40909
252.2534, 54.83849
252.7356, 54.76113
253.2177, 54.05727
253.6998, 52.74180
254.1819, 50.97969
254.6640, 48.82658
255.1461, 46.18778
255.6283, 44.00512
256.1104, 42.40508
256.5925, 41.16804
257.0746, 40.18647
257.5567, 39.43431
258.0388, 38.83287
258.5210, 38.30438
259.0031, 37.87279
259.4852, 37.65035
259.9673, 37.76355
260.4494, 37.98990
260.9315, 38.14354
261.4137, 38.22787
261.8958, 38.41953
262.3779, 38.95140
262.8600, 39.70981
263.3421, 40.05696
263.8242, 39.36908
264.3064, 38.74378
264.7885, 39.12323
265.2706, 40.42762
265.7527, 41.76600
266.2348, 42.62532
266.7169, 43.11067
267.1991, 43.61346
267.6812, 44.10496
268.1633, 44.65528
268.6454, 45.28175
269.1275, 45.99142
269.6096, 46.88298
270.0918, 48.09640
270.5739, 49.46538
271.0560, 50.66190
271.5381, 51.60099
272.0202, 52.55702
272.5023, 53.75907
272.9845, 55.17730
273.4666, 56.54664
273.9487, 57.70636
274.4308, 58.85477
274.9129, 60.25531
275.3951, 61.93864
275.8772, 63.67228
276.3593, 65.40108
276.8414, 67.08961
277.3235, 68.50822
277.8056, 69.57421
278.2878, 70.33947
278.7699, 70.94161
279.2520, 71.38239
279.7341, 71.55287
280.2162, 71.44434
280.6983, 71.02854
281.1805, 70.13716
281.6626, 68.61523
282.1447, 66.76082
282.6268, 64.83501
283.1089, 62.82869
283.5910, 60.69338
284.0732, 58.30843
284.5553, 55.76109
285.0374, 53.33600
285.5195, 51.02915
286.0016, 48.90629
286.4837, 46.97511
286.9659, 45.22637
287.4480, 43.65466
287.9301, 42.27153
288.4122, 41.05805
288.8943, 39.99366
289.3764, 39.12592
289.8586, 38.30227
290.3407, 37.39921
290.8228, 36.49712
291.3049, 35.69831
291.7870, 35.05145
292.2691, 34.52842
292.7513, 34.09176
293.2334, 33.78363
293.7155, 33.44932
294.1976, 32.93576
294.6797, 32.41506
295.1618, 32.05406
295.6440, 31.91718
296.1261, 31.90805
296.6082, 31.83750
297.0903, 31.62437
297.5724, 31.69601
298.0545, 32.72032
298.5367, 33.72924
299.0188, 33.95163
299.5009, 33.25222
299.9830, 32.28849
300.4651, 31.75586
300.9472, 31.69308
301.4294, 31.74491
301.9115, 31.88141
302.3936, 32.11836
302.8757, 32.55290
303.3578, 33.14526
303.8399, 33.66965
304.3221, 33.86193
304.8042, 33.71376
305.2863, 33.73117
305.7684, 34.06596
306.2505, 34.43324
306.7326, 34.61505
307.2148, 34.70868
307.6969, 34.98475
308.1790, 35.72186
308.6611, 36.81869
309.1432, 37.62040
309.6253, 37.89322
310.1075, 38.19225
310.5896, 38.76242
311.0717, 39.47802
311.5538, 40.15433
312.0359, 40.69487
312.5180, 41.13474
313.0002, 41.53931
313.4823, 41.78965
313.9644, 42.26574
314.4465, 43.14967
314.9286, 44.24612
315.4107, 45.41304
315.8929, 46.61792
316.3750, 47.77268
316.8571, 48.72870
317.3392, 49.45750
317.8213, 50.10228
318.3034, 50.77821
318.7856, 51.32341
319.2677, 51.62170
319.7498, 51.65582
320.2319, 51.48360
320.7140, 51.19737
321.1961, 50.82080
321.6783, 50.13115
322.1604, 48.77263
322.6425, 47.36949
323.1246, 46.26496
323.6067, 45.41354
324.0888, 44.52484
324.5710, 43.25788
325.0531, 41.66703
325.5352, 40.50030
326.0173, 40.04244
326.4994, 39.68454
326.9815, 39.12656
327.4637, 38.48577
327.9458, 37.99790
328.4279, 37.83789
328.9100, 37.88586
329.3921, 37.75216
329.8742, 37.31789
330.3564, 36.94625
330.8385, 36.76549
331.3206, 36.69525
331.8027, 36.65759
332.2848, 36.62633
332.7669, 36.61292
333.2491, 36.65773
333.7312, 36.79603
334.2133, 36.85360
334.6954, 36.68090
335.1775, 36.48104
335.6596, 36.38384
336.1418, 36.40865
336.6239, 36.49525
337.1060, 36.60335
337.5881, 36.73409
338.0702, 36.83413
338.5523, 36.89921
339.0345, 36.92627
339.5165, 36.84883
339.9987, 36.71524
340.4808, 36.69355
340.9629, 37.01913
341.4450, 37.58447
341.9271, 37.80117
342.4092, 37.48644
342.8914, 37.13296
343.3735, 36.97683
343.8556, 36.94542
344.3377, 36.93309
344.8198, 36.89900
345.3019, 36.85674
345.7841, 36.86296
346.2662, 36.96233
346.7483, 36.93449
347.2304, 36.51940
347.7125, 36.01336
348.1946, 35.65470
348.6768, 35.49038
349.1589, 35.48359
349.6410, 35.66233
350.1231, 36.02369
350.6052, 36.31664
351.0873, 36.50969
351.5695, 36.57707
352.0516, 36.43884
352.5337, 36.11753
353.0158, 35.87852
353.4979, 35.93032
353.9800, 36.20152
354.4622, 36.44644
354.9443, 36.63108
355.4264, 36.81865
355.9085, 37.06025
356.3906, 37.33953
356.8727, 37.62680
357.3549, 37.97734
357.8370, 38.29256
358.3191, 38.37921
358.8012, 38.20498
359.2833, 38.08082
359.7654, 38.19773
360.2476, 38.45464
360.7297, 38.68314
361.2118, 38.83651
361.6939, 39.02362
362.1760, 39.36757
362.6581, 39.83573
363.1403, 40.23756
363.6224, 40.49403
364.1045, 40.68552
364.5866, 40.89436
365.0687, 41.11103
365.5508, 41.42529
366.0330, 41.93415
366.5151, 42.54757
366.9972, 43.08643
367.4793, 43.50177
367.9614, 43.95555
368.4435, 44.61810
368.9257, 45.46297
369.4078, 46.34026
369.8899, 47.28291
370.3720, 48.20739
370.8541, 48.99324
371.3362, 49.66517
371.8184, 50.43649
372.3005, 51.52208
372.7826, 52.74570
373.2647, 53.51632
373.7468, 53.58376
374.2289, 53.65091
374.7111, 54.11830
375.1932, 54.76548
375.6753, 55.14182
376.1574, 55.07771
376.6395, 54.79642
377.1216, 54.71038
377.6038, 55.00998
378.0859, 54.75774
378.5680, 53.55371
379.0501, 51.94677
379.5322, 50.31811
380.0143, 48.75368
380.4965, 47.36541
380.9786, 46.28169
381.4607, 45.51067
381.9428, 44.66571
382.4249, 43.73566
382.9070, 42.75479
383.3892, 41.60923
383.8713, 40.42967
384.3534, 39.50018
384.8355, 38.97753
385.3176, 38.77024
385.7997, 38.61512
386.2819, 38.69414
386.7640, 38.59233
387.2461, 38.03422
387.7282, 37.43551
388.2103, 37.19167
388.6924, 37.38677
389.1746, 37.82384
389.6567, 38.25363
390.1388, 38.61467
390.6209, 39.23721
391.1030, 40.13296
391.5851, 41.22753
392.0673, 42.50154
392.5494, 43.95100
393.0315, 45.58712
393.5136, 47.42369
393.9957, 49.44944
394.4778, 51.58749
394.9600, 54.25992
395.4421, 56.46975
395.9242, 58.01111
396.4063, 59.07505
396.8884, 59.73799
397.3705, 60.05374
397.8527, 60.32295
398.3348, 60.98881
398.8169, 62.10128
399.2990, 63.44985
399.7811, 65.03596
400.2632, 66.86201
400.7454, 68.91709
401.2275, 71.21133
401.7096, 73.79308
402.1917, 76.68620
402.6738, 79.88156
403.1559, 83.37558
403.6381, 87.15759
404.1202, 91.27026
404.6023, 95.52162
405.0844, 100.1267
405.5665, 105.3026
406.0486, 111.0308
406.5308, 117.6560
407.0129, 125.7226
407.4950, 135.2866
407.9771, 145.7439
408.4592, 157.1949
408.9413, 169.4975
409.4235, 182.7499
409.9056, 196.9154
410.3877, 210.6934
410.8698, 225.2126
411.3519, 238.7438
411.8340, 247.4410
412.3162, 251.3421
412.7983, 249.3357
413.2804, 238.5033
413.7625, 221.0999
414.2446, 201.6292
414.7267, 178.7385
415.2089, 156.2560
415.6910, 137.0168
416.1731, 120.9099
416.6552, 107.4544
417.1373, 96.67661
417.6194, 88.20222
418.1016, 81.54546
418.5837, 76.68613
419.0658, 72.88887
419.5479, 70.24781
420.0300, 68.42301
420.5121, 67.13479
420.9943, 66.31423
421.4764, 65.72569
421.9585, 65.16225
422.4406, 64.63171
422.9227, 64.27799
423.4048, 64.33456
423.8870, 64.31285
424.3691, 64.10188
424.8512, 63.64459
425.3333, 62.82647
425.8154, 61.58587
426.2975, 60.03178
426.7797, 58.39207
427.2618, 56.84163
427.7439, 54.91619
428.2260, 52.24868
428.7081, 49.48684
429.1902, 47.06150
429.6724, 45.03394
430.1545, 43.23397
430.6366, 41.50787
431.1187, 39.86172
431.6008, 38.31214
432.0829, 36.67831
432.5651, 35.34594
433.0472, 34.59180
433.5293, 34.12786
434.0114, 33.52566
434.4935, 32.59880
434.9756, 31.58537
435.4578, 30.95660
435.9399, 30.83905
436.4220, 30.70185
436.9041, 30.48705
437.3862, 30.22518
437.8683, 29.89270
438.3505, 29.51348
438.8326, 29.17966
439.3147, 29.00339
439.7968, 28.93332
440.2789, 28.70293
440.7610, 28.18290
441.2432, 27.80573
441.7253, 28.00353
442.2074, 28.39163
442.6895, 28.46316
443.1716, 28.00774
443.6537, 27.47828
444.1359, 27.29380
444.6180, 27.41297
445.1001, 27.58464
445.5822, 27.79495
446.0643, 27.95830
446.5464, 27.92266
447.0286, 27.71390
447.5107, 27.58884
447.9928, 27.68665
448.4749, 27.85865
448.9570, 27.94091
449.4391, 27.93339
449.9213, 27.93210
450.4034, 27.99516
450.8855, 28.10748
451.3676, 28.21227
451.8497, 28.34342
452.3318, 28.41880
452.8140, 28.35877
453.2961, 28.25595
453.7782, 28.20462
454.2603, 28.23332
454.7424, 28.38053
455.2245, 28.72971
455.7067, 29.36692
456.1888, 29.68142
456.6709, 29.44218
457.1530, 29.17954
457.6351, 29.09347
458.1172, 29.14478
458.5994, 29.24236
459.0815, 29.34250
459.5636, 29.42569
460.0457, 29.44913
460.5278, 29.43770
461.0099, 29.30701
461.4921, 28.99071
461.9742, 28.61712
462.4563, 28.20340
462.9384, 27.79326
463.4205, 27.50524
463.9026, 27.46419
464.3848, 27.63736
464.8669, 27.81607
465.3490, 28.02256
465.8311, 28.19038
466.3132, 28.21424
466.7953, 28.22093
467.2775, 28.36285
467.7596, 28.68621
468.2417, 29.10679
468.7238, 29.52260
469.2059, 29.95248
469.6880, 30.54242
470.1702, 31.40539
470.6523, 32.27623
471.1344, 32.80548
471.6165, 33.09273
472.0986, 33.55761
472.5807, 34.50634
473.0629, 35.53274
473.5450, 36.28465
474.0271, 36.77486
474.5092, 37.11073
474.9913, 37.31392
475.4734, 37.43309
475.9556, 37.60804
476.4377, 37.99051
476.9198, 38.05783
477.4019, 37.59792
477.8840, 36.86871
478.3661, 36.06358
478.8483, 35.22493
479.3304, 34.38698
479.8125, 33.57798
480.2946, 32.79439
480.7767, 31.89073
481.2589, 30.70445
481.7410, 29.59567
482.2231, 28.58627
482.7052, 27.69962
483.1873, 27.00682
483.6694, 26.50577
484.1516, 26.04120
484.6337, 25.34554
485.1158, 24.32044
485.5979, 23.64427
486.0800, 23.70631
486.5621, 23.70861
487.0443, 23.26942
487.5264, 22.56605
488.0085, 21.91915
488.4906, 21.44995
488.9727, 21.16488
489.4548, 21.13423
489.9370, 21.37640
490.4191, 21.57913
490.9012, 21.62276
491.3833, 21.63725
491.8654, 21.78360
492.3475, 22.04655
492.8297, 22.23326
493.3118, 22.27672
493.7939, 22.19166
494.2760, 21.92783
494.7581, 21.49643
495.2402, 21.15639
495.7224, 21.07270
496.2045, 21.16546
496.6866, 21.18548
497.1687, 21.06939
497.6508, 21.01917
498.1329, 21.17019
498.6151, 21.36228
499.0972, 21.39072
499.5793, 21.24124
500.0614, 21.07321
500.5435, 21.02487
501.0256, 21.09535
501.5078, 21.25260
501.9899, 21.56630
502.4720, 21.88394
502.9541, 22.23503
503.4362, 22.54870
503.9183, 22.73518
504.4004, 22.77213
504.8825, 22.71638
505.3647, 22.61983
505.8468, 22.46994
506.3289, 22.37377
506.8110, 22.33532
507.2931, 22.35298
507.7752, 22.44932
508.2574, 22.59218
508.7395, 22.72198
509.2216, 22.80720
509.7037, 22.89304
510.1858, 23.07447
510.6679, 23.34117
511.1501, 23.48755
511.6322, 23.40689
512.1143, 23.27141
512.5964, 23.29454
513.0786, 23.44972
513.5607, 23.53305
514.0428, 23.42398
514.5249, 23.27308
515.0070, 23.21509
515.4891, 23.23784
515.9713, 23.27531
516.4534, 23.30295
516.9355, 23.31086
517.4176, 23.27829
517.8997, 23.20869
518.3818, 23.08550
518.8640, 22.81393
519.3461, 22.56222
519.8282, 22.42769
520.3103, 22.42296
520.7924, 22.57034
521.2745, 22.91571
521.7567, 23.35873
522.2388, 23.43541
522.7209, 22.83091
523.2030, 22.43988
523.6851, 22.55118
524.1672, 22.76631
524.6494, 22.75201
525.1315, 22.51136
525.6136, 22.33302
526.0957, 22.50284
526.5778, 22.91317
527.0599, 23.18826
527.5421, 23.32971
528.0242, 23.31672
528.5063, 22.98706
528.9884, 22.57202
529.4705, 22.39295
529.9526, 22.51612
530.4348, 22.67948
530.9169, 22.76435
531.3990, 22.79428
531.8811, 22.82023
532.3632, 22.84844
532.8453, 22.80733
533.3275, 22.60934
533.8096, 22.29035
534.2917, 22.14269
534.7738, 22.29847
535.2559, 22.42710
535.7380, 22.48832
536.2202, 22.46774
536.7023, 22.32664
537.1844, 22.07125
537.6665, 21.76998
538.1486, 21.48934
538.6307, 21.22952
539.1129, 21.01586
539.5950, 20.88516
540.0771, 20.75625
540.5592, 20.63618
541.0413, 20.49629
541.5234, 20.25538
542.0056, 19.89953
542.4877, 19.62825
542.9698, 19.75953
543.4519, 20.21297
543.9340, 20.36890
544.4161, 20.09433
544.8983, 19.73567
545.3804, 19.48894
545.8625, 19.31944
546.3446, 19.16506
546.8267, 19.00892
547.3088, 18.88443
547.7910, 18.82518
548.2731, 18.80830
548.7552, 18.78090
549.2373, 18.73129
549.7194, 18.70713
550.2015, 18.77161
550.6837, 18.92931
551.1658, 18.97847
551.6479, 18.80992
552.1300, 18.68133
552.6121, 18.66475
553.0942, 18.72667
553.5764, 18.86131
554.0585, 19.04968
554.5406, 19.18685
555.0227, 19.11405
555.5048, 18.80988
555.9869, 18.64380
556.4691, 18.72060
556.9512, 18.79293
557.4333, 18.79958
557.9154, 18.74084
558.3975, 18.59000
558.8796, 18.32611
559.3618, 18.08660
559.8439, 17.98053
560.3260, 18.00091
560.8081, 18.17930
561.2902, 18.57932
561.7723, 18.87779
562.2545, 18.75374
562.7366, 18.31128
563.2187, 18.08203
563.7008, 18.23060
564.1829, 18.38982
564.6650, 18.39778
565.1472, 18.34238
565.6293, 18.36455
566.1114, 18.48479
566.5935, 18.58618
567.0756, 18.54572
567.5577, 18.36411
568.0399, 18.22104
568.5220, 18.14163
569.0041, 18.07320
569.4862, 18.03209
569.9683, 17.98410
570.4504, 17.86885
570.9326, 17.68589
571.4147, 17.53823
571.8968, 17.56479
572.3789, 17.72920
572.8610, 17.79542
573.3431, 17.75225
573.8253, 17.63773
574.3074, 17.37310
574.7895, 17.09238
575.2716, 17.00733
575.7537, 17.17940
576.2358, 17.34933
576.7180, 17.42161
577.2001, 17.40424
577.6822, 17.25427
578.1643, 16.98822
578.6464, 16.80449
579.1285, 16.87023
579.6107, 17.09780
580.0928, 17.10535
580.5749, 16.61061
581.0570, 16.26949
581.5391, 16.12777
582.0212, 16.12922
582.5034, 16.31536
582.9855, 16.61963
583.4676, 16.84206
583.9497, 16.82391
584.4318, 16.63869
584.9139, 16.52481
585.3961, 16.49145
585.8782, 16.49741
586.3602, 16.55718
586.8423, 16.63365
587.3245, 16.68515
587.8066, 16.71756
588.2887, 16.78855
588.7708, 16.97254
589.2529, 17.17522
589.7350, 17.25302
590.2172, 17.23292
590.6993, 17.28416
591.1814, 17.48218
591.6635, 17.75832
592.1456, 18.01922
592.6277, 18.29964
593.1099, 18.41847
593.5920, 18.11284
594.0741, 17.91236
594.5562, 18.16557
595.0383, 18.70136
595.5204, 19.21699
596.0026, 19.58044
596.4847, 19.80502
596.9668, 19.85815
597.4489, 19.69047
597.9310, 19.71042
598.4131, 20.03896
598.8953, 20.41936
599.3774, 20.67843
599.8595, 20.91055
600.3416, 21.30551
600.8237, 21.97625
601.3058, 22.62220
601.7880, 22.99154
602.2701, 23.16274
602.7522, 23.30144
603.2343, 23.43035
603.7164, 23.62022
604.1985, 23.94384
604.6807, 24.38117
605.1628, 24.76707
605.6449, 25.04720
606.1270, 25.35627
606.6091, 25.70552
607.0912, 26.10092
607.5734, 26.54863
608.0555, 27.04502
608.5376, 27.59712
609.0197, 28.24615
609.5018, 28.91726
609.9839, 29.27266
610.4661, 29.19861
610.9482, 29.13655
611.4303, 29.16853
611.9124, 29.27937
612.3945, 29.51333
612.8766, 29.84460
613.3588, 30.08553
613.8409, 30.12125
614.3230, 30.05060
614.8051, 29.93543
615.2872, 29.79827
615.7693, 29.74038
616.2515, 29.80447
616.7336, 29.93970
617.2157, 30.09263
617.6978, 30.29813
618.1799, 30.34499
618.6620, 30.03611
619.1442, 29.80236
619.6263, 29.89804
620.1084, 30.13738
620.5905, 30.20885
621.0726, 30.02752
621.5547, 29.84417
622.0369, 30.04038
622.5190, 30.58921
623.0011, 30.83607
623.4832, 30.65717
623.9653, 30.44169
624.4474, 30.28750
624.9296, 30.25307
625.4117, 30.45929
625.8938, 30.96645
626.3759, 31.46715
626.8580, 31.82403
627.3401, 32.10216
627.8223, 32.34918
628.3044, 32.58476
628.7865, 32.86127
629.2686, 33.20396
629.7507, 33.62144
630.2328, 34.14263
630.7150, 34.89296
631.1971, 35.50008
631.6792, 35.87874
632.1613, 36.21443
632.6434, 36.61474
633.1255, 37.04182
633.6077, 37.39407
634.0898, 37.61540
634.5719, 37.81034
635.0540, 38.08270
635.5361, 38.43930
636.0182, 38.97152
636.5004, 39.76357
636.9825, 40.51824
637.4646, 41.01364
637.9467, 41.29213
638.4288, 41.54774
638.9109, 41.75792
639.3931, 41.98639
639.8752, 42.19769
640.3573, 42.47222
640.8394, 42.93572
641.3215, 43.56877
641.8036, 44.24230
642.2858, 44.88921
642.7679, 45.44189
643.2500, 45.62886
643.7321, 45.31495
644.2142, 44.97893
644.6964, 44.67935
645.1785, 44.37983
645.6606, 44.21466
646.1427, 44.04378
646.6248, 43.43544
647.1069, 42.01739
647.5891, 40.41762
648.0712, 39.28360
648.5533, 38.46528
649.0354, 37.44680
649.5175, 36.09152
649.9996, 34.76418
650.4818, 33.84304
650.9639, 33.28994
651.4460, 32.40285
651.9281, 30.83537
652.4102, 29.40987
652.8923, 28.26524
653.3745, 27.29972
653.8566, 26.49352
654.3387, 25.79327
654.8208, 25.06151
655.3029, 24.16515
655.7850, 23.21646
656.2672, 22.48670
656.7493, 21.99102
657.2314, 21.56106
657.7135, 21.17121
658.1956, 20.81066
658.6777, 20.48243
659.1599, 20.17825
659.6420, 19.84162
660.1241, 19.40387
660.6062, 19.00124
661.0883, 18.70655
661.5704, 18.48638
662.0526, 18.33409
662.5347, 18.22566
663.0168, 18.03699
663.4989, 17.62522
663.9810, 17.03489
664.4631, 16.62622
664.9453, 16.45268
665.4274, 16.34861
665.9095, 16.39032
666.3916, 16.40207
666.8737, 16.19841
667.3558, 15.82363
667.8380, 15.55013
668.3201, 15.58958
668.8022, 15.69692
669.2843, 15.61415
669.7664, 15.39396
670.2485, 15.21406
670.7307, 15.12708
671.2128, 15.00597
671.6949, 14.68260
672.1770, 14.16090
672.6591, 13.88869
673.1412, 14.11194
673.6234, 14.28160
674.1055, 14.34729
674.5876, 14.31552
675.0697, 14.14951
675.5518, 13.88046
676.0339, 13.63437
676.5161, 13.50102
676.9982, 13.43613
677.4803, 13.35414
677.9624, 13.25816
678.4445, 13.20898
678.9266, 13.23062
679.4088, 13.28576
679.8909, 13.36016
680.3730, 13.44983
680.8551, 13.43142
681.3372, 13.21385
681.8193, 13.00347
682.3015, 12.81455
682.7836, 12.69054
683.2657, 12.72935
683.7478, 12.90244
684.2299, 13.02516
684.7120, 12.93361
685.1942, 12.71557
685.6763, 12.63031
686.1584, 12.69048
686.6405, 12.81028
687.1226, 13.05767
687.6047, 13.24300
688.0869, 13.11299
688.5690, 12.75372
689.0511, 12.51704
689.5332, 12.47971
690.0153, 12.54955
690.4974, 12.84021
690.9796, 13.13682
691.4617, 13.08880
691.9438, 12.69296
692.4259, 12.28691
692.9080, 12.12730
693.3901, 12.17237
693.8723, 12.29195
694.3544, 12.54714
694.8365, 12.68296
695.3186, 12.53437
695.8007, 12.38716
696.2828, 12.43385
696.7650, 12.62698
697.2471, 12.83662
697.7292, 13.09596
698.2113, 13.24721
698.6934, 13.07378
699.1755, 12.76894
699.6577, 12.67278
700.1398, 12.81435
700.6219, 12.97236
701.1040, 12.98234
701.5861, 12.90678
702.0682, 12.98417
702.5504, 13.39098
703.0325, 13.54865
703.5146, 13.06912
703.9967, 12.67294
704.4788, 12.82282
704.9609, 13.27867
705.4431, 13.52757
705.9252, 13.37560
706.4073, 13.12261
706.8894, 12.93724
707.3715, 12.82998
707.8536, 12.84718
708.3358, 12.98215
708.8179, 13.12575
709.3000, 13.21886
709.7821, 13.26144
710.2642, 13.23894
710.7463, 13.05073
711.2285, 13.03352
711.7106, 13.43936
712.1927, 13.73771
712.6748, 13.62517
713.1569, 13.29720
713.6390, 13.04313
714.1212, 12.94251
714.6033, 12.93144
715.0854, 13.00880
715.5675, 13.12305
716.0496, 13.15824
716.5317, 13.11577
717.0139, 13.08265
717.4960, 13.09394
717.9781, 13.15687
718.4602, 13.31040
718.9423, 13.63715
719.4244, 13.70930
719.9066, 13.23443
720.3887, 12.86725
720.8708, 12.86472
721.3529, 13.04434
721.8350, 13.23369
722.3171, 13.38163
722.7993, 13.43129
723.2814, 13.29531
723.7635, 13.05376
724.2456, 12.78721
724.7277, 12.51844
725.2098, 12.49342
725.6920, 12.83686
726.1741, 13.24321
726.6562, 13.33528
727.1383, 13.09330
727.6204, 13.02589
728.1025, 13.40586
728.5847, 13.60053
729.0668, 13.27016
729.5489, 12.88123
730.0310, 12.92005
730.5131, 13.32838
730.9952, 13.62797
731.4774, 13.49655
731.9595, 13.19973
732.4416, 13.09019
732.9237, 13.14176
733.4058, 13.25774
733.8879, 13.42958
734.3701, 13.55148
734.8522, 13.52148
735.3343, 13.37503
735.8164, 13.29638
736.2985, 13.29863
736.7806, 13.35507
737.2628, 13.57301
737.7449, 13.74403
738.2270, 13.68923
738.7091, 13.49561
739.1912, 13.37461
739.6733, 13.41921
740.1555, 13.47647
740.6376, 13.38630
741.1197, 13.18998
741.6018, 12.95940
742.0839, 12.70570
742.5660, 12.56593
743.0482, 12.63018
743.5303, 12.81571
744.0124, 12.97130
744.4945, 13.13581
744.9766, 13.14093
745.4587, 12.83471
745.9409, 12.55650
746.4230, 12.40069
746.9051, 12.34529
747.3872, 12.38258
747.8693, 12.50179
748.3514, 12.61111
748.8336, 12.64465
749.3157, 12.63225
749.7978, 12.59153
750.2799, 12.53860
750.7620, 12.58852
751.2441, 12.79116
751.7263, 12.93507
752.2084, 12.76982
752.6905, 12.30581
753.1726, 11.93182
753.6547, 11.60744
754.1368, 11.44325
754.6190, 11.68687
755.1011, 11.88592
755.5832, 11.55766
756.0653, 10.88689
756.5474, 10.55409
757.0295, 10.95379
757.5117, 11.51715
757.9938, 11.75062
758.4759, 11.79070
758.9580, 11.93140
759.4401, 12.19057
759.9222, 12.33614
760.4044, 12.19801
760.8865, 11.92281
761.3686, 11.90272
761.8507, 12.27715
762.3328, 12.47831
762.8149, 12.37830
763.2971, 12.25470
763.7792, 12.19726
764.2613, 12.19263
764.7434, 12.22531
765.2255, 12.29422
765.7076, 12.38555
766.1898, 12.58473
766.6719, 12.72816
767.1540, 12.56817
767.6361, 12.23077
768.1182, 12.06206
768.6003, 12.16351
769.0825, 12.33691
769.5646, 12.35445
770.0467, 12.24436
770.5288, 12.27403
771.0109, 12.51999
771.4930, 12.66105
771.9752, 12.55369
772.4573, 12.38734
772.9394, 12.27646
773.4215, 12.23610
773.9036, 12.34392
774.3857, 12.82329
774.8679, 13.15052
775.3500, 12.99562
775.8321, 12.67195
776.3142, 12.47863
776.7963, 12.43098
777.2784, 12.42739
777.7606, 12.41416
778.2427, 12.41067
778.7248, 12.43872
779.2069, 12.50004
779.6890, 12.68172
780.1711, 13.07264
780.6533, 13.18996
781.1354, 12.59898
781.6175, 11.78583
782.0996, 11.66869
782.5817, 12.43328
783.0638, 12.98635
783.5460, 13.27489
784.0281, 13.35092
784.5102, 13.06339
784.9923, 12.67237
785.4744, 12.49785
785.9565, 12.56848
786.4387, 12.65361
786.9208, 12.53277
787.4029, 12.40581
787.8850, 12.70469
788.3671, 13.31874
788.8492, 13.65207
789.3314, 13.56949
789.8135, 13.37406
790.2956, 13.29938
790.7777, 13.30815
791.2598, 13.24217
791.7419, 13.03098
792.2241, 12.87918
792.7062, 12.77398
793.1883, 12.74385
793.6704, 12.89376
794.1525, 13.09502
794.6346, 13.12308
795.1168, 12.91601
795.5989, 12.70311
796.0810, 12.63103
796.5631, 12.61417
797.0452, 12.51991
797.5273, 12.39698
798.0095, 12.43733
798.4916, 12.69253
798.9737, 12.93473
799.4558, 12.88087
799.9379, 12.59654
800.4200, 12.62203
800.9022, 13.08394
801.3843, 13.40032
801.8664, 13.38284
802.3485, 13.26645
802.8306, 13.27271
803.3127, 13.34117
803.7949, 13.26110
804.2770, 12.85593
804.7591, 12.58152
805.2412, 12.61140
805.7233, 12.78658
806.2054, 13.05439
806.6876, 13.34594
807.1697, 13.54555
807.6518, 13.60694
808.1339, 13.61204
808.6160, 13.68282
809.0981, 13.77093
809.5803, 13.65390
810.0624, 13.32876
810.5445, 13.15755
811.0266, 13.31249
811.5087, 13.52045
811.9908, 13.43317
812.4730, 13.04599
812.9551, 12.82416
813.4372, 12.92416
813.9193, 12.97052
814.4014, 12.83684
814.8835, 12.71240
815.3657, 12.76783
815.8478, 12.94209
816.3299, 13.04039
816.8120, 12.97698
817.2941, 12.89847
817.7762, 12.86423
818.2584, 12.89990
818.7405, 13.12089
819.2226, 13.45583
819.7047, 13.61279
820.1868, 13.46622
820.6689, 13.23801
821.1511, 13.25125
821.6332, 13.48875
822.1153, 13.61869
822.5974, 13.63383
823.0795, 13.55062
823.5616, 13.26751
824.0438, 13.02571
824.5259, 13.15215
825.0080, 13.59600
825.4901, 13.83259
825.9722, 13.65821
826.4543, 13.52888
826.9365, 13.53142
827.4186, 13.62228
827.9007, 13.85874
828.3828, 14.14078
828.8649, 14.23017
829.3470, 14.02023
829.8292, 13.77785
830.3113, 13.80781
830.7934, 13.97673
831.2755, 13.96819
831.7576, 13.80520
832.2397, 13.74191
832.7219, 13.87571
833.2040, 14.10983
833.6861, 14.34462
834.1682, 14.57466
834.6503, 14.67447
835.1324, 14.55093
835.6146, 14.51163
836.0967, 14.66496
836.5788, 14.86572
837.0609, 15.02297
837.5430, 15.14694
838.0251, 15.27593
838.5073, 15.45420
838.9894, 15.54684
839.4715, 15.44378
839.9536, 15.29652
840.4357, 15.19075
840.9178, 15.14597
841.4000, 15.18033
841.8821, 15.29764
842.3642, 15.47365
842.8463, 15.74970
843.3284, 16.03766
843.8105, 16.07221
844.2927, 15.88544
844.7748, 15.79766
845.2569, 15.90113
845.7390, 16.00790
846.2211, 15.92752
846.7032, 15.73541
847.1854, 15.81311
847.6675, 16.43971
848.1496, 16.71838
848.6317, 16.28205
849.1138, 15.85884
849.5959, 15.80600
850.0781, 15.94054
850.5602, 15.98032
851.0423, 15.88028
851.5244, 15.82355
852.0065, 15.88715
852.4886, 16.00029
852.9708, 16.19891
853.4529, 16.37645
853.9350, 16.30459
854.4171, 16.00924
854.8992, 15.83656
855.3813, 16.07865
855.8635, 16.44893
856.3456, 16.40170
856.8277, 16.01588
857.3098, 15.74132
857.7919, 15.63739
858.2740, 15.55517
858.7562, 15.40544
859.2383, 15.25138
859.7204, 15.21588
860.2025, 15.32450
860.6846, 15.41191
861.1667, 15.55838
861.6489, 15.55982
862.1310, 15.24779
862.6131, 14.86637
863.0952, 14.60711
863.5773, 14.46348
864.0594, 14.34899
864.5416, 14.28792
865.0237, 14.18110
865.5058, 13.89578
865.9879, 13.61528
866.4700, 13.57761
866.9521, 13.69210
867.4343, 13.67070
867.9164, 13.40467
868.3985, 13.13258
868.8806, 13.16772
869.3627, 13.37408
869.8448, 13.37202
870.3270, 13.18775
870.8091, 13.09387
871.2912, 13.17366
871.7733, 13.27716
872.2554, 13.26605
872.7375, 13.16338
873.2197, 13.09450
873.7018, 13.12080
874.1839, 12.99319
874.6660, 12.52068
875.1481, 12.12656
875.6302, 12.14030
876.1124, 12.31819
876.5945, 12.30429
877.0766, 12.06013
877.5587, 11.80584
878.0408, 11.53732
878.5229, 11.32279
879.0051, 11.18155
879.4872, 11.11714
879.9693, 11.15219
880.4514, 11.26900
880.9335, 11.42265
881.4156, 11.62807
881.8978, 11.74070
882.3799, 11.49238
882.8620, 11.07596
883.3441, 10.93534
883.8262, 11.05181
884.3083, 11.08029
884.7905, 10.86898
885.2726, 10.62443
885.7547, 10.63734
886.2368, 10.87103
886.7189, 10.97359
887.2010, 10.93645
887.6832, 10.78526
888.1653, 10.45234
888.6474, 10.15264
889.1295, 10.06317
889.6116, 10.14336
890.0938, 10.24410
890.5759, 10.41322
891.0580, 10.50466
891.5401, 10.44557
892.0222, 10.38676
892.5043, 10.44175
892.9865, 10.50574
893.4686, 10.42148
893.9507, 10.18632
894.4328, 9.984067
894.9149, 9.949436
895.3970, 9.917450
895.8792, 9.673347
896.3613, 9.414527
896.8434, 9.487222
897.3255, 9.827598
897.8076, 10.08146
898.2897, 10.07618
898.7719, 9.909563
899.2540, 9.611017
899.7361, 9.259021
900.2182, 9.193033
900.7003, 9.403913
901.1824, 9.600171
901.6646, 9.693986
902.1467, 9.749148
902.6288, 9.828088
903.1109, 9.920014
903.5930, 9.958055
904.0751, 9.891672
904.5573, 9.932281
905.0394, 10.23463
905.5215, 10.43413
906.0036, 10.27440
906.4857, 9.938115
906.9678, 9.675676
907.4500, 9.486926
907.9321, 9.418150
908.4142, 9.627215
908.8963, 9.764613
909.3784, 9.625448
909.8605, 9.427322
910.3427, 9.402654
910.8248, 9.502328
911.3069, 9.496898
911.7890, 9.266866
912.2711, 9.075538
912.7532, 9.201161
913.2354, 9.418122
913.7175, 9.435253
914.1996, 9.303574
914.6817, 9.177461
915.1638, 9.109793
915.6459, 9.117232
916.1280, 9.234844
916.6101, 9.401078
917.0922, 9.461741
917.5743, 9.427059
918.0565, 9.371022
918.5386, 9.295827
919.0207, 9.340286
919.5028, 9.619163
919.9849, 9.938482
920.4670, 9.958706
920.9492, 9.657471
921.4313, 9.307187
921.9134, 8.754572
922.3955, 8.501501
922.8776, 8.892609
923.3597, 9.366358
923.8419, 9.425952
924.3240, 9.205338
924.8061, 9.118795
925.2882, 9.284324
925.7703, 9.341267
926.2524, 9.093349
926.7346, 8.887512
927.2167, 8.934548
927.6988, 9.101964
928.1809, 9.234449
928.6630, 9.307283
929.1451, 9.361425
929.6273, 9.437731
930.1094, 9.466762
930.5915, 9.349410
931.0736, 9.186961
931.5557, 9.112548
932.0378, 9.115149
932.5200, 9.116453
933.0021, 9.086710
933.4842, 9.070372
933.9663, 9.132661
934.4484, 9.232519
934.9305, 9.253643
935.4127, 9.216265
935.8948, 9.265431
936.3769, 9.425836
936.8590, 9.468292
937.3411, 9.209394
937.8232, 8.838702
938.3054, 8.810296
938.7875, 9.176083
939.2696, 9.345749
939.7517, 9.272036
940.2338, 9.170012
940.7159, 9.105365
941.1981, 9.043961
941.6802, 8.930449
942.1623, 8.783375
942.6444, 8.753800
943.1265, 8.979872
943.6086, 9.093761
944.0908, 8.981230
944.5729, 8.881794
945.0550, 8.881177
945.5371, 8.958479
946.0192, 9.124190
946.5013, 9.371671
946.9835, 9.514141
947.4656, 9.459057
947.9477, 9.349502
948.4298, 9.199193
948.9119, 9.055652
949.3940, 8.941842
949.8762, 8.873260
950.3583, 8.882772
950.8404, 8.982502
951.3225, 9.099878
951.8046, 9.225272
952.2867, 9.305182
952.7689, 9.199544
953.2510, 9.031724
953.7331, 9.106935
954.2152, 9.412154
954.6973, 9.574178
955.1794, 9.346155
955.6616, 9.062164
956.1437, 9.345226
956.6258, 9.969744
957.1079, 10.05972
957.5900, 9.644516
958.0721, 9.349614
958.5543, 9.368714
959.0364, 9.561782
959.5185, 9.835599
960.0006, 10.11715
960.4827, 10.12336
960.9648, 9.816432
961.4470, 9.551508
961.9291, 9.320901
962.4112, 9.272472
962.8933, 9.544003
963.3754, 9.909326
963.8575, 10.08112
964.3397, 10.06229
964.8218, 9.976317
965.3039, 9.698302
965.7860, 9.585066
966.2681, 9.813842
966.7502, 10.05345
967.2324, 10.16086
967.7145, 10.15854
968.1966, 10.04545
968.6787, 9.799266
969.1608, 9.667041
969.6429, 9.697748
970.1251, 9.825836
970.6072, 10.15836
971.0893, 10.46876
971.5714, 10.57649
972.0535, 10.51055
972.5356, 10.32225
973.0178, 9.985103
973.4999, 9.846861
973.9820, 10.29712
974.4641, 10.78305
974.9462, 10.83661
975.4283, 10.68767
975.9105, 10.69034
976.3926, 10.84620
976.8747, 10.91547
977.3568, 10.76566
977.8389, 10.57525
978.3210, 10.49341
978.8032, 10.49733
979.2853, 10.57998
979.7674, 10.71414
980.2495, 10.79592
980.7316, 10.82284
981.2137, 10.99398
981.6959, 11.50529
982.1780, 12.06279
982.6601, 12.03270
983.1422, 11.57919
983.6243, 11.42426
984.1064, 11.58722
984.5886, 11.66941
985.0707, 11.52092
985.5528, 11.39808
986.0349, 11.57974
986.5170, 11.97160
986.9991, 12.22084
987.4813, 12.32036
987.9634, 12.36843
988.4455, 12.35170
988.9276, 12.40967
989.4097, 12.63096
989.8918, 12.90085
990.3740, 13.07441
990.8561, 13.15403
991.3382, 13.17143
991.8203, 13.05688
992.3024, 13.06782
992.7845, 13.24574
993.2667, 13.54090
993.7488, 14.03734
994.2309, 14.55643
994.7130, 14.75087
995.1951, 14.56056
995.6772, 14.59341
996.1594, 15.03394
996.6415, 15.43170
997.1236, 15.76587
997.6057, 16.00475
998.0878, 16.03042
998.5699, 15.98304
999.0521, 16.12877
999.5342, 16.51427
1000.016, 16.90139
1000.498, 17.32272
1000.981, 17.63752
1001.463, 17.68940
1001.945, 17.70652
1002.427, 17.85504
1002.909, 18.13357
1003.391, 18.52848
1003.873, 19.05429
1004.355, 19.51416
1004.837, 19.86279
1005.320, 20.07267
1005.802, 19.97335
1006.284, 19.83157
1006.766, 20.01625
1007.248, 20.45721
1007.730, 20.80336
1008.212, 20.91070
1008.694, 21.00744
1009.177, 21.17819
1009.659, 21.49860
1010.141, 22.24859
1010.623, 23.11867
1011.105, 23.48328
1011.587, 23.36703
1012.069, 23.32265
1012.551, 23.64519
1013.033, 24.05102
1013.516, 24.17823
1013.998, 24.21793
1014.480, 24.58364
1014.962, 25.13535
1015.444, 25.46207
1015.926, 25.48429
1016.408, 25.32916
1016.890, 25.07087
1017.372, 24.73549
1017.855, 24.25148
1018.337, 23.74213
1018.819, 23.72684
1019.301, 24.10732
1019.783, 24.18693
1020.265, 23.80563
1020.747, 23.37647
1021.229, 23.21813
1021.712, 23.17736
1022.194, 22.91750
1022.676, 22.47742
1023.158, 22.21030
1023.640, 22.12375
1024.122, 22.00518
1024.604, 21.78233
1025.086, 21.68094
1025.568, 21.91142
1026.051, 22.34209
1026.533, 22.64272
1027.015, 22.81083
1027.497, 22.85379
1027.979, 22.72767
1028.461, 22.78284
1028.943, 23.13526
1029.425, 23.69275
1029.908, 24.42258
1030.390, 25.22557
1030.872, 25.72170
1031.354, 25.80251
1031.836, 26.12125
1032.318, 26.73657
1032.800, 27.42693
1033.282, 28.13463
1033.765, 28.85518
1034.247, 29.54067
1034.729, 30.25097
1035.211, 31.23941
1035.693, 32.63485
1036.175, 33.89368
1036.657, 34.83684
1037.139, 36.01249
1037.621, 37.69614
1038.104, 39.52699
1038.586, 41.06529
1039.068, 42.47427
1039.550, 44.51028
1040.032, 47.49506
1040.514, 50.29145
1040.996, 52.70796
1041.478, 55.21532
1041.960, 58.02305
1042.443, 60.94468
1042.925, 63.65638
1043.407, 66.30988
1043.889, 69.59449
1044.371, 73.73262
1044.853, 77.99918
1045.335, 82.57796
1045.817, 87.05531
1046.300, 91.20940
1046.782, 95.29713
1047.264, 99.28996
1047.746, 103.3807
1048.228, 108.2841
1048.710, 114.4182
1049.192, 120.3579
1049.674, 125.6746
1050.156, 131.0970
1050.639, 137.1197
1051.121, 143.1810
1051.603, 148.7294
1052.085, 153.8952
1052.567, 159.1978
1053.049, 164.9612
1053.531, 170.0452
1054.013, 174.2883
1054.495, 177.8121
1054.978, 180.9478
1055.460, 183.1620
1055.942, 184.0994
1056.424, 183.6801
1056.906, 181.7286
1057.388, 178.1002
1057.870, 173.4808
1058.352, 167.8719
1058.835, 161.5409
1059.317, 154.4226
1059.799, 146.8135
1060.281, 138.7356
1060.763, 130.4122
1061.245, 122.1878
1061.727, 114.1611
1062.209, 106.4248
1062.692, 98.94482
1063.174, 91.90308
1063.656, 85.28801
1064.138, 79.22861
1064.620, 74.00105
1065.102, 69.40552
1065.584, 64.98078
1066.066, 60.57690
1066.548, 56.61728
1067.031, 53.29123
1067.513, 50.40358
1067.995, 47.95189
1068.477, 45.81567
1068.959, 44.01540
1069.441, 42.42375
1069.923, 40.76472
1070.405, 38.98830
1070.887, 37.42598
1071.370, 36.35136
1071.852, 35.36694
1072.334, 34.19006
1072.816, 33.11050
1073.298, 32.47990
1073.780, 32.10637
1074.262, 31.62991
1074.744, 30.98750
1075.227, 30.33698
1075.709, 29.65490
1076.191, 29.11311
1076.673, 28.89153
1077.155, 28.74931
1077.637, 28.38871
1078.119, 28.01785
1078.601, 28.06970
1079.083, 28.54351
1079.566, 28.88708
1080.048, 28.83597
1080.530, 28.70654
1081.012, 28.55580
1081.494, 28.48098
1081.976, 28.68463
1082.458, 28.93841
1082.940, 28.82052
1083.422, 28.38713
1083.905, 28.19438
1084.387, 28.46521
1084.869, 28.92833
1085.351, 29.69227
1085.833, 30.35005
1086.315, 30.43824
1086.797, 30.38318
1087.279, 30.72268
1087.761, 31.43834
1088.244, 32.20860
1088.726, 32.95925
1089.208, 33.64491
1089.690, 34.17232
1090.172, 34.71933
1090.654, 35.48014
1091.136, 36.24645
1091.618, 36.69677
1092.101, 36.97419
1092.583, 37.54951
1093.065, 38.57734
1093.547, 39.55437
1094.029, 40.34761
1094.511, 40.96500
1094.993, 41.10732
1095.475, 41.33377
1095.958, 42.33921
1096.440, 43.74780
1096.922, 44.80987
1097.404, 45.37699
1097.886, 45.55682
1098.368, 45.08656
1098.850, 44.64013
1099.332, 44.64977
1099.814, 44.58210
1100.297, 44.09159
1100.779, 43.23724
1101.261, 42.02364
1101.743, 40.49699
1102.225, 39.22115
1102.707, 38.63980
1103.189, 37.84776
1103.671, 36.41102
1104.153, 34.92824
1104.636, 33.74115
1105.118, 32.70055
1105.600, 31.57767
1106.082, 30.40433
1106.564, 29.43731
1107.046, 28.77306
1107.528, 28.20169
1108.010, 27.84746
1108.493, 27.37930
1108.975, 26.46736
1109.457, 25.54263
1109.939, 25.05335
1110.421, 24.88880
1110.903, 24.62658
1111.385, 24.16652
1111.867, 23.84613
1112.349, 23.70281
1112.832, 23.69021
1113.314, 23.86615
1113.796, 24.10019
1114.278, 24.36445
1114.760, 24.60293
1115.242, 24.68389
1115.724, 24.57851
1116.206, 24.52616
1116.688, 24.39547
1117.171, 24.53593
1117.653, 25.18859
1118.135, 25.84570
1118.617, 26.16619
1119.099, 26.43026
1119.581, 27.04568
1120.063, 27.98363
1120.545, 28.78566
1121.028, 29.37590
1121.510, 29.99616
1121.992, 30.59730
1122.474, 31.35115
1122.956, 32.41041
1123.438, 33.50300
1123.920, 34.34829
1124.402, 35.02977
1124.885, 35.86661
1125.367, 36.90995
1125.849, 37.90662
1126.331, 38.82629
1126.813, 39.77769
1127.295, 40.72753
1127.777, 41.90945
1128.259, 43.54542
1128.741, 45.39849
1129.224, 47.00794
1129.706, 48.36993
1130.188, 49.75659
1130.670, 51.18465
1131.152, 52.45707
1131.634, 53.51405
1132.116, 54.74924
1132.598, 56.45343
1133.080, 57.91903
1133.563, 58.22805
1134.045, 57.62396
1134.527, 57.10514
1135.009, 56.64592
1135.491, 55.75425
1135.973, 54.40171
1136.455, 52.97589
1136.937, 51.60837
1137.420, 50.02417
1137.902, 47.97542
1138.384, 45.67555
1138.866, 43.52485
1139.348, 41.48205
1139.830, 39.28147
1140.312, 37.01513
1140.794, 35.22618
1141.276, 33.97453
1141.759, 32.78587
1142.241, 31.40326
1142.723, 29.95031
1143.205, 28.50394
1143.687, 27.15109
1144.169, 26.06947
1144.651, 25.21099
1145.133, 24.50437
1145.615, 23.90578
1146.098, 23.35199
1146.580, 22.81096
1147.062, 22.22810
1147.544, 21.50185
1148.026, 20.84523
1148.508, 20.61212
1148.990, 20.47632
1149.472, 19.96622
1149.955, 19.24430
1150.437, 18.62067
1150.919, 18.16670
1151.401, 17.86526
1151.883, 17.72579
1152.365, 17.65418
1152.847, 17.70051
1153.329, 17.67047
1153.812, 17.29242
1154.294, 16.86243
1154.776, 16.78978
1155.258, 16.92373
1155.740, 16.79540
1156.222, 16.29873
1156.704, 15.97304
1157.186, 16.23491
1157.668, 16.36834
1158.151, 15.91493
1158.633, 15.49472
1159.115, 15.67609
1159.597, 16.01520
1160.079, 15.80521
1160.561, 15.11930
1161.043, 14.78805
1161.525, 15.13932
1162.007, 15.33288
1162.490, 15.33614
1162.972, 15.14357
1163.454, 14.52121
1163.936, 13.96605
1164.418, 13.89891
1164.900, 14.13032
1165.382, 14.25583
1165.864, 14.27108
1166.347, 14.22306
1166.829, 14.11064
1167.311, 13.92157
1167.793, 13.59603
1168.275, 13.38243
1168.757, 13.45851
1169.239, 13.53101
1169.721, 13.23864
1170.203, 12.67926
1170.686, 12.24006
1171.168, 11.91843
1171.650, 11.78533
1172.132, 11.84775
1172.614, 11.91764
1173.096, 11.94561
1173.578, 11.94886
1174.060, 11.94414
1174.542, 11.88118
1175.025, 11.63838
1175.507, 11.28953
1175.989, 11.08569
1176.471, 10.99417
1176.953, 10.87223
1177.435, 10.72725
1177.917, 10.72180
1178.399, 10.90048
1178.882, 11.06805
1179.364, 11.06505
1179.846, 10.98237
1180.328, 10.96091
1180.810, 10.90906
1181.292, 10.58878
1181.774, 10.18199
1182.256, 10.09418
1182.739, 10.30674
1183.221, 10.47141
1183.703, 10.44612
1184.185, 10.39291
1184.667, 10.35227
1185.149, 10.38504
1185.631, 10.67617
1186.113, 10.92447
1186.595, 10.78459
1187.078, 10.42519
1187.560, 10.13134
1188.042, 9.952898
1188.524, 9.930679
1189.006, 10.27887
1189.488, 10.42406
1189.970, 10.00450
1190.452, 9.704810
1190.934, 9.917437
1191.417, 10.24802
1191.899, 10.37087
1192.381, 10.34180
1192.863, 10.29543
1193.345, 10.23053
1193.827, 10.15464
1194.309, 10.05807
1194.791, 9.991330
1195.274, 10.00231
1195.756, 9.887897
1196.238, 9.483953
1196.720, 9.133389
1197.202, 9.248846
1197.684, 9.684028
1198.166, 9.964419
1198.648, 10.09312
1199.130, 10.14877
1199.613, 10.14008
1200.095, 10.19403
1200.577, 10.33098
1201.059, 10.36800
1201.541, 10.19631
1202.023, 9.983641
1202.505, 9.910857
1202.987, 9.959574
1203.469, 10.21133
1203.952, 10.50232
1204.434, 10.38460
1204.916, 10.00406
1205.398, 9.900800
1205.880, 10.15941
1206.362, 10.37344
1206.844, 10.32715
1207.326, 10.17442
1207.809, 9.926188
1208.291, 9.729541
1208.773, 9.683966
1209.255, 9.770192
1209.737, 10.07285
1210.219, 10.45102
1210.701, 10.62942
1211.183, 10.55832
1211.666, 10.31501
1212.148, 9.653959
1212.630, 9.225621
1213.112, 9.252350
1213.594, 9.406221
1214.076, 9.659431
1214.558, 9.873826
1215.040, 9.941173
1215.522, 9.866078
1216.005, 9.631564
1216.487, 9.195140
1216.969, 8.971232
1217.451, 9.026464
1217.933, 9.008487
1218.415, 8.837621
1218.897, 8.728607
1219.379, 8.785543
1219.861, 8.919735
1220.344, 9.051785
1220.826, 9.152575
1221.308, 9.137412
1221.790, 9.023969
1222.272, 8.910699
1222.754, 8.785008
1223.236, 8.495996
1223.718, 8.076300
1224.201, 7.919482
1224.683, 8.205561
1225.165, 8.478422
1225.647, 8.262056
1226.129, 7.911890
1226.611, 7.785219
1227.093, 7.784011
1227.575, 7.850312
1228.057, 7.918838
1228.540, 7.853670
1229.022, 7.689367
1229.504, 7.670694
1229.986, 7.928523
1230.468, 8.065978
1230.950, 7.895497
1231.432, 7.655371
1231.914, 7.299235
1232.396, 7.044519
1232.879, 7.107269
1233.361, 7.318151
1233.843, 7.433435
1234.325, 7.465624
1234.807, 7.512537
1235.289, 7.583854
1235.771, 7.649785
1236.253, 7.735765
1236.736, 7.706599
1237.218, 7.507715
1237.700, 7.286867
1238.182, 7.123063
1238.664, 7.059596
1239.146, 7.193487
1239.628, 7.433792
1240.110, 7.491592
1240.593, 7.390127
1241.075, 7.149742
1241.557, 6.843764
1242.039, 6.770072
1242.521, 6.965620
1243.003, 7.181662
1243.485, 7.284045
1243.967, 7.374634
1244.449, 7.629220
1244.932, 7.819227
1245.414, 7.677108
1245.896, 7.404842
1246.378, 7.229513
1246.860, 7.091467
1247.342, 6.788752
1247.824, 6.356855
1248.306, 6.159694
1248.788, 6.333598
1249.271, 6.592559
1249.753, 7.061860
1250.235, 7.359313
1250.717, 7.334145
1251.199, 7.176810
1251.681, 6.913942
1252.163, 6.674655
1252.645, 6.664653
1253.128, 6.831836
1253.610, 6.851080
1254.092, 6.706421
1254.574, 6.584909
1255.056, 6.490022
1255.538, 6.597718
1256.020, 6.938351
1256.502, 7.097151
1256.984, 6.835598
1257.467, 6.511804
1257.949, 6.546370
1258.431, 6.746502
1258.913, 6.752418
1259.395, 6.721213
1259.877, 7.087579
1260.359, 7.569793
1260.841, 7.401979
1261.323, 6.682837
1261.806, 6.346585
1262.288, 6.773447
1262.770, 7.061584
1263.252, 6.607897
1263.734, 6.207825
1264.216, 6.194642
1264.698, 6.318418
1265.180, 6.485835
1265.663, 6.652133
1266.145, 6.765357
1266.627, 6.841084
1267.109, 6.957302
1267.591, 7.163302
1268.073, 7.062062
1268.555, 6.531636
1269.037, 6.317969
1269.520, 6.573461
1270.002, 6.813346
1270.484, 6.822364
1270.966, 6.795937
1271.448, 6.928417
1271.930, 7.099790
1272.412, 7.066831
1272.894, 6.916667
1273.376, 6.867514
1273.859, 6.865171
1274.341, 6.741374
1274.823, 6.533093
1275.305, 6.411155
1275.787, 6.424602
1276.269, 6.509906
1276.751, 6.665723
1277.233, 6.818010
1277.715, 6.967198
1278.198, 7.056469
1278.680, 7.053901
1279.162, 6.977176
1279.644, 6.778437
1280.126, 6.546245
1280.608, 6.453254
1281.090, 6.493561
1281.572, 6.551133
1282.055, 6.655288
1282.537, 6.654754
1283.019, 6.524621
1283.501, 6.407467
1283.983, 6.342033
1284.465, 6.236047
1284.947, 6.018783
1285.429, 5.895248
1285.911, 6.089147
1286.394, 6.605559
##END=



