##NAMES=Lazulite
##RRUFFID=R050269
##IDEAL CHEMISTRY=MgAl_2_(PO_4_)_2_(OH)_2_
##LOCALITY=Horsjoberg, Varmland, Sweden
##OWNER=RRUFF
##SOURCE=Marcus Origlieri
##DESCRIPTION=Deep-blue indistinct crystals
##STATUS=The identification of this mineral has been confirmed by X-ray diffraction and chemical analysis
##URL=rruff.info/R050269
##MEASURED CHEMISTRY=(Mg_0.69_Fe_0.25_Mn_0.01_)Al_2.00_(P_1.00_O_4_)_2_(OH)_2_
92.54132, 0.0000000E+00
93.02344, 1.188929
93.50555, 1.164241
93.98767, 1.155277
94.46979, 1.173711
94.95190, 1.207180
95.43402, 1.207100
95.91614, 1.160084
96.39825, 1.141904
96.88037, 1.322655
97.36249, 1.688243
97.84460, 1.950919
98.32672, 1.818722
98.80884, 1.336104
99.29095, 1.246583
99.77307, 1.674309
100.2552, 2.408667
100.7373, 2.977683
101.2194, 3.334147
101.7015, 3.689185
102.1837, 4.158257
102.6658, 4.734967
103.1479, 5.460181
103.6300, 6.430381
104.1121, 7.563691
104.5942, 8.348421
105.0763, 8.608541
105.5585, 8.763549
106.0406, 9.153064
106.5227, 9.923847
107.0048, 10.67276
107.4869, 11.38464
107.9690, 12.07536
108.4512, 12.50579
108.9333, 12.39951
109.4154, 12.17500
109.8975, 12.25623
110.3796, 12.94995
110.8617, 13.65964
111.3439, 14.22670
111.8260, 14.53725
112.3081, 15.09818
112.7902, 16.13782
113.2723, 17.40847
113.7544, 18.54913
114.2366, 19.33402
114.7187, 20.11411
115.2008, 21.03264
115.6829, 22.18669
116.1650, 23.30352
116.6471, 24.27990
117.1293, 25.17587
117.6114, 26.13883
118.0935, 27.33339
118.5756, 28.54176
119.0577, 29.64706
119.5398, 30.66423
120.0220, 31.49690
120.5041, 31.99204
120.9862, 32.22636
121.4683, 32.51136
121.9504, 32.84362
122.4325, 33.37428
122.9147, 34.28764
123.3968, 35.83875
123.8789, 37.62336
124.3610, 39.47738
124.8431, 41.36905
125.3252, 42.83317
125.8074, 43.37777
126.2895, 43.24574
126.7716, 42.89653
127.2537, 42.11438
127.7358, 41.34881
128.2179, 41.42469
128.7001, 42.37878
129.1822, 43.61440
129.6643, 44.51241
130.1464, 45.15879
130.6285, 45.91052
131.1106, 47.08685
131.5928, 48.51361
132.0749, 49.57888
132.5570, 50.19102
133.0391, 50.63851
133.5212, 51.33424
134.0033, 52.19129
134.4855, 52.78967
134.9676, 52.99108
135.4497, 53.00613
135.9318, 53.19976
136.4139, 53.63559
136.8960, 54.18665
137.3782, 54.59346
137.8603, 54.82460
138.3424, 55.10012
138.8245, 55.57952
139.3066, 56.30173
139.7887, 56.95934
140.2709, 57.57306
140.7530, 58.08928
141.2351, 58.25945
141.7172, 57.95152
142.1993, 57.59786
142.6814, 57.50444
143.1636, 57.77020
143.6457, 57.99545
144.1278, 58.09025
144.6099, 58.08319
145.0920, 58.28545
145.5741, 58.84937
146.0563, 59.44176
146.5384, 59.80556
147.0205, 59.90590
147.5026, 59.83829
147.9847, 59.52094
148.4668, 58.93240
148.9490, 58.60395
149.4311, 58.75865
149.9132, 59.03614
150.3953, 59.10253
150.8774, 58.76891
151.3595, 58.43555
151.8417, 58.12697
152.3238, 57.81063
152.8059, 57.69624
153.2880, 58.01586
153.7701, 58.45387
154.2522, 58.67427
154.7344, 58.34937
155.2165, 58.08162
155.6986, 58.03960
156.1807, 58.27537
156.6628, 58.56150
157.1449, 59.08054
157.6271, 59.57678
158.1092, 59.70501
158.5913, 58.83721
159.0734, 58.03308
159.5555, 57.76419
160.0376, 58.25415
160.5198, 58.76815
161.0019, 59.07800
161.4840, 59.27223
161.9661, 59.49514
162.4482, 59.83667
162.9303, 60.19404
163.4125, 60.51007
163.8946, 60.76844
164.3767, 61.00242
164.8588, 61.15035
165.3409, 61.27660
165.8230, 61.53823
166.3052, 61.95382
166.7873, 62.55848
167.2694, 63.39555
167.7515, 64.53819
168.2336, 65.79536
168.7157, 66.97532
169.1978, 68.14493
169.6800, 69.55923
170.1621, 71.42579
170.6442, 73.57277
171.1263, 75.89907
171.6084, 78.60783
172.0905, 81.16245
172.5727, 83.07211
173.0548, 84.40578
173.5369, 85.53803
174.0190, 86.70094
174.5011, 87.82328
174.9832, 88.81213
175.4654, 89.67272
175.9475, 90.35795
176.4296, 90.53894
176.9117, 90.31658
177.3938, 90.53983
177.8759, 92.13024
178.3581, 94.59272
178.8402, 97.00352
179.3223, 99.07461
179.8044, 100.9386
180.2865, 102.6415
180.7686, 104.1897
181.2508, 105.9356
181.7329, 108.1123
182.2150, 110.7115
182.6971, 113.7138
183.1792, 117.1275
183.6613, 120.9161
184.1435, 124.7303
184.6256, 128.5787
185.1077, 133.0957
185.5898, 139.0810
186.0719, 146.2879
186.5540, 154.2091
187.0362, 162.8153
187.5183, 171.9433
188.0004, 181.1971
188.4825, 190.7567
188.9646, 199.6149
189.4467, 207.7031
189.9289, 214.7258
190.4110, 218.1476
190.8931, 216.9181
191.3752, 211.4228
191.8573, 202.6971
192.3394, 190.3370
192.8216, 176.3497
193.3037, 162.3231
193.7858, 148.2907
194.2679, 135.6350
194.7500, 124.9312
195.2321, 116.0821
195.7143, 108.2688
196.1964, 101.5830
196.6785, 95.78539
197.1606, 90.63389
197.6427, 86.06613
198.1248, 82.13301
198.6070, 78.85621
199.0891, 76.21958
199.5712, 74.04732
200.0533, 72.40590
200.5354, 71.07271
201.0175, 69.74992
201.4997, 68.40080
201.9818, 67.29707
202.4639, 66.64427
202.9460, 66.44464
203.4281, 65.87619
203.9102, 64.80251
204.3924, 63.61095
204.8745, 62.89612
205.3566, 62.74632
205.8387, 62.66046
206.3208, 62.48095
206.8029, 62.20586
207.2851, 61.84726
207.7672, 61.34784
208.2493, 60.84697
208.7314, 60.60681
209.2135, 60.72714
209.6956, 60.76144
210.1778, 60.47826
210.6599, 59.80735
211.1420, 59.48838
211.6241, 59.67741
212.1062, 60.03603
212.5883, 59.99055
213.0705, 59.37548
213.5526, 58.80401
214.0347, 58.47561
214.5168, 58.39061
214.9989, 58.53096
215.4810, 58.98859
215.9632, 59.58294
216.4453, 60.01746
216.9274, 60.25694
217.4095, 60.42611
217.8916, 60.54027
218.3737, 60.57403
218.8559, 60.70718
219.3380, 60.97869
219.8201, 61.31298
220.3022, 61.62427
220.7843, 61.99755
221.2664, 62.16184
221.7486, 61.99560
222.2307, 61.44752
222.7128, 60.88202
223.1949, 60.36420
223.6770, 59.78171
224.1591, 58.92719
224.6413, 57.58207
225.1234, 56.38028
225.6055, 55.56464
226.0876, 55.26194
226.5697, 54.71886
227.0518, 53.81895
227.5340, 52.76770
228.0161, 51.88117
228.4982, 51.16236
228.9803, 50.58714
229.4624, 50.17155
229.9445, 49.94249
230.4267, 49.69444
230.9088, 49.33695
231.3909, 49.02319
231.8730, 48.98133
232.3551, 49.32751
232.8372, 49.74415
233.3194, 50.15772
233.8015, 50.57948
234.2836, 50.95565
234.7657, 51.24281
235.2478, 51.52018
235.7299, 51.91249
236.2121, 52.52482
236.6942, 53.06480
237.1763, 53.44059
237.6584, 53.62341
238.1405, 53.82622
238.6226, 53.98097
239.1048, 54.20746
239.5869, 54.67198
240.0690, 55.52612
240.5511, 56.34491
241.0332, 57.02860
241.5153, 57.55763
241.9975, 58.08339
242.4796, 58.54298
242.9617, 59.04789
243.4438, 59.71839
243.9259, 60.57046
244.4080, 61.56232
244.8902, 62.71280
245.3723, 64.03250
245.8544, 65.32648
246.3365, 66.46837
246.8186, 67.70648
247.3007, 69.29417
247.7829, 71.24991
248.2650, 73.52937
248.7471, 76.20223
249.2292, 79.29065
249.7113, 82.31057
250.1934, 85.31355
250.6756, 88.21945
251.1577, 91.03785
251.6398, 93.95971
252.1219, 96.43982
252.6040, 98.66555
253.0861, 100.5614
253.5683, 100.6620
254.0504, 98.43851
254.5325, 95.04776
255.0146, 91.32481
255.4967, 87.02299
255.9788, 82.90334
256.4609, 79.01514
256.9431, 75.39949
257.4252, 72.07047
257.9073, 68.83885
258.3894, 66.15125
258.8715, 64.43011
259.3536, 64.06837
259.8358, 63.59791
260.3179, 62.76139
260.8000, 61.67012
261.2821, 60.97041
261.7642, 60.76299
262.2463, 60.76320
262.7285, 60.81425
263.2106, 60.93835
263.6927, 61.02535
264.1748, 60.98946
264.6569, 60.92606
265.1390, 61.23467
265.6212, 62.08953
266.1033, 62.95093
266.5854, 63.49543
267.0675, 63.60633
267.5496, 63.80931
268.0317, 64.10941
268.5139, 64.52941
268.9960, 65.14562
269.4781, 66.00744
269.9602, 66.92587
270.4423, 67.81647
270.9244, 68.68660
271.4066, 69.44158
271.8887, 69.94947
272.3708, 70.47137
272.8529, 71.56699
273.3350, 73.34974
273.8171, 75.29089
274.2993, 77.22807
274.7814, 79.14110
275.2635, 80.94211
275.7456, 82.53210
276.2277, 84.15948
276.7098, 86.34657
277.1920, 89.25491
277.6741, 91.82980
278.1562, 93.59518
278.6383, 94.57486
279.1204, 95.59827
279.6025, 96.75018
280.0847, 97.76167
280.5668, 98.39067
281.0489, 98.66580
281.5310, 98.24574
282.0131, 96.93935
282.4952, 94.80478
282.9774, 92.32014
283.4595, 89.44718
283.9416, 86.33835
284.4237, 83.05112
284.9058, 79.58738
285.3879, 76.28550
285.8701, 73.19923
286.3522, 70.34880
286.8343, 67.86515
287.3164, 65.79935
287.7985, 63.86381
288.2806, 61.66919
288.7628, 59.28149
289.2449, 57.41578
289.7270, 56.34517
290.2091, 55.78193
290.6912, 55.07156
291.1733, 54.22546
291.6555, 53.29944
292.1376, 52.21605
292.6197, 51.05217
293.1018, 50.18857
293.5839, 49.75001
294.0660, 49.54298
294.5482, 49.28077
295.0303, 48.96621
295.5124, 48.61834
295.9945, 48.20226
296.4766, 47.75716
296.9587, 47.38318
297.4409, 47.07426
297.9230, 46.88407
298.4051, 46.96262
298.8872, 47.25359
299.3693, 47.51665
299.8514, 47.64410
300.3336, 47.64938
300.8157, 47.47414
301.2978, 47.07427
301.7799, 46.77035
302.2620, 46.97158
302.7441, 47.54627
303.2263, 48.14922
303.7084, 48.66575
304.1905, 49.10760
304.6726, 49.47405
305.1547, 49.75985
305.6368, 50.05085
306.1190, 50.39188
306.6011, 50.79008
307.0832, 51.24560
307.5653, 51.76196
308.0474, 52.33906
308.5295, 53.00570
309.0117, 53.75542
309.4938, 54.47337
309.9759, 54.95008
310.4580, 55.40504
310.9401, 56.09727
311.4222, 57.21735
311.9044, 58.44611
312.3865, 59.53189
312.8686, 60.52113
313.3507, 61.60914
313.8328, 62.87056
314.3149, 64.28456
314.7971, 65.81940
315.2792, 67.51649
315.7613, 69.28867
316.2434, 71.13279
316.7255, 73.02223
317.2076, 74.89986
317.6898, 76.83530
318.1719, 78.68724
318.6540, 80.37765
319.1361, 81.89075
319.6182, 83.20134
320.1003, 84.42677
320.5825, 85.41319
321.0646, 85.94902
321.5467, 85.82652
322.0288, 85.38013
322.5109, 84.67632
322.9930, 83.70937
323.4752, 82.65707
323.9573, 81.49209
324.4394, 80.28667
324.9215, 79.10591
325.4036, 77.61392
325.8857, 76.51052
326.3679, 76.09942
326.8500, 76.34429
327.3321, 76.44736
327.8142, 75.99052
328.2963, 75.61303
328.7784, 75.69492
329.2606, 76.82565
329.7427, 77.70034
330.2248, 78.14909
330.7069, 78.29107
331.1890, 78.57701
331.6711, 79.04207
332.1533, 79.61641
332.6354, 80.29343
333.1175, 81.16497
333.5996, 81.93588
334.0817, 82.59055
334.5638, 83.15128
335.0460, 83.63613
335.5281, 83.92909
336.0102, 84.36917
336.4923, 85.11780
336.9744, 86.23792
337.4565, 87.17713
337.9387, 87.84380
338.4208, 88.46207
338.9029, 89.26782
339.3850, 90.25075
339.8671, 91.47536
340.3492, 93.06902
340.8313, 94.96153
341.3134, 96.52642
341.7956, 97.75011
342.2777, 98.73925
342.7598, 99.62935
343.2419, 100.4154
343.7240, 100.9179
344.2061, 101.1085
344.6883, 100.9962
345.1704, 100.5676
345.6525, 99.81284
346.1346, 98.85303
346.6167, 97.85032
347.0988, 96.73170
347.5810, 95.08173
348.0631, 92.74096
348.5452, 90.16811
349.0273, 87.95899
349.5094, 86.07097
349.9915, 84.37155
350.4737, 82.86538
350.9558, 81.47427
351.4379, 80.08047
351.9200, 78.67239
352.4021, 77.31165
352.8842, 75.95628
353.3664, 74.68255
353.8485, 73.65984
354.3306, 73.07383
354.8127, 72.66040
355.2948, 72.09839
355.7769, 71.41926
356.2591, 70.84843
356.7412, 70.51060
357.2233, 70.37788
357.7054, 70.44312
358.1875, 70.79668
358.6696, 71.17837
359.1518, 71.36577
359.6339, 71.43359
360.1160, 71.56242
360.5981, 71.91081
361.0802, 72.29860
361.5623, 72.58841
362.0445, 72.73471
362.5266, 72.91328
363.0087, 73.18505
363.4908, 73.53218
363.9729, 73.93140
364.4550, 74.26366
364.9372, 74.75118
365.4193, 75.50565
365.9014, 76.53296
366.3835, 77.61771
366.8656, 78.73362
367.3477, 79.87735
367.8299, 81.06880
368.3120, 82.34462
368.7941, 83.62716
369.2762, 84.90770
369.7583, 86.18819
370.2404, 87.48569
370.7226, 88.76472
371.2047, 90.07826
371.6868, 91.44331
372.1689, 92.81322
372.6510, 94.36769
373.1331, 96.24235
373.6153, 98.23750
374.0974, 100.0700
374.5795, 101.8299
375.0616, 103.2138
375.5437, 104.1020
376.0258, 104.4895
376.5080, 104.6205
376.9901, 104.5072
377.4722, 104.1121
377.9543, 103.4124
378.4364, 102.4260
378.9185, 101.0245
379.4007, 99.16187
379.8828, 96.91438
380.3649, 94.43393
380.8470, 91.70205
381.3291, 89.08704
381.8112, 86.94885
382.2934, 85.20338
382.7755, 83.37301
383.2576, 81.40889
383.7397, 79.37443
384.2218, 77.25550
384.7039, 75.08701
385.1861, 73.17372
385.6682, 71.62207
386.1503, 70.41558
386.6324, 69.54750
387.1145, 69.03335
387.5966, 68.66050
388.0788, 68.30543
388.5609, 67.95647
389.0430, 67.58521
389.5251, 67.13189
390.0072, 66.70931
390.4893, 66.42888
390.9715, 66.27179
391.4536, 66.15334
391.9357, 65.90710
392.4178, 65.75220
392.8999, 65.87344
393.3820, 66.32524
393.8642, 66.97604
394.3463, 67.79389
394.8284, 68.76907
395.3105, 69.87237
395.7926, 71.09872
396.2747, 72.45863
396.7569, 74.05725
397.2390, 75.91313
397.7211, 77.51931
398.2032, 78.44059
398.6853, 79.27273
399.1674, 80.44173
399.6496, 82.38596
400.1317, 84.19693
400.6138, 85.57112
401.0959, 86.72840
401.5780, 88.43678
402.0602, 90.81187
402.5423, 93.61034
403.0244, 96.67297
403.5065, 99.90004
403.9886, 103.7658
404.4707, 108.2152
404.9529, 113.3542
405.4350, 119.2469
405.9171, 125.7838
406.3992, 133.4905
406.8813, 142.5282
407.3634, 152.8380
407.8456, 164.7276
408.3277, 178.3289
408.8098, 193.0202
409.2919, 208.5121
409.7740, 224.7946
410.2561, 240.6561
410.7383, 256.1524
411.2204, 270.8630
411.7025, 286.3854
412.1846, 302.0735
412.6667, 312.5291
413.1488, 315.7978
413.6310, 311.6134
414.1131, 297.5409
414.5952, 273.1804
415.0773, 245.3141
415.5594, 216.8952
416.0415, 189.5601
416.5237, 165.5708
417.0058, 145.8765
417.4879, 129.9833
417.9700, 118.4123
418.4521, 110.6797
418.9342, 104.5658
419.4164, 99.19421
419.8985, 94.77613
420.3806, 91.63653
420.8627, 89.97851
421.3448, 88.96949
421.8269, 88.71023
422.3091, 88.78254
422.7912, 88.59871
423.2733, 87.57347
423.7554, 86.71210
424.2375, 86.37788
424.7196, 86.59252
425.2018, 86.74151
425.6839, 87.29234
426.1660, 87.39514
426.6481, 86.53370
427.1302, 84.29115
427.6123, 81.77187
428.0945, 78.79533
428.5766, 75.60381
429.0587, 72.74033
429.5408, 70.31926
430.0229, 67.99090
430.5050, 65.60741
430.9872, 63.17670
431.4693, 61.02468
431.9514, 59.15525
432.4335, 57.50062
432.9156, 56.00724
433.3977, 54.67611
433.8799, 53.42492
434.3620, 52.22460
434.8441, 51.10733
435.3262, 50.12152
435.8083, 49.26985
436.2904, 48.61034
436.7726, 48.30564
437.2547, 48.20654
437.7368, 47.91209
438.2189, 47.36093
438.7010, 46.86410
439.1831, 46.83045
439.6652, 47.05619
440.1473, 47.14762
440.6295, 46.91973
441.1116, 46.53043
441.5937, 45.91908
442.0758, 45.17901
442.5579, 44.79364
443.0400, 45.48467
443.5222, 46.32013
444.0043, 46.53682
444.4864, 45.69880
444.9685, 45.03007
445.4506, 45.04947
445.9327, 45.43379
446.4149, 45.71998
446.8970, 45.79013
447.3791, 45.77803
447.8612, 45.66803
448.3433, 45.45744
448.8254, 45.34884
449.3076, 45.30825
449.7897, 45.40174
450.2718, 45.69965
450.7539, 46.36578
451.2360, 46.85651
451.7181, 47.11420
452.2003, 47.22192
452.6824, 47.31707
453.1645, 47.37674
453.6466, 47.52156
454.1287, 47.84241
454.6108, 48.30836
455.0930, 48.58823
455.5751, 48.66690
456.0572, 48.67753
456.5393, 48.72196
457.0214, 48.79894
457.5035, 48.90757
457.9857, 49.06077
458.4678, 49.21914
458.9499, 49.32122
459.4320, 49.37844
459.9141, 49.43406
460.3962, 49.55474
460.8784, 49.66375
461.3605, 49.71602
461.8426, 49.70927
462.3247, 49.50969
462.8068, 48.76673
463.2889, 47.89832
463.7711, 47.36766
464.2532, 47.52971
464.7353, 47.72788
465.2174, 47.61968
465.6995, 47.35390
466.1816, 47.28294
466.6638, 47.69482
467.1459, 48.13843
467.6280, 48.44381
468.1101, 48.56345
468.5922, 48.71223
469.0743, 48.76146
469.5565, 48.93665
470.0386, 49.43388
470.5207, 50.35331
471.0028, 51.40359
471.4849, 52.68528
471.9670, 54.02731
472.4492, 54.87433
472.9313, 55.05378
473.4134, 55.32039
473.8955, 56.10850
474.3776, 57.38445
474.8597, 58.32077
475.3419, 58.89852
475.8240, 59.27134
476.3061, 59.63413
476.7882, 59.94195
477.2703, 59.99585
477.7524, 59.76287
478.2346, 59.23059
478.7167, 58.28398
479.1988, 56.99262
479.6809, 55.61552
480.1630, 54.33229
480.6451, 53.01552
481.1273, 51.48757
481.6094, 49.72237
482.0915, 48.00565
482.5736, 46.42751
483.0557, 44.99894
483.5378, 43.71265
484.0200, 42.63075
484.5021, 41.61410
484.9842, 40.57825
485.4663, 39.57137
485.9484, 38.73822
486.4305, 38.13621
486.9127, 37.68054
487.3948, 37.38070
487.8769, 37.27235
488.3590, 37.08579
488.8411, 36.78162
489.3232, 36.44147
489.8054, 36.12604
490.2875, 35.82573
490.7696, 35.58935
491.2517, 35.42533
491.7338, 35.32875
492.2159, 35.29086
492.6981, 35.31108
493.1802, 35.39972
493.6623, 35.63693
494.1444, 35.95187
494.6265, 36.02715
495.1086, 35.86034
495.5908, 35.61629
496.0729, 35.36018
496.5550, 35.13737
497.0371, 35.06350
497.5192, 35.20818
498.0013, 35.38942
498.4835, 35.37462
498.9656, 35.27837
499.4477, 35.33783
499.9298, 35.90446
500.4119, 36.44858
500.8940, 36.59472
501.3762, 36.35340
501.8583, 36.23499
502.3404, 36.44471
502.8225, 36.78757
503.3046, 37.15528
503.7867, 37.69270
504.2689, 37.99806
504.7510, 37.87181
505.2331, 37.59332
505.7152, 37.58739
506.1973, 37.97020
506.6794, 38.39948
507.1616, 38.83614
507.6437, 39.26354
508.1258, 39.48120
508.6079, 39.41821
509.0900, 39.42362
509.5721, 39.83764
510.0543, 40.60091
510.5364, 41.06068
511.0185, 41.14959
511.5006, 41.05832
511.9827, 40.89724
512.4648, 40.73000
512.9470, 40.76626
513.4291, 41.16689
513.9112, 41.70143
514.3933, 42.19509
514.8754, 42.62818
515.3575, 42.92837
515.8397, 42.92762
516.3218, 42.86818
516.8039, 42.97687
517.2860, 43.32347
517.7681, 43.50097
518.2502, 43.11200
518.7324, 42.62555
519.2145, 42.46107
519.6966, 43.10616
520.1787, 43.55421
520.6608, 43.66948
521.1429, 43.53767
521.6251, 43.34304
522.1072, 42.95760
522.5893, 42.75316
523.0714, 42.95798
523.5535, 43.56301
524.0356, 43.67714
524.5178, 43.17786
524.9999, 42.61298
525.4820, 42.53646
525.9641, 42.88367
526.4462, 42.94579
526.9283, 42.57361
527.4105, 42.08925
527.8926, 41.89032
528.3747, 41.93499
528.8568, 42.09052
529.3389, 42.50481
529.8210, 42.85209
530.3032, 42.64333
530.7853, 41.99675
531.2674, 41.50441
531.7495, 41.70581
532.2316, 42.04020
532.7137, 42.07928
533.1959, 41.68621
533.6780, 41.32009
534.1601, 41.06776
534.6422, 40.91167
535.1243, 40.83229
535.6064, 40.95030
536.0886, 40.98667
536.5707, 40.91641
537.0528, 40.74846
537.5349, 40.50092
538.0170, 40.13487
538.4991, 39.78983
538.9813, 39.55310
539.4634, 39.41164
539.9455, 39.11792
540.4276, 38.65106
540.9097, 38.15690
541.3918, 37.77400
541.8740, 37.48292
542.3561, 37.22008
542.8382, 36.99190
543.3203, 36.73968
543.8024, 36.30862
544.2845, 35.79875
544.7667, 35.44530
545.2488, 35.50144
545.7309, 35.62802
546.2130, 35.63324
546.6951, 35.51710
547.1772, 35.28412
547.6594, 34.76643
548.1415, 34.26617
548.6236, 33.98296
549.1057, 34.03587
549.5878, 33.94710
550.0699, 33.40379
550.5521, 32.88387
551.0342, 32.82705
551.5163, 33.55088
551.9984, 34.04414
552.4805, 34.17019
552.9626, 34.04370
553.4448, 33.88691
553.9269, 33.68473
554.4090, 33.56350
554.8911, 33.60831
555.3732, 33.76557
555.8553, 33.82131
556.3375, 33.77705
556.8196, 33.76346
557.3017, 33.92142
557.7838, 34.16420
558.2659, 34.33820
558.7480, 34.41120
559.2302, 34.49060
559.7123, 34.69004
560.1944, 34.93377
560.6765, 35.12379
561.1586, 35.21746
561.6407, 35.26760
562.1229, 35.17118
562.6050, 35.03217
563.0871, 35.15037
563.5692, 35.99113
564.0513, 36.65386
564.5334, 36.81422
565.0156, 36.44530
565.4977, 36.32139
565.9798, 36.56869
566.4619, 36.83123
566.9440, 36.80036
567.4261, 36.44307
567.9083, 36.31413
568.3904, 36.48999
568.8725, 36.78126
569.3546, 36.97047
569.8367, 37.06330
570.3188, 37.08405
570.8010, 36.99959
571.2831, 36.89895
571.7652, 36.89128
572.2473, 36.96254
572.7294, 37.06456
573.2115, 37.19416
573.6937, 37.32961
574.1758, 37.46410
574.6579, 37.59657
575.1400, 37.70777
575.6221, 37.82204
576.1042, 37.89421
576.5864, 37.88686
577.0685, 37.71445
577.5506, 37.62529
578.0327, 37.71740
578.5148, 37.82058
578.9969, 37.68409
579.4791, 37.22747
579.9612, 36.81285
580.4433, 36.52847
580.9254, 36.32058
581.4075, 36.08638
581.8896, 35.82476
582.3718, 35.43256
582.8539, 34.69739
583.3360, 33.83041
583.8181, 33.28070
584.3002, 33.05215
584.7823, 33.02962
585.2645, 33.32900
585.7466, 33.69061
586.2286, 33.82339
586.7108, 33.60940
587.1929, 33.38813
587.6750, 33.28105
588.1571, 33.25692
588.6392, 33.27755
589.1213, 33.30823
589.6035, 33.42225
590.0856, 33.65004
590.5677, 33.96233
591.0498, 34.27143
591.5319, 34.54166
592.0140, 34.89152
592.4962, 35.36522
592.9783, 35.95388
593.4604, 36.58644
593.9425, 37.26498
594.4246, 37.96275
594.9067, 38.64172
595.3889, 39.32316
595.8710, 40.07231
596.3531, 40.89691
596.8352, 41.79436
597.3173, 42.76868
597.7994, 43.81666
598.2816, 44.93930
598.7637, 46.29329
599.2458, 47.49574
599.7279, 48.13633
600.2100, 48.51643
600.6921, 49.21736
601.1743, 50.73082
601.6564, 52.18516
602.1385, 53.31158
602.6206, 54.16388
603.1027, 55.15136
603.5848, 56.37653
604.0670, 57.52803
604.5491, 58.45610
605.0312, 59.15001
605.5133, 59.76011
605.9954, 60.25106
606.4775, 60.81019
606.9597, 61.69114
607.4418, 62.79491
607.9239, 63.78974
608.4060, 64.59468
608.8881, 65.36656
609.3702, 66.21750
609.8524, 67.14454
610.3345, 68.12370
610.8166, 69.27663
611.2987, 70.36424
611.7808, 71.32683
612.2629, 72.14771
612.7451, 72.77233
613.2272, 73.12222
613.7093, 73.34675
614.1914, 73.44884
614.6735, 73.42647
615.1556, 73.52073
615.6378, 73.75448
616.1199, 74.05809
616.6020, 74.38007
617.0841, 74.72116
617.5662, 75.19637
618.0483, 75.84634
618.5305, 76.43726
619.0126, 76.68105
619.4947, 76.66231
619.9768, 76.64046
620.4589, 76.69968
620.9410, 76.70754
621.4232, 76.45338
621.9053, 76.07589
622.3874, 75.82796
622.8695, 75.98493
623.3516, 76.11194
623.8337, 76.06231
624.3159, 75.84610
624.7980, 75.52062
625.2801, 75.07242
625.7622, 74.52734
626.2443, 73.81350
626.7264, 72.91286
627.2086, 72.38012
627.6907, 72.28764
628.1728, 72.34437
628.6549, 72.30473
629.1370, 72.19533
629.6191, 72.35425
630.1013, 72.83613
630.5834, 73.37194
631.0655, 73.72675
631.5476, 73.92142
632.0297, 73.97916
632.5118, 73.86842
632.9940, 73.70652
633.4761, 73.48150
633.9582, 73.27807
634.4403, 73.24110
634.9224, 73.58475
635.4045, 73.91545
635.8867, 74.12277
636.3688, 74.22763
636.8509, 74.31715
637.3330, 74.31892
637.8151, 74.43362
638.2972, 74.79239
638.7794, 75.36949
639.2615, 75.71126
639.7436, 75.79115
640.2257, 75.81890
640.7078, 75.96052
641.1899, 76.17540
641.6721, 76.33461
642.1542, 76.42966
642.6363, 76.47767
643.1184, 76.59312
643.6005, 76.63390
644.0826, 76.39138
644.5648, 75.69312
645.0469, 74.97485
645.5290, 74.55858
646.0111, 74.18302
646.4932, 73.46893
646.9753, 72.25670
647.4575, 70.82328
647.9396, 69.14079
648.4217, 67.27074
648.9038, 65.44125
649.3859, 63.64569
649.8680, 61.85324
650.3502, 60.07606
650.8323, 58.28278
651.3144, 56.29383
651.7965, 54.10720
652.2786, 52.03814
652.7607, 50.32122
653.2429, 48.82980
653.7250, 47.42749
654.2071, 46.11646
654.6892, 44.88094
655.1713, 43.65270
655.6534, 42.52345
656.1356, 41.58883
656.6177, 40.98249
657.0998, 40.28247
657.5819, 39.34837
658.0640, 38.34976
658.5461, 37.43641
659.0283, 36.58042
659.5104, 35.89056
659.9925, 35.41996
660.4746, 35.07077
660.9567, 34.66719
661.4388, 34.21336
661.9210, 33.79585
662.4031, 33.45757
662.8852, 33.15686
663.3673, 32.88633
663.8494, 32.61213
664.3315, 32.22436
664.8137, 31.47376
665.2958, 30.75123
665.7779, 30.35911
666.2600, 30.26672
666.7421, 30.16401
667.2242, 30.04079
667.7064, 29.83027
668.1885, 29.47804
668.6706, 28.95479
669.1527, 28.53382
669.6348, 28.23298
670.1169, 27.99826
670.5991, 27.82720
671.0812, 27.71176
671.5633, 27.43203
672.0454, 26.95094
672.5275, 26.44654
673.0096, 26.12877
673.4918, 25.93174
673.9739, 25.73109
674.4560, 25.50681
674.9381, 25.24655
675.4202, 24.89543
675.9023, 24.51261
676.3845, 24.18748
676.8666, 23.93956
677.3487, 23.75191
677.8308, 23.71962
678.3129, 23.73077
678.7950, 23.49985
679.2772, 22.88495
679.7593, 22.40329
680.2414, 22.24885
680.7235, 22.32052
681.2056, 22.19794
681.6877, 21.88906
682.1699, 21.65914
682.6520, 21.74909
683.1341, 21.97882
683.6162, 22.08689
684.0983, 22.07064
684.5804, 21.94071
685.0626, 21.54630
685.5447, 21.15728
686.0268, 20.99299
686.5089, 21.12517
686.9910, 21.19822
687.4731, 21.10505
687.9553, 20.97347
688.4374, 20.87541
688.9195, 20.81509
689.4016, 20.76372
689.8837, 20.70228
690.3658, 20.69204
690.8480, 20.91170
691.3301, 21.29641
691.8122, 21.33594
692.2943, 20.84135
692.7764, 20.29252
693.2585, 20.23136
693.7407, 20.49699
694.2228, 20.81040
694.7049, 21.21396
695.1870, 21.46271
695.6691, 21.32504
696.1512, 20.96773
696.6334, 20.73373
697.1155, 20.63736
697.5976, 20.73300
698.0797, 21.13036
698.5618, 21.71715
699.0439, 22.02727
699.5261, 22.00207
700.0082, 22.02286
700.4903, 22.31425
700.9724, 22.74460
701.4545, 22.91301
701.9366, 22.84749
702.4188, 22.77519
702.9009, 22.90000
703.3830, 23.05073
703.8651, 22.99180
704.3472, 22.72446
704.8293, 22.62295
705.3115, 22.91099
705.7936, 23.34263
706.2757, 23.83572
706.7578, 24.47677
707.2399, 24.74500
707.7220, 24.43446
708.2042, 24.07717
708.6863, 24.17607
709.1684, 24.73982
709.6505, 25.01935
710.1326, 24.92640
710.6147, 24.79094
711.0969, 25.06397
711.5790, 25.54962
712.0611, 25.83039
712.5432, 25.76838
713.0253, 25.63729
713.5074, 25.56296
713.9896, 25.54552
714.4717, 25.58623
714.9538, 25.71930
715.4359, 25.87149
715.9180, 26.07798
716.4001, 26.27665
716.8823, 26.35288
717.3644, 26.27396
717.8465, 26.19470
718.3286, 26.14181
718.8107, 26.11793
719.2928, 26.12327
719.7750, 26.16135
720.2571, 26.25005
720.7392, 26.38642
721.2213, 26.58765
721.7034, 26.92424
722.1855, 27.34838
722.6677, 27.72053
723.1498, 27.96123
723.6319, 28.15389
724.1140, 28.30075
724.5961, 28.41305
725.0782, 28.61129
725.5604, 28.89625
726.0425, 29.26904
726.5246, 29.79339
727.0067, 30.43246
727.4888, 30.79869
727.9709, 30.87850
728.4531, 30.94251
728.9352, 31.16443
729.4173, 31.50246
729.8994, 31.89689
730.3815, 32.34645
730.8636, 32.83165
731.3458, 33.42765
731.8279, 33.98830
732.3100, 34.38057
732.7921, 34.53550
733.2742, 34.75283
733.7563, 35.02290
734.2385, 35.39075
734.7206, 35.95757
735.2027, 36.81698
735.6848, 37.25856
736.1669, 37.18164
736.6490, 37.03224
737.1312, 37.27945
737.6133, 37.83844
738.0954, 38.54479
738.5775, 39.44109
739.0596, 40.15208
739.5417, 40.33391
740.0239, 40.19385
740.5060, 39.94881
740.9881, 39.35161
741.4702, 39.12770
741.9523, 40.00632
742.4344, 41.00910
742.9166, 40.87239
743.3987, 39.15198
743.8808, 37.86146
744.3629, 37.34253
744.8450, 37.21751
745.3271, 36.92156
745.8093, 36.46582
746.2914, 35.92025
746.7735, 35.31075
747.2556, 34.61706
747.7377, 33.64056
748.2198, 32.59346
748.7020, 31.86453
749.1841, 31.94351
749.6662, 31.97193
750.1483, 31.73236
750.6304, 31.24795
751.1125, 30.55733
751.5947, 29.50682
752.0768, 28.61927
752.5589, 28.07343
753.0410, 27.74825
753.5231, 27.28969
754.0052, 26.71517
754.4874, 26.23955
754.9695, 26.07525
755.4516, 25.99005
755.9337, 25.71311
756.4158, 25.27823
756.8979, 24.81039
757.3801, 24.23266
757.8622, 23.75527
758.3443, 23.52492
758.8264, 23.51322
759.3085, 23.42719
759.7906, 23.24610
760.2728, 23.02535
760.7549, 22.75692
761.2370, 22.46337
761.7191, 22.28714
762.2012, 22.22675
762.6833, 22.18356
763.1655, 22.06785
763.6476, 21.94660
764.1297, 21.96411
764.6118, 22.09573
765.0939, 22.12258
765.5760, 21.74723
766.0582, 21.40181
766.5403, 21.37014
767.0224, 21.69845
767.5045, 21.88910
767.9866, 21.89527
768.4688, 21.83945
768.9509, 21.74525
769.4330, 21.62316
769.9151, 21.70910
770.3972, 22.01029
770.8793, 22.27340
771.3615, 22.24213
771.8436, 22.08341
772.3257, 22.05163
772.8078, 22.16512
773.2899, 22.25499
773.7720, 22.28358
774.2542, 22.22339
774.7363, 21.99556
775.2184, 21.50390
775.7005, 21.32836
776.1826, 21.61871
776.6647, 21.97424
777.1469, 22.10639
777.6290, 22.02405
778.1111, 21.96895
778.5932, 21.94628
779.0753, 21.95820
779.5574, 22.02716
780.0396, 22.12301
780.5217, 22.22053
781.0038, 22.32247
781.4859, 22.35736
781.9680, 22.28572
782.4501, 22.14116
782.9323, 21.91867
783.4144, 21.54955
783.8964, 21.35036
784.3785, 21.33774
784.8607, 21.46640
785.3428, 21.78446
785.8249, 22.25438
786.3070, 22.45798
786.7891, 22.34786
787.2712, 22.15344
787.7534, 22.00431
788.2355, 21.93549
788.7176, 22.05965
789.1997, 22.48304
789.6818, 22.67094
790.1639, 22.18690
790.6461, 21.55520
791.1282, 21.18238
791.6103, 21.13909
792.0924, 21.18927
792.5745, 21.35983
793.0566, 21.56379
793.5388, 21.72733
794.0209, 21.85204
794.5030, 21.93638
794.9851, 21.98017
795.4672, 21.99300
795.9493, 21.97326
796.4315, 21.93306
796.9136, 21.87865
797.3957, 21.79370
797.8778, 21.74954
798.3599, 21.80600
798.8420, 21.88042
799.3242, 21.92159
799.8063, 21.94781
800.2884, 21.84590
800.7705, 21.57300
801.2526, 21.29855
801.7347, 21.27104
802.2169, 21.38682
802.6990, 21.26972
803.1811, 20.82040
803.6632, 20.50811
804.1453, 20.92770
804.6274, 21.52491
805.1096, 21.74885
805.5917, 21.29685
806.0738, 20.99444
806.5559, 20.95391
807.0380, 21.03956
807.5201, 21.19444
808.0023, 21.44490
808.4844, 21.45037
808.9665, 21.15924
809.4486, 20.82239
809.9307, 20.65033
810.4128, 20.62930
810.8950, 20.78974
811.3771, 21.17455
811.8592, 21.46027
812.3413, 21.35133
812.8234, 21.14690
813.3055, 21.10339
813.7877, 21.33264
814.2698, 21.48184
814.7519, 21.53065
815.2340, 21.53249
815.7161, 21.51879
816.1982, 21.49247
816.6804, 21.51899
817.1625, 21.61136
817.6446, 21.62980
818.1267, 21.38593
818.6088, 21.02412
819.0909, 20.67661
819.5731, 20.33389
820.0552, 20.20330
820.5373, 20.59599
821.0194, 21.03462
821.5015, 21.18689
821.9836, 20.96377
822.4658, 20.91044
822.9479, 21.06133
823.4300, 21.26788
823.9121, 21.43141
824.3942, 21.55130
824.8763, 21.60024
825.3585, 21.57835
825.8406, 21.57195
826.3227, 21.66965
826.8048, 21.79068
827.2869, 21.86375
827.7690, 21.87302
828.2512, 21.90365
828.7333, 21.94104
829.2154, 22.02937
829.6975, 22.20239
830.1796, 22.45855
830.6617, 22.76667
831.1439, 23.13545
831.6260, 23.36318
832.1081, 23.11362
832.5902, 22.72589
833.0723, 22.72502
833.5544, 23.11154
834.0366, 23.53541
834.5187, 23.93921
835.0008, 24.24277
835.4829, 24.36796
835.9650, 24.32516
836.4471, 24.27100
836.9293, 24.16173
837.4114, 24.16795
837.8935, 24.43197
838.3756, 24.86857
838.8577, 25.16630
839.3398, 25.34428
839.8220, 25.54243
840.3041, 25.90823
840.7862, 26.27902
841.2683, 26.52533
841.7504, 26.65921
842.2325, 26.77632
842.7147, 26.87906
843.1968, 26.98875
843.6789, 27.10939
844.1610, 27.24202
844.6431, 27.40744
845.1252, 27.60855
845.6074, 27.73357
846.0895, 27.64814
846.5716, 27.54308
847.0537, 27.76278
847.5358, 28.19405
848.0179, 28.52328
848.5001, 28.52267
848.9822, 28.49568
849.4643, 28.57912
849.9464, 28.70876
850.4285, 28.71730
850.9106, 28.55194
851.3928, 28.45299
851.8749, 28.51287
852.3570, 28.60691
852.8391, 28.41208
853.3212, 28.03254
853.8033, 27.83747
854.2855, 28.12148
854.7676, 28.34672
855.2497, 27.96037
855.7318, 27.33625
856.2139, 27.05017
856.6960, 27.63000
857.1782, 27.88909
857.6603, 27.65437
858.1424, 27.19831
858.6245, 26.87293
859.1066, 26.67362
859.5887, 26.60302
860.0709, 26.69380
860.5530, 26.75416
861.0351, 26.56846
861.5172, 26.23640
861.9993, 25.87614
862.4814, 25.47821
862.9636, 25.13931
863.4457, 24.91330
863.9278, 24.73617
864.4099, 24.58286
864.8920, 24.47087
865.3741, 24.26563
865.8563, 23.94831
866.3384, 23.61456
866.8205, 23.33611
867.3026, 23.10837
867.7847, 22.98090
868.2668, 22.96028
868.7490, 22.80324
869.2311, 22.22366
869.7132, 21.59452
870.1953, 21.18698
870.6774, 21.02463
871.1595, 20.77601
871.6417, 20.42065
872.1238, 20.03741
872.6059, 19.64319
873.0880, 19.26106
873.5701, 18.98361
874.0522, 18.81027
874.5344, 18.73657
875.0165, 18.85266
875.4986, 18.98492
875.9807, 19.08088
876.4628, 19.10973
876.9449, 18.87595
877.4271, 18.08082
877.9092, 17.56049
878.3913, 17.65097
878.8734, 18.12276
879.3555, 18.26969
879.8376, 18.11691
880.3198, 17.91117
880.8019, 17.75257
881.2840, 17.58156
881.7661, 17.27765
882.2482, 16.92986
882.7303, 16.70872
883.2125, 16.85159
883.6946, 16.86821
884.1767, 16.61633
884.6588, 16.27548
885.1409, 16.14385
885.6230, 16.22940
886.1052, 16.24740
886.5873, 16.12961
887.0694, 16.00978
887.5515, 16.05094
888.0336, 16.18832
888.5157, 16.35275
888.9979, 16.58557
889.4800, 16.67287
889.9621, 16.39896
890.4442, 16.07181
890.9263, 15.94036
891.4084, 16.07501
891.8906, 16.00734
892.3727, 15.70025
892.8548, 15.40515
893.3369, 15.36090
893.8190, 15.47121
894.3011, 15.61649
894.7833, 15.77962
895.2654, 15.83615
895.7475, 15.61783
896.2296, 15.37579
896.7117, 15.23284
897.1938, 15.18716
897.6760, 15.23614
898.1581, 15.42515
898.6402, 15.51467
899.1223, 15.31723
899.6044, 14.99737
900.0865, 14.98400
900.5687, 15.19134
901.0508, 15.30552
901.5329, 15.06739
902.0150, 14.80922
902.4971, 14.68652
902.9792, 14.66544
903.4614, 14.64162
903.9435, 14.59338
904.4256, 14.60119
904.9077, 14.69084
905.3898, 14.82004
905.8719, 14.98279
906.3541, 15.12867
906.8362, 15.05810
907.3183, 14.62574
907.8004, 14.26553
908.2825, 14.34154
908.7646, 14.58204
909.2468, 14.68700
909.7289, 14.52753
910.2110, 14.48776
910.6931, 14.58969
911.1752, 14.76357
911.6573, 14.99077
912.1395, 15.24204
912.6216, 15.40012
913.1037, 15.46027
913.5858, 15.44421
914.0679, 15.35795
914.5500, 15.20952
915.0322, 14.94547
915.5143, 14.56728
915.9964, 14.39245
916.4785, 14.50786
916.9606, 14.66458
917.4427, 14.77532
917.9249, 14.85088
918.4070, 14.97289
918.8891, 15.11287
919.3712, 15.11412
919.8533, 14.69678
920.3354, 14.32178
920.8176, 14.40776
921.2997, 14.75556
921.7818, 14.92465
922.2639, 14.72653
922.7460, 14.59792
923.2281, 14.58379
923.7103, 14.65760
924.1924, 14.83172
924.6745, 15.07402
925.1566, 15.19488
925.6387, 15.14804
926.1208, 15.05961
926.6030, 15.02179
927.0851, 14.99606
927.5672, 14.94121
928.0493, 14.83478
928.5314, 14.75475
929.0135, 14.71193
929.4957, 14.67699
929.9778, 14.60132
930.4599, 14.50865
930.9420, 14.62354
931.4241, 14.91633
931.9063, 15.06479
932.3884, 14.63304
932.8705, 14.17868
933.3526, 14.15952
933.8347, 14.50045
934.3168, 14.66974
934.7990, 14.47464
935.2811, 14.44495
935.7632, 14.78666
936.2453, 15.27973
936.7274, 15.37165
937.2095, 15.15231
937.6917, 15.00856
938.1738, 15.11856
938.6559, 15.21007
939.1380, 15.00594
939.6201, 14.70781
940.1022, 14.57969
940.5844, 14.74418
941.0665, 14.88867
941.5486, 15.03727
942.0307, 15.11193
942.5128, 14.93777
942.9949, 14.62291
943.4771, 14.66060
943.9592, 15.06578
944.4413, 15.36983
944.9234, 15.11250
945.4055, 14.77137
945.8876, 14.66305
946.3698, 14.80382
946.8519, 14.98210
947.3340, 15.27149
947.8161, 15.37665
948.2982, 15.09328
948.7803, 14.65272
949.2625, 14.68543
949.7446, 15.04184
950.2267, 15.22877
950.7088, 14.82594
951.1909, 14.48592
951.6730, 14.58517
952.1552, 14.91362
952.6373, 15.15855
953.1194, 15.31819
953.6015, 15.35042
954.0836, 15.20141
954.5657, 15.09379
955.0479, 15.40110
955.5300, 15.89760
956.0121, 16.10460
956.4942, 15.95806
956.9763, 15.75163
957.4584, 15.53075
957.9406, 15.38467
958.4227, 15.37902
958.9048, 15.50395
959.3869, 15.65097
959.8690, 15.82806
960.3511, 15.96972
960.8333, 16.03940
961.3154, 16.06063
961.7975, 16.06846
962.2796, 16.06003
962.7617, 16.02809
963.2438, 15.91055
963.7260, 15.84305
964.2081, 15.82228
964.6902, 15.89023
965.1723, 16.19280
965.6544, 16.76924
966.1365, 16.91129
966.6187, 16.46816
967.1008, 16.04922
967.5829, 16.38314
968.0650, 17.02148
968.5471, 17.46232
969.0292, 17.63407
969.5114, 17.64138
969.9935, 17.35338
970.4756, 17.09822
970.9577, 17.00095
971.4398, 17.05163
971.9219, 17.22046
972.4041, 17.49804
972.8862, 17.77585
973.3683, 18.05640
973.8504, 18.25779
974.3325, 18.21801
974.8146, 18.06947
975.2968, 18.09804
975.7789, 18.53960
976.2610, 18.81193
976.7431, 18.82348
977.2252, 18.73151
977.7073, 18.70573
978.1895, 18.74848
978.6716, 18.87834
979.1537, 19.10137
979.6358, 19.36854
980.1179, 19.67606
980.6000, 19.99181
981.0822, 20.31028
981.5642, 20.62792
982.0463, 20.87675
982.5284, 21.04807
983.0106, 21.17552
983.4927, 21.21721
983.9748, 21.27428
984.4569, 21.62175
984.9390, 22.16212
985.4211, 22.63016
985.9033, 22.88653
986.3854, 23.08548
986.8675, 23.22900
987.3496, 23.36524
987.8317, 23.52600
988.3138, 23.69459
988.7960, 24.06488
989.2781, 24.67200
989.7602, 25.31467
990.2423, 25.75659
990.7244, 26.14546
991.2065, 26.72547
991.6887, 27.52160
992.1708, 28.08208
992.6529, 28.03141
993.1350, 28.08361
993.6171, 28.49304
994.0992, 29.18311
994.5814, 29.89993
995.0635, 30.63458
995.5456, 31.28848
996.0277, 31.72574
996.5098, 32.21634
996.9919, 33.07526
997.4741, 34.07726
997.9562, 34.89268
998.4383, 35.33125
998.9204, 35.91482
999.4025, 36.68719
999.8846, 37.51586
1000.367, 38.24925
1000.849, 38.95216
1001.331, 39.78105
1001.813, 40.74411
1002.295, 41.73997
1002.777, 42.77275
1003.259, 43.78675
1003.742, 44.73200
1004.224, 45.63134
1004.706, 46.47305
1005.188, 47.24085
1005.670, 48.20958
1006.152, 49.54037
1006.634, 50.91788
1007.116, 51.86035
1007.599, 52.62855
1008.081, 53.65065
1008.563, 55.14608
1009.045, 56.60338
1009.527, 58.00840
1010.009, 59.31678
1010.491, 60.43599
1010.973, 61.41156
1011.455, 62.61072
1011.938, 64.01405
1012.420, 65.44679
1012.902, 66.89294
1013.384, 68.22169
1013.866, 69.36916
1014.348, 70.32781
1014.830, 71.04977
1015.312, 71.48876
1015.794, 71.87922
1016.277, 72.29060
1016.759, 72.56779
1017.241, 72.54629
1017.723, 72.21668
1018.205, 71.52995
1018.687, 70.46678
1019.169, 69.20705
1019.651, 67.56429
1020.134, 66.00961
1020.616, 64.86250
1021.098, 64.05170
1021.580, 62.79075
1022.062, 61.08204
1022.544, 59.42822
1023.026, 58.04656
1023.508, 56.82064
1023.990, 55.57061
1024.473, 54.42465
1024.955, 53.62568
1025.437, 53.49982
1025.919, 53.21915
1026.401, 52.68813
1026.883, 52.15845
1027.365, 51.94547
1027.847, 51.93599
1028.330, 51.70732
1028.812, 51.26347
1029.294, 51.03193
1029.776, 51.47612
1030.258, 51.96962
1030.740, 52.20992
1031.222, 52.25340
1031.704, 52.19189
1032.187, 51.99060
1032.669, 52.14876
1033.151, 52.88557
1033.633, 53.77655
1034.115, 54.22019
1034.597, 54.55853
1035.079, 55.20699
1035.561, 56.21176
1036.043, 57.70750
1036.526, 59.95261
1037.008, 62.20804
1037.490, 63.92529
1037.972, 65.29696
1038.454, 67.08231
1038.936, 69.25713
1039.418, 71.78587
1039.900, 74.60618
1040.382, 77.80676
1040.865, 81.41756
1041.347, 85.41330
1041.829, 89.62933
1042.311, 94.08243
1042.793, 98.91982
1043.275, 104.2433
1043.757, 109.6636
1044.239, 114.4369
1044.722, 119.3302
1045.204, 125.2610
1045.686, 132.2678
1046.168, 139.9047
1046.650, 148.2470
1047.132, 156.8070
1047.614, 165.4930
1048.096, 174.4193
1048.578, 183.7739
1049.061, 193.5324
1049.543, 203.6589
1050.025, 213.9744
1050.507, 224.9355
1050.989, 237.3441
1051.471, 250.1544
1051.953, 262.2984
1052.435, 273.8587
1052.917, 285.5570
1053.400, 297.4598
1053.882, 308.5850
1054.364, 318.5307
1054.846, 327.1946
1055.328, 334.6853
1055.810, 340.7543
1056.292, 344.9447
1056.774, 347.7953
1057.257, 347.5464
1057.739, 343.8336
1058.221, 337.3744
1058.703, 328.8297
1059.185, 318.2280
1059.667, 305.4795
1060.149, 290.5845
1060.631, 275.2083
1061.114, 259.9536
1061.596, 244.7271
1062.078, 229.1646
1062.560, 213.6746
1063.042, 199.0518
1063.524, 185.4076
1064.006, 173.0380
1064.488, 162.1509
1064.970, 152.1538
1065.453, 142.2383
1065.935, 132.8374
1066.417, 124.4057
1066.899, 117.2814
1067.381, 110.8887
1067.863, 105.2772
1068.345, 100.2149
1068.827, 95.48171
1069.309, 91.17235
1069.792, 87.65102
1070.274, 84.80249
1070.756, 82.23893
1071.238, 80.00056
1071.720, 77.81452
1072.202, 75.52702
1072.684, 73.37767
1073.166, 71.69434
1073.649, 70.43916
1074.131, 69.29820
1074.613, 68.25315
1075.095, 67.30546
1075.577, 66.42067
1076.059, 65.65615
1076.541, 65.05980
1077.023, 64.61993
1077.505, 64.22300
1077.988, 63.84409
1078.470, 63.68656
1078.952, 63.82961
1079.434, 64.06470
1079.916, 64.20224
1080.398, 64.24150
1080.880, 64.12363
1081.362, 63.79104
1081.844, 63.70221
1082.327, 63.94939
1082.809, 64.34049
1083.291, 64.83635
1083.773, 65.39292
1084.255, 65.89806
1084.737, 66.36417
1085.219, 66.80783
1085.701, 67.16004
1086.183, 67.65190
1086.666, 68.49250
1087.148, 69.42234
1087.630, 70.23681
1088.112, 70.93049
1088.594, 71.65554
1089.076, 72.40501
1089.558, 73.12891
1090.040, 73.68624
1090.523, 74.31786
1091.005, 75.29398
1091.487, 76.47350
1091.969, 77.48606
1092.451, 78.20255
1092.933, 79.16465
1093.415, 80.45335
1093.897, 81.84416
1094.380, 83.17142
1094.862, 84.41135
1095.344, 85.53230
1095.826, 86.53544
1096.308, 87.40702
1096.790, 87.90259
1097.272, 88.71799
1097.754, 90.19810
1098.236, 91.83213
1098.719, 92.73009
1099.201, 92.93412
1099.683, 92.50745
1100.165, 91.41115
1100.647, 90.03112
1101.129, 88.44843
1101.611, 86.71363
1102.093, 84.83015
1102.575, 82.81506
1103.058, 80.81755
1103.540, 78.83161
1104.022, 76.65945
1104.504, 74.11128
1104.986, 71.56430
1105.468, 69.24789
1105.950, 67.13447
1106.432, 65.14050
1106.915, 63.24593
1107.397, 61.59089
1107.879, 60.22008
1108.361, 58.94398
1108.843, 57.61296
1109.325, 56.34190
1109.807, 55.29092
1110.289, 54.42566
1110.771, 53.68142
1111.254, 53.02025
1111.736, 52.54420
1112.218, 52.31004
1112.700, 52.13168
1113.182, 51.73323
1113.664, 51.26185
1114.146, 51.05905
1114.628, 51.12940
1115.110, 51.26560
1115.593, 51.48107
1116.075, 51.61581
1116.557, 51.54656
1117.039, 51.46018
1117.521, 51.75996
1118.003, 52.37579
1118.485, 52.98117
1118.967, 53.53088
1119.450, 54.04672
1119.932, 54.27999
1120.414, 54.75791
1120.896, 55.92172
1121.378, 57.59634
1121.860, 58.69213
1122.342, 59.22661
1122.824, 60.14031
1123.307, 61.83349
1123.789, 63.72436
1124.271, 65.41074
1124.753, 66.96620
1125.235, 68.42356
1125.717, 69.76463
1126.199, 71.22607
1126.681, 72.77359
1127.163, 74.73658
1127.646, 77.47606
1128.128, 80.51554
1128.610, 83.35480
1129.092, 86.02818
1129.574, 88.55261
1130.056, 90.62024
1130.538, 93.16325
1131.020, 96.30960
1131.502, 99.56997
1131.985, 102.6742
1132.467, 105.5828
1132.949, 108.0796
1133.431, 110.2407
1133.913, 112.2625
1134.395, 114.8673
1134.877, 116.3303
1135.359, 116.2847
1135.842, 115.3166
1136.324, 114.1607
1136.806, 112.6658
1137.288, 110.2310
1137.770, 106.8369
1138.252, 103.0405
1138.734, 98.81431
1139.216, 94.53922
1139.698, 90.24944
1140.181, 85.99732
1140.663, 81.90665
1141.145, 77.98307
1141.627, 74.73836
1142.109, 72.26540
1142.591, 69.92506
1143.073, 67.24064
1143.555, 64.55506
1144.037, 61.94698
1144.520, 59.51679
1145.002, 57.56156
1145.484, 56.09263
1145.966, 54.75525
1146.448, 53.48596
1146.930, 52.23512
1147.412, 50.83978
1147.894, 49.50894
1148.377, 48.51978
1148.859, 47.87595
1149.341, 46.86195
1149.823, 45.41915
1150.305, 44.21297
1150.787, 43.59595
1151.269, 43.24497
1151.751, 42.91582
1152.234, 42.55450
1152.716, 42.06554
1153.198, 41.34734
1153.680, 40.84446
1154.162, 40.61242
1154.644, 40.36537
1155.126, 39.93097
1155.608, 39.37740
1156.090, 38.64117
1156.573, 37.89053
1157.055, 37.47092
1157.537, 37.89077
1158.019, 37.96454
1158.501, 37.57891
1158.983, 37.11472
1159.465, 36.94529
1159.947, 36.88287
1160.429, 36.46601
1160.912, 35.80310
1161.394, 35.31177
1161.876, 35.32497
1162.358, 35.25050
1162.840, 35.00044
1163.322, 34.67935
1163.804, 34.40461
1164.286, 34.15035
1164.769, 33.81237
1165.251, 33.40734
1165.733, 33.08224
1166.215, 33.02432
1166.697, 32.90225
1167.179, 32.66028
1167.661, 32.29322
1168.143, 31.65843
1168.625, 30.88428
1169.108, 30.53543
1169.590, 30.67299
1170.072, 30.70832
1170.554, 30.22915
1171.036, 29.72077
1171.518, 29.36891
1172.000, 29.10773
1172.482, 28.74885
1172.964, 28.33485
1173.447, 28.17504
1173.929, 28.36184
1174.411, 28.41158
1174.893, 27.86870
1175.375, 27.27802
1175.857, 26.92816
1176.339, 26.76790
1176.821, 26.62500
1177.304, 26.50300
1177.786, 26.44428
1178.268, 26.47858
1178.750, 26.49474
1179.232, 26.40163
1179.714, 26.27685
1180.196, 26.18946
1180.678, 26.12692
1181.161, 25.94616
1181.643, 25.65986
1182.125, 25.49769
1182.607, 25.60021
1183.089, 25.70211
1183.571, 25.63177
1184.053, 25.44691
1184.535, 25.19230
1185.017, 24.86887
1185.500, 24.57132
1185.982, 24.30030
1186.464, 24.08466
1186.946, 23.94542
1187.428, 23.84886
1187.910, 23.79037
1188.392, 23.74726
1188.874, 23.70354
1189.356, 23.66796
1189.839, 23.53127
1190.321, 23.29079
1190.803, 23.05229
1191.285, 22.88797
1191.767, 22.73764
1192.249, 22.47641
1192.731, 22.23477
1193.213, 22.23814
1193.696, 22.59677
1194.178, 22.62987
1194.660, 22.31281
1195.142, 22.03993
1195.624, 22.23278
1196.106, 22.43290
1196.588, 22.08878
1197.070, 21.52506
1197.552, 21.41752
1198.035, 21.92265
1198.517, 22.18432
1198.999, 22.14864
1199.481, 22.10536
1199.963, 22.29960
1200.445, 22.56717
1200.927, 22.83256
1201.409, 23.04300
1201.891, 23.05828
1202.374, 22.78991
1202.856, 22.73579
1203.338, 22.94225
1203.820, 23.24693
1204.302, 23.59886
1204.784, 23.90572
1205.266, 24.04296
1205.748, 24.06069
1206.231, 24.14574
1206.713, 24.31034
1207.195, 24.53185
1207.677, 24.82644
1208.159, 25.03899
1208.641, 24.95546
1209.123, 24.78734
1209.605, 24.75494
1210.088, 24.81751
1210.570, 24.72743
1211.052, 24.45049
1211.534, 24.21472
1212.016, 24.06103
1212.498, 23.91664
1212.980, 23.66343
1213.462, 23.42714
1213.944, 23.38331
1214.427, 23.48220
1214.909, 23.38694
1215.391, 23.07255
1215.873, 22.71725
1216.355, 22.34045
1216.837, 22.02129
1217.319, 21.87753
1217.801, 21.79971
1218.283, 21.73438
1218.766, 21.65448
1219.248, 21.42060
1219.730, 21.01346
1220.212, 20.58994
1220.694, 20.14878
1221.176, 19.88138
1221.658, 20.26691
1222.140, 20.66795
1222.623, 20.37575
1223.105, 19.48822
1223.587, 18.92743
1224.069, 18.71094
1224.551, 18.55684
1225.033, 18.39547
1225.515, 18.26810
1225.997, 18.21310
1226.479, 18.20827
1226.962, 18.31740
1227.444, 18.48530
1227.926, 18.28839
1228.408, 17.72397
1228.890, 17.18386
1229.372, 16.76704
1229.854, 16.44406
1230.336, 16.17344
1230.818, 16.00458
1231.301, 16.06876
1231.783, 16.29177
1232.265, 16.11508
1232.747, 15.55909
1233.229, 15.24920
1233.711, 15.44742
1234.193, 15.63386
1234.675, 15.30683
1235.158, 14.92106
1235.640, 14.86691
1236.122, 15.06970
1236.604, 15.03046
1237.086, 14.76894
1237.568, 14.43825
1238.050, 14.03136
1238.532, 13.74669
1239.015, 13.93811
1239.497, 14.05810
1239.979, 13.63070
1240.461, 12.84196
1240.943, 12.82809
1241.425, 13.43003
1241.907, 13.72240
1242.389, 13.30255
1242.871, 12.84715
1243.354, 12.68777
1243.836, 12.61021
1244.318, 12.50255
1244.800, 12.37536
1245.282, 12.26677
1245.764, 12.18128
1246.246, 12.14687
1246.728, 12.18591
1247.210, 12.23153
1247.693, 12.28240
1248.175, 12.30280
1248.657, 12.26504
1249.139, 12.18779
1249.621, 12.12151
1250.103, 12.06959
1250.585, 12.03678
1251.067, 12.01380
1251.550, 12.04733
1252.032, 12.17707
1252.514, 12.31326
1252.996, 12.43687
1253.478, 12.51084
1253.960, 12.41051
1254.442, 12.19654
1254.924, 11.98046
1255.406, 11.75001
1255.889, 11.67782
1256.371, 11.84979
1256.853, 11.98701
1257.335, 11.94453
1257.817, 11.78427
1258.299, 11.52962
1258.781, 11.26744
1259.263, 11.15698
1259.745, 11.30428
1260.228, 11.37185
1260.710, 11.31254
1261.192, 11.34180
1261.674, 11.64752
1262.156, 11.96991
1262.638, 11.88524
1263.120, 11.61300
1263.602, 11.48145
1264.085, 11.57703
1264.567, 11.49972
1265.049, 11.22246
1265.531, 11.00649
1266.013, 10.95956
1266.495, 11.04720
1266.977, 11.39580
1267.459, 11.75834
1267.942, 11.78957
1268.424, 11.47713
1268.906, 11.31999
1269.388, 11.31566
1269.870, 11.37329
1270.352, 11.49660
1270.834, 11.58020
1271.316, 11.50070
1271.798, 11.38433
1272.281, 11.34367
1272.763, 11.37187
1273.245, 11.44569
1273.727, 11.53937
1274.209, 11.44594
1274.691, 10.95241
1275.173, 10.60017
1275.655, 10.82934
1276.137, 11.10612
1276.620, 11.05594
1277.102, 10.81806
1277.584, 11.13411
1278.066, 11.78027
1278.548, 11.92530
1279.030, 11.03436
1279.512, 10.49445
1279.994, 10.89496
1280.476, 11.32759
1280.959, 11.35846
1281.441, 11.12642
1281.923, 10.83928
1282.405, 10.58459
1282.887, 10.58373
1283.369, 10.99648
1283.851, 11.22320
1284.333, 11.14983
1284.816, 11.09455
1285.298, 11.24283
1285.780, 11.40782
1286.262, 11.20599
1286.744, 10.88158
1287.226, 10.82292
1287.708, 11.15390
1288.190, 11.23021
1288.672, 11.00262
1289.155, 10.85912
1289.637, 10.98192
1290.119, 11.15737
1290.601, 11.16976
1291.083, 11.12262
1291.565, 11.14504
1292.047, 11.22810
1292.529, 11.18975
1293.011, 11.03221
1293.494, 10.82057
1293.976, 10.53749
1294.458, 10.34316
1294.940, 10.41335
1295.422, 10.55206
1295.904, 10.62782
1296.386, 10.65894
1296.868, 10.75150
1297.351, 10.86892
1297.833, 10.83464
1298.315, 10.57172
1298.797, 10.35616
1299.279, 10.31285
1299.761, 10.34246
1300.243, 10.45034
1300.725, 10.56317
1301.208, 10.46104
1301.690, 10.27133
1302.172, 10.30635
1302.654, 10.65378
1303.136, 10.77126
1303.618, 10.46662
1304.100, 10.26603
1304.582, 10.30072
1305.064, 10.57161
##END=



