##NAMES=Leadhillite
##RRUFFID=R060047
##IDEAL CHEMISTRY=Pb^2+^_4_(S^6+^O_4_)(CO_3_)_2_(OH)_2_
##LOCALITY=Tsumeb mine, Tsumeb, Otavi District, Oshikoto, Namibia
##OWNER=RRUFF
##SOURCE=University of Arizona Mineral Museum
##DESCRIPTION=Grayish-blue cleavage fragment
##STATUS=The identification of this mineral has been confirmed by X-ray diffraction and chemical analysis
##URL=rruff.info/R060047
##MEASURED CHEMISTRY=Pb_4.00_(S_1.00_O_4_)(CO_3_)_2_(OH)_2_
94.79071, 535.7091
95.27283, 527.8365
95.75494, 562.6694
96.23706, 624.7862
96.71918, 696.2266
97.20129, 775.6647
97.68341, 861.6592
98.16553, 952.8358
98.64764, 1048.657
99.12976, 1153.203
99.61188, 1269.044
100.0940, 1392.070
100.5761, 1515.662
101.0582, 1639.774
101.5403, 1761.551
102.0225, 1880.262
102.5046, 1994.682
102.9867, 2106.530
103.4688, 2216.264
103.9509, 2323.007
104.4330, 2428.946
104.9152, 2531.819
105.3973, 2633.981
105.8794, 2734.749
106.3615, 2831.204
106.8436, 2932.809
107.3257, 3041.330
107.8079, 3154.295
108.2900, 3281.736
108.7721, 3426.814
109.2542, 3583.441
109.7363, 3747.997
110.2184, 3923.947
110.7006, 4103.318
111.1827, 4283.705
111.6648, 4466.989
112.1469, 4646.605
112.6290, 4824.800
113.1111, 4996.727
113.5933, 5159.441
114.0754, 5312.700
114.5575, 5454.938
115.0396, 5585.484
115.5217, 5711.386
116.0038, 5817.877
116.4860, 5900.415
116.9681, 5960.489
117.4502, 6003.427
117.9323, 6026.997
118.4144, 6036.229
118.8965, 6034.748
119.3786, 6022.813
119.8608, 6001.100
120.3429, 5970.144
120.8250, 5929.677
121.3071, 5879.344
121.7892, 5813.702
122.2713, 5739.146
122.7535, 5663.345
123.2356, 5589.728
123.7177, 5515.710
124.1998, 5438.444
124.6819, 5356.763
125.1640, 5276.218
125.6462, 5199.437
126.1283, 5126.099
126.6104, 5055.530
127.0925, 4986.958
127.5746, 4920.828
128.0567, 4860.054
128.5389, 4805.205
129.0210, 4750.915
129.5031, 4692.795
129.9852, 4630.748
130.4673, 4565.376
130.9494, 4494.901
131.4316, 4419.608
131.9137, 4328.706
132.3958, 4221.132
132.8779, 4117.649
133.3600, 4010.618
133.8421, 3901.056
134.3243, 3792.270
134.8064, 3684.914
135.2885, 3579.984
135.7706, 3479.541
136.2527, 3383.439
136.7348, 3291.432
137.2170, 3204.542
137.6991, 3121.453
138.1812, 3044.286
138.6633, 2975.537
139.1454, 2915.405
139.6275, 2856.778
140.1097, 2798.717
140.5918, 2741.313
141.0739, 2686.780
141.5560, 2635.103
142.0381, 2586.892
142.5202, 2542.281
143.0023, 2502.088
143.4845, 2464.044
143.9666, 2428.114
144.4487, 2393.973
144.9308, 2362.123
145.4129, 2331.916
145.8951, 2304.304
146.3772, 2279.724
146.8593, 2260.551
147.3414, 2240.893
147.8235, 2219.398
148.3056, 2195.207
148.7878, 2172.517
149.2699, 2150.945
149.7520, 2130.714
150.2341, 2112.307
150.7162, 2094.401
151.1983, 2079.216
151.6805, 2067.610
152.1626, 2061.320
152.6447, 2054.281
153.1268, 2045.363
153.6089, 2035.745
154.0910, 2027.437
154.5732, 2020.445
155.0553, 2014.732
155.5374, 2010.212
156.0195, 2006.343
156.5016, 2004.697
156.9837, 2006.487
157.4659, 2010.644
157.9480, 2014.937
158.4301, 2019.963
158.9122, 2024.235
159.3943, 2027.006
159.8764, 2027.952
160.3586, 2027.778
160.8407, 2025.242
161.3228, 2021.501
161.8049, 2019.777
162.2870, 2023.169
162.7691, 2027.704
163.2513, 2030.750
163.7334, 2030.572
164.2155, 2030.336
164.6976, 2031.871
165.1797, 2034.609
165.6618, 2036.363
166.1440, 2037.268
166.6261, 2036.173
167.1082, 2031.999
167.5903, 2023.057
168.0724, 2012.438
168.5545, 2001.154
169.0367, 1989.420
169.5188, 1978.524
170.0009, 1970.794
170.4830, 1963.902
170.9651, 1954.915
171.4472, 1941.901
171.9293, 1927.319
172.4115, 1912.999
172.8936, 1898.911
173.3757, 1884.505
173.8578, 1869.589
174.3399, 1854.242
174.8220, 1838.416
175.3042, 1821.896
175.7863, 1805.030
176.2684, 1788.255
176.7505, 1771.541
177.2326, 1753.799
177.7147, 1733.437
178.1969, 1711.347
178.6790, 1689.943
179.1611, 1669.774
179.6432, 1650.965
180.1253, 1634.068
180.6074, 1619.277
181.0896, 1605.440
181.5717, 1591.512
182.0538, 1577.741
182.5359, 1564.363
183.0180, 1552.095
183.5001, 1540.410
183.9823, 1528.163
184.4644, 1515.333
184.9465, 1502.841
185.4286, 1492.184
185.9107, 1483.030
186.3928, 1474.166
186.8750, 1464.691
187.3571, 1455.081
187.8392, 1446.742
188.3213, 1439.888
188.8034, 1433.762
189.2855, 1427.542
189.7677, 1421.280
190.2498, 1415.236
190.7319, 1410.054
191.2140, 1405.409
191.6961, 1399.248
192.1782, 1391.220
192.6604, 1382.745
193.1425, 1376.421
193.6246, 1372.262
194.1067, 1367.770
194.5888, 1361.501
195.0709, 1353.696
195.5531, 1346.432
196.0352, 1339.883
196.5173, 1333.456
196.9994, 1325.756
197.4815, 1316.627
197.9636, 1308.114
198.4458, 1301.259
198.9279, 1296.069
199.4100, 1291.011
199.8921, 1285.861
200.3742, 1281.014
200.8563, 1277.705
201.3385, 1276.277
201.8206, 1274.071
202.3027, 1269.252
202.7848, 1261.509
203.2669, 1254.966
203.7490, 1249.802
204.2311, 1245.762
204.7133, 1242.567
205.1954, 1240.457
205.6775, 1238.280
206.1596, 1235.285
206.6417, 1231.253
207.1238, 1228.231
207.6060, 1226.972
208.0881, 1226.080
208.5702, 1221.959
209.0523, 1213.509
209.5344, 1205.201
210.0165, 1199.635
210.4987, 1197.680
210.9808, 1194.105
211.4629, 1188.347
211.9450, 1181.227
212.4271, 1174.543
212.9092, 1168.190
213.3914, 1162.502
213.8735, 1157.869
214.3556, 1154.814
214.8377, 1150.986
215.3198, 1146.355
215.8019, 1140.946
216.2841, 1134.890
216.7662, 1128.007
217.2483, 1120.825
217.7304, 1113.506
218.2125, 1106.024
218.6946, 1098.715
219.1768, 1091.444
219.6589, 1084.458
220.1410, 1078.257
220.6231, 1073.686
221.1052, 1068.298
221.5873, 1060.526
222.0695, 1049.013
222.5516, 1039.250
223.0337, 1031.982
223.5158, 1026.239
223.9979, 1019.037
224.4800, 1009.228
224.9622, 1000.041
225.4443, 993.2967
225.9264, 990.4833
226.4085, 986.1057
226.8906, 979.5475
227.3727, 971.6704
227.8549, 964.1832
228.3370, 957.4562
228.8191, 950.6302
229.3012, 943.1064
229.7833, 934.2239
230.2654, 926.6243
230.7476, 920.7998
231.2297, 916.1328
231.7118, 911.1318
232.1939, 905.1456
232.6760, 899.9023
233.1581, 896.3231
233.6402, 895.5850
234.1224, 893.2643
234.6045, 888.5729
235.0866, 882.5576
235.5687, 877.5006
236.0508, 873.7131
236.5329, 870.3091
237.0151, 867.1688
237.4972, 864.7720
237.9793, 861.1193
238.4614, 855.5288
238.9435, 848.9529
239.4256, 843.2220
239.9078, 838.8693
240.3899, 834.6237
240.8720, 830.1445
241.3541, 825.5382
241.8362, 820.3659
242.3183, 814.2596
242.8005, 807.7676
243.2826, 801.7352
243.7647, 796.2116
244.2468, 791.1979
244.7289, 786.7624
245.2110, 783.0198
245.6932, 779.4325
246.1753, 776.2267
246.6574, 773.0251
247.1395, 769.0346
247.6216, 763.2272
248.1037, 758.4858
248.5859, 755.9800
249.0680, 756.3029
249.5501, 755.5704
250.0322, 753.0353
250.5143, 750.0145
250.9964, 748.4491
251.4786, 749.4485
251.9607, 749.8456
252.4428, 748.6031
252.9249, 745.4766
253.4070, 742.9476
253.8891, 741.1903
254.3713, 739.8760
254.8534, 738.5282
255.3355, 736.7587
255.8176, 735.8107
256.2997, 736.2106
256.7818, 738.0460
257.2639, 739.4335
257.7461, 740.4506
258.2282, 740.9349
258.7103, 740.4899
259.1924, 738.3299
259.6745, 737.1000
260.1566, 737.7650
260.6388, 740.2522
261.1209, 741.3088
261.6030, 740.4005
262.0851, 738.8192
262.5672, 737.8436
263.0493, 737.9039
263.5315, 737.3727
264.0136, 735.8124
264.4957, 733.3651
264.9778, 731.2701
265.4599, 729.8387
265.9420, 728.2708
266.4242, 725.8989
266.9063, 722.4806
267.3884, 718.9978
267.8705, 715.6132
268.3526, 712.2833
268.8347, 708.8210
269.3169, 705.5167
269.7990, 701.4879
270.2811, 695.9029
270.7632, 688.4381
271.2453, 680.9132
271.7274, 673.4905
272.2096, 666.0901
272.6917, 658.0474
273.1738, 649.0803
273.6559, 640.0421
274.1380, 631.4792
274.6201, 623.3922
275.1023, 615.2950
275.5844, 607.0953
276.0665, 598.9655
276.5486, 591.2251
277.0307, 584.2096
277.5128, 576.3899
277.9950, 566.1960
278.4771, 553.2864
278.9592, 543.0712
279.4413, 536.2729
279.9234, 531.2700
280.4055, 525.0270
280.8877, 517.3405
281.3698, 509.7308
281.8519, 502.9349
282.3340, 496.9456
282.8161, 490.9879
283.2982, 485.0483
283.7804, 479.1260
284.2625, 473.2235
284.7446, 467.3002
285.2267, 461.6882
285.7088, 456.4709
286.1909, 451.6581
286.6731, 447.3885
287.1552, 443.7065
287.6373, 440.3641
288.1194, 437.1961
288.6015, 434.1804
289.0836, 431.1552
289.5658, 427.9825
290.0479, 424.7743
290.5300, 421.8854
291.0121, 419.3400
291.4942, 417.1437
291.9763, 415.5112
292.4585, 414.3469
292.9406, 412.9247
293.4227, 410.8410
293.9048, 408.5543
294.3869, 407.3060
294.8690, 407.0897
295.3512, 406.8340
295.8333, 405.2202
296.3154, 402.7776
296.7975, 401.3230
297.2796, 401.5957
297.7617, 402.5146
298.2439, 402.1362
298.7260, 400.6460
299.2081, 399.4776
299.6902, 400.0866
300.1723, 401.6862
300.6544, 402.4916
301.1366, 401.9805
301.6187, 401.2875
302.1008, 402.0052
302.5829, 403.7919
303.0650, 405.3846
303.5471, 405.8238
304.0293, 405.6821
304.5114, 405.8022
304.9935, 406.2994
305.4756, 406.8603
305.9577, 406.9348
306.4398, 406.8301
306.9220, 407.2570
307.4041, 409.1894
307.8862, 411.4575
308.3683, 412.9565
308.8504, 413.6058
309.3326, 413.7536
309.8147, 412.9905
310.2968, 412.0087
310.7789, 411.8346
311.2610, 413.6986
311.7431, 415.9391
312.2252, 417.4258
312.7073, 418.1752
313.1895, 418.5421
313.6716, 418.7429
314.1537, 418.6696
314.6358, 418.1923
315.1179, 416.9540
315.6000, 415.6527
316.0822, 414.4557
316.5643, 413.4380
317.0464, 412.9072
317.5285, 413.0214
318.0106, 413.6549
318.4927, 414.8000
318.9749, 416.9258
319.4570, 418.7510
319.9391, 419.7838
320.4212, 420.1644
320.9033, 420.2549
321.3854, 419.9912
321.8676, 419.5886
322.3497, 419.0865
322.8318, 418.3660
323.3139, 417.9075
323.7960, 417.9451
324.2781, 418.2754
324.7603, 418.6043
325.2424, 418.7476
325.7245, 419.0172
326.2066, 419.6520
326.6887, 420.8030
327.1708, 421.4762
327.6530, 421.0127
328.1351, 420.3125
328.6172, 420.1978
329.0993, 421.4880
329.5814, 422.5045
330.0635, 422.9283
330.5457, 422.7823
331.0278, 422.7720
331.5099, 422.9105
331.9920, 423.1747
332.4741, 423.5590
332.9562, 424.2227
333.4384, 424.7184
333.9205, 424.8187
334.4026, 424.7168
334.8847, 425.1441
335.3668, 426.2159
335.8489, 427.6479
336.3311, 429.3531
336.8132, 431.4759
337.2953, 433.5418
337.7774, 435.7474
338.2595, 437.7230
338.7416, 438.4194
339.2238, 437.1411
339.7059, 436.6877
340.1880, 438.4787
340.6701, 442.6303
341.1522, 445.4819
341.6343, 446.7716
342.1165, 447.3971
342.5986, 448.1826
343.0807, 449.0701
343.5628, 450.8427
344.0449, 454.0225
344.5270, 458.2164
345.0092, 461.8521
345.4913, 464.9065
345.9734, 467.7957
346.4555, 470.9048
346.9376, 474.1851
347.4197, 477.4384
347.9019, 480.5267
348.3840, 483.6566
348.8661, 487.4479
349.3482, 491.8389
349.8303, 496.2451
350.3124, 500.2865
350.7946, 504.0853
351.2767, 507.9389
351.7588, 511.8825
352.2409, 516.0591
352.7230, 520.8734
353.2051, 526.1329
353.6873, 531.3704
354.1694, 536.0267
354.6515, 540.6396
355.1336, 546.0351
355.6157, 552.3223
356.0978, 558.6219
356.5800, 564.6814
357.0621, 570.2987
357.5442, 575.1471
358.0263, 578.5548
358.5084, 581.6715
358.9905, 585.4208
359.4727, 589.6813
359.9548, 593.9075
360.4369, 597.5059
360.9190, 601.0509
361.4011, 605.1133
361.8832, 610.3125
362.3654, 615.0626
362.8475, 618.7448
363.3296, 621.4733
363.8117, 623.4978
364.2938, 625.0181
364.7759, 625.7355
365.2581, 625.4127
365.7402, 623.8871
366.2223, 621.9373
366.7044, 619.5962
367.1865, 616.9716
367.6686, 614.1432
368.1508, 610.9255
368.6329, 607.7520
369.1150, 604.7429
369.5971, 601.9041
370.0792, 598.9968
370.5613, 595.7786
371.0435, 592.6980
371.5256, 590.0467
372.0077, 588.1069
372.4898, 586.1318
372.9719, 583.8006
373.4540, 581.4126
373.9361, 580.0289
374.4182, 580.3801
374.9004, 580.5533
375.3825, 579.5480
375.8646, 576.8827
376.3467, 575.2214
376.8288, 574.8917
377.3109, 575.1229
377.7931, 574.5880
378.2752, 572.9313
378.7573, 572.1268
379.2394, 572.8966
379.7215, 575.0485
380.2036, 577.4600
380.6858, 580.1884
381.1679, 582.6965
381.6500, 584.1913
382.1321, 584.7963
382.6142, 585.8638
383.0963, 587.6425
383.5785, 590.0276
384.0606, 593.1616
384.5427, 596.9251
385.0248, 600.5199
385.5069, 602.9716
385.9890, 604.9154
386.4712, 607.8016
386.9533, 611.7887
387.4354, 616.4033
387.9175, 621.4812
388.3996, 626.7151
388.8817, 631.4465
389.3639, 634.6694
389.8460, 637.6166
390.3281, 641.6390
390.8102, 646.6695
391.2923, 651.8893
391.7744, 657.0707
392.2566, 662.0753
392.7387, 666.7535
393.2208, 670.4127
393.7029, 674.7064
394.1850, 680.9752
394.6671, 688.6074
395.1493, 696.0424
395.6314, 702.8251
396.1135, 709.1539
396.5956, 714.9639
397.0777, 720.0081
397.5598, 725.7242
398.0420, 732.7384
398.5241, 740.4875
399.0062, 748.3213
399.4883, 756.4278
399.9704, 764.3462
400.4525, 771.5934
400.9347, 778.2368
401.4168, 785.7330
401.8989, 794.4352
402.3810, 803.6575
402.8631, 812.9847
403.3452, 822.2139
403.8274, 831.9496
404.3095, 842.0007
404.7916, 852.5812
405.2737, 864.1834
405.7558, 877.1268
406.2379, 890.3669
406.7201, 903.3670
407.2022, 916.0573
407.6843, 930.7675
408.1664, 947.9790
408.6485, 965.6930
409.1306, 981.1032
409.6128, 994.2750
410.0949, 1007.617
410.5770, 1021.248
411.0591, 1035.858
411.5412, 1053.386
412.0233, 1073.946
412.5055, 1095.244
412.9876, 1116.212
413.4697, 1136.726
413.9518, 1156.204
414.4339, 1174.303
414.9160, 1191.714
415.3982, 1209.213
415.8803, 1226.402
416.3624, 1243.162
416.8445, 1259.773
417.3266, 1275.603
417.8087, 1290.035
418.2909, 1302.997
418.7730, 1315.748
419.2551, 1328.864
419.7372, 1342.126
420.2193, 1355.134
420.7014, 1367.557
421.1836, 1380.064
421.6657, 1392.422
422.1478, 1404.928
422.6299, 1418.527
423.1120, 1433.384
423.5941, 1449.455
424.0763, 1466.926
424.5584, 1486.773
425.0405, 1504.914
425.5226, 1521.396
426.0047, 1535.746
426.4868, 1547.362
426.9690, 1556.550
427.4511, 1562.604
427.9332, 1565.103
428.4153, 1564.273
428.8974, 1561.366
429.3795, 1557.310
429.8617, 1549.727
430.3438, 1537.366
430.8259, 1519.751
431.3080, 1498.528
431.7901, 1472.885
432.2722, 1444.945
432.7544, 1416.920
433.2365, 1388.964
433.7186, 1360.653
434.2007, 1331.546
434.6828, 1302.029
435.1649, 1273.231
435.6470, 1245.097
436.1292, 1218.574
436.6113, 1195.003
437.0934, 1173.716
437.5755, 1152.728
438.0576, 1131.767
438.5397, 1110.814
439.0219, 1089.756
439.5040, 1068.582
439.9861, 1047.707
440.4682, 1027.930
440.9503, 1007.968
441.4324, 986.9399
441.9146, 964.7990
442.3967, 940.7625
442.8788, 913.1083
443.3609, 883.6469
443.8430, 854.8788
444.3251, 826.7018
444.8073, 799.5717
445.2894, 773.5197
445.7715, 748.6178
446.2536, 725.0590
446.7357, 702.6093
447.2178, 681.6629
447.7000, 662.6107
448.1821, 645.7492
448.6642, 629.2240
449.1463, 612.5347
449.6284, 596.4565
450.1105, 581.5223
450.5927, 567.9633
451.0748, 555.0862
451.5569, 542.6515
452.0390, 530.8275
452.5211, 519.8928
453.0032, 510.1992
453.4854, 500.7234
453.9675, 490.7769
454.4496, 480.2106
454.9317, 471.3196
455.4138, 464.4169
455.8959, 458.5128
456.3781, 452.5367
456.8602, 446.4813
457.3423, 440.4764
457.8244, 434.6965
458.3065, 428.9205
458.7886, 422.7724
459.2708, 416.2203
459.7529, 409.7856
460.2350, 403.4268
460.7171, 397.4061
461.1992, 392.0517
461.6813, 387.5048
462.1635, 383.2654
462.6456, 378.9912
463.1277, 374.7286
463.6098, 370.5239
464.0919, 366.3533
464.5740, 362.2969
465.0562, 358.3235
465.5383, 354.4616
466.0204, 350.7933
466.5025, 347.6078
466.9846, 344.3726
467.4667, 340.8961
467.9489, 337.4909
468.4310, 333.1252
468.9131, 327.0848
469.3952, 320.3292
469.8773, 314.1397
470.3594, 309.0613
470.8416, 303.5612
471.3237, 297.1307
471.8058, 289.9671
472.2879, 283.3829
472.7700, 277.6791
473.2521, 271.8615
473.7343, 265.1216
474.2164, 257.3603
474.6985, 250.4662
475.1806, 244.6567
475.6627, 239.4035
476.1448, 233.8445
476.6270, 228.0335
477.1091, 222.4342
477.5912, 217.2215
478.0733, 212.3150
478.5554, 207.5714
479.0375, 202.9746
479.5197, 198.6023
480.0018, 194.3570
480.4839, 190.3731
480.9660, 186.8728
481.4481, 183.9569
481.9302, 181.2426
482.4124, 178.5325
482.8945, 175.8451
483.3766, 173.2017
483.8587, 170.6371
484.3408, 168.0662
484.8229, 165.3151
485.3051, 162.4357
485.7872, 159.9664
486.2693, 158.3608
486.7514, 156.8858
487.2335, 155.2159
487.7156, 153.3826
488.1978, 151.1913
488.6799, 148.1586
489.1620, 145.0615
489.6441, 143.0476
490.1262, 142.5840
490.6083, 141.9451
491.0905, 140.6731
491.5726, 138.9662
492.0547, 137.7258
492.5368, 137.0242
493.0189, 136.4538
493.5010, 135.9036
493.9832, 135.3252
494.4653, 134.2179
494.9474, 132.4820
495.4295, 130.6565
495.9116, 129.3224
496.3937, 128.3853
496.8758, 127.6338
497.3579, 127.0684
497.8401, 126.5616
498.3222, 125.9173
498.8043, 125.1895
499.2864, 124.5751
499.7685, 124.3941
500.2506, 124.2163
500.7328, 123.6962
501.2149, 122.7532
501.6970, 121.7630
502.1791, 120.7689
502.6612, 119.8410
503.1433, 119.0458
503.6255, 118.6119
504.1076, 118.0573
504.5897, 117.0363
505.0718, 115.8404
505.5539, 115.3817
506.0360, 116.3138
506.5182, 116.9938
507.0003, 116.7197
507.4824, 115.4141
507.9645, 114.6378
508.4466, 114.5844
508.9287, 114.6176
509.4109, 114.0193
509.8930, 112.7970
510.3751, 111.9580
510.8572, 111.7235
511.3393, 111.7699
511.8214, 111.5766
512.3036, 111.1716
512.7857, 110.7093
513.2678, 110.2903
513.7499, 109.8443
514.2321, 109.1479
514.7142, 108.2439
515.1963, 107.5767
515.6784, 107.8520
516.1605, 108.2929
516.6426, 108.0642
517.1248, 106.6868
517.6069, 105.4730
518.0890, 105.1912
518.5711, 105.3322
519.0532, 105.1670
519.5353, 104.1088
520.0175, 103.2032
520.4996, 102.7019
520.9817, 102.5749
521.4638, 102.6061
521.9459, 103.0445
522.4280, 103.3120
522.9102, 103.0498
523.3923, 102.0765
523.8744, 101.4728
524.3565, 101.3406
524.8386, 101.3613
525.3207, 101.1075
525.8029, 100.5828
526.2849, 100.1804
526.7670, 99.98339
527.2491, 99.96779
527.7313, 100.3088
528.2134, 100.8991
528.6955, 101.0991
529.1776, 100.0893
529.6597, 98.69116
530.1418, 98.05505
530.6240, 98.23143
531.1061, 98.46902
531.5882, 98.21587
532.0703, 97.81856
532.5524, 97.63413
533.0345, 97.94449
533.5167, 98.11536
533.9988, 97.72001
534.4809, 97.08920
534.9630, 96.78784
535.4451, 97.36993
535.9272, 97.76265
536.4094, 97.65214
536.8915, 97.08870
537.3736, 96.75697
537.8557, 96.81351
538.3378, 96.83635
538.8199, 96.47493
539.3021, 95.60384
539.7842, 95.41250
540.2663, 96.09730
540.7484, 96.94344
541.2305, 96.97841
541.7126, 96.30348
542.1948, 95.71681
542.6769, 95.40593
543.1590, 95.31643
543.6411, 95.49546
544.1232, 95.86718
544.6053, 96.14569
545.0875, 96.18039
545.5696, 96.04977
546.0517, 95.81177
546.5338, 95.47108
547.0159, 95.06107
547.4980, 94.36115
547.9802, 93.73793
548.4623, 93.49837
548.9444, 93.96443
549.4265, 94.33426
549.9086, 94.40165
550.3907, 94.33409
550.8729, 94.37980
551.3550, 94.63704
551.8371, 94.83321
552.3192, 94.88173
552.8013, 94.82081
553.2834, 94.85345
553.7656, 94.98170
554.2477, 95.19180
554.7298, 95.61629
555.2119, 96.19426
555.6940, 96.22971
556.1761, 95.67312
556.6583, 94.96605
557.1404, 94.42094
557.6225, 94.06921
558.1046, 94.03031
558.5867, 94.42713
559.0688, 94.91170
559.5510, 95.20277
560.0331, 95.34984
560.5152, 95.45580
560.9973, 95.69279
561.4794, 95.78127
561.9615, 95.43032
562.4437, 94.71080
562.9258, 94.27492
563.4079, 94.64314
563.8900, 94.99156
564.3721, 94.83764
564.8542, 93.84370
565.3364, 93.51134
565.8185, 94.12316
566.3006, 95.05891
566.7827, 95.75357
567.2648, 96.21322
567.7469, 96.30130
568.2291, 95.85051
568.7112, 95.23152
569.1933, 95.26736
569.6754, 95.89945
570.1575, 96.47887
570.6396, 96.70335
571.1218, 96.69826
571.6039, 96.57526
572.0860, 96.36101
572.5681, 96.25454
573.0502, 96.37459
573.5323, 96.67040
574.0145, 97.17674
574.4966, 97.97070
574.9787, 98.57095
575.4608, 98.49210
575.9429, 98.26409
576.4250, 98.40514
576.9072, 99.21772
577.3893, 100.1345
577.8714, 101.2127
578.3535, 102.3334
578.8356, 103.1395
579.3177, 103.4232
579.7999, 103.9166
580.2820, 104.9433
580.7641, 106.3930
581.2462, 107.4949
581.7283, 108.2134
582.2104, 108.9425
582.6926, 109.9691
583.1747, 111.2287
583.6568, 112.5161
584.1389, 113.8222
584.6210, 115.2324
585.1031, 116.9168
585.5853, 118.7190
586.0674, 120.3847
586.5495, 121.7113
587.0316, 123.1044
587.5137, 124.8031
587.9958, 126.7168
588.4780, 128.6817
588.9601, 130.5530
589.4422, 132.5783
589.9243, 134.8909
590.4064, 137.4582
590.8885, 140.0287
591.3707, 142.5846
591.8528, 145.1705
592.3349, 147.7636
592.8170, 150.3499
593.2991, 153.3069
593.7813, 156.7531
594.2634, 160.1943
594.7455, 162.9545
595.2276, 165.2065
595.7097, 167.7082
596.1918, 170.6254
596.6740, 173.7371
597.1561, 176.9566
597.6382, 180.1534
598.1203, 182.9699
598.6024, 185.1949
599.0845, 187.0886
599.5667, 188.9372
600.0488, 190.6224
600.5309, 191.6612
601.0130, 191.5049
601.4951, 191.0448
601.9772, 190.6805
602.4594, 190.4750
602.9415, 189.9065
603.4236, 189.0748
603.9057, 187.7543
604.3878, 185.7095
604.8699, 182.9033
605.3521, 179.7947
605.8342, 176.2943
606.3163, 172.7615
606.7984, 169.6991
607.2805, 167.0377
607.7626, 164.1793
608.2448, 160.7976
608.7269, 157.4119
609.2090, 154.5403
609.6911, 152.1298
610.1732, 149.9510
610.6553, 147.9659
611.1375, 146.1386
611.6196, 144.6502
612.1017, 143.4267
612.5838, 141.8124
613.0659, 138.9328
613.5480, 136.1922
614.0302, 134.3672
614.5123, 133.6519
614.9944, 133.0560
615.4765, 132.7757
615.9586, 132.3722
616.4407, 131.3244
616.9229, 129.5268
617.4050, 128.1197
617.8871, 127.3004
618.3692, 126.6839
618.8513, 125.5530
619.3334, 124.0605
619.8156, 122.8938
620.2977, 122.4666
620.7798, 122.2953
621.2619, 121.9026
621.7440, 121.3205
622.2261, 120.6306
622.7083, 119.8798
623.1904, 119.0355
623.6725, 118.0722
624.1546, 116.9980
624.6367, 115.8378
625.1188, 114.2743
625.6010, 112.9099
626.0831, 112.0781
626.5652, 111.9518
627.0473, 111.6885
627.5294, 111.2451
628.0115, 110.7332
628.4937, 110.2381
628.9758, 109.7539
629.4579, 109.4323
629.9400, 109.3562
630.4221, 109.2637
630.9042, 108.7265
631.3864, 107.8492
631.8685, 106.9765
632.3506, 106.3213
632.8327, 105.6211
633.3148, 104.5372
633.7969, 103.2055
634.2791, 102.0477
634.7612, 101.1362
635.2433, 100.5082
635.7254, 100.3226
636.2075, 100.5939
636.6896, 100.5908
637.1718, 100.2454
637.6539, 99.68448
638.1360, 98.89275
638.6181, 97.80009
639.1002, 97.04964
639.5823, 96.73824
640.0645, 96.47961
640.5466, 95.77940
641.0287, 94.74716
641.5108, 94.04810
641.9929, 93.86418
642.4750, 93.74390
642.9572, 93.06920
643.4393, 92.11488
643.9214, 91.38120
644.4035, 91.20126
644.8856, 91.11546
645.3677, 90.97609
645.8499, 90.75309
646.3320, 90.37875
646.8141, 89.32472
647.2962, 88.68656
647.7783, 88.98566
648.2604, 90.04900
648.7426, 90.48852
649.2247, 90.18651
649.7068, 89.52245
650.1888, 88.50715
650.6710, 87.20196
651.1531, 86.39500
651.6352, 86.12274
652.1173, 86.05754
652.5994, 86.06538
653.0815, 86.05314
653.5637, 85.73964
654.0458, 85.01251
654.5279, 84.47414
655.0100, 84.74067
655.4921, 85.36185
655.9742, 85.83602
656.4564, 86.03648
656.9385, 86.07903
657.4206, 85.88895
657.9027, 85.57979
658.3848, 85.33563
658.8669, 85.14596
659.3491, 85.02924
659.8312, 84.94353
660.3133, 84.95347
660.7954, 85.31998
661.2775, 86.06432
661.7596, 86.80110
662.2418, 87.39204
662.7239, 87.84243
663.2060, 87.97356
663.6881, 87.87047
664.1702, 88.11388
664.6523, 89.38396
665.1345, 90.96450
665.6166, 92.20023
666.0987, 93.01585
666.5808, 93.92352
667.0629, 95.27076
667.5450, 96.64244
668.0272, 97.69440
668.5093, 98.10718
668.9914, 99.02928
669.4735, 100.6069
669.9556, 102.5162
670.4377, 104.4311
670.9199, 106.3177
671.4020, 108.4386
671.8841, 110.7874
672.3662, 113.4988
672.8483, 116.7395
673.3304, 120.4820
673.8126, 124.6130
674.2947, 129.1405
674.7768, 133.9898
675.2589, 139.3830
675.7410, 145.1260
676.2231, 150.7976
676.7053, 155.7529
677.1874, 161.0307
677.6695, 167.3320
678.1516, 174.4369
678.6337, 181.0724
679.1158, 188.9294
679.5980, 193.5206
680.0801, 192.9378
680.5622, 187.3894
681.0443, 178.8418
681.5264, 167.0795
682.0085, 155.0162
682.4907, 144.5231
682.9728, 135.5310
683.4549, 127.8722
683.9370, 121.6131
684.4191, 116.1752
684.9012, 111.2678
685.3834, 106.9593
685.8655, 103.3787
686.3476, 100.6383
686.8297, 98.49369
687.3118, 97.03446
687.7939, 96.11057
688.2761, 95.56098
688.7582, 95.45269
689.2403, 95.63088
689.7224, 96.28668
690.2045, 96.97729
690.6866, 96.87169
691.1688, 95.98093
691.6509, 95.17808
692.1330, 94.63994
692.6151, 94.39304
693.0972, 94.48647
693.5793, 94.91548
694.0615, 95.65398
694.5436, 96.84920
695.0257, 98.22011
695.5078, 99.60826
695.9899, 101.0285
696.4720, 102.5504
696.9542, 104.0522
697.4363, 105.8200
697.9184, 107.9215
698.4005, 110.3553
698.8826, 112.9942
699.3647, 115.9104
699.8469, 118.8217
700.3290, 121.3804
700.8111, 123.7148
701.2932, 126.8028
701.7753, 130.6236
702.2574, 134.8852
702.7396, 139.9856
703.2217, 145.0881
703.7038, 149.3492
704.1859, 152.7571
704.6680, 154.3671
705.1501, 153.1208
705.6323, 150.2219
706.1144, 146.6173
706.5965, 142.3083
707.0786, 137.5261
707.5607, 132.1028
708.0428, 126.3780
708.5250, 120.6101
709.0071, 114.6788
709.4892, 109.2928
709.9713, 104.4949
710.4534, 100.1864
710.9355, 96.21888
711.4177, 92.60258
711.8998, 89.46373
712.3819, 86.89608
712.8640, 84.65059
713.3461, 82.52705
713.8282, 80.60773
714.3104, 79.07900
714.7925, 78.12074
715.2746, 77.45245
715.7567, 77.14671
716.2388, 77.08159
716.7209, 76.89651
717.2031, 76.53376
717.6852, 76.20860
718.1673, 76.01030
718.6494, 75.89484
719.1315, 75.64488
719.6136, 75.27019
720.0958, 74.97089
720.5779, 74.84164
721.0600, 74.87410
721.5421, 75.17448
722.0242, 75.69073
722.5063, 76.04506
722.9885, 75.96153
723.4706, 75.71642
723.9527, 75.43687
724.4348, 75.12027
724.9169, 74.87502
725.3990, 74.65519
725.8812, 74.56660
726.3633, 74.73830
726.8454, 75.21423
727.3275, 75.35233
727.8096, 75.08223
728.2917, 74.83473
728.7739, 75.16530
729.2560, 75.80217
729.7381, 75.99012
730.2202, 75.60056
730.7023, 75.20954
731.1844, 75.34194
731.6666, 75.64085
732.1487, 75.70710
732.6308, 75.26124
733.1129, 75.01485
733.5950, 75.22301
734.0771, 75.60204
734.5593, 75.93801
735.0414, 76.29860
735.5235, 76.34047
736.0056, 75.92480
736.4877, 75.39781
736.9698, 75.34459
737.4520, 75.65385
737.9341, 75.73006
738.4162, 75.33082
738.8983, 74.88280
739.3804, 74.88049
739.8625, 75.12282
740.3447, 75.26855
740.8268, 75.02036
741.3089, 74.86435
741.7910, 75.04704
742.2731, 75.40678
742.7552, 75.58183
743.2374, 75.53514
743.7195, 75.36252
744.2016, 75.01876
744.6837, 74.61517
745.1658, 74.49533
745.6479, 74.64256
746.1301, 74.73665
746.6122, 74.57764
747.0943, 74.36007
747.5764, 74.39807
748.0585, 74.60957
748.5406, 74.74604
749.0228, 74.57069
749.5049, 74.41147
749.9870, 74.55762
750.4691, 74.92486
750.9512, 74.84022
751.4333, 73.86771
751.9155, 73.13551
752.3976, 73.10735
752.8797, 73.65108
753.3618, 73.92458
753.8439, 73.91743
754.3260, 73.84423
754.8082, 73.79329
755.2903, 73.77861
755.7724, 73.90673
756.2545, 74.14021
756.7366, 74.19160
757.2188, 73.66888
757.7009, 73.10703
758.1830, 72.82594
758.6651, 72.86735
759.1472, 73.02496
759.6293, 73.42931
760.1115, 73.74262
760.5936, 73.74010
761.0757, 73.41667
761.5578, 73.35655
762.0399, 73.59415
762.5220, 73.81465
763.0042, 73.72491
763.4863, 73.45822
763.9684, 73.24278
764.4505, 73.09335
764.9326, 73.05847
765.4147, 73.35459
765.8969, 73.64632
766.3790, 73.58042
766.8611, 72.89573
767.3432, 72.79859
767.8253, 73.82964
768.3074, 74.88683
768.7896, 75.12343
769.2717, 74.40735
769.7538, 74.09805
770.2359, 74.25151
770.7180, 74.60661
771.2001, 75.09249
771.6823, 75.55070
772.1644, 75.53619
772.6465, 74.92115
773.1285, 74.46601
773.6107, 74.90624
774.0928, 75.59245
774.5749, 75.91405
775.0570, 75.55406
775.5391, 75.33742
776.0212, 75.27584
776.5034, 75.38982
776.9855, 75.78273
777.4676, 76.49693
777.9497, 76.93793
778.4318, 77.03755
778.9139, 76.97027
779.3961, 76.81182
779.8782, 76.65022
780.3603, 76.72746
780.8424, 77.19059
781.3245, 77.49133
781.8066, 76.98299
782.2888, 76.31693
782.7709, 76.15034
783.2530, 77.11769
783.7351, 77.72625
784.2172, 77.77629
784.6993, 77.68714
785.1815, 77.98136
785.6636, 78.68123
786.1457, 79.13853
786.6278, 79.24635
787.1099, 79.23712
787.5920, 79.41191
788.0742, 79.66113
788.5563, 79.76344
789.0384, 79.58867
789.5205, 79.46543
790.0026, 79.54173
790.4847, 79.76527
790.9669, 80.08858
791.4490, 80.62865
791.9311, 81.05600
792.4132, 81.36784
792.8953, 81.55858
793.3774, 81.46078
793.8596, 81.11382
794.3417, 81.40501
794.8238, 82.62729
795.3059, 83.93236
795.7880, 84.23928
796.2701, 84.03288
796.7523, 84.13058
797.2344, 85.01671
797.7165, 85.68608
798.1986, 85.51894
798.6807, 85.07146
799.1628, 85.03606
799.6450, 85.62054
800.1271, 86.17387
800.6092, 86.69557
801.0913, 87.10451
801.5734, 87.13849
802.0555, 86.89915
802.5377, 87.02283
803.0198, 87.72765
803.5019, 88.46872
803.9840, 88.64320
804.4661, 88.55000
804.9482, 88.60399
805.4304, 89.05103
805.9125, 89.41241
806.3946, 89.48834
806.8767, 89.48412
807.3588, 89.59251
807.8409, 89.81654
808.3231, 90.16989
808.8052, 90.70411
809.2873, 91.23138
809.7694, 91.41924
810.2515, 91.40198
810.7336, 91.61957
811.2158, 92.24455
811.6979, 92.81522
812.1800, 93.12924
812.6621, 93.13531
813.1442, 92.75395
813.6263, 91.42581
814.1085, 90.61858
814.5906, 90.48537
815.0727, 90.79356
815.5548, 91.40896
816.0369, 92.36168
816.5190, 93.08970
817.0012, 93.51732
817.4833, 93.83932
817.9654, 94.35121
818.4475, 94.89475
818.9296, 95.20918
819.4117, 95.27253
819.8939, 94.99882
820.3760, 93.68999
820.8581, 92.40745
821.3402, 92.24556
821.8223, 93.95887
822.3044, 95.01866
822.7866, 95.18214
823.2687, 95.16577
823.7508, 95.36211
824.2329, 95.91084
824.7150, 97.65180
825.1971, 100.6294
825.6793, 105.0844
826.1614, 113.3537
826.6435, 122.0318
827.1256, 127.7487
827.6077, 130.1658
828.0898, 128.3540
828.5720, 117.1514
829.0541, 105.6377
829.5362, 99.78108
830.0183, 100.7219
830.5004, 101.0603
830.9825, 100.6491
831.4647, 100.3493
831.9468, 101.1544
832.4289, 102.5958
832.9110, 103.6165
833.3931, 104.1241
833.8752, 104.6402
834.3574, 105.4295
834.8395, 106.3816
835.3216, 107.4954
835.8037, 108.8583
836.2858, 109.8850
836.7679, 110.5984
837.2501, 110.9556
837.7322, 110.9551
838.2143, 110.5921
838.6964, 109.7150
839.1785, 108.3210
839.6606, 106.6702
840.1428, 104.6214
840.6249, 102.6179
841.1070, 100.9962
841.5891, 99.80470
842.0712, 99.21317
842.5533, 99.67870
843.0355, 100.3724
843.5176, 101.0141
843.9997, 101.5951
844.4818, 101.9071
844.9639, 101.8523
845.4460, 102.1192
845.9282, 103.1694
846.4103, 104.7512
846.8924, 106.1949
847.3745, 107.6214
847.8566, 109.5443
848.3387, 112.6050
848.8209, 115.8816
849.3030, 118.8795
849.7851, 121.6554
850.2672, 124.6031
850.7493, 127.6216
851.2314, 130.9790
851.7136, 134.7818
852.1957, 138.9620
852.6778, 143.7127
853.1599, 148.8258
853.6420, 152.7523
854.1241, 154.7811
854.6063, 155.3530
855.0884, 154.1780
855.5705, 151.9094
856.0526, 149.8831
856.5347, 148.0970
857.0168, 147.0732
857.4990, 146.6978
857.9811, 147.1913
858.4632, 149.1057
858.9453, 152.5184
859.4274, 156.4793
859.9095, 161.1833
860.3917, 165.1266
860.8738, 166.9643
861.3559, 166.4134
861.8380, 162.8013
862.3201, 154.8802
862.8022, 146.0038
863.2844, 136.2304
863.7665, 126.8439
864.2486, 119.3588
864.7307, 114.1127
865.2128, 109.6693
865.6949, 105.9891
866.1771, 102.9032
866.6592, 100.0018
867.1413, 97.47506
867.6234, 95.90367
868.1055, 95.44759
868.5876, 95.31236
869.0698, 95.10897
869.5519, 94.88619
870.0340, 94.68230
870.5161, 94.51443
870.9982, 94.31276
871.4803, 94.01990
871.9625, 93.79283
872.4446, 93.70645
872.9267, 93.76855
873.4088, 94.19527
873.8909, 94.97230
874.3730, 95.55059
874.8552, 95.42888
875.3373, 94.99695
875.8194, 94.46661
876.3015, 93.88783
876.7836, 93.64430
877.2657, 94.18641
877.7479, 94.67797
878.2300, 94.83809
878.7121, 94.73219
879.1942, 94.75280
879.6763, 94.90522
880.1584, 95.00345
880.6406, 94.90739
881.1227, 94.75537
881.6048, 94.68061
882.0869, 94.70061
882.5690, 94.86192
883.0511, 95.31365
883.5333, 95.75935
884.0154, 96.16045
884.4975, 96.48207
884.9796, 96.58800
885.4617, 96.40401
885.9438, 96.47351
886.4260, 96.98760
886.9081, 97.59228
887.3902, 97.69540
887.8723, 97.49865
888.3544, 97.42421
888.8365, 97.56343
889.3187, 97.90559
889.8008, 98.87520
890.2829, 99.79805
890.7650, 99.89108
891.2471, 98.57950
891.7292, 98.08329
892.2114, 98.63856
892.6935, 99.41831
893.1756, 99.59576
893.6577, 99.33724
894.1398, 98.97834
894.6219, 98.54720
895.1041, 98.41621
895.5862, 99.19494
896.0683, 100.0807
896.5504, 100.4471
897.0325, 100.1693
897.5146, 100.1513
897.9967, 100.5580
898.4788, 100.8543
898.9609, 100.7061
899.4431, 100.2339
899.9252, 99.89070
900.4073, 99.67173
900.8894, 99.53928
901.3715, 99.56916
901.8536, 99.59237
902.3358, 99.48278
902.8179, 99.26482
903.3000, 99.03320
903.7821, 98.69115
904.2642, 98.56135
904.7463, 98.82915
905.2285, 99.22211
905.7106, 99.09860
906.1927, 98.53047
906.6748, 97.96216
907.1569, 97.47442
907.6390, 97.15139
908.1212, 97.29586
908.6033, 97.55807
909.0854, 97.47240
909.5675, 96.60831
910.0496, 95.90218
910.5317, 95.37251
911.0139, 95.01950
911.4960, 94.80773
911.9781, 94.75165
912.4602, 95.15498
912.9423, 96.06740
913.4244, 96.85543
913.9066, 96.78999
914.3887, 96.47212
914.8708, 96.61160
915.3529, 97.33191
915.8350, 97.58767
916.3171, 96.76971
916.7993, 96.09023
917.2814, 96.09804
917.7635, 96.69148
918.2456, 97.22502
918.7277, 97.69643
919.2098, 98.15492
919.6920, 98.63254
920.1741, 99.10451
920.6562, 99.53999
921.1383, 99.95036
921.6204, 100.3678
922.1025, 100.6573
922.5847, 101.1669
923.0668, 102.0953
923.5489, 103.1454
924.0310, 103.6539
924.5131, 103.6595
924.9952, 103.9598
925.4774, 104.7253
925.9595, 105.8238
926.4416, 107.4679
926.9237, 109.2112
927.4058, 110.4545
927.8879, 110.7601
928.3701, 111.4425
928.8522, 112.8239
929.3343, 114.3906
929.8164, 115.7301
930.2985, 116.8443
930.7806, 118.2626
931.2628, 119.9959
931.7449, 121.8900
932.2270, 123.9161
932.7091, 126.0066
933.1912, 128.0173
933.6733, 129.9708
934.1555, 132.3592
934.6376, 135.3744
935.1197, 138.7767
935.6018, 142.6948
936.0839, 146.8905
936.5660, 150.6039
937.0482, 153.8955
937.5303, 157.5252
938.0124, 161.8077
938.4945, 166.5516
938.9766, 171.6742
939.4587, 177.1640
939.9409, 183.0077
940.4230, 189.1712
940.9051, 195.8805
941.3872, 202.9790
941.8693, 210.6943
942.3514, 219.2419
942.8336, 228.5296
943.3157, 238.0049
943.7978, 247.5639
944.2799, 257.8509
944.7620, 269.3685
945.2441, 281.7374
945.7263, 294.1664
946.2084, 306.5466
946.6905, 321.0147
947.1726, 337.9840
947.6547, 356.2636
948.1368, 375.3198
948.6190, 395.1563
949.1011, 416.3855
949.5832, 438.9833
950.0653, 462.8034
950.5474, 487.5677
951.0295, 513.7726
951.5117, 541.3632
951.9938, 570.8407
952.4759, 602.8590
952.9580, 638.0424
953.4401, 674.7819
953.9222, 713.0997
954.4044, 752.6625
954.8865, 793.0250
955.3686, 834.4434
955.8507, 876.8159
956.3328, 920.3121
956.8149, 965.3040
957.2971, 1012.319
957.7792, 1060.718
958.2613, 1110.270
958.7434, 1160.589
959.2255, 1211.988
959.7076, 1264.780
960.1898, 1318.128
960.6719, 1372.515
961.1540, 1427.127
961.6361, 1481.179
962.1182, 1534.823
962.6003, 1588.847
963.0825, 1643.985
963.5646, 1698.347
964.0467, 1755.118
964.5288, 1809.233
965.0109, 1854.271
965.4930, 1891.154
965.9752, 1916.611
966.4573, 1932.110
966.9394, 1929.948
967.4215, 1900.932
967.9036, 1847.920
968.3857, 1773.536
968.8679, 1676.070
969.3500, 1571.447
969.8321, 1457.200
970.3142, 1344.196
970.7963, 1235.031
971.2784, 1131.598
971.7606, 1036.864
972.2427, 951.5764
972.7248, 874.1478
973.2069, 805.3004
973.6890, 743.5624
974.1711, 688.6520
974.6533, 640.6194
975.1354, 597.4814
975.6175, 560.0024
976.0996, 526.8722
976.5817, 498.8927
977.0638, 474.2317
977.5460, 450.4872
978.0281, 427.5702
978.5102, 406.6559
978.9923, 388.2146
979.4744, 371.0397
979.9565, 354.0878
980.4387, 338.2961
980.9208, 324.6255
981.4029, 313.4337
981.8850, 303.1552
982.3671, 294.0441
982.8492, 285.4661
983.3314, 277.0744
983.8135, 269.0556
984.2956, 262.0906
984.7777, 256.0411
985.2598, 250.3493
985.7419, 244.7107
986.2241, 239.4034
986.7062, 234.4520
987.1883, 229.9903
987.6704, 226.2260
988.1525, 223.4117
988.6346, 220.3259
989.1168, 216.7561
989.5989, 213.3352
990.0810, 210.7871
990.5631, 208.8975
991.0452, 207.4286
991.5273, 206.3552
992.0095, 205.1104
992.4916, 203.2450
992.9737, 201.3786
993.4558, 199.7620
993.9379, 198.3747
994.4200, 197.1401
994.9022, 196.0532
995.3843, 195.3618
995.8664, 195.3005
996.3485, 195.4696
996.8306, 195.4983
997.3127, 195.4333
997.7949, 195.3490
998.2770, 195.3319
998.7591, 195.1734
999.2412, 194.7935
999.7233, 194.3918
1000.205, 194.1684
1000.688, 194.0956
1001.170, 194.0099
1001.652, 193.9091
1002.134, 193.9590
1002.616, 194.2275
1003.098, 194.7205
1003.580, 195.6621
1004.062, 196.9102
1004.544, 197.5197
1005.027, 197.3718
1005.509, 197.0508
1005.991, 196.6545
1006.473, 196.2841
1006.955, 196.1807
1007.437, 196.2015
1007.919, 195.9978
1008.401, 195.2466
1008.884, 194.9023
1009.366, 195.7675
1009.848, 196.7195
1010.330, 196.9668
1010.812, 196.4811
1011.294, 196.4654
1011.776, 196.9238
1012.258, 197.3618
1012.740, 197.6525
1013.223, 197.6123
1013.705, 196.7170
1014.187, 195.3125
1014.669, 194.5864
1015.151, 195.3486
1015.633, 195.5544
1016.115, 194.7258
1016.597, 193.5719
1017.080, 193.2851
1017.562, 193.5525
1018.044, 193.2868
1018.526, 192.2265
1019.008, 191.3704
1019.490, 191.4262
1019.972, 191.8016
1020.454, 192.1883
1020.936, 192.5666
1021.419, 192.6761
1021.901, 192.5047
1022.383, 192.1729
1022.865, 191.6091
1023.347, 191.0741
1023.829, 190.9433
1024.311, 191.0989
1024.793, 191.3128
1025.276, 191.2722
1025.758, 191.6738
1026.240, 192.6504
1026.722, 193.9507
1027.204, 195.1776
1027.686, 196.4459
1028.168, 198.6933
1028.650, 201.9124
1029.132, 205.1833
1029.615, 208.2946
1030.097, 210.8678
1030.579, 212.3962
1031.061, 213.0604
1031.543, 213.8909
1032.025, 214.9537
1032.507, 215.7752
1032.989, 215.9948
1033.471, 216.5098
1033.954, 218.9685
1034.436, 222.5091
1034.918, 225.4591
1035.400, 226.8046
1035.882, 230.1741
1036.364, 236.4712
1036.846, 245.0191
1037.328, 255.2176
1037.811, 267.4463
1038.293, 284.2010
1038.775, 305.4613
1039.257, 329.2657
1039.739, 356.3344
1040.221, 384.0446
1040.703, 408.9990
1041.185, 434.1668
1041.667, 464.9108
1042.150, 499.5349
1042.632, 543.8818
1043.114, 597.8278
1043.596, 662.6705
1044.078, 743.5588
1044.560, 835.0562
1045.042, 931.0264
1045.524, 1029.683
1046.006, 1130.575
1046.489, 1225.370
1046.971, 1333.662
1047.453, 1458.072
1047.935, 1601.024
1048.417, 1775.507
1048.899, 1979.596
1049.381, 2194.453
1049.863, 2415.044
1050.346, 2647.675
1050.828, 2929.868
1051.310, 3203.266
1051.792, 3407.569
1052.274, 3540.065
1052.756, 3603.736
1053.238, 3576.904
1053.720, 3581.667
1054.203, 3673.665
1054.685, 3854.979
1055.167, 4178.235
1055.649, 4593.306
1056.131, 4969.042
1056.613, 5523.543
1057.095, 5628.726
1057.577, 5111.034
1058.059, 4274.557
1058.542, 3362.609
1059.024, 2414.610
1059.506, 1695.326
1059.988, 1228.708
1060.470, 904.9803
1060.952, 710.2015
1061.434, 581.1005
1061.916, 495.4502
1062.398, 444.0785
1062.881, 404.2393
1063.363, 376.8849
1063.845, 355.3753
1064.327, 338.7260
1064.809, 325.9555
1065.291, 316.7654
1065.773, 310.0996
1066.255, 304.7080
1066.738, 300.6565
1067.220, 296.8110
1067.702, 292.8859
1068.184, 289.4545
1068.666, 286.8138
1069.148, 284.9251
1069.630, 283.8179
1070.112, 283.4160
1070.594, 283.3952
1071.077, 283.4819
1071.559, 284.1139
1072.041, 286.2435
1072.523, 288.4833
1073.005, 289.3144
1073.487, 288.5903
1073.969, 288.2889
1074.451, 288.4863
1074.933, 288.7131
1075.416, 288.4327
1075.898, 288.1787
1076.380, 288.3246
1076.862, 288.9041
1077.344, 290.0082
1077.826, 291.9365
1078.308, 293.5362
1078.790, 294.5196
1079.273, 295.3598
1079.755, 296.8676
1080.237, 298.5851
1080.719, 299.6309
1081.201, 299.8287
1081.683, 300.0788
1082.165, 300.7430
1082.647, 301.4499
1083.129, 302.1370
1083.612, 302.7377
1084.094, 303.0221
1084.576, 303.0172
1085.058, 302.8087
1085.540, 302.1797
1086.022, 301.9751
1086.504, 303.3670
1086.986, 304.9428
1087.469, 305.3287
1087.951, 304.3720
1088.433, 303.5293
1088.915, 302.7756
1089.397, 302.5251
1089.879, 303.4485
1090.361, 304.6591
1090.843, 305.3515
1091.325, 305.6030
1091.807, 305.5777
1092.290, 305.4969
1092.772, 304.6627
1093.254, 302.7776
1093.736, 300.8318
1094.218, 299.8000
1094.700, 299.4092
1095.182, 299.2500
1095.664, 299.2476
1096.147, 299.0607
1096.629, 298.6957
1097.111, 297.8499
1097.593, 296.0611
1098.075, 294.1576
1098.557, 294.3352
1099.039, 296.0265
1099.521, 295.8771
1100.004, 293.1390
1100.486, 290.0538
1100.968, 287.7733
1101.450, 285.9957
1101.932, 284.6892
1102.414, 283.7413
1102.896, 282.5434
1103.378, 281.0957
1103.860, 279.6401
1104.343, 278.2961
1104.825, 276.9434
1105.307, 275.6826
1105.789, 274.2211
1106.271, 272.0892
1106.753, 268.9146
1107.235, 266.1915
1107.717, 263.9798
1108.199, 261.9378
1108.682, 259.8893
1109.164, 257.8572
1109.646, 256.0130
1110.128, 254.1910
1110.610, 251.9438
1111.092, 248.7529
1111.574, 245.6459
1112.056, 242.7085
1112.539, 239.9839
1113.021, 237.5406
1113.503, 235.3441
1113.985, 233.3165
1114.467, 231.4004
1114.949, 229.1425
1115.431, 225.7222
1115.913, 222.6352
1116.396, 220.7693
1116.878, 219.3258
1117.360, 216.8193
1117.842, 213.3453
1118.324, 210.6953
1118.806, 209.1539
1119.288, 207.1872
1119.770, 202.7683
1120.252, 198.2415
1120.734, 195.5111
1121.217, 194.2359
1121.699, 192.5010
1122.181, 190.2321
1122.663, 188.2635
1123.145, 186.9660
1123.627, 185.5973
1124.109, 182.9720
1124.591, 180.0418
1125.074, 178.0348
1125.556, 177.3446
1126.038, 175.8018
1126.520, 173.1186
1127.002, 170.4051
1127.484, 168.0599
1127.966, 166.0075
1128.448, 164.2236
1128.931, 162.6084
1129.413, 160.9543
1129.895, 159.1137
1130.377, 157.4429
1130.859, 155.6276
1131.341, 154.6016
1131.823, 155.8828
1132.305, 158.1640
1132.787, 156.4785
1133.270, 151.8309
1133.752, 147.8090
1134.234, 146.2967
1134.716, 145.1257
1135.198, 143.8907
1135.680, 142.6597
1136.162, 141.5584
1136.644, 140.5567
1137.126, 139.2176
1137.609, 137.5736
1138.091, 136.0501
1138.573, 134.8539
1139.055, 133.8715
1139.537, 133.2022
1140.019, 132.6522
1140.501, 131.9696
1140.983, 131.1570
1141.466, 130.0804
1141.948, 128.7168
1142.430, 127.4306
1142.912, 126.6709
1143.394, 125.9754
1143.876, 124.9076
1144.358, 123.5949
1144.840, 122.7274
1145.323, 122.4035
1145.805, 121.7962
1146.287, 120.7098
1146.769, 119.5129
1147.251, 118.5555
1147.733, 117.7342
1148.215, 116.9064
1148.697, 116.0783
1149.179, 115.6378
1149.661, 115.7729
1150.144, 115.5855
1150.626, 114.6967
1151.108, 113.5874
1151.590, 112.9801
1152.072, 112.6074
1152.554, 112.0222
1153.036, 111.0281
1153.518, 110.4350
1154.001, 110.4193
1154.483, 110.4654
1154.965, 110.3578
1155.447, 110.1399
1155.929, 109.9808
1156.411, 109.7706
1156.893, 109.2316
1157.375, 107.9779
1157.858, 107.1717
1158.340, 107.1567
1158.822, 107.1974
1159.304, 106.7913
1159.786, 106.0938
1160.268, 105.5760
1160.750, 105.1865
1161.232, 104.7576
1161.714, 104.0441
1162.197, 103.5499
1162.679, 103.4500
1163.161, 103.4955
1163.643, 103.4903
1164.125, 103.4490
1164.607, 103.4657
1165.089, 103.5318
1165.571, 103.5923
1166.053, 103.7610
1166.536, 103.7303
1167.018, 103.1893
1167.500, 102.5786
1167.982, 102.4824
1168.464, 102.8260
1168.946, 102.7907
1169.428, 102.3586
1169.910, 101.9482
1170.393, 101.8526
1170.875, 101.8172
1171.357, 101.8861
1171.839, 101.8455
1172.321, 101.1746
1172.803, 99.91424
1173.285, 99.21507
1173.767, 99.21978
1174.250, 99.29174
1174.732, 98.85056
1175.214, 98.43694
1175.696, 98.50581
1176.178, 98.85456
1176.660, 98.99689
1177.142, 98.93225
1177.624, 98.58147
1178.106, 97.90309
1178.589, 97.22670
1179.071, 96.84100
1179.553, 96.57261
1180.035, 96.40584
1180.517, 96.25268
1180.999, 95.57693
1181.481, 94.31654
1181.963, 93.43040
1182.445, 93.18591
1182.928, 93.15646
1183.410, 92.93632
1183.892, 92.73013
1184.374, 92.88185
1184.856, 93.35150
1185.338, 93.15307
1185.820, 92.22252
1186.302, 91.21883
1186.785, 90.28433
1187.267, 89.56250
1187.749, 89.31371
1188.231, 89.28390
1188.713, 89.17838
1189.195, 88.95818
1189.677, 88.89110
1190.159, 89.00704
1190.641, 89.05521
1191.124, 88.97825
1191.606, 88.69742
1192.088, 87.79610
1192.570, 86.80308
1193.052, 86.49792
1193.534, 87.16058
1194.016, 87.34621
1194.498, 86.98038
1194.980, 86.60994
1195.463, 86.63526
1195.945, 86.63631
1196.427, 85.90614
1196.909, 84.88951
1197.391, 84.25716
1197.873, 84.11476
1198.355, 84.38627
1198.837, 85.19643
1199.320, 85.73046
1199.802, 85.29141
1200.284, 84.50601
1200.766, 83.98140
1201.248, 83.70550
1201.730, 83.70051
1202.212, 84.22841
1202.694, 84.27763
1203.177, 83.75105
1203.659, 83.23306
1204.141, 83.21326
1204.623, 83.37337
1205.105, 83.37762
1205.587, 83.25291
1206.069, 83.04200
1206.551, 82.61812
1207.033, 82.49555
1207.516, 82.73875
1207.998, 82.99838
1208.480, 83.11546
1208.962, 83.00137
1209.444, 82.29326
1209.926, 81.28201
1210.408, 80.81824
1210.890, 81.29298
1211.372, 81.33562
1211.854, 80.79179
1212.337, 80.23055
1212.819, 80.18308
1213.301, 80.34945
1213.783, 80.49904
1214.265, 80.56107
1214.747, 80.31407
1215.229, 79.58751
1215.711, 79.10123
1216.194, 78.93719
1216.676, 78.89238
1217.158, 78.80146
1217.640, 78.71775
1218.122, 78.82549
1218.604, 78.99732
1219.086, 78.67465
1219.568, 77.50804
1220.051, 77.21074
1220.533, 78.10950
1221.015, 79.03604
1221.497, 78.79899
1221.979, 78.07742
1222.461, 77.39146
1222.943, 76.81599
1223.425, 76.49032
1223.907, 76.48885
1224.390, 76.36134
1224.872, 76.01805
1225.354, 75.74525
1225.836, 75.99970
1226.318, 76.29967
1226.800, 76.09776
1227.282, 75.50289
1227.764, 75.21980
1228.246, 75.32298
1228.729, 75.29414
1229.211, 75.03522
1229.693, 74.79926
1230.175, 74.87160
1230.657, 75.02988
1231.139, 75.10408
1231.621, 75.09034
1232.103, 75.01387
1232.586, 74.86151
1233.068, 74.82973
1233.550, 74.97646
1234.032, 75.02087
1234.514, 74.47459
1234.996, 73.93301
1235.478, 74.00020
1235.960, 74.48436
1236.443, 74.64016
1236.925, 74.45753
1237.407, 74.38072
1237.889, 74.49564
1238.371, 74.62794
1238.853, 74.80410
1239.335, 74.78385
1239.817, 74.13098
1240.299, 73.20192
1240.781, 73.09670
1241.264, 73.75851
1241.746, 74.17017
1242.228, 74.13859
1242.710, 73.92549
1243.192, 73.42494
1243.674, 73.11556
1244.156, 73.34821
1244.638, 73.92250
1245.121, 74.30148
1245.603, 74.52220
1246.085, 74.92780
1246.567, 75.61651
1247.049, 76.09208
1247.531, 75.86135
1248.013, 75.59459
1248.495, 75.65177
1248.978, 75.84806
1249.460, 75.60999
1249.942, 75.09119
1250.424, 73.87664
1250.906, 75.28093
1251.388, 76.10065
1251.870, 76.36724
1252.352, 74.42396
1252.834, 75.33425
1253.317, 75.10111
1253.799, 74.82093
1254.281, 76.13287
1254.763, 74.51099
1255.245, 75.79768
1255.727, 75.92334
1256.209, 76.58035
1256.691, 76.08673
1257.173, 75.94849
1257.656, 76.96143
1258.138, 77.33689
1258.620, 76.71082
1259.102, 77.40162
1259.584, 75.73956
1260.066, 76.14217
1260.548, 77.43558
1261.030, 76.86736
1261.513, 77.57933
1261.995, 77.80365
1262.477, 77.06785
1262.959, 77.63978
1263.441, 77.60629
1263.923, 76.87885
1264.405, 76.82354
1264.887, 77.74486
1265.370, 78.39608
1265.852, 78.42049
1266.334, 78.21452
1266.816, 78.12572
1267.298, 78.14519
1267.780, 78.27858
1268.262, 78.52654
1268.744, 78.86208
1269.226, 79.31141
1269.708, 79.56307
1270.191, 79.50906
1270.673, 79.42898
1271.155, 79.49551
1271.637, 79.72142
1272.119, 80.24155
1272.601, 80.93043
1273.083, 81.34599
1273.565, 81.49547
1274.048, 81.63555
1274.530, 81.82312
1275.012, 81.97464
1275.494, 82.13312
1275.976, 82.10654
1276.458, 81.59935
1276.940, 80.96388
1277.422, 81.22340
1277.905, 82.18959
1278.387, 82.91634
1278.869, 83.22596
1279.351, 83.50197
1279.833, 83.95019
1280.315, 84.38231
1280.797, 84.75044
1281.279, 85.03877
1281.761, 85.17208
1282.244, 85.21553
1282.726, 85.30312
1283.208, 85.45522
1283.690, 85.79156
1284.172, 86.56659
1284.654, 87.13583
1285.136, 87.30592
1285.618, 87.34303
1286.100, 87.61873
1286.583, 88.01189
1287.065, 88.29892
1287.547, 88.48266
1288.029, 88.88353
1288.511, 89.56331
1288.993, 90.31783
1289.475, 91.13436
1289.957, 91.89463
1290.440, 92.37494
1290.922, 92.79871
1291.404, 93.39603
1291.886, 94.14863
1292.368, 94.86177
1292.850, 95.53744
1293.332, 96.10329
1293.814, 96.52624
1294.297, 97.09874
1294.779, 98.38391
1295.261, 99.57549
1295.743, 99.93668
1296.225, 99.89937
1296.707, 100.1812
1297.189, 100.7723
1297.671, 101.5358
1298.153, 102.4624
1298.635, 103.6195
1299.118, 105.4198
1299.600, 106.9566
1300.082, 107.8883
1300.564, 108.5104
1301.046, 109.2658
1301.528, 110.0806
1302.010, 110.6290
1302.492, 110.9662
1302.975, 111.5553
1303.457, 112.5217
##END=



