##NAMES=Lefontite
##RRUFFID=R140428
##IDEAL CHEMISTRY=Fe^2+^_2_Al_2_Be(PO_4_)_2_(OH)_6_
##LOCALITY=João Teodoro mine, Linópolis district, Divino das Laranjeiras, Minas Gerais, Brazil
##OWNER=RRUFF
##SOURCE=Michael Scott
##DESCRIPTION=Brown prismatic crystals, associated with light-brown greifensteinite (R060588), dark green acicular gormanite (R080075), and white fine-grained leucophosphite. Type sample.
##STATUS=The identification of this mineral is confirmed by single-crystal X-ray diffraction and chemical analysis.
##URL=rruff.info/R140428
##MEASURED CHEMISTRY=(Fe_1.51_Mn_0.39_Mg_0.06_Ca_0.03_)_Σ=1.99_Al_1.99_(Be_1.02_Li_0.08_)(P_0.99_O_4_)_2_(OH)_6_ ; The BeO and Li2O were determined by ICP-MS.
110.5142, 857.7433
110.9963, 862.6818
111.4785, 868.0540
111.9606, 874.7025
112.4427, 882.5611
112.9248, 889.2663
113.4069, 894.1853
113.8890, 898.0263
114.3712, 901.4122
114.8533, 905.3829
115.3354, 908.0843
115.8175, 908.6232
116.2996, 906.8513
116.7817, 904.6674
117.2639, 902.6738
117.7460, 900.6659
118.2281, 898.3828
118.7102, 895.3638
119.1923, 892.2734
119.6744, 889.5081
120.1566, 887.1061
120.6387, 884.9312
121.1208, 882.7678
121.6029, 880.7471
122.0850, 879.1786
122.5671, 878.7495
123.0493, 878.5764
123.5314, 877.6660
124.0135, 875.6264
124.4956, 873.3142
124.9777, 871.4833
125.4598, 870.0433
125.9420, 868.7492
126.4241, 867.6595
126.9062, 866.5616
127.3883, 864.9726
127.8704, 862.4678
128.3525, 859.8390
128.8347, 858.4949
129.3168, 858.3653
129.7989, 858.3083
130.2810, 857.4506
130.7631, 855.9052
131.2452, 854.0460
131.7274, 851.7480
132.2095, 849.3142
132.6916, 847.7755
133.1737, 847.2601
133.6558, 846.7341
134.1379, 844.7361
134.6201, 841.3068
135.1022, 838.7803
135.5843, 838.2480
136.0664, 839.3708
136.5485, 839.4706
137.0306, 838.2698
137.5128, 836.7013
137.9949, 835.9487
138.4770, 836.1859
138.9591, 836.3682
139.4412, 836.2668
139.9233, 835.9051
140.4055, 834.6560
140.8876, 831.9711
141.3697, 828.9250
141.8518, 827.4177
142.3339, 828.0793
142.8160, 828.8372
143.2982, 828.9084
143.7803, 828.0125
144.2624, 827.2822
144.7445, 826.5514
145.2266, 826.0504
145.7087, 826.3919
146.1909, 828.2743
146.6730, 830.1343
147.1551, 831.4575
147.6372, 832.7122
148.1193, 832.5898
148.6014, 829.9480
149.0836, 825.7849
149.5657, 823.4626
150.0478, 824.5016
150.5299, 826.2057
151.0120, 827.4141
151.4941, 827.3417
151.9763, 827.6702
152.4584, 828.5878
152.9405, 829.9857
153.4226, 831.3518
153.9047, 832.7804
154.3868, 834.0713
154.8690, 835.1139
155.3511, 835.6061
155.8332, 836.1511
156.3153, 836.8610
156.7974, 837.7197
157.2795, 838.5782
157.7617, 839.1945
158.2438, 839.9241
158.7259, 841.0253
159.2080, 842.7395
159.6901, 844.6796
160.1722, 846.8753
160.6544, 849.3087
161.1365, 851.5751
161.6186, 852.9089
162.1007, 854.2529
162.5828, 856.5105
163.0649, 861.5053
163.5471, 866.1662
164.0292, 868.5667
164.5113, 868.6339
164.9934, 869.1732
165.4755, 872.3271
165.9576, 876.5610
166.4398, 879.9373
166.9219, 881.0842
167.4040, 881.6021
167.8861, 882.3516
168.3682, 883.3666
168.8503, 884.8235
169.3325, 887.0386
169.8146, 889.7658
170.2967, 892.5687
170.7788, 895.5489
171.2609, 898.4084
171.7430, 900.7512
172.2252, 902.5226
172.7073, 904.2322
173.1894, 905.8730
173.6715, 907.7513
174.1536, 910.4662
174.6357, 915.5358
175.1179, 921.1384
175.6000, 924.8670
176.0821, 926.2743
176.5642, 927.0345
177.0463, 928.5165
177.5284, 930.6322
178.0106, 933.0807
178.4927, 936.0295
178.9748, 939.1490
179.4569, 941.7047
179.9390, 943.5341
180.4211, 945.2804
180.9033, 947.8073
181.3854, 951.0042
181.8675, 954.2448
182.3496, 957.3143
182.8317, 960.1635
183.3138, 962.7073
183.7960, 964.7723
184.2781, 966.9167
184.7602, 970.2560
185.2423, 974.6390
185.7244, 978.5579
186.2065, 980.7736
186.6887, 981.7155
187.1708, 983.0346
187.6529, 984.8964
188.1350, 987.1863
188.6171, 989.9673
189.0992, 993.2349
189.5814, 996.0725
190.0635, 997.5599
190.5456, 997.9495
191.0277, 998.9493
191.5098, 1001.011
191.9919, 1003.385
192.4741, 1004.283
192.9562, 1003.641
193.4383, 1002.907
193.9204, 1003.096
194.4025, 1004.156
194.8846, 1005.211
195.3668, 1006.119
195.8489, 1007.005
196.3310, 1008.503
196.8131, 1010.785
197.2952, 1012.343
197.7773, 1011.626
198.2595, 1008.546
198.7416, 1006.550
199.2237, 1006.373
199.7058, 1007.289
200.1879, 1007.212
200.6700, 1005.956
201.1522, 1004.586
201.6343, 1004.069
202.1164, 1004.576
202.5985, 1004.135
203.0806, 1002.228
203.5627, 999.3788
204.0449, 997.3803
204.5270, 996.4710
205.0091, 995.6054
205.4912, 993.8693
205.9733, 991.0046
206.4554, 988.8459
206.9376, 987.8088
207.4197, 987.5715
207.9018, 986.8828
208.3839, 985.6705
208.8660, 984.1992
209.3481, 982.5524
209.8303, 980.5953
210.3124, 979.1357
210.7945, 978.4876
211.2766, 978.3878
211.7587, 977.6298
212.2408, 975.9640
212.7230, 974.1714
213.2051, 972.7366
213.6872, 971.7180
214.1693, 970.7838
214.6514, 969.7587
215.1335, 968.7688
215.6157, 968.7177
216.0978, 970.2818
216.5799, 971.4776
217.0620, 970.7706
217.5441, 967.2575
218.0262, 964.4286
218.5084, 962.7294
218.9905, 961.9529
219.4726, 961.1096
219.9547, 960.0133
220.4368, 959.1630
220.9189, 959.0955
221.4011, 960.5283
221.8832, 960.8312
222.3653, 959.3741
222.8474, 956.6386
223.3295, 954.7027
223.8116, 953.8713
224.2938, 953.4349
224.7759, 953.0172
225.2580, 952.6727
225.7401, 952.2131
226.2222, 951.6472
226.7043, 950.9453
227.1865, 949.9096
227.6686, 948.2845
228.1507, 946.7185
228.6328, 945.6593
229.1149, 945.4574
229.5970, 944.9269
230.0792, 943.8834
230.5613, 942.4677
231.0434, 941.2750
231.5255, 940.4969
232.0076, 939.7166
232.4897, 938.6951
232.9719, 937.2435
233.4540, 936.0367
233.9361, 935.2040
234.4182, 934.6358
234.9003, 933.9449
235.3824, 933.2181
235.8646, 932.2443
236.3467, 930.8068
236.8288, 928.3600
237.3109, 926.6947
237.7930, 926.2958
238.2751, 926.6130
238.7573, 925.8792
239.2394, 923.1168
239.7215, 920.6705
240.2036, 919.7433
240.6857, 921.4792
241.1678, 922.0653
241.6500, 921.0498
242.1321, 918.9987
242.6142, 917.3040
243.0963, 916.0233
243.5784, 915.0333
244.0605, 914.3655
244.5427, 914.2810
245.0248, 913.8333
245.5069, 912.8680
245.9890, 911.6111
246.4711, 910.6187
246.9532, 910.2095
247.4354, 909.5459
247.9175, 908.2013
248.3996, 905.7675
248.8817, 904.0265
249.3638, 903.2227
249.8459, 902.9942
250.3281, 902.6936
250.8102, 902.3353
251.2923, 901.9024
251.7744, 901.3255
252.2565, 900.4978
252.7386, 900.0507
253.2208, 900.1370
253.7029, 900.4944
254.1850, 900.7191
254.6671, 900.7657
255.1492, 900.7409
255.6313, 900.6625
256.1135, 900.5188
256.5956, 900.2933
257.0777, 899.9027
257.5598, 899.4792
258.0419, 899.2752
258.5240, 899.5320
259.0062, 899.3973
259.4883, 898.3409
259.9704, 896.2412
260.4525, 895.4439
260.9346, 896.5624
261.4167, 898.2368
261.8989, 898.9124
262.3810, 898.3531
262.8631, 897.3990
263.3452, 895.9713
263.8273, 894.0778
264.3094, 893.5770
264.7916, 895.0934
265.2737, 897.0287
265.7558, 897.7088
266.2379, 896.6389
266.7200, 896.0001
267.2021, 896.4479
267.6843, 897.8027
268.1664, 898.2412
268.6485, 897.5034
269.1306, 896.3716
269.6127, 895.3766
270.0948, 894.4196
270.5770, 894.0097
271.0591, 894.3326
271.5412, 895.2401
272.0233, 896.0828
272.5054, 896.7939
272.9875, 897.5433
273.4697, 898.5139
273.9518, 899.7789
274.4339, 900.8464
274.9160, 901.7554
275.3981, 902.3768
275.8802, 902.1259
276.3624, 900.7824
276.8445, 899.4775
277.3266, 899.0217
277.8087, 899.4870
278.2908, 899.8002
278.7729, 899.8323
279.2551, 899.7316
279.7372, 899.8438
280.2193, 900.2010
280.7014, 900.5936
281.1835, 901.0002
281.6656, 901.4172
282.1478, 901.4101
282.6299, 900.8076
283.1120, 900.0856
283.5941, 900.1219
284.0762, 900.9511
284.5583, 901.8558
285.0405, 902.4156
285.5226, 902.6999
286.0047, 903.4071
286.4868, 904.6056
286.9689, 906.0057
287.4510, 907.4036
287.9332, 908.7733
288.4153, 909.6293
288.8974, 909.3975
289.3795, 908.4651
289.8616, 908.3405
290.3438, 909.0755
290.8259, 910.2421
291.3080, 911.5591
291.7901, 912.9648
292.2722, 914.1608
292.7543, 914.9394
293.2365, 915.4814
293.7186, 916.2429
294.2007, 917.2213
294.6828, 918.1705
295.1649, 919.0082
295.6470, 919.6578
296.1292, 919.8256
296.6113, 919.1766
297.0934, 918.2966
297.5755, 918.2949
298.0576, 919.0864
298.5397, 919.7451
299.0219, 919.5381
299.5040, 918.7160
299.9861, 917.7076
300.4682, 916.3914
300.9503, 915.3619
301.4324, 915.7217
301.9146, 917.1473
302.3967, 918.2725
302.8788, 917.9937
303.3609, 916.9691
303.8430, 916.1622
304.3251, 915.7590
304.8073, 915.3669
305.2894, 914.4960
305.7715, 913.3311
306.2536, 912.3056
306.7357, 911.6274
307.2178, 911.1933
307.7000, 911.0389
308.1821, 911.2034
308.6642, 911.1354
309.1463, 910.6131
309.6284, 909.5539
310.1105, 907.8184
310.5927, 904.2914
311.0748, 900.8446
311.5569, 899.1896
312.0390, 899.3398
312.5211, 899.0615
313.0032, 896.3483
313.4854, 892.8303
313.9675, 890.2755
314.4496, 890.4214
314.9317, 890.6547
315.4138, 889.7303
315.8959, 887.7869
316.3781, 885.6185
316.8602, 883.5321
317.3423, 881.4109
317.8244, 879.1501
318.3065, 876.4626
318.7886, 874.0206
319.2708, 872.2563
319.7529, 870.9456
320.2350, 869.4553
320.7171, 867.3884
321.1992, 865.2560
321.6813, 863.2822
322.1635, 861.4476
322.6456, 859.8493
323.1277, 858.4432
323.6098, 857.2808
324.0919, 856.4506
324.5740, 856.7708
325.0562, 856.6899
325.5383, 855.6532
326.0204, 853.4289
326.5025, 851.1048
326.9846, 848.3436
327.4667, 845.7003
327.9489, 843.7359
328.4310, 843.3478
328.9131, 842.6579
329.3952, 841.2779
329.8773, 839.1953
330.3594, 837.2800
330.8416, 835.7498
331.3237, 834.2319
331.8058, 832.3637
332.2879, 829.1495
332.7700, 827.3563
333.2521, 827.9647
333.7343, 830.2672
334.2164, 830.7256
334.6985, 828.4162
335.1806, 825.6791
335.6627, 823.7215
336.1448, 822.7654
336.6270, 821.9518
337.1091, 821.2936
337.5912, 820.7491
338.0733, 820.2601
338.5554, 819.8848
339.0375, 819.4056
339.5197, 818.6890
340.0018, 817.7245
340.4839, 816.8705
340.9660, 816.1390
341.4481, 815.5263
341.9302, 815.1326
342.4124, 814.9808
342.8945, 814.6103
343.3766, 813.7178
343.8587, 812.4968
344.3408, 811.8508
344.8229, 811.8290
345.3051, 812.0629
345.7872, 812.3949
346.2693, 812.7646
346.7514, 812.6886
347.2335, 811.8619
347.7156, 810.8178
348.1978, 810.6908
348.6799, 811.4306
349.1620, 812.3254
349.6441, 812.9167
350.1262, 813.3199
350.6083, 813.8594
351.0905, 814.6551
351.5726, 815.3282
352.0547, 814.9947
352.5368, 814.0843
353.0189, 813.9014
353.5010, 815.9580
353.9832, 818.6945
354.4653, 820.0803
354.9474, 819.9994
355.4295, 819.6730
355.9116, 819.7471
356.3937, 820.2576
356.8759, 821.2570
357.3580, 823.2677
357.8401, 825.3573
358.3222, 826.7886
358.8043, 827.6796
359.2864, 828.6500
359.7686, 829.5624
360.2507, 830.9523
360.7328, 833.3481
361.2149, 837.4664
361.6970, 841.6037
362.1791, 845.1764
362.6613, 848.2611
363.1434, 851.0452
363.6255, 852.9876
364.1076, 855.1050
364.5897, 857.9614
365.0718, 861.7672
365.5540, 865.5783
366.0361, 869.2753
366.5182, 872.8721
367.0003, 876.3874
367.4824, 879.6570
367.9645, 883.0333
368.4467, 886.7372
368.9288, 890.7451
369.4109, 894.4568
369.8930, 897.3827
370.3751, 900.4189
370.8572, 904.2138
371.3394, 909.2257
371.8215, 914.2025
372.3036, 919.2502
372.7857, 924.1949
373.2678, 928.3704
373.7499, 931.2783
374.2321, 934.3425
374.7142, 938.2313
375.1963, 943.1531
375.6784, 948.0873
376.1605, 953.0042
376.6426, 957.9180
377.1248, 962.7952
377.6069, 967.7682
378.0890, 972.1780
378.5711, 975.5505
379.0532, 978.0990
379.5353, 981.3260
380.0175, 985.4417
380.4996, 989.3460
380.9817, 991.8890
381.4638, 993.1931
381.9459, 994.2701
382.4280, 995.1465
382.9102, 996.1152
383.3923, 997.9400
383.8744, 1000.535
384.3565, 1002.937
384.8386, 1004.305
385.3207, 1005.060
385.8029, 1006.114
386.2850, 1007.649
386.7671, 1009.021
387.2492, 1009.453
387.7313, 1009.221
388.2134, 1008.938
388.6956, 1008.801
389.1777, 1008.808
389.6598, 1009.166
390.1419, 1009.839
390.6240, 1010.151
391.1061, 1009.735
391.5883, 1008.746
392.0704, 1007.251
392.5525, 1004.371
393.0346, 1002.258
393.5167, 1002.620
393.9988, 1004.592
394.4810, 1005.735
394.9631, 1004.473
395.4452, 1002.736
395.9273, 1001.471
396.4094, 1000.899
396.8915, 1000.430
397.3737, 999.9813
397.8558, 999.5537
398.3379, 999.1471
398.8200, 998.1638
399.3021, 997.8118
399.7842, 998.5530
400.2664, 1000.371
400.7485, 1001.836
401.2306, 1002.771
401.7127, 1003.484
402.1948, 1004.144
402.6769, 1004.688
403.1591, 1005.308
403.6412, 1006.123
404.1233, 1006.964
404.6054, 1007.354
405.0875, 1007.093
405.5696, 1006.984
406.0518, 1007.554
406.5339, 1008.851
407.0160, 1009.207
407.4981, 1008.346
407.9802, 1007.365
408.4623, 1007.666
408.9445, 1009.241
409.4266, 1010.814
409.9087, 1012.062
410.3908, 1013.116
410.8729, 1014.222
411.3550, 1015.394
411.8372, 1016.638
412.3193, 1018.019
412.8014, 1019.484
413.2835, 1020.893
413.7656, 1022.209
414.2477, 1023.552
414.7299, 1024.914
415.2120, 1026.372
415.6941, 1028.086
416.1762, 1030.813
416.6583, 1033.368
417.1404, 1034.264
417.6226, 1033.550
418.1047, 1033.245
418.5868, 1035.001
419.0689, 1037.480
419.5510, 1039.441
420.0331, 1040.413
420.5153, 1040.972
420.9974, 1041.242
421.4795, 1041.257
421.9616, 1041.081
422.4437, 1040.512
422.9258, 1039.971
423.4080, 1039.739
423.8901, 1040.052
424.3722, 1039.953
424.8543, 1039.066
425.3364, 1037.913
425.8185, 1037.019
426.3007, 1036.708
426.7828, 1036.190
427.2649, 1035.366
427.7470, 1034.252
428.2291, 1032.926
428.7112, 1031.485
429.1934, 1029.657
429.6755, 1027.017
430.1576, 1023.239
430.6397, 1020.455
431.1218, 1019.025
431.6039, 1018.101
432.0861, 1016.406
432.5682, 1013.915
433.0503, 1010.898
433.5324, 1007.170
434.0145, 1003.028
434.4966, 999.5791
434.9788, 996.8493
435.4609, 994.3181
435.9430, 991.5908
436.4251, 988.7001
436.9072, 985.7370
437.3893, 982.6851
437.8715, 979.6093
438.3536, 976.5649
438.8357, 973.5513
439.3178, 970.5664
439.7999, 967.6534
440.2820, 964.7111
440.7642, 961.6540
441.2463, 958.4385
441.7284, 955.2239
442.2105, 952.0908
442.6926, 948.9486
443.1747, 945.6981
443.6569, 941.9052
444.1390, 938.4569
444.6211, 935.8915
445.1032, 933.9133
445.5853, 931.7540
446.0674, 929.3344
446.5496, 926.6542
447.0317, 923.5810
447.5138, 919.7936
447.9959, 916.7543
448.4780, 915.1116
448.9601, 913.7899
449.4423, 911.6102
449.9244, 907.8803
450.4065, 904.8773
450.8886, 903.2469
451.3707, 902.5911
451.8528, 900.9929
452.3350, 898.0643
452.8171, 895.3071
453.2992, 893.4954
453.7813, 892.6218
454.2634, 892.1119
454.7455, 892.0471
455.2277, 891.9560
455.7098, 891.0789
456.1919, 889.5338
456.6740, 888.1476
457.1561, 887.3749
457.6382, 886.7893
458.1204, 885.5134
458.6025, 883.6528
459.0846, 882.0310
459.5667, 881.4821
460.0488, 881.3905
460.5309, 880.9119
461.0131, 879.8650
461.4952, 878.7712
461.9773, 878.0108
462.4594, 877.4476
462.9415, 876.8698
463.4236, 876.3090
463.9058, 875.6197
464.3879, 874.7115
464.8700, 873.6005
465.3521, 872.3785
465.8342, 870.9658
466.3163, 869.5012
466.7985, 868.0634
467.2806, 866.7408
467.7627, 865.2813
468.2448, 863.4709
468.7269, 861.6209
469.2090, 860.1633
469.6912, 859.2629
470.1733, 858.4465
470.6554, 857.7404
471.1375, 857.0792
471.6196, 855.6874
472.1017, 853.2610
472.5839, 850.9451
473.0660, 849.4747
473.5481, 848.8647
474.0302, 848.7040
474.5123, 849.1046
474.9944, 849.5852
475.4766, 849.1617
475.9587, 848.0383
476.4408, 847.4910
476.9229, 848.3572
477.4050, 849.9307
477.8871, 851.1230
478.3693, 851.9631
478.8514, 852.6459
479.3335, 853.1670
479.8156, 853.6746
480.2977, 854.2997
480.7798, 855.0107
481.2620, 856.0004
481.7441, 857.4814
482.2262, 859.2735
482.7083, 861.1159
483.1904, 862.5856
483.6725, 864.3976
484.1547, 866.9597
484.6368, 870.1974
485.1189, 873.2926
485.6010, 875.9890
486.0831, 878.6225
486.5652, 881.3006
487.0474, 883.8533
487.5295, 886.8933
488.0116, 890.7836
488.4937, 894.8555
488.9758, 898.1453
489.4579, 900.4111
489.9401, 902.6481
490.4222, 905.0887
490.9043, 907.6930
491.3864, 910.5274
491.8685, 913.6876
492.3506, 916.4826
492.8328, 918.1931
493.3149, 919.0749
493.7970, 920.3201
494.2791, 922.0432
494.7612, 924.0629
495.2433, 926.4379
495.7255, 928.9861
496.2076, 931.2588
496.6897, 933.0419
497.1718, 934.5473
497.6539, 935.8426
498.1360, 936.9797
498.6182, 938.1778
499.1003, 940.2513
499.5824, 941.9386
500.0645, 941.9719
500.5466, 939.6918
501.0287, 938.1844
501.5109, 939.0607
501.9930, 940.8067
502.4751, 941.9012
502.9572, 941.8747
503.4393, 941.4996
503.9214, 940.9523
504.4036, 940.1273
504.8857, 938.5711
505.3678, 935.8507
505.8499, 933.1152
506.3320, 930.8093
506.8141, 928.9553
507.2963, 927.3602
507.7784, 926.1539
508.2605, 924.8167
508.7426, 922.7302
509.2247, 919.9332
509.7068, 916.9910
510.1890, 913.9763
510.6711, 910.9233
511.1532, 907.9231
511.6353, 904.9612
512.1174, 902.0706
512.5995, 899.5082
513.0817, 896.8582
513.5638, 893.5428
514.0459, 889.5721
514.5280, 885.4391
515.0101, 881.0873
515.4922, 876.9006
515.9744, 873.3408
516.4565, 870.7957
516.9386, 868.2614
517.4207, 865.2324
517.9028, 862.0516
518.3849, 859.2759
518.8671, 857.8471
519.3492, 855.9050
519.8313, 852.7540
520.3134, 848.5284
520.7955, 844.8035
521.2776, 841.4274
521.7598, 838.7491
522.2419, 837.2376
522.7240, 837.2479
523.2061, 836.3525
523.6882, 834.2678
524.1703, 831.7842
524.6525, 829.8929
525.1346, 828.5651
525.6167, 827.5439
526.0988, 827.1133
526.5809, 826.5717
527.0630, 824.0698
527.5452, 820.0119
528.0273, 816.6280
528.5094, 815.7619
528.9915, 815.9969
529.4736, 815.7569
529.9557, 814.9122
530.4379, 813.9510
530.9200, 812.8945
531.4021, 811.9728
531.8842, 811.4210
532.3663, 811.5414
532.8484, 811.6572
533.3306, 811.5905
533.8127, 811.3955
534.2948, 811.1967
534.7769, 811.1928
535.2590, 810.9577
535.7411, 810.2762
536.2233, 809.1793
536.7054, 808.5000
537.1875, 808.4527
537.6696, 808.4523
538.1517, 807.9614
538.6339, 806.9031
539.1160, 806.7150
539.5981, 807.7127
540.0802, 808.9372
540.5623, 808.8937
541.0444, 807.8401
541.5266, 807.2692
542.0087, 807.8393
542.4908, 808.8879
542.9729, 809.4769
543.4550, 809.7009
543.9371, 809.9720
544.4193, 810.3574
544.9014, 810.9929
545.3835, 812.1666
545.8656, 813.9366
546.3477, 815.3953
546.8298, 816.0146
547.3120, 816.2615
547.7941, 816.5046
548.2762, 816.4141
548.7583, 816.8600
549.2404, 818.4856
549.7225, 820.5049
550.2047, 821.5282
550.6868, 821.0231
551.1689, 820.5356
551.6510, 820.4034
552.1331, 820.6082
552.6152, 821.1682
553.0974, 822.2197
553.5795, 823.0070
554.0616, 822.7538
554.5437, 821.7177
555.0258, 821.4509
555.5079, 822.1298
555.9901, 822.9922
556.4722, 823.3466
556.9543, 823.2935
557.4364, 822.9900
557.9185, 822.2884
558.4006, 821.6586
558.8828, 821.5574
559.3649, 821.7955
559.8470, 821.9403
560.3291, 821.8779
560.8112, 821.5927
561.2933, 820.9557
561.7755, 819.9496
562.2576, 819.0824
562.7397, 819.0072
563.2218, 818.5904
563.7039, 817.1608
564.1860, 814.0436
564.6682, 811.7021
565.1503, 810.3748
565.6324, 809.5202
566.1145, 808.4289
566.5966, 807.0515
567.0787, 806.0093
567.5609, 805.5849
568.0430, 805.4207
568.5251, 804.6050
569.0072, 803.2382
569.4893, 802.1254
569.9714, 802.0934
570.4536, 802.3890
570.9357, 801.7214
571.4178, 800.1414
571.8999, 798.7916
572.3820, 798.6517
572.8641, 798.9364
573.3463, 798.9166
573.8284, 798.2674
574.3105, 797.8140
574.7926, 797.7726
575.2747, 798.0621
575.7568, 798.5822
576.2390, 799.1569
576.7211, 800.2027
577.2032, 802.0328
577.6853, 804.3499
578.1674, 806.0233
578.6495, 806.8511
579.1317, 807.6268
579.6138, 808.5810
580.0959, 809.7436
580.5780, 811.4795
581.0601, 813.8624
581.5422, 816.2194
582.0244, 817.6082
582.5065, 818.5830
582.9886, 820.5636
583.4707, 823.8710
583.9528, 827.6315
584.4349, 830.9390
584.9171, 834.2322
585.3992, 838.1672
585.8813, 843.4944
586.3634, 848.9559
586.8455, 854.0619
587.3276, 858.8962
587.8098, 863.4987
588.2919, 866.7059
588.7740, 870.8969
589.2561, 877.1683
589.7382, 885.5677
590.2203, 892.7783
590.7025, 898.0393
591.1846, 903.3347
591.6667, 910.1326
592.1488, 918.6085
592.6309, 926.4105
593.1130, 933.3976
593.5952, 940.1271
594.0773, 947.2590
594.5594, 954.7474
595.0415, 962.2342
595.5236, 969.7125
596.0057, 977.1722
596.4879, 984.4988
596.9700, 991.7442
597.4521, 998.9509
597.9342, 1006.736
598.4163, 1013.983
598.8984, 1019.985
599.3806, 1024.831
599.8627, 1029.217
600.3448, 1033.305
600.8269, 1036.941
601.3090, 1040.298
601.7911, 1043.785
602.2733, 1045.292
602.7554, 1044.330
603.2375, 1042.074
603.7196, 1039.439
604.2017, 1036.353
604.6838, 1033.638
605.1660, 1031.707
605.6481, 1029.413
606.1302, 1024.673
606.6123, 1017.867
607.0944, 1010.776
607.5765, 1004.060
608.0587, 997.3093
608.5408, 989.9131
609.0229, 982.0084
609.5050, 973.8182
609.9871, 965.5262
610.4692, 957.0084
610.9514, 948.2604
611.4335, 939.2068
611.9156, 929.7411
612.3977, 919.1985
612.8798, 908.7067
613.3619, 899.0803
613.8441, 890.5451
614.3262, 882.0839
614.8083, 873.6830
615.2904, 865.3210
615.7725, 857.1531
616.2546, 849.2067
616.7368, 841.0555
617.2189, 832.3506
617.7010, 823.6890
618.1831, 816.2993
618.6652, 809.9846
619.1473, 803.9153
619.6295, 797.6656
620.1116, 791.5594
620.5937, 786.0814
621.0758, 781.1260
621.5579, 775.9929
622.0400, 769.8428
622.5222, 763.9303
623.0043, 759.1176
623.4864, 755.6953
623.9685, 752.1341
624.4506, 748.1083
624.9327, 744.0313
625.4149, 740.1348
625.8970, 736.4365
626.3791, 732.9774
626.8612, 729.7803
627.3433, 726.7857
627.8254, 723.8688
628.3076, 721.0398
628.7897, 718.5959
629.2718, 716.8274
629.7539, 715.1179
630.2360, 712.1442
630.7181, 708.3533
631.2003, 705.1991
631.6824, 703.4498
632.1645, 702.5925
632.6466, 703.0130
633.1287, 704.3397
633.6108, 704.2833
634.0930, 700.7527
634.5751, 696.7324
635.0572, 693.6445
635.5393, 691.5978
636.0214, 690.1971
636.5035, 689.7946
636.9857, 689.5992
637.4678, 689.0844
637.9499, 688.2647
638.4320, 686.9813
638.9141, 685.1617
639.3962, 683.0853
639.8784, 680.9598
640.3605, 678.8743
640.8426, 677.1352
641.3247, 675.8842
641.8068, 674.9545
642.2889, 674.3793
642.7711, 673.9828
643.2532, 673.3445
643.7353, 671.8957
644.2174, 670.5443
644.6995, 669.8811
645.1816, 669.7878
645.6638, 669.3862
646.1459, 668.4764
646.6280, 667.2960
647.1101, 665.8539
647.5922, 664.1436
648.0743, 662.3740
648.5565, 660.4257
649.0386, 658.7403
649.5207, 657.9440
650.0028, 657.8807
650.4849, 657.1694
650.9670, 655.6689
651.4492, 653.8341
651.9313, 651.8979
652.4134, 650.0277
652.8955, 648.6728
653.3776, 648.2613
653.8597, 647.6140
654.3419, 645.9415
654.8240, 643.5692
655.3061, 641.0184
655.7882, 637.9147
656.2703, 635.2539
656.7524, 633.5628
657.2346, 632.4867
657.7167, 630.8615
658.1988, 628.1843
658.6809, 626.1657
659.1630, 625.7067
659.6451, 626.4117
660.1273, 625.9606
660.6094, 624.3063
661.0915, 622.0689
661.5736, 619.0378
662.0557, 615.8571
662.5378, 614.0515
663.0200, 613.6824
663.5021, 613.3099
663.9842, 611.7119
664.4663, 609.7374
664.9484, 608.2480
665.4305, 607.5995
665.9127, 606.7972
666.3948, 605.6179
666.8769, 604.1674
667.3590, 602.4650
667.8411, 599.8622
668.3232, 598.5993
668.8054, 599.5845
669.2875, 601.1848
669.7696, 600.2225
670.2517, 596.6417
670.7338, 593.2647
671.2159, 590.8237
671.6981, 589.2000
672.1802, 588.5655
672.6623, 588.6791
673.1444, 588.6578
673.6265, 588.1300
674.1086, 587.2299
674.5908, 585.9006
675.0729, 584.2289
675.5550, 582.6556
676.0371, 581.0082
676.5192, 579.7930
677.0013, 579.3593
677.4835, 579.8021
677.9656, 579.9899
678.4477, 580.0452
678.9298, 579.6299
679.4119, 578.2178
679.8940, 575.7773
680.3762, 574.3381
680.8583, 574.0664
681.3404, 573.9887
681.8225, 572.7725
682.3046, 571.0478
682.7867, 570.1817
683.2689, 570.6309
683.7510, 571.3945
684.2331, 572.1980
684.7152, 572.7325
685.1973, 572.5848
685.6794, 570.8624
686.1616, 569.3934
686.6437, 568.6398
687.1258, 568.3051
687.6079, 567.8838
688.0900, 567.3077
688.5721, 566.8464
689.0543, 566.6190
689.5364, 566.5126
690.0185, 566.1412
690.5006, 565.5129
690.9827, 564.9559
691.4648, 565.0596
691.9470, 565.1061
692.4291, 563.4147
692.9112, 560.3837
693.3933, 558.2332
693.8754, 559.2213
694.3575, 560.6684
694.8397, 560.7579
695.3218, 559.2422
695.8039, 557.8582
696.2860, 556.4552
696.7681, 555.6404
697.2502, 556.0795
697.7324, 558.4238
698.2145, 558.5110
698.6966, 555.7529
699.1787, 552.4060
699.6608, 550.7884
700.1429, 550.5619
700.6251, 550.0027
701.1072, 548.8690
701.5893, 547.4596
702.0714, 545.7084
702.5535, 543.9753
703.0356, 542.8286
703.5178, 542.7825
703.9999, 542.7354
704.4820, 542.5607
704.9641, 542.0409
705.4462, 540.7745
705.9283, 537.9390
706.4105, 535.6774
706.8926, 534.3384
707.3747, 533.6810
707.8568, 533.3010
708.3389, 533.2545
708.8210, 532.7313
709.3032, 531.2966
709.7853, 529.3702
710.2674, 527.8132
710.7495, 526.5350
711.2316, 525.2071
711.7137, 523.4092
712.1959, 521.6925
712.6780, 520.6194
713.1601, 520.0834
713.6422, 519.2979
714.1243, 518.0212
714.6064, 516.4403
715.0886, 514.5614
715.5707, 512.3574
716.0528, 510.3083
716.5349, 508.3207
717.0170, 506.6900
717.4991, 505.8148
717.9813, 505.5619
718.4634, 504.7648
718.9455, 503.3885
719.4276, 501.7782
719.9097, 500.1646
720.3918, 498.5219
720.8740, 496.7914
721.3561, 494.9032
721.8382, 493.2112
722.3203, 491.9738
722.8024, 490.9300
723.2845, 489.8532
723.7667, 488.9242
724.2488, 487.5320
724.7309, 485.4312
725.2130, 483.1029
725.6951, 480.9899
726.1772, 479.0766
726.6594, 477.8607
727.1415, 477.6728
727.6236, 477.5456
728.1057, 475.8437
728.5878, 473.1294
729.0699, 470.9053
729.5521, 470.1310
730.0342, 469.2455
730.5163, 466.9511
730.9984, 463.8644
731.4805, 461.0828
731.9626, 458.6919
732.4448, 456.9051
732.9269, 456.2589
733.4090, 456.1093
733.8911, 454.5401
734.3732, 451.1670
734.8553, 448.0277
735.3375, 445.8360
735.8196, 444.2404
736.3017, 442.2279
736.7838, 439.9090
737.2659, 437.9588
737.7480, 437.1784
738.2302, 436.6135
738.7123, 435.4339
739.1944, 433.6740
739.6765, 431.5870
740.1586, 428.5818
740.6407, 425.9050
741.1229, 424.3132
741.6050, 423.7303
742.0871, 422.8213
742.5692, 421.4019
743.0513, 420.0883
743.5334, 419.4193
744.0156, 419.2334
744.4977, 418.0555
744.9798, 415.8843
745.4619, 413.5858
745.9440, 411.6682
746.4261, 410.1201
746.9083, 409.0321
747.3904, 408.4174
747.8725, 407.7260
748.3546, 406.5465
748.8367, 405.3164
749.3188, 404.3900
749.8010, 403.9951
750.2831, 403.1375
750.7652, 401.5812
751.2473, 399.9127
751.7294, 398.5581
752.2115, 397.5254
752.6937, 396.7096
753.1758, 396.1613
753.6579, 395.4430
754.1400, 393.9142
754.6221, 391.9818
755.1042, 390.2767
755.5864, 388.9560
756.0685, 387.8123
756.5506, 386.9679
757.0327, 386.1435
757.5148, 385.0815
757.9969, 383.5040
758.4791, 382.0191
758.9612, 380.5552
759.4433, 379.2581
759.9254, 378.4224
760.4075, 378.0651
760.8896, 377.5064
761.3718, 376.6048
761.8539, 375.5785
762.3360, 374.8021
762.8181, 374.1055
763.3002, 373.0933
763.7823, 371.3711
764.2645, 369.7982
764.7466, 368.9797
765.2287, 368.5762
765.7108, 368.0513
766.1929, 367.3507
766.6750, 366.4838
767.1572, 365.3511
767.6393, 364.1359
768.1214, 363.1744
768.6035, 362.4828
769.0856, 361.8463
769.5677, 361.2101
770.0499, 360.5869
770.5320, 360.1368
771.0141, 359.7173
771.4962, 358.9630
771.9783, 357.2059
772.4604, 355.6048
772.9426, 354.8905
773.4247, 354.7740
773.9068, 354.6085
774.3889, 354.4750
774.8710, 354.0446
775.3531, 353.2033
775.8353, 352.0566
776.3174, 350.7629
776.7995, 349.3086
777.2816, 348.3322
777.7637, 348.3595
778.2458, 348.6856
778.7280, 348.0748
779.2101, 346.7406
779.6922, 345.3795
780.1743, 344.0030
780.6564, 342.9930
781.1385, 342.6147
781.6207, 342.7791
782.1028, 343.1425
782.5849, 344.1880
783.0670, 344.5700
783.5491, 343.6430
784.0313, 341.8516
784.5134, 341.0922
784.9955, 341.3734
785.4776, 341.5293
785.9597, 340.8538
786.4418, 339.8329
786.9240, 339.1671
787.4061, 338.8183
787.8882, 338.6639
788.3703, 338.8144
788.8524, 338.9864
789.3345, 339.1543
789.8167, 339.2643
790.2988, 338.9685
790.7809, 338.0256
791.2630, 337.1273
791.7451, 336.5235
792.2272, 336.1499
792.7094, 335.5591
793.1915, 334.7765
793.6736, 334.3048
794.1557, 334.7716
794.6378, 335.5074
795.1199, 335.6056
795.6021, 335.1815
796.0842, 334.7941
796.5663, 334.8662
797.0484, 334.8530
797.5305, 334.3919
798.0126, 333.5594
798.4948, 333.0616
798.9769, 333.0753
799.4590, 332.9812
799.9411, 332.4028
800.4232, 331.5456
800.9053, 331.3866
801.3875, 331.8460
801.8696, 332.1216
802.3517, 331.1494
802.8338, 330.1810
803.3159, 330.8549
803.7980, 332.8437
804.2802, 334.0965
804.7623, 333.2513
805.2444, 332.2666
805.7265, 331.7234
806.2086, 331.6222
806.6907, 332.1390
807.1729, 333.4809
807.6550, 334.5306
808.1371, 334.6525
808.6192, 334.1489
809.1013, 333.8085
809.5834, 333.5928
810.0656, 333.2779
810.5477, 332.4746
811.0298, 331.7523
811.5119, 331.5751
811.9940, 331.8881
812.4761, 332.1458
812.9583, 332.2061
813.4404, 332.2914
813.9225, 332.5088
814.4046, 332.8150
814.8867, 332.9965
815.3688, 333.0605
815.8510, 332.8359
816.3331, 331.9111
816.8152, 330.8227
817.2973, 330.5446
817.7794, 330.9236
818.2615, 331.3719
818.7437, 331.5606
819.2258, 331.7726
819.7079, 332.1675
820.1900, 332.7202
820.6721, 333.2066
821.1542, 333.6165
821.6364, 334.0056
822.1185, 334.5159
822.6006, 334.9556
823.0827, 334.4859
823.5648, 333.2363
824.0469, 332.2139
824.5291, 332.0871
825.0112, 332.3274
825.4933, 332.5370
825.9754, 332.7057
826.4575, 332.8005
826.9396, 332.8347
827.4218, 332.7642
827.9039, 332.5176
828.3860, 332.1715
828.8681, 331.9784
829.3502, 331.9398
829.8323, 332.0501
830.3145, 332.3800
830.7966, 332.7657
831.2787, 332.8719
831.7608, 332.7633
832.2429, 332.6413
832.7250, 332.5249
833.2072, 332.4920
833.6893, 332.6149
834.1714, 332.8526
834.6535, 333.1024
835.1356, 333.4102
835.6177, 333.6399
836.0999, 333.7756
836.5820, 333.8181
837.0641, 333.5942
837.5462, 333.1666
838.0283, 333.3173
838.5104, 334.5685
838.9926, 335.9955
839.4747, 336.5346
839.9568, 336.5290
840.4389, 336.5828
840.9210, 337.1517
841.4031, 337.4787
841.8853, 337.0517
842.3674, 336.4584
842.8495, 336.6572
843.3316, 337.9029
843.8137, 338.5634
844.2958, 338.2173
844.7780, 337.6119
845.2601, 338.0351
845.7422, 339.0510
846.2243, 339.5603
846.7064, 339.0529
847.1885, 338.5371
847.6707, 338.7790
848.1528, 339.2475
848.6349, 339.2760
849.1170, 338.0042
849.5991, 337.8874
850.0812, 339.4903
850.5634, 341.4374
851.0455, 342.1310
851.5276, 341.7219
852.0097, 341.3511
852.4918, 341.1822
852.9739, 340.9390
853.4561, 340.0049
853.9382, 339.0445
854.4203, 338.8925
854.9024, 339.9697
855.3845, 340.9203
855.8666, 341.4494
856.3488, 341.7958
856.8309, 342.0779
857.3130, 342.2856
857.7951, 342.4069
858.2772, 342.3888
858.7593, 342.6047
859.2415, 343.6818
859.7236, 345.0921
860.2057, 345.9884
860.6878, 346.2916
861.1699, 346.2876
861.6520, 345.7459
862.1342, 345.2548
862.6163, 345.2440
863.0984, 345.7342
863.5805, 346.0791
864.0626, 346.2031
864.5447, 346.4295
865.0269, 347.1853
865.5090, 348.1693
865.9911, 348.0979
866.4732, 347.1216
866.9553, 346.2509
867.4374, 346.0312
867.9196, 346.2110
868.4017, 346.7145
868.8838, 347.4955
869.3659, 348.3397
869.8480, 349.4127
870.3301, 350.1884
870.8123, 350.3786
871.2944, 350.2218
871.7765, 350.6282
872.2586, 351.5348
872.7407, 352.3692
873.2228, 352.8786
873.7050, 353.1860
874.1871, 353.3761
874.6692, 353.4664
875.1513, 353.4974
875.6334, 353.2993
876.1155, 353.2876
876.5977, 353.5588
877.0798, 354.0361
877.5619, 354.6247
878.0440, 355.3416
878.5261, 356.0003
879.0082, 356.6302
879.4904, 357.0191
879.9725, 356.4619
880.4546, 355.5869
880.9367, 355.6076
881.4188, 357.4503
881.9009, 358.8951
882.3831, 358.6948
882.8652, 358.0084
883.3473, 358.0765
883.8294, 359.2386
884.3115, 359.7141
884.7936, 359.2526
885.2758, 358.8312
885.7579, 359.6073
886.2400, 361.1536
886.7221, 362.5961
887.2042, 363.8354
887.6863, 364.7641
888.1685, 365.2492
888.6506, 365.4669
889.1327, 365.4034
889.6148, 364.9655
890.0969, 365.1192
890.5790, 366.0625
891.0612, 367.0685
891.5433, 367.5373
892.0254, 367.7179
892.5075, 368.7154
892.9896, 370.4217
893.4717, 371.9604
893.9539, 372.8998
894.4360, 373.4144
894.9181, 373.3639
895.4002, 372.9005
895.8823, 372.9572
896.3644, 373.9432
896.8466, 374.7493
897.3287, 374.9717
897.8108, 374.9298
898.2929, 375.5241
898.7750, 376.6773
899.2571, 377.9053
899.7393, 379.2128
900.2214, 380.2405
900.7035, 380.3629
901.1856, 380.0631
901.6677, 380.1489
902.1498, 380.9417
902.6320, 381.9882
903.1141, 383.4531
903.5962, 384.9189
904.0783, 385.7034
904.5604, 385.8675
905.0425, 386.1781
905.5247, 386.7565
906.0068, 387.4262
906.4889, 387.7787
906.9710, 388.2633
907.4531, 389.5201
907.9352, 392.0006
908.4174, 393.9580
908.8995, 395.0245
909.3816, 395.6797
909.8637, 396.0321
910.3458, 396.0883
910.8279, 396.7900
911.3101, 398.1451
911.7922, 399.6669
912.2743, 401.0695
912.7564, 402.4015
913.2385, 403.7486
913.7206, 405.0903
914.2028, 406.2776
914.6849, 407.1842
915.1670, 408.0005
915.6491, 408.6589
916.1312, 409.2987
916.6133, 410.5101
917.0955, 412.3107
917.5776, 414.2320
918.0597, 416.0868
918.5418, 418.0350
919.0239, 420.6740
919.5060, 423.4963
919.9882, 425.4831
920.4703, 425.4538
920.9524, 425.6805
921.4345, 426.4524
921.9166, 427.6871
922.3987, 429.4309
922.8809, 431.7338
923.3630, 433.6913
923.8451, 435.1618
924.3272, 436.5531
924.8093, 437.9526
925.2914, 439.6901
925.7736, 442.3844
926.2557, 446.3460
926.7378, 449.8995
927.2199, 452.6301
927.7020, 454.6912
928.1841, 455.9059
928.6663, 456.2757
929.1484, 457.5318
929.6305, 459.7217
930.1126, 462.0154
930.5947, 463.9011
931.0768, 465.6085
931.5590, 467.2724
932.0411, 468.9850
932.5232, 470.9887
933.0053, 473.9471
933.4874, 476.5137
933.9695, 478.0825
934.4517, 479.1920
934.9338, 481.3846
935.4159, 484.6739
935.8980, 487.5860
936.3801, 489.5946
936.8622, 491.2862
937.3444, 492.9915
937.8265, 494.9127
938.3086, 497.4163
938.7907, 500.9243
939.2728, 504.3288
939.7549, 507.3687
940.2371, 510.2790
940.7192, 513.3666
941.2013, 516.6292
941.6834, 519.5941
942.1655, 522.2347
942.6476, 524.5336
943.1298, 525.7538
943.6119, 527.0492
944.0940, 529.9386
944.5761, 534.4634
945.0582, 538.6857
945.5403, 542.0927
946.0225, 545.1667
946.5046, 547.8314
946.9867, 550.3177
947.4688, 553.8627
947.9509, 558.3515
948.4330, 562.6195
948.9152, 565.8958
949.3973, 569.1147
949.8794, 573.2733
950.3615, 577.9924
950.8436, 582.6186
951.3257, 586.9183
951.8079, 591.1052
952.2900, 595.0129
952.7721, 599.0465
953.2542, 603.7473
953.7363, 609.0501
954.2184, 614.3730
954.7006, 619.6414
955.1827, 625.3368
955.6648, 632.1288
956.1469, 639.4374
956.6290, 646.6674
957.1111, 653.7599
957.5933, 661.1891
958.0754, 669.0358
958.5575, 677.0811
959.0396, 684.9569
959.5217, 692.9565
960.0038, 702.5258
960.4860, 713.4183
960.9681, 724.3930
961.4502, 734.3458
961.9323, 744.5201
962.4144, 755.6696
962.8965, 767.5032
963.3787, 779.0689
963.8608, 790.1539
964.3429, 801.6799
964.8250, 813.9584
965.3071, 826.4359
965.7892, 838.3294
966.2714, 849.6696
966.7535, 860.7593
967.2356, 871.5682
967.7177, 881.9642
968.1998, 891.9977
968.6819, 901.3403
969.1641, 909.4435
969.6462, 916.3145
970.1283, 923.7515
970.6104, 932.0776
971.0925, 939.6900
971.5746, 945.7200
972.0568, 950.4846
972.5389, 954.5104
973.0210, 957.8235
973.5031, 960.3937
973.9852, 962.2857
974.4673, 963.2980
974.9495, 962.8575
975.4316, 961.8311
975.9137, 962.0585
976.3958, 963.7119
976.8779, 963.4161
977.3600, 960.2731
977.8422, 956.5483
978.3243, 954.7725
978.8064, 953.7930
979.2885, 952.1580
979.7706, 949.4856
980.2527, 946.8758
980.7349, 944.5558
981.2170, 942.2590
981.6991, 939.9763
982.1812, 937.6368
982.6633, 934.4760
983.1454, 930.6062
983.6276, 927.3982
984.1097, 926.1982
984.5918, 925.4476
985.0739, 924.1275
985.5560, 922.3224
986.0381, 920.2972
986.5203, 918.0936
987.0024, 915.6592
987.4845, 912.9374
987.9666, 910.0983
988.4487, 907.4325
988.9308, 904.8700
989.4130, 902.0038
989.8951, 898.6953
990.3772, 895.7332
990.8593, 893.8271
991.3414, 892.2559
991.8235, 890.4489
992.3057, 888.3506
992.7878, 886.7100
993.2699, 885.5604
993.7520, 884.5453
994.2341, 883.4382
994.7162, 882.3625
995.1984, 881.5792
995.6805, 881.0095
996.1626, 880.4677
996.6447, 880.0035
997.1268, 879.3877
997.6089, 878.5303
998.0911, 877.5320
998.5732, 876.3468
999.0553, 874.9760
999.5374, 874.5748
1000.020, 875.3610
1000.502, 876.4651
1000.984, 877.4989
1001.466, 878.1735
1001.948, 878.0437
1002.430, 876.9777
1002.912, 876.1832
1003.394, 875.8322
1003.876, 875.5857
1004.359, 875.2717
1004.841, 874.9863
1005.323, 875.2776
1005.805, 875.9306
1006.287, 876.0169
1006.769, 874.5117
1007.251, 873.1644
1007.733, 872.9554
1008.216, 873.4355
1008.698, 874.0260
1009.180, 874.9051
1009.662, 875.0917
1010.144, 874.4117
1010.626, 873.6356
1011.108, 873.7654
1011.590, 874.1770
1012.072, 873.8598
1012.555, 872.7728
1013.037, 871.6832
1013.519, 870.7950
1014.001, 870.0217
1014.483, 869.3821
1014.965, 868.8055
1015.447, 868.0331
1015.929, 867.0836
1016.411, 866.1525
1016.894, 865.2553
1017.376, 864.5237
1017.858, 864.4182
1018.340, 864.3954
1018.822, 863.7610
1019.304, 862.2295
1019.786, 860.4989
1020.268, 858.3570
1020.751, 856.6066
1021.233, 856.4514
1021.715, 857.0341
1022.197, 855.7633
1022.679, 852.9133
1023.161, 850.3747
1023.643, 849.6864
1024.125, 848.8054
1024.607, 846.3319
1025.090, 843.3143
1025.572, 842.1358
1026.054, 842.9219
1026.536, 843.5956
1027.018, 843.8199
1027.500, 843.5889
1027.982, 842.8557
1028.464, 841.6843
1028.947, 839.9921
1029.429, 837.5822
1029.911, 835.7862
1030.393, 834.8098
1030.875, 834.2325
1031.357, 834.1342
1031.839, 834.1899
1032.321, 832.7073
1032.803, 830.2060
1033.286, 828.8030
1033.768, 830.8870
1034.250, 832.7919
1034.732, 832.4687
1035.214, 831.2088
1035.696, 830.9037
1036.178, 831.7281
1036.660, 832.6019
1037.143, 833.5281
1037.625, 833.9630
1038.107, 832.5236
1038.589, 830.8347
1039.071, 831.3018
1039.553, 833.9226
1040.035, 835.8559
1040.517, 836.1129
1041.000, 836.1931
1041.482, 836.4133
1041.964, 836.7943
1042.446, 837.3539
1042.928, 838.1150
1043.410, 839.1087
1043.892, 840.2959
1044.374, 841.8874
1044.856, 844.8814
1045.339, 847.6734
1045.821, 848.5695
1046.303, 847.1139
1046.785, 847.3757
1047.267, 849.5363
1047.749, 851.8030
1048.231, 852.5497
1048.713, 852.9896
1049.195, 855.0570
1049.677, 858.1313
1050.160, 860.3625
1050.642, 860.5717
1051.124, 860.7731
1051.606, 861.2659
1052.088, 861.6924
1052.570, 861.2928
1053.052, 860.3829
1053.534, 860.2570
1054.017, 861.0746
1054.499, 862.3055
1054.981, 864.1477
1055.463, 865.8250
1055.945, 867.0504
1056.427, 867.7458
1056.909, 866.8111
1057.391, 864.0269
1057.874, 862.3837
1058.356, 863.4248
1058.838, 864.9601
1059.320, 864.2142
1059.802, 862.2821
1060.284, 860.7186
1060.766, 860.1013
1061.248, 859.2759
1061.730, 858.0977
1062.213, 856.9149
1062.695, 856.0748
1063.177, 855.4145
1063.659, 854.3282
1064.141, 852.8582
1064.623, 851.2562
1065.105, 849.5536
1065.587, 847.8274
1066.070, 846.2820
1066.552, 844.5909
1067.034, 841.8945
1067.516, 838.1146
1067.998, 836.2872
1068.480, 836.9838
1068.962, 837.5637
1069.444, 835.7235
1069.927, 832.6058
1070.409, 828.7533
1070.891, 824.3552
1071.373, 821.2396
1071.855, 819.9368
1072.337, 818.5779
1072.819, 816.6138
1073.301, 814.2014
1073.783, 811.4861
1074.266, 808.5264
1074.748, 805.3304
1075.230, 801.5927
1075.712, 798.5311
1076.194, 797.5200
1076.676, 796.0399
1077.158, 792.0410
1077.640, 785.9356
1078.122, 781.9523
1078.604, 779.9291
1079.087, 778.5034
1079.569, 778.1019
1080.051, 776.7960
1080.533, 772.4728
1081.015, 766.8189
1081.497, 762.9108
1081.979, 761.2441
1082.461, 759.2805
1082.944, 756.8019
1083.426, 754.2849
1083.908, 752.4857
1084.390, 750.7510
1084.872, 747.9962
1085.354, 744.3069
1085.836, 741.5588
1086.318, 740.7634
1086.801, 739.3867
1087.283, 736.7347
1087.765, 733.3570
1088.247, 729.7467
1088.729, 726.2733
1089.211, 724.1342
1089.693, 723.8241
1090.175, 723.4489
1090.657, 722.2184
1091.140, 720.6482
1091.622, 718.8436
1092.104, 716.9092
1092.586, 716.1081
1093.068, 716.2802
1093.550, 715.5247
1094.032, 712.2712
1094.514, 708.8732
1094.997, 707.0334
1095.479, 706.0977
1095.961, 705.1866
1096.443, 704.3522
1096.925, 703.0656
1097.407, 701.2105
1097.889, 699.6082
1098.371, 699.2043
1098.854, 699.2288
1099.336, 698.8777
1099.818, 698.1091
1100.300, 696.8713
1100.782, 694.7209
1101.264, 692.8832
1101.746, 691.6603
1102.228, 690.5281
1102.710, 688.5460
1103.193, 686.1699
1103.675, 684.5313
1104.157, 683.7756
1104.639, 683.1680
1105.121, 682.8925
1105.603, 682.0579
1106.085, 680.0272
1106.567, 677.3717
1107.049, 676.1759
1107.531, 676.1749
1108.014, 675.2941
1108.496, 672.6401
1108.978, 670.0881
1109.460, 669.4566
1109.942, 669.1180
1110.424, 667.4343
1110.906, 664.2805
1111.388, 662.5488
1111.871, 662.3703
1112.353, 661.6915
1112.835, 659.3253
1113.317, 656.1749
1113.799, 652.8112
1114.281, 649.5218
1114.763, 646.7720
1115.245, 645.1728
1115.728, 643.0825
1116.210, 640.4368
1116.692, 637.5627
1117.174, 634.5599
1117.656, 631.6332
1118.138, 629.2267
1118.620, 627.2489
1119.102, 625.2938
1119.584, 623.3461
1120.067, 621.2281
1120.549, 618.9934
1121.031, 616.4434
1121.513, 613.0703
1121.995, 609.1452
1122.477, 605.6367
1122.959, 602.5946
1123.441, 599.9569
1123.924, 598.5844
1124.406, 596.5547
1124.888, 592.7465
1125.370, 587.9040
1125.852, 584.1866
1126.334, 581.4652
1126.816, 578.3063
1127.298, 574.3107
1127.781, 570.2652
1128.263, 566.7697
1128.745, 563.4820
1129.227, 560.1941
1129.709, 556.8778
1130.191, 553.2179
1130.673, 549.1580
1131.155, 545.1625
1131.637, 541.3007
1132.120, 537.7211
1132.602, 534.7595
1133.084, 532.0703
1133.566, 529.2303
1134.048, 526.0318
1134.530, 523.1911
1135.012, 520.9021
1135.494, 518.1215
1135.976, 513.5284
1136.458, 508.3963
1136.941, 504.9942
1137.423, 502.7414
1137.905, 500.2309
1138.387, 496.8933
1138.869, 493.4688
1139.351, 489.9670
1139.833, 486.5033
1140.315, 483.3548
1140.798, 480.3253
1141.280, 476.7338
1141.762, 472.6903
1142.244, 469.2188
1142.726, 467.7246
1143.208, 465.4294
1143.690, 461.3871
1144.172, 456.6760
1144.655, 452.6557
1145.137, 449.3711
1145.619, 446.8597
1146.101, 445.1533
1146.583, 443.5367
1147.065, 441.6448
1147.547, 439.7075
1148.029, 437.8862
1148.511, 436.0810
1148.994, 433.9974
1149.476, 431.6474
1149.958, 429.0871
1150.440, 426.2493
1150.922, 423.4884
1151.404, 420.6812
1151.886, 418.3833
1152.368, 417.4082
1152.851, 417.4810
1153.333, 415.7727
1153.815, 412.2657
1154.297, 409.3653
1154.779, 408.2539
1155.261, 407.4145
1155.743, 405.3569
1156.225, 402.8964
1156.708, 400.9912
1157.190, 399.7155
1157.672, 398.8038
1158.154, 398.3714
1158.636, 397.2935
1159.118, 394.3912
1159.600, 391.1739
1160.082, 389.4072
1160.564, 388.5054
1161.047, 387.4740
1161.529, 386.2911
1162.011, 384.6595
1162.493, 382.4810
1162.975, 380.2440
1163.457, 377.9833
1163.939, 376.1134
1164.421, 375.6877
1164.903, 376.1660
1165.385, 375.8931
1165.868, 373.7804
1166.350, 372.3251
1166.832, 371.9376
1167.314, 371.6114
1167.796, 370.0216
1168.278, 367.9113
1168.760, 366.6931
1169.242, 366.2999
1169.725, 365.7964
1170.207, 364.3566
1170.689, 363.7469
1171.171, 364.6796
1171.653, 365.7012
1172.135, 364.2817
1172.617, 361.5008
1173.099, 359.8806
1173.582, 359.6850
1174.064, 359.2566
1174.546, 357.5885
1175.028, 356.1266
1175.510, 355.2694
1175.992, 354.7928
1176.474, 354.3111
1176.956, 353.8457
1177.438, 353.5319
1177.921, 353.4323
1178.403, 353.1375
1178.885, 352.5526
1179.367, 351.5679
1179.849, 349.8065
1180.331, 347.8439
1180.813, 347.7974
1181.295, 349.1873
1181.778, 350.2852
1182.260, 350.7167
1182.742, 350.4353
1183.224, 348.8338
1183.706, 347.0747
1184.188, 345.7927
1184.670, 344.8947
1185.152, 343.8991
1185.635, 342.8638
1186.117, 342.0772
1186.599, 341.8053
1187.081, 341.4715
1187.563, 340.7406
1188.045, 339.8775
1188.527, 338.9747
1189.009, 338.0807
1189.491, 337.9874
1189.974, 338.5457
1190.456, 338.6493
1190.938, 337.2696
1191.420, 335.9565
1191.902, 335.6231
1192.384, 335.6180
1192.866, 335.3282
1193.348, 334.7492
1193.830, 333.8517
1194.313, 332.6760
1194.795, 331.7376
1195.277, 331.4935
1195.759, 331.3996
1196.241, 331.4804
1196.723, 331.3431
1197.205, 330.3667
1197.687, 328.5214
1198.169, 327.0622
1198.652, 326.0502
1199.134, 325.2693
1199.616, 324.7192
1200.098, 324.2251
1200.580, 323.7641
1201.062, 323.2581
1201.544, 322.4865
1202.026, 321.4330
1202.509, 320.8696
1202.991, 320.8705
1203.473, 320.8092
1203.955, 320.0609
1204.437, 319.2596
1204.919, 319.0014
1205.401, 318.9207
1205.883, 317.9636
1206.365, 316.0807
1206.848, 315.5975
1207.330, 316.9165
1207.812, 317.8827
1208.294, 316.3223
1208.776, 314.3033
1209.258, 313.2281
1209.740, 312.8651
1210.222, 312.6828
1210.705, 312.6859
1211.187, 312.2301
1211.669, 311.1237
1212.151, 310.2957
1212.633, 311.2155
1213.115, 312.0609
1213.597, 311.1371
1214.079, 309.0143
1214.562, 307.6559
1215.044, 307.0530
1215.526, 306.8570
1216.008, 307.0651
1216.490, 307.2133
1216.972, 307.0201
1217.454, 306.5312
1217.936, 305.5918
1218.418, 304.3768
1218.901, 303.9042
1219.383, 304.1226
1219.865, 304.0081
1220.347, 303.1783
1220.829, 302.3106
1221.311, 301.7710
1221.793, 301.5314
1222.275, 301.6428
1222.757, 302.0284
1223.240, 302.2327
1223.722, 302.2465
1224.204, 301.8490
1224.686, 300.7993
1225.168, 299.8339
1225.650, 299.5449
1226.132, 299.4576
1226.614, 299.2191
1227.096, 298.8400
1227.579, 298.3156
1228.061, 297.6877
1228.543, 297.3530
1229.025, 297.6118
1229.507, 297.8433
1229.989, 297.5352
1230.471, 297.1887
1230.953, 297.2899
1231.436, 297.7378
1231.918, 297.4144
1232.400, 296.4589
1232.882, 295.8802
1233.364, 296.4142
1233.846, 296.7932
1234.328, 296.1894
1234.810, 295.3773
1235.292, 294.8234
1235.775, 294.5523
1236.257, 294.9894
1236.739, 295.9470
1237.221, 296.4151
1237.703, 295.6193
1238.185, 294.8020
1238.667, 294.3144
1239.149, 294.1046
1239.632, 294.2184
1240.114, 294.6011
1240.596, 295.0937
1241.078, 295.5945
1241.560, 295.6883
1242.042, 294.8055
1242.524, 294.0374
1243.006, 293.6166
1243.489, 293.4276
1243.971, 293.5658
1244.453, 293.8572
1244.935, 293.3413
1245.417, 292.2829
1245.899, 291.6883
1246.381, 292.2532
1246.863, 292.9344
1247.345, 293.5372
1247.828, 294.2340
1248.310, 295.5148
1248.792, 296.8867
1249.274, 296.7539
1249.756, 295.5076
1250.238, 294.5353
1250.720, 294.6938
1251.202, 294.6010
1251.684, 294.1025
1252.167, 293.4582
1252.649, 292.7618
1253.131, 292.1343
1253.613, 291.7438
1254.095, 291.6203
1254.577, 291.8726
1255.059, 293.0724
1255.541, 293.5064
1256.023, 292.8677
1256.506, 292.1997
1256.988, 292.7748
1257.470, 293.6359
1257.952, 293.2056
1258.434, 291.9223
1258.916, 291.2154
1259.398, 291.5309
1259.880, 291.5000
1260.363, 290.9530
1260.845, 290.6308
1261.327, 291.6468
1261.809, 292.7927
1262.291, 292.6108
1262.773, 291.5793
1263.255, 291.0994
1263.737, 291.4032
1264.219, 291.3452
1264.702, 290.8279
1265.184, 290.2811
1265.666, 289.8850
1266.148, 289.7354
1266.630, 290.1815
1267.112, 290.8363
1267.594, 290.8671
1268.076, 290.2251
1268.559, 289.6953
1269.041, 289.3345
1269.523, 289.2959
1270.005, 290.1227
1270.487, 290.8282
1270.969, 290.6180
1271.451, 290.0549
1271.933, 289.9501
1272.416, 290.2450
1272.898, 290.0434
1273.380, 289.3533
1273.862, 288.9774
1274.344, 289.8481
1274.826, 290.5161
1275.308, 290.3795
1275.790, 289.9313
1276.272, 289.7376
1276.755, 289.7628
1277.237, 289.8653
1277.719, 290.0454
1278.201, 290.3674
1278.683, 291.3233
1279.165, 291.7021
1279.647, 291.1329
1280.129, 290.2614
1280.611, 289.8141
1281.094, 289.5853
1281.576, 288.9487
1282.058, 288.0511
1282.540, 287.7923
1283.022, 288.8804
1283.504, 289.7210
1283.986, 290.1482
1284.468, 290.3365
1284.950, 290.3826
1285.433, 290.3487
1285.915, 290.2141
1286.397, 290.0658
1286.879, 290.2954
1287.361, 291.1876
1287.843, 291.2707
1288.325, 290.3032
1288.807, 289.4750
1289.290, 290.2739
1289.772, 291.2319
1290.254, 290.9588
1290.736, 289.8708
1291.218, 289.0259
1291.700, 288.4091
1292.182, 288.3013
1292.664, 288.7162
1293.146, 289.2399
1293.629, 289.7596
1294.111, 290.1071
1294.593, 289.9428
1295.075, 289.7065
1295.557, 289.9421
1296.039, 290.6136
1296.521, 291.6553
1297.003, 292.9540
1297.486, 293.6680
1297.968, 293.0445
1298.450, 292.1686
1298.932, 291.1578
1299.414, 290.3374
1299.896, 290.1910
1300.378, 290.4998
1300.860, 290.7365
1301.343, 290.8764
1301.825, 290.9226
##END=



