##NAMES=Lefontite
##RRUFFID=R140074
##IDEAL CHEMISTRY=Fe^2+^_2_Al_2_Be(PO_4_)_2_(OH)_6_
##LOCALITY=Galiléia, Minas Gerais, Brazil
##OWNER=RRUFF
##SOURCE=Bob Jenkins
##DESCRIPTION=Reddish brown elongated crystals. Associated with ushkovite (R060954), atencioite, rockbridgeite, and albite.
##STATUS=The identification of this mineral is confirmed by single-crystal X-ray diffraction and chemical analysis.
##URL=rruff.info/R140074
##MEASURED CHEMISTRY=(Fe_1.02_Mn_0.81_Ca_0.13_Mg_0.04_)_Σ=2.00_Al_1.99_(Be_1.02_Li_0.08_)(P_0.99_O_4_)_2_(OH)_6_ ; The BeO and Li2O contents were taken from R140428, which were determined by ICP-MS.
115.3354, 886.3383
115.8175, 889.1730
116.2996, 889.7977
116.7817, 890.4012
117.2639, 892.4033
117.7460, 894.6924
118.2281, 895.8561
118.7102, 894.6760
119.1923, 892.7074
119.6744, 890.7108
120.1566, 888.6707
120.6387, 886.9647
121.1208, 885.6458
121.6029, 884.8012
122.0850, 884.6490
122.5671, 886.3884
123.0493, 888.3584
123.5314, 888.7322
124.0135, 886.8660
124.4956, 884.1490
124.9777, 881.6414
125.4598, 879.3105
125.9420, 877.1422
126.4241, 874.9504
126.9062, 872.9125
127.3883, 871.4510
127.8704, 870.8996
128.3525, 870.6144
128.8347, 869.4975
129.3168, 867.5851
129.7989, 865.6985
130.2810, 864.7469
130.7631, 864.4537
131.2452, 863.6188
131.7274, 861.7904
132.2095, 859.3094
132.6916, 856.9514
133.1737, 854.6776
133.6558, 852.7698
134.1379, 851.7243
134.6201, 851.5287
135.1022, 850.9391
135.5843, 849.3834
136.0664, 847.0458
136.5485, 845.3727
137.0306, 844.4440
137.5128, 843.9811
137.9949, 843.6859
138.4770, 843.5894
138.9591, 843.5029
139.4412, 843.5829
139.9233, 843.9180
140.4055, 842.9111
140.8876, 840.0047
141.3697, 836.2836
141.8518, 833.5184
142.3339, 831.9560
142.8160, 830.7833
143.2982, 829.7380
143.7803, 828.8355
144.2624, 828.0408
144.7445, 827.3838
145.2266, 826.8299
145.7087, 826.3608
146.1909, 826.2309
146.6730, 825.8712
147.1551, 824.9814
147.6372, 822.7783
148.1193, 821.4316
148.6014, 821.5681
149.0836, 822.6592
149.5657, 822.8442
150.0478, 821.0363
150.5299, 819.1988
151.0120, 818.1757
151.4941, 818.8961
151.9763, 819.3282
152.4584, 819.1937
152.9405, 818.6338
153.4226, 818.3858
153.9047, 818.9824
154.3868, 819.5844
154.8690, 819.7343
155.3511, 819.0345
155.8332, 818.2419
156.3153, 817.4468
156.7974, 816.6513
157.2795, 815.8546
157.7617, 814.6567
158.2438, 813.6818
158.7259, 813.3822
159.2080, 814.6207
159.6901, 815.8420
160.1722, 816.5696
160.6544, 816.8209
161.1365, 817.0140
161.6186, 816.9758
162.1007, 817.0759
162.5828, 817.6540
163.0649, 819.6783
163.5471, 821.4736
164.0292, 822.0916
164.5113, 821.4919
164.9934, 820.8085
165.4755, 820.3565
165.9576, 820.1934
166.4398, 820.3942
166.9219, 821.2119
167.4040, 822.2336
167.8861, 823.2325
168.3682, 824.2058
168.8503, 825.0760
169.3325, 825.7519
169.8146, 826.3055
170.2967, 826.8426
170.7788, 827.5620
171.2609, 828.2222
171.7430, 828.4129
172.2252, 828.0314
172.7073, 827.9445
173.1894, 829.1063
173.6715, 831.1165
174.1536, 833.0266
174.6357, 834.2151
175.1179, 835.1525
175.6000, 836.5486
176.0821, 838.5558
176.5642, 840.4117
177.0463, 841.0673
177.5284, 840.8820
178.0106, 840.9495
178.4927, 841.9626
178.9748, 843.5881
179.4569, 845.3317
179.9390, 847.2289
180.4211, 849.0143
180.9033, 850.2131
181.3854, 850.9724
181.8675, 851.9341
182.3496, 853.8426
182.8317, 856.2120
183.3138, 857.7979
183.7960, 858.2228
184.2781, 858.4951
184.7602, 860.3940
185.2423, 863.7201
185.7244, 866.6739
186.2065, 867.5691
186.6887, 867.0752
187.1708, 867.8948
187.6529, 870.5785
188.1350, 874.0917
188.6171, 876.7632
189.0992, 878.6208
189.5814, 879.9875
190.0635, 880.8410
190.5456, 881.2910
191.0277, 882.0520
191.5098, 883.3141
191.9919, 884.7673
192.4741, 885.5748
192.9562, 885.6927
193.4383, 886.0491
193.9204, 887.5274
194.4025, 890.0383
194.8846, 892.0040
195.3668, 893.1022
195.8489, 893.7057
196.3310, 894.8588
196.8131, 896.6708
197.2952, 898.1759
197.7773, 898.4011
198.2595, 897.2896
198.7416, 897.0138
199.2237, 898.0999
199.7058, 899.9658
200.1879, 900.9342
200.6700, 900.8743
201.1522, 900.5809
201.6343, 900.6607
202.1164, 901.1840
202.5985, 901.3651
203.0806, 900.9774
203.5627, 900.2578
204.0449, 900.0081
204.5270, 900.3232
205.0091, 900.7740
205.4912, 901.0769
205.9733, 901.2084
206.4554, 901.3026
206.9376, 901.3802
207.4197, 901.4281
207.9018, 901.4210
208.3839, 901.3971
208.8660, 901.2318
209.3481, 900.8456
209.8303, 900.2324
210.3124, 899.4290
210.7945, 898.2995
211.2766, 897.0244
211.7587, 896.3278
212.2408, 896.3864
212.7230, 896.6652
213.2051, 896.8529
213.6872, 896.9693
214.1693, 896.8479
214.6514, 896.2881
215.1335, 895.4539
215.6157, 895.3370
216.0978, 896.4350
216.5799, 897.2772
217.0620, 896.7196
217.5441, 894.0787
218.0262, 892.0215
218.5084, 891.0298
218.9905, 890.8112
219.4726, 889.9170
219.9547, 888.0307
220.4368, 886.0060
220.9189, 884.4246
221.4011, 883.4441
221.8832, 882.5389
222.3653, 881.8295
222.8474, 881.1874
223.3295, 879.9332
223.8116, 877.9642
224.2938, 875.6112
224.7759, 872.9345
225.2580, 869.5168
225.7401, 866.8738
226.2222, 865.4094
226.7043, 864.7886
227.1865, 863.5407
227.6686, 861.4828
228.1507, 859.0925
228.6328, 856.6098
229.1149, 853.9102
229.5970, 851.4483
230.0792, 849.4423
230.5613, 847.7025
231.0434, 845.4723
231.5255, 842.3861
232.0076, 839.4191
232.4897, 837.2231
232.9719, 836.3785
233.4540, 835.0150
233.9361, 832.8073
234.4182, 830.0519
234.9003, 827.7571
235.3824, 826.1346
235.8646, 824.6681
236.3467, 823.0873
236.8288, 821.2472
237.3109, 819.5735
237.7930, 818.0040
238.2751, 816.5939
238.7573, 815.6687
239.2394, 815.7587
239.7215, 815.5280
240.2036, 814.2352
240.6857, 811.0523
241.1678, 808.6939
241.6500, 807.5742
242.1321, 807.1624
242.6142, 806.0325
243.0963, 803.6698
243.5784, 801.3549
244.0605, 799.7361
244.5427, 799.3116
245.0248, 798.2189
245.5069, 795.9306
245.9890, 793.1908
246.4711, 791.8109
246.9532, 792.8011
247.4354, 793.4827
247.9175, 792.6952
248.3996, 789.7930
248.8817, 787.5568
249.3638, 786.1536
249.8459, 785.3394
250.3281, 784.7724
250.8102, 784.9020
251.2923, 784.5014
251.7744, 782.8727
252.2565, 779.4417
252.7386, 777.3709
253.2208, 777.2198
253.7029, 778.0189
254.1850, 778.2234
254.6671, 777.4993
255.1492, 776.8074
255.6313, 776.4421
256.1135, 776.4403
256.5956, 776.4625
257.0777, 776.5751
257.5598, 776.6185
258.0419, 776.2926
258.5240, 775.2845
259.0062, 774.6190
259.4883, 774.8209
259.9704, 776.0068
260.4525, 776.0469
260.9346, 774.3906
261.4167, 772.2776
261.8989, 771.2453
262.3810, 771.8146
262.8631, 772.1057
263.3452, 771.5186
263.8273, 770.0656
264.3094, 769.4608
264.7916, 770.0701
265.2737, 770.9597
265.7558, 771.0823
266.2379, 770.0294
266.7200, 769.6464
267.2021, 770.6344
267.6843, 772.7576
268.1664, 773.5282
268.6485, 772.3875
269.1306, 771.0377
269.6127, 771.0743
270.0948, 772.8683
270.5770, 774.3115
271.0591, 774.9788
271.5412, 775.0078
272.0233, 775.0613
272.5054, 775.0984
272.9875, 775.2344
273.4697, 775.5078
273.9518, 775.8901
274.4339, 776.6816
274.9160, 778.1729
275.3981, 779.9459
275.8802, 780.5576
276.3624, 779.7178
276.8445, 778.8454
277.3266, 778.8010
277.8087, 779.6201
278.2908, 780.9113
278.7729, 782.8386
279.2551, 785.0054
279.7372, 786.4818
280.2193, 787.2355
280.7014, 787.5486
281.1835, 787.4092
281.6656, 786.8280
282.1478, 786.4785
282.6299, 786.3796
283.1120, 786.5373
283.5941, 786.9941
284.0762, 787.7599
284.5583, 788.6893
285.0405, 789.8583
285.5226, 791.2125
286.0047, 792.1921
286.4868, 792.7280
286.9689, 793.1042
287.4510, 793.7520
287.9332, 794.6501
288.4153, 795.4167
288.8974, 795.9667
289.3795, 796.2599
289.8616, 795.8906
290.3438, 794.7413
290.8259, 793.7289
291.3080, 794.1633
291.7901, 795.7836
292.2722, 797.0535
292.7543, 797.3917
293.2365, 797.0816
293.7186, 796.6867
294.2007, 796.2087
294.6828, 795.7557
295.1649, 795.4807
295.6470, 795.3235
296.1292, 795.0906
296.6113, 794.7922
297.0934, 794.3345
297.5755, 793.3578
298.0576, 791.9251
298.5397, 790.7312
299.0219, 790.8705
299.5040, 791.5753
299.9861, 791.0047
300.4682, 788.3629
300.9503, 785.2750
301.4324, 783.7638
301.9146, 783.5568
302.3967, 783.4268
302.8788, 782.3884
303.3609, 781.0378
303.8430, 780.4539
304.3251, 781.0409
304.8073, 781.4131
305.2894, 779.7930
305.7715, 776.9058
306.2536, 774.4797
306.7357, 773.9849
307.2178, 774.0927
307.7000, 773.3231
308.1821, 771.4573
308.6642, 769.6318
309.1463, 769.0389
309.6284, 768.9717
310.1105, 768.3229
310.5927, 766.0389
311.0748, 763.4337
311.5569, 761.4623
312.0390, 760.1472
312.5211, 758.8257
313.0032, 756.9650
313.4854, 754.9545
313.9675, 753.2330
314.4496, 752.5423
314.9317, 751.6612
315.4138, 749.7248
315.8959, 746.9441
316.3781, 744.5153
316.8602, 743.4806
317.3423, 742.7318
317.8244, 741.4403
318.3065, 739.0243
318.7886, 736.6267
319.2708, 734.6479
319.7529, 732.9850
320.2350, 731.3442
320.7171, 729.5900
321.1992, 727.8807
321.6813, 726.3210
322.1635, 725.0327
322.6456, 723.6165
323.1277, 721.8041
323.6098, 719.8347
324.0919, 718.1039
324.5740, 716.6734
325.0562, 715.5049
325.5383, 714.7460
326.0204, 714.6347
326.5025, 713.9767
326.9846, 712.3697
327.4667, 710.3267
327.9489, 708.3713
328.4310, 706.3033
328.9131, 704.5793
329.3952, 703.4601
329.8773, 702.9770
330.3594, 702.0233
330.8416, 700.2775
331.3237, 698.3515
331.8058, 696.6456
332.2879, 694.9987
332.7700, 693.8608
333.2521, 693.4680
333.7343, 693.6269
334.2164, 693.3958
334.6985, 692.6034
335.1806, 691.6765
335.6627, 690.8017
336.1448, 689.9395
336.6270, 689.2943
337.1091, 689.0204
337.5912, 688.8599
338.0733, 688.2554
338.5554, 687.1301
339.0375, 685.8376
339.5197, 684.4154
340.0018, 682.8509
340.4839, 681.6762
340.9660, 680.9651
341.4481, 680.5297
341.9302, 680.2629
342.4124, 680.1902
342.8945, 679.8484
343.3766, 678.9854
343.8587, 677.7435
344.3408, 676.8298
344.8229, 676.3088
345.3051, 675.6896
345.7872, 674.3004
346.2693, 672.3039
346.7514, 670.7552
347.2335, 669.9409
347.7156, 669.6240
348.1978, 669.5840
348.6799, 669.7857
349.1620, 669.7151
349.6441, 668.8526
350.1262, 667.4825
350.6083, 666.2375
351.0905, 665.1689
351.5726, 664.2955
352.0547, 663.7077
352.5368, 663.3404
353.0189, 662.9974
353.5010, 662.6133
353.9832, 662.1789
354.4653, 661.5891
354.9474, 660.8198
355.4295, 660.2454
355.9116, 660.4465
356.3937, 660.9685
356.8759, 661.1276
357.3580, 660.1913
357.8401, 659.2100
358.3222, 659.1208
358.8043, 659.7502
359.2864, 660.0651
359.7686, 659.2219
360.2507, 657.9796
360.7328, 657.0264
361.2149, 656.7840
361.6970, 656.3752
362.1791, 655.0096
362.6613, 653.1976
363.1434, 652.1208
363.6255, 652.8393
364.1076, 653.8174
364.5897, 654.3467
365.0718, 654.2301
365.5540, 654.0306
366.0361, 653.8890
366.5182, 653.7028
367.0003, 653.3506
367.4824, 652.5739
367.9645, 651.8958
368.4467, 651.4509
368.9288, 651.2643
369.4109, 651.1194
369.8930, 651.0342
370.3751, 650.9981
370.8572, 651.0314
371.3394, 651.3857
371.8215, 651.3647
372.3036, 650.5646
372.7857, 649.3619
373.2678, 649.1583
373.7499, 650.3786
374.2321, 651.8258
374.7142, 652.9939
375.1963, 653.8990
375.6784, 654.3616
376.1605, 654.1057
376.6426, 653.7439
377.1248, 654.3421
377.6069, 656.0701
378.0890, 657.7488
378.5711, 659.0069
379.0532, 659.8868
379.5353, 660.5876
380.0175, 661.1041
380.4996, 661.5110
380.9817, 661.8885
381.4638, 662.2289
381.9459, 662.3456
382.4280, 661.8942
382.9102, 661.6055
383.3923, 663.3668
383.8744, 666.9786
384.3565, 670.3007
384.8386, 671.5769
385.3207, 671.6328
385.8029, 672.0586
386.2850, 673.0230
386.7671, 674.3127
387.2492, 676.0099
387.7313, 677.8845
388.2134, 679.3788
388.6956, 679.7816
389.1777, 679.9811
389.6598, 680.9387
390.1419, 682.6179
390.6240, 684.1407
391.1061, 684.7306
391.5883, 685.0154
392.0704, 685.6619
392.5525, 687.0072
393.0346, 688.5470
393.5167, 690.1608
393.9988, 691.8209
394.4810, 693.4620
394.9631, 694.8066
395.4452, 696.3250
395.9273, 698.4052
396.4094, 701.4490
396.8915, 703.9018
397.3737, 704.6982
397.8558, 704.9986
398.3379, 706.2326
398.8200, 709.7228
399.3021, 712.8788
399.7842, 714.9556
400.2664, 715.9508
400.7485, 717.6102
401.2306, 720.2222
401.7127, 723.1766
402.1948, 726.1669
402.6769, 729.5309
403.1591, 732.1165
403.6412, 733.5046
404.1233, 734.2266
404.6054, 735.7822
405.0875, 738.5359
405.5696, 741.0026
406.0518, 742.3923
406.5339, 742.6656
407.0160, 743.5694
407.4981, 745.2195
407.9802, 747.1851
408.4623, 748.9615
408.9445, 750.5706
409.4266, 752.3146
409.9087, 754.3162
410.3908, 756.4835
410.8729, 758.5842
411.3550, 760.6351
411.8372, 762.6609
412.3193, 764.8537
412.8014, 767.0417
413.2835, 768.7474
413.7656, 769.8190
414.2477, 770.7933
414.7299, 771.9989
415.2120, 773.5251
415.6941, 775.5615
416.1762, 779.0117
416.6583, 782.4783
417.1404, 784.5093
417.6226, 785.1302
418.1047, 785.6367
418.5868, 786.5992
419.0689, 787.8840
419.5510, 789.4377
420.0331, 791.8698
420.5153, 793.7010
420.9974, 794.0076
421.4795, 793.2562
421.9616, 792.6026
422.4437, 792.2772
422.9258, 792.1850
423.4080, 792.4778
423.8901, 793.5088
424.3722, 793.7314
424.8543, 792.2023
425.3364, 790.2343
425.8185, 789.1269
426.3007, 789.5460
426.7828, 789.8629
427.2649, 789.8734
427.7470, 789.5994
428.2291, 789.1702
428.7112, 788.5686
429.1934, 787.8285
429.6755, 786.9369
430.1576, 785.8733
430.6397, 784.6672
431.1218, 783.1744
431.6039, 781.7615
432.0861, 781.3196
432.5682, 781.9579
433.0503, 781.7961
433.5324, 779.7190
434.0145, 776.4363
434.4966, 774.4808
434.9788, 773.8864
435.4609, 773.8034
435.9430, 773.8211
436.4251, 773.8056
436.9072, 773.2632
437.3893, 771.8926
437.8715, 770.5270
438.3536, 770.2821
438.8357, 770.8403
439.3178, 771.3142
439.7999, 771.1075
440.2820, 770.6837
440.7642, 770.4705
441.2463, 770.4807
441.7284, 770.4658
442.2105, 770.2916
442.6926, 770.0052
443.1747, 769.6454
443.6569, 769.0198
444.1390, 768.5461
444.6211, 768.4286
445.1032, 768.5696
445.5853, 768.6954
446.0674, 768.7186
446.5496, 768.7662
447.0317, 768.8468
447.5138, 768.8846
447.9959, 769.3121
448.4780, 770.6210
448.9601, 772.0159
449.4423, 772.6968
449.9244, 772.3005
450.4065, 771.9370
450.8886, 771.6032
451.3707, 771.4429
451.8528, 772.1329
452.3350, 773.8504
452.8171, 775.8820
453.2992, 778.0297
453.7813, 780.2975
454.2634, 782.1052
454.7455, 783.4817
455.2277, 784.2482
455.7098, 783.7896
456.1919, 782.3153
456.6740, 781.2961
457.1561, 781.3820
457.6382, 782.0769
458.1204, 782.8063
458.6025, 783.5120
459.0846, 783.7022
459.5667, 782.7272
460.0488, 781.1810
460.5309, 779.7804
461.0131, 778.6183
461.4952, 777.7006
461.9773, 777.1713
462.4594, 776.8749
462.9415, 776.5750
463.4236, 776.7447
463.9058, 776.3712
464.3879, 774.7044
464.8700, 771.8983
465.3521, 769.3014
465.8342, 767.1669
466.3163, 765.3552
466.7985, 763.8369
467.2806, 763.0272
467.7627, 761.7265
468.2448, 759.6466
468.7269, 757.1915
469.2090, 754.9338
469.6912, 753.1148
470.1733, 750.9901
470.6554, 748.2800
471.1375, 745.0634
471.6196, 742.0958
472.1017, 739.3735
472.5839, 736.8956
473.0660, 734.7471
473.5481, 732.9438
474.0302, 730.8016
474.5123, 728.2720
474.9944, 725.4075
475.4766, 722.0786
475.9587, 718.3912
476.4408, 714.9704
476.9229, 712.1773
477.4050, 709.7870
477.8871, 707.4975
478.3693, 705.3124
478.8514, 703.2126
479.3335, 701.1970
479.8156, 699.2476
480.2977, 697.3632
480.7798, 695.5519
481.2620, 693.7782
481.7441, 691.8546
482.2262, 689.9835
482.7083, 688.4659
483.1904, 687.7922
483.6725, 687.0842
484.1547, 685.9037
484.6368, 684.2926
485.1189, 682.9392
485.6010, 682.3788
486.0831, 681.7373
486.5652, 680.5244
487.0474, 678.1747
487.5295, 676.4616
488.0116, 675.6608
488.4937, 675.3104
488.9758, 674.7747
489.4579, 674.0132
489.9401, 673.1696
490.4222, 672.1977
490.9043, 671.1788
491.3864, 670.5514
491.8685, 670.3854
492.3506, 670.1093
492.8328, 669.1921
493.3149, 667.8015
493.7970, 666.7095
494.2791, 666.0101
494.7612, 665.4352
495.2433, 664.6155
495.7255, 663.6733
496.2076, 662.9035
496.6897, 662.4206
497.1718, 662.1591
497.6539, 662.2350
498.1360, 662.5402
498.6182, 662.6465
499.1003, 662.2247
499.5824, 661.5940
500.0645, 660.9335
500.5466, 660.2123
501.0287, 659.6517
501.5109, 659.2672
501.9930, 659.0847
502.4751, 659.1366
502.9572, 659.7706
503.4393, 660.2142
503.9214, 660.2600
504.4036, 660.0419
504.8857, 660.1039
505.3678, 660.8665
505.8499, 661.1702
506.3320, 660.3430
506.8141, 658.2663
507.2963, 656.9017
507.7784, 656.3324
508.2605, 656.2281
508.7426, 656.4159
509.2247, 656.8604
509.7068, 656.9969
510.1890, 656.6528
510.6711, 656.0771
511.1532, 655.7692
511.6353, 655.6343
512.1174, 655.2468
512.5995, 654.0404
513.0817, 652.6354
513.5638, 651.8745
514.0459, 651.7449
514.5280, 651.5909
515.0101, 650.8835
515.4922, 650.0178
515.9744, 649.4150
516.4565, 649.4209
516.9386, 649.1893
517.4207, 648.2301
517.9028, 646.9083
518.3849, 645.8191
518.8671, 645.6458
519.3492, 645.0671
519.8313, 643.4210
520.3134, 640.8503
520.7955, 639.3917
521.2776, 639.6064
521.7598, 640.0916
522.2419, 640.1563
522.7240, 639.8254
523.2061, 638.7550
523.6882, 636.6135
524.1703, 634.4102
524.6525, 633.6599
525.1346, 634.2666
525.6167, 634.8015
526.0988, 635.0626
526.5809, 634.8281
527.0630, 633.2363
527.5452, 630.5583
528.0273, 628.2896
528.5094, 627.6728
528.9915, 627.7491
529.4736, 627.3341
529.9557, 626.3157
530.4379, 625.5303
530.9200, 625.9450
531.4021, 626.5980
531.8842, 626.5009
532.3663, 624.6323
532.8484, 623.1017
533.3306, 622.6526
533.8127, 622.8742
534.2948, 622.9230
534.7769, 622.7628
535.2590, 622.3842
535.7411, 621.7539
536.2233, 620.8853
536.7054, 619.9139
537.1875, 618.6906
537.6696, 617.6937
538.1517, 617.4188
538.6339, 617.9716
539.1160, 617.7373
539.5981, 616.3464
540.0802, 614.9847
540.5623, 615.6176
541.0444, 617.8527
541.5266, 619.4412
542.0087, 619.4290
542.4908, 618.7062
542.9729, 618.4531
543.4550, 618.5762
543.9371, 618.7025
544.4193, 618.3977
544.9014, 618.1494
545.3835, 618.3074
545.8656, 618.8976
546.3477, 619.9385
546.8298, 622.3635
547.3120, 624.7328
547.7941, 625.8184
548.2762, 623.7913
548.7583, 622.7285
549.2404, 623.3093
549.7225, 624.9074
550.2047, 626.5699
550.6868, 628.6212
551.1689, 630.0805
551.6510, 630.4992
552.1331, 630.0836
552.6152, 630.1624
553.0974, 630.7958
553.5795, 631.6650
554.0616, 632.5378
554.5437, 633.4658
555.0258, 634.7621
555.5079, 636.4924
555.9901, 638.3527
556.4722, 640.0359
556.9543, 641.6362
557.4364, 643.3090
557.9185, 644.9622
558.4006, 646.9288
558.8828, 649.9133
559.3649, 653.4111
559.8470, 656.3304
560.3291, 657.4445
560.8112, 658.5626
561.2933, 660.7160
561.7755, 663.9426
562.2576, 666.5848
562.7397, 667.8517
563.2218, 668.8818
563.7039, 670.2169
564.1860, 671.9473
564.6682, 673.7819
565.1503, 675.7784
565.6324, 677.8514
566.1145, 679.7658
566.5966, 681.4846
567.0787, 683.7626
567.5609, 687.0128
568.0430, 690.6302
568.5251, 693.1580
569.0072, 694.7228
569.4893, 696.0995
569.9714, 697.6700
570.4536, 699.3478
570.9357, 700.9549
571.4178, 702.4954
571.8999, 704.2398
572.3820, 706.5497
572.8641, 709.0092
573.3463, 711.2333
573.8284, 713.1689
574.3105, 714.8641
574.7926, 716.2150
575.2747, 717.3678
575.7568, 718.5068
576.2390, 720.0331
576.7211, 721.0125
577.2032, 721.0352
577.6853, 720.4620
578.1674, 720.5941
578.6495, 721.6712
579.1317, 722.7616
579.6138, 723.4801
580.0959, 723.8711
580.5780, 724.1395
581.0601, 724.2466
581.5422, 724.7318
582.0244, 726.6761
582.5065, 729.3118
582.9886, 730.4410
583.4707, 729.5445
583.9528, 728.5193
584.4349, 729.0926
584.9171, 730.6309
585.3992, 732.2015
585.8813, 733.9335
586.3634, 735.1346
586.8455, 735.0809
587.3276, 734.2294
587.8098, 733.8386
588.2919, 734.4382
588.7740, 735.2310
589.2561, 736.0422
589.7382, 736.8707
590.2203, 737.5451
590.7025, 738.0510
591.1846, 738.4124
591.6667, 738.5208
592.1488, 738.3300
592.6309, 738.7696
593.1130, 740.0547
593.5952, 741.3215
594.0773, 741.3066
594.5594, 740.3350
595.0415, 739.6407
595.5236, 739.5394
596.0057, 739.8444
596.4879, 740.7354
596.9700, 741.8818
597.4521, 742.4903
597.9342, 741.7648
598.4163, 740.7762
598.8984, 740.1210
599.3806, 739.7682
599.8627, 739.2986
600.3448, 738.4242
600.8269, 737.5712
601.3090, 737.0541
601.7911, 737.1661
602.2733, 736.3819
602.7554, 734.4500
603.2375, 731.9764
603.7196, 729.3798
604.2017, 726.5715
604.6838, 724.4513
605.1660, 723.2774
605.6481, 722.4413
606.1302, 721.1721
606.6123, 719.4470
607.0944, 717.1171
607.5765, 713.6549
608.0587, 710.0100
608.5408, 707.4149
609.0229, 705.6016
609.5050, 703.5204
609.9871, 700.3448
610.4692, 696.9801
610.9514, 693.9880
611.4335, 691.3972
611.9156, 688.7844
612.3977, 685.9728
612.8798, 683.1755
613.3619, 680.6100
613.8441, 678.5924
614.3262, 675.9215
614.8083, 672.3578
615.2904, 668.4606
615.7725, 664.9185
616.2546, 661.7410
616.7368, 658.8475
617.2189, 656.1547
617.7010, 653.8066
618.1831, 652.3625
618.6652, 651.5871
619.1473, 650.5156
619.6295, 648.2828
620.1116, 645.8118
620.5937, 644.2042
621.0758, 643.2755
621.5579, 642.0455
622.0400, 639.4227
622.5222, 636.8708
623.0043, 635.4073
623.4864, 635.3936
623.9685, 634.8802
624.4506, 632.9338
624.9327, 631.0443
625.4149, 630.3102
625.8970, 631.3557
626.3791, 631.6384
626.8612, 630.8895
627.3433, 629.6703
627.8254, 628.6517
628.3076, 627.8378
628.7897, 627.3985
629.2718, 627.6009
629.7539, 627.8308
630.2360, 626.7646
630.7181, 624.8391
631.2003, 623.4492
631.6824, 623.8087
632.1645, 624.5767
632.6466, 624.7165
633.1287, 624.3065
633.6108, 623.9791
634.0930, 624.0018
634.5751, 624.1187
635.0572, 624.1196
635.5393, 623.8702
636.0214, 624.2496
636.5035, 625.9851
636.9857, 627.4554
637.4678, 627.1651
637.9499, 624.7712
638.4320, 623.1387
638.9141, 622.5574
639.3962, 622.4673
639.8784, 622.2797
640.3605, 621.9802
640.8426, 621.4159
641.3247, 620.2927
641.8068, 619.3711
642.2889, 619.7902
642.7711, 621.0420
643.2532, 621.9778
643.7353, 622.0889
644.2174, 621.7659
644.6995, 620.9113
645.1816, 619.6598
645.6638, 618.8312
646.1459, 619.1223
646.6280, 619.2702
647.1101, 618.8467
647.5922, 617.8304
648.0743, 616.5772
648.5565, 614.9720
649.0386, 613.4284
649.5207, 612.3365
650.0028, 611.6425
650.4849, 610.9397
650.9670, 610.2028
651.4492, 609.4432
651.9313, 608.9532
652.4134, 608.4022
652.8955, 607.1004
653.3776, 604.5334
653.8597, 601.9186
654.3419, 600.1241
654.8240, 598.7502
655.3061, 597.2133
655.7882, 595.3242
656.2703, 593.3138
656.7524, 591.0885
657.2346, 588.7918
657.7167, 586.8679
658.1988, 585.4907
658.6809, 584.1058
659.1630, 582.5021
659.6451, 580.7308
660.1273, 579.1279
660.6094, 577.6772
661.0915, 576.2145
661.5736, 574.5814
662.0557, 572.8405
662.5378, 571.1192
663.0200, 569.4183
663.5021, 567.6982
663.9842, 566.0085
664.4663, 564.2295
664.9484, 562.2303
665.4305, 559.8567
665.9127, 557.6195
666.3948, 555.6992
666.8769, 553.9562
667.3590, 552.2397
667.8411, 550.5984
668.3232, 548.9433
668.8054, 547.3386
669.2875, 545.6690
669.7696, 543.6843
670.2517, 541.3762
670.7338, 539.1002
671.2159, 536.9771
671.6981, 534.9496
672.1802, 532.8156
672.6623, 530.6863
673.1444, 528.8884
673.6265, 528.0656
674.1086, 527.2830
674.5908, 525.8889
675.0729, 523.9246
675.5550, 521.6893
676.0371, 518.9092
676.5192, 516.2230
677.0013, 513.7437
677.4835, 511.4082
677.9656, 510.0330
678.4477, 510.1606
678.9298, 510.2489
679.4119, 509.0757
679.8940, 506.6105
680.3762, 504.5882
680.8583, 503.0667
681.3404, 501.7722
681.8225, 500.3988
682.3046, 499.0279
682.7867, 497.8194
683.2689, 496.8538
683.7510, 495.9241
684.2331, 495.0294
684.7152, 494.0516
685.1973, 492.8613
685.6794, 490.9161
686.1616, 489.3546
686.6437, 488.8062
687.1258, 488.6556
687.6079, 487.7567
688.0900, 485.7947
688.5721, 483.9476
689.0543, 482.5617
689.5364, 481.4503
690.0185, 479.9940
690.5006, 478.2075
690.9827, 476.4698
691.4648, 474.9649
691.9470, 473.6104
692.4291, 472.1599
692.9112, 470.6709
693.3933, 469.4706
693.8754, 469.1517
694.3575, 468.8454
694.8397, 467.9051
695.3218, 466.2257
695.8039, 464.7047
696.2860, 463.5270
696.7681, 462.4835
697.2502, 461.4636
697.7324, 460.4609
698.2145, 459.6851
698.6966, 459.3356
699.1787, 458.6577
699.6608, 456.3929
700.1429, 453.0140
700.6251, 450.9474
701.1072, 450.6754
701.5893, 450.7613
702.0714, 449.8175
702.5535, 448.2972
703.0356, 446.8341
703.5178, 445.5089
703.9999, 444.4589
704.4820, 444.0388
704.9641, 443.8423
705.4462, 443.2177
705.9283, 441.9456
706.4105, 440.5444
706.8926, 439.0305
707.3747, 437.4516
707.8568, 435.8753
708.3389, 434.2865
708.8210, 432.8535
709.3032, 431.7089
709.7853, 430.6836
710.2674, 429.4186
710.7495, 427.9631
711.2316, 426.5673
711.7137, 425.2210
712.1959, 424.1043
712.6780, 423.6063
713.1601, 423.5892
713.6422, 423.0984
714.1243, 421.3397
714.6064, 419.5537
715.0886, 418.3905
715.5707, 417.8773
716.0528, 416.5253
716.5349, 413.9662
717.0170, 411.4854
717.4991, 410.0236
717.9813, 409.4424
718.4634, 408.5149
718.9455, 407.2090
719.4276, 405.8041
719.9097, 404.5672
720.3918, 403.3618
720.8740, 401.9311
721.3561, 400.1371
721.8382, 398.6737
722.3203, 398.2435
722.8024, 398.0521
723.2845, 397.3810
723.7667, 395.8044
724.2488, 394.3438
724.7309, 392.9940
725.2130, 391.7431
725.6951, 390.6377
726.1772, 389.7066
726.6594, 388.4754
727.1415, 386.7838
727.6236, 385.0944
728.1057, 384.2133
728.5878, 383.8428
729.0699, 383.1840
729.5521, 381.8436
730.0342, 380.3551
730.5163, 378.9404
730.9984, 377.6535
731.4805, 376.5898
731.9626, 376.2227
732.4448, 375.5258
732.9269, 374.0917
733.4090, 372.2617
733.8911, 371.1259
734.3732, 370.9669
734.8553, 370.3203
735.3375, 368.4304
735.8196, 365.9902
736.3017, 364.9528
736.7838, 365.1232
737.2659, 365.3120
737.7480, 364.8908
738.2302, 364.1747
738.7123, 363.3263
739.1944, 362.4001
739.6765, 361.6336
740.1586, 361.5797
740.6407, 361.2581
741.1229, 360.1347
741.6050, 358.2443
742.0871, 356.3332
742.5692, 354.1855
743.0513, 352.5038
743.5334, 351.8500
744.0156, 352.0740
744.4977, 351.9019
744.9798, 351.3348
745.4619, 350.7095
745.9440, 350.5018
746.4261, 350.2822
746.9083, 349.3450
747.3904, 347.6156
747.8725, 346.0935
748.3546, 345.3739
748.8367, 344.9406
749.3188, 344.3667
749.8010, 343.3861
750.2831, 343.3225
750.7652, 344.9560
751.2473, 346.2972
751.7294, 345.4556
752.2115, 342.4740
752.6937, 340.1119
753.1758, 338.5473
753.6579, 337.4452
754.1400, 336.6740
754.6221, 336.0659
755.1042, 335.3241
755.5864, 334.3781
756.0685, 333.4038
756.5506, 332.5149
757.0327, 331.6428
757.5148, 330.7380
757.9969, 329.4465
758.4791, 328.6798
758.9612, 328.6988
759.4433, 328.9499
759.9254, 328.7415
760.4075, 328.0484
760.8896, 327.3740
761.3718, 326.8107
761.8539, 326.2239
762.3360, 325.3893
762.8181, 324.4032
763.3002, 323.4667
763.7823, 322.6154
764.2645, 321.8535
764.7466, 321.2116
765.2287, 320.6571
765.7108, 320.1215
766.1929, 319.5952
766.6750, 319.1068
767.1572, 318.6982
767.6393, 318.3057
768.1214, 317.8116
768.6035, 317.2154
769.0856, 316.4947
769.5677, 315.5700
770.0499, 314.6421
770.5320, 314.0734
771.0141, 313.7522
771.4962, 313.3944
771.9783, 312.7424
772.4604, 312.1596
772.9426, 311.9550
773.4247, 311.9534
773.9068, 311.7484
774.3889, 311.1730
774.8710, 310.5603
775.3531, 309.9696
775.8353, 309.3788
776.3174, 308.6250
776.7995, 307.6944
777.2816, 307.1218
777.7637, 307.2900
778.2458, 307.7297
778.7280, 307.6069
779.2101, 307.0748
779.6922, 306.6244
780.1743, 306.8804
780.6564, 306.8966
781.1385, 305.8106
781.6207, 303.9716
782.1028, 302.9958
782.5849, 303.5184
783.0670, 304.0113
783.5491, 304.0607
784.0313, 303.7793
784.5134, 303.7243
784.9955, 303.9009
785.4776, 303.6974
785.9597, 302.4747
786.4418, 300.9438
786.9240, 300.3089
787.4061, 300.3781
787.8882, 300.4620
788.3703, 300.1445
788.8524, 299.8271
789.3345, 299.8373
789.8167, 300.0930
790.2988, 299.9132
790.7809, 299.0268
791.2630, 298.1785
791.7451, 297.5334
792.2272, 297.1434
792.7094, 297.4396
793.1915, 298.3800
793.6736, 298.9164
794.1557, 297.9723
794.6378, 296.5772
795.1199, 296.1499
795.6021, 296.4995
796.0842, 296.6872
796.5663, 296.1103
797.0484, 295.4727
797.5305, 295.0550
798.0126, 294.8519
798.4948, 294.8026
798.9769, 295.0050
799.4590, 295.1210
799.9411, 294.9950
800.4232, 294.6778
800.9053, 294.2965
801.3875, 293.8712
801.8696, 293.5915
802.3517, 293.8224
802.8338, 294.0698
803.3159, 293.6185
803.7980, 292.6356
804.2802, 292.1559
804.7623, 293.2125
805.2444, 294.0831
805.7265, 293.9522
806.2086, 292.9888
806.6907, 292.8163
807.1729, 293.6350
807.6550, 294.3713
808.1371, 294.5234
808.6192, 294.2240
809.1013, 293.6857
809.5834, 292.9670
810.0656, 292.3977
810.5477, 292.2470
811.0298, 292.2560
811.5119, 292.3107
811.9940, 292.3906
812.4761, 292.3846
812.9583, 292.4175
813.4404, 292.1705
813.9225, 291.3662
814.4046, 290.1843
814.8867, 289.7225
815.3688, 290.0107
815.8510, 290.4931
816.3331, 291.0305
816.8152, 291.4954
817.2973, 291.6508
817.7794, 291.5322
818.2615, 291.2838
818.7437, 290.7090
819.2258, 290.2786
819.7079, 290.2145
820.1900, 290.5065
820.6721, 291.0080
821.1542, 292.0283
821.6364, 292.5449
822.1185, 292.0154
822.6006, 290.8410
823.0827, 290.3847
823.5648, 290.5696
824.0469, 290.7247
824.5291, 290.4600
825.0112, 290.0442
825.4933, 289.6735
825.9754, 289.3616
826.4575, 289.1364
826.9396, 289.1218
827.4218, 289.0679
827.9039, 288.8903
828.3860, 288.6294
828.8681, 288.3593
829.3502, 288.0187
829.8323, 288.0665
830.3145, 288.8761
830.7966, 289.8930
831.2787, 289.9561
831.7608, 289.3091
832.2429, 288.7088
832.7250, 288.3969
833.2072, 288.3290
833.6893, 288.6136
834.1714, 289.1220
834.6535, 289.5228
835.1356, 289.8546
835.6177, 289.9675
836.0999, 289.7679
836.5820, 289.3998
837.0641, 289.0089
837.5462, 288.6465
838.0283, 289.0134
838.5104, 290.7812
838.9926, 292.5418
839.4747, 292.5965
839.9568, 291.5679
840.4389, 290.5382
840.9210, 289.2697
841.4031, 288.7921
841.8853, 290.0642
842.3674, 291.8817
842.8495, 292.4414
843.3316, 291.4207
843.8137, 290.7444
844.2958, 290.7440
844.7780, 291.1205
845.2601, 291.6835
845.7422, 292.2564
846.2243, 292.3575
846.7064, 291.6350
847.1885, 290.9863
847.6707, 291.1281
848.1528, 291.5370
848.6349, 291.5829
849.1170, 290.8783
849.5991, 290.4066
850.0812, 290.1536
850.5634, 290.1963
851.0455, 290.8447
851.5276, 291.9734
852.0097, 292.4969
852.4918, 292.2092
852.9739, 291.8233
853.4561, 291.8766
853.9382, 292.2552
854.4203, 292.9240
854.9024, 294.0668
855.3845, 294.8365
855.8666, 295.1265
856.3488, 294.9323
856.8309, 293.9703
857.3130, 291.9574
857.7951, 291.4883
858.2772, 292.7651
858.7593, 294.2250
859.2415, 294.2859
859.7236, 293.6886
860.2057, 293.6978
860.6878, 294.4204
861.1699, 295.2764
861.6520, 296.4010
862.1342, 297.2312
862.6163, 297.1848
863.0984, 296.2194
863.5805, 296.0400
864.0626, 296.8672
864.5447, 297.8674
865.0269, 298.7874
865.5090, 299.4948
865.9911, 299.1840
866.4732, 298.0291
866.9553, 297.2116
867.4374, 297.8135
867.9196, 298.7155
868.4017, 299.0833
868.8838, 298.9858
869.3659, 299.1748
869.8480, 299.8371
870.3301, 300.5744
870.8123, 301.3777
871.2944, 302.1224
871.7765, 302.2893
872.2586, 301.9275
872.7407, 301.6327
873.2228, 301.7863
873.7050, 301.9867
874.1871, 301.6530
874.6692, 301.0665
875.1513, 300.8356
875.6334, 301.2196
876.1155, 301.9485
876.5977, 303.2270
877.0798, 304.6440
877.5619, 305.3555
878.0440, 305.3016
878.5261, 305.4437
879.0082, 306.0125
879.4904, 306.7584
879.9725, 307.4897
880.4546, 308.1396
880.9367, 308.5569
881.4188, 308.5377
881.9009, 308.6388
882.3831, 308.8512
882.8652, 309.4227
883.3473, 310.6543
883.8294, 312.8584
884.3115, 314.6104
884.7936, 315.8979
885.2758, 316.6171
885.7579, 316.3318
886.2400, 315.4658
886.7221, 314.8612
887.2042, 314.6101
887.6863, 314.9219
888.1685, 316.6805
888.6506, 318.4600
889.1327, 318.9990
889.6148, 317.9762
890.0969, 318.0309
890.5790, 319.5367
891.0612, 321.1429
891.5433, 322.0011
892.0254, 322.3065
892.5075, 322.6299
892.9896, 323.0091
893.4717, 323.7474
893.9539, 325.4798
894.4360, 327.2448
894.9181, 328.2530
895.4002, 328.6486
895.8823, 329.4646
896.3644, 331.1245
896.8466, 332.5295
897.3287, 333.3439
897.8108, 333.7710
898.2929, 334.2261
898.7750, 334.7562
899.2571, 335.6757
899.7393, 337.3588
900.2214, 339.0905
900.7035, 340.2011
901.1856, 340.9525
901.6677, 341.7609
902.1498, 342.4313
902.6320, 343.6361
903.1141, 345.6624
903.5962, 347.9321
904.0783, 349.5873
904.5604, 350.6866
905.0425, 351.8223
905.5247, 353.0581
906.0068, 354.4812
906.4889, 356.4205
906.9710, 358.4644
907.4531, 360.0387
907.9352, 360.8031
908.4174, 362.1781
908.8995, 365.0295
909.3816, 367.7523
909.8637, 369.1113
910.3458, 369.1298
910.8279, 370.2971
911.3101, 372.6305
911.7922, 375.1548
912.2743, 377.1653
912.7564, 378.9845
913.2385, 380.8840
913.7206, 382.8935
914.2028, 385.1129
914.6849, 388.1138
915.1670, 390.6724
915.6491, 392.2299
916.1312, 393.1196
916.6133, 394.5843
917.0955, 396.6393
917.5776, 399.0960
918.0597, 402.0561
918.5418, 405.1634
919.0239, 408.1095
919.5060, 410.8639
919.9882, 413.3230
920.4703, 415.0941
920.9524, 417.0778
921.4345, 419.5355
921.9166, 422.1423
922.3987, 424.2931
922.8809, 425.9049
923.3630, 428.6974
923.8451, 433.0512
924.3272, 437.5512
924.8093, 440.5562
925.2914, 442.8202
925.7736, 445.3180
926.2557, 448.2923
926.7378, 451.0077
927.2199, 452.7793
927.7020, 454.6704
928.1841, 457.2850
928.6663, 460.6159
929.1484, 463.7023
929.6305, 466.5544
930.1126, 469.5250
930.5947, 473.1670
931.0768, 476.8936
931.5590, 479.7763
932.0411, 482.0289
932.5232, 484.3983
933.0053, 487.3749
933.4874, 490.2743
933.9695, 492.9734
934.4517, 495.4728
934.9338, 497.7470
935.4159, 499.7700
935.8980, 502.1243
936.3801, 505.0162
936.8622, 508.0505
937.3444, 510.6953
937.8265, 513.1358
938.3086, 515.6869
938.7907, 518.4982
939.2728, 521.2287
939.7549, 523.6637
940.2371, 526.1204
940.7192, 529.0226
941.2013, 532.3806
941.6834, 535.3083
942.1655, 537.7634
942.6476, 539.7994
943.1298, 540.7717
943.6119, 541.7545
944.0940, 544.1518
944.5761, 548.0015
945.0582, 551.5434
945.5403, 554.1269
946.0225, 556.6411
946.5046, 559.3995
946.9867, 562.2842
947.4688, 564.7477
947.9509, 566.8064
948.4330, 569.1718
948.9152, 572.3337
949.3973, 575.6601
949.8794, 578.5270
950.3615, 581.1277
950.8436, 583.8159
951.3257, 587.0865
951.8079, 589.7516
952.2900, 591.4551
952.7721, 592.9335
953.2542, 595.1465
953.7363, 597.9894
954.2184, 600.6445
954.7006, 603.0177
955.1827, 605.3740
955.6648, 607.9685
956.1469, 610.6670
956.6290, 613.2665
957.1111, 615.7241
957.5933, 618.5479
958.0754, 621.8334
958.5575, 625.3253
959.0396, 628.8397
959.5217, 632.4520
960.0038, 636.6798
960.4860, 641.3844
960.9681, 645.8588
961.4502, 649.7430
961.9323, 653.2166
962.4144, 655.6331
962.8965, 657.8176
963.3787, 661.6035
963.8608, 667.8271
964.3429, 673.6399
964.8250, 678.7216
965.3071, 683.3568
965.7892, 687.4615
966.2714, 691.4252
966.7535, 696.5185
967.2356, 703.0850
967.7177, 709.4393
968.1998, 714.4979
968.6819, 719.0525
969.1641, 723.4601
969.6462, 727.7424
970.1283, 732.6028
970.6104, 738.1644
971.0925, 743.9432
971.5746, 749.8791
972.0568, 755.7960
972.5389, 761.4821
973.0210, 766.9415
973.5031, 772.0207
973.9852, 776.3116
974.4673, 780.6307
974.9495, 785.2225
975.4316, 789.9952
975.9137, 794.9380
976.3958, 800.1071
976.8779, 803.9910
977.3600, 806.0139
977.8422, 808.1102
978.3243, 812.6858
978.8064, 818.4694
979.2885, 823.9567
979.7706, 828.9880
980.2527, 833.2169
980.7349, 836.3086
981.2170, 839.0154
981.6991, 841.5026
982.1812, 843.8570
982.6633, 846.8364
983.1454, 850.3763
983.6276, 853.8405
984.1097, 857.5273
984.5918, 860.3611
985.0739, 860.3867
985.5560, 858.9297
986.0381, 859.7766
986.5203, 865.0673
987.0024, 868.4573
987.4845, 868.5977
987.9666, 867.6597
988.4487, 869.4391
988.9308, 872.7056
989.4130, 873.5215
989.8951, 870.9183
990.3772, 868.3656
990.8593, 867.9842
991.3414, 868.3489
991.8235, 868.4333
992.3057, 868.1786
992.7878, 868.4489
993.2699, 869.4255
993.7520, 869.8339
994.2341, 868.8792
994.7162, 866.9974
995.1984, 864.4988
995.6805, 861.6864
996.1626, 859.4656
996.6447, 859.1406
997.1268, 858.1469
997.6089, 855.5502
998.0911, 852.3329
998.5732, 850.0331
999.0553, 848.6265
999.5374, 846.4755
1000.020, 843.3646
1000.502, 839.9615
1000.984, 836.7260
1001.466, 833.6572
1001.948, 830.9761
1002.430, 828.8149
1002.912, 825.6397
1003.394, 820.9492
1003.876, 816.1188
1004.359, 811.6168
1004.841, 807.4453
1005.323, 804.0190
1005.805, 801.0936
1006.287, 797.7970
1006.769, 793.6701
1007.251, 789.1063
1007.733, 783.6351
1008.216, 778.2122
1008.698, 774.4617
1009.180, 773.2596
1009.662, 770.0038
1010.144, 764.1295
1010.626, 757.8681
1011.108, 753.7275
1011.590, 750.6081
1012.072, 746.8301
1012.555, 742.2886
1013.037, 738.0880
1013.519, 734.5580
1014.001, 731.5988
1014.483, 729.7191
1014.965, 728.1268
1015.447, 723.5101
1015.929, 716.2178
1016.411, 710.2480
1016.894, 707.4016
1017.376, 705.1529
1017.858, 701.4636
1018.340, 697.0313
1018.822, 692.7496
1019.304, 688.7219
1019.786, 684.8105
1020.268, 680.9796
1020.751, 677.3805
1021.233, 674.4598
1021.715, 671.7786
1022.197, 667.9543
1022.679, 663.1776
1023.161, 658.7758
1023.643, 655.9934
1024.125, 653.0521
1024.607, 648.8976
1025.090, 644.2175
1025.572, 640.4936
1026.054, 637.7573
1026.536, 635.0850
1027.018, 632.2512
1027.500, 629.4841
1027.982, 627.3740
1028.464, 625.2758
1028.947, 622.3223
1029.429, 618.1879
1029.911, 614.3278
1030.393, 610.9307
1030.875, 607.6369
1031.357, 604.3488
1031.839, 601.0397
1032.321, 597.3890
1032.803, 593.6143
1033.286, 590.4717
1033.768, 588.9823
1034.250, 587.5271
1034.732, 585.1967
1035.214, 582.5456
1035.696, 580.5130
1036.178, 579.3177
1036.660, 577.2369
1037.143, 573.9818
1037.625, 570.7463
1038.107, 568.7656
1038.589, 567.2673
1039.071, 565.3023
1039.553, 562.8105
1040.035, 560.4241
1040.517, 558.6526
1041.000, 556.3442
1041.482, 552.9319
1041.964, 549.1006
1042.446, 546.7884
1042.928, 545.6346
1043.410, 544.2325
1043.892, 542.1287
1044.374, 539.8545
1044.856, 537.5765
1045.339, 535.4531
1045.821, 533.6362
1046.303, 532.1872
1046.785, 530.6468
1047.267, 529.0119
1047.749, 527.3633
1048.231, 525.9654
1048.713, 524.4760
1049.195, 522.3492
1049.677, 519.7531
1050.160, 517.2355
1050.642, 514.6650
1051.124, 512.6479
1051.606, 511.4615
1052.088, 510.5199
1052.570, 508.9685
1053.052, 506.9800
1053.534, 505.3525
1054.017, 504.1873
1054.499, 503.0435
1054.981, 501.4841
1055.463, 500.0079
1055.945, 499.1169
1056.427, 498.6429
1056.909, 497.5722
1057.391, 495.8673
1057.874, 493.9966
1058.356, 491.9497
1058.838, 490.1832
1059.320, 489.6025
1059.802, 489.5319
1060.284, 488.9458
1060.766, 487.2720
1061.248, 485.9396
1061.730, 485.0903
1062.213, 484.4104
1062.695, 483.8265
1063.177, 483.2151
1063.659, 481.9441
1064.141, 480.1660
1064.623, 478.6454
1065.105, 477.7991
1065.587, 477.2383
1066.070, 476.9867
1066.552, 476.8197
1067.034, 476.3427
1067.516, 475.5345
1067.998, 475.0894
1068.480, 475.1191
1068.962, 475.2230
1069.444, 475.4899
1069.927, 475.3370
1070.409, 473.8735
1070.891, 471.1010
1071.373, 469.3346
1071.855, 469.0348
1072.337, 468.5714
1072.819, 467.2260
1073.301, 465.7790
1073.783, 466.0258
1074.266, 467.1529
1074.748, 467.3299
1075.230, 465.5461
1075.712, 464.2827
1076.194, 464.8696
1076.676, 465.3776
1077.158, 464.4306
1077.640, 462.2429
1078.122, 461.1713
1078.604, 461.0818
1079.087, 460.8461
1079.569, 459.2979
1080.051, 457.9683
1080.533, 458.1535
1081.015, 459.0417
1081.497, 459.0882
1081.979, 458.0465
1082.461, 457.2859
1082.944, 456.9322
1083.426, 456.6974
1083.908, 456.6584
1084.390, 456.3648
1084.872, 454.9930
1085.354, 452.6309
1085.836, 450.8589
1086.318, 450.0870
1086.801, 449.5188
1087.283, 449.0309
1087.765, 448.5565
1088.247, 447.8946
1088.729, 447.1526
1089.211, 446.5915
1089.693, 446.2396
1090.175, 446.1833
1090.657, 447.0777
1091.140, 447.6383
1091.622, 447.0431
1092.104, 445.4656
1092.586, 444.3772
1093.068, 443.7237
1093.550, 442.8914
1094.032, 441.2997
1094.514, 439.8800
1094.997, 439.5179
1095.479, 439.6425
1095.961, 439.4696
1096.443, 438.8887
1096.925, 438.2516
1097.407, 437.5332
1097.889, 436.9166
1098.371, 436.7750
1098.854, 436.6666
1099.336, 435.8937
1099.818, 434.6282
1100.300, 433.5992
1100.782, 433.1094
1101.264, 432.6039
1101.746, 431.9732
1102.228, 431.4047
1102.710, 431.4388
1103.193, 431.6812
1103.675, 430.9615
1104.157, 429.1500
1104.639, 427.5900
1105.121, 427.2980
1105.603, 426.8484
1106.085, 425.5013
1106.567, 423.6978
1107.049, 423.0528
1107.531, 423.3603
1108.014, 422.9771
1108.496, 421.2024
1108.978, 419.5148
1109.460, 418.9240
1109.942, 418.9088
1110.424, 419.2030
1110.906, 419.8232
1111.388, 419.5026
1111.871, 418.1747
1112.353, 416.8684
1112.835, 416.2956
1113.317, 415.7513
1113.799, 414.2195
1114.281, 412.2848
1114.763, 410.9168
1115.245, 410.6901
1115.728, 410.2952
1116.210, 409.8394
1116.692, 408.8851
1117.174, 406.5908
1117.656, 403.7966
1118.138, 401.9962
1118.620, 401.0907
1119.102, 400.5049
1119.584, 400.5927
1120.067, 400.1777
1120.549, 398.9650
1121.031, 397.3621
1121.513, 395.8311
1121.995, 394.3646
1122.477, 392.9532
1122.959, 391.5791
1123.441, 390.3743
1123.924, 390.0162
1124.406, 389.1031
1124.888, 386.6353
1125.370, 383.4261
1125.852, 381.9060
1126.334, 381.9179
1126.816, 381.7303
1127.298, 380.9880
1127.781, 379.7824
1128.263, 377.6720
1128.745, 375.5336
1129.227, 374.1966
1129.709, 373.6162
1130.191, 372.8567
1130.673, 371.9337
1131.155, 370.3936
1131.637, 367.6374
1132.120, 364.9128
1132.602, 363.6577
1133.084, 363.2031
1133.566, 362.7236
1134.048, 362.2743
1134.530, 360.9957
1135.012, 358.5659
1135.494, 356.5894
1135.976, 356.6989
1136.458, 357.4957
1136.941, 356.6680
1137.423, 354.7104
1137.905, 352.8323
1138.387, 351.4572
1138.869, 349.9936
1139.351, 348.3260
1139.833, 346.7808
1140.315, 345.8793
1140.798, 345.3025
1141.280, 344.3626
1141.762, 343.0233
1142.244, 341.3481
1142.726, 338.4052
1143.208, 336.4868
1143.690, 336.6000
1144.172, 337.2778
1144.655, 336.0381
1145.137, 333.3904
1145.619, 331.2996
1146.101, 330.0255
1146.583, 328.9200
1147.065, 327.4769
1147.547, 326.3013
1148.029, 325.8148
1148.511, 325.7059
1148.994, 325.1380
1149.476, 324.1241
1149.958, 322.6518
1150.440, 320.5632
1150.922, 318.7470
1151.404, 317.9051
1151.886, 317.5413
1152.368, 317.4776
1152.851, 317.6044
1153.333, 316.9417
1153.815, 315.4814
1154.297, 313.8482
1154.779, 312.1338
1155.261, 310.6378
1155.743, 309.8906
1156.225, 309.4058
1156.708, 308.6013
1157.190, 307.3996
1157.672, 306.3690
1158.154, 305.5603
1158.636, 304.4794
1159.118, 302.5027
1159.600, 300.5291
1160.082, 299.8007
1160.564, 299.7230
1161.047, 299.2331
1161.529, 297.8591
1162.011, 296.9199
1162.493, 296.5192
1162.975, 296.1361
1163.457, 295.2886
1163.939, 294.2694
1164.421, 293.6073
1164.903, 293.1260
1165.385, 292.2648
1165.868, 290.6119
1166.350, 289.0548
1166.832, 287.5712
1167.314, 286.4572
1167.796, 286.4160
1168.278, 286.7892
1168.760, 286.2955
1169.242, 285.0142
1169.725, 283.9438
1170.207, 283.5282
1170.689, 283.1696
1171.171, 282.8873
1171.653, 282.4319
1172.135, 281.2893
1172.617, 279.7496
1173.099, 278.4135
1173.582, 277.3548
1174.064, 276.4113
1174.546, 275.3241
1175.028, 274.6820
1175.510, 274.8719
1175.992, 275.3037
1176.474, 274.6186
1176.956, 273.2056
1177.438, 272.2468
1177.921, 272.0137
1178.403, 271.7609
1178.885, 271.3658
1179.367, 270.6199
1179.849, 269.2465
1180.331, 267.6006
1180.813, 266.9367
1181.295, 267.0118
1181.778, 266.8962
1182.260, 266.2791
1182.742, 265.6552
1183.224, 265.2640
1183.706, 264.9165
1184.188, 264.5863
1184.670, 264.2023
1185.152, 263.2372
1185.635, 261.8297
1186.117, 260.6641
1186.599, 260.0763
1187.081, 259.6176
1187.563, 259.1197
1188.045, 258.6351
1188.527, 258.2215
1189.009, 257.8709
1189.491, 257.3967
1189.974, 256.8200
1190.456, 256.2933
1190.938, 255.9564
1191.420, 255.6040
1191.902, 255.0069
1192.384, 254.4388
1192.866, 254.2414
1193.348, 254.4283
1193.830, 254.1759
1194.313, 253.5074
1194.795, 252.7524
1195.277, 252.0096
1195.759, 251.3384
1196.241, 250.7645
1196.723, 250.2982
1197.205, 250.0146
1197.687, 249.9259
1198.169, 249.5509
1198.652, 248.8837
1199.134, 248.2190
1199.616, 247.9651
1200.098, 247.5675
1200.580, 246.4823
1201.062, 245.1352
1201.544, 244.1778
1202.026, 243.6136
1202.509, 243.4283
1202.991, 243.6278
1203.473, 243.7030
1203.955, 242.9421
1204.437, 242.2689
1204.919, 242.6671
1205.401, 243.4691
1205.883, 242.9782
1206.365, 241.1458
1206.848, 240.2466
1207.330, 240.6203
1207.812, 241.1770
1208.294, 241.2174
1208.776, 241.0142
1209.258, 240.6449
1209.740, 240.1994
1210.222, 239.9313
1210.705, 239.8419
1211.187, 239.7075
1211.669, 239.5013
1212.151, 239.1546
1212.633, 238.3975
1213.115, 237.6795
1213.597, 237.4193
1214.079, 237.4834
1214.562, 237.4082
1215.044, 237.1976
1215.526, 236.9782
1216.008, 236.7710
1216.490, 236.5915
1216.972, 236.5738
1217.454, 236.4714
1217.936, 235.9936
1218.418, 235.2573
1218.901, 234.9375
1219.383, 235.0045
1219.865, 234.8350
1220.347, 234.1107
1220.829, 233.6743
1221.311, 234.7139
1221.793, 235.7874
1222.275, 235.7446
1222.757, 234.7467
1223.240, 233.9023
1223.722, 233.2218
1224.204, 232.8625
1224.686, 233.0029
1225.168, 233.1095
1225.650, 232.8387
1226.132, 232.3697
1226.614, 231.7892
1227.096, 231.1387
1227.579, 230.8078
1228.061, 230.7670
1228.543, 230.7456
1229.025, 230.5882
1229.507, 230.5490
1229.989, 230.8773
1230.471, 231.3029
1230.953, 231.6803
1231.436, 231.9769
1231.918, 231.7856
1232.400, 231.1709
1232.882, 230.5903
1233.364, 230.2082
1233.846, 229.9367
1234.328, 229.8339
1234.810, 229.7281
1235.292, 229.4046
1235.775, 228.9448
1236.257, 229.2563
1236.739, 230.1220
1237.221, 230.3577
1237.703, 228.7645
1238.185, 227.5642
1238.667, 228.0420
1239.149, 228.7871
1239.632, 228.7341
1240.114, 228.0718
1240.596, 227.9824
1241.078, 228.3410
1241.560, 228.6165
1242.042, 228.4512
1242.524, 228.3509
1243.006, 228.5550
1243.489, 228.7020
1243.971, 228.3997
1244.453, 227.8038
1244.935, 227.6091
1245.417, 227.7222
1245.899, 227.8003
1246.381, 227.6815
1246.863, 227.5517
1247.345, 227.5136
1247.828, 227.3537
1248.310, 226.7444
1248.792, 225.9232
1249.274, 225.4628
1249.756, 225.3503
1250.238, 225.4991
1250.720, 226.1371
1251.202, 226.6613
1251.684, 227.0486
1252.167, 227.2622
1252.649, 227.2634
1253.131, 227.0702
1253.613, 226.5410
1254.095, 225.8403
1254.577, 225.5079
1255.059, 225.9962
1255.541, 226.2359
1256.023, 226.1264
1256.506, 225.9179
1256.988, 225.8205
1257.470, 225.7658
1257.952, 225.6972
1258.434, 225.5923
1258.916, 225.3639
1259.398, 224.8889
1259.880, 224.6760
1260.363, 224.7955
1260.845, 224.9424
1261.327, 224.8896
1261.809, 224.7093
1262.291, 224.4373
1262.773, 224.1007
1263.255, 223.7202
1263.737, 223.1971
1264.219, 223.2196
1264.702, 223.8788
1265.184, 224.3914
1265.666, 223.9480
1266.148, 223.3204
1266.630, 222.9972
1267.112, 222.9763
1267.594, 223.2649
1268.076, 223.9107
1268.559, 224.0821
1269.041, 223.7297
1269.523, 223.3937
1270.005, 223.6530
1270.487, 223.8096
1270.969, 223.1900
1271.451, 222.3776
1271.933, 222.2931
1272.416, 222.8492
1272.898, 222.8346
1273.380, 222.2200
1273.862, 221.6255
1274.344, 221.1577
1274.826, 221.1351
1275.308, 221.9501
1275.790, 222.8989
1276.272, 223.0773
1276.755, 222.6396
1277.237, 221.9831
1277.719, 221.2172
1278.201, 220.8241
1278.683, 221.3292
1279.165, 221.8266
1279.647, 222.1858
1280.129, 222.4158
1280.611, 222.5628
1281.094, 222.5817
1281.576, 222.2542
1282.058, 221.6724
1282.540, 221.3324
1283.022, 221.4011
1283.504, 221.7332
1283.986, 222.4582
1284.468, 222.9402
1284.950, 222.2398
1285.433, 221.1286
1285.915, 220.4713
1286.397, 220.3127
1286.879, 220.7394
1287.361, 222.0342
1287.843, 222.6206
1288.325, 222.2931
1288.807, 221.8035
1289.290, 221.8733
1289.772, 221.9951
1290.254, 221.6668
1290.736, 221.0620
1291.218, 220.6009
1291.700, 220.2791
1292.182, 220.1934
1292.664, 220.3469
1293.146, 220.5257
1293.629, 220.5893
1294.111, 220.6241
1294.593, 220.7861
1295.075, 220.8674
1295.557, 220.4423
1296.039, 219.6249
1296.521, 219.4715
1297.003, 219.9517
1297.486, 220.3392
1297.968, 220.2650
1298.450, 220.0259
1298.932, 219.5806
1299.414, 219.2326
1299.896, 219.4800
1300.378, 220.0560
1300.860, 220.1905
1301.343, 219.9475
1301.825, 219.7463
##END=



