##NAMES=Lefontite
##RRUFFID=R140539
##IDEAL CHEMISTRY=Fe^2+^_2_Al_2_Be(PO_4_)_2_(OH)_6_
##LOCALITY=Palermo No. 1 mine, Groton, New Hampshire, USA
##OWNER=RRUFF
##SOURCE=Benjamin N. Schumer
##DESCRIPTION=Dark or reddish brown prismatic crystals, associated with grey bladed eosphorite, colorless or white prismatic palermoite (R120141), and natropalermoite (130092).
##STATUS=The identification of this mineral is confirmed by single-crystal X-ray diffraction and chemical analysis.
##URL=rruff.info/R140539
##MEASURED CHEMISTRY=(Fe^2+^_1.22_Mn_0.48_Ca_0.16_Mg_0.05_)_Î£=1.91_Al_1.91_Be_0.97_(PO_4_)_2_(OH)_6.50_ ; Be2+ needs to be analyzed by Icp-ms
108.1036, 428.8594
108.5858, 430.8819
109.0679, 433.1483
109.5500, 435.6348
110.0321, 438.3995
110.5142, 441.4536
110.9963, 445.4344
111.4785, 449.0202
111.9606, 451.9821
112.4427, 454.3493
112.9248, 456.5959
113.4069, 458.7790
113.8890, 460.8772
114.3712, 462.8993
114.8533, 465.5431
115.3354, 467.4724
115.8175, 467.9291
116.2996, 466.7639
116.7817, 465.8514
117.2639, 466.4954
117.7460, 467.6108
118.2281, 467.8199
118.7102, 465.7500
119.1923, 463.2278
119.6744, 461.2679
120.1566, 459.9715
120.6387, 459.2012
121.1208, 459.0010
121.6029, 459.2569
122.0850, 459.7563
122.5671, 461.0562
123.0493, 462.2350
123.5314, 462.2178
124.0135, 460.5348
124.4956, 458.3260
124.9777, 456.4931
125.4598, 454.9962
125.9420, 453.7544
126.4241, 452.7351
126.9062, 451.9214
127.3883, 451.3239
127.8704, 451.0380
128.3525, 450.8344
128.8347, 450.3977
129.3168, 449.7267
129.7989, 448.8906
130.2810, 447.7826
130.7631, 446.5073
131.2452, 445.4988
131.7274, 445.0902
132.2095, 444.9201
132.6916, 443.8226
133.1737, 441.6675
133.6558, 439.4604
134.1379, 438.2871
134.6201, 438.1335
135.1022, 437.8349
135.5843, 436.9329
136.0664, 435.5488
136.5485, 434.6613
137.0306, 434.3586
137.5128, 434.3387
137.9949, 434.2618
138.4770, 434.1288
138.9591, 433.9309
139.4412, 433.7731
139.9233, 433.7032
140.4055, 432.8660
140.8876, 430.9048
141.3697, 428.5183
141.8518, 426.8610
142.3339, 426.1359
142.8160, 425.6791
143.2982, 425.3016
143.7803, 425.0723
144.2624, 424.7007
144.7445, 424.1264
145.2266, 423.4296
145.7087, 422.8381
146.1909, 422.5139
146.6730, 422.0865
147.1551, 421.3891
147.6372, 420.2079
148.1193, 419.1346
148.6014, 418.0689
149.0836, 417.1028
149.5657, 416.5166
150.0478, 416.6385
150.5299, 416.8897
151.0120, 417.0196
151.4941, 416.7319
151.9763, 416.6617
152.4584, 416.9604
152.9405, 417.5369
153.4226, 417.9492
153.9047, 418.2188
154.3868, 418.2756
154.8690, 418.0813
155.3511, 417.2107
155.8332, 416.5336
156.3153, 416.1599
156.7974, 416.0896
157.2795, 416.3034
157.7617, 417.5688
158.2438, 418.7170
158.7259, 418.9054
159.2080, 416.6158
159.6901, 414.6217
160.1722, 413.8681
160.6544, 414.3218
161.1365, 414.9555
161.6186, 415.6016
162.1007, 416.1775
162.5828, 416.6209
163.0649, 416.6151
163.5471, 416.7049
164.0292, 417.3000
164.5113, 418.4104
164.9934, 419.2650
165.4755, 419.2185
165.9576, 418.7563
166.4398, 418.4808
166.9219, 418.8212
167.4040, 419.2765
167.8861, 419.4410
168.3682, 419.2738
168.8503, 419.2372
169.3325, 419.8622
169.8146, 420.7944
170.2967, 421.4526
170.7788, 421.3968
171.2609, 421.0723
171.7430, 420.8446
172.2252, 420.7364
172.7073, 420.7421
173.1894, 420.7691
173.6715, 420.9038
174.1536, 421.3288
174.6357, 422.6170
175.1179, 424.0495
175.6000, 424.5815
176.0821, 423.9790
176.5642, 423.2890
177.0463, 423.7818
177.5284, 425.0903
178.0106, 426.0808
178.4927, 425.8262
178.9748, 424.9369
179.4569, 424.4195
179.9390, 424.3773
180.4211, 424.6696
180.9033, 425.3014
181.3854, 426.2001
181.8675, 426.9954
182.3496, 427.3945
182.8317, 427.5407
183.3138, 427.8235
183.7960, 428.3223
184.2781, 428.8416
184.7602, 429.0490
185.2423, 428.9771
185.7244, 428.8986
186.2065, 428.9649
186.6887, 429.1533
187.1708, 429.3642
187.6529, 429.5494
188.1350, 429.8186
188.6171, 430.4669
189.0992, 431.4857
189.5814, 432.4098
190.0635, 432.8152
190.5456, 432.8033
191.0277, 433.0651
191.5098, 433.7589
191.9919, 434.6404
192.4741, 435.2693
192.9562, 435.6481
193.4383, 435.7167
193.9204, 435.2270
194.4025, 434.2273
194.8846, 433.6112
195.3668, 433.5791
195.8489, 433.8761
196.3310, 433.9510
196.8131, 433.8047
197.2952, 433.4209
197.7773, 432.5435
198.2595, 431.1466
198.7416, 430.4580
199.2237, 430.8342
199.7058, 431.8452
200.1879, 432.2303
200.6700, 431.8633
201.1522, 431.4721
201.6343, 431.7671
202.1164, 432.8883
202.5985, 433.1676
203.0806, 432.0751
203.5627, 430.1884
204.0449, 429.4887
204.5270, 430.2509
205.0091, 431.2863
205.4912, 431.7387
205.9733, 431.4836
206.4554, 431.4078
206.9376, 431.7232
207.4197, 432.2574
207.9018, 432.2648
208.3839, 431.5239
208.8660, 430.8260
209.3481, 430.8148
209.8303, 431.6928
210.3124, 432.3683
210.7945, 432.7254
211.2766, 432.7979
211.7587, 432.6862
212.2408, 432.3152
212.7230, 431.9227
213.2051, 431.5797
213.6872, 431.1534
214.1693, 431.2842
214.6514, 432.2906
215.1335, 433.8939
215.6157, 434.7138
216.0978, 434.4527
216.5799, 433.9433
217.0620, 433.7382
217.5441, 433.9728
218.0262, 434.0785
218.5084, 433.8971
218.9905, 433.5371
219.4726, 433.6108
219.9547, 434.3930
220.4368, 435.1530
220.9189, 435.3575
221.4011, 434.7091
221.8832, 434.3236
222.3653, 434.3517
222.8474, 434.7195
223.3295, 435.0896
223.8116, 435.4414
224.2938, 435.8215
224.7759, 436.3032
225.2580, 437.0550
225.7401, 437.4694
226.2222, 437.4189
226.7043, 436.9941
227.1865, 436.5316
227.6686, 435.8778
228.1507, 435.4193
228.6328, 435.5135
229.1149, 436.7402
229.5970, 437.1110
230.0792, 436.1687
230.5613, 434.2855
231.0434, 432.9380
231.5255, 432.2904
232.0076, 431.9712
232.4897, 431.8123
232.9719, 431.8509
233.4540, 432.0049
233.9361, 432.3974
234.4182, 432.9020
234.9003, 433.0582
235.3824, 432.7161
235.8646, 432.2404
236.3467, 431.7905
236.8288, 431.3319
237.3109, 430.9609
237.7930, 430.6773
238.2751, 430.4719
238.7573, 430.3471
239.2394, 430.3713
239.7215, 430.3578
240.2036, 430.2072
240.6857, 429.8294
241.1678, 429.5093
241.6500, 429.3140
242.1321, 429.1541
242.6142, 428.7509
243.0963, 427.8076
243.5784, 427.0654
244.0605, 426.9358
244.5427, 427.8757
245.0248, 428.2392
245.5069, 427.8308
245.9890, 426.9284
246.4711, 426.1452
246.9532, 425.5536
247.4354, 424.9581
247.9175, 424.2120
248.3996, 423.0771
248.8817, 422.6270
249.3638, 423.2542
249.8459, 424.3540
250.3281, 424.7505
250.8102, 424.0013
251.2923, 423.3345
251.7744, 423.2410
252.2565, 423.9448
252.7386, 424.2736
253.2208, 424.0752
253.7029, 423.6149
254.1850, 423.3063
254.6671, 423.2227
255.1492, 423.1302
255.6313, 422.9006
256.1135, 422.4630
256.5956, 422.3335
257.0777, 422.5822
257.5598, 423.0558
258.0419, 423.6055
258.5240, 424.3541
259.0062, 424.8666
259.4883, 424.9803
259.9704, 424.6680
260.4525, 424.3123
260.9346, 423.8589
261.4167, 423.4373
261.8989, 423.2570
262.3810, 423.4955
262.8631, 423.4979
263.3452, 422.9468
263.8273, 421.8500
264.3094, 421.5862
264.7916, 422.5150
265.2737, 423.7117
265.7558, 424.2327
266.2379, 423.8343
266.7200, 423.5851
267.2021, 423.8145
267.6843, 424.4297
268.1664, 424.3954
268.6485, 423.3849
269.1306, 422.3955
269.6127, 422.3512
270.0948, 423.4489
270.5770, 424.6032
271.0591, 425.7405
271.5412, 426.7741
272.0233, 427.2599
272.5054, 427.0528
272.9875, 426.6476
273.4697, 426.3769
273.9518, 426.2517
274.4339, 426.1661
274.9160, 426.1227
275.3981, 426.1039
275.8802, 426.0587
276.3624, 425.9925
276.8445, 425.8956
277.3266, 425.8315
277.8087, 425.8253
278.2908, 425.4485
278.7729, 424.5361
279.2551, 423.3948
279.7372, 422.7130
280.2193, 422.5145
280.7014, 422.6332
281.1835, 423.2658
281.6656, 424.3943
282.1478, 424.5958
282.6299, 423.5938
283.1120, 422.0900
283.5941, 421.2369
284.0762, 421.0548
284.5583, 421.0864
285.0405, 421.2224
285.5226, 421.4359
286.0047, 421.4456
286.4868, 421.2125
286.9689, 420.8984
287.4510, 420.7012
287.9332, 420.6173
288.4153, 420.5989
288.8974, 420.6031
289.3795, 420.6533
289.8616, 420.9274
290.3438, 421.4653
290.8259, 421.9409
291.3080, 421.9261
291.7901, 421.4917
292.2722, 421.0700
292.7543, 420.8571
293.2365, 420.7257
293.7186, 420.3217
294.2007, 419.6438
294.6828, 418.9730
295.1649, 418.5055
295.6470, 418.2437
296.1292, 418.2076
296.6113, 418.5076
297.0934, 418.9220
297.5755, 419.1380
298.0576, 419.1591
298.5397, 419.0162
299.0219, 418.7240
299.5040, 418.2867
299.9861, 417.6514
300.4682, 416.6764
300.9503, 415.7840
301.4324, 415.6238
301.9146, 416.0482
302.3967, 416.4220
302.8788, 416.1933
303.3609, 415.7210
303.8430, 415.5756
304.3251, 415.9105
304.8073, 416.2825
305.2894, 416.3616
305.7715, 416.1623
306.2536, 415.7252
306.7357, 414.8725
307.2178, 413.8848
307.7000, 412.9865
308.1821, 412.1704
308.6642, 411.6226
309.1463, 411.6745
309.6284, 412.0477
310.1105, 412.3122
310.5927, 412.2632
311.0748, 412.0513
311.5569, 411.8666
312.0390, 411.7051
312.5211, 411.2048
313.0032, 409.7030
313.4854, 407.9282
313.9675, 406.6747
314.4496, 406.7573
314.9317, 406.9362
315.4138, 406.6450
315.8959, 405.9370
316.3781, 405.1196
316.8602, 404.3091
317.3423, 403.4649
317.8244, 402.5680
318.3065, 401.6912
318.7886, 400.6561
319.2708, 399.1792
319.7529, 397.4707
320.2350, 396.1183
320.7171, 395.5622
321.1992, 395.2137
321.6813, 394.7976
322.1635, 394.2665
322.6456, 393.6790
323.1277, 393.0116
323.6098, 392.2938
324.0919, 391.5749
324.5740, 390.9852
325.0562, 390.2878
325.5383, 389.4024
326.0204, 388.3002
326.5025, 387.1176
326.9846, 385.4939
327.4667, 383.9541
327.9489, 383.0428
328.4310, 383.7567
328.9131, 383.9971
329.3952, 383.3945
329.8773, 381.9380
330.3594, 380.2316
330.8416, 377.8533
331.3237, 375.6040
331.8058, 374.0707
332.2879, 373.5665
332.7700, 373.2720
333.2521, 373.3351
333.7343, 373.5802
334.2164, 373.0758
334.6985, 371.3539
335.1806, 369.6122
335.6627, 368.5247
336.1448, 368.3514
336.6270, 368.0726
337.1091, 367.7071
337.5912, 367.1935
338.0733, 366.3575
338.5554, 365.1349
339.0375, 363.8271
339.5197, 362.4630
340.0018, 361.0319
340.4839, 360.0083
340.9660, 359.4702
341.4481, 359.2096
341.9302, 359.0770
342.4124, 359.0943
342.8945, 358.8853
343.3766, 358.2690
343.8587, 357.3377
344.3408, 356.4724
344.8229, 355.6793
345.3051, 354.9346
345.7872, 354.2585
346.2693, 353.6348
346.7514, 352.9054
347.2335, 351.9890
347.7156, 351.0291
348.1978, 350.3170
348.6799, 349.8465
349.1620, 349.5106
349.6441, 349.3388
350.1262, 349.2471
350.6083, 349.0001
351.0905, 348.5304
351.5726, 348.0475
352.0547, 347.8979
352.5368, 347.9553
353.0189, 347.8378
353.5010, 346.8954
353.9832, 345.8851
354.4653, 346.0174
354.9474, 347.3909
355.4295, 348.5308
355.9116, 347.9102
356.3937, 346.3818
356.8759, 345.2368
357.3580, 345.2408
357.8401, 345.5278
358.3222, 345.4850
358.8043, 345.1768
359.2864, 344.9898
359.7686, 345.3179
360.2507, 345.7574
360.7328, 345.9299
361.2149, 345.5218
361.6970, 345.2246
362.1791, 345.5428
362.6613, 346.1772
363.1434, 346.4438
363.6255, 345.5341
364.1076, 344.6736
364.5897, 344.5136
365.0718, 345.3694
365.5540, 346.0786
366.0361, 346.3885
366.5182, 346.4616
367.0003, 346.4941
367.4824, 346.2289
367.9645, 346.2183
368.4467, 346.7266
368.9288, 347.7831
369.4109, 348.5717
369.8930, 348.9287
370.3751, 349.1556
370.8572, 349.4650
371.3394, 350.0137
371.8215, 350.3673
372.3036, 350.3299
372.7857, 350.0793
373.2678, 350.2991
373.7499, 351.2668
374.2321, 352.2066
374.7142, 352.6446
375.1963, 352.3279
375.6784, 352.6568
376.1605, 353.8664
376.6426, 355.4143
377.1248, 356.4008
377.6069, 356.7537
378.0890, 357.0407
378.5711, 357.4319
379.0532, 357.9149
379.5353, 358.3603
380.0175, 358.7625
380.4996, 359.1832
380.9817, 359.7989
381.4638, 360.5538
381.9459, 360.9240
382.4280, 360.6201
382.9102, 360.1131
383.3923, 360.4779
383.8744, 361.6249
384.3565, 362.6319
384.8386, 362.5641
385.3207, 361.9820
385.8029, 362.2179
386.2850, 363.5647
386.7671, 364.8615
387.2492, 364.7104
387.7313, 363.5925
388.2134, 362.6040
388.6956, 362.1425
389.1777, 362.1121
389.6598, 362.6490
390.1419, 363.7101
390.6240, 364.5945
391.1061, 364.6297
391.5883, 364.3843
392.0704, 364.4753
392.5525, 365.3507
393.0346, 366.2134
393.5167, 366.7110
393.9988, 366.9221
394.4810, 367.0734
394.9631, 367.0099
395.4452, 367.0876
395.9273, 367.5335
396.4094, 368.5036
396.8915, 369.4216
397.3737, 370.1706
397.8558, 370.8099
398.3379, 371.4115
398.8200, 371.7967
399.3021, 372.3325
399.7842, 373.2232
400.2664, 374.4622
400.7485, 375.2920
401.2306, 375.3994
401.7127, 375.3839
402.1948, 375.5670
402.6769, 375.7640
403.1591, 376.6071
403.6412, 378.4305
404.1233, 380.7809
404.6054, 382.6230
405.0875, 383.9258
405.5696, 384.7586
406.0518, 384.9937
406.5339, 384.6090
407.0160, 384.5693
407.4981, 384.9346
407.9802, 385.4953
408.4623, 385.9824
408.9445, 386.4078
409.4266, 387.0451
409.9087, 388.0478
410.3908, 389.2479
410.8729, 390.2125
411.3550, 390.9562
411.8372, 391.6928
412.3193, 392.5601
412.8014, 393.5439
413.2835, 394.6596
413.7656, 395.9593
414.2477, 397.2079
414.7299, 398.1608
415.2120, 398.8548
415.6941, 399.3590
416.1762, 399.3344
416.6583, 399.3700
417.1404, 400.1759
417.6226, 401.7271
418.1047, 403.0804
418.5868, 403.6141
419.0689, 403.7229
419.5510, 403.8070
420.0331, 404.1956
420.5153, 404.2635
420.9974, 403.5492
421.4795, 402.3199
421.9616, 401.2757
422.4437, 400.8260
422.9258, 400.4021
423.4080, 399.7282
423.8901, 398.6630
424.3722, 397.8065
424.8543, 397.4928
425.3364, 397.2825
425.8185, 396.7306
426.3007, 395.4156
426.7828, 394.3961
427.2649, 394.0981
427.7470, 394.3142
428.2291, 393.5790
428.7112, 391.4887
429.1934, 389.1484
429.6755, 387.1291
430.1576, 385.5215
430.6397, 383.7498
431.1218, 381.6745
431.6039, 379.6307
432.0861, 378.3643
432.5682, 377.9601
433.0503, 376.9540
433.5324, 374.2802
434.0145, 370.7151
434.4966, 369.4201
434.9788, 370.4731
435.4609, 371.5185
435.9430, 370.3033
436.4251, 367.5097
436.9072, 365.0190
437.3893, 363.1442
437.8715, 361.6921
438.3536, 360.5409
438.8357, 359.6465
439.3178, 358.8869
439.7999, 358.5482
440.2820, 358.0865
440.7642, 356.7965
441.2463, 354.6236
441.7284, 352.7019
442.2105, 352.0285
442.6926, 351.7079
443.1747, 350.8540
443.6569, 348.3399
444.1390, 346.3199
444.6211, 346.2679
445.1032, 347.3234
445.5853, 346.9992
446.0674, 342.7723
446.5496, 338.9129
447.0317, 337.3286
447.5138, 339.1449
447.9959, 339.6925
448.4780, 338.1479
448.9601, 335.9282
449.4423, 334.3943
449.9244, 333.8692
450.4065, 333.3935
450.8886, 332.7711
451.3707, 332.0985
451.8528, 331.8490
452.3350, 332.1910
452.8171, 332.4278
453.2992, 332.1285
453.7813, 331.2785
454.2634, 330.3858
454.7455, 329.3828
455.2277, 328.5403
455.7098, 328.3240
456.1919, 328.6420
456.6740, 328.8785
457.1561, 328.8379
457.6382, 328.5898
458.1204, 328.2434
458.6025, 327.7963
459.0846, 327.2430
459.5667, 326.3475
460.0488, 325.4356
460.5309, 324.9700
461.0131, 325.0802
461.4952, 325.3502
461.9773, 325.6751
462.4594, 325.9337
462.9415, 325.9498
463.4236, 325.4560
463.9058, 324.8907
464.3879, 324.4017
464.8700, 323.9983
465.3521, 323.6625
465.8342, 323.3415
466.3163, 323.1159
466.7985, 323.0400
467.2806, 323.2202
467.7627, 323.3621
468.2448, 323.5231
468.7269, 323.6133
469.2090, 323.4702
469.6912, 322.8340
470.1733, 322.4535
470.6554, 322.6371
471.1375, 323.2870
471.6196, 323.3818
472.1017, 322.7355
472.5839, 322.0518
473.0660, 321.8818
473.5481, 322.2337
474.0302, 322.3019
474.5123, 321.9516
474.9944, 321.5128
475.4766, 321.4837
475.9587, 321.8226
476.4408, 322.2601
476.9229, 322.8614
477.4050, 323.3962
477.8871, 323.3657
478.3693, 322.8275
478.8514, 322.2818
479.3335, 322.0073
479.8156, 321.9559
480.2977, 322.0936
480.7798, 322.4430
481.2620, 322.8683
481.7441, 323.1865
482.2262, 323.5473
482.7083, 324.1732
483.1904, 325.6328
483.6725, 326.8842
484.1547, 327.4033
484.6368, 327.2354
485.1189, 327.1922
485.6010, 327.2038
486.0831, 327.5126
486.5652, 328.2899
487.0474, 329.9964
487.5295, 331.1633
488.0116, 331.4995
488.4937, 331.4977
488.9758, 331.8649
489.4579, 332.7178
489.9401, 333.6022
490.4222, 334.4628
490.9043, 335.2661
491.3864, 335.8393
491.8685, 336.1493
492.3506, 336.4738
492.8328, 337.0523
493.3149, 337.8197
493.7970, 338.5094
494.2791, 339.1148
494.7612, 339.5933
495.2433, 339.8253
495.7255, 339.8974
496.2076, 340.0273
496.6897, 340.2700
497.1718, 340.6332
497.6539, 341.1374
498.1360, 341.7701
498.6182, 342.4924
499.1003, 343.5849
499.5824, 344.5503
500.0645, 344.8981
500.5466, 344.3929
501.0287, 344.1395
501.5109, 344.6241
501.9930, 345.4362
502.4751, 346.1608
502.9572, 346.7757
503.4393, 347.2563
503.9214, 347.5475
504.4036, 347.6945
504.8857, 347.8623
505.3678, 348.0629
505.8499, 348.2695
506.3320, 348.4873
506.8141, 348.7232
507.2963, 348.9042
507.7784, 349.0606
508.2605, 349.0888
508.7426, 348.7750
509.2247, 348.1532
509.7068, 347.7426
510.1890, 347.6457
510.6711, 347.7854
511.1532, 348.3560
511.6353, 349.1749
512.1174, 349.3722
512.5995, 347.6906
513.0817, 345.5731
513.5638, 345.0446
514.0459, 346.0648
514.5280, 346.8706
515.0101, 346.0784
515.4922, 344.6855
515.9744, 343.6548
516.4565, 343.4144
516.9386, 343.0952
517.4207, 342.1896
517.9028, 341.0736
518.3849, 340.3616
518.8671, 340.9611
519.3492, 341.0907
519.8313, 340.0029
520.3134, 337.8415
520.7955, 336.7214
521.2776, 337.2377
521.7598, 337.9099
522.2419, 337.8662
522.7240, 336.9417
523.2061, 336.1764
523.6882, 335.6158
524.1703, 335.1403
524.6525, 334.6207
525.1346, 334.0551
525.6167, 333.4028
526.0988, 332.6183
526.5809, 331.8000
527.0630, 331.1472
527.5452, 330.6421
528.0273, 330.1551
528.5094, 329.5387
528.9915, 328.9335
529.4736, 328.5260
529.9557, 328.3341
530.4379, 328.1354
530.9200, 327.8163
531.4021, 327.4061
531.8842, 326.9226
532.3663, 326.2314
532.8484, 325.6585
533.3306, 325.3322
533.8127, 325.1732
534.2948, 325.0300
534.7769, 325.0483
535.2590, 324.8957
535.7411, 324.4863
536.2233, 323.8296
536.7054, 323.0143
537.1875, 321.8771
537.6696, 320.9239
538.1517, 320.5359
538.6339, 320.7612
539.1160, 321.0125
539.5981, 321.2858
540.0802, 321.5132
540.5623, 321.6650
541.0444, 321.7155
541.5266, 321.5013
542.0087, 320.8221
542.4908, 320.0220
542.9729, 319.5411
543.4550, 319.3629
543.9371, 319.4063
544.4193, 319.7471
544.9014, 320.2072
545.3835, 320.7112
545.8656, 321.2621
546.3477, 321.5968
546.8298, 321.3251
547.3120, 320.9502
547.7941, 320.8942
548.2762, 321.6045
548.7583, 322.1069
549.2404, 322.2050
549.7225, 322.0883
550.2047, 322.0778
550.6868, 322.2264
551.1689, 322.3705
551.6510, 322.4231
552.1331, 322.4293
552.6152, 322.7521
553.0974, 323.4699
553.5795, 324.1354
554.0616, 324.3676
554.5437, 324.2648
555.0258, 324.3334
555.5079, 324.5920
555.9901, 325.1216
556.4722, 326.4947
556.9543, 328.1620
557.4364, 328.8646
557.9185, 327.6441
558.4006, 326.3177
558.8828, 326.3358
559.3649, 327.3437
559.8470, 328.5200
560.3291, 329.8852
560.8112, 331.0142
561.2933, 331.5948
561.7755, 331.6082
562.2576, 331.7908
562.7397, 332.4068
563.2218, 333.0719
563.7039, 333.6162
564.1860, 334.0511
564.6682, 334.3028
565.1503, 334.2342
565.6324, 334.1664
566.1145, 334.5820
566.5966, 335.5534
567.0787, 336.4176
567.5609, 337.0247
568.0430, 337.4709
568.5251, 337.9398
569.0072, 338.4296
569.4893, 338.8679
569.9714, 339.1693
570.4536, 339.4225
570.9357, 339.7633
571.4178, 340.1869
571.8999, 340.6185
572.3820, 341.0271
572.8641, 341.4036
573.3463, 341.7300
573.8284, 341.9941
574.3105, 342.2316
574.7926, 342.2058
575.2747, 342.2442
575.7568, 342.7707
576.2390, 344.5075
576.7211, 345.8204
577.2032, 346.4883
577.6853, 346.6073
578.1674, 346.3835
578.6495, 345.6131
579.1317, 345.1026
579.6138, 345.2171
580.0959, 345.9032
580.5780, 346.8294
581.0601, 348.0417
581.5422, 349.0938
582.0244, 349.3571
582.5065, 349.1980
582.9886, 349.5920
583.4707, 350.7573
583.9528, 352.0290
584.4349, 352.6627
584.9171, 353.0573
585.3992, 353.8116
585.8813, 355.6901
586.3634, 357.3678
586.8455, 357.8544
587.3276, 357.6779
587.8098, 358.2717
588.2919, 360.3964
588.7740, 362.8470
589.2561, 365.4472
589.7382, 368.2077
590.2203, 370.2787
590.7025, 371.2580
591.1846, 372.2288
591.6667, 374.0608
592.1488, 376.8664
592.6309, 378.9678
593.1130, 380.2495
593.5952, 381.1065
594.0773, 381.6743
594.5594, 382.1609
595.0415, 383.4636
595.5236, 386.2008
596.0057, 389.1179
596.4879, 390.5497
596.9700, 391.0519
597.4521, 391.9092
597.9342, 394.2661
598.4163, 396.6598
598.8984, 398.3964
599.3806, 399.4724
599.8627, 400.0166
600.3448, 399.5102
600.8269, 398.9372
601.3090, 398.7949
601.7911, 399.2478
602.2733, 399.5227
602.7554, 399.7646
603.2375, 399.6240
603.7196, 398.5590
604.2017, 396.4187
604.6838, 394.9630
605.1660, 394.6302
605.6481, 394.4970
606.1302, 392.9572
606.6123, 390.2565
607.0944, 387.5248
607.5765, 385.0438
608.0587, 382.8493
608.5408, 381.2529
609.0229, 380.0305
609.5050, 378.3234
609.9871, 375.3030
610.4692, 371.9839
610.9514, 368.9840
611.4335, 366.3383
611.9156, 363.6343
612.3977, 360.7970
612.8798, 357.8607
613.3619, 354.8616
613.8441, 351.6221
614.3262, 348.6746
614.8083, 346.0692
615.2904, 343.6668
615.7725, 341.3878
616.2546, 339.2480
616.7368, 337.0132
617.2189, 334.5940
617.7010, 332.0884
618.1831, 329.6337
618.6652, 327.2504
619.1473, 325.0059
619.6295, 323.0291
620.1116, 321.1687
620.5937, 319.2716
621.0758, 317.3589
621.5579, 315.4794
622.0400, 313.6203
622.5222, 311.8744
623.0043, 310.2752
623.4864, 308.8075
623.9685, 307.6004
624.4506, 306.8605
624.9327, 306.2161
625.4149, 305.4386
625.8970, 304.5389
626.3791, 303.4442
626.8612, 302.0276
627.3433, 300.6252
627.8254, 299.7937
628.3076, 299.5047
628.7897, 299.1567
629.2718, 298.6284
629.7539, 297.9214
630.2360, 296.8859
630.7181, 295.6519
631.2003, 294.6443
631.6824, 294.2480
632.1645, 294.0266
632.6466, 293.6891
633.1287, 293.2361
633.6108, 292.7403
634.0930, 292.1454
634.5751, 291.5755
635.0572, 291.1101
635.5393, 290.7710
636.0214, 290.4044
636.5035, 289.9337
636.9857, 289.5249
637.4678, 289.3483
637.9499, 289.4536
638.4320, 289.4489
638.9141, 289.3317
639.3962, 289.0389
639.8784, 288.2782
640.3605, 287.2147
640.8426, 286.5615
641.3247, 286.6341
641.8068, 286.9930
642.2889, 287.4409
642.7711, 287.8059
643.2532, 287.7059
643.7353, 286.3370
644.2174, 285.0726
644.6995, 284.7780
645.1816, 285.2864
645.6638, 285.3661
646.1459, 284.5248
646.6280, 283.5316
647.1101, 282.5905
647.5922, 281.7057
648.0743, 280.8875
648.5565, 280.1073
649.0386, 279.4740
649.5207, 279.2104
650.0028, 279.2458
650.4849, 278.9512
650.9670, 278.2611
651.4492, 277.3906
651.9313, 276.3372
652.4134, 275.3133
652.8955, 274.8409
653.3776, 275.4087
653.8597, 275.7184
654.3419, 274.4789
654.8240, 272.5699
655.3061, 271.3594
655.7882, 272.1780
656.2703, 272.6335
656.7524, 272.0306
657.2346, 270.6898
657.7167, 269.5170
658.1988, 268.5631
658.6809, 267.6617
659.1630, 266.7098
659.6451, 265.7588
660.1273, 265.2344
660.6094, 265.1560
661.0915, 264.9414
661.5736, 264.0589
662.0557, 262.7967
662.5378, 261.7759
663.0200, 261.0233
663.5021, 260.1372
663.9842, 258.3086
664.4663, 256.5028
664.9484, 255.7833
665.4305, 256.7982
665.9127, 257.4953
666.3948, 257.3477
666.8769, 256.6596
667.3590, 255.7293
667.8411, 254.3690
668.3232, 253.1919
668.8054, 252.3014
669.2875, 251.5674
669.7696, 250.7432
670.2517, 249.8241
670.7338, 249.0340
671.2159, 248.4484
671.6981, 248.0233
672.1802, 247.8083
672.6623, 247.7219
673.1444, 247.4656
673.6265, 246.7105
674.1086, 245.8738
674.5908, 245.3263
675.0729, 245.0182
675.5550, 244.5454
676.0371, 243.7037
676.5192, 242.7431
677.0013, 241.6183
677.4835, 240.2531
677.9656, 239.6387
678.4477, 240.1448
678.9298, 240.7248
679.4119, 240.5826
679.8940, 239.7077
680.3762, 239.0516
680.8583, 238.6576
681.3404, 238.3324
681.8225, 237.7853
682.3046, 237.1674
682.7867, 236.8372
683.2689, 236.9675
683.7510, 237.0586
684.2331, 236.6230
684.7152, 235.9805
685.1973, 235.5476
685.6794, 235.7157
686.1616, 235.7636
686.6437, 235.5152
687.1258, 235.0811
687.6079, 234.6485
688.0900, 234.2327
688.5721, 233.7839
689.0543, 233.2621
689.5364, 232.7214
690.0185, 232.3167
690.5006, 232.0462
690.9827, 231.8464
691.4648, 231.7155
691.9470, 231.6156
692.4291, 231.5252
692.9112, 231.4262
693.3933, 231.2213
693.8754, 230.6875
694.3575, 230.1635
694.8397, 229.9734
695.3218, 230.1873
695.8039, 230.0620
696.2860, 229.2863
696.7681, 228.3561
697.2502, 227.4666
697.7324, 226.5891
698.2145, 225.9150
698.6966, 225.4275
699.1787, 225.1950
699.6608, 225.4998
700.1429, 226.1766
700.6251, 226.4040
701.1072, 226.0475
701.5893, 225.3782
702.0714, 224.4620
702.5535, 223.4645
703.0356, 222.6190
703.5178, 221.9784
703.9999, 221.5347
704.4820, 221.4907
704.9641, 221.5847
705.4462, 221.3979
705.9283, 220.7299
706.4105, 220.0732
706.8926, 219.5025
707.3747, 218.9701
707.8568, 218.2777
708.3389, 217.3895
708.8210, 216.8293
709.3032, 216.9687
709.7853, 217.3615
710.2674, 217.1465
710.7495, 216.3854
711.2316, 215.3432
711.7137, 213.6911
712.1959, 212.2031
712.6780, 211.6101
713.1601, 211.7968
713.6422, 211.8520
714.1243, 211.5025
714.6064, 210.9773
715.0886, 210.3477
715.5707, 209.6059
716.0528, 208.9086
716.5349, 208.3181
717.0170, 207.6015
717.4991, 206.3591
717.9813, 204.7461
718.4634, 204.0997
718.9455, 204.4945
719.4276, 204.9450
719.9097, 204.5839
720.3918, 203.7735
720.8740, 202.9805
721.3561, 202.2681
721.8382, 201.5666
722.3203, 200.8211
722.8024, 200.0738
723.2845, 199.3563
723.7667, 198.7036
724.2488, 198.0045
724.7309, 197.2336
725.2130, 196.4319
725.6951, 195.6007
726.1772, 194.7284
726.6594, 194.0801
727.1415, 193.7608
727.6236, 193.5271
728.1057, 193.0995
728.5878, 192.4878
729.0699, 191.6947
729.5521, 190.5955
730.0342, 189.5200
730.5163, 188.7590
730.9984, 188.1647
731.4805, 187.4726
731.9626, 186.2076
732.4448, 185.3612
732.9269, 185.4102
733.4090, 185.9173
733.8911, 185.6164
734.3732, 184.3090
734.8553, 183.0159
735.3375, 182.0429
735.8196, 181.3059
736.3017, 180.6382
736.7838, 180.0267
737.2659, 179.3916
737.7480, 178.6587
738.2302, 177.9049
738.7123, 177.1538
739.1944, 176.4243
739.6765, 175.8036
740.1586, 175.4728
740.6407, 175.1139
741.1229, 174.5845
741.6050, 173.8874
742.0871, 173.1258
742.5692, 172.2040
743.0513, 171.4360
743.5334, 171.0954
744.0156, 171.1010
744.4977, 170.7215
744.9798, 169.9566
745.4619, 169.1833
745.9440, 168.7220
746.4261, 168.4147
746.9083, 168.1301
747.3904, 167.8581
747.8725, 167.3680
748.3546, 166.3503
748.8367, 165.2275
749.3188, 164.2507
749.8010, 163.4310
750.2831, 162.8604
750.7652, 162.6507
751.2473, 162.5138
751.7294, 162.2132
752.2115, 161.7535
752.6937, 161.3473
753.1758, 161.0303
753.6579, 160.6018
754.1400, 159.7349
754.6221, 158.6596
755.1042, 157.7499
755.5864, 157.1196
756.0685, 156.5295
756.5506, 155.7256
757.0327, 154.9704
757.5148, 154.5562
757.9969, 155.0234
758.4791, 155.0124
758.9612, 154.3222
759.4433, 153.3755
759.9254, 152.7339
760.4075, 152.4117
760.8896, 151.8815
761.3718, 151.0241
761.8539, 150.0543
762.3360, 149.1342
762.8181, 148.3292
763.3002, 147.7951
763.7823, 147.6705
764.2645, 147.6459
764.7466, 147.7304
765.2287, 147.7553
765.7108, 147.4625
766.1929, 146.6223
766.6750, 145.7200
767.1572, 144.7653
767.6393, 143.7970
768.1214, 142.7843
768.6035, 141.7004
769.0856, 141.0742
769.5677, 141.1695
770.0499, 141.5234
770.5320, 141.4357
771.0141, 141.0248
771.4962, 140.5969
771.9783, 140.4820
772.4604, 140.1690
772.9426, 139.0861
773.4247, 137.6282
773.9068, 136.7491
774.3889, 137.2403
774.8710, 137.3141
775.3531, 136.4757
775.8353, 135.1114
776.3174, 134.3864
776.7995, 134.3387
777.2816, 134.2443
777.7637, 133.7696
778.2458, 133.1765
778.7280, 133.0009
779.2101, 133.0974
779.6922, 133.0033
780.1743, 132.2066
780.6564, 131.4442
781.1385, 131.2049
781.6207, 131.3463
782.1028, 131.2124
782.5849, 130.5743
783.0670, 129.9478
783.5491, 129.4115
784.0313, 128.9997
784.5134, 128.9295
784.9955, 129.2059
785.4776, 129.3752
785.9597, 129.1124
786.4418, 128.6945
786.9240, 128.6385
787.4061, 128.8327
787.8882, 128.8669
788.3703, 128.3828
788.8524, 127.8349
789.3345, 127.4837
789.8167, 127.2943
790.2988, 126.9338
790.7809, 126.1955
791.2630, 125.6625
791.7451, 125.5882
792.2272, 125.8643
792.7094, 126.0987
793.1915, 126.2810
793.6736, 126.1746
794.1557, 125.3371
794.6378, 124.3224
795.1199, 123.9519
795.6021, 124.0881
796.0842, 124.0602
796.5663, 123.3400
797.0484, 122.6235
797.5305, 122.0912
798.0126, 121.7842
798.4948, 122.1875
798.9769, 123.7801
799.4590, 124.8768
799.9411, 124.5815
800.4232, 123.2842
800.9053, 122.4335
801.3875, 122.0069
801.8696, 121.7774
802.3517, 121.5844
802.8338, 121.5374
803.3159, 121.8794
803.7980, 122.5223
804.2802, 122.9514
804.7623, 122.7014
805.2444, 122.5254
805.7265, 122.7922
806.2086, 123.4172
806.6907, 123.6326
807.1729, 123.3677
807.6550, 122.9775
808.1371, 122.5446
808.6192, 122.1404
809.1013, 122.0493
809.5834, 122.2080
810.0656, 122.2550
810.5477, 121.8180
811.0298, 121.3327
811.5119, 121.1988
811.9940, 121.3513
812.4761, 121.1975
812.9583, 120.2160
813.4404, 119.4753
813.9225, 119.3433
814.4046, 119.7292
814.8867, 120.1738
815.3688, 120.6890
815.8510, 120.9564
816.3331, 120.6908
816.8152, 120.1400
817.2973, 119.5708
817.7794, 119.0455
818.2615, 118.8296
818.7437, 119.5176
819.2258, 120.0955
819.7079, 119.9547
820.1900, 119.2010
820.6721, 118.7517
821.1542, 118.6616
821.6364, 118.7695
822.1185, 119.1477
822.6006, 119.6226
823.0827, 119.5059
823.5648, 118.8795
824.0469, 118.3993
824.5291, 118.7440
825.0112, 119.1307
825.4933, 118.4754
825.9754, 117.1958
826.4575, 116.6079
826.9396, 118.0326
827.4218, 119.1618
827.9039, 119.2762
828.3860, 118.6647
828.8681, 118.2618
829.3502, 118.0804
829.8323, 118.0076
830.3145, 117.9899
830.7966, 118.0755
831.2787, 118.5057
831.7608, 119.1382
832.2429, 119.5199
832.7250, 119.1156
833.2072, 118.7384
833.6893, 119.0476
834.1714, 119.7090
834.6535, 119.7815
835.1356, 118.6938
835.6177, 118.0042
836.0999, 118.1485
836.5820, 118.6872
837.0641, 118.5265
837.5462, 117.7407
838.0283, 117.1868
838.5104, 117.1977
838.9926, 117.4426
839.4747, 117.6744
839.9568, 117.8552
840.4389, 117.9217
840.9210, 117.6240
841.4031, 117.4879
841.8853, 117.8355
842.3674, 118.3022
842.8495, 118.2952
843.3316, 117.6543
843.8137, 117.3852
844.2958, 117.7406
844.7780, 118.2804
845.2601, 118.3212
845.7422, 118.0385
846.2243, 117.8614
846.7064, 117.9358
847.1885, 118.0572
847.6707, 118.2520
848.1528, 118.3645
848.6349, 118.1808
849.1170, 117.2389
849.5991, 116.8923
850.0812, 117.4436
850.5634, 118.1527
851.0455, 118.0421
851.5276, 117.2540
852.0097, 116.9052
852.4918, 117.1710
852.9739, 117.6575
853.4561, 118.2418
853.9382, 118.7202
854.4203, 118.8451
854.9024, 118.5119
855.3845, 118.0155
855.8666, 116.9997
856.3488, 116.2060
856.8309, 116.2501
857.3130, 117.2910
857.7951, 117.8556
858.2772, 117.8741
858.7593, 117.8239
859.2415, 118.2530
859.7236, 118.8406
860.2057, 118.9630
860.6878, 118.5713
861.1699, 118.2974
861.6520, 118.6508
862.1342, 119.0484
862.6163, 119.1085
863.0984, 118.8188
863.5805, 118.5193
864.0626, 118.1259
864.5447, 117.9923
865.0269, 118.5750
865.5090, 119.5488
865.9911, 119.6217
866.4732, 118.9154
866.9553, 118.2605
867.4374, 118.1703
867.9196, 118.3156
868.4017, 118.5415
868.8838, 118.8214
869.3659, 119.0355
869.8480, 119.0372
870.3301, 119.2242
870.8123, 119.8896
871.2944, 120.7384
871.7765, 120.5630
872.2586, 119.4704
872.7407, 118.6198
873.2228, 118.6825
873.7050, 119.0427
874.1871, 119.0426
874.6692, 118.8574
875.1513, 118.8696
875.6334, 119.4324
876.1155, 119.9142
876.5977, 120.1597
877.0798, 120.2962
877.5619, 120.5833
878.0440, 121.0413
878.5261, 121.3910
879.0082, 121.6063
879.4904, 121.6151
879.9725, 121.0832
880.4546, 120.3436
880.9367, 119.9928
881.4188, 120.2995
881.9009, 120.7753
882.3831, 121.5189
882.8652, 122.1847
883.3473, 122.3911
883.8294, 121.9895
884.3115, 121.6926
884.7936, 121.5025
885.2758, 121.5017
885.7579, 121.9413
886.2400, 122.6024
886.7221, 122.9250
887.2042, 122.8204
887.6863, 122.7944
888.1685, 123.2940
888.6506, 123.8564
889.1327, 124.0961
889.6148, 123.9272
890.0969, 124.0608
890.5790, 124.6825
891.0612, 125.1185
891.5433, 124.6923
892.0254, 123.7672
892.5075, 123.8635
892.9896, 124.8632
893.4717, 125.8131
893.9539, 126.1516
894.4360, 126.2312
894.9181, 126.1503
895.4002, 125.9770
895.8823, 126.0833
896.3644, 126.6520
896.8466, 127.1932
897.3287, 127.6129
897.8108, 127.8982
898.2929, 127.8646
898.7750, 127.6036
899.2571, 127.7350
899.7393, 128.8598
900.2214, 129.9114
900.7035, 129.7868
901.1856, 129.0188
901.6677, 128.5042
902.1498, 128.5117
902.6320, 128.7081
903.1141, 129.1468
903.5962, 129.6687
904.0783, 130.0417
904.5604, 130.2802
905.0425, 130.5438
905.5247, 130.8548
906.0068, 131.1997
906.4889, 131.6010
906.9710, 132.0117
907.4531, 132.3525
907.9352, 132.5581
908.4174, 132.9353
908.8995, 133.7934
909.3816, 134.5183
909.8637, 134.6232
910.3458, 134.1125
910.8279, 134.0318
911.3101, 134.3860
911.7922, 134.9058
912.2743, 135.5188
912.7564, 136.1097
913.2385, 136.4774
913.7206, 136.6628
914.2028, 136.9993
914.6849, 137.8025
915.1670, 138.5195
915.6491, 138.9541
916.1312, 139.1877
916.6133, 139.5267
917.0955, 139.9754
917.5776, 140.4626
918.0597, 140.9685
918.5418, 141.5003
919.0239, 142.0511
919.5060, 142.6393
919.9882, 143.2902
920.4703, 144.4326
920.9524, 145.0571
921.4345, 144.5024
921.9166, 143.7613
922.3987, 144.2431
922.8809, 146.0600
923.3630, 147.2072
923.8451, 147.3834
924.3272, 147.3477
924.8093, 147.7852
925.2914, 148.5596
925.7736, 149.6011
926.2557, 150.9964
926.7378, 152.0316
927.2199, 152.0904
927.7020, 152.1134
928.1841, 152.6195
928.6663, 153.6071
929.1484, 154.2850
929.6305, 154.6438
930.1126, 155.0403
930.5947, 155.7415
931.0768, 156.5928
931.5590, 157.3874
932.0411, 158.1548
932.5232, 158.9805
933.0053, 160.2242
933.4874, 161.1216
933.9695, 161.2975
934.4517, 161.1123
934.9338, 161.5008
935.4159, 162.4717
935.8980, 163.4647
936.3801, 164.3579
936.8622, 165.0964
937.3444, 165.4341
937.8265, 165.6177
938.3086, 166.0117
938.7907, 166.7155
939.2728, 167.6400
939.7549, 169.0547
940.2371, 170.3803
940.7192, 171.0656
941.2013, 171.0786
941.6834, 171.3356
942.1655, 171.8567
942.6476, 172.7403
943.1298, 174.3987
943.6119, 176.2392
944.0940, 177.6396
944.5761, 178.5773
945.0582, 179.3941
945.5403, 180.1772
946.0225, 180.8241
946.5046, 181.1874
946.9867, 181.4140
947.4688, 182.1268
947.9509, 183.3054
948.4330, 184.7832
948.9152, 186.8116
949.3973, 188.6667
949.8794, 189.2473
950.3615, 189.2495
950.8436, 189.9118
951.3257, 192.6618
951.8079, 194.3839
952.2900, 194.4245
952.7721, 194.0499
953.2542, 194.8953
953.7363, 196.7870
954.2184, 198.4241
954.7006, 199.6588
955.1827, 200.7130
955.6648, 201.6836
956.1469, 202.6375
956.6290, 203.4428
957.1111, 204.0014
957.5933, 205.6652
958.0754, 209.2470
958.5575, 212.3637
959.0396, 213.6642
959.5217, 213.6909
960.0038, 214.2085
960.4860, 215.1795
960.9681, 216.4141
961.4502, 218.0402
961.9323, 219.6544
962.4144, 220.6670
962.8965, 221.5534
963.3787, 223.4181
963.8608, 226.9323
964.3429, 229.7358
964.8250, 231.4487
965.3071, 232.6638
965.7892, 233.9871
966.2714, 235.4579
966.7535, 237.2676
967.2356, 239.4798
967.7177, 241.6643
968.1998, 243.6464
968.6819, 245.4361
969.1641, 246.9384
969.6462, 248.1386
970.1283, 249.6436
970.6104, 251.5084
971.0925, 253.4716
971.5746, 255.4615
972.0568, 257.4294
972.5389, 259.4490
973.0210, 261.4114
973.5031, 262.8969
973.9852, 262.9578
974.4673, 263.4657
974.9495, 265.3810
975.4316, 267.8230
975.9137, 269.2077
976.3958, 269.4752
976.8779, 269.7127
977.3600, 270.0578
977.8422, 270.6277
978.3243, 271.7920
978.8064, 273.1443
979.2885, 274.1122
979.7706, 274.5034
980.2527, 275.0307
980.7349, 276.0385
981.2170, 276.8965
981.6991, 277.2077
982.1812, 277.0460
982.6633, 276.9684
983.1454, 276.9606
983.6276, 276.8915
984.1097, 276.7638
984.5918, 276.4632
985.0739, 275.8820
985.5560, 275.0600
986.0381, 274.0631
986.5203, 272.5655
987.0024, 271.7029
987.4845, 271.8857
987.9666, 272.2357
988.4487, 271.2529
988.9308, 269.4057
989.4130, 268.0400
989.8951, 267.4157
990.3772, 267.0433
990.8593, 267.0289
991.3414, 266.8499
991.8235, 266.0558
992.3057, 264.6175
992.7878, 263.1720
993.2699, 261.6524
993.7520, 260.4471
994.2341, 259.9639
994.7162, 259.7720
995.1984, 259.0984
995.6805, 258.1017
996.1626, 257.2367
996.6447, 256.7913
997.1268, 256.3404
997.6089, 255.8070
998.0911, 255.2007
998.5732, 254.4941
999.0553, 253.6861
999.5374, 253.0746
1000.020, 252.7310
1000.502, 252.3554
1000.984, 251.5584
1001.466, 250.6786
1001.948, 250.0761
1002.430, 249.8236
1002.912, 249.5005
1003.394, 249.0805
1003.876, 248.5867
1004.359, 248.0278
1004.841, 247.4035
1005.323, 246.6712
1005.805, 245.8712
1006.287, 245.1894
1006.769, 244.6707
1007.251, 244.3288
1007.733, 244.3348
1008.216, 244.4500
1008.698, 244.3223
1009.180, 243.8378
1009.662, 243.5591
1010.144, 243.5518
1010.626, 243.5642
1011.108, 243.4022
1011.590, 243.0733
1012.072, 242.4316
1012.555, 241.5051
1013.037, 240.9732
1013.519, 241.5329
1014.001, 241.9936
1014.483, 241.9553
1014.965, 241.5423
1015.447, 241.1791
1015.929, 240.8528
1016.411, 240.4189
1016.894, 239.7734
1017.376, 239.1439
1017.858, 238.6382
1018.340, 238.3154
1018.822, 238.2953
1019.304, 238.8201
1019.786, 239.0521
1020.268, 238.9566
1020.751, 238.6689
1021.233, 238.2257
1021.715, 237.6854
1022.197, 237.1657
1022.679, 236.6838
1023.161, 236.3328
1023.643, 236.1174
1024.125, 236.0896
1024.607, 236.3187
1025.090, 236.7253
1025.572, 237.2267
1026.054, 237.8457
1026.536, 238.2105
1027.018, 238.2422
1027.500, 238.0677
1027.982, 237.6036
1028.464, 237.1284
1028.947, 236.9592
1029.429, 237.1707
1029.911, 237.6685
1030.393, 238.7452
1030.875, 239.5142
1031.357, 239.4111
1031.839, 238.7075
1032.321, 238.1639
1032.803, 237.8239
1033.286, 237.8430
1033.768, 238.7341
1034.250, 239.5084
1034.732, 239.5838
1035.214, 239.3520
1035.696, 239.3047
1036.178, 239.3729
1036.660, 240.2470
1037.143, 242.1692
1037.625, 243.6388
1038.107, 242.6272
1038.589, 240.7740
1039.071, 240.1770
1039.553, 240.9131
1040.035, 241.6107
1040.517, 241.9593
1041.000, 242.2475
1041.482, 242.4660
1041.964, 242.7520
1042.446, 243.5327
1042.928, 244.6902
1043.410, 245.7166
1043.892, 246.4622
1044.374, 247.0639
1044.856, 247.5551
1045.339, 247.9530
1045.821, 248.2400
1046.303, 248.3727
1046.785, 248.7673
1047.267, 249.4470
1047.749, 250.1740
1048.231, 250.8210
1048.713, 251.3879
1049.195, 251.7166
1049.677, 251.9568
1050.160, 252.5272
1050.642, 253.8588
1051.124, 255.1253
1051.606, 256.3273
1052.088, 257.2971
1052.570, 257.6109
1053.052, 257.4767
1053.534, 257.7036
1054.017, 258.3918
1054.499, 259.2361
1054.981, 260.1402
1055.463, 261.0593
1055.945, 261.9988
1056.427, 262.9367
1056.909, 263.7739
1057.391, 264.5410
1057.874, 264.8341
1058.356, 264.3551
1058.838, 263.6927
1059.320, 263.2995
1059.802, 263.2990
1060.284, 263.9105
1060.766, 265.5876
1061.248, 266.9540
1061.730, 267.9782
1062.213, 268.6574
1062.695, 268.7933
1063.177, 268.5937
1063.659, 268.9156
1064.141, 269.6374
1064.623, 270.1805
1065.105, 269.8575
1065.587, 269.7478
1066.070, 270.7317
1066.552, 271.9371
1067.034, 271.8165
1067.516, 270.3008
1067.998, 269.7961
1068.480, 270.6799
1068.962, 271.6053
1069.444, 271.1033
1069.927, 270.2626
1070.409, 270.1844
1070.891, 270.9478
1071.373, 271.2447
1071.855, 270.8085
1072.337, 270.5992
1072.819, 271.0509
1073.301, 271.6740
1073.783, 271.6559
1074.266, 271.1235
1074.748, 270.2641
1075.230, 268.8662
1075.712, 267.8982
1076.194, 268.0145
1076.676, 268.1722
1077.158, 267.6999
1077.640, 266.6723
1078.122, 265.8715
1078.604, 265.2691
1079.087, 264.6314
1079.569, 263.7651
1080.051, 262.8869
1080.533, 262.2061
1081.015, 261.5771
1081.497, 260.6814
1081.979, 259.4068
1082.461, 258.4443
1082.944, 257.8605
1083.426, 257.4959
1083.908, 257.4782
1084.390, 257.4243
1084.872, 256.9189
1085.354, 255.9332
1085.836, 254.5025
1086.318, 252.1599
1086.801, 250.2934
1087.283, 249.3491
1087.765, 248.8577
1088.247, 247.9639
1088.729, 246.8190
1089.211, 245.8127
1089.693, 245.0115
1090.175, 244.3953
1090.657, 244.2896
1091.140, 244.0260
1091.622, 243.2091
1092.104, 241.9050
1092.586, 240.5364
1093.068, 239.1284
1093.550, 238.0567
1094.032, 237.6524
1094.514, 237.3779
1094.997, 236.9824
1095.479, 236.4133
1095.961, 235.5784
1096.443, 234.3971
1096.925, 233.2036
1097.407, 231.9654
1097.889, 230.8975
1098.371, 230.3790
1098.854, 229.9951
1099.336, 229.1225
1099.818, 227.8985
1100.300, 226.9297
1100.782, 226.7043
1101.264, 226.0965
1101.746, 224.8676
1102.228, 223.4342
1102.710, 222.3571
1103.193, 221.5225
1103.675, 220.4966
1104.157, 219.2385
1104.639, 218.4759
1105.121, 219.3833
1105.603, 219.8328
1106.085, 218.8430
1106.567, 216.9229
1107.049, 215.6015
1107.531, 214.8145
1108.014, 214.2021
1108.496, 213.6761
1108.978, 213.2093
1109.460, 212.8566
1109.942, 212.4922
1110.424, 212.0217
1110.906, 211.4415
1111.388, 210.6149
1111.871, 209.4980
1112.353, 208.8090
1112.835, 209.3860
1113.317, 209.9622
1113.799, 208.9278
1114.281, 207.0155
1114.763, 205.3965
1115.245, 204.1689
1115.728, 203.6429
1116.210, 204.0848
1116.692, 204.3571
1117.174, 203.1981
1117.656, 201.3850
1118.138, 200.3826
1118.620, 200.0354
1119.102, 199.5543
1119.584, 198.4739
1120.067, 197.5188
1120.549, 196.8848
1121.031, 196.2799
1121.513, 195.2150
1121.995, 193.8459
1122.477, 192.7576
1122.959, 191.9871
1123.441, 191.2524
1123.924, 190.3989
1124.406, 189.5519
1124.888, 188.7425
1125.370, 187.9891
1125.852, 187.3785
1126.334, 186.8936
1126.816, 186.3774
1127.298, 185.8314
1127.781, 185.0824
1128.263, 183.6774
1128.745, 182.2762
1129.227, 181.5514
1129.709, 181.4592
1130.191, 180.8986
1130.673, 179.8405
1131.155, 178.6953
1131.637, 177.6076
1132.120, 176.5244
1132.602, 175.1739
1133.084, 173.8772
1133.566, 173.2067
1134.048, 173.5500
1134.530, 173.2900
1135.012, 172.3070
1135.494, 171.1877
1135.976, 170.2814
1136.458, 169.4836
1136.941, 168.6698
1137.423, 167.8342
1137.905, 166.9646
1138.387, 165.9783
1138.869, 165.0704
1139.351, 164.2700
1139.833, 163.5223
1140.315, 162.8779
1140.798, 162.2243
1141.280, 161.1782
1141.762, 159.8042
1142.244, 158.6423
1142.726, 158.0487
1143.208, 157.5203
1143.690, 157.0160
1144.172, 156.4191
1144.655, 155.3748
1145.137, 154.0690
1145.619, 153.2889
1146.101, 153.1441
1146.583, 152.8527
1147.065, 151.8301
1147.547, 150.7135
1148.029, 149.7548
1148.511, 148.9461
1148.994, 148.3549
1149.476, 147.9368
1149.958, 147.1902
1150.440, 145.8732
1150.922, 144.8306
1151.404, 145.1434
1151.886, 145.5603
1152.368, 145.0388
1152.851, 143.6900
1153.333, 142.5679
1153.815, 141.6708
1154.297, 141.0969
1154.779, 141.0552
1155.261, 140.9586
1155.743, 140.2543
1156.225, 139.2118
1156.708, 138.0601
1157.190, 136.7547
1157.672, 135.8580
1158.154, 135.4048
1158.636, 135.0709
1159.118, 134.7572
1159.600, 134.3912
1160.082, 133.8266
1160.564, 133.1765
1161.047, 132.6470
1161.529, 132.3690
1162.011, 131.9600
1162.493, 131.3961
1162.975, 130.7945
1163.457, 130.2166
1163.939, 129.6736
1164.421, 129.2704
1164.903, 128.9187
1165.385, 128.3414
1165.868, 127.2183
1166.350, 126.3815
1166.832, 125.9682
1167.314, 125.6503
1167.796, 125.0002
1168.278, 124.2577
1168.760, 124.0013
1169.242, 124.1395
1169.725, 123.9163
1170.207, 122.6330
1170.689, 121.6705
1171.171, 121.2974
1171.653, 121.2128
1172.135, 121.1036
1172.617, 120.9305
1173.099, 120.5409
1173.582, 119.9270
1174.064, 119.4164
1174.546, 119.2702
1175.028, 119.0694
1175.510, 118.7366
1175.992, 118.2566
1176.474, 117.4874
1176.956, 116.5582
1177.438, 115.8525
1177.921, 115.4438
1178.403, 115.2354
1178.885, 115.5866
1179.367, 115.6373
1179.849, 114.9136
1180.331, 113.7415
1180.813, 113.1538
1181.295, 113.0227
1181.778, 112.8588
1182.260, 112.4946
1182.742, 112.2075
1183.224, 112.3878
1183.706, 112.3873
1184.188, 111.7328
1184.670, 110.6032
1185.152, 110.0153
1185.635, 109.9011
1186.117, 109.9258
1186.599, 110.1628
1187.081, 110.0949
1187.563, 109.0816
1188.045, 107.9960
1188.527, 107.5415
1189.009, 107.6599
1189.491, 107.5298
1189.974, 107.1828
1190.456, 106.8490
1190.938, 106.6409
1191.420, 106.4771
1191.902, 106.3628
1192.384, 106.2384
1192.866, 106.0631
1193.348, 105.8376
1193.830, 105.3948
1194.313, 104.7576
1194.795, 104.2240
1195.277, 104.0141
1195.759, 103.9074
1196.241, 103.9439
1196.723, 103.9184
1197.205, 103.5114
1197.687, 102.7080
1198.169, 102.1131
1198.652, 101.7555
1199.134, 101.5548
1199.616, 101.6530
1200.098, 101.6916
1200.580, 101.3478
1201.062, 100.8536
1201.544, 100.6094
1202.026, 100.6239
1202.509, 100.5432
1202.991, 100.3365
1203.473, 100.1327
1203.955, 100.2154
1204.437, 100.1405
1204.919, 99.37792
1205.401, 98.31019
1205.883, 97.78919
1206.365, 97.81889
1206.848, 98.07499
1207.330, 98.54011
1207.812, 98.77848
1208.294, 98.21327
1208.776, 97.52920
1209.258, 97.26080
1209.740, 97.25003
1210.222, 97.07309
1210.705, 96.72737
1211.187, 96.22392
1211.669, 95.54290
1212.151, 94.91494
1212.633, 94.48001
1213.115, 94.21977
1213.597, 94.27916
1214.079, 94.50181
1214.562, 94.21394
1215.044, 93.43517
1215.526, 93.10073
1216.008, 93.50419
1216.490, 93.92817
1216.972, 93.82509
1217.454, 93.49627
1217.936, 93.06316
1218.418, 92.60169
1218.901, 92.55449
1219.383, 92.89793
1219.865, 93.13475
1220.347, 93.11114
1220.829, 92.99731
1221.311, 92.86100
1221.793, 92.73940
1222.275, 92.72557
1222.757, 92.76675
1223.240, 92.30538
1223.722, 91.40664
1224.204, 90.95641
1224.686, 91.41429
1225.168, 91.90311
1225.650, 91.83744
1226.132, 91.55903
1226.614, 91.30544
1227.096, 91.08892
1227.579, 91.06147
1228.061, 91.19231
1228.543, 91.19156
1229.025, 90.86327
1229.507, 90.58159
1229.989, 90.64411
1230.471, 90.77647
1230.953, 90.82789
1231.436, 90.77177
1231.918, 90.16263
1232.400, 89.11779
1232.882, 88.48766
1233.364, 88.89361
1233.846, 89.26003
1234.328, 88.96249
1234.810, 88.51030
1235.292, 88.18746
1235.775, 88.02590
1236.257, 88.51272
1236.739, 89.46696
1237.221, 89.91310
1237.703, 88.94536
1238.185, 88.18135
1238.667, 88.49782
1239.149, 88.98094
1239.632, 88.93072
1240.114, 88.47810
1240.596, 88.49890
1241.078, 88.86129
1241.560, 89.00649
1242.042, 88.45314
1242.524, 87.98283
1243.006, 87.79211
1243.489, 87.72984
1243.971, 87.61829
1244.453, 87.54105
1244.935, 88.13393
1245.417, 89.12513
1245.899, 89.48428
1246.381, 87.87247
1246.863, 86.97131
1247.345, 87.37560
1247.828, 88.11895
1248.310, 88.46481
1248.792, 88.49062
1249.274, 88.28415
1249.756, 87.93363
1250.238, 87.72472
1250.720, 87.83804
1251.202, 88.02927
1251.684, 88.38802
1252.167, 88.55555
1252.649, 88.04765
1253.131, 87.21448
1253.613, 86.65292
1254.095, 86.36072
1254.577, 86.29852
1255.059, 86.60990
1255.541, 86.87139
1256.023, 87.07381
1256.506, 87.17735
1256.988, 87.10751
1257.470, 86.94530
1257.952, 86.78181
1258.434, 86.62566
1258.916, 86.49962
1259.398, 86.43523
1259.880, 86.27710
1260.363, 85.97874
1260.845, 85.81960
1261.327, 86.25014
1261.809, 86.75867
1262.291, 86.76206
1262.773, 86.42261
1263.255, 86.21439
1263.737, 86.18400
1264.219, 86.15434
1264.702, 86.11354
1265.184, 86.07930
1265.666, 86.04304
1266.148, 86.04015
1266.630, 86.20308
1267.112, 86.37833
1267.594, 86.19425
1268.076, 85.60389
1268.559, 85.46334
1269.041, 85.82445
1269.523, 86.14535
1270.005, 86.11926
1270.487, 85.87525
1270.969, 85.20023
1271.451, 84.52354
1271.933, 84.57006
1272.416, 85.25835
1272.898, 85.43171
1273.380, 85.06982
1273.862, 84.85618
1274.344, 85.46855
1274.826, 85.93072
1275.308, 85.79138
1275.790, 85.48001
1276.272, 85.71381
1276.755, 86.23112
1277.237, 85.75439
1277.719, 84.42008
1278.201, 83.63837
1278.683, 84.48381
1279.165, 85.38790
1279.647, 86.21155
1280.129, 86.71104
1280.611, 86.47949
1281.094, 85.79527
1281.576, 85.07081
1282.058, 84.41056
1282.540, 84.21780
1283.022, 84.94029
1283.504, 85.49345
1283.986, 85.77504
1284.468, 85.85791
1284.950, 85.64888
1285.433, 85.40050
1285.915, 85.54028
1286.397, 85.94831
1286.879, 86.10664
1287.361, 85.92921
1287.843, 85.70146
1288.325, 85.43857
1288.807, 85.21598
1289.290, 85.08980
1289.772, 85.04089
1290.254, 85.23235
1290.736, 85.42667
1291.218, 85.00807
1291.700, 83.88921
1292.182, 83.42227
1292.664, 83.69388
1293.146, 83.99918
1293.629, 83.81386
1294.111, 83.55249
1294.593, 83.32813
1295.075, 83.25185
1295.557, 83.54652
1296.039, 84.15842
1296.521, 84.73442
1297.003, 85.22340
1297.486, 85.39543
1297.968, 84.87934
1298.450, 84.35741
1298.932, 83.93660
1299.414, 83.69380
1299.896, 83.84426
1300.378, 84.21095
1300.860, 84.28362
1301.343, 84.10175
1301.825, 83.93520
##END=



