##NAMES=Legrandite
##RRUFFID=R040151
##IDEAL CHEMISTRY=Zn^2+^_2_As^5+^O_4_(OH)&#183;H_2_O
##LOCALITY=Mapimi, Durango, Mexico
##OWNER=RRUFF
##SOURCE=University of Arizona Mineral Museum
##DESCRIPTION=Yellow crystal fragments; same material used in McLean et al. (1971) study
##STATUS=The identification of this mineral has been confirmed by X-ray diffraction and chemical analysis
##URL=rruff.info/R040151
##MEASURED CHEMISTRY=Zn_1.88_Fe^2+^_0.04_As_1.03_O_4_(OH)Â·H_2_O
156.2139, 1558.497
156.6960, 1549.151
157.1782, 1556.963
157.6603, 1583.132
158.1424, 1621.845
158.6245, 1668.608
159.1066, 1724.565
159.5887, 1795.911
160.0709, 1887.877
160.5530, 1994.631
161.0351, 2116.073
161.5172, 2260.479
161.9993, 2386.126
162.4814, 2462.677
162.9636, 2499.591
163.4457, 2505.698
163.9278, 2476.816
164.4099, 2420.485
164.8920, 2347.373
165.3741, 2253.786
165.8563, 2153.933
166.3384, 2048.676
166.8205, 1943.919
167.3026, 1850.789
167.7847, 1775.297
168.2668, 1713.448
168.7490, 1656.677
169.2311, 1604.779
169.7132, 1558.320
170.1953, 1517.223
170.6774, 1481.073
171.1595, 1450.019
171.6417, 1425.562
172.1238, 1405.652
172.6059, 1385.209
173.0880, 1363.738
173.5701, 1342.720
174.0522, 1322.026
174.5344, 1302.100
175.0165, 1284.000
175.4986, 1268.297
175.9807, 1254.597
176.4628, 1241.249
176.9449, 1226.658
177.4271, 1215.721
177.9092, 1209.821
178.3913, 1208.158
178.8734, 1210.083
179.3555, 1215.979
179.8376, 1224.639
180.3197, 1231.963
180.8019, 1234.764
181.2840, 1242.290
181.7661, 1260.618
182.2482, 1283.572
182.7303, 1303.359
183.2124, 1315.928
183.6946, 1323.437
184.1767, 1332.203
184.6588, 1343.885
185.1409, 1353.705
185.6230, 1354.951
186.1051, 1355.724
186.5873, 1366.444
187.0694, 1393.047
187.5515, 1429.245
188.0336, 1457.557
188.5157, 1466.864
188.9978, 1487.926
189.4800, 1531.431
189.9621, 1585.952
190.4442, 1640.774
190.9263, 1690.900
191.4084, 1738.243
191.8905, 1788.016
192.3727, 1845.243
192.8548, 1895.771
193.3369, 1937.935
193.8190, 1973.444
194.3011, 2002.552
194.7832, 2025.245
195.2654, 2044.980
195.7475, 2070.287
196.2296, 2110.264
196.7117, 2138.301
197.1938, 2149.568
197.6759, 2150.639
198.1581, 2146.925
198.6402, 2140.306
199.1223, 2129.259
199.6044, 2110.854
200.0865, 2083.841
200.5686, 2050.880
201.0508, 2006.697
201.5329, 1961.152
202.0150, 1922.762
202.4971, 1893.496
202.9792, 1868.889
203.4613, 1839.920
203.9435, 1797.645
204.4256, 1772.396
204.9077, 1768.404
205.3898, 1776.654
205.8719, 1792.997
206.3540, 1815.815
206.8362, 1843.577
207.3183, 1874.733
207.8004, 1909.636
208.2825, 1946.744
208.7646, 1990.720
209.2467, 2033.130
209.7289, 2069.088
210.2110, 2097.867
210.6931, 2121.932
211.1752, 2144.243
211.6573, 2165.535
212.1395, 2181.610
212.6216, 2196.014
213.1037, 2202.713
213.5858, 2195.434
214.0679, 2176.193
214.5500, 2153.233
215.0322, 2134.460
215.5143, 2120.584
215.9964, 2106.599
216.4785, 2093.111
216.9606, 2078.896
217.4427, 2060.852
217.9249, 2041.167
218.4070, 2025.310
218.8891, 2018.102
219.3712, 2019.726
219.8533, 2023.358
220.3354, 2023.304
220.8176, 2031.225
221.2997, 2051.368
221.7818, 2082.125
222.2639, 2120.771
222.7460, 2166.253
223.2281, 2217.932
223.7103, 2264.823
224.1924, 2301.742
224.6745, 2339.390
225.1566, 2386.416
225.6387, 2434.464
226.1208, 2470.761
226.6030, 2487.218
227.0851, 2487.721
227.5672, 2489.279
228.0493, 2503.996
228.5314, 2501.871
229.0135, 2472.625
229.4957, 2427.107
229.9778, 2376.123
230.4599, 2324.314
230.9420, 2272.482
231.4241, 2221.642
231.9062, 2168.788
232.3884, 2123.189
232.8705, 2084.510
233.3526, 2053.180
233.8347, 2028.460
234.3168, 2010.375
234.7989, 2000.688
235.2811, 2002.970
235.7632, 2019.802
236.2453, 2043.378
236.7274, 2074.208
237.2095, 2109.872
237.6916, 2148.889
238.1738, 2190.998
238.6559, 2237.339
239.1380, 2291.955
239.6201, 2359.627
240.1022, 2417.960
240.5843, 2470.528
241.0665, 2510.034
241.5486, 2529.974
242.0307, 2531.738
242.5128, 2523.303
242.9949, 2510.995
243.4770, 2494.589
243.9592, 2476.704
244.4413, 2459.116
244.9234, 2437.795
245.4055, 2407.703
245.8876, 2372.151
246.3697, 2339.602
246.8519, 2316.706
247.3340, 2302.273
247.8161, 2286.408
248.2982, 2264.384
248.7803, 2247.620
249.2624, 2240.249
249.7446, 2240.044
250.2267, 2242.210
250.7088, 2241.864
251.1909, 2244.767
251.6730, 2270.906
252.1551, 2335.626
252.6373, 2392.624
253.1194, 2418.323
253.6015, 2432.959
254.0836, 2458.284
254.5657, 2502.774
255.0478, 2558.118
255.5300, 2612.836
256.0121, 2667.296
256.4942, 2719.129
256.9763, 2767.527
257.4584, 2812.919
257.9406, 2855.672
258.4227, 2895.767
258.9048, 2933.573
259.3869, 2966.002
259.8690, 2992.417
260.3511, 3030.159
260.8333, 3084.001
261.3154, 3150.750
261.7975, 3231.123
262.2796, 3324.025
262.7617, 3419.008
263.2438, 3504.840
263.7260, 3585.092
264.2081, 3680.015
264.6902, 3795.361
265.1723, 3920.861
265.6544, 4050.238
266.1365, 4183.193
266.6187, 4317.212
267.1008, 4451.034
267.5829, 4585.233
268.0650, 4724.782
268.5471, 4874.680
269.0292, 5013.325
269.5114, 5122.306
269.9935, 5209.318
270.4756, 5285.220
270.9577, 5361.893
271.4398, 5421.055
271.9219, 5441.979
272.4041, 5424.272
272.8862, 5378.487
273.3683, 5304.187
273.8504, 5205.071
274.3325, 5092.168
274.8146, 4961.199
275.2968, 4824.555
275.7789, 4689.510
276.2610, 4555.671
276.7431, 4420.047
277.2252, 4281.289
277.7073, 4140.454
278.1895, 3996.192
278.6716, 3845.614
279.1537, 3705.198
279.6358, 3583.075
280.1179, 3474.787
280.6000, 3372.989
281.0822, 3275.373
281.5643, 3186.485
282.0464, 3113.085
282.5285, 3056.461
283.0106, 3003.693
283.4927, 2954.468
283.9749, 2907.900
284.4570, 2864.638
284.9391, 2824.179
285.4212, 2781.584
285.9033, 2732.303
286.3854, 2676.552
286.8676, 2623.953
287.3497, 2579.472
287.8318, 2532.996
288.3139, 2475.605
288.7960, 2411.673
289.2781, 2354.877
289.7603, 2314.085
290.2424, 2283.927
290.7245, 2242.394
291.2066, 2179.871
291.6887, 2118.678
292.1708, 2060.471
292.6530, 2005.972
293.1351, 1957.217
293.6172, 1914.792
294.0993, 1875.019
294.5814, 1831.532
295.0635, 1780.526
295.5457, 1732.796
296.0278, 1684.713
296.5099, 1642.447
296.9920, 1612.586
297.4741, 1594.475
297.9562, 1581.408
298.4384, 1566.755
298.9205, 1550.410
299.4026, 1532.898
299.8847, 1510.102
300.3668, 1490.274
300.8489, 1477.465
301.3310, 1469.822
301.8131, 1463.138
302.2953, 1454.548
302.7774, 1444.756
303.2595, 1437.456
303.7416, 1434.113
304.2237, 1431.292
304.7058, 1426.944
305.1880, 1423.243
305.6701, 1422.688
306.1522, 1426.236
306.6343, 1432.475
307.1164, 1439.654
307.5985, 1448.365
308.0807, 1455.693
308.5628, 1459.799
309.0449, 1463.238
309.5270, 1466.870
310.0091, 1471.002
310.4912, 1476.480
310.9734, 1486.260
311.4555, 1499.484
311.9376, 1505.614
312.4197, 1499.209
312.9018, 1492.294
313.3839, 1495.277
313.8661, 1503.965
314.3482, 1507.143
314.8303, 1495.475
315.3124, 1477.096
315.7945, 1466.885
316.2766, 1466.079
316.7588, 1466.380
317.2409, 1465.509
317.7230, 1462.115
318.2051, 1453.096
318.6872, 1434.009
319.1693, 1416.500
319.6515, 1411.516
320.1336, 1416.383
320.6157, 1419.049
321.0978, 1415.391
321.5799, 1407.891
322.0620, 1399.146
322.5442, 1388.239
323.0263, 1381.206
323.5084, 1382.448
323.9905, 1387.349
324.4726, 1390.494
324.9547, 1390.970
325.4369, 1389.063
325.9190, 1384.303
326.4011, 1376.301
326.8832, 1371.334
327.3653, 1370.328
327.8474, 1371.332
328.3296, 1375.267
328.8117, 1380.571
329.2938, 1382.583
329.7759, 1378.035
330.2580, 1369.037
330.7401, 1365.311
331.2223, 1373.674
331.7044, 1378.862
332.1865, 1374.794
332.6686, 1368.854
333.1507, 1370.870
333.6328, 1383.224
334.1150, 1397.745
334.5971, 1401.103
335.0792, 1385.700
335.5613, 1379.887
336.0434, 1387.449
336.5255, 1399.962
337.0077, 1415.477
337.4898, 1432.435
337.9719, 1448.335
338.4540, 1460.581
338.9361, 1469.842
339.4182, 1481.716
339.9004, 1493.057
340.3825, 1512.313
340.8646, 1545.504
341.3467, 1585.751
341.8288, 1624.598
342.3109, 1659.044
342.7931, 1690.913
343.2752, 1721.229
343.7573, 1749.035
344.2394, 1782.697
344.7215, 1827.206
345.2036, 1876.460
345.6858, 1925.802
346.1679, 1975.103
346.6500, 2026.081
347.1321, 2079.546
347.6142, 2135.449
348.0963, 2194.205
348.5785, 2256.170
349.0606, 2320.414
349.5427, 2388.905
350.0248, 2459.540
350.5069, 2525.320
350.9890, 2580.218
351.4712, 2633.939
351.9533, 2697.991
352.4354, 2769.695
352.9175, 2835.276
353.3996, 2888.694
353.8817, 2931.472
354.3639, 2966.707
354.8460, 2995.410
355.3281, 3016.754
355.8102, 3029.311
356.2923, 3034.899
356.7744, 3037.962
357.2566, 3038.795
357.7387, 3028.865
358.2208, 2997.805
358.7029, 2942.045
359.1850, 2882.674
359.6671, 2824.779
360.1493, 2759.254
360.6314, 2677.566
361.1135, 2585.203
361.5956, 2493.201
362.0777, 2407.280
362.5598, 2327.470
363.0420, 2253.575
363.5241, 2189.171
364.0062, 2125.328
364.4883, 2062.985
364.9704, 1999.507
365.4525, 1930.021
365.9347, 1854.822
366.4168, 1782.060
366.8989, 1720.909
367.3810, 1671.120
367.8631, 1629.914
368.3452, 1601.379
368.8274, 1576.836
369.3095, 1550.976
369.7916, 1525.154
370.2737, 1502.892
370.7558, 1485.709
371.2379, 1473.080
371.7201, 1464.893
372.2022, 1461.418
372.6843, 1459.615
373.1664, 1456.113
373.6485, 1455.303
374.1306, 1464.055
374.6128, 1485.034
375.0949, 1506.689
375.5770, 1517.849
376.0591, 1526.209
376.5412, 1549.815
377.0233, 1593.780
377.5055, 1641.787
377.9876, 1676.848
378.4697, 1697.146
378.9518, 1721.280
379.4339, 1748.257
379.9160, 1780.108
380.3982, 1817.985
380.8803, 1861.645
381.3624, 1911.541
381.8445, 1968.939
382.3266, 2029.136
382.8087, 2078.667
383.2909, 2104.726
383.7730, 2135.967
384.2551, 2173.096
384.7372, 2215.389
385.2193, 2265.830
385.7014, 2322.805
386.1836, 2378.027
386.6657, 2423.646
387.1478, 2459.466
387.6299, 2485.555
388.1120, 2490.045
388.5941, 2498.565
389.0763, 2529.797
389.5584, 2567.967
390.0405, 2587.428
390.5226, 2575.825
391.0047, 2545.711
391.4868, 2515.716
391.9690, 2486.361
392.4511, 2453.376
392.9332, 2416.966
393.4153, 2374.920
393.8974, 2325.945
394.3795, 2269.877
394.8617, 2209.287
395.3438, 2142.598
395.8259, 2073.224
396.3080, 2005.774
396.7901, 1940.730
397.2722, 1878.677
397.7544, 1819.845
398.2365, 1764.771
398.7186, 1713.361
399.2007, 1668.710
399.6828, 1624.702
400.1649, 1576.773
400.6471, 1528.543
401.1292, 1485.881
401.6113, 1450.511
402.0934, 1420.341
402.5755, 1392.215
403.0576, 1367.217
403.5398, 1341.344
404.0219, 1313.477
404.5040, 1285.652
404.9861, 1257.503
405.4682, 1230.151
405.9503, 1206.304
406.4325, 1187.926
406.9146, 1173.689
407.3967, 1158.975
407.8788, 1142.224
408.3609, 1128.362
408.8430, 1116.786
409.3252, 1109.114
409.8073, 1108.792
410.2894, 1115.682
410.7715, 1122.211
411.2536, 1119.451
411.7357, 1109.969
412.2179, 1107.562
412.7000, 1114.761
413.1821, 1125.098
413.6642, 1137.028
414.1463, 1148.743
414.6284, 1155.672
415.1106, 1154.098
415.5927, 1151.090
416.0748, 1150.744
416.5569, 1153.052
417.0390, 1158.977
417.5211, 1169.653
418.0033, 1180.948
418.4854, 1185.758
418.9675, 1180.275
419.4496, 1181.684
419.9317, 1195.056
420.4138, 1211.805
420.8960, 1228.249
421.3781, 1243.159
421.8602, 1254.781
422.3423, 1261.809
422.8244, 1265.200
423.3065, 1269.228
423.7887, 1276.342
424.2708, 1280.089
424.7529, 1276.825
425.2350, 1272.261
425.7171, 1270.665
426.1992, 1272.796
426.6814, 1277.245
427.1635, 1284.313
427.6456, 1293.506
428.1277, 1298.116
428.6098, 1297.201
429.0919, 1293.408
429.5741, 1288.300
430.0562, 1281.243
430.5383, 1269.925
431.0204, 1250.460
431.5025, 1233.872
431.9846, 1233.110
432.4668, 1243.470
432.9489, 1247.880
433.4310, 1241.474
433.9131, 1229.668
434.3952, 1217.544
434.8773, 1204.918
435.3595, 1195.427
435.8416, 1193.872
436.3237, 1191.407
436.8058, 1179.913
437.2879, 1162.971
437.7701, 1150.127
438.2522, 1146.396
438.7343, 1148.938
439.2164, 1150.794
439.6985, 1152.578
440.1806, 1152.424
440.6628, 1147.399
441.1449, 1143.044
441.6270, 1141.900
442.1091, 1144.621
442.5912, 1152.032
443.0733, 1166.898
443.5555, 1186.090
444.0376, 1195.904
444.5197, 1191.746
445.0018, 1191.062
445.4839, 1199.650
445.9660, 1215.758
446.4482, 1241.334
446.9303, 1278.281
447.4124, 1310.615
447.8945, 1324.432
448.3766, 1327.504
448.8587, 1335.346
449.3409, 1350.098
449.8230, 1368.996
450.3051, 1391.470
450.7872, 1416.786
451.2693, 1437.692
451.7514, 1453.893
452.2336, 1466.429
452.7157, 1474.688
453.1978, 1479.772
453.6799, 1483.063
454.1620, 1484.977
454.6441, 1485.048
455.1263, 1482.389
455.6084, 1476.419
456.0905, 1471.038
456.5726, 1473.914
457.0547, 1469.273
457.5368, 1447.281
458.0190, 1415.693
458.5011, 1386.951
458.9832, 1366.422
459.4653, 1349.726
459.9474, 1330.171
460.4295, 1307.757
460.9117, 1287.561
461.3938, 1271.468
461.8759, 1256.646
462.3580, 1239.932
462.8401, 1221.899
463.3222, 1205.618
463.8044, 1192.907
464.2865, 1181.427
464.7686, 1168.265
465.2507, 1154.327
465.7328, 1143.854
466.2149, 1139.197
466.6971, 1137.161
467.1792, 1131.571
467.6613, 1120.059
468.1434, 1109.785
468.6255, 1101.159
469.1076, 1093.368
469.5898, 1087.266
470.0719, 1081.681
470.5540, 1073.232
471.0361, 1059.022
471.5182, 1042.464
472.0003, 1034.760
472.4825, 1041.277
472.9646, 1042.121
473.4467, 1025.717
473.9288, 1007.542
474.4109, 998.2015
474.8930, 997.6254
475.3752, 997.7151
475.8573, 994.4010
476.3394, 988.5928
476.8215, 980.6837
477.3036, 970.6791
477.7857, 963.0695
478.2679, 961.1474
478.7500, 962.1909
479.2321, 959.4569
479.7142, 952.0930
480.1963, 943.9431
480.6784, 932.6906
481.1606, 923.0035
481.6427, 921.9375
482.1248, 927.8650
482.6069, 930.4509
483.0890, 921.1337
483.5711, 902.9178
484.0533, 892.5535
484.5354, 894.8526
485.0175, 897.4044
485.4996, 899.3425
485.9817, 900.1506
486.4638, 898.6324
486.9460, 895.0700
487.4281, 892.0812
487.9102, 892.4034
488.3923, 894.8376
488.8744, 895.9071
489.3565, 895.5907
489.8387, 893.9155
490.3208, 891.1367
490.8029, 886.7341
491.2850, 879.6500
491.7671, 868.5826
492.2492, 858.6064
492.7314, 851.9050
493.2135, 846.9988
493.6956, 842.3427
494.1777, 837.7691
494.6598, 833.8140
495.1419, 831.0338
495.6241, 829.1350
496.1062, 826.0573
496.5883, 819.5618
497.0704, 815.1194
497.5525, 815.1684
498.0346, 816.0560
498.5168, 814.5787
498.9989, 810.5394
499.4810, 806.1120
499.9631, 802.4138
500.4452, 799.7788
500.9273, 800.2480
501.4095, 804.8220
501.8916, 808.1657
502.3737, 806.6306
502.8558, 803.3101
503.3379, 804.0977
503.8200, 811.0300
504.3022, 813.7992
504.7843, 804.5809
505.2664, 791.4368
505.7485, 783.7717
506.2306, 781.9813
506.7127, 781.7343
507.1949, 780.2330
507.6770, 777.7975
508.1591, 775.9152
508.6412, 776.6236
509.1233, 774.7589
509.6054, 769.3036
510.0876, 761.9075
510.5697, 752.7359
511.0518, 742.5491
511.5339, 733.4341
512.0161, 727.0423
512.4982, 722.7095
512.9803, 718.4841
513.4624, 714.2230
513.9445, 711.0779
514.4266, 709.2759
514.9088, 709.0345
515.3909, 711.4683
515.8730, 717.0179
516.3551, 719.6996
516.8372, 716.4193
517.3193, 710.4529
517.8015, 702.3280
518.2836, 693.7792
518.7657, 690.4824
519.2478, 695.7850
519.7299, 706.7212
520.2120, 716.7598
520.6942, 729.3584
521.1763, 734.1232
521.6584, 723.6491
522.1405, 713.2305
522.6226, 710.4328
523.1047, 714.5385
523.5869, 722.3978
524.0690, 733.4889
524.5511, 745.0133
525.0332, 750.9401
525.5153, 751.3287
525.9974, 756.1157
526.4796, 769.5096
526.9617, 785.0126
527.4438, 796.0001
527.9259, 802.9465
528.4080, 808.2652
528.8901, 809.6699
529.3723, 812.1264
529.8544, 819.4205
530.3365, 829.7385
530.8186, 839.2281
531.3007, 846.6438
531.7828, 853.9293
532.2650, 864.4910
532.7471, 879.8146
533.2292, 889.3068
533.7113, 888.0301
534.1934, 886.3892
534.6755, 889.3329
535.1577, 893.1096
535.6398, 891.9662
536.1219, 883.8928
536.6040, 874.2296
537.0861, 867.0646
537.5682, 862.2831
538.0504, 861.5154
538.5325, 866.0801
539.0146, 865.7291
539.4967, 850.9648
539.9788, 825.3754
540.4609, 807.3591
540.9431, 803.1102
541.4252, 796.8233
541.9073, 784.1624
542.3894, 768.8090
542.8715, 752.4715
543.3536, 736.4911
543.8358, 724.1691
544.3179, 718.6658
544.8000, 718.3778
545.2821, 716.3595
545.7642, 712.2402
546.2463, 707.4391
546.7285, 703.3419
547.2106, 697.8398
547.6926, 687.9747
548.1747, 674.2466
548.6569, 662.3869
549.1390, 654.7857
549.6211, 650.4638
550.1032, 650.3474
550.5853, 653.1022
551.0674, 652.5609
551.5496, 645.7200
552.0317, 637.2796
552.5138, 635.1765
552.9959, 642.2630
553.4780, 646.0393
553.9601, 647.0624
554.4423, 644.7300
554.9244, 634.8633
555.4065, 622.6992
555.8886, 616.8722
556.3707, 620.6640
556.8528, 627.4052
557.3350, 629.9562
557.8171, 628.4866
558.2992, 623.5664
558.7813, 613.8907
559.2634, 605.0311
559.7455, 600.6428
560.2277, 600.0011
560.7098, 600.3083
561.1919, 602.6352
561.6740, 603.9905
562.1561, 603.2456
562.6382, 601.1860
563.1204, 597.5746
563.6025, 593.1418
564.0846, 590.8784
564.5667, 593.4572
565.0488, 598.9924
565.5309, 599.1042
566.0131, 589.3895
566.4952, 585.4191
566.9773, 598.8879
567.4594, 611.6061
567.9415, 609.8904
568.4236, 596.2965
568.9058, 584.8386
569.3879, 582.7298
569.8700, 584.0992
570.3521, 582.6320
570.8342, 579.5362
571.3163, 579.5543
571.7985, 584.3990
572.2806, 590.0200
572.7627, 591.2582
573.2448, 587.4220
573.7269, 585.7980
574.2090, 590.7725
574.6912, 592.5925
575.1733, 584.7772
575.6554, 574.6638
576.1375, 571.7082
576.6196, 577.4327
577.1017, 583.4117
577.5839, 579.6478
578.0660, 570.0469
578.5481, 569.5424
579.0302, 579.6614
579.5123, 586.9391
579.9944, 584.2114
580.4766, 575.9756
580.9587, 570.9864
581.4408, 570.2103
581.9229, 567.9506
582.4050, 561.4031
582.8871, 555.0081
583.3693, 551.7072
583.8514, 550.9291
584.3335, 551.3513
584.8156, 552.4017
585.2977, 552.9537
585.7798, 550.4470
586.2620, 544.3997
586.7441, 541.3644
587.2262, 543.6604
587.7083, 545.6392
588.1904, 543.1707
588.6725, 538.5113
589.1547, 535.2769
589.6368, 534.1770
590.1189, 533.8693
590.6010, 532.7591
591.0831, 532.5919
591.5652, 537.6940
592.0474, 546.9326
592.5295, 551.9843
593.0116, 546.4997
593.4937, 535.3029
593.9758, 534.7268
594.4579, 553.7213
594.9401, 562.0370
595.4222, 545.4103
595.9043, 528.1830
596.3864, 522.9083
596.8685, 526.7309
597.3506, 531.3753
597.8328, 534.8923
598.3149, 536.1172
598.7970, 531.7380
599.2791, 524.4334
599.7612, 522.0059
600.2433, 525.9669
600.7255, 530.1259
601.2076, 528.8358
601.6897, 523.0895
602.1718, 521.0357
602.6539, 526.7959
603.1360, 530.6938
603.6182, 530.6579
604.1003, 529.5999
604.5824, 530.6136
605.0645, 532.9019
605.5466, 532.1498
606.0287, 523.4856
606.5109, 513.6990
606.9930, 515.4910
607.4751, 526.9957
607.9572, 532.6788
608.4393, 527.8053
608.9214, 519.6894
609.4036, 515.1662
609.8857, 514.2636
610.3678, 514.5876
610.8499, 517.7223
611.3320, 519.9565
611.8141, 518.4598
612.2963, 516.8950
612.7784, 520.2146
613.2605, 527.9954
613.7426, 534.5313
614.2247, 535.5308
614.7068, 532.2215
615.1890, 526.2321
615.6711, 517.2964
616.1532, 512.1305
616.6353, 514.0040
617.1174, 517.9218
617.5995, 517.4134
618.0817, 512.3700
618.5638, 512.1235
619.0459, 521.8269
619.5280, 530.8307
620.0101, 535.4898
620.4922, 536.9059
620.9744, 535.3245
621.4565, 531.5958
621.9386, 529.2015
622.4207, 531.8165
622.9028, 538.0385
623.3849, 542.6702
623.8671, 545.7925
624.3492, 546.5639
624.8313, 543.1682
625.3134, 539.0819
625.7955, 539.1911
626.2776, 543.2090
626.7598, 545.5262
627.2419, 544.7604
627.7240, 542.7853
628.2061, 538.5003
628.6882, 534.4236
629.1703, 535.5831
629.6525, 542.3074
630.1346, 548.1499
630.6167, 545.7183
631.0988, 537.1416
631.5809, 534.5232
632.0630, 538.8444
632.5452, 545.5246
633.0273, 555.3416
633.5094, 564.9097
633.9915, 569.8062
634.4736, 570.3119
634.9557, 571.9968
635.4379, 578.0755
635.9200, 583.3414
636.4021, 583.8339
636.8842, 581.9779
637.3663, 581.1442
637.8484, 582.3555
638.3306, 585.8012
638.8127, 592.7214
639.2948, 601.8555
639.7769, 603.7979
640.2590, 595.0087
640.7411, 591.8979
641.2233, 602.6866
641.7054, 617.7132
642.1875, 626.7464
642.6696, 630.3298
643.1517, 634.9296
643.6339, 642.7091
644.1160, 650.9447
644.5981, 658.2255
645.0802, 664.9698
645.5623, 671.2058
646.0444, 677.2731
646.5266, 684.6924
647.0087, 694.4713
647.4908, 706.9263
647.9729, 725.8759
648.4550, 754.9984
648.9371, 774.8184
649.4193, 775.2214
649.9014, 770.1074
650.3835, 772.1619
650.8656, 780.6302
651.3477, 790.7733
651.8298, 801.9451
652.3120, 814.4949
652.7941, 832.1483
653.2762, 849.6198
653.7583, 858.1503
654.2404, 857.6246
654.7225, 856.9436
655.2047, 864.0063
655.6868, 875.4317
656.1689, 879.2629
656.6510, 874.1809
657.1331, 869.5958
657.6152, 867.5765
658.0974, 866.4458
658.5795, 866.7606
659.0616, 867.2588
659.5437, 861.6100
660.0258, 845.3056
660.5079, 827.6735
660.9901, 811.6629
661.4722, 796.0279
661.9543, 778.2820
662.4364, 759.2133
662.9185, 742.5936
663.4006, 731.1898
663.8828, 723.0305
664.3649, 713.1274
664.8470, 701.3030
665.3291, 694.5234
665.8112, 696.3433
666.2933, 697.3167
666.7755, 689.5527
667.2576, 675.0654
667.7397, 663.0499
668.2218, 654.7863
668.7039, 646.9371
669.1860, 638.5830
669.6682, 630.6565
670.1503, 624.2581
670.6324, 618.8607
671.1145, 612.2303
671.5966, 602.8082
672.0787, 594.8337
672.5609, 595.9504
673.0430, 604.6600
673.5251, 610.2777
674.0072, 611.6883
674.4893, 610.3250
674.9714, 605.5522
675.4536, 599.7357
675.9357, 599.5673
676.4178, 610.2041
676.8999, 615.1282
677.3820, 610.8696
677.8641, 603.9154
678.3463, 595.6936
678.8284, 587.7881
679.3105, 581.8080
679.7926, 578.2789
680.2747, 577.9715
680.7568, 583.4314
681.2390, 592.2256
681.7211, 599.1422
682.2032, 603.8820
682.6853, 605.4795
683.1674, 602.9075
683.6495, 598.9758
684.1317, 598.2183
684.6138, 601.5029
685.0959, 603.3772
685.5780, 603.2639
686.0601, 602.4234
686.5422, 599.3702
687.0244, 596.8190
687.5065, 598.7884
687.9886, 605.1871
688.4707, 609.7824
688.9528, 606.7473
689.4349, 601.8654
689.9171, 601.3383
690.3992, 604.4630
690.8813, 609.7839
691.3634, 616.8064
691.8455, 623.4807
692.3276, 628.0881
692.8098, 630.4068
693.2919, 627.4208
693.7740, 614.2101
694.2561, 606.6819
694.7382, 613.3047
695.2203, 621.5518
695.7025, 620.8530
696.1846, 614.1616
696.6667, 613.3766
697.1488, 626.6760
697.6309, 638.5916
698.1130, 639.9741
698.5952, 635.8171
699.0773, 630.7027
699.5594, 626.1255
700.0415, 623.9308
700.5236, 625.3019
701.0057, 629.4390
701.4879, 635.8911
701.9700, 644.9868
702.4521, 649.5269
702.9342, 647.9110
703.4163, 644.0076
703.8984, 638.2018
704.3806, 632.4163
704.8627, 631.5865
705.3448, 637.7878
705.8269, 642.5972
706.3090, 642.8597
706.7911, 643.4478
707.2733, 650.1430
707.7554, 658.2280
708.2375, 657.8029
708.7196, 646.4086
709.2017, 635.5638
709.6838, 638.9189
710.1660, 650.4459
710.6481, 654.2883
711.1302, 650.6616
711.6123, 646.9795
712.0944, 645.7888
712.5765, 645.8192
713.0587, 645.4825
713.5408, 644.7202
714.0229, 644.8557
714.5050, 646.5693
714.9871, 648.2703
715.4692, 648.6865
715.9514, 649.7931
716.4335, 655.1920
716.9156, 663.2678
717.3977, 666.3386
717.8798, 656.6732
718.3619, 647.6748
718.8441, 654.2567
719.3262, 667.1078
719.8083, 668.4622
720.2904, 657.6161
720.7725, 647.7240
721.2546, 647.7314
721.7368, 654.0070
722.2189, 658.1645
722.7010, 660.0322
723.1831, 660.6509
723.6652, 658.7896
724.1473, 658.3061
724.6295, 662.7440
725.1116, 669.4752
725.5937, 673.0175
726.0758, 672.4511
726.5579, 671.7783
727.0400, 669.8256
727.5222, 669.8840
728.0043, 676.5900
728.4864, 685.6408
728.9685, 689.3109
729.4506, 685.9599
729.9327, 682.1022
730.4149, 684.3731
730.8970, 690.0153
731.3791, 691.5860
731.8612, 689.8462
732.3433, 693.3104
732.8254, 705.3774
733.3076, 717.2949
733.7897, 719.8544
734.2718, 713.7496
734.7539, 707.7980
735.2360, 696.2492
735.7181, 694.6789
736.2003, 715.3524
736.6824, 736.3661
737.1645, 743.4022
737.6466, 739.8878
738.1287, 736.6798
738.6108, 736.9636
739.0930, 737.2332
739.5751, 734.6942
740.0572, 731.6326
740.5393, 730.7086
741.0214, 731.7874
741.5035, 733.2780
741.9857, 734.4189
742.4678, 736.6339
742.9499, 741.8467
743.4320, 750.0109
743.9141, 762.1277
744.3962, 779.9943
744.8784, 791.6267
745.3605, 790.6677
745.8426, 783.9720
746.3247, 780.3449
746.8068, 780.0543
747.2889, 780.5042
747.7711, 781.1295
748.2532, 783.1749
748.7353, 789.3038
749.2174, 795.2217
749.6995, 796.1591
750.1816, 792.9982
750.6638, 790.6819
751.1459, 790.8254
751.6280, 793.9951
752.1101, 803.0237
752.5922, 814.6429
753.0743, 822.2236
753.5565, 825.4556
754.0386, 828.3356
754.5207, 833.1940
755.0028, 838.9380
755.4849, 844.0249
755.9670, 848.7543
756.4492, 848.8746
756.9313, 841.0638
757.4134, 837.0566
757.8955, 844.2914
758.3776, 856.3589
758.8597, 863.4147
759.3419, 865.0081
759.8240, 867.2131
760.3061, 868.3976
760.7882, 872.8094
761.2703, 884.8052
761.7524, 899.0089
762.2346, 910.3745
762.7167, 918.1514
763.1988, 923.4482
763.6809, 925.6989
764.1630, 927.8723
764.6451, 932.1047
765.1273, 939.1885
765.6094, 953.7194
766.0915, 975.0576
766.5736, 991.6155
767.0557, 995.4847
767.5378, 993.6410
768.0200, 1001.802
768.5021, 1021.804
768.9842, 1040.580
769.4663, 1057.505
769.9484, 1073.947
770.4305, 1089.616
770.9127, 1105.724
771.3948, 1125.120
771.8769, 1148.287
772.3590, 1167.505
772.8411, 1175.570
773.3232, 1186.959
773.8054, 1208.270
774.2875, 1235.031
774.7696, 1263.833
775.2517, 1293.330
775.7338, 1321.599
776.2159, 1347.185
776.6981, 1371.977
777.1802, 1398.208
777.6623, 1425.235
778.1444, 1451.781
778.6265, 1477.550
779.1086, 1503.028
779.5908, 1528.549
780.0729, 1552.420
780.5550, 1570.166
781.0371, 1580.611
781.5192, 1597.263
782.0013, 1623.571
782.4835, 1646.999
782.9656, 1661.873
783.4477, 1672.374
783.9298, 1683.518
784.4119, 1695.329
784.8940, 1706.284
785.3762, 1715.574
785.8583, 1724.918
786.3404, 1735.973
786.8225, 1746.304
787.3046, 1754.261
787.7867, 1759.644
788.2689, 1762.178
788.7510, 1760.703
789.2331, 1759.886
789.7152, 1764.607
790.1973, 1772.072
790.6794, 1778.766
791.1616, 1784.022
791.6437, 1787.305
792.1258, 1788.407
792.6079, 1786.660
793.0900, 1780.725
793.5721, 1770.959
794.0543, 1761.029
794.5364, 1751.093
795.0185, 1739.284
795.5006, 1723.697
795.9827, 1708.818
796.4648, 1698.157
796.9470, 1691.879
797.4291, 1692.117
797.9112, 1711.032
798.3933, 1718.886
798.8754, 1705.714
799.3575, 1689.756
799.8397, 1679.754
800.3218, 1675.011
800.8039, 1672.509
801.2860, 1671.256
801.7681, 1674.590
802.2502, 1688.407
802.7324, 1703.840
803.2145, 1712.244
803.6966, 1716.366
804.1787, 1721.240
804.6608, 1728.582
805.1429, 1739.483
805.6251, 1756.128
806.1072, 1775.213
806.5893, 1789.350
807.0714, 1799.157
807.5535, 1806.949
808.0356, 1812.597
808.5178, 1827.168
808.9999, 1861.069
809.4820, 1902.554
809.9641, 1918.549
810.4462, 1896.179
810.9283, 1896.463
811.4105, 1931.592
811.8926, 1969.612
812.3747, 1999.665
812.8568, 2025.471
813.3389, 2050.618
813.8210, 2075.125
814.3032, 2099.286
814.7853, 2115.922
815.2674, 2141.303
815.7495, 2184.998
816.2316, 2236.619
816.7137, 2290.470
817.1959, 2343.544
817.6780, 2390.410
818.1601, 2427.173
818.6422, 2465.317
819.1243, 2518.524
819.6064, 2577.770
820.0886, 2627.652
820.5707, 2670.407
821.0528, 2717.297
821.5349, 2772.549
822.0170, 2828.673
822.4991, 2879.445
822.9813, 2923.708
823.4634, 2954.045
823.9455, 2969.792
824.4276, 2988.585
824.9097, 3012.502
825.3918, 3047.306
825.8740, 3101.134
826.3561, 3166.329
826.8382, 3214.713
827.3203, 3228.295
827.8024, 3266.958
828.2845, 3354.919
828.7667, 3438.368
829.2488, 3490.658
829.7309, 3532.539
830.2130, 3588.221
830.6951, 3659.306
831.1772, 3732.594
831.6594, 3798.473
832.1415, 3873.899
832.6236, 3969.935
833.1057, 4076.663
833.5878, 4187.989
834.0699, 4301.056
834.5521, 4411.973
835.0342, 4519.556
835.5163, 4621.820
835.9984, 4706.433
836.4805, 4790.754
836.9626, 4911.971
837.4448, 5060.500
837.9269, 5194.772
838.4090, 5301.003
838.8911, 5399.614
839.3732, 5510.942
839.8553, 5631.703
840.3375, 5752.647
840.8196, 5873.839
841.3017, 5990.103
841.7838, 6098.703
842.2659, 6211.298
842.7480, 6334.400
843.2302, 6469.811
843.7123, 6624.357
844.1944, 6802.926
844.6765, 6985.135
845.1586, 7165.822
845.6407, 7357.475
846.1229, 7557.039
846.6050, 7775.840
847.0871, 8026.095
847.5692, 8307.237
848.0513, 8609.016
848.5334, 8934.428
849.0156, 9276.403
849.4977, 9623.693
849.9798, 9995.323
850.4619, 10405.45
850.9440, 10854.83
851.4261, 11334.82
851.9083, 11845.00
852.3904, 12386.25
852.8725, 12962.27
853.3546, 13573.43
853.8367, 14232.48
854.3188, 14928.30
854.8010, 15652.46
855.2831, 16396.24
855.7652, 17128.97
856.2473, 17832.13
856.7294, 18491.76
857.2115, 19110.97
857.6937, 19667.57
858.1758, 20081.82
858.6579, 20342.70
859.1400, 20412.23
859.6221, 20272.76
860.1042, 19939.64
860.5864, 19423.07
861.0685, 18727.76
861.5506, 17898.33
862.0327, 16899.88
862.5148, 15895.59
862.9969, 14896.02
863.4791, 13926.01
863.9612, 12994.62
864.4433, 12106.61
864.9254, 11293.47
865.4075, 10557.73
865.8896, 9887.509
866.3718, 9265.646
866.8539, 8722.166
867.3360, 8280.552
867.8181, 7913.526
868.3002, 7602.485
868.7823, 7343.239
869.2645, 7111.627
869.7466, 6909.277
870.2287, 6725.185
870.7108, 6553.690
871.1929, 6400.921
871.6750, 6283.283
872.1572, 6187.371
872.6393, 6078.652
873.1214, 5944.181
873.6035, 5828.913
874.0856, 5785.717
874.5677, 5761.117
875.0499, 5699.484
875.5320, 5607.560
876.0141, 5497.435
876.4962, 5375.496
876.9783, 5256.419
877.4604, 5151.585
877.9426, 5049.351
878.4247, 4930.701
878.9068, 4799.343
879.3889, 4668.051
879.8710, 4538.136
880.3531, 4406.967
880.8353, 4273.810
881.3174, 4150.362
881.7995, 4054.778
882.2816, 3980.000
882.7637, 3875.290
883.2458, 3733.971
883.7280, 3616.132
884.2101, 3534.780
884.6922, 3468.547
885.1743, 3403.591
885.6564, 3346.420
886.1385, 3311.628
886.6207, 3302.533
887.1028, 3301.560
887.5849, 3310.198
888.0670, 3324.506
888.5491, 3338.745
889.0313, 3362.519
889.5134, 3401.053
889.9955, 3455.399
890.4776, 3531.076
890.9597, 3637.435
891.4418, 3748.086
891.9240, 3854.169
892.4061, 3970.084
892.8882, 4094.401
893.3703, 4238.900
893.8524, 4424.031
894.3345, 4649.819
894.8167, 4879.873
895.2988, 5098.958
895.7809, 5318.145
896.2630, 5539.212
896.7451, 5767.814
897.2272, 6019.563
897.7094, 6281.706
898.1915, 6529.886
898.6736, 6755.331
899.1557, 6938.553
899.6378, 7067.168
900.1199, 7140.835
900.6021, 7154.318
901.0842, 7113.974
901.5663, 7033.733
902.0484, 6914.957
902.5305, 6745.824
903.0126, 6517.487
903.4948, 6249.453
903.9769, 5963.669
904.4590, 5663.144
904.9411, 5362.607
905.4232, 5062.443
905.9053, 4761.720
906.3875, 4460.749
906.8696, 4184.621
907.3517, 3960.512
907.8338, 3775.386
908.3159, 3584.362
908.7980, 3387.569
909.2802, 3209.833
909.7623, 3054.548
910.2444, 2914.983
910.7265, 2788.547
911.2086, 2676.854
911.6907, 2583.813
912.1729, 2509.206
912.6550, 2431.060
913.1371, 2342.468
913.6192, 2273.175
914.1013, 2237.058
914.5834, 2204.340
915.0656, 2153.533
915.5477, 2093.565
916.0298, 2044.580
916.5119, 2008.871
916.9940, 1975.257
917.4761, 1939.426
917.9583, 1911.896
918.4404, 1900.143
918.9225, 1893.038
919.4046, 1879.996
919.8867, 1864.079
920.3688, 1857.503
920.8510, 1866.253
921.3331, 1872.963
921.8152, 1874.495
922.2973, 1874.248
922.7794, 1874.293
923.2615, 1873.101
923.7437, 1868.554
924.2258, 1860.760
924.7079, 1852.134
925.1900, 1846.443
925.6721, 1834.942
926.1542, 1811.737
926.6364, 1783.563
927.1185, 1754.293
927.6006, 1724.716
928.0827, 1696.975
928.5648, 1670.771
929.0469, 1637.550
929.5291, 1584.123
930.0112, 1531.762
930.4933, 1498.955
930.9754, 1474.380
931.4575, 1446.673
931.9396, 1413.674
932.4218, 1373.225
932.9039, 1324.529
933.3860, 1278.165
933.8681, 1244.400
934.3502, 1217.247
934.8323, 1191.904
935.3145, 1166.426
935.7966, 1134.439
936.2787, 1097.941
936.7608, 1070.467
937.2429, 1059.860
937.7250, 1051.650
938.2072, 1024.714
938.6893, 988.3304
939.1714, 963.5455
939.6535, 948.8216
940.1356, 938.4756
940.6177, 930.2330
941.0999, 917.2446
941.5820, 893.9485
942.0641, 867.0060
942.5462, 848.5296
943.0283, 837.1657
943.5104, 826.2010
943.9926, 815.4063
944.4747, 805.2500
944.9568, 795.8965
945.4389, 786.7164
945.9210, 777.3003
946.4031, 767.3922
946.8853, 755.6318
947.3674, 742.0202
947.8495, 731.1172
948.3316, 723.5411
948.8137, 714.1210
949.2958, 700.1631
949.7780, 687.5377
950.2601, 683.8952
950.7422, 686.6152
951.2243, 680.5108
951.7064, 663.4822
952.1885, 651.3056
952.6707, 645.8271
953.1528, 644.6692
953.6349, 648.4567
954.1170, 652.4988
954.5991, 650.5926
955.0812, 642.8700
955.5634, 631.1135
956.0455, 611.7875
956.5276, 599.9897
957.0097, 600.7057
957.4918, 602.4216
957.9739, 598.9279
958.4561, 592.7980
958.9382, 588.2940
959.4203, 585.6010
959.9024, 581.4488
960.3845, 573.4814
960.8666, 569.0143
961.3488, 572.7178
961.8309, 575.1033
962.3130, 567.8981
962.7951, 556.8098
963.2772, 554.4490
963.7593, 564.2137
964.2415, 564.4288
964.7236, 545.4570
965.2057, 530.9474
965.6878, 524.6815
966.1699, 524.1868
966.6520, 532.9782
967.1342, 545.2361
967.6163, 546.4692
968.0984, 532.3444
968.5805, 523.3742
969.0626, 527.7397
969.5447, 527.6792
970.0269, 512.5475
970.5090, 497.0200
970.9911, 493.9496
971.4732, 499.1622
971.9553, 500.6170
972.4374, 495.6695
972.9196, 492.5012
973.4017, 494.1615
973.8838, 495.2835
974.3659, 494.8955
974.8480, 492.4136
975.3301, 484.3609
975.8123, 473.9634
976.2944, 471.8940
976.7765, 483.5231
977.2586, 491.0699
977.7407, 487.1530
978.2228, 482.5147
978.7050, 482.9952
979.1871, 484.1023
979.6692, 479.4634
980.1513, 471.2552
980.6334, 468.8863
981.1155, 477.7066
981.5977, 481.9103
982.0798, 472.5321
982.5619, 462.4112
983.0440, 456.9775
983.5261, 455.0092
984.0082, 456.0260
984.4904, 458.9785
984.9725, 461.2806
985.4546, 463.2190
985.9367, 461.5624
986.4188, 450.6234
986.9009, 440.8552
987.3831, 440.8276
987.8652, 443.6764
988.3473, 440.0270
988.8294, 431.0491
989.3115, 425.7489
989.7936, 427.7163
990.2758, 430.9310
990.7579, 435.9788
991.2400, 438.1489
991.7221, 431.8238
992.2042, 422.5862
992.6863, 416.9419
993.1685, 415.1873
993.6506, 414.5122
994.1327, 414.6505
994.6148, 413.8562
995.0969, 409.8691
995.5790, 406.2771
996.0612, 405.5438
996.5433, 406.6508
997.0254, 409.5677
997.5075, 413.0907
997.9896, 412.7000
998.4717, 404.8552
998.9539, 399.0412
999.4360, 400.9148
999.9181, 404.9545
1000.400, 408.7995
1000.882, 411.5508
1001.364, 412.0631
1001.847, 410.6245
1002.329, 408.9241
1002.811, 407.8767
1003.293, 405.5605
1003.775, 399.1584
1004.257, 393.2309
1004.739, 390.5330
1005.221, 390.4601
1005.703, 393.3679
1006.186, 398.0658
1006.668, 400.6381
1007.150, 399.1093
1007.632, 397.5731
1008.114, 398.1780
1008.596, 399.0772
1009.078, 398.0320
1009.560, 397.3015
1010.043, 400.6232
1010.525, 406.9868
1011.007, 411.6073
1011.489, 413.0056
1011.971, 412.6912
1012.453, 411.0118
1012.935, 408.1724
1013.417, 401.0034
1013.899, 395.1511
1014.382, 400.0154
1014.864, 411.9991
1015.346, 416.7778
1015.828, 408.4285
1016.310, 401.4722
1016.792, 401.0165
1017.274, 403.9476
1017.756, 412.0439
1018.239, 419.9372
1018.721, 420.3907
1019.203, 416.0362
1019.685, 416.2780
1020.167, 424.3553
1020.649, 431.5222
1021.131, 435.8444
1021.613, 437.5279
1022.095, 435.7441
1022.578, 432.1873
1023.060, 425.0407
1023.542, 418.0423
1024.024, 421.3889
1024.506, 439.1756
1024.988, 452.4549
1025.470, 455.0352
1025.952, 453.9235
1026.435, 449.5566
1026.917, 444.4211
1027.399, 439.7078
1027.881, 435.9361
1028.363, 433.9737
1028.845, 434.0791
1029.327, 434.7791
1029.809, 436.7291
1030.292, 437.9638
1030.774, 437.1202
1031.256, 436.2382
1031.738, 438.4084
1032.220, 440.8076
1032.702, 437.6884
1033.184, 428.1720
1033.666, 420.0846
1034.148, 413.5618
1034.630, 409.5077
1035.113, 408.6741
1035.595, 409.6919
1036.077, 413.0832
1036.559, 417.2029
1037.041, 421.2456
1037.523, 425.3978
1038.005, 420.8927
1038.487, 398.1117
1038.970, 382.2439
1039.452, 377.9260
1039.934, 376.5678
1040.416, 376.1704
1040.898, 375.4081
1041.380, 372.2275
1041.862, 366.9578
1042.344, 363.1942
1042.826, 361.1544
1043.309, 360.2687
1043.791, 361.1330
1044.273, 362.1036
1044.755, 363.2553
1045.237, 363.2657
1045.719, 360.3333
1046.201, 355.2253
1046.683, 351.4556
1047.166, 349.1394
1047.648, 347.7071
1048.130, 347.2173
1048.612, 347.7717
1049.094, 350.4367
1049.576, 351.2781
1050.058, 346.1269
1050.540, 337.8039
1051.022, 333.9603
1051.505, 334.9223
1051.987, 337.4865
1052.469, 341.9994
1052.951, 346.1734
1053.433, 349.8195
1053.915, 350.7536
1054.397, 346.9045
1054.879, 341.4786
1055.361, 340.6870
1055.844, 344.0364
1056.326, 346.4236
1056.808, 347.8458
1057.290, 343.0296
1057.772, 330.9639
1058.254, 323.7498
1058.736, 328.1109
1059.218, 335.7921
1059.701, 335.5338
1060.183, 330.1401
1060.665, 329.4957
1061.147, 332.5677
1061.629, 333.9583
1062.111, 333.0638
1062.593, 330.2555
1063.075, 325.7980
1063.557, 321.9555
1064.040, 320.9450
1064.522, 321.9064
1065.004, 323.6430
1065.486, 325.9893
1065.968, 330.0092
1066.450, 334.2177
1066.932, 331.7109
1067.414, 322.1361
1067.896, 316.8115
1068.379, 324.6566
1068.861, 335.3229
1069.343, 337.6878
1069.825, 335.2071
1070.307, 331.3585
1070.789, 327.0190
1071.271, 322.0385
1071.753, 317.5465
1072.236, 318.5117
1072.718, 328.3929
1073.200, 335.1227
1073.682, 325.5273
1074.164, 313.8947
1074.646, 313.0524
1075.128, 316.5103
1075.610, 315.8318
1076.093, 311.9850
1076.575, 310.5279
1077.057, 313.0194
1077.539, 314.6863
1078.021, 311.5908
1078.503, 309.6904
1078.985, 314.8398
1079.467, 319.1040
1079.949, 314.2303
1080.432, 305.2335
1080.914, 301.1381
1081.396, 302.7200
1081.878, 303.2980
1082.360, 298.7744
1082.842, 297.6303
1083.324, 305.5185
1083.806, 311.7957
1084.288, 310.4731
1084.771, 306.0248
1085.253, 302.6512
1085.735, 300.3842
1086.217, 299.2706
1086.699, 299.6674
1087.181, 300.2477
1087.663, 300.6498
1088.145, 302.0405
1088.628, 305.1750
1089.110, 308.6292
1089.592, 311.8233
1090.074, 314.0665
1090.556, 313.5108
1091.038, 309.9950
1091.520, 308.7274
1092.002, 310.3354
1092.484, 309.8646
1092.967, 306.1294
1093.449, 303.1613
1093.931, 303.2533
1094.413, 303.3938
1094.895, 299.1148
1095.377, 292.4809
1095.859, 292.2526
1096.341, 297.2905
1096.823, 298.4652
1097.306, 295.3786
1097.788, 291.2971
1098.270, 287.5441
1098.752, 287.3500
1099.234, 294.0961
1099.716, 302.3540
1100.198, 304.0135
1100.680, 301.0078
1101.163, 295.8913
1101.645, 289.8753
1102.127, 285.3971
1102.609, 282.7724
1103.091, 280.7743
1103.573, 278.8007
1104.055, 278.3620
1104.537, 282.0487
1105.020, 286.4052
1105.502, 289.5389
1105.984, 290.5045
1106.466, 286.4545
1106.948, 279.9164
1107.430, 276.6893
1107.912, 277.8299
1108.394, 278.6713
1108.876, 277.4057
1109.359, 275.3599
1109.841, 270.3373
1110.323, 267.7009
1110.805, 274.0388
1111.287, 282.3546
1111.769, 282.8370
1112.251, 276.9400
1112.733, 275.2251
1113.215, 282.1015
1113.698, 284.3543
1114.180, 276.8757
1114.662, 272.4199
1115.144, 276.3903
1115.626, 280.3366
1116.108, 277.5202
1116.590, 272.1217
1117.072, 272.4405
1117.555, 278.5199
1118.037, 280.5161
1118.519, 277.2789
1119.001, 276.5111
1119.483, 279.2984
1119.965, 284.0375
1120.447, 290.6615
1120.929, 294.6302
1121.411, 290.6981
1121.894, 282.0394
1122.376, 275.7277
1122.858, 272.1025
1123.340, 274.1517
1123.822, 280.7985
1124.304, 285.7468
1124.786, 287.7788
1125.268, 290.9022
1125.750, 297.6823
1126.233, 301.4965
1126.715, 290.5215
1127.197, 275.8509
1127.679, 274.2141
1128.161, 278.7229
1128.643, 279.2214
1129.125, 275.4181
1129.607, 268.0555
1130.090, 258.4684
1130.572, 256.7489
1131.054, 275.3747
1131.536, 289.7958
1132.018, 282.4258
1132.500, 271.9046
1132.982, 271.4973
1133.464, 274.8841
1133.947, 272.5745
1134.429, 266.2756
1134.911, 265.7404
1135.393, 274.1193
1135.875, 281.3928
1136.357, 288.8215
1136.839, 291.8275
1137.321, 287.1933
1137.803, 281.5081
1138.286, 278.3982
1138.768, 276.3896
1139.250, 272.8159
1139.732, 268.2405
1140.214, 268.8846
1140.696, 276.0343
1141.178, 277.9512
1141.660, 273.4361
1142.142, 268.4398
1142.625, 264.7759
1143.107, 262.6446
1143.589, 262.2512
1144.071, 263.2688
1144.553, 265.7222
1145.035, 268.9205
1145.517, 270.2445
1145.999, 270.5594
1146.482, 273.7872
1146.964, 279.0224
1147.446, 279.7976
1147.928, 274.0602
1148.410, 269.0340
1148.892, 270.8145
1149.374, 274.1683
1149.856, 275.6812
1150.339, 275.3605
1150.821, 272.0055
1151.303, 267.5486
1151.785, 263.4987
1152.267, 260.9888
1152.749, 263.6426
1153.231, 274.7495
1153.713, 281.3037
1154.195, 277.2745
1154.677, 272.6261
1155.160, 268.6325
1155.642, 266.8770
1156.124, 270.5020
1156.606, 275.0248
1157.088, 273.3113
1157.570, 266.0574
1158.052, 261.4697
1158.534, 259.8743
1159.017, 259.3956
1159.499, 259.8241
1159.981, 262.6803
1160.463, 268.8419
1160.945, 274.1773
1161.427, 275.8273
1161.909, 274.3176
1162.391, 269.4423
1162.874, 262.5745
1163.356, 257.8602
1163.838, 255.2011
1164.320, 255.0097
1164.802, 256.7069
1165.284, 258.2083
1165.766, 258.8717
1166.248, 259.5536
1166.730, 260.7712
1167.213, 262.3353
1167.695, 263.8501
1168.177, 265.8902
1168.659, 271.2371
1169.141, 275.7394
1169.623, 272.5554
1170.105, 264.2434
1170.587, 258.9661
1171.069, 258.1201
1171.552, 260.6449
1172.034, 272.0708
1172.516, 277.9508
1172.998, 271.2215
1173.480, 265.7869
1173.962, 269.0396
1174.444, 273.9929
1174.926, 273.1474
1175.409, 268.2817
1175.891, 265.6249
1176.373, 265.3877
1176.855, 264.2384
1177.337, 262.1416
1177.819, 260.4082
1178.301, 259.3011
1178.783, 259.4023
1179.266, 260.9961
1179.748, 262.8943
1180.230, 263.7858
1180.712, 264.3073
1181.194, 266.3181
1181.676, 268.1274
1182.158, 265.9156
1182.640, 261.5025
1183.122, 259.2233
1183.604, 259.1408
1184.087, 257.8154
1184.569, 253.6230
1185.051, 251.0966
1185.533, 252.0714
1186.015, 255.4662
1186.497, 264.9804
1186.979, 272.3408
1187.461, 269.3844
1187.944, 262.3824
1188.426, 261.1598
1188.908, 264.3675
1189.390, 262.9466
1189.872, 254.1357
1190.354, 251.1701
1190.836, 256.0090
1191.318, 257.4772
1191.801, 252.5389
1192.283, 248.1435
1192.765, 248.2339
1193.247, 250.9513
1193.729, 254.8659
1194.211, 258.2975
1194.693, 255.7302
1195.175, 249.8836
1195.657, 247.8802
1196.140, 249.2203
1196.622, 251.6277
1197.104, 254.1161
1197.586, 255.0216
1198.068, 253.3886
1198.550, 252.4735
1199.032, 255.5885
1199.514, 258.3527
1199.996, 257.0964
1200.479, 255.7207
1200.961, 259.1027
1201.443, 263.2592
1201.925, 260.2606
1202.407, 251.5339
1202.889, 250.4343
1203.371, 261.0682
1203.853, 266.1723
1204.336, 264.5437
1204.818, 260.6671
1205.300, 254.4391
1205.782, 250.9924
1206.264, 253.5341
1206.746, 257.0014
1207.228, 254.7533
1207.710, 250.2462
1208.193, 254.3697
1208.675, 262.6071
1209.157, 259.0851
1209.639, 248.4835
1210.121, 247.0340
1210.603, 255.4926
1211.085, 264.0812
1211.567, 269.0239
1212.049, 269.6956
1212.531, 261.3510
1213.014, 254.5952
1213.496, 256.1512
1213.978, 260.0157
1214.460, 263.2708
1214.942, 265.5074
1215.424, 266.2791
1215.906, 265.8511
1216.388, 265.2101
1216.871, 264.3978
1217.353, 263.0454
1217.835, 260.9851
1218.317, 258.9823
1218.799, 257.0430
1219.281, 256.1392
1219.763, 256.8004
1220.245, 256.7817
1220.728, 253.8504
1221.210, 249.7657
1221.692, 246.7074
1222.174, 245.3383
1222.656, 248.3420
1223.138, 253.4696
1223.620, 255.9270
1224.102, 256.1656
1224.584, 257.8092
1225.067, 261.5203
1225.549, 263.2047
1226.031, 260.0891
1226.513, 256.7058
1226.995, 253.9195
1227.477, 252.0166
1227.959, 251.5064
1228.441, 251.4894
1228.923, 250.8268
1229.406, 250.7003
1229.888, 253.7240
1230.370, 259.3318
1230.852, 260.3622
1231.334, 256.5170
1231.816, 256.3542
1232.298, 260.1463
1232.780, 261.8603
1233.263, 260.0439
1233.745, 257.1788
1234.227, 254.6741
1234.709, 251.2139
1235.191, 242.3799
1235.673, 235.4286
1236.155, 241.7552
1236.637, 251.2738
1237.120, 250.8072
1237.602, 246.5423
1238.084, 250.5927
1238.566, 261.6203
1239.048, 268.4894
1239.530, 269.1436
1240.012, 266.5203
1240.494, 257.9186
1240.976, 252.2069
1241.458, 251.3323
1241.941, 250.9642
1242.423, 249.1360
1242.905, 247.8215
##END=



