##NAMES=Legrandite
##RRUFFID=R040151
##IDEAL CHEMISTRY=Zn^2+^_2_As^5+^O_4_(OH)&#183;H_2_O
##LOCALITY=Mapimi, Durango, Mexico
##OWNER=RRUFF
##SOURCE=University of Arizona Mineral Museum
##DESCRIPTION=Yellow crystal fragments; same material used in McLean et al. (1971) study
##STATUS=The identification of this mineral has been confirmed by X-ray diffraction and chemical analysis
##URL=rruff.info/R040151
##MEASURED CHEMISTRY=Zn_1.88_Fe^2+^_0.04_As_1.03_O_4_(OH)Â·H_2_O
150.6261, 1207.085
151.1082, 1229.081
151.5903, 1253.234
152.0724, 1276.161
152.5545, 1308.533
153.0366, 1357.369
153.5188, 1415.831
154.0009, 1470.243
154.4830, 1514.814
154.9651, 1558.359
155.4472, 1604.481
155.9293, 1648.023
156.4115, 1702.262
156.8936, 1770.136
157.3757, 1850.993
157.8578, 1943.235
158.3399, 2041.926
158.8221, 2154.300
159.3042, 2285.902
159.7863, 2431.753
160.2684, 2603.100
160.7505, 2820.815
161.2326, 3079.261
161.7148, 3319.363
162.1969, 3549.073
162.6790, 3736.955
163.1611, 3850.416
163.6432, 3864.212
164.1253, 3814.630
164.6075, 3709.148
165.0896, 3547.615
165.5717, 3362.030
166.0538, 3149.101
166.5359, 2926.818
167.0180, 2720.422
167.5002, 2531.614
167.9823, 2366.112
168.4644, 2232.179
168.9465, 2132.810
169.4286, 2048.398
169.9107, 1963.127
170.3929, 1882.588
170.8750, 1816.346
171.3571, 1779.634
171.8392, 1756.062
172.3213, 1727.175
172.8034, 1688.746
173.2856, 1652.360
173.7677, 1630.363
174.2498, 1619.970
174.7319, 1611.958
175.2140, 1603.005
175.6961, 1592.376
176.1783, 1576.441
176.6604, 1549.053
177.1425, 1526.395
177.6246, 1531.712
178.1067, 1562.116
178.5888, 1599.335
179.0710, 1628.208
179.5531, 1653.716
180.0352, 1687.015
180.5173, 1732.628
180.9994, 1785.029
181.4815, 1837.312
181.9637, 1889.737
182.4458, 1936.047
182.9279, 1972.235
183.4100, 1998.475
183.8921, 2016.053
184.3742, 2024.249
184.8564, 2024.537
185.3385, 2016.353
185.8206, 1998.692
186.3027, 1983.893
186.7848, 1982.459
187.2669, 1994.251
187.7491, 2017.883
188.2312, 2056.965
188.7133, 2107.495
189.1954, 2155.560
189.6775, 2200.356
190.1596, 2244.954
190.6418, 2294.644
191.1239, 2349.078
191.6060, 2402.693
192.0881, 2453.026
192.5702, 2500.391
193.0524, 2549.869
193.5345, 2603.925
194.0166, 2653.445
194.4987, 2681.613
194.9808, 2687.438
195.4629, 2686.813
195.9451, 2688.422
196.4272, 2692.076
196.9093, 2685.030
197.3914, 2665.617
197.8735, 2637.490
198.3556, 2607.536
198.8378, 2576.328
199.3199, 2540.494
199.8020, 2500.629
200.2841, 2457.787
200.7662, 2398.548
201.2483, 2317.040
201.7305, 2223.390
202.2126, 2141.492
202.6947, 2072.097
203.1768, 2011.666
203.6589, 1957.870
204.1410, 1910.947
204.6232, 1871.729
205.1053, 1838.639
205.5874, 1814.041
206.0695, 1807.214
206.5516, 1821.133
207.0337, 1845.023
207.5159, 1872.827
207.9980, 1904.342
208.4801, 1938.751
208.9622, 1977.909
209.4443, 2019.830
209.9264, 2054.115
210.4086, 2078.624
210.8907, 2099.888
211.3728, 2123.711
211.8549, 2153.049
212.3370, 2175.710
212.8191, 2190.803
213.3013, 2198.020
213.7834, 2194.042
214.2655, 2173.973
214.7476, 2150.504
215.2297, 2135.727
215.7118, 2133.890
216.1940, 2128.082
216.6761, 2112.655
217.1582, 2088.387
217.6403, 2074.749
218.1224, 2074.099
218.6045, 2081.095
219.0867, 2090.774
219.5688, 2102.229
220.0509, 2118.221
220.5330, 2137.717
221.0151, 2160.800
221.4972, 2195.302
221.9794, 2244.458
222.4615, 2301.718
222.9436, 2361.475
223.4257, 2425.452
223.9078, 2489.215
224.3899, 2551.126
224.8721, 2611.981
225.3542, 2672.794
225.8363, 2741.231
226.3184, 2802.906
226.8005, 2841.229
227.2827, 2850.353
227.7648, 2846.580
228.2469, 2834.324
228.7290, 2814.566
229.2111, 2778.666
229.6932, 2720.570
230.1754, 2651.693
230.6575, 2585.754
231.1396, 2524.551
231.6217, 2463.872
232.1038, 2402.169
232.5859, 2338.701
233.0681, 2277.845
233.5502, 2217.927
234.0323, 2162.030
234.5144, 2112.992
234.9965, 2067.467
235.4786, 2035.234
235.9608, 2020.124
236.4429, 2024.249
236.9250, 2036.326
237.4071, 2057.644
237.8892, 2086.079
238.3713, 2119.007
238.8535, 2159.459
239.3356, 2199.392
239.8177, 2236.873
240.2998, 2272.712
240.7819, 2303.782
241.2640, 2333.639
241.7462, 2357.170
242.2283, 2365.257
242.7104, 2353.274
243.1925, 2333.436
243.6746, 2309.794
244.1567, 2283.282
244.6389, 2248.190
245.1210, 2198.927
245.6031, 2144.516
246.0852, 2101.931
246.5673, 2077.184
247.0494, 2054.034
247.5316, 2026.604
248.0137, 1993.048
248.4958, 1960.617
248.9779, 1926.303
249.4600, 1895.003
249.9421, 1877.702
250.4243, 1880.840
250.9064, 1886.166
251.3885, 1886.394
251.8706, 1878.351
252.3527, 1875.802
252.8348, 1879.200
253.3170, 1887.755
253.7991, 1899.685
254.2812, 1913.329
254.7633, 1933.340
255.2454, 1963.964
255.7275, 2010.362
256.2097, 2046.797
256.6918, 2069.991
257.1739, 2085.077
257.6560, 2101.711
258.1381, 2121.032
258.6202, 2139.551
259.1024, 2154.289
259.5845, 2161.518
260.0666, 2180.461
260.5487, 2214.797
261.0308, 2258.045
261.5129, 2299.120
261.9951, 2334.540
262.4772, 2375.262
262.9593, 2424.437
263.4414, 2482.325
263.9235, 2550.313
264.4056, 2632.117
264.8878, 2721.419
265.3699, 2808.774
265.8520, 2893.696
266.3341, 2980.193
266.8162, 3071.511
267.2983, 3167.776
267.7805, 3263.476
268.2626, 3359.006
268.7447, 3452.643
269.2268, 3542.344
269.7089, 3629.104
270.1910, 3708.139
270.6732, 3780.773
271.1553, 3847.949
271.6374, 3895.371
272.1195, 3922.714
272.6016, 3930.799
273.0837, 3918.256
273.5659, 3883.091
274.0480, 3837.890
274.5301, 3790.494
275.0122, 3741.824
275.4943, 3663.489
275.9764, 3548.100
276.4586, 3416.939
276.9407, 3300.380
277.4228, 3201.087
277.9049, 3105.600
278.3870, 3008.961
278.8691, 2911.517
279.3513, 2820.197
279.8334, 2733.974
280.3155, 2656.521
280.7976, 2596.941
281.2798, 2556.621
281.7619, 2513.410
282.2440, 2453.162
282.7261, 2380.255
283.2082, 2330.982
283.6903, 2308.985
284.1725, 2297.225
284.6546, 2274.936
285.1367, 2242.711
285.6188, 2210.984
286.1009, 2183.161
286.5830, 2158.820
287.0652, 2136.876
287.5473, 2117.916
288.0294, 2099.050
288.5115, 2079.058
288.9936, 2057.292
289.4757, 2029.118
289.9579, 1987.537
290.4400, 1939.655
290.9221, 1906.417
291.4042, 1888.825
291.8863, 1873.370
292.3684, 1845.147
292.8506, 1806.938
293.3327, 1770.816
293.8148, 1743.435
294.2969, 1718.620
294.7790, 1680.584
295.2611, 1629.132
295.7433, 1579.196
296.2254, 1541.568
296.7075, 1514.891
297.1896, 1497.319
297.6717, 1493.441
298.1538, 1493.335
298.6360, 1480.107
299.1181, 1454.710
299.6002, 1429.842
300.0823, 1415.974
300.5644, 1409.247
301.0465, 1402.075
301.5287, 1391.440
302.0108, 1380.858
302.4929, 1375.076
302.9750, 1373.391
303.4571, 1372.100
303.9392, 1368.647
304.4214, 1364.073
304.9035, 1359.541
305.3856, 1354.935
305.8677, 1351.243
306.3498, 1348.852
306.8319, 1348.004
307.3141, 1349.565
307.7962, 1357.453
308.2783, 1366.398
308.7604, 1371.033
309.2425, 1369.004
309.7246, 1365.106
310.2068, 1358.439
310.6889, 1351.796
311.1710, 1352.264
311.6531, 1373.809
312.1352, 1397.346
312.6173, 1406.859
313.0995, 1394.708
313.5816, 1383.143
314.0637, 1386.850
314.5458, 1398.101
315.0279, 1402.383
315.5100, 1386.732
315.9922, 1368.226
316.4743, 1356.622
316.9564, 1354.951
317.4385, 1352.263
317.9206, 1343.620
318.4027, 1332.101
318.8849, 1322.004
319.3670, 1313.064
319.8491, 1306.989
320.3312, 1305.990
320.8133, 1311.594
321.2954, 1313.711
321.7776, 1305.651
322.2597, 1294.975
322.7418, 1289.744
323.2239, 1296.866
323.7060, 1303.797
324.1881, 1308.943
324.6703, 1312.510
325.1524, 1310.569
325.6345, 1295.970
326.1166, 1279.412
326.5987, 1269.405
327.0808, 1272.243
327.5630, 1274.266
328.0451, 1272.979
328.5272, 1268.652
329.0093, 1267.304
329.4914, 1271.697
329.9735, 1276.588
330.4557, 1278.599
330.9378, 1276.774
331.4199, 1273.510
331.9020, 1267.417
332.3841, 1259.753
332.8662, 1256.800
333.3484, 1259.886
333.8305, 1265.713
334.3126, 1272.607
334.7947, 1280.310
335.2768, 1289.996
335.7589, 1303.081
336.2411, 1317.411
336.7232, 1326.564
337.2053, 1327.666
337.6874, 1331.820
338.1695, 1344.387
338.6516, 1365.733
339.1338, 1392.655
339.6159, 1427.247
340.0980, 1463.641
340.5801, 1490.730
341.0622, 1508.100
341.5443, 1522.669
342.0265, 1534.513
342.5086, 1544.707
342.9907, 1565.271
343.4728, 1596.967
343.9549, 1635.394
344.4370, 1676.212
344.9192, 1719.040
345.4013, 1762.339
345.8834, 1803.384
346.3655, 1844.553
346.8476, 1891.823
347.3297, 1945.178
347.8119, 1999.367
348.2940, 2048.232
348.7761, 2093.558
349.2582, 2139.425
349.7403, 2187.731
350.2225, 2237.585
350.7046, 2289.177
351.1867, 2342.467
351.6688, 2393.577
352.1509, 2438.188
352.6331, 2479.367
353.1152, 2522.328
353.5973, 2570.299
354.0794, 2616.410
354.5615, 2657.485
355.0436, 2692.290
355.5258, 2717.076
356.0079, 2727.530
356.4900, 2728.311
356.9721, 2723.311
357.4542, 2713.208
357.9363, 2697.049
358.4185, 2674.183
358.9006, 2644.907
359.3827, 2609.735
359.8648, 2567.404
360.3469, 2520.388
360.8290, 2469.417
361.3112, 2414.076
361.7933, 2356.938
362.2754, 2294.751
362.7575, 2232.257
363.2396, 2174.367
363.7217, 2130.840
364.2039, 2084.165
364.6860, 2027.141
365.1681, 1959.307
365.6502, 1897.147
366.1323, 1840.553
366.6144, 1790.881
367.0966, 1749.007
367.5787, 1720.425
368.0608, 1693.352
368.5429, 1664.492
369.0250, 1635.678
369.5071, 1617.307
369.9893, 1615.929
370.4714, 1617.391
370.9535, 1614.584
371.4356, 1603.932
371.9177, 1596.651
372.3998, 1590.449
372.8820, 1588.965
373.3641, 1602.552
373.8462, 1637.457
374.3283, 1670.918
374.8104, 1689.766
375.2925, 1691.424
375.7747, 1713.167
376.2568, 1760.185
376.7389, 1817.347
377.2210, 1863.369
377.7031, 1897.378
378.1852, 1932.508
378.6674, 1972.456
379.1495, 2016.798
379.6316, 2066.125
380.1137, 2120.243
380.5958, 2177.380
381.0779, 2238.339
381.5601, 2301.985
382.0422, 2356.917
382.5243, 2397.655
383.0064, 2434.025
383.4885, 2485.664
383.9706, 2550.737
384.4528, 2612.091
384.9349, 2656.118
385.4170, 2689.760
385.8991, 2726.490
386.3812, 2770.421
386.8633, 2811.828
387.3455, 2839.978
387.8276, 2858.585
388.3097, 2876.596
388.7918, 2905.261
389.2739, 2930.543
389.7560, 2941.809
390.2382, 2938.072
390.7203, 2922.322
391.2024, 2891.777
391.6845, 2851.737
392.1666, 2807.832
392.6487, 2760.764
393.1309, 2711.426
393.6130, 2661.506
394.0951, 2610.518
394.5772, 2555.078
395.0593, 2489.835
395.5414, 2422.627
396.0236, 2358.969
396.5057, 2303.136
396.9878, 2246.414
397.4699, 2186.362
397.9520, 2124.863
398.4341, 2068.334
398.9163, 2017.151
399.3984, 1970.635
399.8805, 1929.001
400.3626, 1893.625
400.8447, 1858.804
401.3268, 1822.485
401.8090, 1788.288
402.2911, 1761.982
402.7732, 1747.992
403.2553, 1730.748
403.7374, 1704.218
404.2195, 1669.263
404.7017, 1640.913
405.1838, 1618.730
405.6659, 1604.234
406.1480, 1602.121
406.6301, 1612.626
407.1122, 1617.999
407.5944, 1613.275
408.0765, 1603.426
408.5586, 1599.409
409.0407, 1601.158
409.5228, 1607.441
410.0049, 1618.937
410.4871, 1634.294
410.9692, 1650.398
411.4513, 1667.352
411.9334, 1683.539
412.4155, 1694.649
412.8976, 1703.372
413.3798, 1716.884
413.8619, 1741.618
414.3440, 1771.161
414.8261, 1799.039
415.3082, 1825.225
415.7903, 1852.626
416.2725, 1884.688
416.7546, 1918.660
417.2367, 1952.015
417.7188, 1979.651
418.2009, 2010.370
418.6830, 2048.867
419.1652, 2093.958
419.6473, 2139.814
420.1294, 2186.381
420.6115, 2232.185
421.0937, 2277.583
421.5758, 2323.454
422.0579, 2365.110
422.5400, 2396.594
423.0221, 2424.675
423.5042, 2461.375
423.9864, 2521.425
424.4685, 2573.435
424.9506, 2607.389
425.4327, 2620.681
425.9148, 2643.475
426.3969, 2676.092
426.8791, 2717.789
427.3612, 2772.381
427.8433, 2851.086
428.3254, 2905.926
428.8075, 2924.659
429.2896, 2916.824
429.7718, 2915.076
430.2539, 2921.345
430.7360, 2923.631
431.2181, 2911.863
431.7002, 2887.301
432.1823, 2870.245
432.6645, 2863.943
433.1466, 2857.596
433.6287, 2834.906
434.1108, 2798.505
434.5929, 2761.033
435.0750, 2728.530
435.5572, 2698.151
436.0393, 2666.760
436.5214, 2634.151
437.0035, 2595.794
437.4856, 2540.740
437.9677, 2480.282
438.4499, 2431.017
438.9320, 2400.822
439.4141, 2376.540
439.8962, 2346.983
440.3783, 2316.004
440.8604, 2292.664
441.3426, 2286.814
441.8247, 2285.651
442.3068, 2282.197
442.7889, 2275.163
443.2710, 2268.344
443.7531, 2259.205
444.2353, 2252.199
444.7174, 2252.097
445.1995, 2262.075
445.6816, 2276.319
446.1637, 2294.658
446.6458, 2316.714
447.1280, 2340.850
447.6101, 2367.678
448.0922, 2396.030
448.5743, 2425.603
449.0564, 2458.831
449.5385, 2486.454
450.0207, 2504.042
450.5028, 2519.642
450.9849, 2551.564
451.4670, 2603.759
451.9491, 2650.653
452.4312, 2680.518
452.9134, 2695.610
453.3955, 2715.428
453.8776, 2740.652
454.3597, 2765.264
454.8418, 2787.979
455.3239, 2806.231
455.8061, 2805.664
456.2882, 2774.449
456.7703, 2736.477
457.2524, 2730.281
457.7345, 2748.851
458.2166, 2763.470
458.6988, 2757.365
459.1809, 2738.110
459.6630, 2709.612
460.1451, 2669.817
460.6272, 2637.374
461.1093, 2631.399
461.5915, 2637.483
462.0736, 2637.872
462.5557, 2623.826
463.0378, 2605.900
463.5199, 2585.246
464.0020, 2562.907
464.4842, 2545.151
464.9663, 2541.932
465.4484, 2537.411
465.9305, 2522.761
466.4126, 2489.680
466.8947, 2460.253
467.3769, 2436.431
467.8590, 2415.510
468.3411, 2394.219
468.8232, 2378.438
469.3053, 2349.722
469.7874, 2297.260
470.2696, 2223.198
470.7517, 2169.537
471.2338, 2141.062
471.7159, 2118.589
472.1980, 2084.932
472.6801, 2040.316
473.1623, 2002.218
473.6444, 1975.252
474.1265, 1951.055
474.6086, 1912.488
475.0907, 1861.943
475.5728, 1814.887
476.0550, 1782.435
476.5371, 1757.532
477.0192, 1727.830
477.5013, 1692.660
477.9834, 1661.256
478.4655, 1646.025
478.9477, 1637.118
479.4298, 1621.415
479.9119, 1587.484
480.3940, 1555.107
480.8761, 1536.431
481.3582, 1527.803
481.8404, 1519.024
482.3225, 1505.412
482.8046, 1492.029
483.2867, 1481.811
483.7688, 1476.851
484.2509, 1468.637
484.7331, 1450.030
485.2152, 1431.233
485.6973, 1422.139
486.1794, 1431.308
486.6615, 1435.276
487.1436, 1428.575
487.6258, 1414.076
488.1079, 1405.187
488.5900, 1402.557
489.0721, 1403.955
489.5542, 1410.121
490.0363, 1421.160
490.5185, 1427.226
491.0006, 1427.618
491.4827, 1424.362
491.9648, 1418.280
492.4470, 1410.131
492.9291, 1404.460
493.4112, 1404.921
493.8933, 1406.991
494.3754, 1399.879
494.8575, 1385.826
495.3397, 1379.344
495.8218, 1397.926
496.3039, 1425.224
496.7860, 1442.636
497.2681, 1445.642
497.7502, 1446.817
498.2324, 1449.785
498.7145, 1455.850
499.1966, 1466.852
499.6787, 1492.619
500.1608, 1513.971
500.6429, 1523.414
501.1251, 1521.563
501.6072, 1520.082
502.0893, 1514.847
502.5714, 1514.518
503.0535, 1524.761
503.5356, 1554.943
504.0178, 1572.790
504.4999, 1574.486
504.9820, 1567.102
505.4641, 1562.467
505.9462, 1562.607
506.4283, 1554.638
506.9105, 1532.036
507.3926, 1499.184
507.8747, 1473.442
508.3568, 1454.960
508.8389, 1439.411
509.3210, 1423.961
509.8032, 1408.669
510.2853, 1394.961
510.7674, 1384.385
511.2495, 1369.491
511.7316, 1334.919
512.2137, 1290.645
512.6959, 1257.456
513.1780, 1252.398
513.6601, 1253.925
514.1422, 1248.692
514.6243, 1237.465
515.1064, 1226.694
515.5886, 1217.880
516.0707, 1210.988
516.5528, 1206.599
517.0349, 1207.492
517.5170, 1205.104
517.9991, 1191.420
518.4813, 1176.849
518.9634, 1176.162
519.4455, 1203.826
519.9276, 1219.856
520.4097, 1210.889
520.8918, 1182.362
521.3740, 1171.202
521.8561, 1182.140
522.3382, 1194.775
522.8203, 1193.841
523.3024, 1180.462
523.7845, 1173.939
524.2667, 1175.708
524.7488, 1182.947
525.2309, 1194.737
525.7130, 1209.665
526.1951, 1222.498
526.6772, 1230.477
527.1594, 1236.577
527.6415, 1244.036
528.1236, 1252.542
528.6057, 1260.918
529.0878, 1267.779
529.5699, 1274.638
530.0521, 1282.058
530.5342, 1289.704
531.0163, 1300.095
531.4984, 1321.587
531.9805, 1343.110
532.4626, 1353.020
532.9448, 1332.523
533.4269, 1321.162
533.9090, 1327.878
534.3911, 1347.426
534.8732, 1359.239
535.3553, 1361.594
535.8375, 1359.569
536.3196, 1354.964
536.8017, 1347.672
537.2838, 1339.056
537.7659, 1329.232
538.2480, 1317.407
538.7302, 1301.182
539.2123, 1281.321
539.6944, 1264.820
540.1765, 1255.016
540.6586, 1245.859
541.1407, 1226.263
541.6229, 1199.129
542.1050, 1174.602
542.5871, 1159.314
543.0692, 1148.259
543.5513, 1138.647
544.0334, 1130.332
544.5156, 1119.363
544.9977, 1098.071
545.4798, 1076.710
545.9619, 1064.160
546.4440, 1072.831
546.9261, 1074.337
547.4083, 1057.711
547.8904, 1032.861
548.3725, 1018.121
548.8546, 1019.321
549.3367, 1020.997
549.8188, 1020.121
550.3010, 1016.676
550.7831, 1009.740
551.2652, 998.2595
551.7473, 986.7687
552.2294, 977.1705
552.7115, 969.7805
553.1937, 970.4792
553.6758, 981.6569
554.1579, 992.9192
554.6400, 989.6480
555.1221, 975.7957
555.6042, 962.7621
556.0864, 954.9519
556.5685, 949.2012
557.0506, 941.9810
557.5327, 934.1150
558.0148, 928.8148
558.4969, 928.7352
558.9791, 930.8870
559.4612, 934.0594
559.9433, 938.5850
560.4254, 941.6028
560.9075, 941.3258
561.3896, 940.0101
561.8718, 939.6638
562.3539, 940.9045
562.8360, 942.3548
563.3181, 945.5302
563.8002, 948.0831
564.2823, 942.7028
564.7645, 927.1095
565.2466, 914.0628
565.7287, 909.3270
566.2108, 911.3682
566.6929, 913.7690
567.1750, 916.5924
567.6572, 917.8940
568.1393, 914.7580
568.6214, 909.1156
569.1035, 905.0490
569.5856, 903.4421
570.0677, 902.2844
570.5499, 900.2330
571.0320, 897.4368
571.5141, 894.1255
571.9962, 885.2234
572.4783, 880.9474
572.9604, 890.8946
573.4426, 911.1055
573.9247, 921.3458
574.4068, 907.7503
574.8889, 893.1229
575.3710, 886.0705
575.8531, 887.9277
576.3353, 891.1174
576.8174, 897.1016
577.2995, 902.2029
577.7816, 902.2775
578.2637, 896.7866
578.7458, 892.2752
579.2280, 890.3637
579.7101, 888.5939
580.1922, 880.6194
580.6743, 867.8937
581.1564, 858.6251
581.6385, 860.6268
582.1207, 866.0763
582.6028, 863.7192
583.0849, 854.5514
583.5670, 846.2274
584.0491, 842.9563
584.5313, 842.5383
585.0134, 843.9005
585.4955, 847.9722
585.9776, 850.1879
586.4597, 845.6505
586.9418, 840.2353
587.4240, 841.0419
587.9061, 856.8732
588.3882, 865.1722
588.8703, 860.4265
589.3524, 847.4518
589.8345, 840.7007
590.3167, 841.5661
590.7988, 843.2968
591.2809, 842.7571
591.7630, 840.6221
592.2451, 840.4603
592.7272, 842.3129
593.2094, 845.1363
593.6915, 849.3234
594.1736, 853.6085
594.6557, 855.5884
595.1378, 854.7590
595.6199, 851.9482
596.1021, 845.7870
596.5842, 838.5468
597.0663, 833.4471
597.5485, 833.7802
598.0306, 834.1541
598.5127, 831.8941
598.9948, 828.0037
599.4769, 827.0439
599.9590, 834.7949
600.4412, 838.7641
600.9233, 833.2516
601.4054, 817.2729
601.8875, 807.0097
602.3696, 803.1318
602.8517, 803.5502
603.3339, 807.5989
603.8160, 815.0228
604.2981, 822.8995
604.7802, 831.5258
605.2623, 838.0942
605.7444, 836.8221
606.2266, 830.3428
606.7087, 825.8766
607.1908, 828.4365
607.6729, 831.4958
608.1550, 828.0470
608.6371, 820.4712
609.1193, 816.3893
609.6014, 821.2698
610.0835, 828.3461
610.5656, 835.8244
611.0477, 844.3145
611.5298, 846.7035
612.0120, 837.3400
612.4941, 827.3076
612.9762, 824.4940
613.4583, 831.4548
613.9404, 836.5933
614.4225, 839.6382
614.9047, 840.3835
615.3868, 837.6220
615.8689, 831.6323
616.3510, 826.2705
616.8331, 822.2212
617.3152, 819.9487
617.7974, 821.4102
618.2795, 825.6190
618.7616, 828.8102
619.2437, 826.5593
619.7258, 824.2417
620.2079, 827.0833
620.6901, 835.2571
621.1722, 841.2261
621.6543, 839.6329
622.1364, 836.9110
622.6185, 837.6835
623.1006, 845.8823
623.5828, 849.1375
624.0649, 844.7289
624.5470, 837.8719
625.0291, 834.6308
625.5112, 835.3639
625.9933, 838.1692
626.4755, 843.5463
626.9576, 849.6311
627.4397, 851.9960
627.9218, 851.0939
628.4039, 850.3815
628.8860, 852.3762
629.3682, 855.1163
629.8503, 854.7622
630.3324, 851.9597
630.8145, 851.6411
631.2966, 858.6500
631.7787, 867.7935
632.2609, 875.4929
632.7430, 881.0125
633.2251, 886.1838
633.7072, 893.6710
634.1893, 899.4052
634.6714, 899.4746
635.1536, 889.4095
635.6357, 883.5599
636.1178, 883.4716
636.5999, 887.5579
637.0820, 893.7399
637.5641, 902.0877
638.0463, 910.2181
638.5284, 917.5883
639.0105, 924.1385
639.4926, 929.8159
639.9747, 934.6838
640.4568, 938.9556
640.9390, 941.0964
641.4211, 943.8561
641.9032, 949.6893
642.3853, 958.7365
642.8674, 970.0782
643.3495, 986.6356
643.8317, 1003.134
644.3138, 1016.114
644.7959, 1024.008
645.2780, 1030.006
645.7601, 1031.550
646.2422, 1033.410
646.7244, 1042.439
647.2065, 1060.529
647.6886, 1075.209
648.1707, 1083.046
648.6528, 1087.960
649.1349, 1098.472
649.6171, 1113.798
650.0992, 1128.673
650.5813, 1141.888
651.0634, 1152.535
651.5455, 1156.858
652.0276, 1156.473
652.5098, 1159.872
652.9919, 1174.619
653.4740, 1192.213
653.9561, 1208.894
654.4382, 1225.214
654.9203, 1234.618
655.4025, 1230.355
655.8846, 1223.831
656.3667, 1223.273
656.8488, 1232.536
657.3309, 1235.795
657.8130, 1231.345
658.2952, 1222.954
658.7773, 1216.336
659.2594, 1211.065
659.7415, 1202.800
660.2236, 1190.486
660.7057, 1174.447
661.1879, 1151.608
661.6700, 1125.135
662.1521, 1104.169
662.6342, 1099.562
663.1163, 1096.328
663.5984, 1083.521
664.0806, 1062.416
664.5627, 1045.127
665.0448, 1037.903
665.5269, 1032.397
666.0090, 1025.132
666.4911, 1015.911
666.9733, 1006.728
667.4554, 997.2410
667.9375, 988.4697
668.4196, 981.2106
668.9017, 975.4307
669.3839, 970.8557
669.8660, 967.5124
670.3481, 965.1647
670.8302, 963.7293
671.3123, 963.0858
671.7944, 963.2839
672.2766, 966.1151
672.7587, 966.8875
673.2408, 960.1060
673.7229, 949.3564
674.2050, 941.5293
674.6871, 939.2003
675.1693, 939.3472
675.6514, 942.0599
676.1335, 946.7907
676.6156, 951.1899
677.0977, 956.2850
677.5798, 958.5862
678.0620, 954.9035
678.5441, 946.2651
679.0262, 943.6333
679.5083, 947.2657
679.9904, 952.3486
680.4725, 956.4097
680.9547, 958.8851
681.4368, 958.3979
681.9189, 954.5795
682.4010, 949.8244
682.8831, 944.5781
683.3652, 939.8033
683.8474, 936.5413
684.3295, 935.3054
684.8116, 935.1454
685.2937, 936.1329
685.7758, 938.0342
686.2579, 940.8749
686.7401, 945.6003
687.2222, 948.0164
687.7043, 945.2267
688.1864, 941.7158
688.6685, 952.4746
689.1506, 976.2240
689.6328, 992.1519
690.1149, 985.1901
690.5970, 968.8491
691.0791, 962.9324
691.5612, 965.9683
692.0433, 970.5123
692.5255, 974.0159
693.0076, 976.6155
693.4897, 978.3616
693.9718, 979.2451
694.4539, 979.4231
694.9360, 977.2392
695.4182, 975.9218
695.9003, 977.4950
696.3824, 982.8303
696.8645, 987.6093
697.3466, 992.2630
697.8287, 995.2280
698.3109, 992.9583
698.7930, 986.8861
699.2751, 985.0700
699.7572, 989.6114
700.2393, 996.0968
700.7214, 1001.368
701.2036, 1005.126
701.6857, 1006.842
702.1678, 1004.807
702.6499, 1002.475
703.1320, 1000.472
703.6141, 999.1317
704.0963, 999.3865
704.5784, 1002.650
705.0605, 1005.246
705.5426, 1005.822
706.0247, 1005.182
706.5068, 1007.168
706.9890, 1012.068
707.4711, 1017.247
707.9532, 1022.027
708.4353, 1025.921
708.9174, 1027.368
709.3995, 1026.491
709.8817, 1024.317
710.3638, 1019.367
710.8459, 1014.864
711.3280, 1014.467
711.8101, 1019.117
712.2922, 1022.536
712.7744, 1022.408
713.2565, 1020.843
713.7386, 1019.130
714.2207, 1016.568
714.7028, 1015.805
715.1849, 1017.290
715.6671, 1019.785
716.1492, 1021.196
716.6313, 1021.839
717.1134, 1026.483
717.5955, 1037.019
718.0776, 1048.142
718.5598, 1053.530
719.0419, 1054.644
719.5240, 1054.190
720.0061, 1050.573
720.4882, 1048.736
720.9703, 1053.183
721.4525, 1060.910
721.9346, 1065.045
722.4167, 1059.240
722.8988, 1057.099
723.3809, 1062.757
723.8630, 1073.801
724.3452, 1081.000
724.8273, 1084.309
725.3094, 1083.828
725.7915, 1076.027
726.2736, 1065.711
726.7557, 1067.952
727.2379, 1081.091
727.7200, 1092.075
728.2021, 1089.235
728.6842, 1082.935
729.1663, 1081.477
729.6484, 1085.676
730.1306, 1091.255
730.6127, 1099.604
731.0948, 1106.799
731.5769, 1110.472
732.0590, 1109.535
732.5411, 1109.778
733.0233, 1111.448
733.5054, 1113.748
733.9875, 1116.245
734.4696, 1118.842
734.9517, 1120.745
735.4338, 1121.882
735.9160, 1122.313
736.3981, 1120.583
736.8802, 1118.663
737.3623, 1119.350
737.8444, 1123.126
738.3266, 1130.149
738.8087, 1144.132
739.2908, 1160.252
739.7729, 1171.354
740.2551, 1176.549
740.7372, 1177.694
741.2193, 1172.564
741.7014, 1165.528
742.1835, 1167.215
742.6656, 1177.734
743.1478, 1186.163
743.6299, 1187.826
744.1120, 1187.053
744.5941, 1190.863
745.0762, 1198.028
745.5583, 1204.869
746.0405, 1207.884
746.5226, 1211.576
747.0047, 1220.158
747.4868, 1232.318
747.9689, 1240.101
748.4510, 1241.689
748.9332, 1239.619
749.4153, 1231.774
749.8974, 1219.536
750.3795, 1220.182
750.8616, 1234.967
751.3438, 1252.625
751.8259, 1269.111
752.3080, 1282.571
752.7901, 1286.895
753.2722, 1282.406
753.7543, 1278.154
754.2365, 1280.469
754.7186, 1285.315
755.2007, 1289.090
755.6828, 1290.791
756.1649, 1295.247
756.6470, 1306.566
757.1292, 1318.014
757.6113, 1325.552
758.0934, 1328.444
758.5755, 1330.232
759.0576, 1330.372
759.5397, 1331.299
760.0219, 1334.697
760.5040, 1340.942
760.9861, 1352.585
761.4682, 1371.157
761.9503, 1388.180
762.4324, 1394.912
762.9146, 1397.262
763.3967, 1402.399
763.8788, 1415.273
764.3609, 1425.692
764.8430, 1428.430
765.3251, 1429.859
765.8073, 1437.445
766.2894, 1452.391
766.7715, 1469.344
767.2536, 1488.957
767.7357, 1507.471
768.2178, 1515.077
768.7000, 1515.202
769.1821, 1522.306
769.6642, 1543.967
770.1463, 1569.627
770.6284, 1592.185
771.1105, 1611.921
771.5927, 1629.379
772.0748, 1640.966
772.5569, 1654.715
773.0390, 1672.742
773.5211, 1694.039
774.0032, 1716.142
774.4854, 1739.007
774.9675, 1762.871
775.4496, 1787.934
775.9317, 1813.926
776.4138, 1839.394
776.8959, 1864.696
777.3781, 1892.977
777.8602, 1931.479
778.3423, 1969.063
778.8244, 1996.133
779.3065, 2014.274
779.7886, 2030.651
780.2708, 2047.818
780.7529, 2062.880
781.2350, 2072.274
781.7171, 2077.627
782.1992, 2097.185
782.6813, 2135.541
783.1635, 2169.086
783.6456, 2182.838
784.1277, 2182.840
784.6098, 2190.271
785.0919, 2204.166
785.5740, 2215.251
786.0562, 2214.928
786.5383, 2211.255
787.0204, 2209.501
787.5025, 2210.117
787.9846, 2215.489
788.4667, 2234.379
788.9489, 2250.000
789.4310, 2252.376
789.9131, 2240.001
790.3952, 2245.075
790.8773, 2271.155
791.3594, 2297.895
791.8416, 2308.513
792.3237, 2308.137
792.8058, 2310.523
793.2879, 2316.309
793.7700, 2320.585
794.2521, 2320.961
794.7343, 2317.717
795.2164, 2308.570
795.6985, 2289.584
796.1806, 2282.393
796.6627, 2296.175
797.1448, 2314.029
797.6270, 2324.558
798.1091, 2326.255
798.5912, 2334.707
799.0733, 2351.858
799.5554, 2366.194
800.0375, 2363.854
800.5197, 2351.433
801.0018, 2338.188
801.4839, 2323.974
801.9660, 2322.080
802.4481, 2351.518
802.9302, 2390.025
803.4124, 2418.161
803.8945, 2425.018
804.3766, 2441.064
804.8587, 2474.036
805.3408, 2505.958
805.8229, 2515.598
806.3051, 2503.187
806.7872, 2506.204
807.2693, 2528.843
807.7514, 2561.155
808.2335, 2598.386
808.7156, 2636.906
809.1978, 2670.473
809.6799, 2695.965
810.1620, 2722.660
810.6441, 2752.323
811.1262, 2786.402
811.6083, 2826.662
812.0905, 2879.104
812.5726, 2922.666
813.0547, 2951.739
813.5368, 2981.097
814.0189, 3029.027
814.5010, 3093.137
814.9832, 3161.377
815.4653, 3232.951
815.9474, 3300.922
816.4295, 3354.665
816.9116, 3403.442
817.3937, 3458.465
817.8759, 3519.950
818.3580, 3591.910
818.8401, 3687.175
819.3222, 3784.621
819.8043, 3863.050
820.2864, 3916.605
820.7686, 3980.273
821.2507, 4059.710
821.7328, 4140.348
822.2149, 4200.184
822.6970, 4245.338
823.1791, 4292.847
823.6613, 4347.668
824.1434, 4399.846
824.6255, 4446.166
825.1076, 4484.217
825.5897, 4510.534
826.0718, 4505.365
826.5540, 4516.911
827.0361, 4550.343
827.5182, 4594.855
828.0003, 4639.919
828.4824, 4685.155
828.9645, 4727.799
829.4467, 4765.924
829.9288, 4806.685
830.4109, 4851.728
830.8930, 4906.616
831.3751, 4983.346
831.8572, 5095.582
832.3394, 5203.994
832.8215, 5285.303
833.3036, 5362.284
833.7857, 5462.327
834.2678, 5595.312
834.7499, 5716.610
835.2321, 5817.875
835.7142, 5918.496
836.1963, 6045.631
836.6784, 6193.693
837.1605, 6336.562
837.6426, 6465.381
838.1248, 6600.683
838.6069, 6765.278
839.0890, 6941.681
839.5711, 7106.541
840.0532, 7229.753
840.5353, 7389.968
841.0175, 7603.074
841.4996, 7842.143
841.9817, 8074.222
842.4638, 8298.848
842.9459, 8554.378
843.4280, 8847.570
843.9102, 9155.427
844.3923, 9442.475
844.8744, 9731.853
845.3565, 10053.40
845.8386, 10411.73
846.3207, 10814.63
846.8029, 11269.78
847.2850, 11769.41
847.7671, 12304.34
848.2492, 12868.17
848.7313, 13484.10
849.2134, 14152.14
849.6956, 14861.39
850.1777, 15592.95
850.6598, 16360.72
851.1419, 17218.10
851.6240, 18177.90
852.1061, 19195.28
852.5883, 20251.62
853.0704, 21350.63
853.5525, 22515.20
854.0346, 23749.26
854.5167, 25011.85
854.9988, 26293.41
855.4810, 27608.67
855.9631, 29006.21
856.4452, 30493.96
856.9273, 31921.79
857.4094, 33287.51
857.8915, 34514.30
858.3737, 35600.37
858.8558, 36455.26
859.3379, 36945.09
859.8200, 37042.58
860.3021, 36883.32
860.7842, 36617.62
861.2664, 36000.53
861.7485, 34923.80
862.2306, 33361.61
862.7127, 31416.02
863.1948, 28971.73
863.6769, 26583.47
864.1591, 24578.52
864.6412, 22920.61
865.1233, 21515.18
865.6054, 20333.97
866.0875, 19229.69
866.5696, 18048.16
867.0518, 16951.43
867.5339, 16047.64
868.0160, 15345.18
868.4981, 14737.99
868.9802, 14238.30
869.4623, 13800.65
869.9445, 13410.97
870.4266, 13069.32
870.9087, 12782.62
871.3908, 12545.75
871.8729, 12341.93
872.3550, 12170.73
872.8372, 12016.18
873.3193, 11867.60
873.8014, 11723.54
874.2835, 11586.03
874.7656, 11485.11
875.2477, 11352.59
875.7299, 11157.66
876.2120, 10921.45
876.6941, 10731.70
877.1762, 10589.06
877.6583, 10411.69
878.1404, 10149.54
878.6226, 9851.424
879.1047, 9568.902
879.5869, 9303.564
880.0690, 9052.520
880.5511, 8822.365
881.0332, 8598.298
881.5153, 8372.379
881.9974, 8151.208
882.4796, 7940.639
882.9617, 7737.257
883.4438, 7563.481
883.9259, 7426.912
884.4080, 7321.231
884.8901, 7234.068
885.3723, 7171.063
885.8544, 7146.072
886.3365, 7171.530
886.8186, 7223.986
887.3007, 7293.996
887.7828, 7385.277
888.2650, 7501.161
888.7471, 7638.761
889.2292, 7801.107
889.7113, 7983.524
890.1934, 8203.072
890.6755, 8493.698
891.1577, 8841.328
891.6398, 9208.549
892.1219, 9581.137
892.6040, 9993.719
893.0861, 10462.76
893.5682, 10981.77
894.0504, 11547.97
894.5325, 12170.26
895.0146, 12812.30
895.4967, 13469.29
895.9788, 14152.52
896.4609, 14862.23
896.9431, 15600.15
897.4252, 16383.41
897.9073, 17213.56
898.3894, 17996.78
898.8715, 18713.33
899.3536, 19333.76
899.8358, 19863.54
900.3179, 20304.84
900.8000, 20542.56
901.2821, 20576.43
901.7642, 20406.96
902.2463, 20001.82
902.7285, 19388.19
903.2106, 18706.60
903.6927, 17959.28
904.1748, 17146.50
904.6569, 16211.76
905.1390, 15243.41
905.6212, 14301.63
906.1033, 13404.18
906.5854, 12559.84
907.0675, 11774.62
907.5496, 11056.27
908.0317, 10414.26
908.5139, 9839.166
908.9960, 9288.114
909.4781, 8763.397
909.9602, 8290.525
910.4423, 7887.942
910.9244, 7535.027
911.4066, 7220.455
911.8887, 6938.146
912.3708, 6672.461
912.8529, 6410.957
913.3350, 6179.339
913.8171, 5991.258
914.2993, 5829.208
914.7814, 5672.060
915.2635, 5519.158
915.7456, 5379.132
916.2277, 5252.539
916.7098, 5141.538
917.1920, 5054.994
917.6741, 4984.459
918.1562, 4919.273
918.6383, 4859.689
919.1204, 4798.790
919.6025, 4720.080
920.0847, 4651.754
920.5668, 4617.750
921.0489, 4625.722
921.5310, 4609.594
922.0131, 4566.893
922.4952, 4521.543
922.9774, 4492.949
923.4595, 4474.085
923.9416, 4457.867
924.4237, 4443.117
924.9058, 4420.917
925.3879, 4385.126
925.8701, 4343.396
926.3522, 4301.940
926.8343, 4258.465
927.3164, 4192.792
927.7985, 4102.191
928.2806, 4011.818
928.7628, 3934.760
929.2449, 3864.317
929.7270, 3791.723
930.2091, 3716.733
930.6912, 3636.555
931.1733, 3543.709
931.6555, 3453.990
932.1376, 3374.270
932.6197, 3300.271
933.1018, 3225.018
933.5839, 3147.205
934.0660, 3073.840
934.5482, 3006.123
935.0303, 2941.261
935.5124, 2873.912
935.9945, 2805.999
936.4766, 2741.445
936.9587, 2679.921
937.4409, 2622.313
937.9230, 2565.995
938.4051, 2515.470
938.8872, 2475.355
939.3693, 2447.516
939.8514, 2418.525
940.3336, 2389.241
940.8157, 2354.033
941.2978, 2300.356
941.7799, 2241.395
942.2620, 2197.465
942.7441, 2169.215
943.2263, 2141.393
943.7084, 2107.164
944.1905, 2074.123
944.6726, 2045.190
945.1547, 2020.033
945.6368, 1998.279
946.1190, 1980.199
946.6011, 1957.648
947.0832, 1924.689
947.5653, 1887.748
948.0474, 1852.233
948.5295, 1819.299
949.0117, 1791.637
949.4938, 1773.450
949.9759, 1756.559
950.4580, 1738.220
950.9401, 1720.981
951.4222, 1712.188
951.9044, 1712.169
952.3865, 1696.541
952.8686, 1657.838
953.3507, 1620.170
953.8328, 1614.970
954.3149, 1623.382
954.7971, 1620.888
955.2792, 1599.519
955.7613, 1580.445
956.2434, 1568.988
956.7255, 1558.193
957.2076, 1543.504
957.6898, 1525.022
958.1719, 1508.682
958.6540, 1494.342
959.1361, 1481.094
959.6182, 1467.174
960.1003, 1454.763
960.5825, 1446.317
961.0646, 1441.332
961.5467, 1436.644
962.0288, 1434.816
962.5109, 1428.020
962.9930, 1412.396
963.4752, 1392.583
963.9573, 1379.925
964.4394, 1373.934
964.9215, 1371.636
965.4036, 1374.693
965.8857, 1375.743
966.3679, 1366.491
966.8500, 1352.696
967.3321, 1341.710
967.8142, 1333.819
968.2963, 1331.321
968.7784, 1337.200
969.2606, 1342.516
969.7427, 1336.126
970.2248, 1321.513
970.7069, 1311.849
971.1890, 1308.107
971.6711, 1303.882
972.1533, 1292.216
972.6354, 1281.030
973.1175, 1277.882
973.5996, 1282.558
974.0817, 1279.234
974.5638, 1265.592
975.0460, 1252.097
975.5281, 1242.654
976.0102, 1236.368
976.4923, 1232.424
976.9744, 1230.012
977.4565, 1226.762
977.9387, 1220.731
978.4208, 1214.746
978.9029, 1209.084
979.3850, 1204.420
979.8671, 1201.791
980.3492, 1201.483
980.8314, 1202.570
981.3135, 1205.860
981.7956, 1206.389
982.2777, 1194.987
982.7598, 1179.031
983.2419, 1169.386
983.7241, 1168.258
984.2062, 1168.262
984.6883, 1167.667
985.1704, 1167.316
985.6525, 1167.598
986.1346, 1168.475
986.6168, 1170.604
987.0989, 1173.842
987.5810, 1173.704
988.0631, 1166.706
988.5452, 1155.877
989.0273, 1139.776
989.5095, 1122.302
989.9916, 1113.898
990.4737, 1126.042
990.9558, 1132.376
991.4379, 1128.786
991.9200, 1119.625
992.4022, 1108.254
992.8843, 1096.674
993.3664, 1095.026
993.8485, 1106.884
994.3306, 1117.935
994.8127, 1120.794
995.2949, 1116.772
995.7770, 1103.754
996.2591, 1079.106
996.7412, 1068.652
997.2233, 1076.010
997.7054, 1084.674
998.1876, 1083.290
998.6697, 1076.745
999.1518, 1076.833
999.6339, 1081.765
1000.116, 1084.369
1000.598, 1078.034
1001.080, 1072.815
1001.562, 1074.102
1002.044, 1077.780
1002.527, 1075.542
1003.009, 1066.801
1003.491, 1061.161
1003.973, 1060.903
1004.455, 1062.198
1004.937, 1061.773
1005.419, 1059.963
1005.901, 1056.139
1006.384, 1048.352
1006.866, 1046.873
1007.348, 1054.475
1007.830, 1065.795
1008.312, 1081.236
1008.794, 1098.235
1009.276, 1098.419
1009.758, 1083.728
1010.240, 1070.480
1010.723, 1071.407
1011.205, 1073.612
1011.687, 1066.250
1012.169, 1054.225
1012.651, 1051.260
1013.133, 1061.024
1013.615, 1069.807
1014.097, 1075.651
1014.580, 1079.712
1015.062, 1082.684
1015.544, 1085.220
1016.026, 1089.302
1016.508, 1096.000
1016.990, 1099.765
1017.472, 1090.813
1017.954, 1085.757
1018.436, 1097.458
1018.919, 1124.429
1019.401, 1132.597
1019.883, 1121.911
1020.365, 1112.114
1020.847, 1117.586
1021.329, 1126.885
1021.811, 1128.445
1022.293, 1124.875
1022.776, 1122.608
1023.258, 1121.643
1023.740, 1124.482
1024.222, 1132.629
1024.704, 1142.594
1025.186, 1150.109
1025.668, 1155.385
1026.150, 1158.879
1026.632, 1160.677
1027.115, 1160.782
1027.597, 1158.312
1028.079, 1154.833
1028.561, 1149.538
1029.043, 1142.799
1029.525, 1146.956
1030.007, 1163.637
1030.489, 1177.401
1030.972, 1182.246
1031.454, 1178.965
1031.936, 1163.840
1032.418, 1142.079
1032.900, 1125.087
1033.382, 1119.630
1033.864, 1114.816
1034.346, 1110.638
1034.828, 1105.106
1035.311, 1094.344
1035.793, 1079.613
1036.275, 1070.871
1036.757, 1068.873
1037.239, 1066.815
1037.721, 1058.421
1038.203, 1049.463
1038.685, 1044.493
1039.167, 1043.203
1039.650, 1040.628
1040.132, 1036.567
1040.614, 1032.053
1041.096, 1027.133
1041.578, 1022.622
1042.060, 1022.347
1042.542, 1022.979
1043.024, 1017.400
1043.507, 996.2994
1043.989, 983.8246
1044.471, 989.9718
1044.953, 999.1563
1045.435, 999.0812
1045.917, 990.4990
1046.399, 982.4736
1046.881, 975.2535
1047.364, 969.5972
1047.846, 969.0647
1048.328, 967.4579
1048.810, 958.0670
1049.292, 943.5836
1049.774, 935.5658
1050.256, 934.6201
1050.738, 939.4230
1051.220, 951.8203
1051.703, 964.1350
1052.185, 963.0838
1052.667, 954.7932
1053.149, 949.4329
1053.631, 949.3954
1054.113, 950.4590
1054.595, 951.8345
1055.077, 953.7795
1055.559, 957.4284
1056.042, 961.9329
1056.524, 961.4136
1057.006, 956.1581
1057.488, 948.5203
1057.970, 938.7323
1058.452, 928.0427
1058.934, 913.2437
1059.416, 899.3018
1059.899, 896.0400
1060.381, 907.1835
1060.863, 915.5140
1061.345, 919.1472
1061.827, 922.0761
1062.309, 931.6509
1062.791, 941.6736
1063.273, 941.0366
1063.755, 929.1264
1064.238, 919.3257
1064.720, 917.6978
1065.202, 915.0658
1065.684, 906.5297
1066.166, 896.8510
1066.648, 905.2733
1067.130, 926.2375
1067.612, 932.5044
1068.094, 906.9163
1068.577, 885.1826
1069.059, 894.2780
1069.541, 913.9500
1070.023, 924.4999
1070.505, 924.2702
1070.987, 922.4654
1071.469, 918.9500
1071.951, 915.0004
1072.434, 910.2111
1072.916, 906.3701
1073.398, 906.3533
1073.880, 909.1633
1074.362, 911.2652
1074.844, 912.5896
1075.326, 911.8453
1075.808, 908.1107
1076.291, 903.5728
1076.773, 900.3198
1077.255, 898.8293
1077.737, 901.9787
1078.219, 910.4885
1078.701, 916.2096
1079.183, 913.5534
1079.665, 908.1666
1080.147, 901.9229
1080.630, 895.5142
1081.112, 893.3521
1081.594, 895.3201
1082.076, 898.1347
1082.558, 901.7511
1083.040, 903.4587
1083.522, 899.2070
1084.004, 892.2984
1084.486, 887.3858
1084.969, 886.5486
1085.451, 882.0891
1085.933, 872.4090
1086.415, 865.2626
1086.897, 868.8513
1087.379, 877.8184
1087.861, 883.9554
1088.343, 887.1484
1088.826, 887.9097
1089.308, 883.1888
1089.790, 880.4227
1090.272, 881.5570
1090.754, 884.4346
1091.236, 886.3004
1091.718, 887.0309
1092.200, 885.2662
1092.682, 880.5429
1093.165, 877.3202
1093.647, 880.6218
1094.129, 884.2845
1094.611, 884.0429
1095.093, 880.5370
1095.575, 878.3662
1096.057, 877.5668
1096.539, 877.4542
1097.022, 878.7186
1097.504, 878.7039
1097.986, 871.9208
1098.468, 863.3094
1098.950, 860.4498
1099.432, 869.1115
1099.914, 869.3834
1100.396, 857.9179
1100.879, 848.8974
1101.361, 857.5718
1101.843, 873.4605
1102.325, 873.2080
1102.807, 861.4280
1103.289, 856.0075
1103.771, 875.5880
1104.253, 885.0200
1104.735, 874.1011
1105.218, 856.5034
1105.700, 851.5344
1106.182, 856.8419
1106.664, 862.3622
1107.146, 867.0688
1107.628, 869.5408
1108.110, 868.3406
1108.592, 865.2016
1109.074, 859.7650
1109.557, 853.2858
1110.039, 851.2140
1110.521, 853.5826
1111.003, 856.9878
1111.485, 860.9073
1111.967, 864.0086
1112.449, 865.3429
1112.931, 864.9125
1113.414, 861.8961
1113.896, 855.0475
1114.378, 852.8471
1114.860, 856.3157
1115.342, 859.9704
1115.824, 860.3856
1116.306, 859.4072
1116.788, 860.6243
1117.271, 862.6801
1117.753, 862.5485
1118.235, 855.0027
1118.717, 851.9933
1119.199, 855.7296
1119.681, 861.2111
1120.163, 864.2786
1120.645, 864.9962
1121.127, 862.2047
1121.609, 856.4485
1122.092, 852.8691
1122.574, 856.1736
1123.056, 859.6250
1123.538, 861.3824
1124.020, 861.6309
1124.502, 860.2065
1124.984, 857.3651
1125.466, 855.2502
1125.949, 854.2926
1126.431, 853.9639
1126.913, 856.2716
1127.395, 856.9956
1127.877, 850.5253
1128.359, 838.6119
1128.841, 837.7992
1129.323, 848.9512
1129.806, 854.7755
1130.288, 845.5447
1130.770, 835.8889
1131.252, 844.4806
1131.734, 859.8076
1132.216, 866.2187
1132.698, 859.1622
1133.180, 853.4462
1133.662, 849.0674
1134.145, 846.2065
1134.627, 845.3530
1135.109, 845.8051
1135.591, 846.0885
1136.073, 846.7979
1136.555, 849.4276
1137.037, 860.1779
1137.519, 862.7692
1138.001, 852.1873
1138.484, 841.9510
1138.966, 849.2875
1139.448, 867.0693
1139.930, 878.9686
1140.412, 884.2581
1140.894, 884.9844
1141.376, 880.3388
1141.858, 872.7881
1142.341, 860.3847
1142.823, 848.3482
1143.305, 847.0681
1143.787, 854.7106
1144.269, 865.2002
1144.751, 878.4702
1145.233, 883.7006
1145.715, 864.3311
1146.198, 845.7864
1146.680, 843.1215
1147.162, 852.5809
1147.644, 856.9861
1148.126, 856.6324
1148.608, 855.2720
1149.090, 853.7674
1149.572, 852.4789
1150.054, 851.6814
1150.536, 851.2185
1151.019, 850.2700
1151.501, 848.4410
1151.983, 853.5607
1152.465, 866.1339
1152.947, 873.6722
1153.429, 864.3401
1153.911, 852.7085
1154.393, 856.6127
1154.876, 866.6641
1155.358, 864.8886
1155.840, 842.5883
1156.322, 833.0084
1156.804, 838.1918
1157.286, 848.1843
1157.768, 860.4296
1158.250, 869.0489
1158.733, 861.6458
1159.215, 843.4540
1159.697, 835.1055
1160.179, 845.3649
1160.661, 852.6584
1161.143, 854.0942
1161.625, 853.2577
1162.107, 853.9859
1162.589, 855.4588
1163.072, 856.0781
1163.554, 855.8187
1164.036, 856.2994
1164.518, 857.0176
1165.000, 860.4490
1165.482, 868.7349
1165.964, 877.5824
1166.446, 878.3186
1166.928, 873.7153
1167.411, 869.8676
1167.893, 868.0204
1168.375, 866.0107
1168.857, 862.7370
1169.339, 859.6179
1169.821, 857.1543
1170.303, 855.2814
1170.785, 851.5441
1171.268, 848.0973
1171.750, 853.5350
1172.232, 876.6792
1172.714, 892.8242
1173.196, 887.1171
1173.678, 875.4666
1174.160, 864.8839
1174.642, 856.2159
1175.125, 858.5482
1175.607, 869.8854
1176.089, 879.2172
1176.571, 883.4533
1177.053, 881.8361
1177.535, 866.3375
1178.017, 850.6354
1178.499, 849.3245
1178.981, 862.1548
1179.464, 866.9119
1179.946, 863.8152
1180.428, 860.7374
1180.910, 863.0045
1181.392, 866.2155
1181.874, 868.9302
1182.356, 870.6483
1182.838, 870.5424
1183.320, 868.5645
1183.803, 865.4099
1184.285, 861.0400
1184.767, 858.7186
1185.249, 863.8015
1185.731, 868.9686
1186.213, 867.9724
1186.695, 863.1656
1187.177, 861.4860
1187.660, 863.1409
1188.142, 864.3842
1188.624, 864.3511
1189.106, 865.8699
1189.588, 877.4009
1190.070, 886.5969
1190.552, 879.4284
1191.034, 858.8544
1191.516, 848.3034
1191.999, 848.4974
1192.481, 852.1234
1192.963, 857.8261
1193.445, 864.3878
1193.927, 873.5031
1194.409, 880.8882
1194.891, 880.2944
1195.373, 871.2377
1195.855, 868.0502
1196.338, 871.0934
1196.820, 877.6207
1197.302, 890.0556
1197.784, 898.1517
1198.266, 883.7010
1198.748, 861.8743
1199.230, 852.8412
1199.712, 860.9861
1200.195, 866.8574
1200.677, 870.5908
1201.159, 870.8212
1201.641, 863.8325
1202.123, 856.6986
1202.605, 859.7867
1203.087, 867.5165
1203.569, 869.9203
1204.052, 860.9202
1204.534, 864.5764
1205.016, 883.9028
1205.498, 897.9852
1205.980, 884.4219
1206.462, 864.3824
1206.944, 863.7118
1207.426, 875.3167
1207.908, 883.2232
1208.391, 887.4775
1208.873, 881.7202
1209.355, 863.3024
1209.837, 847.4213
1210.319, 849.6319
1210.801, 859.4146
1211.283, 865.9339
1211.765, 869.7412
1212.247, 874.2072
1212.730, 880.6281
1213.212, 884.7209
1213.694, 886.0399
1214.176, 884.8815
1214.658, 878.3197
1215.140, 871.7553
1215.622, 873.4700
1216.104, 881.7244
1216.587, 883.7211
1217.069, 876.0585
1217.551, 871.5668
1218.033, 872.4680
1218.515, 876.3595
1218.997, 883.4359
1219.479, 890.0800
1219.961, 891.4189
1220.443, 887.4404
1220.926, 884.0701
1221.408, 880.5504
1221.890, 882.8190
1222.372, 894.1935
1222.854, 904.9804
1223.336, 901.8897
1223.818, 892.7783
1224.300, 884.5665
1224.782, 878.3716
1225.265, 883.3618
1225.747, 903.7856
1226.229, 913.6868
1226.711, 902.1367
1227.193, 885.1162
1227.675, 878.4311
1228.157, 879.4366
1228.639, 888.0544
1229.122, 905.5374
1229.604, 909.7424
1230.086, 898.6806
1230.568, 887.8246
1231.050, 883.4965
1231.532, 881.1437
1232.014, 871.6185
1232.496, 863.2202
1232.979, 868.9620
1233.461, 892.0664
1233.943, 903.9415
1234.425, 903.7316
1234.907, 899.6931
1235.389, 893.8842
1235.871, 888.8168
1236.353, 886.7338
1236.835, 886.8950
1237.318, 888.4386
1237.800, 891.1644
1238.282, 897.3740
1238.764, 907.5282
1239.246, 910.3754
1239.728, 891.9389
1240.210, 873.3808
1240.692, 876.4630
1241.175, 888.3528
1241.657, 890.6179
1242.139, 880.3435
1242.621, 878.2783
1243.103, 884.4804
1243.585, 890.4652
1244.067, 890.2604
1244.549, 888.9540
1245.031, 888.9365
1245.514, 890.6135
1245.996, 894.8939
1246.478, 902.3002
1246.960, 906.7770
1247.442, 908.2209
1247.924, 906.1360
1248.406, 893.8719
1248.888, 885.0099
1249.370, 891.3900
1249.853, 903.1541
1250.335, 907.4631
1250.817, 904.5217
1251.299, 901.1310
1251.781, 897.6464
1252.263, 894.5862
1252.745, 890.8097
1253.227, 889.3189
1253.710, 892.6923
1254.192, 898.0693
1254.674, 901.9716
1255.156, 904.6833
1255.638, 909.1375
1256.120, 915.1361
1256.602, 918.4157
1257.084, 912.9918
1257.567, 909.2179
1258.049, 911.4651
1258.531, 915.5428
1259.013, 915.4221
1259.495, 912.1879
1259.977, 909.6932
1260.459, 908.1863
1260.941, 906.7230
1261.423, 908.0012
1261.906, 903.9257
1262.388, 889.0849
1262.870, 874.3405
1263.352, 878.8814
1263.834, 894.6109
1264.316, 904.1152
1264.798, 905.7685
1265.280, 902.1810
1265.762, 886.2672
1266.245, 878.6857
1266.727, 885.0261
1267.209, 896.4616
1267.691, 902.0559
1268.173, 903.9314
1268.655, 905.2507
1269.137, 906.3644
1269.619, 907.3228
1270.102, 908.5948
1270.584, 907.9766
1271.066, 903.9679
1271.548, 901.4910
1272.030, 910.6730
1272.512, 922.3179
1272.994, 924.0407
1273.476, 915.6168
1273.958, 912.5112
1274.441, 917.1695
1274.923, 916.1430
1275.405, 904.9351
1275.887, 894.5143
1276.369, 897.2969
1276.851, 905.6035
1277.333, 914.2469
1277.815, 921.9861
1278.297, 923.9634
1278.780, 919.9001
1279.262, 914.9405
1279.744, 909.5974
1280.226, 907.8006
1280.708, 917.9080
1281.190, 927.9544
1281.672, 928.6240
1282.154, 922.2966
1282.637, 915.6659
1283.119, 909.1831
1283.601, 908.1594
1284.083, 914.4700
1284.565, 920.3785
1285.047, 921.3036
1285.529, 920.3093
1286.011, 918.4652
1286.494, 916.3781
1286.976, 915.6314
1287.458, 916.1597
1287.940, 917.6591
1288.422, 919.9822
1288.904, 924.0826
1289.386, 935.1653
1289.868, 941.0826
1290.350, 936.5402
1290.833, 926.3426
1291.315, 919.6987
1291.797, 914.7206
1292.279, 905.1764
1292.761, 887.9354
1293.243, 886.9542
1293.725, 912.7675
1294.207, 931.0355
1294.689, 928.3446
1295.172, 918.3292
1295.654, 920.4518
1296.136, 927.7410
1296.618, 929.4985
1297.100, 923.5275
1297.582, 930.1706
1298.064, 953.5878
1298.546, 961.6227
1299.029, 940.0387
1299.511, 913.2913
1299.993, 904.8958
1300.475, 905.6750
1300.957, 908.9199
1301.439, 913.4711
1301.921, 914.3360
1302.403, 911.8038
1302.885, 914.9303
1303.368, 927.8428
1303.850, 939.7680
1304.332, 942.0661
1304.814, 941.7920
1305.296, 943.9456
1305.778, 947.1046
1306.260, 945.1736
1306.742, 939.6477
1307.224, 936.4526
1307.707, 937.2084
1308.189, 939.4915
1308.671, 945.1140
1309.153, 948.2322
1309.635, 946.2944
1310.117, 941.0645
1310.599, 933.8007
1311.081, 926.8624
1311.564, 926.1326
1312.046, 933.7849
1312.528, 938.6476
1313.010, 938.8017
1313.492, 938.8837
1313.974, 940.9309
1314.456, 942.3681
1314.938, 936.6299
##END=



