##NAMES=Leifite
##RRUFFID=R060219
##IDEAL CHEMISTRY=Na_7_Be_2_(Si_15_Al_3_)O_39_(F,OH)_2_
##LOCALITY=Mont Saint-Hilaire, Rouville County, Quebec, Canada
##OWNER=RRUFF
##SOURCE=Royal Ontario Museum
##DESCRIPTION=Colorless hexagonal prism
##STATUS=The identification of this mineral has been confirmed by X-ray diffraction.
##URL=rruff.info/R060219
91.82715, 264.0449
92.30927, 262.8899
92.79138, 263.3521
93.27350, 263.1352
93.75562, 261.7827
94.23773, 259.4481
94.71985, 256.7299
95.20197, 254.4868
95.68408, 253.3569
96.16620, 252.7568
96.64832, 252.3029
97.13043, 251.9717
97.61255, 251.9069
98.09467, 252.2921
98.57678, 253.1769
99.05890, 253.7984
99.54102, 255.0330
100.0231, 256.4950
100.5052, 257.6620
100.9874, 258.2186
101.4695, 258.2919
101.9516, 258.6519
102.4337, 260.4347
102.9158, 261.3043
103.3979, 260.6250
103.8801, 258.7321
104.3622, 256.2805
104.8443, 253.7688
105.3264, 251.1724
105.8085, 248.3233
106.2906, 245.2256
106.7728, 241.8592
107.2549, 238.0800
107.7370, 233.9210
108.2191, 229.7016
108.7012, 225.8339
109.1833, 222.3359
109.6655, 218.6990
110.1476, 214.6758
110.6297, 210.5198
111.1118, 206.5579
111.5939, 202.8682
112.0760, 199.4478
112.5582, 196.2587
113.0403, 193.3005
113.5224, 190.5435
114.0045, 188.0827
114.4866, 185.8919
114.9688, 183.6416
115.4509, 180.6507
115.9330, 178.0813
116.4151, 176.7234
116.8972, 176.6865
117.3793, 177.3387
117.8615, 177.8582
118.3436, 178.0747
118.8257, 178.5905
119.3078, 179.4673
119.7899, 180.6100
120.2720, 182.1064
120.7542, 183.9760
121.2363, 185.9377
121.7184, 187.2057
122.2005, 188.4969
122.6826, 188.0565
123.1647, 185.2408
123.6468, 180.6932
124.1290, 175.2034
124.6111, 169.0880
125.0932, 162.4545
125.5753, 156.2191
126.0574, 150.2290
126.5395, 144.6386
127.0217, 139.5672
127.5038, 134.9705
127.9859, 130.6636
128.4680, 126.3824
128.9501, 122.3152
129.4323, 119.0648
129.9144, 117.0550
130.3965, 115.6356
130.8786, 114.1002
131.3607, 112.3588
131.8428, 110.8282
132.3250, 109.9709
132.8071, 109.5368
133.2892, 109.1543
133.7713, 108.6308
134.2534, 108.0312
134.7355, 107.5787
135.2177, 107.3384
135.6998, 107.1743
136.1819, 106.9447
136.6640, 106.7132
137.1461, 106.6402
137.6282, 106.8988
138.1104, 107.5245
138.5925, 108.0857
139.0746, 108.6080
139.5567, 109.0401
140.0388, 109.1316
140.5209, 109.0142
141.0031, 109.1565
141.4852, 110.1823
141.9673, 112.5984
142.4494, 114.6086
142.9315, 115.9226
143.4136, 117.1052
143.8958, 118.5196
144.3779, 120.2531
144.8600, 122.1947
145.3421, 124.1729
145.8242, 126.1921
146.3063, 128.2513
146.7885, 130.5647
147.2706, 132.8584
147.7527, 134.7912
148.2348, 136.2343
148.7169, 137.3182
149.1990, 138.2282
149.6812, 138.8829
150.1633, 139.6731
150.6454, 140.8743
151.1275, 142.3542
151.6096, 143.6322
152.0917, 144.3655
152.5739, 144.9878
153.0560, 146.1698
153.5381, 148.0387
154.0202, 150.0462
154.5023, 151.7947
154.9844, 153.2741
155.4665, 154.5863
155.9487, 155.4237
156.4308, 156.2740
156.9129, 157.5753
157.3950, 159.4717
157.8771, 161.6478
158.3592, 163.6469
158.8414, 165.3711
159.3235, 167.1482
159.8056, 169.0217
160.2877, 170.9886
160.7698, 173.1528
161.2519, 175.5771
161.7341, 178.0529
162.2162, 179.9057
162.6983, 180.3880
163.1804, 181.2411
163.6625, 183.3209
164.1446, 185.7319
164.6268, 187.2935
165.1089, 187.3073
165.5910, 186.0500
166.0731, 185.3008
166.5552, 185.7018
167.0373, 185.9094
167.5195, 185.7397
168.0016, 185.1781
168.4837, 184.2247
168.9658, 182.8639
169.4479, 181.0968
169.9300, 179.1975
170.4122, 176.9928
170.8943, 174.8496
171.3764, 173.0892
171.8585, 171.6089
172.3406, 169.8794
172.8227, 167.3879
173.3049, 164.2714
173.7870, 161.7327
174.2691, 160.0424
174.7512, 158.7192
175.2333, 157.5683
175.7154, 156.5932
176.1976, 155.3147
176.6797, 153.0126
177.1618, 150.1314
177.6439, 147.8186
178.1260, 146.5954
178.6081, 145.9641
179.0903, 145.1755
179.5724, 144.1508
180.0545, 143.2143
180.5366, 142.6737
181.0187, 142.3421
181.5008, 141.9357
181.9830, 141.3120
182.4651, 140.5235
182.9472, 139.7279
183.4293, 138.9602
183.9114, 138.1275
184.3935, 136.8801
184.8757, 135.5685
185.3578, 134.8468
185.8399, 135.3946
186.3220, 137.0234
186.8041, 137.6868
187.2862, 136.5708
187.7684, 135.2495
188.2505, 133.8819
188.7326, 132.6564
189.2147, 131.8723
189.6968, 131.8454
190.1789, 132.6151
190.6611, 133.0318
191.1432, 132.3609
191.6253, 132.0438
192.1074, 132.8045
192.5895, 134.3708
193.0716, 135.9473
193.5538, 136.7855
194.0359, 136.7303
194.5180, 137.2875
195.0001, 138.8812
195.4822, 140.5495
195.9643, 141.7654
196.4465, 142.5851
196.9286, 143.4594
197.4107, 144.8270
197.8928, 146.7789
198.3749, 148.5020
198.8570, 149.5799
199.3392, 150.7631
199.8213, 152.6622
200.3034, 155.2841
200.7855, 158.0378
201.2676, 160.4356
201.7497, 162.4410
202.2319, 164.2916
202.7140, 165.7675
203.1961, 167.2253
203.6782, 169.1753
204.1603, 171.7122
204.6424, 174.0372
205.1246, 175.2401
205.6067, 175.5541
206.0888, 176.0129
206.5709, 176.9583
207.0530, 178.1050
207.5351, 179.1444
208.0173, 180.1184
208.4994, 180.7653
208.9815, 180.6577
209.4636, 180.0669
209.9457, 179.5090
210.4278, 179.3671
210.9100, 179.3619
211.3921, 178.7539
211.8742, 177.1880
212.3563, 175.7677
212.8384, 175.1713
213.3205, 175.1514
213.8027, 175.3146
214.2848, 175.5978
214.7669, 175.9061
215.2490, 175.8811
215.7311, 175.4021
216.2132, 174.7400
216.6954, 174.1641
217.1775, 173.5096
217.6596, 172.4935
218.1417, 170.9393
218.6238, 168.8844
219.1059, 166.5487
219.5881, 163.8800
220.0702, 160.9564
220.5523, 157.7373
221.0344, 154.3183
221.5165, 150.8214
221.9986, 147.3459
222.4808, 143.8780
222.9629, 140.2747
223.4450, 136.2457
223.9271, 132.4224
224.4092, 128.8979
224.8913, 125.6594
225.3735, 122.6706
225.8556, 119.8844
226.3377, 117.3218
226.8198, 115.0447
227.3019, 113.2541
227.7840, 111.5667
228.2662, 109.7775
228.7483, 108.0479
229.2304, 106.7397
229.7125, 106.1226
230.1946, 106.1012
230.6767, 105.6419
231.1589, 104.1813
231.6410, 102.9346
232.1231, 102.2262
232.6052, 101.9474
233.0873, 101.8591
233.5694, 101.8235
234.0516, 101.8500
234.5337, 102.0213
235.0158, 102.5485
235.4979, 102.9640
235.9800, 103.0457
236.4621, 102.9107
236.9443, 102.7381
237.4264, 102.5432
237.9085, 102.4787
238.3906, 103.2722
238.8727, 105.7856
239.3548, 108.0111
239.8370, 109.1052
240.3191, 109.3818
240.8012, 109.5228
241.2833, 109.7507
241.7654, 110.1992
242.2475, 111.2700
242.7297, 113.3278
243.2118, 115.3008
243.6939, 116.6300
244.1760, 117.4849
244.6581, 118.3392
245.1402, 119.3161
245.6224, 120.4947
246.1045, 122.0576
246.5866, 124.1404
247.0687, 126.1736
247.5508, 127.8362
248.0329, 129.2021
248.5151, 130.5296
248.9972, 131.8273
249.4793, 133.2411
249.9614, 134.9594
250.4435, 137.0086
250.9256, 139.1648
251.4078, 141.3085
251.8899, 143.4574
252.3720, 145.8001
252.8541, 148.5563
253.3362, 151.2786
253.8183, 153.5143
254.3005, 155.2757
254.7826, 156.7857
255.2647, 158.0892
255.7468, 159.2212
256.2289, 160.3784
256.7110, 161.6873
257.1931, 162.8898
257.6753, 163.8000
258.1574, 164.4378
258.6395, 164.9302
259.1216, 165.4648
259.6037, 165.9656
260.0858, 165.9748
260.5680, 165.2434
261.0501, 164.2548
261.5322, 163.3719
262.0143, 162.5290
262.4964, 161.5215
262.9785, 159.9632
263.4607, 158.0330
263.9428, 156.8555
264.4249, 157.1407
264.9070, 157.1682
265.3891, 155.8143
265.8712, 153.6386
266.3534, 151.7753
266.8355, 150.9321
267.3176, 150.9244
267.7997, 150.9822
268.2818, 151.1472
268.7639, 151.3183
269.2461, 151.2740
269.7282, 151.2449
270.2103, 151.5939
270.6924, 152.5646
271.1745, 153.9822
271.6566, 155.2117
272.1388, 155.8616
272.6209, 157.0173
273.1030, 159.1230
273.5851, 161.7428
274.0672, 164.3394
274.5493, 166.6677
275.0315, 168.9262
275.5136, 171.6116
275.9957, 174.9793
276.4778, 178.3263
276.9599, 181.2709
277.4420, 184.2629
277.9242, 187.7034
278.4063, 191.7513
278.8884, 196.2589
279.3705, 201.0614
279.8526, 206.3678
280.3347, 211.4820
280.8169, 216.5182
281.2990, 221.2578
281.7811, 225.4879
282.2632, 229.1705
282.7453, 232.4493
283.2274, 235.6048
283.7096, 238.9373
284.1917, 241.3247
284.6738, 242.4879
285.1559, 243.0527
285.6380, 243.5102
286.1201, 243.8301
286.6023, 243.5136
287.0844, 241.9131
287.5665, 238.7841
288.0486, 235.3114
288.5307, 231.1448
289.0128, 226.9880
289.4950, 223.1693
289.9771, 219.6597
290.4592, 216.2399
290.9413, 212.6744
291.4234, 208.9304
291.9055, 205.5682
292.3877, 202.5368
292.8698, 199.9183
293.3519, 197.7550
293.8340, 196.0341
294.3161, 194.7506
294.7982, 193.9293
295.2804, 193.5385
295.7625, 193.2052
296.2446, 193.1685
296.7267, 192.9288
297.2088, 192.3846
297.6909, 191.5780
298.1731, 190.5643
298.6552, 189.3728
299.1373, 188.0294
299.6194, 186.6443
300.1015, 185.6169
300.5836, 184.0193
301.0658, 181.5753
301.5479, 178.6293
302.0300, 175.5314
302.5121, 172.4286
302.9942, 169.2326
303.4763, 165.6910
303.9585, 161.5315
304.4406, 157.4475
304.9227, 153.5939
305.4048, 149.7340
305.8869, 145.5568
306.3690, 141.0467
306.8512, 136.5263
307.3333, 132.4286
307.8154, 128.7974
308.2975, 125.5555
308.7796, 122.6820
309.2617, 120.1168
309.7439, 117.9232
310.2260, 116.0410
310.7081, 114.2863
311.1902, 112.4887
311.6723, 110.6098
312.1544, 108.8742
312.6366, 107.2096
313.1187, 105.7236
313.6008, 104.4453
314.0829, 103.3762
314.5650, 102.5425
315.0471, 101.9985
315.5293, 101.7071
316.0114, 101.1756
316.4935, 100.1348
316.9756, 99.14957
317.4577, 98.27180
317.9398, 97.53840
318.4220, 97.02140
318.9041, 96.76457
319.3862, 96.67934
319.8683, 96.48042
320.3504, 95.99276
320.8326, 95.61205
321.3147, 95.56567
321.7968, 95.53365
322.2789, 95.13802
322.7610, 94.27666
323.2431, 93.22050
323.7253, 92.42918
324.2074, 91.96087
324.6895, 91.67863
325.1716, 91.83475
325.6537, 91.96434
326.1358, 91.68275
326.6180, 90.98957
327.1001, 90.21144
327.5822, 89.69756
328.0643, 89.49255
328.5464, 89.33284
329.0285, 89.14624
329.5107, 89.06458
329.9928, 89.16637
330.4749, 89.42387
330.9570, 89.76279
331.4391, 90.13339
331.9212, 90.53415
332.4034, 90.94125
332.8855, 91.64928
333.3676, 92.03596
333.8497, 91.76564
334.3318, 91.15240
334.8139, 90.54878
335.2961, 90.12257
335.7782, 89.96555
336.2603, 90.40718
336.7424, 92.23643
337.2245, 93.48270
337.7066, 93.64302
338.1888, 93.42128
338.6709, 93.36649
339.1530, 93.65313
339.6351, 94.19762
340.1172, 94.93138
340.5993, 96.04498
341.0815, 96.84559
341.5636, 96.97767
342.0457, 97.13074
342.5278, 97.68183
343.0099, 98.63210
343.4920, 99.77005
343.9742, 100.9240
344.4563, 102.0972
344.9384, 103.2228
345.4205, 104.2351
345.9026, 105.2630
346.3847, 106.2817
346.8669, 107.3467
347.3490, 108.5653
347.8311, 110.0135
348.3132, 111.6300
348.7953, 113.1340
349.2774, 114.4440
349.7596, 115.7882
350.2417, 117.1529
350.7238, 118.5950
351.2059, 120.1929
351.6880, 121.9747
352.1701, 123.8258
352.6523, 125.5310
353.1344, 127.0173
353.6165, 128.5815
354.0986, 130.5575
354.5807, 132.3890
355.0628, 133.5479
355.5450, 134.1106
356.0271, 134.7477
356.5092, 136.2009
356.9913, 138.4966
357.4734, 140.5822
357.9555, 142.4489
358.4377, 144.0766
358.9198, 145.2694
359.4019, 146.2341
359.8840, 147.3636
360.3661, 148.8882
360.8482, 150.7342
361.3304, 152.7246
361.8125, 154.9000
362.2946, 157.1145
362.7767, 159.1692
363.2588, 161.2997
363.7409, 163.8338
364.2231, 166.9286
364.7052, 170.1529
365.1873, 172.8761
365.6694, 175.0317
366.1515, 177.4033
366.6336, 180.2341
367.1158, 183.3071
367.5979, 186.4955
368.0800, 189.7938
368.5621, 193.1376
369.0442, 196.4233
369.5263, 199.6948
370.0085, 203.1407
370.4906, 206.8075
370.9727, 210.5974
371.4548, 214.5298
371.9369, 218.5217
372.4190, 222.4307
372.9012, 226.1150
373.3833, 229.7209
373.8654, 233.3894
374.3475, 237.0799
374.8296, 241.0748
375.3117, 245.6828
375.7939, 250.5876
376.2760, 255.2902
376.7581, 259.6406
377.2402, 264.0931
377.7223, 269.0887
378.2044, 274.5030
378.6866, 279.8026
379.1687, 284.8921
379.6508, 289.7722
380.1329, 294.5894
380.6150, 299.3493
381.0971, 303.5211
381.5793, 306.5590
382.0614, 309.0813
382.5435, 311.9876
383.0256, 315.4088
383.5077, 318.8347
383.9898, 322.0760
384.4720, 324.9925
384.9541, 327.1381
385.4362, 328.5307
385.9183, 329.1084
386.4004, 328.6525
386.8825, 327.3093
387.3647, 325.5430
387.8468, 323.5598
388.3289, 321.3180
388.8110, 318.7049
389.2931, 315.8842
389.7752, 312.4476
390.2574, 307.9752
390.7395, 302.9882
391.2216, 298.1472
391.7037, 293.5995
392.1858, 288.9434
392.6679, 283.6862
393.1501, 277.6271
393.6322, 271.9806
394.1143, 266.8094
394.5964, 261.9237
395.0785, 257.4139
395.5606, 253.1442
396.0428, 248.8256
396.5249, 244.2243
397.0070, 239.4522
397.4891, 234.9464
397.9712, 230.7906
398.4533, 226.8562
398.9355, 223.1432
399.4176, 219.6319
399.8997, 216.2983
400.3818, 213.1380
400.8639, 210.0948
401.3460, 207.0401
401.8282, 203.7730
402.3103, 201.0948
402.7924, 199.4352
403.2745, 197.8764
403.7566, 195.7325
404.2387, 193.2412
404.7209, 191.2260
405.2030, 190.4199
405.6851, 190.6175
406.1672, 190.2598
406.6493, 188.8126
407.1314, 187.5699
407.6136, 186.7496
408.0957, 186.3007
408.5778, 186.2761
409.0599, 186.7027
409.5420, 187.2079
410.0241, 187.2233
410.5063, 186.6695
410.9884, 186.0566
411.4705, 185.4993
411.9526, 184.8579
412.4347, 184.1455
412.9168, 183.3118
413.3990, 182.1669
413.8811, 180.5920
414.3632, 178.6064
414.8453, 176.2025
415.3274, 173.2060
415.8095, 170.2213
416.2917, 167.8061
416.7738, 165.5324
417.2559, 162.7465
417.7380, 159.0745
418.2201, 155.3080
418.7022, 152.1982
419.1844, 149.6955
419.6665, 147.3305
420.1486, 144.9968
420.6307, 142.7282
421.1128, 140.6271
421.5949, 138.6778
422.0771, 136.6518
422.5592, 134.0826
423.0413, 131.5587
423.5234, 130.0712
424.0055, 129.7359
424.4876, 129.4404
424.9698, 128.2683
425.4519, 126.4068
425.9340, 125.1387
426.4161, 125.2102
426.8982, 125.0692
427.3803, 123.6508
427.8625, 121.5469
428.3446, 120.0690
428.8267, 119.7358
429.3088, 119.9713
429.7909, 119.7983
430.2730, 118.9993
430.7552, 118.2461
431.2373, 117.6192
431.7194, 116.9867
432.2015, 116.1716
432.6836, 115.2301
433.1657, 114.4196
433.6479, 113.9618
434.1300, 113.8306
434.6121, 113.6713
435.0942, 113.2814
435.5763, 113.1036
436.0584, 113.1655
436.5406, 113.4944
437.0227, 114.2382
437.5048, 115.4159
437.9869, 116.6745
438.4690, 117.3625
438.9511, 117.1360
439.4333, 117.4598
439.9154, 118.5684
440.3975, 120.0601
440.8796, 121.8264
441.3617, 123.8382
441.8438, 126.0962
442.3260, 128.6568
442.8081, 131.4176
443.2902, 133.9958
443.7723, 136.4589
444.2544, 138.5886
444.7365, 140.3113
445.2187, 141.6761
445.7008, 142.6402
446.1829, 143.1868
446.6650, 143.4755
447.1471, 143.4886
447.6292, 143.3052
448.1114, 143.3992
448.5935, 143.9288
449.0756, 144.5693
449.5577, 144.9427
450.0398, 145.1801
450.5219, 145.7234
451.0041, 146.6520
451.4862, 147.9640
451.9683, 149.7268
452.4504, 151.9060
452.9325, 154.2341
453.4146, 156.5453
453.8968, 158.9951
454.3789, 161.9879
454.8610, 165.5785
455.3431, 169.3174
455.8252, 173.1383
456.3073, 177.0346
456.7895, 180.9975
457.2716, 185.0299
457.7537, 189.2284
458.2358, 193.7191
458.7179, 198.5117
459.2000, 203.2159
459.6822, 207.8946
460.1643, 212.4375
460.6464, 216.6943
461.1285, 220.8416
461.6106, 225.1731
462.0927, 229.7863
462.5748, 234.3671
463.0569, 238.2708
463.5391, 240.8709
464.0212, 244.4514
464.5033, 249.7185
464.9854, 255.2257
465.4675, 260.3706
465.9496, 265.2045
466.4318, 270.0871
466.9139, 275.3568
467.3960, 280.7133
467.8781, 285.2434
468.3602, 288.8739
468.8423, 291.8981
469.3245, 294.9066
469.8066, 297.0454
470.2887, 297.7693
470.7708, 296.9723
471.2529, 294.2640
471.7350, 288.9066
472.2172, 281.3160
472.6993, 273.0615
473.1814, 264.1882
473.6635, 254.8865
474.1456, 244.8518
474.6277, 234.4924
475.1099, 224.7957
475.5920, 215.4505
476.0741, 207.4700
476.5562, 201.6215
477.0383, 197.7402
477.5204, 195.3128
478.0026, 194.2688
478.4847, 194.3706
478.9668, 195.2499
479.4489, 196.8150
479.9310, 199.9214
480.4131, 205.1355
480.8953, 211.4686
481.3774, 218.0325
481.8595, 225.0736
482.3416, 233.5850
482.8237, 244.2787
483.3058, 256.6319
483.7880, 268.9012
484.2701, 280.4393
484.7522, 292.8594
485.2343, 306.1744
485.7164, 320.4137
486.1985, 335.6940
486.6807, 352.0027
487.1628, 368.9647
487.6449, 386.2032
488.1270, 403.8575
488.6091, 423.6989
489.0912, 445.7906
489.5734, 470.2873
490.0555, 496.7192
490.5376, 525.4617
491.0197, 556.6596
491.5018, 590.2577
491.9839, 627.0038
492.4661, 666.9274
492.9482, 710.3421
493.4303, 758.6023
493.9124, 811.7698
494.3945, 870.0248
494.8766, 933.9707
495.3588, 1002.915
495.8409, 1075.356
496.3230, 1152.727
496.8051, 1231.964
497.2872, 1313.307
497.7693, 1394.691
498.2515, 1470.082
498.7336, 1538.594
499.2157, 1595.555
499.6978, 1634.227
500.1799, 1654.678
500.6620, 1654.689
501.1442, 1631.836
501.6263, 1590.326
502.1084, 1528.466
502.5905, 1450.055
503.0726, 1362.613
503.5547, 1269.857
504.0369, 1173.978
504.5190, 1081.831
505.0011, 990.7393
505.4832, 907.8405
505.9653, 832.9982
506.4474, 765.5826
506.9296, 705.7586
507.4117, 653.0064
507.8938, 605.8030
508.3759, 563.2325
508.8580, 524.9757
509.3401, 490.8801
509.8223, 461.4125
510.3044, 434.9661
510.7865, 411.4120
511.2686, 390.2528
511.7507, 371.3818
512.2328, 354.8073
512.7150, 339.7398
513.1971, 325.5556
513.6792, 312.3753
514.1613, 300.4807
514.6434, 290.0000
515.1255, 280.2886
515.6077, 270.9219
516.0898, 261.9627
516.5719, 253.5822
517.0540, 245.8002
517.5361, 238.6226
518.0182, 232.1680
518.5004, 226.2892
518.9825, 220.7612
519.4646, 215.4974
519.9467, 210.5561
520.4288, 205.9915
520.9109, 201.7983
521.3931, 198.0176
521.8752, 194.4992
522.3573, 191.4352
522.8394, 188.9584
523.3215, 186.9672
523.8036, 185.4215
524.2858, 184.3024
524.7679, 183.3140
525.2500, 181.8699
525.7321, 179.7478
526.2142, 178.3179
526.6964, 178.2625
527.1785, 178.2933
527.6606, 177.8918
528.1427, 177.1124
528.6248, 176.1414
529.1069, 175.1009
529.5891, 173.8293
530.0712, 172.1316
530.5533, 170.0117
531.0354, 167.5328
531.5175, 164.7020
531.9996, 161.5389
532.4818, 158.1369
532.9639, 154.5298
533.4460, 150.1602
533.9281, 144.0676
534.4102, 137.8918
534.8923, 132.9544
535.3745, 129.0322
535.8566, 125.0885
536.3387, 120.6473
536.8208, 116.0122
537.3029, 111.8565
537.7850, 108.3019
538.2672, 104.9501
538.7493, 101.6867
539.2314, 98.72413
539.7135, 96.18506
540.1956, 94.03484
540.6777, 92.17127
541.1599, 90.55984
541.6420, 89.09722
542.1241, 87.50941
542.6062, 85.72659
543.0883, 84.01765
543.5704, 82.49247
544.0526, 81.01573
544.5347, 79.43850
545.0168, 77.80543
545.4989, 76.38406
545.9810, 75.35965
546.4631, 74.59258
546.9453, 73.97448
547.4274, 73.49497
547.9095, 72.76682
548.3916, 71.50491
548.8737, 70.07422
549.3558, 69.14218
549.8380, 68.73250
550.3201, 68.45049
550.8022, 68.29946
551.2843, 68.19525
551.7664, 68.21962
552.2485, 68.25357
552.7307, 67.85860
553.2128, 66.73164
553.6949, 65.23233
554.1770, 64.38268
554.6591, 64.60336
555.1412, 64.74632
555.6234, 64.96677
556.1055, 64.95815
556.5876, 64.38155
557.0697, 63.39579
557.5518, 62.47771
558.0339, 61.90339
558.5161, 61.60410
558.9982, 61.48011
559.4803, 61.57706
559.9624, 61.56663
560.4445, 61.24260
560.9266, 60.89616
561.4088, 60.85368
561.8909, 61.08451
562.3730, 61.21558
562.8551, 61.01920
563.3372, 60.72044
563.8193, 60.54043
564.3015, 60.47305
564.7836, 60.45416
565.2657, 60.45963
565.7478, 60.48748
566.2299, 60.53909
566.7120, 60.64197
567.1942, 60.69600
567.6763, 60.58709
568.1584, 60.53402
568.6405, 60.72404
569.1226, 61.06681
569.6047, 61.32639
570.0869, 61.37174
570.5690, 61.34535
571.0511, 61.58746
571.5332, 62.22647
572.0153, 62.63694
572.4974, 62.46136
572.9796, 62.34270
573.4617, 62.64467
573.9438, 63.27325
574.4259, 63.96813
574.9080, 64.68026
575.3901, 65.33253
575.8723, 65.80837
576.3544, 66.13346
576.8365, 66.43969
577.3186, 66.74033
577.8007, 67.09833
578.2828, 67.60072
578.7650, 68.25784
579.2471, 68.88887
579.7292, 69.60886
580.2113, 70.17326
580.6934, 70.55149
581.1755, 70.67405
581.6577, 70.36511
582.1398, 69.58768
582.6219, 68.62528
583.1040, 67.88866
583.5861, 67.43954
584.0682, 66.73479
584.5504, 65.75121
585.0325, 64.50358
585.5146, 62.71545
585.9967, 60.79498
586.4788, 59.33263
586.9609, 58.50813
587.4431, 57.74766
587.9252, 56.43316
588.4073, 54.71821
588.8894, 53.15303
589.3715, 51.75121
589.8536, 50.66726
590.3358, 50.13352
590.8179, 49.97657
591.3000, 49.55076
591.7821, 48.58052
592.2642, 47.83191
592.7463, 47.79799
593.2285, 47.96441
593.7106, 47.70164
594.1927, 46.99369
594.6748, 46.26190
595.1569, 45.82740
595.6390, 45.66715
596.1212, 45.67844
596.6033, 46.03317
597.0854, 46.25905
597.5675, 46.25091
598.0496, 46.15015
598.5317, 46.04760
599.0139, 45.94892
599.4960, 45.81480
599.9781, 45.58018
600.4602, 45.32610
600.9423, 45.24633
601.4244, 45.34381
601.9066, 45.33045
602.3887, 45.02798
602.8708, 44.69065
603.3529, 44.74079
603.8350, 45.18221
604.3171, 45.44450
604.7993, 45.31726
605.2814, 45.11499
605.7635, 45.06480
606.2456, 45.08865
606.7277, 44.95377
607.2098, 44.57839
607.6920, 44.18617
608.1741, 44.12399
608.6562, 44.44080
609.1383, 44.82960
609.6204, 45.64029
610.1025, 46.10241
610.5847, 45.61913
611.0668, 44.79390
611.5489, 44.48034
612.0310, 44.93071
612.5131, 45.56678
612.9952, 45.90856
613.4774, 46.01214
613.9595, 46.05533
614.4416, 46.05352
614.9237, 45.99027
615.4058, 45.83159
615.8879, 45.61148
616.3701, 45.42588
616.8522, 45.19990
617.3343, 45.14798
617.8164, 45.51017
618.2985, 45.92080
618.7806, 46.01562
619.2628, 45.83251
619.7449, 45.62923
620.2270, 45.55793
620.7091, 45.63096
621.1912, 45.94704
621.6733, 46.68993
622.1555, 47.12151
622.6376, 46.86364
623.1197, 46.53673
623.6018, 46.39013
624.0839, 46.44723
624.5660, 46.76412
625.0482, 47.55728
625.5303, 48.30408
626.0124, 48.32167
626.4945, 47.83368
626.9766, 47.60151
627.4587, 47.80660
627.9409, 48.25350
628.4230, 48.84746
628.9051, 49.57674
629.3872, 49.88482
629.8693, 49.18742
630.3514, 48.87470
630.8336, 49.57156
631.3157, 50.59272
631.7978, 51.28911
632.2799, 51.54553
632.7620, 51.55084
633.2441, 51.40046
633.7263, 51.16216
634.2084, 51.13519
634.6905, 51.38390
635.1726, 51.58284
635.6547, 51.55899
636.1368, 51.51756
636.6190, 51.75764
637.1011, 52.24249
637.5832, 52.45897
638.0653, 51.85996
638.5474, 51.26974
639.0295, 51.54460
639.5117, 52.36762
639.9938, 52.85768
640.4759, 52.71266
640.9580, 52.38890
641.4401, 52.48242
641.9222, 53.04404
642.4044, 53.54908
642.8865, 54.18345
643.3686, 54.52548
643.8507, 54.20012
644.3328, 53.69325
644.8149, 53.59203
645.2971, 53.97475
645.7792, 54.32827
646.2613, 54.05495
646.7434, 53.48157
647.2255, 53.53357
647.7076, 54.25289
648.1898, 54.81776
648.6719, 54.84245
649.1540, 54.57253
649.6361, 54.40083
650.1182, 54.33625
650.6003, 54.31078
651.0825, 54.60200
651.5646, 54.65129
652.0467, 53.90188
652.5288, 52.74236
653.0109, 51.82043
653.4930, 51.38372
653.9752, 51.35030
654.4573, 51.78774
654.9394, 52.72043
655.4215, 53.04535
655.9036, 52.48485
656.3857, 51.86471
656.8679, 51.47959
657.3500, 51.27526
657.8321, 51.26448
658.3142, 51.48089
658.7963, 51.58569
659.2784, 51.36461
659.7606, 50.99690
660.2427, 50.57406
660.7248, 50.16879
661.2069, 50.03407
661.6890, 50.30729
662.1711, 50.77850
662.6533, 51.08342
663.1354, 51.21487
663.6175, 51.20679
664.0996, 50.87737
664.5817, 50.60612
665.0638, 50.55497
665.5460, 50.61633
666.0281, 50.63202
666.5102, 50.55901
666.9923, 50.49759
667.4744, 50.57050
667.9565, 50.71122
668.4387, 50.70994
668.9208, 50.55270
669.4029, 50.51407
669.8850, 50.73702
670.3671, 51.16442
670.8492, 51.73340
671.3314, 52.69999
671.8135, 53.09447
672.2956, 52.37773
672.7777, 51.60736
673.2598, 51.21231
673.7419, 51.19160
674.2241, 51.57276
674.7062, 52.34881
675.1883, 53.12963
675.6704, 53.35689
676.1525, 53.09974
676.6346, 53.02042
677.1168, 53.11346
677.5989, 53.48879
678.0810, 54.42966
678.5631, 55.54894
679.0452, 56.16217
679.5273, 56.21267
680.0095, 56.11030
680.4916, 55.71735
680.9737, 55.41504
681.4558, 55.61370
681.9379, 56.12379
682.4200, 56.37947
682.9022, 56.16308
683.3843, 56.01812
683.8664, 56.89924
684.3485, 58.92457
684.8306, 60.12609
685.3127, 60.05032
685.7949, 59.94693
686.2770, 60.31498
686.7591, 60.92469
687.2412, 61.55479
687.7233, 62.18031
688.2054, 62.86088
688.6876, 63.75379
689.1697, 64.61932
689.6518, 65.12991
690.1339, 65.37821
690.6160, 65.70834
691.0981, 66.26070
691.5803, 66.85311
692.0624, 67.16374
692.5445, 67.08250
693.0266, 67.65459
693.5087, 69.46786
693.9908, 71.14082
694.4730, 72.10074
694.9551, 72.87835
695.4372, 74.09822
695.9193, 75.81284
696.4014, 77.43188
696.8835, 78.57991
697.3657, 79.46374
697.8478, 80.29782
698.3299, 81.10838
698.8120, 82.05222
699.2941, 83.20218
699.7762, 84.29543
700.2584, 84.97221
700.7405, 85.19804
701.2226, 85.44847
701.7047, 85.72920
702.1868, 86.02791
702.6689, 86.58118
703.1511, 86.99228
703.6332, 86.74746
704.1153, 85.90434
704.5974, 85.14306
705.0795, 85.06631
705.5616, 85.19215
706.0438, 84.69382
706.5259, 83.66918
707.0080, 82.74695
707.4901, 82.11129
707.9722, 81.55803
708.4543, 80.86823
708.9365, 80.04613
709.4186, 79.33070
709.9007, 78.76269
710.3828, 78.23490
710.8649, 77.98006
711.3470, 77.57190
711.8292, 76.46865
712.3113, 74.83358
712.7934, 73.41067
713.2755, 72.68278
713.7576, 72.29534
714.2397, 71.73997
714.7219, 71.03666
715.2040, 70.22384
715.6861, 69.24599
716.1682, 68.54369
716.6503, 68.66200
717.1324, 69.35880
717.6146, 69.23544
718.0967, 67.61881
718.5788, 66.20896
719.0609, 65.18669
719.5430, 64.38182
720.0251, 63.74800
720.5073, 63.22095
720.9894, 62.73165
721.4715, 62.27212
721.9536, 61.66888
722.4357, 60.59338
722.9178, 59.13175
723.4000, 57.81361
723.8821, 56.68197
724.3642, 55.74626
724.8463, 55.09768
725.3284, 54.58686
725.8105, 53.83016
726.2927, 52.65692
726.7748, 51.66586
727.2569, 50.92742
727.7390, 50.33363
728.2211, 49.95094
728.7032, 49.63334
729.1854, 49.11193
729.6675, 48.31237
730.1496, 47.52576
730.6317, 47.19445
731.1138, 47.13387
731.5959, 46.45576
732.0781, 45.06601
732.5602, 44.34164
733.0423, 45.10562
733.5244, 46.33740
734.0065, 46.50792
734.4886, 45.37618
734.9708, 44.60337
735.4529, 44.42486
735.9350, 44.31982
736.4171, 44.12927
736.8992, 43.90816
737.3813, 43.68236
737.8635, 43.48518
738.3456, 43.43380
738.8277, 43.72762
739.3098, 44.10922
739.7919, 43.92263
740.2740, 43.22179
740.7562, 42.88396
741.2383, 43.19679
741.7204, 43.64779
742.2025, 43.79615
742.6846, 43.66188
743.1667, 43.44651
743.6489, 42.92789
744.1310, 42.64600
744.6131, 42.94676
745.0952, 43.26218
745.5773, 43.13900
746.0594, 42.66449
746.5416, 42.15576
747.0237, 41.74455
747.5058, 41.44231
747.9879, 41.31242
748.4700, 41.31031
748.9521, 41.31809
749.4343, 41.33053
749.9164, 41.14337
750.3985, 40.56774
750.8806, 39.82108
751.3627, 39.37896
751.8448, 39.25590
752.3270, 39.42873
752.8091, 40.34787
753.2912, 41.03606
753.7733, 40.84748
754.2554, 40.32026
754.7375, 40.21781
755.2197, 40.69389
755.7018, 41.22847
756.1839, 41.47331
756.6660, 41.51332
757.1481, 41.43254
757.6302, 41.25892
758.1124, 41.14950
758.5945, 41.16314
759.0766, 41.16972
759.5587, 40.98472
760.0408, 40.61936
760.5229, 40.57303
761.0051, 40.99501
761.4872, 41.52499
761.9693, 42.51156
762.4514, 43.24501
762.9335, 42.86671
763.4156, 41.76004
763.8978, 41.29127
764.3799, 42.22664
764.8620, 43.45614
765.3441, 44.18134
765.8262, 44.53741
766.3083, 44.71956
766.7905, 44.77659
767.2726, 44.75486
767.7547, 44.65381
768.2368, 44.62861
768.7189, 45.12430
769.2010, 46.40668
769.6832, 47.20284
770.1653, 47.18484
770.6474, 47.12977
771.1295, 47.23719
771.6116, 47.55887
772.0938, 48.32661
772.5759, 49.61941
773.0580, 50.47992
773.5401, 50.19051
774.0222, 49.64730
774.5043, 49.49461
774.9865, 49.65308
775.4686, 49.92184
775.9507, 50.23870
776.4328, 50.62963
776.9149, 51.13424
777.3970, 51.72551
777.8792, 52.33770
778.3613, 53.04972
778.8434, 53.31432
779.3255, 52.69303
779.8076, 52.09531
780.2897, 52.52294
780.7719, 53.66627
781.2540, 54.17460
781.7361, 53.57855
782.2182, 53.01451
782.7003, 52.73328
783.1824, 52.60715
783.6646, 52.68074
784.1467, 52.80519
784.6288, 52.70033
785.1109, 52.24594
785.5930, 51.48805
786.0751, 50.23308
786.5573, 48.70317
787.0394, 47.95030
787.5215, 48.05561
788.0036, 47.99838
788.4857, 47.32021
788.9678, 46.34006
789.4500, 45.51182
789.9321, 44.85909
790.4142, 44.15763
790.8963, 43.22287
791.3784, 42.47832
791.8605, 42.18689
792.3427, 41.98839
792.8248, 41.53556
793.3069, 40.85295
793.7890, 40.21907
794.2711, 39.81087
794.7532, 39.42147
795.2354, 38.71104
795.7175, 37.90483
796.1996, 37.58200
796.6817, 37.76494
797.1638, 37.91456
797.6459, 37.69654
798.1281, 37.25247
798.6102, 36.86857
799.0923, 36.50195
799.5744, 36.40850
800.0565, 36.86507
800.5386, 37.15409
801.0208, 36.69441
801.5029, 36.04865
801.9850, 35.96838
802.4671, 36.52219
802.9492, 36.75956
803.4313, 36.02224
803.9135, 35.30767
804.3956, 35.36939
804.8777, 35.77191
805.3598, 35.81839
805.8419, 35.44353
806.3240, 35.12692
806.8062, 35.24414
807.2883, 35.61536
807.7704, 35.88631
808.2525, 36.05880
808.7346, 36.10957
809.2167, 36.00412
809.6989, 35.92149
810.1810, 35.99203
810.6631, 36.15948
811.1452, 36.26691
811.6273, 36.27142
812.1094, 36.31276
812.5916, 36.30894
813.0737, 36.43280
813.5558, 36.94409
814.0379, 37.52665
814.5200, 37.67970
815.0021, 37.36267
815.4843, 37.18074
815.9664, 37.68013
816.4485, 38.36600
816.9306, 38.65425
817.4127, 38.67141
817.8948, 38.70171
818.3770, 38.82022
818.8591, 39.07070
819.3412, 39.49322
819.8233, 40.05758
820.3054, 40.68468
820.7875, 41.40703
821.2697, 42.05794
821.7518, 42.60760
822.2339, 43.11609
822.7160, 43.63979
823.1981, 44.13269
823.6802, 44.43657
824.1624, 44.43717
824.6445, 44.78441
825.1266, 45.99349
825.6087, 47.16302
826.0908, 47.68675
826.5729, 47.91534
827.0551, 48.31726
827.5372, 48.99926
828.0193, 49.86625
828.5014, 50.86055
828.9835, 51.97784
829.4656, 53.31448
829.9478, 54.79033
830.4299, 55.93327
830.9120, 56.64875
831.3941, 57.50199
831.8762, 58.92873
832.3583, 60.67801
832.8404, 62.06860
833.3225, 62.91984
833.8046, 63.93727
834.2867, 65.36102
834.7689, 66.62707
835.2510, 67.67427
835.7331, 68.38301
836.2152, 68.47774
836.6973, 67.95328
837.1794, 67.58932
837.6616, 67.98441
838.1437, 68.23351
838.6258, 67.86913
839.1079, 66.97726
839.5900, 65.50350
840.0721, 63.59272
840.5543, 61.77882
841.0364, 60.42091
841.5185, 59.22161
842.0006, 57.72926
842.4827, 55.96177
842.9648, 53.94613
843.4470, 51.66755
843.9291, 49.46114
844.4112, 47.42756
844.8933, 45.74587
845.3754, 44.79799
845.8575, 44.74372
846.3397, 44.40389
846.8218, 43.52105
847.3039, 42.70124
847.7860, 42.00920
848.2681, 41.45790
848.7502, 41.14647
849.2324, 40.99786
849.7145, 40.71146
850.1966, 40.15394
850.6787, 39.51547
851.1608, 38.78171
851.6429, 38.10928
852.1251, 37.77276
852.6072, 37.65597
853.0893, 37.32951
853.5714, 36.61758
854.0535, 35.91335
854.5356, 35.82646
855.0178, 36.17672
855.4999, 36.07684
855.9820, 35.51312
856.4641, 35.03146
856.9462, 34.77201
857.4283, 34.74946
857.9105, 35.07923
858.3926, 35.66779
858.8747, 35.74956
859.3568, 34.90480
859.8389, 32.57389
860.3210, 34.60273
860.8032, 35.72997
861.2853, 36.00407
861.7674, 32.86977
862.2495, 34.13671
862.7316, 33.63983
863.2137, 33.07063
863.6959, 34.95703
864.1780, 32.31847
864.6601, 34.16592
865.1422, 34.22264
865.6243, 35.09894
866.1064, 34.20052
866.5886, 33.85025
867.0707, 34.09512
867.5528, 34.40012
868.0349, 34.25769
868.5170, 33.75893
868.9991, 33.53623
869.4813, 33.68141
869.9634, 33.66861
870.4455, 33.16191
870.9276, 32.45607
871.4097, 32.07928
871.8918, 32.05275
872.3740, 32.22367
872.8561, 32.85622
873.3382, 33.25943
873.8203, 33.20036
874.3024, 32.88112
874.7845, 32.26617
875.2667, 31.48411
875.7488, 31.09638
876.2309, 31.46953
876.7130, 31.80015
877.1951, 31.69694
877.6772, 31.53133
878.1594, 31.75300
878.6415, 32.13092
879.1236, 32.09871
879.6057, 31.48901
880.0878, 30.74510
880.5699, 30.13609
881.0521, 29.73549
881.5342, 29.76019
882.0163, 30.12523
882.4984, 30.55423
882.9805, 30.97126
883.4626, 31.16397
883.9448, 30.92921
884.4269, 30.44016
884.9090, 30.21910
885.3911, 30.32364
885.8732, 30.33905
886.3553, 30.12298
886.8375, 30.12503
887.3196, 30.79900
887.8017, 31.60067
888.2838, 31.64982
888.7659, 30.87215
889.2480, 30.28552
889.7302, 30.01752
890.2123, 29.80584
890.6944, 29.58889
891.1765, 29.40125
891.6586, 29.24769
892.1407, 29.15180
892.6229, 29.18700
893.1050, 29.40673
893.5871, 29.61530
894.0692, 29.65531
894.5513, 29.77707
895.0334, 29.70010
895.5156, 29.80750
895.9977, 29.81530
896.4798, 29.70115
896.9619, 29.65824
897.4440, 29.93331
897.9261, 30.28036
898.4083, 29.93603
898.8904, 28.98897
899.3725, 28.52389
899.8546, 28.73984
900.3367, 28.96824
900.8188, 28.79325
901.3010, 28.93398
901.7831, 28.98044
902.2652, 28.83221
902.7473, 28.98844
903.2294, 28.80044
903.7115, 28.55733
904.1937, 28.27615
904.6758, 28.01946
905.1579, 27.74446
905.6400, 27.52332
906.1221, 27.67875
906.6042, 28.53402
907.0864, 29.23716
907.5685, 29.59918
908.0506, 29.71885
908.5327, 29.56054
909.0148, 29.24730
909.4969, 28.95441
909.9791, 28.72076
910.4612, 28.45008
910.9433, 27.92615
911.4254, 27.48452
911.9075, 27.59854
912.3896, 28.01893
912.8718, 28.25809
913.3539, 28.26327
913.8360, 28.22892
914.3181, 28.26430
914.8002, 28.31344
915.2823, 28.30344
915.7645, 28.23170
916.2466, 28.04164
916.7287, 27.72383
917.2108, 27.49733
917.6929, 27.44249
918.1750, 27.43731
918.6572, 27.31440
919.1393, 27.15212
919.6214, 27.46321
920.1035, 28.63439
920.5856, 29.32722
921.0677, 29.25214
921.5499, 28.98213
922.0320, 28.68828
922.5141, 28.40659
922.9962, 28.16117
923.4783, 27.94674
923.9604, 27.88408
924.4426, 28.09339
924.9247, 28.32205
925.4068, 28.46625
925.8889, 28.61215
926.3710, 28.98813
926.8531, 29.41302
927.3353, 29.30811
927.8174, 28.38066
928.2995, 27.69288
928.7816, 28.40080
929.2637, 29.35322
929.7458, 29.15247
930.2280, 28.25222
930.7101, 27.65507
931.1922, 27.58198
931.6743, 27.77903
932.1564, 28.12186
932.6385, 28.42657
933.1207, 28.24729
933.6028, 27.73850
934.0849, 27.69554
934.5670, 28.14999
935.0491, 28.21898
935.5313, 27.47634
936.0134, 26.64970
936.4955, 26.71075
936.9776, 27.53580
937.4597, 27.80517
937.9418, 27.29095
938.4240, 27.22447
938.9061, 27.98286
939.3882, 28.84330
939.8703, 29.48486
940.3524, 29.83343
940.8345, 29.62343
941.3167, 28.51456
941.7988, 28.13908
942.2809, 29.24104
942.7630, 30.06474
943.2451, 29.90577
943.7272, 29.55835
944.2094, 29.79975
944.6915, 30.42480
945.1736, 30.57760
945.6557, 29.77595
946.1378, 29.31454
946.6199, 30.16500
947.1021, 31.00632
947.5842, 30.51846
948.0663, 29.59728
948.5484, 29.75425
949.0305, 31.10762
949.5126, 32.40847
949.9948, 32.88513
950.4769, 33.13948
950.9590, 33.74094
951.4411, 34.53265
951.9232, 35.25938
952.4053, 35.93000
952.8875, 36.77301
953.3696, 37.84523
953.8517, 38.65656
954.3338, 38.50718
954.8159, 37.85238
955.2980, 37.96737
955.7802, 38.73923
956.2623, 39.36946
956.7444, 39.72157
957.2265, 40.13656
957.7086, 40.83038
958.1907, 41.64768
958.6729, 42.26387
959.1550, 43.20053
959.6371, 43.50787
960.1192, 44.95737
960.6013, 46.15178
961.0834, 46.88161
961.5656, 47.29457
962.0477, 47.48800
962.5298, 47.46490
963.0119, 47.19348
963.4940, 46.34138
963.9761, 46.09420
964.4583, 47.28550
964.9404, 47.97300
965.4225, 46.97648
965.9046, 45.68364
966.3867, 45.57658
966.8688, 46.44005
967.3510, 46.75863
967.8331, 45.95716
968.3152, 45.26174
968.7973, 45.06217
969.2794, 44.91390
969.7615, 44.60851
970.2437, 44.15589
970.7258, 43.49989
971.2079, 42.68576
971.6900, 42.09622
972.1721, 42.18074
972.6542, 42.16560
973.1364, 41.40619
973.6185, 40.40655
974.1006, 39.55545
974.5827, 38.98388
975.0648, 38.93755
975.5469, 39.45656
976.0291, 39.98380
976.5112, 40.09844
976.9933, 39.92613
977.4754, 39.48269
977.9575, 38.93076
978.4396, 38.66928
978.9218, 38.69887
979.4039, 38.69968
979.8860, 38.50950
980.3681, 38.31274
980.8502, 38.47809
981.3323, 38.81260
981.8145, 38.41510
982.2966, 37.42623
982.7787, 37.06600
983.2608, 37.60297
983.7429, 38.47844
984.2250, 39.36941
984.7072, 40.12396
985.1893, 40.38490
985.6714, 40.13457
986.1535, 39.91188
986.6356, 39.69799
987.1177, 39.61870
987.5999, 39.70479
988.0820, 39.97068
988.5641, 40.51594
989.0462, 41.17553
989.5283, 41.31445
990.0104, 40.58087
990.4926, 40.48483
990.9747, 41.38754
991.4568, 42.24636
991.9389, 42.78455
992.4210, 43.06808
992.9031, 43.05276
993.3853, 42.80561
993.8674, 42.78956
994.3495, 43.26868
994.8316, 43.53071
995.3137, 43.24719
995.7958, 43.12015
996.2780, 43.49613
996.7601, 44.12492
997.2422, 44.78642
997.7243, 45.45076
998.2064, 46.04290
998.6885, 46.53155
999.1707, 46.96922
999.6528, 47.15887
1000.135, 47.51940
1000.617, 48.52688
1001.099, 49.76768
1001.581, 50.54786
1002.063, 50.83531
1002.545, 51.30326
1003.028, 52.32421
1003.510, 53.45736
1003.992, 54.65400
1004.474, 55.68708
1004.956, 56.16068
1005.438, 56.35636
1005.920, 56.86592
1006.402, 57.81536
1006.885, 58.83348
1007.367, 59.64103
1007.849, 60.46819
1008.331, 61.67962
1008.813, 62.94741
1009.295, 63.75515
1009.777, 64.18810
1010.259, 64.63632
1010.741, 65.23921
1011.224, 65.91451
1011.706, 66.69715
1012.188, 67.39074
1012.670, 67.47049
1013.152, 67.30152
1013.634, 67.98518
1014.116, 69.37089
1014.598, 70.07899
1015.081, 69.52260
1015.563, 68.81214
1016.045, 69.31449
1016.527, 70.46763
1017.009, 70.85633
1017.491, 70.62062
1017.973, 70.36201
1018.455, 70.18725
1018.937, 70.15308
1019.420, 70.28941
1019.902, 70.58469
1020.384, 71.08789
1020.866, 71.71508
1021.348, 72.01595
1021.830, 72.00654
1022.312, 72.11929
1022.794, 72.42519
1023.276, 72.90305
1023.759, 73.55540
1024.241, 74.32223
1024.723, 75.14587
1025.205, 76.00967
1025.687, 76.59409
1026.169, 76.85806
1026.651, 77.21326
1027.133, 77.78078
1027.616, 78.18709
1028.098, 78.12054
1028.580, 77.96486
1029.062, 78.51871
1029.544, 78.40417
1030.026, 78.35822
1030.508, 78.93846
1030.990, 78.41540
1031.473, 79.24294
1031.955, 80.04321
1032.437, 79.94292
1032.919, 79.27557
1033.401, 78.59987
1033.883, 77.87158
1034.365, 77.66135
1034.847, 78.44292
1035.329, 78.66747
1035.812, 77.78278
1036.294, 76.71655
1036.776, 76.03287
1037.258, 75.56782
1037.740, 75.03642
1038.222, 74.45904
1038.704, 73.64481
1039.186, 72.15728
1039.668, 71.15656
1040.151, 71.27196
1040.633, 71.42098
1041.115, 70.87752
1041.597, 69.94294
1042.079, 69.22542
1042.561, 68.78739
1043.043, 68.13687
1043.525, 66.93027
1044.008, 65.98751
1044.490, 65.56985
1044.972, 65.32504
1045.454, 65.10210
1045.936, 64.88171
1046.418, 64.63643
1046.900, 64.36257
1047.382, 64.09674
1047.865, 63.89039
1048.347, 63.62411
1048.829, 63.28844
1049.311, 62.86708
1049.793, 62.10846
1050.275, 61.35701
1050.757, 61.36485
1051.239, 62.25787
1051.721, 62.60712
1052.203, 61.58441
1052.686, 60.75624
1053.168, 60.72148
1053.650, 60.86302
1054.132, 60.81600
1054.614, 60.62640
1055.096, 60.37484
1055.578, 60.07667
1056.060, 59.88780
1056.543, 60.04024
1057.025, 60.04292
1057.507, 59.68121
1057.989, 59.17529
1058.471, 58.60545
1058.953, 58.03557
1059.435, 57.44469
1059.917, 56.86096
1060.400, 56.69386
1060.882, 57.73673
1061.364, 58.29766
1061.846, 57.23081
1062.328, 56.02293
1062.810, 55.93163
1063.292, 56.31973
1063.774, 56.06121
1064.256, 55.08616
1064.739, 54.32030
1065.221, 54.23897
1065.703, 54.16047
1066.185, 53.64002
1066.667, 53.19429
1067.149, 53.35294
1067.631, 53.73314
1068.113, 53.72090
1068.595, 53.30931
1069.078, 53.04667
1069.560, 53.34669
1070.042, 53.33124
1070.524, 52.05537
1071.006, 50.91168
1071.488, 51.21267
1071.970, 52.03707
1072.452, 51.92446
1072.935, 50.98784
1073.417, 50.67690
1073.899, 51.71855
1074.381, 52.70831
1074.863, 52.86121
1075.345, 52.87667
1075.827, 53.20174
1076.309, 53.68193
1076.792, 54.22031
1077.274, 54.70385
1077.756, 54.79705
1078.238, 54.27044
1078.720, 53.95085
1079.202, 54.44960
1079.684, 55.01854
1080.166, 54.94100
1080.648, 54.87017
1081.130, 55.76658
1081.613, 57.29890
1082.095, 58.31892
1082.577, 58.44987
1083.059, 58.58979
1083.541, 59.17134
1084.023, 59.83385
1084.505, 60.43593
1084.987, 60.96814
1085.469, 61.44699
1085.952, 61.84944
1086.434, 62.06600
1086.916, 62.06666
1087.398, 62.22070
1087.880, 62.73628
1088.362, 63.36971
1088.844, 64.05230
1089.326, 64.75994
1089.809, 65.62635
1090.291, 66.43612
1090.773, 66.69596
1091.255, 66.37234
1091.737, 66.30704
1092.219, 67.03578
1092.701, 67.75608
1093.183, 68.03540
1093.666, 68.32573
1094.148, 68.99977
1094.630, 69.86900
1095.112, 70.71784
1095.594, 71.48154
1096.076, 71.98410
1096.558, 72.12045
1097.040, 72.10095
1097.522, 71.72723
1098.005, 71.51956
1098.487, 71.82548
1098.969, 72.43138
1099.451, 73.07134
1099.933, 73.75686
1100.415, 74.72681
1100.897, 76.25440
1101.379, 77.38296
1101.861, 77.33125
1102.344, 77.49581
1102.826, 78.74393
1103.308, 80.25263
1103.790, 81.18022
1104.272, 81.73772
1104.754, 82.70986
1105.236, 84.38459
1105.718, 85.52190
1106.201, 85.00346
1106.683, 85.15440
1107.165, 87.17278
1107.647, 89.55575
1108.129, 91.26535
1108.611, 92.58681
1109.093, 94.08587
1109.575, 95.80651
1110.057, 97.60788
1110.540, 99.20166
1111.022, 101.2725
1111.504, 104.0471
1111.986, 107.1560
1112.468, 110.8158
1112.950, 114.4889
1113.432, 117.2038
1113.914, 119.0617
1114.396, 121.9455
1114.879, 126.5000
1115.361, 130.9867
1115.843, 135.2874
1116.325, 139.6405
1116.807, 143.8566
1117.289, 148.4671
1117.771, 154.0136
1118.253, 160.3917
1118.736, 167.1859
1119.218, 174.3094
1119.700, 182.1595
1120.182, 190.9545
1120.664, 200.0464
1121.146, 209.3586
1121.628, 218.8540
1122.110, 228.4012
1122.593, 238.2152
1123.075, 249.0260
1123.557, 261.0737
1124.039, 269.8937
1124.521, 275.1663
1125.003, 278.3032
1125.485, 279.6597
1125.967, 278.3916
1126.449, 273.9467
1126.932, 266.8496
1127.414, 257.6110
1127.896, 246.4293
1128.378, 234.3994
1128.860, 221.3699
1129.342, 208.8772
1129.824, 197.0367
1130.306, 186.0303
1130.788, 175.9373
1131.271, 167.1419
1131.753, 160.2621
1132.235, 152.6392
1132.717, 148.1657
1133.199, 141.1395
1133.681, 136.0554
1134.163, 132.9084
1134.645, 130.3994
1135.128, 128.2104
1135.610, 126.0962
1136.092, 123.8885
1136.574, 121.6768
1137.056, 119.4201
1137.538, 117.3176
1138.020, 116.1884
1138.502, 115.8219
1138.984, 115.3950
1139.467, 114.7870
1139.949, 114.0478
1140.431, 113.2105
1140.913, 112.5142
1141.395, 112.2697
1141.877, 111.5111
1142.359, 111.4569
1142.841, 110.5235
1143.323, 109.9884
1143.806, 109.7460
1144.288, 109.2027
1144.770, 108.3537
1145.252, 108.1007
1145.734, 109.1311
1146.216, 110.1660
1146.698, 110.0161
1147.180, 109.1571
1147.663, 107.6821
1148.145, 106.1430
1148.627, 105.4335
1149.109, 105.4429
1149.591, 105.6295
1150.073, 105.8217
1150.555, 105.2871
1151.037, 102.7091
1151.520, 100.3439
1152.002, 100.0420
1152.484, 100.2585
1152.966, 99.57374
1153.448, 98.32058
1153.930, 97.27679
1154.412, 96.54079
1154.894, 95.71127
1155.376, 94.50186
1155.859, 93.51588
1156.341, 93.29675
1156.823, 92.91284
1157.305, 91.67567
1157.787, 90.20998
1158.269, 89.23648
1158.751, 87.98031
1159.233, 86.73676
1159.715, 85.86894
1160.198, 84.58334
1160.680, 83.80515
1161.162, 83.37142
1161.644, 83.80089
1162.126, 83.85438
1162.608, 82.38562
1163.090, 80.52242
1163.572, 80.05650
1164.055, 80.89681
1164.537, 81.14095
1165.019, 80.73183
1165.501, 79.76961
1165.983, 77.84619
1166.465, 76.79434
1166.947, 77.55761
1167.429, 78.47762
1167.911, 77.98808
1168.394, 76.77712
1168.876, 76.69262
1169.358, 77.74094
1169.840, 78.24315
1170.322, 78.19372
1170.804, 77.81006
1171.286, 77.12730
1171.768, 76.89419
1172.250, 77.52918
1172.733, 78.31725
1173.215, 78.31835
1173.697, 77.93738
1174.179, 78.46632
1174.661, 79.46094
1175.143, 79.07547
1175.625, 77.63239
1176.107, 77.05757
1176.590, 77.84172
1177.072, 79.21941
1177.554, 80.80900
1178.036, 82.14169
1178.518, 82.46326
1179.000, 82.39488
1179.482, 82.62487
1179.964, 83.12021
1180.447, 83.91105
1180.929, 84.85298
1181.411, 85.54725
1181.893, 85.88121
1182.375, 86.27156
1182.857, 86.87920
1183.339, 87.71146
1183.821, 88.98503
1184.303, 90.26791
1184.786, 91.26515
1185.268, 92.02092
1185.750, 92.47549
1186.232, 92.74838
1186.714, 93.39064
1187.196, 94.71276
1187.678, 95.79012
1188.160, 95.95121
1188.642, 96.53985
1189.125, 98.44322
1189.607, 100.3927
1190.089, 101.5303
1190.571, 102.1627
1191.053, 102.7457
1191.535, 103.2802
1192.017, 103.9976
1192.499, 105.1555
1192.982, 105.5670
1193.464, 104.6288
1193.946, 104.7347
1194.428, 106.9718
1194.910, 109.7398
1195.392, 111.7139
1195.874, 113.0294
1196.356, 113.8243
1196.839, 114.1693
1197.321, 115.1107
1197.803, 116.6135
1198.285, 118.4027
1198.767, 120.3637
1199.249, 121.7039
1199.731, 122.0798
1200.213, 122.4637
1200.695, 123.9349
1201.177, 124.5407
1201.660, 126.4960
1202.142, 126.7627
1202.624, 127.7237
1203.106, 129.1370
1203.588, 130.1511
1204.070, 130.7539
1204.552, 131.6523
1205.034, 133.1710
1205.517, 134.9328
1205.999, 137.1329
1206.481, 138.9227
1206.963, 139.0880
1207.445, 139.0879
1207.927, 140.5664
1208.409, 142.8172
1208.891, 144.4353
1209.374, 145.2935
1209.856, 146.1732
1210.338, 147.1425
1210.820, 148.3288
1211.302, 150.0445
1211.784, 151.5920
1212.266, 152.9135
1212.748, 153.7702
1213.230, 153.6612
1213.713, 153.1851
1214.195, 153.4646
1214.677, 154.5012
1215.159, 156.2050
1215.641, 158.8552
1216.123, 161.0519
1216.605, 162.7335
1217.087, 163.4880
1217.569, 163.0105
1218.052, 162.6680
1218.534, 163.7104
1219.016, 165.3782
1219.498, 166.0658
1219.980, 166.0320
1220.462, 166.4360
1220.944, 167.1732
1221.426, 167.7544
1221.909, 168.1550
1222.391, 168.6419
1222.873, 169.3148
1223.355, 170.1169
1223.837, 171.1425
1224.319, 171.9440
1224.801, 171.6328
1225.283, 171.2446
1225.766, 172.4169
1226.248, 174.0120
1226.730, 174.2125
1227.212, 173.1596
1227.694, 171.8787
1228.176, 170.5690
1228.658, 170.0194
1229.140, 171.3394
1229.622, 172.2227
1230.104, 171.5200
1230.587, 170.7303
1231.069, 170.8608
1231.551, 171.2070
1232.033, 170.9854
1232.515, 170.2984
1232.997, 169.5033
1233.479, 168.5467
1233.961, 167.7760
1234.444, 167.2310
1234.926, 166.7045
1235.408, 166.1543
1235.890, 165.6564
1236.372, 165.2526
1236.854, 164.8829
1237.336, 164.4947
1237.818, 164.0546
1238.301, 163.4247
1238.783, 162.6742
1239.265, 162.0622
1239.747, 161.5671
1240.229, 161.1584
1240.711, 160.7402
1241.193, 159.8232
1241.675, 158.2070
1242.157, 156.8109
1242.640, 156.4795
1243.122, 156.5349
1243.604, 156.6613
1244.086, 156.6233
1244.568, 156.0022
1245.050, 155.1781
1245.532, 154.8330
1246.014, 154.8398
1246.496, 154.3981
1246.979, 153.2160
1247.461, 152.2389
1247.943, 151.6047
1248.425, 151.2179
1248.907, 151.1880
1249.389, 151.2301
1249.871, 151.3225
1250.353, 151.2722
1250.836, 150.8195
1251.318, 150.0853
1251.800, 149.4816
1252.282, 149.0055
1252.764, 148.7514
1253.246, 148.7246
1253.728, 148.5578
1254.210, 148.1980
1254.693, 148.0771
1255.175, 148.3872
1255.657, 148.6701
1256.139, 148.4648
1256.621, 148.0486
1257.103, 147.7597
1257.585, 147.5961
1258.067, 147.6214
1258.549, 147.7359
1259.031, 147.7520
1259.514, 147.6833
1259.996, 147.7329
1260.478, 147.9572
1260.960, 147.8622
1261.442, 146.4787
1261.924, 145.8568
1262.406, 147.7156
1262.888, 149.2871
1263.371, 148.4856
1263.853, 147.2173
1264.335, 147.6422
1264.817, 148.9792
1265.299, 149.2321
1265.781, 148.3059
1266.263, 147.9592
1266.745, 148.3237
1267.228, 148.5834
1267.710, 148.6363
1268.192, 148.7480
1268.674, 149.0120
1269.156, 149.3582
1269.638, 149.7447
1270.120, 150.1027
1270.602, 150.2066
1271.084, 150.2705
1271.567, 150.8316
1272.049, 151.7023
1272.531, 152.6624
1273.013, 153.5107
1273.495, 153.6744
1273.977, 153.1973
1274.459, 153.1890
1274.941, 154.2964
1275.423, 155.3779
1275.906, 155.9602
1276.388, 156.3125
1276.870, 156.1376
1277.352, 156.2290
1277.834, 157.4813
1278.316, 159.2169
1278.798, 160.4286
1279.280, 161.1501
1279.763, 161.5434
1280.245, 161.4330
1280.727, 161.6987
1281.209, 162.4228
1281.691, 163.1702
1282.173, 163.8550
1282.655, 164.4561
1283.137, 164.9568
1283.620, 165.5918
1284.102, 166.6195
1284.584, 167.8435
1285.066, 168.9845
##END=



