##NAMES=Leightonite
##RRUFFID=R050211
##IDEAL CHEMISTRY=K_2_Ca_2_Cu^2+^(S^6+^O_4_)_4_&#183;2H_2_O
##LOCALITY=Chuquicamata mine, Calama, Antofagasta Province, Chile
##OWNER=RRUFF
##SOURCE=John Dagenais
##DESCRIPTION=Blue lathlike crystals
##STATUS=The identification of this mineral has been confirmed by X-ray diffraction and chemical analysis
##URL=rruff.info/R050211
##MEASURED CHEMISTRY=(K_1.91_Na_0.09_)_Σ=2_Ca_2.00_Cu_1.00_(S_1.00_O_4_)_4_·1.96H_2_O
93.74609, 4.332794
94.22821, 4.142987
94.71033, 4.208577
95.19244, 4.499506
95.67456, 4.894473
96.15668, 5.372195
96.63879, 5.916741
97.12091, 6.461591
97.60303, 6.993804
98.08514, 7.571814
98.56726, 8.282623
99.04938, 9.131512
99.53149, 10.05627
100.0136, 10.99704
100.4957, 11.94636
100.9778, 13.04695
101.4600, 14.31830
101.9421, 15.73347
102.4242, 17.15849
102.9063, 18.56783
103.3884, 20.07987
103.8705, 21.80243
104.3527, 23.88194
104.8348, 25.78795
105.3169, 27.43535
105.7990, 28.84073
106.2811, 30.37502
106.7632, 32.14209
107.2454, 33.92406
107.7275, 35.50729
108.2096, 36.80790
108.6917, 38.04686
109.1738, 39.17020
109.6559, 40.11389
110.1381, 41.42930
110.6202, 43.28353
111.1023, 45.46094
111.5844, 47.73534
112.0665, 49.98923
112.5486, 52.47286
113.0308, 55.30310
113.5129, 58.62423
113.9950, 61.92363
114.4771, 65.16988
114.9592, 68.33533
115.4413, 71.42620
115.9235, 74.58520
116.4056, 77.54746
116.8877, 80.12505
117.3698, 82.23035
117.8519, 84.19212
118.3340, 86.20280
118.8162, 88.16689
119.2983, 89.84291
119.7804, 91.01244
120.2625, 91.93705
120.7446, 92.78960
121.2267, 93.51115
121.7089, 94.32284
122.1910, 95.09005
122.6731, 95.95052
123.1552, 97.51978
123.6373, 101.3460
124.1194, 105.7600
124.6016, 108.7199
125.0837, 108.9674
125.5658, 107.9144
126.0479, 106.5231
126.5300, 104.8400
127.0121, 103.6475
127.4943, 103.9592
127.9764, 105.2734
128.4585, 106.4470
128.9406, 106.8515
129.4227, 106.8950
129.9048, 107.3757
130.3869, 108.3345
130.8691, 109.3252
131.3512, 109.9619
131.8333, 110.2406
132.3154, 110.1368
132.7975, 109.3644
133.2796, 108.1214
133.7618, 107.3755
134.2439, 106.9848
134.7260, 106.3315
135.2081, 105.2108
135.6902, 103.8683
136.1723, 102.5807
136.6545, 101.4997
137.1366, 100.6270
137.6187, 99.74142
138.1008, 98.81634
138.5829, 97.88821
139.0650, 97.01100
139.5472, 96.18367
140.0293, 95.39412
140.5114, 94.56997
140.9935, 93.63102
141.4756, 93.04147
141.9577, 92.91956
142.4399, 93.12266
142.9220, 93.11718
143.4041, 92.78506
143.8862, 92.45891
144.3683, 92.33768
144.8504, 92.45938
145.3326, 92.69692
145.8147, 93.08823
146.2968, 93.60749
146.7789, 93.99037
147.2610, 94.16968
147.7431, 94.28393
148.2253, 94.44298
148.7074, 94.78910
149.1895, 94.96947
149.6716, 94.87280
150.1537, 94.49183
150.6358, 94.22012
151.1180, 94.09134
151.6001, 94.05215
152.0822, 94.06020
152.5643, 94.26698
153.0464, 94.36380
153.5285, 94.31870
154.0107, 94.13570
154.4928, 93.79089
154.9749, 93.03370
155.4570, 92.21362
155.9391, 91.67594
156.4212, 91.86633
156.9034, 91.95738
157.3855, 91.70177
157.8676, 91.03770
158.3497, 90.29652
158.8318, 89.38840
159.3139, 88.47128
159.7961, 87.74043
160.2782, 87.57816
160.7603, 87.33700
161.2424, 86.68220
161.7245, 85.45081
162.2066, 84.30783
162.6888, 83.53445
163.1709, 82.98493
163.6530, 82.42371
164.1351, 81.75297
164.6172, 81.05232
165.0993, 80.36714
165.5815, 79.70464
166.0636, 79.04941
166.5457, 78.26357
167.0278, 77.47034
167.5099, 76.92683
167.9920, 76.90752
168.4742, 77.09898
168.9563, 77.27190
169.4384, 77.40431
169.9205, 77.47234
170.4026, 77.39072
170.8847, 77.22108
171.3669, 77.13044
171.8490, 77.22323
172.3311, 77.43777
172.8132, 77.70763
173.2953, 78.01244
173.7774, 78.38497
174.2596, 78.86526
174.7417, 79.44219
175.2238, 80.07182
175.7059, 80.82638
176.1880, 81.58488
176.6701, 82.16043
177.1523, 82.46615
177.6344, 82.63802
178.1165, 82.75710
178.5986, 82.84536
179.0807, 83.03280
179.5628, 83.51709
180.0450, 84.16238
180.5271, 84.68539
181.0092, 84.99821
181.4913, 85.18893
181.9734, 85.39066
182.4555, 85.59869
182.9377, 85.74535
183.4198, 85.68720
183.9019, 85.51397
184.3840, 85.48400
184.8661, 85.65266
185.3482, 86.00884
185.8304, 86.61868
186.3125, 87.48133
186.7946, 88.33909
187.2767, 88.91996
187.7588, 89.28719
188.2409, 89.70346
188.7231, 90.25085
189.2052, 90.89101
189.6873, 91.55122
190.1694, 92.24040
190.6515, 92.90280
191.1336, 93.39148
191.6158, 93.74560
192.0979, 94.34615
192.5800, 95.44761
193.0621, 96.84673
193.5442, 97.81489
194.0263, 98.32682
194.5085, 98.61938
194.9906, 98.89883
195.4727, 99.16608
195.9548, 99.42945
196.4369, 99.71823
196.9190, 100.0067
197.4012, 100.1989
197.8833, 100.3219
198.3654, 100.2487
198.8475, 99.70950
199.3296, 98.67076
199.8117, 97.83260
200.2939, 97.47453
200.7760, 97.51554
201.2581, 97.30424
201.7402, 96.78431
202.2223, 96.16605
202.7044, 95.76450
203.1866, 95.64721
203.6687, 95.24305
204.1508, 94.28962
204.6329, 92.83559
205.1150, 91.62193
205.5971, 90.66855
206.0793, 89.91028
206.5614, 89.29286
207.0435, 88.83743
207.5256, 88.45139
208.0077, 88.17421
208.4898, 87.99841
208.9720, 87.51743
209.4541, 86.63193
209.9362, 85.61163
210.4183, 84.76257
210.9004, 84.11317
211.3825, 83.55276
211.8647, 83.05411
212.3468, 82.61726
212.8289, 82.26351
213.3110, 82.05649
213.7931, 81.84049
214.2752, 81.43577
214.7574, 80.81741
215.2395, 80.06821
215.7216, 79.13523
216.2037, 78.01287
216.6858, 77.13615
217.1679, 76.57310
217.6500, 76.16752
218.1322, 75.75710
218.6143, 75.35350
219.0964, 74.90031
219.5785, 74.36356
220.0606, 73.72849
220.5427, 73.20757
221.0249, 72.83485
221.5070, 72.54073
221.9891, 72.25237
222.4712, 71.95663
222.9533, 71.69083
223.4354, 71.48335
223.9176, 71.33758
224.3997, 71.12594
224.8818, 70.77117
225.3639, 70.43301
225.8460, 70.29539
226.3281, 70.44908
226.8103, 70.61678
227.2924, 70.72695
227.7745, 70.77550
228.2566, 70.89502
228.7387, 71.12980
229.2208, 71.38890
229.7030, 71.57401
230.1851, 71.67175
230.6672, 71.71839
231.1493, 71.67122
231.6314, 71.51936
232.1135, 71.59005
232.5957, 71.98322
233.0778, 72.49284
233.5599, 72.90471
234.0420, 73.13611
234.5241, 73.43620
235.0062, 73.89786
235.4884, 74.51858
235.9705, 74.96400
236.4526, 75.12895
236.9347, 75.23363
237.4168, 75.48814
237.8989, 75.97264
238.3811, 76.45089
238.8632, 76.89962
239.3453, 77.31911
239.8274, 77.64671
240.3095, 77.90445
240.7916, 78.04900
241.2738, 78.00130
241.7559, 77.54786
242.2380, 77.33909
242.7201, 77.56843
243.2022, 78.20297
243.6843, 78.62410
244.1665, 78.74122
244.6486, 78.75972
245.1307, 78.81335
245.6128, 78.82417
246.0949, 79.04723
246.5770, 79.62759
247.0592, 80.50549
247.5413, 81.08526
248.0234, 81.23715
248.5055, 81.24863
248.9876, 81.30288
249.4697, 81.38845
249.9519, 81.54039
250.4340, 81.77086
250.9161, 82.07116
251.3982, 82.42126
251.8803, 82.93115
252.3624, 83.32910
252.8446, 83.40810
253.3267, 83.00247
253.8088, 82.67981
254.2909, 82.52522
254.7730, 82.48537
255.2551, 82.32384
255.7373, 81.95180
256.2194, 81.60473
256.7015, 81.42525
257.1836, 81.47227
257.6657, 81.51671
258.1478, 81.49266
258.6299, 81.47349
259.1121, 81.70349
259.5942, 82.28098
260.0763, 82.93700
260.5584, 83.55415
261.0405, 84.10051
261.5226, 84.67152
262.0048, 85.20263
262.4869, 85.79259
262.9690, 86.71265
263.4511, 88.03368
263.9332, 89.52075
264.4153, 91.10783
264.8975, 92.86806
265.3796, 94.48982
265.8617, 95.97379
266.3438, 97.33106
266.8259, 98.60747
267.3080, 99.77727
267.7902, 100.9111
268.2723, 102.0210
268.7544, 103.1329
269.2365, 104.1592
269.7186, 105.1221
270.2007, 105.9717
270.6829, 106.5758
271.1650, 106.8636
271.6471, 107.1716
272.1292, 107.7271
272.6113, 108.5526
273.0934, 108.7102
273.5756, 108.0132
274.0577, 106.9801
274.5398, 106.2548
275.0219, 105.9108
275.5040, 105.5324
275.9861, 105.0209
276.4683, 104.3769
276.9504, 103.6025
277.4325, 102.6875
277.9146, 101.6680
278.3967, 100.5939
278.8788, 99.47826
279.3610, 98.21082
279.8431, 96.69650
280.3252, 95.02063
280.8073, 93.61185
281.2894, 92.53740
281.7715, 91.45350
282.2537, 90.02763
282.7358, 88.25343
283.2179, 86.44614
283.7000, 84.64977
284.1821, 82.86336
284.6642, 81.13749
285.1464, 79.47185
285.6285, 77.79527
286.1106, 76.00794
286.5927, 74.12547
287.0748, 72.38367
287.5569, 70.84868
288.0391, 69.42249
288.5212, 67.87299
289.0033, 66.19051
289.4854, 64.62295
289.9675, 63.41317
290.4496, 62.48864
290.9318, 61.45403
291.4139, 60.25121
291.8960, 58.95805
292.3781, 57.62453
292.8602, 56.26158
293.3423, 55.11993
293.8245, 54.51412
294.3066, 54.24301
294.7887, 53.61105
295.2708, 52.53695
295.7529, 51.32989
296.2350, 50.34064
296.7172, 49.55124
297.1993, 48.85697
297.6814, 48.24054
298.1635, 47.67339
298.6456, 47.12505
299.1277, 46.59706
299.6099, 46.02584
300.0920, 45.31701
300.5741, 44.51484
301.0562, 43.76234
301.5383, 43.06878
302.0204, 42.46929
302.5026, 42.08249
302.9847, 41.89580
303.4668, 41.69960
303.9489, 41.29206
304.4310, 40.76164
304.9131, 40.24570
305.3953, 39.78427
305.8774, 39.36224
306.3595, 38.95547
306.8416, 38.57392
307.3237, 38.25978
307.8058, 38.13140
308.2880, 38.05847
308.7701, 37.86546
309.2522, 37.44780
309.7343, 37.02732
310.2164, 36.78619
310.6985, 36.68390
311.1807, 36.61229
311.6628, 36.47220
312.1449, 36.35879
312.6270, 36.40526
313.1091, 36.70486
313.5912, 36.90032
314.0734, 36.65885
314.5555, 36.17860
315.0376, 35.81813
315.5197, 35.82139
316.0018, 35.92131
316.4839, 35.96329
316.9661, 35.92791
317.4482, 35.88054
317.9303, 35.88662
318.4124, 35.88425
318.8945, 35.80059
319.3766, 35.47719
319.8588, 35.19074
320.3409, 35.09698
320.8230, 35.19464
321.3051, 35.22969
321.7872, 35.02950
322.2693, 34.79076
322.7515, 34.66831
323.2336, 34.85588
323.7157, 34.98910
324.1978, 34.94362
324.6799, 34.75631
325.1620, 34.64405
325.6442, 34.76548
326.1263, 34.87905
326.6084, 34.85388
327.0905, 34.45534
327.5726, 34.22444
328.0547, 34.30852
328.5369, 34.58955
329.0190, 34.75882
329.5011, 34.77404
329.9832, 34.71295
330.4653, 34.58514
330.9474, 34.34044
331.4296, 34.15953
331.9117, 34.05457
332.3938, 34.00905
332.8759, 34.00147
333.3580, 34.05313
333.8401, 34.11261
334.3223, 34.17848
334.8044, 34.25678
335.2865, 34.26539
335.7686, 34.13799
336.2507, 34.01532
336.7328, 34.05591
337.2150, 34.34528
337.6971, 34.56540
338.1792, 34.64163
338.6613, 34.60049
339.1434, 34.62867
339.6255, 34.76786
340.1077, 34.87781
340.5898, 34.82830
341.0719, 34.58700
341.5540, 34.43036
342.0361, 34.38699
342.5182, 34.44197
343.0003, 34.61554
343.4825, 34.93483
343.9646, 35.16317
344.4467, 35.11281
344.9288, 34.81024
345.4109, 34.60118
345.8930, 34.50546
346.3752, 34.48195
346.8573, 34.47544
347.3394, 34.48809
347.8215, 34.54845
348.3036, 34.70790
348.7857, 34.91837
349.2679, 35.03286
349.7500, 35.04858
350.2321, 35.02895
350.7142, 35.06112
351.1963, 35.11002
351.6784, 35.05153
352.1606, 34.74606
352.6427, 34.43182
353.1248, 34.53741
353.6069, 34.99578
354.0890, 35.37595
354.5711, 35.26441
355.0533, 34.92657
355.5354, 34.74436
356.0175, 34.82055
356.4996, 34.98590
356.9817, 35.15578
357.4638, 35.30619
357.9460, 35.37941
358.4281, 35.26317
358.9102, 35.11086
359.3923, 35.04332
359.8744, 35.07470
360.3565, 35.15962
360.8387, 35.37203
361.3208, 35.59283
361.8029, 35.67308
362.2850, 35.33764
362.7671, 35.05243
363.2492, 35.07351
363.7314, 35.37817
364.2135, 35.64155
364.6956, 35.76035
365.1777, 35.79334
365.6598, 35.77671
366.1419, 35.57491
366.6241, 35.49868
367.1062, 35.74382
367.5883, 36.17509
368.0704, 36.39137
368.5525, 36.05577
369.0346, 35.74385
369.5168, 35.70147
369.9989, 36.12282
370.4810, 36.37488
370.9631, 36.39244
371.4452, 36.27093
371.9273, 36.12722
372.4095, 35.87947
372.8916, 35.73437
373.3737, 35.76670
373.8558, 35.98402
374.3379, 36.13897
374.8200, 36.19825
375.3022, 36.24222
375.7843, 36.34585
376.2664, 36.53992
376.7485, 36.68976
377.2306, 36.76077
377.7127, 36.78331
378.1949, 36.87931
378.6770, 37.07824
379.1591, 37.22709
379.6412, 37.21012
380.1233, 37.02544
380.6054, 36.87390
381.0876, 36.75739
381.5697, 36.69031
382.0518, 36.70407
382.5339, 36.79535
383.0160, 36.91848
383.4981, 37.11037
383.9803, 37.31207
384.4624, 37.26015
384.9445, 36.94364
385.4266, 36.71401
385.9087, 37.03244
386.3908, 37.68764
386.8730, 38.12072
387.3551, 38.11919
387.8372, 37.95383
388.3193, 37.93018
388.8014, 38.02732
389.2835, 38.15852
389.7657, 38.31958
390.2478, 38.46481
390.7299, 38.50125
391.2120, 38.37431
391.6941, 38.33756
392.1762, 38.62624
392.6584, 39.10973
393.1405, 39.58510
393.6226, 40.12976
394.1047, 40.51228
394.5868, 40.48726
395.0689, 40.06834
395.5511, 39.79345
396.0332, 39.96099
396.5153, 40.29107
396.9974, 40.57033
397.4795, 40.68237
397.9616, 40.82609
398.4438, 41.06360
398.9259, 41.36322
399.4080, 41.62547
399.8901, 41.66668
400.3722, 41.82501
400.8543, 42.26442
401.3365, 43.15512
401.8186, 43.82878
402.3007, 44.15361
402.7828, 44.34143
403.2649, 44.65107
403.7470, 45.13206
404.2292, 45.64167
404.7113, 46.13945
405.1934, 46.63313
405.6755, 47.19555
406.1576, 47.83175
406.6397, 48.51267
407.1219, 49.21759
407.6040, 49.94637
408.0861, 50.70654
408.5682, 51.51242
409.0503, 52.33550
409.5324, 53.10956
410.0146, 53.83045
410.4967, 54.68791
410.9788, 55.78554
411.4609, 57.09288
411.9430, 58.59771
412.4251, 60.34185
412.9073, 62.02089
413.3894, 63.22902
413.8715, 64.14833
414.3536, 65.29005
414.8357, 66.84082
415.3178, 68.65793
415.8000, 70.62907
416.2821, 72.73401
416.7642, 74.79588
417.2463, 76.50551
417.7284, 78.22014
418.2105, 80.33321
418.6927, 83.00255
419.1748, 85.73082
419.6569, 88.26249
420.1390, 90.69301
420.6211, 93.09521
421.1032, 95.58967
421.5854, 98.04488
422.0675, 100.3776
422.5496, 102.6119
423.0317, 104.8505
423.5138, 107.2368
423.9959, 109.5800
424.4781, 111.7968
424.9602, 113.7955
425.4423, 115.7033
425.9244, 117.4891
426.4065, 119.2008
426.8886, 120.9645
427.3708, 123.0531
427.8529, 124.8747
428.3350, 126.1677
428.8171, 126.8256
429.2992, 127.7415
429.7813, 129.0995
430.2635, 130.4690
430.7456, 131.4122
431.2277, 131.8351
431.7098, 132.1959
432.1919, 132.5647
432.6740, 132.9253
433.1562, 133.3064
433.6383, 133.7431
434.1204, 133.8855
434.6025, 133.6225
435.0846, 132.9161
435.5667, 131.3525
436.0489, 128.7516
436.5310, 125.9905
437.0131, 124.2269
437.4952, 123.2294
437.9773, 122.2290
438.4594, 120.7708
438.9416, 119.2994
439.4236, 118.3349
439.9058, 117.8723
440.3879, 117.8855
440.8700, 118.3233
441.3521, 119.2375
441.8342, 120.7229
442.3163, 122.8739
442.7985, 125.3610
443.2806, 127.5795
443.7627, 130.0743
444.2448, 133.7682
444.7269, 139.8206
445.2090, 146.3026
445.6912, 152.4718
446.1733, 158.2935
446.6554, 164.2821
447.1375, 170.8948
447.6196, 177.4046
448.1017, 183.3710
448.5839, 189.9928
449.0660, 194.3606
449.5481, 196.2479
450.0302, 195.9196
450.5123, 193.7706
450.9944, 189.2840
451.4766, 183.9172
451.9587, 177.7924
452.4408, 170.7827
452.9229, 164.8071
453.4050, 159.7081
453.8871, 155.7864
454.3693, 153.2642
454.8514, 152.1465
455.3335, 152.3079
455.8156, 153.8162
456.2977, 156.4662
456.7798, 159.8241
457.2620, 163.9316
457.7441, 168.9434
458.2262, 175.0000
458.7083, 182.0248
459.1904, 190.2072
459.6725, 199.5484
460.1547, 209.3501
460.6368, 219.3270
461.1189, 229.3205
461.6010, 238.9614
462.0831, 248.4894
462.5652, 257.1493
463.0474, 264.9397
463.5295, 271.4668
464.0116, 275.4001
464.4937, 275.9537
464.9758, 273.8716
465.4579, 269.3395
465.9401, 262.2635
466.4222, 253.5984
466.9043, 242.1959
467.3864, 230.0144
467.8685, 218.8986
468.3506, 208.9475
468.8328, 200.2168
469.3149, 192.9565
469.7970, 186.9691
470.2791, 181.3570
470.7612, 175.9977
471.2433, 171.2681
471.7255, 167.4011
472.2076, 164.4930
472.6897, 161.8373
473.1718, 159.5014
473.6539, 157.1967
474.1360, 154.6699
474.6182, 151.9312
475.1003, 148.6458
475.5824, 144.5482
476.0645, 140.0385
476.5466, 136.2231
477.0287, 133.0285
477.5109, 129.7285
477.9930, 125.6853
478.4751, 121.2669
478.9572, 117.1607
479.4393, 113.4161
479.9214, 109.9202
480.4036, 106.6219
480.8857, 103.5301
481.3678, 100.6940
481.8499, 98.33696
482.3320, 95.99393
482.8141, 93.32497
483.2963, 90.44215
483.7784, 87.71646
484.2605, 85.54308
484.7426, 83.39075
485.2247, 80.92984
485.7068, 78.02841
486.1890, 75.36047
486.6711, 73.16243
487.1532, 71.16252
487.6353, 69.07876
488.1174, 66.79725
488.5995, 64.69025
489.0817, 62.85441
489.5638, 61.21770
490.0459, 59.45314
490.5280, 57.44693
491.0101, 55.58170
491.4922, 54.01100
491.9744, 52.72624
492.4565, 51.62067
492.9386, 50.70652
493.4207, 49.86201
493.9028, 48.91343
494.3849, 47.89439
494.8671, 47.10577
495.3492, 46.67018
495.8313, 46.37457
496.3134, 45.91006
496.7955, 45.30890
497.2776, 44.67838
497.7598, 43.98343
498.2419, 43.35052
498.7240, 42.97759
499.2061, 42.86905
499.6882, 42.74424
500.1703, 42.37374
500.6525, 41.94049
501.1346, 41.61777
501.6167, 41.48750
502.0988, 41.40291
502.5809, 41.38846
503.0630, 41.38630
503.5452, 41.27629
504.0273, 40.91845
504.5094, 40.57791
504.9915, 40.33334
505.4736, 40.18919
505.9557, 39.99567
506.4379, 39.66856
506.9200, 39.40712
507.4021, 39.40577
507.8842, 39.76876
508.3663, 39.89285
508.8484, 39.69447
509.3306, 39.32621
509.8127, 39.02104
510.2948, 38.77993
510.7769, 38.56471
511.2590, 38.34220
511.7411, 38.14918
512.2233, 38.12718
512.7054, 38.25835
513.1875, 38.34154
513.6696, 38.15588
514.1517, 37.86153
514.6339, 37.68673
515.1160, 37.67678
515.5981, 37.72003
516.0802, 37.76128
516.5623, 37.80152
517.0444, 37.84222
517.5266, 37.99660
518.0087, 38.03515
518.4908, 37.75210
518.9729, 37.24335
519.4550, 36.94381
519.9371, 37.13684
520.4193, 37.36863
520.9014, 37.47577
521.3835, 37.44987
521.8656, 37.32093
522.3477, 36.98362
522.8298, 36.65987
523.3120, 36.58399
523.7941, 36.80806
524.2762, 37.06804
524.7583, 37.38135
525.2404, 37.65179
525.7225, 37.58213
526.2047, 37.17590
526.6868, 36.82382
527.1689, 36.75233
527.6510, 36.86654
528.1331, 36.93079
528.6152, 36.94670
529.0974, 36.94389
529.5795, 36.90823
530.0616, 36.88173
530.5437, 36.93174
531.0258, 37.09294
531.5079, 37.27064
531.9901, 37.46718
532.4722, 37.63210
532.9543, 37.68532
533.4364, 37.47805
533.9185, 37.28124
534.4006, 37.17403
534.8828, 37.15509
535.3649, 37.18052
535.8470, 37.22295
536.3291, 37.33198
536.8112, 37.54979
537.2933, 37.92857
537.7755, 38.20344
538.2576, 38.34546
538.7397, 38.41988
539.2218, 38.49975
539.7039, 38.58902
540.1860, 38.63068
540.6682, 38.60569
541.1503, 38.53860
541.6324, 38.45202
542.1145, 38.35366
542.5966, 38.31339
543.0787, 38.41003
543.5609, 38.57151
544.0430, 38.67128
544.5251, 38.71183
545.0072, 38.76720
545.4893, 38.97213
545.9714, 39.17795
546.4536, 39.20660
546.9357, 38.94192
547.4178, 38.71275
547.8999, 38.64105
548.3820, 38.68884
548.8641, 38.80372
549.3463, 39.09710
549.8284, 39.32026
550.3105, 39.39350
550.7926, 39.34682
551.2747, 39.32827
551.7568, 39.30904
552.2390, 39.36593
552.7211, 39.57531
553.2032, 39.96392
553.6853, 40.15672
554.1674, 40.11084
554.6495, 40.00253
555.1317, 40.00633
555.6138, 40.11010
556.0959, 40.22231
556.5780, 40.32352
557.0601, 40.43816
557.5422, 40.61466
558.0244, 40.83466
558.5065, 41.04455
558.9886, 41.27972
559.4707, 41.44753
559.9528, 41.39100
560.4349, 41.15630
560.9171, 41.02522
561.3992, 41.23143
561.8813, 41.50401
562.3634, 41.65900
562.8455, 41.61983
563.3276, 41.64560
563.8098, 41.86934
564.2919, 42.11199
564.7740, 42.20107
565.2561, 41.99086
565.7382, 41.92632
566.2203, 42.10463
566.7025, 42.42221
567.1846, 42.62201
567.6667, 42.70056
568.1488, 42.70473
568.6309, 42.60225
569.1130, 42.44942
569.5952, 42.46404
570.0773, 42.64577
570.5594, 42.88238
571.0415, 43.18240
571.5236, 43.45842
572.0057, 43.53482
572.4879, 43.36700
572.9700, 43.16422
573.4521, 43.04037
573.9342, 42.98101
574.4163, 42.97069
574.8984, 43.00261
575.3806, 43.08371
575.8627, 43.26697
576.3448, 43.50347
576.8269, 43.65798
577.3090, 43.61710
577.7911, 43.61408
578.2733, 43.72063
578.7554, 43.93300
579.2375, 44.13453
579.7196, 44.33854
580.2017, 44.49883
580.6838, 44.55476
581.1660, 44.50834
581.6481, 44.53254
582.1302, 44.64502
582.6123, 44.78889
583.0944, 44.85191
583.5765, 44.88671
584.0587, 45.08197
584.5408, 45.62262
585.0229, 46.11195
585.5050, 45.98332
585.9871, 45.48656
586.4692, 45.23116
586.9514, 45.69090
587.4335, 46.27233
587.9155, 46.67834
588.3976, 46.90639
588.8798, 47.14518
589.3619, 47.42276
589.8440, 47.72766
590.3261, 48.06579
590.8082, 48.46439
591.2903, 48.78127
591.7725, 48.97168
592.2546, 49.13883
592.7367, 49.39683
593.2188, 49.75386
593.7009, 50.08849
594.1830, 50.33558
594.6652, 50.64012
595.1473, 51.34632
595.6294, 52.38087
596.1115, 53.36546
596.5936, 54.07573
597.0757, 54.68756
597.5579, 55.43030
598.0400, 56.26976
598.5221, 57.09779
599.0042, 57.78963
599.4863, 58.49593
599.9684, 59.34647
600.4506, 60.37624
600.9327, 61.35998
601.4148, 62.18570
601.8969, 62.98734
602.3790, 63.87444
602.8611, 64.95411
603.3433, 65.92343
603.8254, 66.71386
604.3075, 67.43893
604.7896, 68.22274
605.2717, 69.04794
605.7538, 70.12240
606.2360, 71.59138
606.7181, 73.22669
607.2002, 74.36548
607.6823, 75.07678
608.1644, 75.84995
608.6465, 76.89790
609.1287, 78.20011
609.6108, 79.78331
610.0929, 81.63189
610.5750, 83.50821
611.0571, 85.15416
611.5392, 86.87243
612.0214, 88.89100
612.5035, 91.28300
612.9856, 93.91578
613.4677, 96.93539
613.9498, 100.1221
614.4319, 103.2770
614.9141, 106.3825
615.3962, 109.5626
615.8783, 112.8434
616.3604, 116.1994
616.8425, 119.5414
617.3246, 122.8704
617.8068, 126.0629
618.2889, 129.0229
618.7710, 131.7766
619.2531, 134.3099
619.7352, 136.6557
620.2173, 138.9127
620.6995, 141.0453
621.1816, 143.1928
621.6637, 145.4284
622.1458, 147.7847
622.6279, 150.3981
623.1100, 153.1076
623.5922, 156.2487
624.0743, 160.1476
624.5564, 165.3316
625.0385, 170.3630
625.5206, 174.8977
626.0027, 179.2996
626.4849, 183.9804
626.9670, 189.1877
627.4491, 194.2105
627.9312, 199.1184
628.4133, 203.6341
628.8954, 206.9751
629.3776, 209.1246
629.8597, 210.9163
630.3418, 212.8502
630.8239, 214.5851
631.3060, 215.6759
631.7881, 216.0568
632.2703, 215.3010
632.7524, 212.6898
633.2345, 209.1089
633.7166, 205.3643
634.1987, 201.6041
634.6808, 197.0140
635.1630, 190.8878
635.6451, 184.0962
636.1272, 177.2104
636.6093, 170.1726
637.0914, 163.3327
637.5735, 156.7755
638.0557, 150.3917
638.5378, 144.1189
639.0199, 137.8769
639.5020, 132.0162
639.9841, 126.5444
640.4662, 121.5600
640.9484, 117.2156
641.4305, 113.4805
641.9126, 110.0357
642.3947, 106.4854
642.8768, 103.3030
643.3589, 101.1533
643.8411, 99.88096
644.3232, 98.83535
644.8053, 97.59867
645.2874, 96.53588
645.7695, 95.94691
646.2516, 95.91792
646.7338, 95.67756
647.2159, 94.80421
647.6980, 93.94683
648.1801, 93.56067
648.6622, 94.06268
649.1443, 93.67492
649.6265, 92.24633
650.1086, 90.24083
650.5907, 88.21169
651.0728, 86.12540
651.5549, 83.66410
652.0370, 80.66763
652.5192, 77.56197
653.0013, 75.06296
653.4834, 72.97970
653.9655, 70.85342
654.4476, 68.40203
654.9297, 65.97787
655.4119, 63.75121
655.8940, 61.71374
656.3761, 59.80096
656.8582, 58.03848
657.3403, 56.38795
657.8224, 54.79759
658.3046, 53.27807
658.7867, 51.98437
659.2688, 51.02290
659.7509, 50.08187
660.2330, 48.91515
660.7151, 47.52193
661.1973, 46.60228
661.6794, 46.21267
662.1615, 45.87820
662.6436, 45.10859
663.1257, 44.06985
663.6078, 43.13334
664.0900, 42.36030
664.5721, 41.65838
665.0542, 40.95232
665.5363, 40.26806
666.0184, 39.64059
666.5005, 39.18269
666.9827, 38.64556
667.4648, 37.85692
667.9469, 36.97285
668.4290, 36.29274
668.9111, 35.86335
669.3932, 35.54810
669.8754, 35.36062
670.3575, 35.25338
670.8396, 35.05242
671.3217, 34.74757
671.8038, 34.50784
672.2859, 34.47269
672.7681, 34.53183
673.2502, 34.40934
673.7323, 34.13091
674.2144, 33.88371
674.6965, 33.84470
675.1786, 33.85653
675.6608, 33.76477
676.1429, 33.54830
676.6250, 33.39090
677.1071, 33.40733
677.5892, 33.45925
678.0714, 33.45318
678.5535, 33.36026
679.0356, 33.28445
679.5177, 33.22859
679.9998, 33.18614
680.4819, 33.16383
680.9641, 33.16257
681.4462, 33.10623
681.9283, 32.96693
682.4104, 32.82402
682.8925, 32.80458
683.3746, 32.87142
683.8568, 32.92933
684.3389, 32.96650
684.8210, 32.95739
685.3031, 32.86300
685.7852, 32.71051
686.2673, 32.55777
686.7495, 32.32406
687.2316, 32.19634
687.7137, 32.26911
688.1958, 32.49943
688.6779, 32.73975
689.1600, 33.03817
689.6422, 33.24395
690.1243, 33.28503
690.6064, 33.18107
691.0885, 33.03677
691.5706, 32.84859
692.0527, 32.71049
692.5349, 32.69515
693.0170, 32.76691
693.4991, 32.91135
693.9812, 33.12341
694.4633, 33.23676
694.9454, 32.99580
695.4276, 32.70428
695.9097, 32.63814
696.3918, 32.95514
696.8739, 33.13593
697.3560, 32.92203
697.8381, 32.68701
698.3203, 32.75866
698.8024, 33.28773
699.2845, 33.62417
699.7666, 33.70992
700.2487, 33.62999
700.7308, 33.42590
701.2130, 33.13094
701.6951, 32.95585
702.1772, 32.96684
702.6593, 33.08458
703.1414, 33.29025
703.6235, 33.52618
704.1057, 33.67946
704.5878, 33.63372
705.0699, 33.57183
705.5520, 33.54471
706.0341, 33.55688
706.5162, 33.62550
706.9984, 33.82825
707.4805, 33.97135
707.9626, 33.98930
708.4447, 33.91042
708.9268, 33.88530
709.4089, 33.91918
709.8911, 33.96420
710.3732, 33.99900
710.8553, 34.02562
711.3374, 34.02768
711.8195, 34.01274
712.3016, 34.05120
712.7838, 34.30641
713.2659, 34.55476
713.7480, 34.57147
714.2301, 34.32422
714.7122, 34.11693
715.1943, 33.96473
715.6765, 33.93659
716.1586, 34.09285
716.6407, 34.50892
717.1228, 34.81742
717.6049, 34.99731
718.0870, 35.11968
718.5692, 35.26025
719.0513, 35.41057
719.5334, 35.46492
720.0155, 35.40045
720.4976, 35.31892
720.9797, 35.34388
721.4619, 35.41847
721.9440, 35.43925
722.4261, 35.33024
722.9082, 35.27853
723.3903, 35.45688
723.8724, 35.70977
724.3546, 35.83480
724.8367, 35.62907
725.3188, 35.55666
725.8009, 35.73528
726.2830, 36.00407
726.7651, 36.00944
727.2473, 35.71289
727.7294, 35.58144
728.2115, 35.79498
728.6936, 36.15167
729.1757, 36.26466
729.6578, 36.19632
730.1400, 36.16314
730.6221, 36.36022
731.1042, 36.54533
731.5863, 36.49137
732.0684, 36.27745
732.5505, 36.16536
733.0327, 36.35004
733.5148, 36.50969
733.9969, 36.51238
734.4790, 36.39479
734.9611, 36.42241
735.4432, 36.63409
735.9254, 36.86108
736.4075, 37.05505
736.8896, 37.19786
737.3717, 37.17724
737.8538, 37.00520
738.3359, 36.84194
738.8181, 36.77626
739.3002, 36.78758
739.7823, 36.86894
740.2644, 37.01820
740.7465, 37.18592
741.2286, 37.43519
741.7108, 37.62978
742.1929, 37.64223
742.6750, 37.40423
743.1571, 37.41229
743.6392, 37.78266
744.1213, 38.16947
744.6035, 38.26472
745.0856, 38.09431
745.5677, 38.08904
746.0498, 38.28230
746.5319, 38.49235
747.0140, 38.55286
747.4962, 38.51996
747.9783, 38.45580
748.4604, 38.35170
748.9425, 38.31366
749.4246, 38.50368
749.9067, 38.72158
750.3889, 38.77595
750.8710, 38.46243
751.3531, 38.33113
751.8352, 38.44236
752.3173, 38.66163
752.7994, 38.85673
753.2816, 39.03064
753.7637, 39.11305
754.2458, 39.08545
754.7279, 38.99992
755.2100, 38.88860
755.6921, 38.77220
756.1743, 38.68664
756.6564, 38.62895
757.1385, 38.63154
757.6206, 38.78916
758.1027, 38.99379
758.5848, 39.08408
759.0670, 38.92115
759.5491, 38.80624
760.0312, 38.76524
760.5133, 38.78384
760.9954, 38.85052
761.4775, 38.97028
761.9597, 39.06443
762.4418, 39.11598
762.9239, 39.12691
763.4060, 39.04787
763.8881, 38.92731
764.3702, 38.89421
764.8524, 39.14447
765.3345, 39.35867
765.8166, 39.29171
766.2987, 39.05918
766.7808, 38.95420
767.2629, 39.13797
767.7451, 39.30746
768.2272, 39.41832
768.7093, 39.47563
769.1914, 39.48690
769.6735, 39.44684
770.1556, 39.42556
770.6378, 39.47596
771.1199, 39.53758
771.6020, 39.46920
772.0841, 39.30556
772.5662, 39.17324
773.0483, 39.18243
773.5305, 39.20155
774.0126, 39.14106
774.4947, 39.01684
774.9768, 38.92126
775.4589, 38.84805
775.9410, 38.83407
776.4232, 38.92417
776.9053, 39.08659
777.3874, 39.10497
777.8695, 38.96593
778.3516, 38.85393
778.8337, 38.89471
779.3159, 39.01290
779.7980, 39.06189
780.2801, 39.05115
780.7622, 39.03169
781.2443, 39.01861
781.7264, 39.01754
782.2086, 39.05008
782.6907, 39.11247
783.1728, 39.12139
783.6549, 39.07550
784.1370, 38.96732
784.6191, 38.75093
785.1012, 38.45342
785.5833, 38.34447
786.0654, 38.43376
786.5475, 38.55321
787.0297, 38.56907
787.5118, 38.55477
787.9939, 38.68787
788.4760, 38.94186
788.9581, 39.09077
789.4402, 38.95916
789.9224, 38.72698
790.4045, 38.45324
790.8866, 38.13703
791.3687, 37.97091
791.8508, 38.04828
792.3329, 38.12749
792.8151, 38.06932
793.2972, 37.89410
793.7793, 37.89530
794.2614, 38.07833
794.7435, 38.19394
795.2256, 37.97389
795.7078, 37.62875
796.1899, 37.44036
796.6720, 37.41362
797.1541, 37.43256
797.6362, 37.49377
798.1183, 37.54140
798.6005, 37.53241
799.0826, 37.46117
799.5647, 37.41203
800.0468, 37.37398
800.5289, 37.38222
801.0110, 37.49786
801.4932, 37.69142
801.9753, 37.73731
802.4574, 37.63892
802.9395, 37.51191
803.4216, 37.43548
803.9037, 37.37665
804.3859, 37.29026
804.8680, 37.17511
805.3501, 37.09793
805.8322, 37.09937
806.3143, 37.12841
806.7964, 37.17753
807.2786, 37.25073
807.7607, 37.23209
808.2428, 37.10735
808.7249, 36.94530
809.2070, 36.75611
809.6891, 36.56642
810.1713, 36.46476
810.6534, 36.45084
811.1355, 36.49422
811.6176, 36.66741
812.0997, 36.81962
812.5818, 36.81514
813.0640, 36.64210
813.5461, 36.47568
814.0282, 36.32842
814.5103, 36.20803
814.9924, 36.11300
815.4745, 36.04329
815.9567, 36.04401
816.4388, 36.11924
816.9209, 36.21247
817.4030, 36.28670
817.8851, 36.35399
818.3672, 36.48644
818.8494, 36.66075
819.3315, 36.69438
819.8136, 36.23579
820.2957, 35.82970
820.7778, 35.91449
821.2599, 36.52173
821.7421, 36.66833
822.2242, 36.11191
822.7063, 35.58663
823.1884, 35.43701
823.6705, 35.59660
824.1526, 35.74004
824.6348, 35.86580
825.1169, 35.94246
825.5990, 35.94622
826.0811, 35.89402
826.5632, 35.78160
827.0453, 35.61944
827.5275, 35.47231
828.0096, 35.32667
828.4917, 35.23810
828.9738, 35.25269
829.4559, 35.34869
829.9380, 35.35094
830.4202, 35.23758
830.9023, 35.14809
831.3844, 35.17275
831.8665, 35.24704
832.3486, 35.19545
832.8307, 35.04973
833.3129, 34.94941
833.7950, 35.04098
834.2771, 35.13373
834.7592, 35.09094
835.2413, 34.94472
835.7234, 34.85932
836.2056, 34.85849
836.6877, 34.89865
837.1698, 34.99154
837.6519, 35.10517
838.1340, 35.12048
838.6161, 35.04430
839.0983, 35.00279
839.5804, 35.08374
840.0625, 35.18621
840.5446, 35.16815
841.0267, 35.07719
841.5089, 35.03140
841.9910, 35.16148
842.4731, 35.24035
842.9552, 35.16832
843.4373, 35.01259
843.9194, 34.89588
844.4016, 34.80930
844.8837, 34.82036
845.3658, 34.98673
845.8479, 35.18316
846.3300, 35.19658
846.8121, 35.05930
847.2943, 34.84772
847.7764, 34.48254
848.2585, 34.21766
848.7406, 34.28054
849.2227, 34.51635
849.7048, 34.68914
850.1870, 34.82363
850.6691, 34.78600
851.1512, 34.46236
851.6333, 34.09599
852.1154, 34.11077
852.5975, 34.46235
853.0797, 34.69760
853.5618, 34.70952
854.0439, 34.66929
854.5260, 34.77533
855.0081, 34.92411
855.4902, 34.97733
855.9724, 34.86433
856.4545, 34.73195
856.9366, 34.57071
857.4187, 34.43145
857.9008, 34.36401
858.3829, 34.37837
858.8651, 34.39851
859.3472, 34.41903
859.8293, 34.45179
860.3114, 34.57793
860.7935, 34.70412
861.2756, 34.59945
861.7578, 34.20169
862.2399, 33.91379
862.7220, 34.03482
863.2041, 34.26978
863.6862, 34.40598
864.1683, 34.42085
864.6505, 34.42315
865.1326, 34.39861
865.6147, 34.40125
866.0968, 34.51638
866.5789, 34.69489
867.0610, 34.70102
867.5432, 34.54067
868.0253, 34.39494
868.5074, 34.37094
868.9895, 34.41943
869.4716, 34.53355
869.9537, 34.70924
870.4359, 34.82404
870.9180, 34.80292
871.4001, 34.82684
871.8822, 35.00323
872.3643, 35.27726
872.8464, 35.33231
873.3286, 35.17924
873.8107, 35.02981
874.2928, 35.03412
874.7749, 35.07361
875.2570, 35.00781
875.7391, 34.86951
876.2213, 34.75956
876.7034, 34.71619
877.1855, 34.70166
877.6676, 34.72322
878.1497, 34.75948
878.6318, 34.73031
879.1140, 34.61952
879.5961, 34.64348
880.0782, 34.93877
880.5603, 35.23507
881.0424, 35.02655
881.5245, 34.53966
882.0067, 34.23908
882.4888, 34.38607
882.9709, 34.58887
883.4530, 34.75518
883.9351, 34.88420
884.4172, 34.97282
884.8994, 35.00838
885.3815, 35.05408
885.8636, 35.12718
886.3457, 35.17144
886.8278, 35.07709
887.3099, 34.90556
887.7921, 34.81615
888.2742, 34.84807
888.7563, 34.87198
889.2384, 34.72311
889.7205, 34.59150
890.2026, 34.66549
890.6848, 35.02983
891.1669, 35.27831
891.6490, 35.39552
892.1311, 35.42932
892.6132, 35.39155
893.0953, 35.29670
893.5775, 35.17221
894.0596, 35.02510
894.5417, 34.96420
895.0238, 35.25290
895.5059, 35.49316
895.9880, 35.25847
896.4702, 34.58037
896.9523, 34.30292
897.4344, 34.68105
897.9165, 35.08657
898.3986, 35.33905
898.8807, 35.44196
899.3629, 35.32285
899.8450, 35.01493
900.3271, 34.77953
900.8092, 34.75508
901.2913, 34.83126
901.7734, 35.01983
902.2556, 35.22459
902.7377, 35.24405
903.2198, 34.75930
903.7019, 34.45031
904.1840, 34.41329
904.6661, 34.55731
905.1483, 34.80040
905.6304, 35.13033
906.1125, 35.25249
906.5946, 35.06959
907.0767, 34.84896
907.5588, 34.87798
908.0410, 35.02488
908.5231, 35.12850
909.0052, 35.13810
909.4873, 35.14546
909.9694, 35.16821
910.4515, 35.18793
910.9337, 35.17460
911.4158, 35.12362
911.8979, 35.16596
912.3800, 35.30611
912.8621, 35.48611
913.3442, 35.76722
913.8264, 35.99327
914.3085, 35.88403
914.7906, 35.45661
915.2727, 35.20898
915.7548, 35.45491
916.2369, 35.73548
916.7191, 35.88414
917.2012, 35.93028
917.6833, 36.07294
918.1654, 36.31681
918.6475, 36.47004
919.1296, 36.37693
919.6118, 36.22639
920.0939, 36.27497
920.5760, 36.46044
921.0581, 36.63586
921.5402, 36.77395
922.0223, 36.86555
922.5045, 36.87703
922.9866, 36.86662
923.4687, 36.92652
923.9508, 37.06202
924.4329, 37.19302
924.9150, 37.30738
925.3972, 37.40173
925.8793, 37.43476
926.3614, 37.45885
926.8435, 37.55669
927.3256, 37.76132
927.8077, 37.96574
928.2899, 38.18832
928.7720, 38.35128
929.2541, 38.37974
929.7362, 38.26002
930.2183, 38.27629
930.7004, 38.43542
931.1826, 38.63053
931.6647, 38.82520
932.1468, 38.98540
932.6289, 39.03541
933.1110, 38.99807
933.5931, 39.00120
934.0753, 39.12479
934.5574, 39.25663
935.0395, 39.34837
935.5216, 39.42726
936.0037, 39.60388
936.4858, 39.88538
936.9680, 40.07710
937.4501, 40.10162
937.9322, 40.04461
938.4143, 39.90816
938.8964, 39.79026
939.3785, 39.86758
939.8607, 40.36250
940.3428, 40.77639
940.8249, 41.00627
941.3070, 41.14698
941.7891, 41.28432
942.2712, 41.41824
942.7534, 41.50879
943.2355, 41.55144
943.7176, 41.58331
944.1997, 41.61118
944.6818, 41.66366
945.1639, 41.78260
945.6461, 41.97230
946.1282, 42.16894
946.6103, 42.39159
947.0924, 42.58107
947.5745, 42.72620
948.0566, 42.82142
948.5388, 42.79806
949.0209, 42.66551
949.5030, 42.58368
949.9851, 42.61533
950.4672, 42.74690
950.9493, 43.03991
951.4315, 43.41044
951.9136, 43.68855
952.3957, 43.69457
952.8778, 43.80385
953.3599, 44.08871
953.8420, 44.43699
954.3242, 44.71148
954.8063, 44.91271
955.2884, 45.03492
955.7705, 45.06220
956.2526, 45.14026
956.7347, 45.47358
957.2169, 45.86256
957.6990, 46.11655
958.1811, 46.18668
958.6632, 46.24361
959.1453, 46.23262
959.6274, 46.33493
960.1096, 46.68734
960.5917, 47.22490
961.0738, 47.69893
961.5559, 48.10591
962.0380, 48.40106
962.5201, 48.46107
963.0023, 48.50548
963.4844, 48.62328
963.9665, 48.83321
964.4486, 49.18683
964.9307, 49.78913
965.4128, 50.25415
965.8950, 50.48563
966.3771, 50.64302
966.8592, 50.93296
967.3413, 51.33633
967.8234, 51.85283
968.3055, 52.51745
968.7877, 53.07050
969.2698, 53.13005
969.7519, 53.20211
970.2340, 53.72554
970.7161, 54.77140
971.1982, 55.58281
971.6804, 56.14080
972.1625, 56.59724
972.6446, 56.87980
973.1267, 57.20929
973.6088, 58.12423
974.0909, 59.47957
974.5731, 60.73134
975.0552, 61.45872
975.5373, 62.28926
976.0194, 63.52611
976.5015, 64.94498
976.9836, 66.10828
977.4658, 66.98253
977.9479, 67.93346
978.4300, 68.99702
978.9121, 70.25378
979.3942, 71.86820
979.8763, 73.71247
980.3585, 75.60439
980.8406, 77.43030
981.3227, 79.57715
981.8048, 82.23559
982.2869, 85.06807
982.7690, 87.86731
983.2511, 90.66612
983.7332, 93.67087
984.2153, 96.91802
984.6974, 100.6766
985.1796, 105.2360
985.6617, 110.2967
986.1438, 115.5984
986.6259, 121.1774
987.1080, 127.1611
987.5901, 133.4012
988.0723, 140.2724
988.5544, 147.6102
989.0365, 155.8582
989.5186, 165.5594
990.0007, 176.7453
990.4828, 189.2133
990.9650, 202.9212
991.4471, 218.3546
991.9292, 235.5370
992.4113, 254.7848
992.8934, 276.5388
993.3755, 300.6877
993.8577, 327.2440
994.3398, 356.0114
994.8219, 387.0167
995.3040, 420.8527
995.7861, 456.4412
996.2682, 492.6587
996.7504, 529.4340
997.2325, 567.5221
997.7146, 606.9050
998.1967, 648.0206
998.6788, 690.5394
999.1609, 735.3835
999.6431, 783.7646
1000.125, 834.9410
1000.607, 892.1969
1001.089, 955.4516
1001.572, 1024.431
1002.054, 1099.240
1002.536, 1179.113
1003.018, 1265.379
1003.500, 1357.106
1003.982, 1452.162
1004.464, 1551.054
1004.946, 1650.289
1005.428, 1749.682
1005.911, 1846.718
1006.393, 1936.900
1006.875, 2017.252
1007.357, 2070.393
1007.839, 2095.081
1008.321, 2084.641
1008.803, 2031.920
1009.285, 1941.586
1009.768, 1823.309
1010.250, 1670.551
1010.732, 1507.993
1011.214, 1336.381
1011.696, 1167.811
1012.178, 1012.847
1012.660, 873.0515
1013.142, 749.0438
1013.624, 641.4741
1014.107, 548.4398
1014.589, 473.9434
1015.071, 411.1034
1015.553, 359.3876
1016.035, 317.5717
1016.517, 282.5298
1016.999, 254.1215
1017.481, 229.6827
1017.964, 208.8545
1018.446, 190.9775
1018.928, 175.7521
1019.410, 162.7296
1019.892, 151.4910
1020.374, 142.3406
1020.856, 133.9938
1021.338, 126.4553
1021.820, 119.6835
1022.303, 113.8421
1022.785, 108.7516
1023.267, 104.0562
1023.749, 99.75171
1024.231, 95.86300
1024.713, 92.53938
1025.195, 89.49132
1025.677, 86.62414
1026.160, 83.94814
1026.642, 81.42638
1027.124, 79.05093
1027.606, 76.99368
1028.088, 75.30717
1028.570, 73.83363
1029.052, 72.39939
1029.534, 71.06473
1030.016, 69.87072
1030.499, 68.81747
1030.981, 67.97626
1031.463, 67.44750
1031.945, 66.90647
1032.427, 66.12523
1032.909, 65.23893
1033.391, 64.72176
1033.873, 64.50814
1034.355, 64.30915
1034.838, 63.86379
1035.320, 63.54558
1035.802, 63.57584
1036.284, 63.81390
1036.766, 64.03374
1037.248, 64.18651
1037.730, 64.66553
1038.212, 65.53506
1038.695, 66.40755
1039.177, 66.91630
1039.659, 67.21709
1040.141, 67.36333
1040.623, 67.40099
1041.105, 67.78558
1041.587, 68.78465
1042.069, 69.87610
1042.552, 70.98267
1043.034, 72.05877
1043.516, 73.00245
1043.998, 73.83829
1044.480, 74.56699
1044.962, 75.10933
1045.444, 75.85082
1045.926, 77.43703
1046.408, 79.01759
1046.891, 79.78354
1047.373, 79.62199
1047.855, 79.63171
1048.337, 79.81688
1048.819, 80.14201
1049.301, 80.75532
1049.783, 81.37193
1050.265, 81.50030
1050.747, 81.33992
1051.230, 81.42985
1051.712, 82.17510
1052.194, 82.83496
1052.676, 83.36300
1053.158, 83.75253
1053.640, 83.87916
1054.122, 83.84524
1054.604, 84.11162
1055.087, 84.72912
1055.569, 85.28123
1056.051, 85.22186
1056.533, 85.31328
1057.015, 86.13485
1057.497, 87.50465
1057.979, 88.62412
1058.461, 89.48708
1058.943, 90.15567
1059.426, 90.57763
1059.908, 90.98673
1060.390, 91.63725
1060.872, 92.46411
1061.354, 93.40834
1061.836, 94.55200
1062.318, 95.52351
1062.800, 96.28384
1063.282, 96.93133
1063.765, 97.45683
1064.247, 97.94398
1064.729, 98.73801
1065.211, 99.75838
1065.693, 100.6562
1066.175, 101.3187
1066.657, 101.7573
1067.139, 101.8612
1067.622, 101.8254
1068.104, 101.8895
1068.586, 102.0553
1069.068, 102.2042
1069.550, 102.3163
1070.032, 102.5244
1070.514, 103.0497
1070.996, 103.6378
1071.479, 104.0618
1071.961, 104.3161
1072.443, 104.6153
1072.925, 105.0116
1073.407, 105.3100
1073.889, 105.4079
1074.371, 105.4818
1074.853, 105.9768
1075.335, 106.6255
1075.818, 106.8773
1076.300, 106.4430
1076.782, 106.1431
1077.264, 106.3995
1077.746, 106.6119
1078.228, 106.3904
1078.710, 105.8268
1079.192, 105.5284
1079.674, 105.4641
1080.157, 105.4028
1080.639, 105.1648
1081.121, 104.9544
1081.603, 104.8626
1082.085, 104.8876
1082.567, 105.0159
1083.049, 105.2550
1083.531, 105.5972
1084.013, 106.0711
1084.496, 106.4466
1084.978, 106.3447
1085.460, 106.1561
1085.942, 106.4043
1086.424, 107.0303
1086.906, 107.4720
1087.388, 107.5731
1087.870, 107.6366
1088.353, 107.7252
1088.835, 107.7976
1089.317, 107.7899
1089.799, 107.7120
1090.281, 107.5551
1090.763, 107.2973
1091.245, 107.1316
1091.727, 107.3491
1092.209, 107.4487
1092.692, 107.1585
1093.174, 106.5572
1093.656, 106.0224
1094.138, 105.5495
1094.620, 105.1076
1095.102, 104.6928
1095.584, 104.2870
1096.066, 103.9672
1096.548, 103.5960
1097.031, 102.9838
1097.513, 102.0748
1097.995, 101.2130
1098.477, 100.3928
1098.959, 99.66954
1099.441, 99.25566
1099.923, 98.83382
1100.405, 97.79880
1100.888, 96.42562
1101.370, 95.51339
1101.852, 95.65180
1102.334, 95.50720
1102.816, 94.87910
1103.298, 94.13262
1103.780, 93.63929
1104.262, 93.35454
1104.745, 93.21004
1105.227, 93.18861
1105.709, 93.15530
1106.191, 93.14970
1106.673, 92.97550
1107.155, 92.41585
1107.637, 91.77055
1108.119, 91.87348
1108.601, 92.59831
1109.083, 93.12057
1109.566, 93.21802
1110.048, 93.32640
1110.530, 93.74841
1111.012, 94.29951
1111.494, 94.85033
1111.976, 95.39684
1112.458, 96.00993
1112.940, 96.70570
1113.423, 97.19160
1113.905, 97.23760
1114.387, 97.21248
1114.869, 97.40855
1115.351, 97.82368
1115.833, 98.51439
1116.315, 99.75100
1116.797, 100.4116
1117.280, 100.3463
1117.762, 100.2708
1118.244, 100.7478
1118.726, 101.5129
1119.208, 102.3326
1119.690, 103.0771
1120.172, 103.3828
1120.654, 102.6205
1121.136, 102.1607
1121.619, 102.2468
1122.101, 102.4829
1122.583, 102.5268
1123.065, 102.3462
1123.547, 101.7267
1124.029, 100.6993
1124.511, 99.76167
1124.993, 99.58134
1125.475, 99.00178
1125.958, 97.45014
1126.440, 95.41804
1126.922, 93.91376
1127.404, 92.87495
1127.886, 91.78960
1128.368, 90.57311
1128.850, 89.26595
1129.332, 87.82406
1129.815, 86.36848
1130.297, 84.96540
1130.779, 83.60273
1131.261, 82.19948
1131.743, 80.75496
1132.225, 79.25548
1132.707, 77.64380
1133.189, 76.09393
1133.672, 74.70473
1134.154, 73.46746
1134.636, 72.45313
1135.118, 71.77547
1135.600, 70.55221
1136.082, 68.60975
1136.564, 66.93601
1137.046, 66.14700
1137.528, 65.78159
1138.010, 65.25412
1138.493, 64.62379
1138.975, 63.99883
1139.457, 63.38792
1139.939, 62.84013
1140.421, 62.38166
1140.903, 61.91988
1141.385, 61.30809
1141.867, 60.65656
1142.350, 60.24208
1142.832, 60.01070
1143.314, 59.72817
1143.796, 59.22645
1144.278, 58.78527
1144.760, 58.49352
1145.242, 58.21268
1145.724, 57.75405
1146.207, 57.17241
1146.689, 56.61029
1147.171, 56.09368
1147.653, 55.72895
1148.135, 55.73730
1148.617, 55.72758
1149.099, 55.54261
1149.581, 55.26472
1150.063, 55.07409
1150.546, 54.94935
1151.028, 54.69806
1151.510, 54.27780
1151.992, 53.91598
1152.474, 53.86110
1152.956, 53.81756
1153.438, 53.53004
1153.920, 53.10302
1154.402, 53.05846
1154.885, 53.38214
1155.367, 53.46928
1155.849, 53.10264
1156.331, 52.62405
1156.813, 52.14739
1157.295, 51.81881
1157.777, 51.85976
1158.259, 52.25490
1158.742, 52.50669
1159.224, 52.60201
1159.706, 52.70763
1160.188, 52.86960
1160.670, 53.11419
1161.152, 53.59577
1161.634, 54.11618
1162.116, 54.37236
1162.599, 54.22902
1163.081, 54.27388
1163.563, 54.52729
1164.045, 54.85030
1164.527, 55.16361
1165.009, 55.49335
1165.491, 55.91346
1165.973, 56.37346
1166.455, 56.76249
1166.938, 56.96763
1167.420, 57.32884
1167.902, 57.92450
1168.384, 58.42937
1168.866, 58.43549
1169.348, 58.25844
1169.830, 58.51916
1170.312, 59.06578
1170.794, 59.36622
1171.277, 59.10543
1171.759, 58.85619
1172.241, 58.69785
1172.723, 58.47843
1173.205, 57.96912
1173.687, 57.30490
1174.169, 56.76952
1174.651, 56.34418
1175.134, 55.80045
1175.616, 55.02439
1176.098, 54.13872
1176.580, 53.10691
1177.062, 52.05495
1177.544, 51.22027
1178.026, 50.49550
1178.508, 49.52485
1178.990, 48.28350
1179.473, 47.27285
1179.955, 46.99291
1180.437, 46.55739
1180.919, 45.60584
1181.401, 44.48188
1181.883, 43.89484
1182.365, 43.68539
1182.847, 43.36731
1183.329, 42.83644
1183.812, 42.37695
1184.294, 42.12174
1184.776, 41.97757
1185.258, 41.93126
1185.740, 41.94458
1186.222, 41.90339
1186.704, 41.82021
1187.186, 41.74733
1187.669, 41.70615
1188.151, 41.64124
1188.633, 41.40825
1189.115, 41.27749
1189.597, 41.43827
1190.079, 41.80524
1190.561, 41.99869
1191.043, 42.04370
1191.526, 42.04370
1192.008, 41.98423
1192.490, 42.01000
1192.972, 42.25922
1193.454, 42.56139
1193.936, 42.80046
1194.418, 42.98418
1194.900, 43.25669
1195.382, 43.57259
1195.865, 43.63990
1196.347, 43.11629
1196.829, 42.65790
1197.311, 42.61043
1197.793, 42.75410
1198.275, 42.96483
1198.757, 43.23613
1199.239, 43.18453
1199.721, 42.84800
1200.204, 42.57764
1200.686, 42.59056
1201.168, 42.68408
1201.650, 42.84438
1202.132, 42.97622
1202.614, 42.93123
1203.096, 42.71130
1203.578, 42.76390
1204.061, 43.07022
1204.543, 43.28591
1205.025, 43.19262
1205.507, 42.95985
1205.989, 42.55092
1206.471, 42.12624
1206.953, 41.90905
1207.435, 41.89387
1207.917, 41.95452
1208.400, 42.07786
1208.882, 42.13752
1209.364, 42.02205
1209.846, 41.84647
1210.328, 41.66397
1210.810, 41.46727
1211.292, 41.22332
1211.774, 40.93440
1212.256, 40.78392
1212.739, 40.78357
1213.221, 40.72525
1213.703, 40.40152
1214.185, 40.04389
1214.667, 39.73322
1215.149, 39.49876
1215.631, 39.48607
1216.113, 39.66832
1216.596, 39.54441
1217.078, 39.04421
1217.560, 38.47026
1218.042, 37.91226
1218.524, 37.44875
1219.006, 37.09736
1219.488, 36.87871
1219.970, 36.93557
1220.453, 37.23220
1220.935, 37.32685
1221.417, 37.14146
1221.899, 36.87326
1222.381, 36.60391
1222.863, 36.33361
1223.345, 36.03652
1223.827, 35.74910
1224.309, 35.57679
1224.792, 35.51105
1225.274, 35.50819
1225.756, 35.57072
1226.238, 35.58342
1226.720, 35.48013
1227.202, 35.28962
1227.684, 34.97451
1228.166, 34.61900
1228.648, 34.56481
1229.131, 34.73671
1229.613, 34.68672
1230.095, 34.26082
1230.577, 33.93460
1231.059, 34.09412
1231.541, 34.29691
1232.023, 34.32066
1232.505, 34.21137
1232.988, 34.10263
1233.470, 33.99568
1233.952, 33.90364
1234.434, 33.84030
1234.916, 33.74372
1235.398, 33.46676
1235.880, 33.30074
1236.362, 33.46873
1236.844, 33.79162
1237.327, 33.55136
1237.809, 32.94808
1238.291, 32.68132
1238.773, 33.04935
1239.255, 33.37101
1239.737, 33.35130
1240.219, 33.27413
1240.701, 33.23098
1241.183, 33.24015
1241.666, 33.43415
1242.148, 33.72101
1242.630, 33.82593
1243.112, 33.61121
1243.594, 33.39893
1244.076, 33.22874
1244.558, 33.12975
1245.040, 33.14343
1245.523, 33.21338
1246.005, 33.21214
1246.487, 33.15056
1246.969, 33.04348
1247.451, 32.84738
1247.933, 32.74907
1248.415, 32.79639
1248.897, 32.86969
1249.380, 32.91956
1249.862, 32.94011
1250.344, 32.91211
1250.826, 32.84667
1251.308, 32.74541
1251.790, 32.51792
1252.272, 32.55487
1252.754, 32.96141
1253.236, 33.34041
1253.719, 33.51072
1254.201, 33.47518
1254.683, 33.08146
1255.165, 32.54496
1255.647, 32.22311
1256.129, 32.22539
1256.611, 32.41738
1257.093, 32.87794
1257.575, 33.13359
1258.058, 32.78210
1258.540, 32.25509
1259.022, 32.03471
1259.504, 32.00179
1259.986, 31.97268
1260.468, 31.90345
1260.950, 31.98971
1261.432, 32.24936
1261.915, 32.42839
1262.397, 32.32317
1262.879, 32.15791
1263.361, 32.13174
1263.843, 32.17041
1264.325, 32.17820
1264.807, 32.15147
1265.289, 32.11460
1265.771, 32.06673
1266.254, 31.94734
1266.736, 31.60632
1267.218, 31.34619
1267.700, 31.42681
1268.182, 31.65381
1268.664, 31.82945
1269.146, 31.95273
1269.628, 31.97123
1270.110, 31.90113
1270.593, 31.88055
1271.075, 32.06150
1271.557, 32.18385
1272.039, 32.06808
1272.521, 31.89934
1273.003, 31.80457
1273.485, 31.77595
1273.967, 31.74249
1274.450, 31.72031
1274.932, 31.78181
1275.414, 32.12087
1275.896, 32.27303
1276.378, 32.04655
1276.860, 31.77886
1277.342, 31.74171
1277.824, 31.83934
1278.307, 31.70551
1278.789, 31.45624
1279.271, 31.42187
1279.753, 31.93726
1280.235, 32.26421
1280.717, 32.33220
1281.199, 32.27552
1281.681, 32.13126
1282.163, 31.96316
1282.646, 31.86863
1283.128, 31.84027
1283.610, 31.86782
1284.092, 32.02178
1284.574, 32.02743
1285.056, 31.85009
1285.538, 31.71239
1286.020, 31.76569
1286.502, 31.91659
1286.984, 32.15041
1287.467, 32.37045
1287.949, 32.39979
1288.431, 32.18364
1288.913, 32.09268
1289.395, 32.12828
1289.877, 32.22213
1290.359, 32.39401
1290.841, 32.52975
1291.324, 32.53903
1291.806, 32.47058
1292.288, 32.36422
1292.770, 32.22120
1293.252, 32.19183
1293.734, 32.26267
1294.216, 32.33301
1294.698, 32.36867
1295.181, 32.37312
1295.663, 32.28898
1296.145, 32.23491
1296.627, 32.34332
1297.109, 32.54282
1297.591, 32.39496
1298.073, 32.04164
1298.555, 31.95690
1299.037, 32.57761
1299.520, 32.90058
1300.002, 32.66507
1300.484, 32.39088
1300.966, 32.41456
1301.448, 32.58813
1301.930, 32.63931
1302.412, 32.60157
1302.894, 32.52909
1303.376, 32.37616
1303.859, 32.37431
1304.341, 32.55581
1304.823, 32.73146
1305.305, 32.81270
1305.787, 32.80351
##END=



