##NAMES=Leiteite
##RRUFFID=R040011
##IDEAL CHEMISTRY=Zn^2+^As^3+^_2_O_4_
##LOCALITY=Tsumeb mine, Tsumeb, Otavi District, Oshikoto, Namibia
##OWNER=RRUFF
##SOURCE=Dave Bunk Minerals
##DESCRIPTION=Transparent tan colored flexible lamellar crystal
##STATUS=The identification of this mineral has been confirmed by X-ray diffraction and chemical analysis
##URL=rruff.info/R040011
##MEASURED CHEMISTRY=Zn_1.00_As^3+^_2.00_O_4_
118.9584, 576.5010
119.4405, 605.5958
119.9227, 635.5970
120.4048, 661.3495
120.8869, 681.5978
121.3690, 701.5026
121.8511, 721.8242
122.3332, 743.9688
122.8154, 770.8946
123.2975, 811.2565
123.7796, 853.9491
124.2617, 889.9074
124.7438, 919.3580
125.2259, 936.0701
125.7081, 928.9409
126.1902, 901.2095
126.6723, 864.4878
127.1544, 825.0143
127.6365, 789.3830
128.1186, 762.5548
128.6008, 746.4977
129.0829, 738.4506
129.5650, 736.7335
130.0471, 740.9941
130.5292, 746.3996
131.0113, 749.1516
131.4935, 749.7331
131.9756, 749.9839
132.4577, 749.7864
132.9398, 749.7911
133.4219, 751.5035
133.9040, 754.7775
134.3862, 760.4075
134.8683, 769.8461
135.3504, 783.0338
135.8325, 796.7589
136.3146, 810.4838
136.7967, 824.0433
137.2789, 836.0740
137.7610, 846.3854
138.2431, 855.9040
138.7252, 865.6144
139.2073, 875.2632
139.6894, 886.4075
140.1716, 899.0511
140.6537, 912.8712
141.1358, 931.3292
141.6179, 954.4968
142.1000, 982.4440
142.5821, 1014.297
143.0643, 1048.780
143.5464, 1090.212
144.0285, 1140.177
144.5106, 1196.411
144.9927, 1266.354
145.4748, 1351.658
145.9570, 1449.756
146.4391, 1550.487
146.9212, 1661.165
147.4033, 1766.870
147.8854, 1864.260
148.3675, 1976.032
148.8497, 2043.734
149.3318, 2067.848
149.8139, 2047.872
150.2960, 1975.547
150.7781, 1812.085
151.2602, 1625.234
151.7424, 1453.031
152.2245, 1284.896
152.7066, 1142.456
153.1887, 1030.790
153.6708, 949.6693
154.1529, 884.4991
154.6351, 838.1242
155.1172, 804.4150
155.5993, 779.1500
156.0814, 765.1271
156.5635, 755.6681
157.0456, 750.0381
157.5278, 748.2338
158.0099, 748.7471
158.4920, 751.7946
158.9741, 756.7949
159.4562, 763.2302
159.9383, 772.2686
160.4205, 781.5580
160.9026, 789.9454
161.3847, 797.2753
161.8668, 805.7637
162.3489, 813.0339
162.8310, 822.7733
163.3132, 839.2796
163.7953, 867.7244
164.2774, 900.3701
164.7595, 934.0771
165.2416, 968.9202
165.7237, 1003.153
166.2059, 1042.611
166.6880, 1080.269
167.1701, 1105.426
167.6522, 1114.117
168.1343, 1108.377
168.6164, 1087.174
169.0985, 1048.121
169.5807, 1003.862
170.0628, 957.6409
170.5449, 912.1908
171.0270, 873.3196
171.5091, 844.8989
171.9912, 823.9100
172.4734, 807.6700
172.9555, 795.8703
173.4376, 788.4618
173.9197, 785.4888
174.4018, 786.7920
174.8839, 792.1017
175.3661, 802.3564
175.8482, 816.0914
176.3303, 831.7487
176.8124, 849.6517
177.2945, 868.1923
177.7766, 888.5936
178.2588, 909.4473
178.7409, 924.0233
179.2230, 929.4485
179.7051, 925.6870
180.1872, 911.2596
180.6693, 882.8806
181.1515, 849.2281
181.6336, 820.0921
182.1157, 795.6085
182.5978, 776.8996
183.0799, 765.2532
183.5620, 759.8456
184.0442, 758.9308
184.5263, 762.9656
185.0084, 770.1673
185.4905, 777.1255
185.9726, 783.9241
186.4547, 793.3041
186.9369, 809.2362
187.4190, 830.1921
187.9011, 849.2627
188.3832, 865.6172
188.8653, 879.0184
189.3474, 890.5420
189.8296, 900.4825
190.3117, 903.8922
190.7938, 894.1351
191.2759, 872.6790
191.7580, 850.5867
192.2401, 828.7887
192.7223, 808.5774
193.2044, 792.9859
193.6865, 781.7645
194.1686, 775.8988
194.6507, 776.0772
195.1328, 782.2117
195.6150, 794.5438
196.0971, 813.1860
196.5792, 837.9871
197.0613, 868.6253
197.5434, 905.0544
198.0255, 946.9601
198.5077, 996.5456
198.9898, 1054.614
199.4719, 1105.775
199.9540, 1147.084
200.4361, 1178.492
200.9182, 1198.880
201.4004, 1206.262
201.8825, 1208.280
202.3646, 1211.351
202.8467, 1215.232
203.3288, 1222.215
203.8109, 1234.050
204.2931, 1249.911
204.7752, 1262.828
205.2573, 1272.723
205.7394, 1279.907
206.2215, 1284.007
206.7036, 1284.328
207.1858, 1284.835
207.6679, 1285.490
208.1500, 1286.593
208.6321, 1292.530
209.1142, 1302.821
209.5963, 1318.796
210.0785, 1341.750
210.5606, 1371.410
211.0427, 1408.359
211.5248, 1451.938
212.0069, 1502.263
212.4890, 1565.042
212.9712, 1640.667
213.4533, 1728.524
213.9354, 1825.081
214.4175, 1927.682
214.8996, 2049.441
215.3817, 2194.782
215.8639, 2362.407
216.3460, 2557.293
216.8281, 2803.959
217.3102, 3046.161
217.7923, 3227.718
218.2744, 3362.523
218.7565, 3403.993
219.2387, 3334.221
219.7208, 3152.199
220.2029, 2906.440
220.6850, 2571.396
221.1671, 2205.395
221.6492, 1871.594
222.1314, 1558.560
222.6135, 1297.285
223.0956, 1104.436
223.5777, 979.0450
224.0598, 881.1859
224.5419, 816.2906
225.0241, 771.8553
225.5062, 734.6581
225.9883, 706.1618
226.4704, 682.4421
226.9525, 663.4618
227.4346, 649.0242
227.9168, 637.7717
228.3989, 629.9678
228.8810, 625.0490
229.3631, 622.7391
229.8452, 623.8260
230.3273, 625.9117
230.8095, 628.3580
231.2916, 631.1127
231.7737, 635.6544
232.2558, 641.8809
232.7379, 649.9874
233.2200, 659.6632
233.7022, 668.9346
234.1843, 683.6113
234.6664, 705.4798
235.1485, 734.3995
235.6306, 765.8651
236.1127, 802.2949
236.5949, 839.2072
237.0770, 872.8259
237.5591, 903.4883
238.0412, 930.0356
238.5233, 951.3983
239.0054, 967.6528
239.4876, 982.5545
239.9697, 994.3041
240.4518, 1006.780
240.9339, 1023.764
241.4160, 1047.822
241.8981, 1071.199
242.3803, 1091.901
242.8624, 1110.153
243.3445, 1130.493
243.8266, 1152.873
244.3087, 1177.549
244.7908, 1204.800
245.2730, 1235.019
245.7551, 1266.946
246.2372, 1300.024
246.7193, 1334.391
247.2014, 1371.903
247.6835, 1410.477
248.1657, 1454.291
248.6478, 1505.745
249.1299, 1565.381
249.6120, 1631.612
250.0941, 1701.926
250.5762, 1777.687
251.0584, 1870.542
251.5405, 1980.732
252.0226, 2106.604
252.5047, 2246.209
252.9868, 2403.376
253.4689, 2569.277
253.9511, 2755.379
254.4332, 2952.776
254.9153, 3112.155
255.3974, 3252.543
255.8795, 3326.329
256.3616, 3297.092
256.8438, 3138.730
257.3259, 2942.834
257.8080, 2697.583
258.2901, 2421.853
258.7722, 2179.219
259.2543, 1969.815
259.7365, 1792.176
260.2186, 1643.371
260.7007, 1529.523
261.1828, 1430.654
261.6649, 1347.132
262.1470, 1277.731
262.6292, 1216.482
263.1113, 1163.922
263.5934, 1119.297
264.0755, 1082.761
264.5576, 1054.776
265.0397, 1032.191
265.5219, 1014.930
266.0040, 1002.873
266.4861, 996.1564
266.9682, 996.5676
267.4503, 998.0383
267.9324, 999.7324
268.4146, 1004.061
268.8967, 997.0907
269.3788, 976.7588
269.8609, 947.2700
270.3430, 915.9886
270.8251, 882.4418
271.3073, 848.7933
271.7894, 815.3289
272.2715, 781.4054
272.7536, 754.2949
273.2357, 735.5697
273.7178, 721.7366
274.2000, 707.7032
274.6821, 693.5132
275.1642, 679.1722
275.6463, 664.2938
276.1284, 648.8706
276.6105, 635.0189
277.0927, 622.5644
277.5748, 612.0599
278.0569, 604.5917
278.5390, 600.4426
279.0211, 597.1666
279.5032, 593.9521
279.9854, 590.9584
280.4675, 589.5884
280.9496, 590.1505
281.4317, 591.3243
281.9138, 591.6105
282.3959, 590.9669
282.8781, 590.7019
283.3602, 591.3228
283.8423, 592.5634
284.3244, 593.0292
284.8065, 592.5500
285.2886, 592.3669
285.7708, 593.8749
286.2529, 596.9741
286.7350, 599.7472
287.2171, 601.4881
287.6992, 602.8608
288.1813, 605.9042
288.6635, 610.7007
289.1456, 615.7301
289.6277, 620.1306
290.1098, 623.8600
290.5919, 626.2989
291.0740, 626.8718
291.5562, 626.8668
292.0383, 629.0490
292.5204, 633.3389
293.0025, 637.6774
293.4846, 640.4943
293.9667, 642.2605
294.4489, 644.5905
294.9310, 647.6567
295.4131, 651.3386
295.8952, 655.4048
296.3773, 659.8902
296.8594, 665.0466
297.3416, 671.7144
297.8237, 679.1591
298.3058, 685.2894
298.7879, 689.7472
299.2700, 694.2235
299.7521, 701.0616
300.2343, 709.6314
300.7164, 717.5800
301.1985, 724.5966
301.6806, 730.1185
302.1627, 732.5125
302.6448, 731.5670
303.1270, 730.1277
303.6091, 731.1321
304.0912, 733.5626
304.5733, 735.3569
305.0554, 736.6051
305.5375, 736.2636
306.0197, 733.1199
306.5018, 727.2327
306.9839, 719.1536
307.4660, 708.9103
307.9481, 696.8788
308.4302, 683.5582
308.9124, 667.8971
309.3945, 652.0316
309.8766, 636.6782
310.3587, 622.0864
310.8408, 610.3439
311.3229, 605.3214
311.8051, 602.5414
312.2872, 597.2424
312.7693, 586.0692
313.2514, 575.8930
313.7335, 571.4934
314.2156, 571.4159
314.6978, 571.3206
315.1799, 568.8126
315.6620, 565.7590
316.1441, 563.5017
316.6262, 562.3250
317.1083, 561.7063
317.5905, 562.2268
318.0726, 563.0676
318.5547, 562.8036
319.0368, 559.6314
319.5189, 556.2530
320.0010, 553.9973
320.4832, 553.0988
320.9653, 552.6564
321.4474, 552.1879
321.9295, 552.1199
322.4116, 552.9529
322.8937, 556.8385
323.3759, 559.6806
323.8580, 559.8922
324.3401, 557.2952
324.8222, 554.8595
325.3043, 552.3339
325.7864, 550.5030
326.2686, 549.9711
326.7507, 552.2816
327.2328, 554.2475
327.7149, 555.2051
328.1970, 555.2632
328.6791, 555.7926
329.1613, 557.7596
329.6434, 559.4431
330.1255, 559.9381
330.6076, 557.9010
331.0897, 556.6096
331.5718, 556.3101
332.0540, 556.7874
332.5361, 557.4197
333.0182, 558.1331
333.5003, 559.1188
333.9824, 560.6612
334.4645, 563.4492
334.9467, 564.5676
335.4288, 563.0244
335.9109, 560.5131
336.3930, 559.9819
336.8751, 562.3231
337.3572, 564.5195
337.8394, 565.3689
338.3215, 564.7376
338.8036, 565.9828
339.2857, 569.9682
339.7678, 574.3335
340.2499, 576.2443
340.7320, 575.1641
341.2141, 574.6613
341.6963, 575.6781
342.1784, 577.8731
342.6605, 579.8065
343.1426, 581.5245
343.6247, 582.6710
344.1068, 582.0133
344.5890, 579.7252
345.0711, 580.2996
345.5532, 585.1400
346.0353, 592.1152
346.5174, 596.4728
346.9995, 598.2882
347.4817, 600.1866
347.9638, 604.0006
348.4459, 609.2416
348.9280, 614.2736
349.4101, 619.0304
349.8922, 623.2880
350.3744, 626.1735
350.8565, 628.0734
351.3386, 630.5665
351.8207, 635.1708
352.3028, 640.5504
352.7849, 644.3332
353.2671, 646.5054
353.7492, 648.5598
354.2313, 651.4448
354.7134, 655.1447
355.1955, 659.7338
355.6776, 665.7339
356.1598, 672.1202
356.6419, 677.6915
357.1240, 682.7030
357.6061, 688.5051
358.0882, 696.3439
358.5703, 705.1960
359.0525, 713.9296
359.5346, 722.0952
360.0167, 730.5735
360.4988, 739.2196
360.9809, 748.4792
361.4630, 759.2758
361.9452, 773.4326
362.4273, 788.1309
362.9094, 801.0525
363.3915, 810.9576
363.8736, 823.7858
364.3557, 844.4847
364.8379, 868.0262
365.3200, 888.4385
365.8021, 905.3054
366.2842, 918.0257
366.7663, 925.9825
367.2484, 929.2344
367.7306, 929.3666
368.2127, 926.8854
368.6948, 921.1719
369.1769, 911.8011
369.6590, 896.0905
370.1411, 879.9614
370.6233, 862.4950
371.1054, 844.5571
371.5875, 829.3312
372.0696, 816.9890
372.5517, 807.3425
373.0338, 800.4580
373.5160, 797.0150
373.9981, 794.2932
374.4802, 791.8632
374.9623, 790.4612
375.4444, 791.9303
375.9265, 797.9915
376.4087, 802.0833
376.8908, 801.6089
377.3729, 796.7639
377.8550, 793.9691
378.3371, 794.0599
378.8192, 794.0337
379.3014, 790.8386
379.7835, 784.3391
380.2656, 776.8537
380.7477, 768.3283
381.2298, 759.5563
381.7119, 752.7262
382.1941, 747.9293
382.6762, 743.1990
383.1583, 736.4274
383.6404, 728.4703
384.1225, 723.0474
384.6046, 720.7067
385.0868, 720.2264
385.5689, 720.9137
386.0510, 722.3722
386.5331, 723.1280
387.0152, 721.2182
387.4973, 718.7328
387.9795, 718.8871
388.4616, 721.7223
388.9437, 725.3846
389.4258, 728.7437
389.9079, 731.9679
390.3900, 735.2936
390.8722, 739.3275
391.3543, 742.8678
391.8364, 744.6375
392.3185, 745.0299
392.8006, 745.5592
393.2827, 746.5198
393.7649, 748.1508
394.2470, 750.7078
394.7291, 754.4757
395.2112, 758.4424
395.6933, 762.5036
396.1754, 766.4713
396.6576, 770.0702
397.1397, 772.1343
397.6218, 774.8444
398.1039, 779.5995
398.5860, 786.7681
399.0681, 791.9855
399.5503, 791.6984
400.0324, 791.2050
400.5145, 794.4385
400.9966, 805.0697
401.4787, 814.3696
401.9608, 821.8947
402.4430, 827.6945
402.9251, 831.6741
403.4072, 832.3387
403.8893, 833.4752
404.3714, 836.8394
404.8535, 842.9256
405.3357, 849.2640
405.8178, 855.7894
406.2999, 862.5430
406.7820, 869.5421
407.2641, 876.7796
407.7462, 884.2239
408.2284, 891.6136
408.7105, 899.1345
409.1926, 909.2002
409.6747, 922.2500
410.1568, 934.6359
410.6389, 941.8475
411.1211, 945.0262
411.6032, 951.2269
412.0853, 962.1393
412.5674, 975.5835
413.0495, 989.5280
413.5316, 1003.801
414.0138, 1017.111
414.4959, 1027.494
414.9780, 1037.114
415.4601, 1049.270
415.9422, 1064.343
416.4243, 1080.371
416.9065, 1096.617
417.3886, 1112.676
417.8707, 1127.548
418.3528, 1138.707
418.8349, 1150.831
419.3170, 1167.367
419.7992, 1187.848
420.2813, 1209.075
420.7634, 1230.555
421.2455, 1252.145
421.7276, 1273.642
422.2097, 1294.959
422.6919, 1316.773
423.1740, 1338.915
423.6561, 1361.796
424.1382, 1386.617
424.6203, 1413.721
425.1024, 1441.961
425.5846, 1471.350
426.0667, 1501.786
426.5488, 1532.969
427.0309, 1563.259
427.5130, 1596.102
427.9951, 1634.333
428.4773, 1680.619
428.9594, 1726.187
429.4415, 1768.770
429.9236, 1810.853
430.4057, 1859.223
430.8878, 1913.448
431.3700, 1974.688
431.8521, 2045.094
432.3342, 2124.679
432.8163, 2201.530
433.2984, 2273.305
433.7805, 2350.544
434.2627, 2445.538
434.7448, 2557.469
435.2269, 2677.213
435.7090, 2802.309
436.1911, 2936.394
436.6732, 3083.591
437.1554, 3244.712
437.6375, 3422.257
438.1196, 3619.211
438.6017, 3833.236
439.0838, 4061.321
439.5659, 4304.555
440.0480, 4558.226
440.5302, 4824.828
441.0123, 5100.675
441.4944, 5379.613
441.9765, 5664.181
442.4586, 5946.835
442.9407, 6219.626
443.4229, 6482.434
443.9050, 6755.187
444.3871, 7046.566
444.8692, 7346.815
445.3513, 7648.638
445.8334, 7948.074
446.3156, 8255.427
446.7977, 8556.740
447.2798, 8867.678
447.7619, 9215.380
448.2440, 9613.394
448.7261, 10032.91
449.2083, 10460.23
449.6904, 10895.70
450.1725, 11368.55
450.6546, 11875.85
451.1367, 12417.01
451.6188, 12990.65
452.1010, 13602.97
452.5831, 14241.70
453.0652, 14920.42
453.5473, 15622.43
454.0294, 16339.11
454.5115, 17079.80
454.9937, 17780.82
455.4758, 18445.15
455.9579, 19056.44
456.4400, 19554.00
456.9221, 19946.36
457.4042, 20183.73
457.8864, 20232.64
458.3685, 20091.82
458.8506, 19754.04
459.3327, 19206.91
459.8148, 18481.35
460.2969, 17571.54
460.7791, 16499.96
461.2612, 15369.08
461.7433, 14173.13
462.2254, 12978.69
462.7075, 11851.96
463.1896, 10787.39
463.6718, 9798.399
464.1539, 8901.130
464.6360, 8083.608
465.1181, 7349.880
465.6002, 6717.313
466.0823, 6149.358
466.5645, 5648.975
467.0466, 5211.724
467.5287, 4821.106
468.0108, 4489.190
468.4929, 4191.624
468.9750, 3920.737
469.4572, 3678.027
469.9393, 3459.100
470.4214, 3268.400
470.9035, 3099.247
471.3856, 2945.656
471.8677, 2808.912
472.3499, 2682.999
472.8320, 2564.975
473.3141, 2455.797
473.7962, 2357.834
474.2783, 2271.711
474.7604, 2192.431
475.2426, 2118.122
475.7247, 2048.208
476.2068, 1981.139
476.6889, 1916.350
477.1710, 1855.409
477.6531, 1800.800
478.1353, 1751.494
478.6174, 1704.567
479.0995, 1658.311
479.5816, 1614.685
480.0637, 1577.022
480.5458, 1544.382
481.0280, 1513.962
481.5101, 1485.515
481.9922, 1457.644
482.4743, 1429.101
482.9564, 1399.123
483.4385, 1370.939
483.9207, 1346.918
484.4028, 1325.166
484.8849, 1303.729
485.3670, 1281.897
485.8491, 1261.033
486.3312, 1241.159
486.8134, 1222.457
487.2955, 1205.368
487.7776, 1190.342
488.2597, 1176.933
488.7418, 1165.404
489.2239, 1156.536
489.7061, 1146.281
490.1882, 1134.255
490.6703, 1121.383
491.1524, 1108.003
491.6345, 1093.697
492.1166, 1081.622
492.5988, 1072.954
493.0809, 1065.989
493.5630, 1056.069
494.0451, 1043.211
494.5272, 1031.037
495.0093, 1022.144
495.4915, 1015.301
495.9736, 1007.992
496.4557, 1000.172
496.9378, 991.1044
497.4199, 978.2567
497.9020, 964.2632
498.3842, 953.6412
498.8663, 949.6996
499.3484, 946.4679
499.8305, 940.0668
500.3126, 931.4247
500.7947, 922.9183
501.2769, 914.7010
501.7590, 907.3395
502.2411, 901.5223
502.7232, 897.5667
503.2053, 892.6940
503.6874, 885.6216
504.1696, 878.1115
504.6517, 871.5592
505.1338, 866.7394
505.6159, 861.4639
506.0980, 855.2347
506.5801, 848.6658
507.0623, 843.2399
507.5444, 839.0889
508.0265, 835.4741
508.5086, 832.3737
508.9907, 829.6335
509.4728, 825.9039
509.9550, 821.1373
510.4371, 815.9093
510.9192, 809.8683
511.4013, 803.6559
511.8834, 800.3456
512.3655, 801.1198
512.8477, 802.4742
513.3298, 800.0536
513.8119, 795.0293
514.2940, 790.1726
514.7761, 786.3781
515.2582, 783.5330
515.7404, 781.7821
516.2225, 781.0083
516.7046, 780.3854
517.1867, 779.6530
517.6688, 778.8710
518.1509, 778.1396
518.6331, 777.6973
519.1152, 776.7198
519.5973, 773.9594
520.0794, 771.0089
520.5615, 769.9163
521.0436, 771.8656
521.5258, 773.8189
522.0079, 775.5279
522.4900, 776.8808
522.9721, 776.9567
523.4542, 774.9576
523.9363, 773.9999
524.4185, 776.0475
524.9006, 781.0995
525.3827, 786.0068
525.8648, 790.7911
526.3469, 795.5005
526.8290, 799.0731
527.3112, 802.3880
527.7933, 808.9092
528.2754, 820.0033
528.7575, 833.7687
529.2396, 848.6628
529.7217, 864.6356
530.2039, 881.2046
530.6860, 897.2935
531.1681, 914.6608
531.6502, 935.7082
532.1323, 960.5207
532.6144, 984.7488
533.0966, 1006.768
533.5787, 1027.706
534.0608, 1048.599
534.5429, 1068.855
535.0250, 1089.988
535.5071, 1111.548
535.9893, 1134.028
536.4714, 1157.751
536.9535, 1182.939
537.4356, 1208.757
537.9177, 1234.262
538.3998, 1260.145
538.8820, 1289.087
539.3641, 1320.569
539.8462, 1355.726
540.3283, 1395.106
540.8104, 1438.357
541.2925, 1483.821
541.7747, 1530.768
542.2568, 1582.962
542.7389, 1645.891
543.2210, 1717.134
543.7031, 1791.301
544.1852, 1867.592
544.6674, 1944.930
545.1495, 2023.586
545.6316, 2101.910
546.1137, 2175.762
546.5958, 2247.606
547.0779, 2310.844
547.5601, 2366.270
548.0422, 2414.130
548.5243, 2437.095
549.0064, 2431.110
549.4885, 2399.032
549.9706, 2341.879
550.4528, 2250.796
550.9349, 2151.738
551.4170, 2040.428
551.8991, 1922.695
552.3812, 1804.789
552.8633, 1684.856
553.3455, 1571.903
553.8276, 1466.768
554.3097, 1370.833
554.7918, 1289.082
555.2739, 1222.829
555.7560, 1165.473
556.2382, 1114.703
556.7203, 1070.023
557.2024, 1030.933
557.6845, 997.4702
558.1666, 967.4639
558.6487, 939.0834
559.1309, 913.3210
559.6130, 892.2141
560.0951, 877.3742
560.5772, 864.6310
561.0593, 852.8978
561.5414, 841.7233
562.0236, 830.4929
562.5057, 816.6916
562.9878, 805.1314
563.4699, 798.2848
563.9520, 795.6118
564.4341, 790.8349
564.9163, 782.2797
565.3984, 773.9515
565.8805, 767.8075
566.3626, 764.1349
566.8447, 760.8439
567.3268, 758.0693
567.8090, 755.1820
568.2911, 751.1890
568.7732, 746.2449
569.2553, 742.0885
569.7374, 739.1342
570.2195, 736.9031
570.7017, 735.3773
571.1838, 734.0526
571.6659, 731.3824
572.1480, 724.6818
572.6301, 717.6925
573.1122, 713.8153
573.5944, 712.7697
574.0765, 711.9511
574.5586, 709.8236
575.0407, 707.8473
575.5228, 707.1460
576.0049, 708.7733
576.4871, 709.0631
576.9692, 706.3478
577.4513, 703.0507
577.9334, 701.3544
578.4155, 701.5944
578.8976, 702.8126
579.3798, 705.2195
579.8619, 708.2982
580.3440, 710.4281
580.8261, 711.4479
581.3082, 713.5195
581.7903, 718.0760
582.2725, 724.2054
582.7546, 728.3669
583.2367, 730.8134
583.7188, 735.0618
584.2009, 744.9731
584.6830, 757.6426
585.1652, 769.3179
585.6473, 779.4485
586.1294, 789.2825
586.6115, 799.6600
587.0936, 810.1997
587.5757, 820.3665
588.0578, 829.7080
588.5399, 839.0314
589.0220, 848.8295
589.5042, 858.6600
589.9863, 867.4055
590.4684, 873.4232
590.9505, 880.7905
591.4326, 890.2397
591.9147, 901.8338
592.3969, 916.4427
592.8790, 934.4132
593.3611, 953.9206
593.8432, 972.8412
594.3253, 991.7804
594.8074, 1016.351
595.2896, 1047.002
595.7717, 1080.979
596.2538, 1115.369
596.7359, 1151.235
597.2180, 1191.681
597.7001, 1239.611
598.1823, 1285.764
598.6644, 1321.891
599.1465, 1352.176
599.6286, 1383.924
600.1107, 1426.449
600.5928, 1463.118
601.0750, 1492.680
601.5571, 1513.142
602.0392, 1515.160
602.5213, 1498.460
603.0034, 1463.555
603.4855, 1408.235
603.9677, 1330.639
604.4498, 1250.650
604.9319, 1166.219
605.4140, 1083.742
605.8961, 1009.230
606.3782, 942.1069
606.8604, 886.1584
607.3425, 842.2148
607.8246, 806.1554
608.3067, 774.5649
608.7888, 747.2609
609.2709, 724.6431
609.7531, 708.1184
610.2352, 694.8139
610.7173, 683.3547
611.1994, 673.5912
611.6815, 664.9934
612.1636, 657.8636
612.6458, 651.3359
613.1279, 644.8800
613.6100, 638.5543
614.0921, 633.2197
614.5742, 628.9147
615.0563, 625.4847
615.5385, 622.9402
616.0206, 621.3741
616.5027, 620.0872
616.9848, 619.1332
617.4669, 618.3080
617.9490, 617.6513
618.4312, 617.0215
618.9133, 615.5784
619.3954, 612.9249
619.8775, 609.9652
620.3596, 607.4642
620.8417, 605.4762
621.3239, 604.1614
621.8060, 604.0441
622.2881, 604.1464
622.7702, 603.9237
623.2523, 603.4424
623.7344, 603.0087
624.2166, 602.3437
624.6987, 602.0777
625.1808, 602.7448
625.6629, 604.4728
626.1450, 605.0067
626.6271, 603.6227
627.1093, 602.2094
627.5914, 602.2389
628.0735, 603.8369
628.5556, 604.9823
629.0377, 605.5306
629.5198, 605.8019
630.0020, 605.9625
630.4841, 606.1466
630.9662, 606.7593
631.4483, 607.9052
631.9304, 609.5374
632.4125, 612.1085
632.8947, 615.0993
633.3768, 617.5110
633.8589, 618.6068
634.3410, 619.3613
634.8231, 620.1151
635.3052, 620.8673
635.7874, 621.5314
636.2695, 622.3776
636.7516, 622.7661
637.2337, 621.9608
637.7158, 619.7893
638.1979, 620.3938
638.6801, 624.5133
639.1622, 629.2382
639.6443, 632.2028
640.1264, 633.5928
640.6085, 635.3236
641.0906, 637.5211
641.5728, 640.0563
642.0549, 643.0162
642.5370, 646.1866
643.0191, 649.2145
643.5012, 651.9233
643.9833, 654.6539
644.4655, 657.8365
644.9476, 661.1670
645.4297, 664.2482
645.9118, 666.8688
646.3939, 669.3237
646.8760, 671.5568
647.3582, 673.6710
647.8403, 676.2202
648.3224, 680.5202
648.8045, 682.6493
649.2866, 680.6763
649.7687, 675.0385
650.2509, 669.9462
650.7330, 665.3812
651.2151, 661.0707
651.6972, 657.0967
652.1793, 653.1367
652.6614, 648.5380
653.1436, 643.2353
653.6257, 637.6444
654.1078, 631.3616
654.5899, 625.3932
655.0720, 620.8304
655.5541, 618.3748
656.0363, 616.4750
656.5184, 615.3623
657.0005, 614.3068
657.4826, 612.2429
657.9647, 607.7530
658.4468, 604.6413
658.9290, 603.6571
659.4111, 604.1354
659.8932, 604.6727
660.3753, 605.3251
660.8574, 605.4718
661.3395, 604.5895
661.8217, 603.2235
662.3038, 602.5410
662.7859, 602.5483
663.2680, 603.3135
663.7501, 606.7114
664.2322, 609.6977
664.7144, 608.3392
665.1965, 602.6494
665.6786, 598.1046
666.1607, 597.6613
666.6428, 598.6554
667.1249, 599.6497
667.6071, 600.9363
668.0892, 600.8371
668.5713, 597.9429
669.0534, 595.2175
669.5355, 595.8153
670.0176, 600.4482
670.4998, 603.4108
670.9819, 603.9471
671.4640, 603.2961
671.9461, 603.2323
672.4282, 603.5242
672.9103, 603.1125
673.3925, 601.0381
673.8746, 599.2107
674.3567, 600.3718
674.8388, 603.2098
675.3209, 604.9100
675.8030, 603.3934
676.2852, 601.4294
676.7673, 599.8737
677.2494, 598.7397
677.7315, 597.9424
678.2136, 597.4124
678.6957, 597.2756
679.1779, 597.6282
679.6600, 598.4603
680.1421, 599.3644
680.6242, 600.3303
681.1063, 601.5026
681.5884, 603.6357
682.0706, 606.0826
682.5527, 606.3524
683.0348, 604.2748
683.5169, 601.9442
683.9990, 601.0743
684.4811, 600.8240
684.9633, 600.1210
685.4454, 598.4449
685.9275, 597.3856
686.4096, 598.1833
686.8917, 599.5406
687.3738, 600.0005
687.8560, 598.6302
688.3381, 597.9260
688.8202, 598.1282
689.3023, 598.9336
689.7844, 599.9945
690.2665, 601.3561
690.7487, 602.3777
691.2308, 603.0008
691.7129, 603.0079
692.1950, 601.4174
692.6771, 598.7409
693.1592, 596.8348
693.6414, 596.9219
694.1235, 597.8622
694.6056, 599.6612
695.0877, 601.7971
695.5698, 602.2192
696.0519, 597.4796
696.5341, 593.6478
697.0162, 593.9465
697.4983, 598.2977
697.9804, 599.9375
698.4625, 597.4603
698.9446, 595.1804
699.4268, 596.3037
699.9089, 600.5497
700.3910, 601.4267
700.8731, 598.6876
701.3552, 595.7382
701.8373, 595.6378
702.3195, 597.3340
702.8016, 599.5259
703.2837, 602.3206
703.7658, 603.5024
704.2479, 599.6783
704.7300, 594.6510
705.2122, 592.0674
705.6943, 593.9015
706.1764, 596.1854
706.6585, 599.8175
707.1406, 602.8986
707.6227, 602.7494
708.1049, 598.2633
708.5870, 595.1252
709.0691, 594.3475
709.5512, 594.9750
710.0333, 595.7222
710.5154, 596.5115
710.9976, 596.7706
711.4797, 595.3035
711.9618, 594.5583
712.4439, 598.9235
712.9260, 606.0139
713.4081, 610.1740
713.8903, 606.3807
714.3724, 602.0294
714.8545, 599.5443
715.3366, 598.9155
715.8187, 599.2747
716.3008, 601.2241
716.7830, 603.1315
717.2651, 604.4579
717.7472, 605.2740
718.2293, 606.0926
718.7114, 606.9221
719.1935, 607.6443
719.6757, 608.6658
720.1578, 609.3716
720.6399, 607.7572
721.1220, 603.9972
721.6041, 601.5911
722.0862, 604.2881
722.5684, 608.2138
723.0505, 610.2987
723.5326, 609.5844
724.0147, 609.9026
724.4968, 613.0582
724.9789, 616.3038
725.4611, 617.7131
725.9432, 616.4117
726.4253, 617.0234
726.9074, 620.2321
727.3895, 623.4816
727.8716, 623.3798
728.3538, 620.8565
728.8359, 619.6740
729.3180, 620.5740
729.8001, 622.3199
730.2822, 624.7155
730.7643, 626.9467
731.2465, 627.7051
731.7286, 624.3878
732.2107, 623.0631
732.6928, 627.0107
733.1749, 633.3927
733.6570, 637.8465
734.1392, 639.7103
734.6213, 640.9083
735.1034, 641.4853
735.5855, 641.7295
736.0676, 641.9653
736.5497, 642.2426
737.0319, 643.4824
737.5140, 646.3959
737.9961, 649.8301
738.4782, 652.3726
738.9603, 654.2149
739.4424, 655.8409
739.9246, 656.5215
740.4067, 657.9979
740.8888, 661.4966
741.3709, 666.5918
741.8530, 671.3593
742.3351, 675.7015
742.8173, 679.6593
743.2994, 682.9440
743.7815, 685.8693
744.2636, 690.3246
744.7457, 696.3973
745.2278, 702.7982
745.7100, 708.7035
746.1921, 714.3625
746.6742, 719.9238
747.1563, 725.5015
747.6384, 731.6799
748.1205, 738.5626
748.6027, 746.4553
749.0848, 756.1354
749.5669, 767.6789
750.0490, 777.7650
750.5311, 784.5294
751.0132, 791.4099
751.4954, 800.2628
751.9775, 811.3384
752.4596, 820.8920
752.9417, 828.6305
753.4238, 836.8340
753.9059, 848.6320
754.3881, 862.2485
754.8702, 872.8802
755.3523, 880.0358
755.8344, 887.5259
756.3165, 898.0501
756.7986, 910.1458
757.2808, 922.7333
757.7629, 936.1256
758.2450, 948.6467
758.7271, 960.3604
759.2092, 970.9642
759.6913, 980.0767
760.1735, 987.0264
760.6556, 995.3127
761.1377, 1005.415
761.6198, 1015.557
762.1019, 1024.873
762.5840, 1032.696
763.0662, 1036.421
763.5483, 1035.383
764.0304, 1031.492
764.5125, 1026.432
764.9946, 1019.402
765.4767, 1009.227
765.9589, 992.6682
766.4410, 978.0812
766.9231, 969.2054
767.4052, 961.5345
767.8873, 949.9803
768.3694, 933.5988
768.8516, 917.5646
769.3337, 902.3090
769.8158, 887.8668
770.2979, 874.1725
770.7800, 861.3168
771.2621, 849.8829
771.7443, 840.6810
772.2264, 831.3093
772.7085, 818.0810
773.1906, 803.8329
773.6727, 792.7968
774.1548, 789.5504
774.6370, 785.4557
775.1191, 778.1242
775.6012, 769.5508
776.0833, 763.2223
776.5654, 759.8953
777.0475, 755.3130
777.5297, 748.2883
778.0118, 740.2791
778.4939, 733.1585
778.9760, 727.1713
779.4581, 723.3949
779.9402, 723.4504
780.4224, 724.0834
780.9045, 722.7485
781.3866, 720.1224
781.8687, 717.4906
782.3508, 714.2214
782.8329, 712.2040
783.3151, 712.4475
783.7972, 713.8593
784.2793, 714.1028
784.7614, 713.1246
785.2435, 711.1011
785.7256, 707.5529
786.2077, 703.7033
786.6898, 701.7049
787.1719, 701.5116
787.6541, 703.0067
788.1362, 707.9191
788.6183, 712.7976
789.1004, 714.6012
789.5825, 714.5901
790.0646, 715.8492
790.5468, 720.6810
791.0289, 724.8510
791.5110, 726.7272
791.9931, 727.5793
792.4752, 731.7353
792.9573, 739.6746
793.4395, 746.8467
793.9216, 751.5988
794.4037, 754.7842
794.8858, 756.8209
795.3679, 758.4986
795.8500, 762.2706
796.3322, 771.9291
796.8143, 781.5348
797.2964, 786.5148
797.7785, 788.5555
798.2606, 793.7762
798.7427, 805.4584
799.2249, 816.2113
799.7070, 823.9686
800.1891, 829.7231
800.6712, 837.0842
801.1533, 846.0546
801.6354, 854.8260
802.1176, 862.0841
802.5997, 869.2729
803.0818, 879.9589
803.5639, 892.5641
804.0460, 902.2704
804.5281, 905.5627
805.0103, 906.8361
805.4924, 907.9818
805.9745, 908.6364
806.4566, 907.4402
806.9387, 904.6823
807.4208, 899.4498
807.9030, 891.4183
808.3851, 880.7662
808.8672, 866.8768
809.3493, 850.1890
809.8314, 834.7492
810.3135, 824.2132
810.7957, 814.4460
811.2778, 800.6437
811.7599, 784.1426
812.2420, 768.6924
812.7241, 756.0258
813.2062, 744.1740
813.6884, 732.3817
814.1705, 720.8923
814.6526, 710.9781
815.1347, 703.0076
815.6168, 694.7358
816.0989, 685.1001
816.5811, 675.0378
817.0632, 666.1105
817.5453, 658.4476
818.0274, 652.7181
818.5095, 650.6090
818.9916, 649.2286
819.4738, 646.8768
819.9559, 643.7823
820.4380, 640.6122
820.9201, 636.7595
821.4022, 633.7933
821.8843, 632.4083
822.3665, 631.9036
822.8486, 630.3273
823.3307, 627.6474
823.8128, 625.4230
824.2949, 624.3829
824.7770, 623.7521
825.2592, 622.2609
825.7413, 620.2621
826.2234, 618.5343
826.7055, 617.2111
827.1876, 616.4282
827.6697, 616.9423
828.1519, 617.9103
828.6340, 617.3560
829.1161, 614.4037
829.5982, 612.0054
830.0803, 610.7829
830.5624, 610.2693
831.0446, 609.4898
831.5267, 608.5689
832.0088, 608.1339
832.4909, 608.5332
832.9730, 609.2459
833.4551, 610.4169
833.9373, 611.4340
834.4194, 611.3082
834.9015, 608.2676
835.3836, 606.0561
835.8657, 605.6215
836.3478, 605.8633
836.8300, 605.0995
837.3121, 603.2347
837.7942, 600.9453
838.2763, 597.7648
838.7584, 595.8531
839.2405, 600.3679
839.7227, 607.9667
840.2048, 611.4763
840.6869, 606.9493
841.1690, 602.4758
841.6511, 602.5276
842.1332, 604.4152
842.6154, 604.8007
843.0975, 602.2274
843.5796, 601.2411
844.0617, 602.6237
844.5438, 604.5001
845.0259, 604.2882
845.5081, 602.4646
845.9902, 601.6384
846.4723, 602.4163
846.9544, 602.8175
847.4365, 599.7780
847.9186, 596.1289
848.4008, 595.2648
848.8829, 599.1652
849.3650, 602.0214
849.8471, 602.7548
850.3292, 602.6172
850.8113, 602.4588
851.2935, 602.3045
851.7756, 601.7164
852.2577, 600.5558
852.7398, 599.9242
853.2219, 602.1027
853.7040, 604.9514
854.1862, 604.3814
854.6683, 599.7751
855.1504, 596.1349
855.6325, 595.9279
856.1146, 597.3513
856.5967, 599.8326
857.0789, 603.6862
857.5610, 604.8188
858.0431, 602.4496
858.5252, 599.6797
859.0073, 598.4686
859.4894, 598.4951
859.9716, 598.4807
860.4537, 598.4827
860.9358, 599.2109
861.4179, 602.4511
861.9000, 605.4822
862.3821, 606.3472
862.8643, 605.0212
863.3464, 603.1097
863.8285, 599.9496
864.3106, 597.7174
864.7927, 597.4938
865.2748, 598.7721
865.7570, 599.2194
866.2391, 598.8859
866.7212, 598.5037
867.2033, 598.3638
867.6854, 598.4348
868.1675, 598.8192
868.6497, 599.3873
869.1318, 599.7634
869.6139, 599.3215
870.0960, 599.2936
870.5781, 600.4091
871.0602, 601.9523
871.5424, 601.7301
872.0245, 599.4183
872.5066, 598.7220
872.9887, 601.3541
873.4708, 604.6270
873.9529, 603.9234
874.4351, 600.7909
874.9172, 598.6412
875.3993, 599.4325
875.8814, 600.1432
876.3635, 599.4318
876.8456, 598.0941
877.3278, 597.2183
877.8099, 596.8569
878.2920, 596.8383
878.7741, 597.1855
879.2562, 597.7992
879.7383, 598.8329
880.2205, 600.0245
880.7026, 600.4255
881.1847, 599.6658
881.6668, 599.2927
882.1489, 601.1651
882.6310, 603.3721
883.1132, 604.0954
883.5953, 602.4833
884.0774, 601.3307
884.5595, 600.6715
885.0416, 600.3814
885.5237, 600.3295
886.0059, 600.5447
886.4880, 601.4840
886.9701, 603.1256
887.4522, 604.4981
887.9343, 605.1564
888.4164, 605.0372
888.8986, 603.3437
889.3807, 600.1125
889.8628, 599.0978
890.3449, 602.3026
890.8270, 605.6342
891.3091, 607.8191
891.7913, 608.8955
892.2734, 608.7787
892.7555, 607.5069
893.2376, 605.7888
893.7197, 603.1436
894.2018, 600.9408
894.6840, 601.3052
895.1661, 603.2652
895.6482, 604.1288
896.1303, 601.1239
896.6124, 599.4173
897.0945, 600.6476
897.5767, 603.4125
898.0588, 604.6465
898.5409, 604.3033
899.0230, 603.9918
899.5051, 604.0009
899.9872, 604.4188
900.4694, 605.9749
900.9515, 607.8490
901.4336, 608.5587
901.9157, 606.8009
902.3978, 605.6421
902.8799, 606.4592
903.3621, 607.8633
903.8442, 608.6656
904.3263, 608.7067
904.8084, 609.1954
905.2905, 610.3129
905.7726, 611.1868
906.2548, 610.5756
906.7369, 609.3295
907.2190, 609.0501
907.7011, 609.9344
908.1832, 610.3348
908.6653, 608.2032
909.1475, 606.6097
909.6296, 607.5839
910.1117, 611.0573
910.5938, 613.3296
911.0759, 614.2743
911.5580, 614.6282
912.0402, 614.7855
912.5223, 614.6339
913.0044, 613.6016
913.4865, 611.9822
913.9686, 610.9039
914.4507, 611.2971
914.9329, 611.9236
915.4150, 612.3676
915.8971, 612.6472
916.3792, 612.9449
916.8613, 613.4720
917.3434, 612.9101
917.8256, 610.4635
918.3077, 607.8641
918.7898, 608.0535
919.2719, 610.2836
919.7540, 612.9784
920.2361, 616.2393
920.7183, 618.5470
921.2004, 618.7504
921.6825, 617.9069
922.1646, 617.0966
922.6467, 616.2733
923.1288, 615.7782
923.6110, 615.7356
924.0931, 615.6149
924.5752, 614.7137
925.0573, 613.4189
925.5394, 612.4552
926.0215, 611.8932
926.5037, 612.0385
926.9858, 614.0951
927.4679, 616.0085
927.9500, 616.5214
928.4321, 615.6949
928.9142, 613.9518
929.3964, 610.8528
929.8785, 608.4424
930.3606, 607.5488
930.8427, 607.9496
931.3248, 609.8685
931.8069, 612.7461
932.2891, 614.7585
932.7712, 614.3055
933.2533, 613.6761
933.7354, 613.6394
934.2175, 614.1190
934.6996, 615.1320
935.1818, 617.3316
935.6639, 617.5903
936.1460, 615.0431
936.6281, 611.8220
937.1102, 610.8929
937.5923, 611.4017
938.0745, 611.4063
938.5566, 610.3403
939.0387, 609.8287
939.5208, 611.3782
940.0029, 613.2608
940.4850, 614.3961
940.9672, 614.8732
941.4493, 613.4208
941.9314, 609.5958
942.4135, 605.9146
942.8956, 603.4695
943.3777, 602.5785
943.8599, 605.3084
944.3420, 610.6307
944.8241, 613.4713
945.3062, 607.8784
945.7883, 603.0244
946.2704, 603.5802
946.7526, 607.6034
947.2347, 610.0521
947.7168, 610.7474
948.1989, 611.1469
948.6810, 611.6658
949.1631, 611.9816
949.6453, 611.7206
950.1274, 610.8871
950.6095, 609.3544
951.0916, 606.3744
951.5737, 604.2521
952.0558, 604.0743
952.5380, 604.7371
953.0201, 605.5105
953.5022, 606.4269
953.9843, 607.2291
954.4664, 607.9398
954.9485, 608.1598
955.4307, 607.0685
955.9128, 605.5808
956.3949, 605.0626
956.8770, 605.4801
957.3591, 605.4869
957.8412, 603.7024
958.3234, 602.5861
958.8055, 603.1451
959.2876, 604.8757
959.7697, 605.9288
960.2518, 606.3151
960.7339, 606.3807
961.2161, 606.2380
961.6982, 605.8444
962.1803, 604.4557
962.6624, 602.9905
963.1445, 602.8875
963.6266, 606.3779
964.1088, 608.3624
964.5909, 607.8784
965.0730, 606.7656
965.5551, 607.1855
966.0372, 608.8676
966.5193, 609.3043
967.0015, 608.3116
967.4836, 606.7977
967.9657, 604.5396
968.4478, 602.7873
968.9299, 602.8755
969.4120, 604.8830
969.8942, 606.6749
970.3763, 608.3387
970.8584, 609.4349
971.3405, 609.9411
971.8226, 609.6854
972.3047, 607.4786
972.7869, 603.9285
973.2690, 601.5103
973.7511, 601.7777
974.2332, 602.6576
974.7153, 603.3342
975.1974, 603.7977
975.6796, 604.0576
976.1617, 604.1404
976.6438, 603.8215
977.1259, 602.8851
977.6080, 602.2610
978.0901, 603.6169
978.5723, 605.7825
979.0544, 606.1730
979.5365, 604.5677
980.0186, 602.8752
980.5007, 601.1079
980.9828, 600.4850
981.4650, 602.3228
981.9471, 605.9722
982.4291, 607.0217
982.9113, 605.2709
983.3934, 603.0529
983.8755, 600.6940
984.3576, 599.2181
984.8397, 601.2714
985.3218, 604.9244
985.8040, 606.5250
986.2861, 602.1346
986.7682, 599.7307
987.2503, 601.3239
987.7324, 603.9874
988.2145, 604.6123
988.6967, 603.3273
989.1788, 602.6338
989.6609, 602.7079
990.1430, 602.7566
990.6251, 601.6310
991.1072, 600.5985
991.5894, 600.9457
992.0715, 602.6972
992.5536, 604.1891
993.0357, 605.3143
993.5178, 606.2321
993.9999, 607.1505
994.4821, 607.7174
994.9642, 606.5820
995.4463, 604.2859
995.9284, 602.6742
996.4105, 602.5828
996.8926, 602.9748
997.3748, 603.4435
997.8569, 604.0370
998.3390, 604.9557
998.8211, 606.7029
999.3032, 606.7309
999.7853, 604.7304
1000.267, 602.5052
1000.750, 601.2316
1001.232, 600.9452
1001.714, 602.6743
1002.196, 605.9735
1002.678, 607.3256
1003.160, 602.6683
1003.642, 599.0583
1004.124, 599.1667
1004.607, 601.5143
1005.089, 601.5118
1005.571, 599.3407
1006.053, 599.1560
1006.535, 602.7223
1007.017, 606.7432
1007.499, 608.7911
1007.981, 609.1915
1008.463, 608.0679
1008.946, 604.0309
1009.428, 602.3412
1009.910, 603.9745
1010.392, 605.9800
1010.874, 606.1472
1011.356, 605.0256
1011.838, 604.6669
1012.320, 604.9264
1012.802, 604.9010
1013.285, 603.1198
1013.767, 601.9838
1014.249, 603.4785
1014.731, 606.2785
1015.213, 607.4261
1015.695, 606.5897
1016.177, 606.3093
1016.659, 607.2035
1017.142, 607.9751
1017.624, 606.1727
1018.106, 603.6556
1018.588, 603.3522
1019.070, 606.1913
1019.552, 608.1140
1020.034, 607.6163
1020.516, 606.8841
1020.998, 606.8679
1021.481, 607.4399
1021.963, 607.9371
1022.445, 608.3781
1022.927, 608.9027
1023.409, 609.7667
1023.891, 610.5172
1024.373, 610.9140
1024.855, 610.9728
1025.338, 610.5964
1025.820, 609.1815
1026.302, 609.3629
1026.784, 611.7990
1027.266, 614.1417
1027.748, 613.3866
1028.230, 611.0143
1028.712, 609.7427
1029.194, 609.7708
1029.677, 610.0605
1030.159, 610.5726
1030.641, 610.8264
1031.123, 610.4988
1031.605, 609.8501
1032.087, 610.0559
1032.569, 611.0248
1033.051, 610.8561
1033.534, 608.2366
1034.016, 606.1378
1034.498, 608.3720
1034.980, 612.0978
1035.462, 613.7003
1035.944, 611.2991
1036.426, 611.0364
1036.908, 613.7177
1037.391, 616.3102
1037.873, 616.1427
1038.355, 614.4079
1038.837, 614.1837
1039.319, 615.2109
1039.801, 616.2505
1040.283, 617.0490
1040.765, 617.3500
1041.247, 616.6869
1041.729, 615.7198
1042.212, 615.5547
1042.694, 616.2020
1043.176, 616.8976
1043.658, 617.6038
1044.140, 617.8199
1044.622, 616.5587
1045.104, 614.9541
1045.586, 614.0806
1046.069, 614.0881
1046.551, 614.3824
1047.033, 614.9648
1047.515, 615.7836
1047.997, 617.0260
1048.479, 618.2629
1048.961, 618.3953
1049.443, 617.7657
1049.926, 617.1958
1050.408, 616.6578
1050.890, 616.7957
1051.372, 618.9135
1051.854, 620.9487
1052.336, 621.0365
1052.818, 619.0392
1053.300, 617.6478
1053.782, 616.8881
1054.265, 617.2528
1054.747, 621.1627
1055.229, 624.5551
1055.711, 622.9321
1056.193, 617.7581
1056.675, 614.6971
1057.157, 614.0779
1057.639, 615.9918
1058.121, 621.5151
1058.604, 626.8820
1059.086, 625.4069
1059.568, 620.3608
1060.050, 618.7194
1060.532, 621.9191
1061.014, 624.1236
1061.496, 622.2587
1061.978, 619.6757
1062.461, 617.5048
1062.943, 615.8475
1063.425, 615.1790
1063.907, 615.4563
1064.389, 616.2345
1064.871, 617.5726
1065.353, 618.9553
1065.835, 620.3310
1066.318, 621.3549
1066.800, 621.4631
1067.282, 620.0751
1067.764, 619.8402
1068.246, 620.9613
1068.728, 622.2635
1069.210, 623.1688
1069.692, 623.4923
1070.174, 622.5059
1070.656, 620.5956
1071.139, 619.2560
1071.621, 619.2194
1072.103, 619.5471
1072.585, 620.3793
1073.067, 621.1080
1073.549, 620.4056
1074.031, 618.7410
1074.513, 618.1620
1074.996, 618.9807
1075.478, 620.3505
1075.960, 622.8312
1076.442, 624.6761
1076.924, 624.3399
1077.406, 622.2838
1077.888, 621.2374
1078.370, 621.2636
1078.853, 621.0167
1079.335, 619.8177
1079.817, 618.6920
1080.299, 618.6969
1080.781, 619.5096
1081.263, 620.8326
1081.745, 623.2889
1082.227, 624.3139
1082.709, 623.6140
1083.192, 622.2077
1083.674, 620.1317
1084.156, 618.0575
1084.638, 617.8558
1085.120, 619.1725
1085.602, 620.7730
1086.084, 622.5393
1086.566, 624.0429
1087.048, 625.3132
1087.531, 626.1782
1088.013, 626.3511
1088.495, 625.8716
1088.977, 625.1909
1089.459, 624.3410
1089.941, 623.3600
1090.423, 622.0868
1090.905, 620.8624
1091.387, 619.8038
1091.870, 618.9843
1092.352, 618.6357
1092.834, 618.7429
1093.316, 619.5436
1093.798, 621.3040
1094.280, 623.0212
1094.762, 623.5746
1095.244, 623.3521
1095.727, 622.7671
1096.209, 621.8450
1096.691, 620.7324
1097.173, 619.2437
1097.655, 618.0253
1098.137, 617.1819
1098.619, 616.9789
1099.101, 618.6602
1099.583, 621.4581
1100.066, 623.5049
1100.548, 624.3629
1101.030, 623.9544
1101.512, 620.6595
1101.994, 617.7829
1102.476, 618.7202
1102.958, 623.0314
1103.440, 623.4046
1103.922, 620.1671
1104.405, 617.2296
1104.887, 617.0519
1105.369, 617.6813
1105.851, 618.2770
1106.333, 618.8441
1106.815, 619.4346
1107.297, 620.0547
1107.779, 620.7783
1108.262, 621.7023
1108.744, 621.9718
1109.226, 620.4047
1109.708, 618.0886
1110.190, 615.7579
1110.672, 613.5894
1111.154, 612.4252
1111.636, 612.6813
1112.119, 612.6637
1112.601, 611.6870
1113.083, 610.9468
1113.565, 612.7839
1114.047, 615.9588
1114.529, 618.2687
1115.011, 619.2985
1115.493, 619.9114
1115.975, 620.8198
1116.458, 620.4916
1116.940, 617.4527
1117.422, 613.1837
1117.904, 613.2219
1118.386, 616.2929
1118.868, 617.8984
1119.350, 615.3601
1119.832, 613.1930
1120.314, 613.5958
1120.797, 614.9034
1121.279, 615.9842
1121.761, 616.8337
1122.243, 617.5714
1122.725, 618.1594
1123.207, 618.0924
1123.689, 615.3861
1124.171, 613.6669
1124.654, 617.0875
1125.136, 622.4094
1125.618, 623.5036
1126.100, 619.0912
1126.582, 617.3290
1127.064, 618.9786
1127.546, 620.7239
1128.028, 619.1937
1128.510, 616.6931
1128.993, 615.5453
1129.475, 615.6499
1129.957, 615.7673
1130.439, 616.0463
1130.921, 615.4586
1131.403, 613.4547
1131.885, 611.6906
1132.367, 613.5406
1132.849, 616.4808
1133.332, 615.9816
1133.814, 611.4406
1134.296, 608.4385
1134.778, 608.8052
1135.260, 609.7513
1135.742, 610.6235
1136.224, 611.3756
1136.706, 611.7833
1137.189, 612.0203
1137.671, 612.7203
1138.153, 614.3422
1138.635, 615.1085
1139.117, 613.1257
1139.599, 611.4337
1140.081, 611.9264
1140.563, 613.8629
1141.046, 613.4965
1141.528, 611.2013
1142.010, 608.7466
1142.492, 606.0799
1142.974, 604.8605
1143.456, 607.2592
1143.938, 610.5625
1144.420, 612.2888
1144.902, 612.3815
1145.385, 612.8077
1145.867, 613.5283
1146.349, 613.7767
1146.831, 612.8868
1147.313, 611.5438
1147.795, 609.5675
1148.277, 607.7591
1148.759, 607.6004
1149.241, 609.6805
1149.724, 610.2574
1150.206, 609.0988
1150.688, 607.1831
1151.170, 603.7075
1151.652, 601.2385
1152.134, 603.3189
1152.616, 608.6049
1153.098, 611.6435
1153.581, 611.4898
1154.063, 611.5685
1154.545, 612.4691
1155.027, 613.0692
1155.509, 611.0190
1155.991, 608.6027
1156.473, 609.4484
1156.955, 613.4991
1157.438, 615.3534
1157.920, 613.6134
1158.402, 611.9490
1158.884, 611.2064
1159.366, 610.9494
1159.848, 610.6251
1160.330, 610.3040
1160.812, 609.9832
1161.294, 609.6024
1161.776, 609.9863
1162.259, 611.8052
1162.741, 613.4628
1163.223, 614.4545
1163.705, 614.8790
1164.187, 614.9915
1164.669, 614.7010
1165.151, 613.4777
1165.633, 610.4019
1166.116, 609.2960
1166.598, 613.2958
1167.080, 616.5209
1167.562, 615.5330
1168.044, 611.7980
1168.526, 610.6226
1169.008, 611.3610
1169.490, 611.6907
1169.973, 610.6188
1170.455, 609.3383
1170.937, 607.5162
1171.419, 606.4381
1171.901, 607.4862
1172.383, 610.2467
1172.865, 611.3069
1173.347, 610.8791
1173.829, 610.2548
1174.312, 609.3607
1174.794, 609.2751
1175.276, 611.3851
1175.758, 613.7958
1176.240, 614.5643
1176.722, 613.7377
1177.204, 613.3645
1177.686, 613.4644
1178.168, 613.7008
1178.651, 614.3690
1179.133, 614.5637
1179.615, 613.2772
1180.097, 611.5054
1180.579, 610.7648
1181.061, 611.0814
1181.543, 610.8854
1182.025, 610.0637
1182.508, 609.5035
1182.990, 610.2803
1183.472, 611.1025
1183.954, 610.6436
1184.436, 609.7458
1184.918, 610.4855
1185.400, 612.9684
1185.882, 615.2316
1186.365, 617.0897
1186.847, 617.8553
1187.329, 615.9752
1187.811, 613.6553
1188.293, 612.4196
1188.775, 612.2698
1189.257, 613.3625
1189.739, 615.8993
1190.221, 616.8339
1190.703, 615.3940
1191.186, 613.3317
1191.668, 611.6424
1192.150, 610.6147
1192.632, 610.6909
1193.114, 611.7695
1193.596, 613.1832
1194.078, 615.0484
1194.560, 615.7866
1195.043, 614.5319
1195.525, 613.5460
1196.007, 616.6002
1196.489, 620.0687
1196.971, 619.3513
1197.453, 614.2515
1197.935, 613.3456
1198.417, 617.2202
1198.900, 620.2328
1199.382, 620.1642
1199.864, 618.9819
1200.346, 618.2215
1200.828, 617.8468
1201.310, 618.0507
1201.792, 618.9824
1202.274, 618.5481
1202.756, 616.5063
1203.239, 615.2567
1203.721, 616.0795
1204.203, 617.7849
1204.685, 620.0821
1205.167, 621.9608
1205.649, 621.6730
1206.131, 618.5214
1206.613, 616.4145
1207.095, 615.3019
1207.578, 615.4273
1208.060, 617.6667
1208.542, 620.2542
1209.024, 621.1288
1209.506, 621.0991
1209.988, 621.5013
1210.470, 622.9055
1210.952, 622.8411
1211.435, 621.1700
1211.917, 619.2215
1212.399, 617.1895
1212.881, 615.9001
1213.363, 616.3569
1213.845, 618.1183
1214.327, 620.6417
1214.809, 624.8856
1215.292, 625.8068
1215.774, 622.9307
1216.256, 620.4650
1216.738, 622.7087
1217.220, 625.7291
1217.702, 625.5031
1218.184, 623.2638
1218.666, 621.6513
1219.148, 620.6786
1219.630, 620.9539
1220.113, 622.5944
1220.595, 624.6315
1221.077, 627.1646
1221.559, 628.9612
1222.041, 628.4324
1222.523, 626.3820
1223.005, 624.7722
1223.487, 623.6009
1223.970, 623.4772
1224.452, 624.5516
1224.934, 625.4781
1225.416, 624.6718
1225.898, 623.7101
1226.380, 623.9999
1226.862, 625.2199
1227.344, 626.3386
1227.827, 627.4044
1228.309, 627.9330
1228.791, 627.8663
1229.273, 627.5143
1229.755, 626.4781
1230.237, 625.8658
1230.719, 627.6515
1231.201, 630.3630
1231.683, 629.2855
1232.166, 623.8319
1232.648, 621.9388
1233.130, 624.6461
1233.612, 627.9721
1234.094, 628.7596
1234.576, 628.9135
1235.058, 629.5005
1235.540, 630.5984
1236.022, 632.7978
1236.505, 636.1544
1236.987, 637.1657
1237.469, 635.3024
1237.951, 632.7121
1238.433, 629.5925
1238.915, 627.7725
1239.397, 629.6417
1239.879, 633.3177
1240.362, 634.4734
1240.844, 633.3096
1241.326, 633.2059
1241.808, 634.7839
1242.290, 635.7335
1242.772, 633.6001
1243.254, 631.2844
1243.736, 629.9464
1244.219, 629.6854
1244.701, 631.3601
1245.183, 634.5355
1245.665, 636.4769
1246.147, 636.6526
1246.629, 636.0972
1247.111, 635.1430
1247.593, 633.7591
1248.075, 631.4424
1248.557, 629.1472
1249.040, 629.3860
1249.522, 631.6042
1250.004, 633.6969
1250.486, 635.3416
1250.968, 636.4315
1251.450, 637.5887
1251.932, 637.0146
1252.414, 633.0815
1252.897, 628.3508
1253.379, 629.4408
1253.861, 634.0541
1254.343, 635.7728
1254.825, 633.3054
1255.307, 631.7383
1255.789, 633.3031
1256.271, 635.1749
1256.754, 636.8201
1257.236, 637.8844
1257.718, 637.2042
1258.200, 635.6271
1258.682, 634.7416
1259.164, 634.8261
1259.646, 635.2915
1260.128, 636.5397
1260.610, 636.9278
1261.093, 635.8483
1261.575, 633.9461
1262.057, 631.1050
1262.539, 628.6429
1263.021, 629.1413
1263.503, 633.2147
1263.985, 634.9477
1264.467, 633.3284
1264.949, 632.1194
1265.432, 632.6127
1265.914, 633.4169
1266.396, 632.3853
1266.878, 630.9050
1267.360, 630.7084
1267.842, 631.9908
1268.324, 632.9569
1268.806, 633.6451
1269.289, 633.4919
1269.771, 632.0507
1270.253, 630.7454
1270.735, 631.4357
1271.217, 632.5610
1271.699, 632.4054
1272.181, 631.2295
1272.663, 631.0665
1273.146, 631.8922
1273.628, 631.8547
1274.110, 630.0829
1274.592, 629.1931
1275.074, 632.6019
1275.556, 636.1662
1276.038, 636.9646
1276.520, 635.7637
1277.002, 635.5593
1277.484, 636.1537
1277.967, 636.3102
1278.449, 635.6818
1278.931, 634.8622
1279.413, 633.8183
1279.895, 633.0785
1280.377, 632.9781
1280.859, 633.2332
1281.341, 633.2874
1281.823, 633.0684
1282.306, 631.9259
1282.788, 629.3795
1283.270, 628.9323
1283.752, 634.0178
1284.234, 637.4089
1284.716, 636.3039
1285.198, 632.9755
1285.680, 630.7307
1286.163, 629.5924
1286.645, 629.8399
1287.127, 631.6534
1287.609, 632.8858
1288.091, 633.2805
1288.573, 633.1343
1289.055, 632.2098
1289.537, 631.6844
1290.020, 634.4869
1290.502, 637.7383
1290.984, 637.4534
1291.466, 633.2734
##END=



