##NAMES=Lemmleinite-Ba
##RRUFFID=R110017
##IDEAL CHEMISTRY=Na_4_K_4_Ba_2+x_Ti^4+^_8_(Si_4_O_12_)_4_(O,OH)_8_&#183;8H_2_O
##LOCALITY=Partomchorr Mt., Khibiny Massif, Kola, Russia
##OWNER=RRUFF
##SOURCE=Ray Grant
##DESCRIPTION=Reddish orange bladed crystals associated with white natrolite
##STATUS=The identification of this mineral has been confirmed only by single crystal X-ray diffraction.
##URL=rruff.info/R110017
189.4393, 14227.00
189.9214, 14233.87
190.4035, 14238.40
190.8857, 14241.85
191.3678, 14242.40
191.8499, 14242.20
192.3320, 14245.46
192.8141, 14255.30
193.2962, 14270.31
193.7784, 14279.37
194.2605, 14273.67
194.7426, 14272.64
195.2247, 14285.15
195.7068, 14308.09
196.1889, 14332.00
196.6711, 14350.56
197.1532, 14365.78
197.6353, 14387.58
198.1174, 14416.53
198.5995, 14450.59
199.0816, 14488.77
199.5638, 14531.23
200.0459, 14578.33
200.5280, 14630.29
201.0101, 14688.30
201.4922, 14751.68
201.9743, 14822.05
202.4565, 14896.64
202.9386, 14973.56
203.4207, 15052.99
203.9028, 15134.68
204.3849, 15217.13
204.8670, 15302.47
205.3492, 15394.21
205.8313, 15497.47
206.3134, 15601.63
206.7955, 15692.14
207.2776, 15766.93
207.7597, 15837.68
208.2419, 15910.53
208.7240, 15981.83
209.2061, 16047.31
209.6882, 16105.61
210.1703, 16157.47
210.6524, 16205.34
211.1346, 16251.62
211.6167, 16285.79
212.0988, 16304.38
212.5809, 16310.77
213.0630, 16307.11
213.5451, 16293.99
214.0273, 16272.24
214.5094, 16243.64
214.9915, 16207.64
215.4736, 16164.53
215.9557, 16113.23
216.4378, 16056.93
216.9200, 15998.04
217.4021, 15937.96
217.8842, 15876.44
218.3663, 15813.44
218.8484, 15746.87
219.3305, 15682.08
219.8127, 15621.00
220.2948, 15561.19
220.7769, 15499.31
221.2590, 15433.84
221.7411, 15366.84
222.2232, 15304.39
222.7054, 15251.65
223.1875, 15197.71
223.6696, 15138.15
224.1517, 15078.28
224.6338, 15025.43
225.1159, 14982.71
225.5980, 14946.50
226.0802, 14906.25
226.5623, 14856.86
227.0444, 14809.54
227.5265, 14763.57
228.0086, 14720.56
228.4907, 14683.67
228.9729, 14654.32
229.4550, 14630.59
229.9371, 14608.19
230.4192, 14585.88
230.9013, 14566.58
231.3834, 14552.28
231.8656, 14541.02
232.3477, 14530.23
232.8298, 14519.09
233.3119, 14507.42
233.7940, 14494.32
234.2761, 14478.63
234.7583, 14464.53
235.2404, 14453.66
235.7225, 14444.95
236.2046, 14437.66
236.6867, 14432.61
237.1688, 14425.83
237.6510, 14409.37
238.1331, 14383.27
238.6152, 14353.59
239.0973, 14321.76
239.5794, 14287.70
240.0615, 14250.77
240.5437, 14209.24
241.0258, 14167.62
241.5079, 14132.93
241.9900, 14105.06
242.4721, 14075.92
242.9542, 14040.79
243.4364, 14001.98
243.9185, 13965.34
244.4006, 13932.16
244.8827, 13901.37
245.3648, 13872.14
245.8469, 13844.39
246.3290, 13817.63
246.8112, 13790.23
247.2933, 13763.63
247.7754, 13742.36
248.2575, 13729.70
248.7396, 13718.11
249.2217, 13699.49
249.7039, 13676.28
250.1860, 13657.35
250.6681, 13648.63
251.1502, 13648.18
251.6323, 13648.63
252.1144, 13648.94
252.5966, 13651.56
253.0787, 13655.50
253.5608, 13662.20
254.0429, 13675.35
254.5250, 13698.71
255.0071, 13730.17
255.4893, 13761.73
255.9714, 13791.56
256.4535, 13824.72
256.9356, 13862.45
257.4177, 13904.42
257.8998, 13950.39
258.3820, 13999.83
258.8641, 14053.11
259.3462, 14112.17
259.8283, 14180.83
260.3104, 14249.17
260.7925, 14312.86
261.2747, 14375.06
261.7568, 14440.24
262.2389, 14511.61
262.7210, 14586.16
263.2031, 14655.71
263.6852, 14716.87
264.1674, 14778.70
264.6495, 14843.46
265.1316, 14909.73
265.6137, 14976.51
266.0958, 15043.55
266.5779, 15109.08
267.0601, 15167.69
267.5422, 15212.51
268.0243, 15262.70
268.5064, 15329.40
268.9885, 15397.60
269.4706, 15453.31
269.9528, 15491.76
270.4349, 15518.83
270.9170, 15545.48
271.3991, 15572.57
271.8812, 15596.94
272.3633, 15618.26
272.8455, 15637.38
273.3276, 15654.31
273.8097, 15669.33
274.2918, 15683.43
274.7739, 15698.58
275.2560, 15717.71
275.7382, 15731.13
276.2202, 15734.50
276.7024, 15736.63
277.1845, 15743.45
277.6666, 15755.52
278.1487, 15769.03
278.6308, 15779.66
279.1129, 15787.24
279.5951, 15791.90
280.0772, 15792.39
280.5593, 15791.53
281.0414, 15790.40
281.5235, 15789.26
282.0056, 15788.07
282.4878, 15786.93
282.9699, 15785.97
283.4520, 15783.98
283.9341, 15779.20
284.4162, 15775.38
284.8983, 15775.02
285.3805, 15777.18
285.8626, 15779.09
286.3447, 15778.51
286.8268, 15775.58
287.3089, 15774.11
287.7910, 15776.40
288.2732, 15777.73
288.7553, 15776.15
289.2374, 15772.65
289.7195, 15770.21
290.2016, 15771.20
290.6837, 15773.50
291.1659, 15764.65
291.6480, 15734.73
292.1301, 15705.20
292.6122, 15679.83
293.0943, 15656.73
293.5764, 15633.66
294.0586, 15609.53
294.5407, 15583.73
295.0228, 15554.48
295.5049, 15516.91
295.9870, 15481.72
296.4691, 15451.29
296.9513, 15422.62
297.4334, 15393.49
297.9155, 15363.18
298.3976, 15330.12
298.8797, 15291.21
299.3618, 15239.11
299.8440, 15195.39
300.3261, 15165.09
300.8082, 15140.08
301.2903, 15113.66
301.7724, 15084.67
302.2545, 15055.77
302.7367, 15030.37
303.2188, 15010.46
303.7009, 14985.81
304.1830, 14954.90
304.6651, 14920.79
305.1472, 14884.25
305.6294, 14845.88
306.1115, 14807.72
306.5936, 14772.49
307.0757, 14740.57
307.5578, 14698.03
308.0399, 14641.06
308.5221, 14579.45
309.0042, 14519.26
309.4863, 14458.16
309.9684, 14390.11
310.4505, 14311.16
310.9326, 14222.28
311.4148, 14131.88
311.8969, 14041.15
312.3790, 13947.54
312.8611, 13847.75
313.3432, 13745.36
313.8253, 13645.08
314.3075, 13549.49
314.7896, 13457.55
315.2717, 13366.21
315.7538, 13279.05
316.2359, 13186.96
316.7180, 13084.03
317.2001, 12978.08
317.6823, 12877.50
318.1644, 12784.29
318.6465, 12696.40
319.1286, 12610.38
319.6107, 12526.34
320.0928, 12445.74
320.5750, 12368.75
321.0571, 12294.44
321.5392, 12222.14
322.0213, 12151.85
322.5034, 12082.77
322.9855, 12014.56
323.4677, 11946.39
323.9498, 11881.71
324.4319, 11818.94
324.9140, 11760.19
325.3961, 11707.11
325.8782, 11659.02
326.3604, 11613.02
326.8425, 11566.96
327.3246, 11521.28
327.8067, 11480.10
328.2888, 11447.29
328.7709, 11414.10
329.2531, 11376.64
329.7352, 11337.86
330.2173, 11302.48
330.6994, 11272.71
331.1815, 11247.83
331.6636, 11225.58
332.1458, 11203.23
332.6279, 11187.61
333.1100, 11180.39
333.5921, 11179.32
334.0742, 11181.96
334.5563, 11187.70
335.0385, 11198.13
335.5206, 11216.11
336.0027, 11246.36
336.4848, 11272.21
336.9669, 11290.24
337.4490, 11307.20
337.9312, 11326.97
338.4133, 11350.05
338.8954, 11375.12
339.3775, 11401.02
339.8596, 11427.75
340.3417, 11455.61
340.8239, 11483.78
341.3060, 11513.58
341.7881, 11547.10
342.2702, 11582.59
342.7523, 11616.78
343.2344, 11647.68
343.7166, 11675.18
344.1987, 11698.46
344.6808, 11718.65
345.1629, 11732.52
345.6450, 11736.33
346.1271, 11734.91
346.6093, 11734.44
347.0914, 11737.05
347.5735, 11738.67
348.0556, 11731.46
348.5377, 11712.02
349.0198, 11689.13
349.5020, 11663.73
349.9841, 11634.96
350.4662, 11601.34
350.9483, 11563.50
351.4304, 11524.31
351.9125, 11487.85
352.3947, 11455.75
352.8768, 11415.92
353.3589, 11369.81
353.8410, 11314.80
354.3231, 11245.23
354.8052, 11166.01
355.2874, 11087.50
355.7695, 11018.32
356.2516, 10954.58
356.7337, 10871.59
357.2158, 10754.68
357.6979, 10637.02
358.1800, 10522.34
358.6621, 10410.92
359.1443, 10303.74
359.6264, 10200.60
360.1085, 10100.89
360.5906, 10002.62
361.0727, 9905.640
361.5548, 9810.591
362.0370, 9719.075
362.5191, 9628.458
363.0012, 9536.494
363.4833, 9442.792
363.9654, 9351.067
364.4475, 9265.507
364.9297, 9186.526
365.4118, 9106.170
365.8939, 9020.526
366.3760, 8937.953
366.8581, 8861.670
367.3402, 8791.064
367.8224, 8724.654
368.3045, 8662.450
368.7866, 8603.658
369.2687, 8545.417
369.7508, 8486.354
370.2329, 8431.428
370.7151, 8382.996
371.1972, 8338.751
371.6793, 8295.355
372.1614, 8251.907
372.6435, 8211.900
373.1256, 8181.290
373.6078, 8160.803
374.0899, 8140.053
374.5720, 8114.762
375.0541, 8090.652
375.5362, 8072.667
376.0183, 8060.307
376.5005, 8048.559
376.9826, 8032.686
377.4647, 8014.489
377.9468, 8000.587
378.4289, 7991.798
378.9110, 7986.348
379.3932, 7986.488
379.8753, 7988.730
380.3574, 7985.835
380.8395, 7972.221
381.3216, 7955.497
381.8037, 7945.656
382.2859, 7942.830
382.7680, 7939.539
383.2501, 7931.894
383.7322, 7922.392
384.2143, 7914.541
384.6964, 7908.141
385.1786, 7904.659
385.6607, 7906.061
386.1428, 7911.150
386.6249, 7916.046
387.1070, 7918.942
387.5891, 7924.157
388.0713, 7939.389
388.5534, 7963.582
389.0355, 7984.595
389.5176, 7995.373
389.9997, 8004.745
390.4818, 8021.731
390.9640, 8046.674
391.4461, 8074.445
391.9282, 8101.816
392.4103, 8129.212
392.8924, 8158.649
393.3745, 8189.485
393.8567, 8222.781
394.3388, 8259.744
394.8209, 8299.285
395.3030, 8340.171
395.7851, 8382.858
396.2672, 8423.121
396.7494, 8452.736
397.2315, 8463.181
397.7136, 8483.192
398.1957, 8519.816
398.6778, 8562.690
399.1599, 8605.461
399.6420, 8646.439
400.1241, 8684.238
400.6063, 8717.406
401.0884, 8745.976
401.5705, 8773.068
402.0526, 8797.443
402.5347, 8822.104
403.0168, 8850.656
403.4990, 8879.700
403.9811, 8903.813
404.4632, 8920.353
404.9453, 8934.380
405.4274, 8937.817
405.9095, 8944.403
406.3917, 8942.950
406.8738, 8933.015
407.3559, 8916.284
407.8380, 8891.237
408.3201, 8859.371
408.8022, 8826.864
409.2844, 8800.651
409.7665, 8781.644
410.2486, 8754.987
410.7307, 8714.733
411.2128, 8672.611
411.6949, 8629.486
412.1771, 8587.273
412.6592, 8548.349
413.1413, 8513.870
413.6234, 8483.296
414.1055, 8455.930
414.5876, 8432.351
415.0698, 8409.855
415.5519, 8386.555
416.0340, 8365.124
416.5161, 8347.140
416.9982, 8332.845
417.4803, 8322.788
417.9625, 8316.965
418.4446, 8315.570
418.9267, 8320.186
419.4088, 8332.585
419.8909, 8348.184
420.3730, 8364.566
420.8552, 8381.656
421.3373, 8399.259
421.8194, 8417.254
422.3015, 8435.729
422.7836, 8453.217
423.2657, 8469.765
423.7479, 8491.773
424.2300, 8521.855
424.7121, 8559.123
425.1942, 8602.247
425.6763, 8652.132
426.1584, 8702.396
426.6406, 8748.714
427.1227, 8794.228
427.6048, 8842.979
428.0869, 8895.819
428.5690, 8954.241
429.0511, 9019.487
429.5333, 9092.418
430.0154, 9170.071
430.4975, 9254.542
430.9796, 9341.913
431.4617, 9430.231
431.9438, 9519.277
432.4260, 9608.851
432.9081, 9697.926
433.3902, 9788.787
433.8723, 9886.722
434.3544, 9992.674
434.8365, 10104.42
435.3187, 10221.73
435.8008, 10344.90
436.2829, 10474.86
436.7650, 10610.92
437.2471, 10749.89
437.7292, 10888.67
438.2114, 11027.74
438.6935, 11167.86
439.1756, 11305.00
439.6577, 11448.31
440.1398, 11602.92
440.6219, 11763.80
441.1040, 11924.34
441.5862, 12081.19
442.0683, 12233.88
442.5504, 12381.56
443.0325, 12528.48
443.5146, 12658.73
443.9967, 12767.92
444.4789, 12862.31
444.9610, 12944.13
445.4431, 13012.90
445.9252, 13067.61
446.4073, 13108.21
446.8894, 13133.36
447.3716, 13137.84
447.8537, 13120.83
448.3358, 13084.68
448.8179, 13025.99
449.3000, 12950.31
449.7821, 12860.79
450.2643, 12757.16
450.7464, 12643.50
451.2285, 12522.36
451.7106, 12393.78
452.1927, 12260.66
452.6748, 12122.49
453.1570, 11983.46
453.6391, 11847.91
454.1212, 11715.28
454.6033, 11583.18
455.0854, 11448.46
455.5675, 11316.77
456.0497, 11192.24
456.5318, 11075.21
457.0139, 10963.16
457.4960, 10853.92
457.9781, 10749.97
458.4602, 10658.79
458.9424, 10584.15
459.4245, 10511.69
459.9066, 10434.28
460.3887, 10360.81
460.8708, 10300.15
461.3529, 10253.62
461.8351, 10217.89
462.3172, 10189.88
462.7993, 10169.76
463.2814, 10157.26
463.7635, 10150.73
464.2456, 10152.99
464.7278, 10163.19
465.2099, 10183.20
465.6920, 10215.42
466.1741, 10260.90
466.6562, 10318.17
467.1383, 10384.06
467.6205, 10457.37
468.1026, 10545.22
468.5847, 10650.53
469.0668, 10768.56
469.5489, 10894.99
470.0310, 11032.56
470.5132, 11187.53
470.9953, 11365.24
471.4774, 11561.71
471.9595, 11767.06
472.4416, 11980.65
472.9237, 12204.55
473.4059, 12441.05
473.8880, 12687.10
474.3701, 12939.07
474.8522, 13194.88
475.3343, 13463.47
475.8164, 13745.79
476.2986, 14043.88
476.7807, 14366.49
477.2628, 14713.36
477.7449, 15082.85
478.2270, 15470.03
478.7091, 15881.27
479.1913, 16329.09
479.6734, 16816.70
480.1555, 17337.10
480.6376, 17884.71
481.1197, 18462.58
481.6018, 19080.87
482.0839, 19743.35
482.5660, 20440.04
483.0482, 21163.88
483.5303, 21919.78
484.0124, 22682.17
484.4945, 23463.85
484.9766, 24237.56
485.4587, 25017.95
485.9409, 25781.37
486.4230, 26485.03
486.9051, 27110.34
487.3872, 27648.71
487.8693, 28075.67
488.3514, 28426.28
488.8336, 28589.88
489.3157, 28562.15
489.7978, 28375.84
490.2799, 28038.97
490.7620, 27561.16
491.2441, 26961.16
491.7263, 26238.35
492.2084, 25408.45
492.6905, 24539.82
493.1726, 23621.40
493.6547, 22696.00
494.1368, 21764.94
494.6190, 20850.69
495.1011, 19973.26
495.5832, 19135.90
496.0653, 18345.82
496.5474, 17613.43
497.0295, 16938.22
497.5117, 16325.88
497.9938, 15778.65
498.4759, 15285.87
498.9580, 14836.94
499.4401, 14433.86
499.9222, 14077.77
500.4044, 13776.08
500.8865, 13512.72
501.3686, 13281.15
501.8507, 13080.05
502.3328, 12905.15
502.8149, 12755.96
503.2971, 12627.49
503.7792, 12512.94
504.2613, 12410.47
504.7434, 12329.35
505.2255, 12272.15
505.7076, 12231.28
506.1898, 12204.24
506.6719, 12190.59
507.1540, 12191.09
507.6361, 12206.30
508.1182, 12234.25
508.6003, 12269.61
509.0825, 12309.77
509.5646, 12364.72
510.0467, 12440.21
510.5288, 12526.43
511.0109, 12618.82
511.4930, 12717.71
511.9752, 12825.49
512.4573, 12941.25
512.9394, 13068.58
513.4215, 13218.30
513.9036, 13393.40
514.3857, 13575.40
514.8679, 13756.13
515.3500, 13943.09
515.8321, 14143.49
516.3142, 14357.90
516.7963, 14581.19
517.2784, 14810.71
517.7606, 15048.98
518.2427, 15299.97
518.7248, 15564.02
519.2069, 15839.68
519.6890, 16125.19
520.1711, 16422.74
520.6533, 16734.50
521.1354, 17070.84
521.6175, 17407.30
522.0996, 17737.40
522.5817, 18066.04
523.0638, 18396.69
523.5460, 18728.38
524.0281, 19060.94
524.5102, 19394.51
524.9923, 19727.34
525.4744, 20040.08
525.9565, 20339.15
526.4387, 20602.82
526.9208, 20828.80
527.4029, 21019.63
527.8850, 21180.60
528.3671, 21312.38
528.8492, 21402.42
529.3314, 21438.93
529.8135, 21422.46
530.2956, 21355.17
530.7777, 21233.22
531.2598, 21068.63
531.7419, 20860.45
532.2241, 20616.88
532.7062, 20341.98
533.1883, 20033.90
533.6704, 19700.92
534.1525, 19340.36
534.6346, 18959.19
535.1168, 18567.04
535.5989, 18165.29
536.0810, 17761.13
536.5631, 17362.58
537.0452, 16968.50
537.5273, 16584.68
538.0095, 16205.86
538.4916, 15840.78
538.9737, 15492.71
539.4558, 15158.79
539.9379, 14833.42
540.4200, 14515.48
540.9022, 14206.70
541.3843, 13911.47
541.8664, 13629.79
542.3485, 13361.25
542.8306, 13108.19
543.3127, 12868.85
543.7948, 12644.41
544.2769, 12433.65
544.7590, 12236.87
545.2411, 12054.14
545.7233, 11881.67
546.2054, 11717.44
546.6875, 11560.82
547.1696, 11412.64
547.6517, 11274.01
548.1339, 11142.19
548.6160, 11014.03
549.0981, 10890.92
549.5802, 10777.08
550.0623, 10676.76
550.5444, 10582.98
551.0266, 10490.51
551.5087, 10400.95
551.9908, 10318.43
552.4729, 10244.37
552.9550, 10174.45
553.4371, 10103.36
553.9193, 10030.18
554.4014, 9960.446
554.8835, 9892.201
555.3656, 9829.124
555.8477, 9775.527
556.3298, 9726.589
556.8120, 9675.848
557.2941, 9620.715
557.7762, 9564.656
558.2583, 9510.848
558.7404, 9458.949
559.2225, 9415.003
559.7047, 9386.422
560.1868, 9356.828
560.6689, 9317.112
561.1510, 9271.659
561.6331, 9227.399
562.1152, 9186.513
562.5974, 9147.314
563.0795, 9107.785
563.5616, 9068.562
564.0437, 9032.369
564.5258, 8999.900
565.0079, 8969.105
565.4901, 8938.226
565.9722, 8907.371
566.4543, 8877.291
566.9364, 8847.850
567.4185, 8819.435
567.9006, 8793.395
568.3828, 8768.111
568.8649, 8740.720
569.3470, 8710.832
569.8291, 8680.345
570.3112, 8652.000
570.7933, 8625.884
571.2755, 8598.460
571.7576, 8566.333
572.2397, 8537.129
572.7218, 8513.472
573.2039, 8492.999
573.6860, 8472.937
574.1682, 8452.494
574.6503, 8433.174
575.1324, 8417.455
575.6145, 8404.214
576.0966, 8388.560
576.5787, 8370.065
577.0609, 8349.481
577.5430, 8325.931
578.0251, 8301.147
578.5072, 8279.128
578.9893, 8259.819
579.4714, 8243.601
579.9536, 8234.318
580.4357, 8226.321
580.9178, 8212.118
581.3999, 8191.273
581.8820, 8167.870
582.3641, 8144.406
582.8463, 8121.578
583.3284, 8103.166
583.8105, 8092.460
584.2926, 8081.632
584.7747, 8072.792
585.2568, 8061.617
585.7390, 8042.964
586.2211, 8018.123
586.7032, 7994.153
587.1853, 7976.881
587.6674, 7963.497
588.1495, 7946.097
588.6317, 7923.848
589.1138, 7902.577
589.5959, 7884.002
590.0780, 7867.284
590.5601, 7851.695
591.0422, 7837.174
591.5244, 7822.880
592.0065, 7811.260
592.4886, 7797.641
592.9707, 7774.650
593.4528, 7745.604
593.9349, 7722.307
594.4171, 7710.349
594.8992, 7704.128
595.3813, 7693.466
595.8634, 7674.835
596.3455, 7662.239
596.8276, 7664.447
597.3098, 7662.604
597.7919, 7644.119
598.2740, 7617.302
598.7561, 7596.244
599.2382, 7586.686
599.7203, 7584.036
600.2025, 7584.169
600.6846, 7586.930
601.1667, 7585.203
601.6488, 7576.499
602.1309, 7566.985
602.6130, 7562.327
603.0952, 7559.735
603.5773, 7552.990
604.0594, 7537.713
604.5415, 7525.079
605.0236, 7523.325
605.5057, 7526.837
605.9879, 7526.873
606.4700, 7522.154
606.9521, 7516.555
607.4342, 7513.209
607.9163, 7511.822
608.3984, 7510.327
608.8806, 7511.364
609.3627, 7508.292
609.8448, 7499.411
610.3269, 7487.133
610.8090, 7473.528
611.2911, 7458.464
611.7733, 7440.205
612.2554, 7417.126
612.7375, 7390.417
613.2196, 7362.762
613.7017, 7334.136
614.1838, 7303.185
614.6660, 7268.949
615.1481, 7232.711
615.6302, 7196.075
616.1123, 7158.982
616.5944, 7119.268
617.0765, 7073.384
617.5587, 7027.787
618.0408, 6987.628
618.5229, 6951.038
619.0050, 6913.000
619.4871, 6871.807
619.9692, 6830.650
620.4514, 6793.841
620.9335, 6761.518
621.4156, 6731.203
621.8977, 6700.943
622.3798, 6675.265
622.8619, 6659.574
623.3441, 6646.991
623.8262, 6629.548
624.3083, 6605.492
624.7904, 6579.571
625.2725, 6554.756
625.7546, 6531.392
626.2367, 6510.343
626.7188, 6491.574
627.2009, 6476.429
627.6830, 6467.468
628.1652, 6461.044
628.6473, 6447.980
629.1294, 6426.370
629.6115, 6405.859
630.0936, 6386.623
630.5757, 6369.905
631.0579, 6356.989
631.5400, 6347.261
632.0221, 6339.500
632.5042, 6333.192
632.9863, 6327.053
633.4684, 6318.864
633.9506, 6308.541
634.4327, 6296.029
634.9148, 6277.845
635.3969, 6262.036
635.8790, 6254.620
636.3611, 6251.474
636.8433, 6245.241
637.3254, 6233.399
637.8075, 6220.583
638.2896, 6210.428
638.7717, 6201.636
639.2538, 6190.530
639.7360, 6176.848
640.2181, 6165.902
640.7002, 6162.144
641.1823, 6163.472
641.6644, 6161.265
642.1465, 6152.448
642.6287, 6144.226
643.1108, 6135.049
643.5929, 6127.950
644.0750, 6126.744
644.5571, 6129.458
645.0392, 6130.283
645.5214, 6125.683
646.0035, 6118.743
646.4856, 6113.696
646.9677, 6110.555
647.4498, 6112.145
647.9319, 6120.977
648.4141, 6130.435
648.8962, 6134.626
649.3783, 6134.833
649.8604, 6135.794
650.3425, 6137.870
650.8246, 6140.659
651.3068, 6144.638
651.7889, 6148.841
652.2710, 6152.586
652.7531, 6155.443
653.2352, 6155.888
653.7173, 6152.097
654.1995, 6145.983
654.6816, 6145.942
655.1637, 6154.273
655.6458, 6163.188
656.1279, 6172.576
656.6100, 6181.331
657.0922, 6187.209
657.5743, 6191.710
658.0564, 6200.084
658.5385, 6217.943
659.0206, 6235.474
659.5027, 6240.433
659.9849, 6237.562
660.4670, 6241.265
660.9491, 6254.982
661.4312, 6270.695
661.9133, 6280.984
662.3954, 6286.406
662.8776, 6294.631
663.3597, 6309.689
663.8418, 6322.304
664.3239, 6328.028
664.8060, 6333.744
665.2881, 6345.556
665.7703, 6363.037
666.2524, 6381.850
666.7345, 6400.350
667.2166, 6417.143
667.6987, 6429.774
668.1808, 6438.294
668.6630, 6443.620
669.1451, 6444.453
669.6272, 6445.677
670.1093, 6452.640
670.5914, 6464.842
671.0735, 6474.976
671.5557, 6483.049
672.0378, 6488.796
672.5199, 6490.939
673.0020, 6491.279
673.4841, 6493.143
673.9662, 6495.903
674.4484, 6494.030
674.9305, 6482.021
675.4126, 6464.106
675.8947, 6455.504
676.3768, 6459.131
676.8589, 6459.192
677.3411, 6450.917
677.8232, 6439.933
678.3053, 6430.968
678.7874, 6423.290
679.2695, 6414.229
679.7516, 6404.078
680.2338, 6391.307
680.7159, 6370.348
681.1980, 6347.987
681.6801, 6336.780
682.1622, 6337.752
682.6443, 6340.054
683.1265, 6335.149
683.6086, 6323.763
684.0907, 6308.637
684.5728, 6285.358
685.0549, 6267.959
685.5370, 6261.174
686.0192, 6258.318
686.5013, 6258.478
686.9834, 6259.527
687.4655, 6256.207
687.9476, 6245.283
688.4297, 6231.668
688.9119, 6217.455
689.3940, 6204.279
689.8761, 6197.114
690.3582, 6196.666
690.8403, 6197.156
691.3224, 6193.914
691.8046, 6188.134
692.2867, 6185.461
692.7688, 6190.690
693.2509, 6191.388
693.7330, 6180.303
694.2151, 6171.187
694.6973, 6174.813
695.1794, 6186.955
695.6615, 6196.021
696.1436, 6196.454
696.6257, 6194.243
697.1078, 6194.514
697.5900, 6197.522
698.0721, 6205.235
698.5542, 6218.166
699.0363, 6231.288
699.5184, 6241.331
700.0005, 6248.831
700.4827, 6255.468
700.9648, 6258.257
701.4469, 6265.063
701.9290, 6280.225
702.4111, 6295.405
702.8932, 6305.406
703.3754, 6311.592
703.8575, 6316.936
704.3396, 6322.426
704.8217, 6330.099
705.3038, 6344.187
705.7859, 6362.915
706.2681, 6376.807
706.7502, 6384.188
707.2323, 6393.422
707.7144, 6410.196
708.1965, 6431.002
708.6786, 6447.737
709.1607, 6459.130
709.6428, 6470.432
710.1249, 6481.999
710.6071, 6493.616
711.0892, 6504.740
711.5713, 6515.935
712.0534, 6527.575
712.5355, 6539.985
713.0176, 6554.544
713.4998, 6574.523
713.9819, 6598.473
714.4640, 6618.731
714.9461, 6634.806
715.4282, 6649.093
715.9103, 6661.413
716.3925, 6673.516
716.8746, 6687.571
717.3567, 6703.114
717.8388, 6723.395
718.3209, 6754.804
718.8030, 6784.231
719.2852, 6804.051
719.7673, 6818.694
720.2494, 6833.186
720.7315, 6849.374
721.2136, 6869.115
721.6957, 6895.408
722.1779, 6926.015
722.6600, 6952.893
723.1421, 6976.024
723.6242, 6996.454
724.1063, 7013.085
724.5884, 7029.174
725.0706, 7048.264
725.5527, 7070.280
726.0348, 7091.761
726.5169, 7111.641
726.9990, 7132.257
727.4811, 7153.626
727.9633, 7176.688
728.4454, 7202.337
728.9275, 7230.526
729.4096, 7261.056
729.8917, 7294.698
730.3738, 7328.198
730.8560, 7354.426
731.3381, 7373.188
731.8202, 7389.404
732.3023, 7402.581
732.7844, 7416.366
733.2665, 7433.296
733.7487, 7453.063
734.2308, 7473.946
734.7129, 7494.413
735.1950, 7518.611
735.6771, 7555.042
736.1592, 7589.199
736.6414, 7605.625
737.1235, 7610.634
737.6056, 7622.351
738.0877, 7649.240
738.5698, 7680.743
739.0519, 7700.605
739.5341, 7710.638
740.0162, 7728.733
740.4983, 7757.209
740.9804, 7786.634
741.4625, 7813.330
741.9446, 7837.291
742.4268, 7857.470
742.9089, 7872.538
743.3910, 7890.865
743.8731, 7915.713
744.3552, 7941.125
744.8373, 7965.215
745.3195, 7987.640
745.8016, 8007.673
746.2837, 8025.396
746.7658, 8042.969
747.2479, 8062.398
747.7300, 8082.943
748.2122, 8102.604
748.6943, 8121.447
749.1764, 8139.619
749.6585, 8157.606
750.1406, 8173.757
750.6227, 8185.874
751.1049, 8194.061
751.5870, 8204.039
752.0691, 8218.938
752.5512, 8231.217
753.0333, 8236.197
753.5154, 8240.657
753.9976, 8249.857
754.4797, 8263.736
754.9618, 8280.691
755.4439, 8301.040
755.9260, 8320.189
756.4081, 8330.527
756.8903, 8334.233
757.3724, 8340.911
757.8545, 8351.999
758.3366, 8361.105
758.8187, 8363.547
759.3008, 8362.412
759.7830, 8365.489
760.2651, 8374.961
760.7472, 8383.705
761.2293, 8394.746
761.7114, 8401.825
762.1935, 8400.078
762.6757, 8394.000
763.1578, 8389.244
763.6399, 8387.183
764.1220, 8386.427
764.6041, 8387.179
765.0862, 8387.975
765.5684, 8386.962
766.0505, 8384.009
766.5326, 8378.605
767.0147, 8370.513
767.4968, 8360.713
767.9789, 8350.387
768.4611, 8339.372
768.9432, 8326.339
769.4253, 8309.194
769.9074, 8293.370
770.3895, 8280.092
770.8716, 8267.846
771.3538, 8257.765
771.8359, 8248.063
772.3180, 8233.101
772.8001, 8208.253
773.2822, 8183.630
773.7643, 8164.512
774.2465, 8150.844
774.7286, 8145.144
775.2107, 8145.679
775.6928, 8144.628
776.1749, 8137.688
776.6570, 8126.325
777.1392, 8112.411
777.6213, 8095.130
778.1034, 8081.765
778.5855, 8075.176
779.0676, 8067.036
779.5497, 8051.704
780.0319, 8034.054
780.5140, 8020.131
780.9961, 8010.022
781.4782, 8002.484
781.9603, 8001.752
782.4424, 7998.615
782.9246, 7986.883
783.4067, 7969.625
783.8888, 7951.170
784.3709, 7932.541
784.8530, 7912.697
785.3351, 7890.373
785.8173, 7866.932
786.2994, 7847.146
786.7815, 7831.092
787.2636, 7810.807
787.7457, 7784.451
788.2278, 7755.011
788.7100, 7724.260
789.1921, 7692.546
789.6742, 7661.825
790.1563, 7633.911
790.6384, 7603.556
791.1205, 7572.725
791.6026, 7537.235
792.0847, 7490.489
792.5668, 7438.930
793.0490, 7393.839
793.5311, 7358.515
794.0132, 7322.658
794.4953, 7276.218
794.9774, 7224.412
795.4595, 7177.010
795.9417, 7133.217
796.4238, 7088.118
796.9059, 7039.698
797.3880, 6992.766
797.8701, 6953.275
798.3522, 6920.329
798.8344, 6883.309
799.3165, 6836.865
799.7986, 6796.180
800.2807, 6770.736
800.7628, 6745.339
801.2449, 6709.891
801.7271, 6667.502
802.2092, 6627.575
802.6913, 6592.681
803.1734, 6559.678
803.6555, 6526.640
804.1376, 6495.409
804.6198, 6470.024
805.1019, 6448.391
805.5840, 6423.618
806.0661, 6392.965
806.5482, 6359.892
807.0303, 6328.976
807.5125, 6299.993
807.9946, 6270.912
808.4767, 6241.538
808.9588, 6212.704
809.4409, 6185.012
809.9230, 6157.620
810.4052, 6129.222
810.8873, 6099.838
811.3694, 6072.652
811.8515, 6050.335
812.3336, 6026.619
812.8157, 5996.586
813.2979, 5967.761
813.7800, 5948.000
814.2621, 5934.821
814.7442, 5920.187
815.2263, 5900.591
815.7084, 5879.626
816.1906, 5861.679
816.6727, 5844.794
817.1548, 5823.600
817.6369, 5798.681
818.1190, 5776.844
818.6011, 5761.209
819.0833, 5748.993
819.5654, 5736.837
820.0475, 5724.839
820.5296, 5708.220
821.0117, 5683.957
821.4938, 5660.942
821.9760, 5643.157
822.4581, 5626.052
822.9402, 5604.506
823.4223, 5580.065
823.9044, 5560.429
824.3865, 5551.855
824.8687, 5541.163
825.3508, 5519.119
825.8329, 5495.713
826.3150, 5481.937
826.7971, 5475.594
827.2792, 5468.152
827.7614, 5455.800
828.2435, 5441.354
828.7256, 5427.096
829.2077, 5413.599
829.6898, 5404.345
830.1719, 5399.434
830.6541, 5391.311
831.1362, 5376.756
831.6183, 5359.519
832.1004, 5343.719
832.5825, 5329.414
833.0646, 5315.213
833.5468, 5299.243
834.0289, 5286.540
834.5110, 5279.131
834.9931, 5273.712
835.4752, 5269.156
835.9573, 5264.803
836.4395, 5259.303
836.9216, 5252.128
837.4037, 5244.476
837.8858, 5236.073
838.3679, 5228.178
838.8500, 5222.621
839.3322, 5218.628
839.8143, 5214.017
840.2964, 5208.070
840.7785, 5201.760
841.2606, 5195.441
841.7427, 5189.940
842.2249, 5190.315
842.7070, 5196.976
843.1891, 5198.175
843.6712, 5189.356
844.1533, 5179.993
844.6354, 5178.547
845.1176, 5183.265
845.5997, 5185.559
846.0818, 5181.990
846.5639, 5181.451
847.0460, 5186.859
847.5281, 5192.047
848.0103, 5192.831
848.4924, 5192.134
848.9745, 5194.273
849.4566, 5200.113
849.9387, 5208.121
850.4208, 5219.742
850.9030, 5231.245
851.3851, 5238.171
851.8672, 5242.894
852.3493, 5249.608
852.8314, 5259.284
853.3135, 5271.456
853.7957, 5285.737
854.2778, 5302.017
854.7599, 5319.589
855.2420, 5338.514
855.7241, 5360.662
856.2062, 5386.374
856.6884, 5414.292
857.1705, 5444.133
857.6526, 5474.808
858.1347, 5503.921
858.6168, 5529.721
859.0989, 5561.556
859.5811, 5602.695
860.0632, 5645.355
860.5453, 5684.663
861.0274, 5727.303
861.5095, 5779.606
861.9916, 5841.129
862.4738, 5906.890
862.9559, 5976.014
863.4380, 6048.563
863.9201, 6123.872
864.4022, 6202.963
864.8843, 6284.877
865.3665, 6371.608
865.8486, 6467.012
866.3307, 6572.580
866.8128, 6685.252
867.2949, 6798.768
867.7770, 6915.460
868.2592, 7047.761
868.7413, 7195.589
869.2234, 7351.255
869.7055, 7512.903
870.1876, 7683.034
870.6697, 7862.469
871.1519, 8051.283
871.6340, 8248.326
872.1161, 8453.707
872.5981, 8666.965
873.0803, 8884.812
873.5624, 9112.458
874.0445, 9356.653
874.5266, 9609.120
875.0087, 9861.333
875.4908, 10110.39
875.9730, 10364.01
876.4551, 10627.10
876.9372, 10891.09
877.4193, 11150.22
877.9014, 11407.21
878.3835, 11672.19
878.8657, 11940.72
879.3478, 12194.81
879.8299, 12424.96
880.3120, 12631.66
880.7941, 12813.94
881.2762, 12974.42
881.7584, 13125.77
882.2405, 13266.91
882.7226, 13369.68
883.2047, 13420.32
883.6868, 13434.55
884.1689, 13435.49
884.6511, 13422.19
885.1332, 13361.15
885.6153, 13247.58
886.0974, 13097.32
886.5795, 12901.79
887.0616, 12684.68
887.5438, 12454.03
888.0259, 12214.48
888.5080, 11978.69
888.9901, 11750.25
889.4722, 11517.85
889.9543, 11273.08
890.4365, 11029.98
890.9186, 10795.21
891.4007, 10567.47
891.8828, 10345.91
892.3649, 10129.15
892.8470, 9919.260
893.3292, 9716.729
893.8113, 9521.767
894.2934, 9334.906
894.7755, 9156.469
895.2576, 8987.646
895.7397, 8830.041
896.2219, 8686.440
896.7040, 8559.197
897.1861, 8444.557
897.6682, 8337.844
898.1503, 8239.420
898.6324, 8149.304
899.1146, 8067.882
899.5967, 7992.041
900.0788, 7920.637
900.5609, 7853.884
901.0430, 7791.468
901.5251, 7733.818
902.0073, 7683.816
902.4894, 7642.575
902.9715, 7606.192
903.4536, 7574.126
903.9357, 7547.365
904.4178, 7526.852
904.9000, 7511.564
905.3821, 7501.151
905.8642, 7495.790
906.3463, 7491.197
906.8284, 7490.987
907.3105, 7485.748
907.7927, 7468.604
908.2748, 7446.140
908.7569, 7424.673
909.2390, 7404.470
909.7211, 7382.586
910.2032, 7357.516
910.6854, 7332.203
911.1675, 7312.982
911.6496, 7293.071
912.1317, 7260.579
912.6138, 7217.335
913.0959, 7169.465
913.5781, 7119.432
914.0602, 7071.882
914.5423, 7031.574
915.0244, 6995.775
915.5065, 6955.234
915.9886, 6909.853
916.4708, 6865.023
916.9529, 6821.159
917.4350, 6777.480
917.9171, 6733.336
918.3992, 6688.900
918.8813, 6643.922
919.3635, 6597.329
919.8456, 6556.595
920.3277, 6527.526
920.8098, 6494.875
921.2919, 6448.445
921.7740, 6403.741
922.2562, 6374.030
922.7383, 6354.899
923.2204, 6332.088
923.7025, 6299.789
924.1846, 6274.546
924.6667, 6265.558
925.1489, 6259.368
925.6310, 6245.037
926.1131, 6229.948
926.5952, 6225.985
927.0773, 6233.696
927.5594, 6242.238
928.0416, 6243.318
928.5237, 6246.605
929.0058, 6261.037
929.4879, 6283.477
929.9700, 6309.663
930.4521, 6339.077
930.9343, 6372.181
931.4164, 6409.070
931.8985, 6448.541
932.3806, 6489.725
932.8627, 6531.940
933.3448, 6571.049
933.8270, 6607.856
934.3091, 6652.712
934.7912, 6707.789
935.2733, 6768.061
935.7554, 6830.922
936.2375, 6894.056
936.7197, 6950.760
937.2018, 6998.973
937.6839, 7053.499
938.1660, 7116.166
938.6481, 7181.432
939.1302, 7251.737
939.6124, 7319.452
940.0945, 7374.666
940.5766, 7419.049
941.0587, 7469.782
941.5408, 7531.601
942.0229, 7592.261
942.5051, 7650.420
942.9872, 7708.037
943.4693, 7767.984
943.9514, 7826.964
944.4335, 7878.282
944.9156, 7921.729
945.3978, 7968.799
945.8799, 8028.469
946.3620, 8086.966
946.8441, 8135.257
947.3262, 8179.936
947.8083, 8226.307
948.2905, 8275.229
948.7726, 8327.907
949.2547, 8384.920
949.7368, 8440.817
950.2189, 8491.677
950.7010, 8538.699
951.1832, 8583.081
951.6653, 8625.379
952.1474, 8668.198
952.6295, 8711.139
953.1116, 8749.257
953.5938, 8779.532
954.0759, 8803.363
954.5580, 8824.400
955.0400, 8841.384
955.5222, 8846.004
956.0043, 8838.231
956.4864, 8829.406
956.9685, 8823.763
957.4506, 8812.761
957.9327, 8787.887
958.4149, 8751.188
958.8970, 8713.955
959.3791, 8679.587
959.8612, 8625.893
960.3433, 8547.841
960.8254, 8460.356
961.3076, 8371.076
961.7897, 8275.897
962.2718, 8169.854
962.7539, 8053.187
963.2360, 7924.178
963.7181, 7775.226
964.2003, 7626.104
964.6824, 7478.674
965.1645, 7331.781
965.6466, 7187.674
966.1287, 7041.694
966.6108, 6884.682
967.0930, 6714.111
967.5751, 6547.550
968.0572, 6388.042
968.5393, 6233.747
969.0214, 6084.412
969.5035, 5940.208
969.9857, 5801.368
970.4678, 5668.625
970.9499, 5544.228
971.4320, 5429.476
971.9141, 5321.059
972.3962, 5216.039
972.8784, 5117.491
973.3605, 5028.954
973.8426, 4948.992
974.3247, 4876.021
974.8068, 4809.287
975.2889, 4746.802
975.7711, 4687.432
976.2532, 4633.731
976.7353, 4590.881
977.2174, 4554.507
977.6995, 4515.300
978.1816, 4474.681
978.6638, 4439.984
979.1459, 4412.943
979.6280, 4390.807
980.1101, 4371.645
980.5922, 4354.999
981.0743, 4341.461
981.5565, 4330.246
982.0386, 4315.613
982.5207, 4297.343
983.0028, 4280.612
983.4849, 4267.728
983.9670, 4254.499
984.4492, 4236.077
984.9313, 4213.683
985.4134, 4192.091
985.8955, 4170.757
986.3776, 4154.691
986.8597, 4144.947
987.3419, 4138.445
987.8240, 4134.753
988.3061, 4131.642
988.7882, 4126.343
989.2703, 4118.854
989.7524, 4107.135
990.2346, 4088.265
990.7167, 4071.552
991.1988, 4057.862
991.6809, 4046.855
992.1630, 4039.213
992.6451, 4033.709
993.1273, 4029.032
993.6094, 4025.902
994.0915, 4018.547
994.5736, 4000.772
995.0557, 3987.282
995.5378, 3984.256
996.0200, 3983.091
996.5021, 3977.620
996.9842, 3969.933
997.4663, 3965.381
997.9484, 3965.470
998.4305, 3962.546
998.9127, 3950.659
999.3948, 3940.424
999.8769, 3938.509
1000.359, 3938.617
1000.841, 3934.907
1001.323, 3928.061
1001.805, 3920.926
1002.287, 3914.005
1002.770, 3909.432
1003.252, 3910.125
1003.734, 3911.624
1004.216, 3910.518
1004.698, 3908.325
1005.180, 3907.570
1005.662, 3907.902
1006.144, 3906.188
1006.627, 3900.430
1007.109, 3897.211
1007.591, 3905.062
1008.073, 3915.790
1008.555, 3919.887
1009.037, 3919.365
1009.519, 3918.092
1010.001, 3917.222
1010.483, 3917.318
1010.966, 3918.728
1011.448, 3921.050
1011.930, 3922.917
1012.412, 3925.835
1012.894, 3934.141
1013.376, 3946.136
1013.858, 3954.678
1014.340, 3958.995
1014.823, 3967.113
1015.305, 3985.278
1015.787, 4006.856
1016.269, 4019.631
1016.751, 4026.569
1017.233, 4038.795
1017.715, 4056.207
1018.197, 4074.483
1018.679, 4092.415
1019.162, 4112.097
1019.644, 4135.292
1020.126, 4161.270
1020.608, 4189.034
1021.090, 4218.392
1021.572, 4247.924
1022.054, 4277.603
1022.536, 4308.339
1023.018, 4340.394
1023.501, 4373.874
1023.983, 4408.914
1024.465, 4445.732
1024.947, 4485.491
1025.429, 4528.479
1025.911, 4568.413
1026.393, 4604.308
1026.875, 4642.123
1027.358, 4684.425
1027.840, 4727.405
1028.322, 4766.379
1028.804, 4812.468
1029.286, 4847.662
1029.768, 4901.884
1030.250, 4950.551
1030.732, 4993.326
1031.214, 5030.375
1031.697, 5059.772
1032.179, 5086.937
1032.661, 5116.750
1033.143, 5149.163
1033.625, 5183.987
1034.107, 5220.102
1034.589, 5262.146
1035.071, 5313.719
1035.553, 5365.034
1036.036, 5413.843
1036.518, 5458.989
1037.000, 5496.789
1037.482, 5529.306
1037.964, 5569.507
1038.446, 5623.183
1038.928, 5672.651
1039.410, 5715.931
1039.893, 5757.332
1040.375, 5797.275
1040.857, 5836.774
1041.339, 5877.950
1041.821, 5919.839
1042.303, 5956.349
1042.785, 5987.554
1043.267, 6013.303
1043.750, 6034.453
1044.232, 6049.035
1044.714, 6055.667
1045.196, 6055.802
1045.678, 6049.249
1046.160, 6037.126
1046.642, 6024.609
1047.124, 6016.374
1047.606, 5998.196
1048.089, 5967.505
1048.571, 5927.427
1049.053, 5874.209
1049.535, 5816.104
1050.017, 5759.791
1050.499, 5705.453
1050.981, 5650.287
1051.463, 5594.079
1051.945, 5537.268
1052.428, 5478.257
1052.910, 5420.739
1053.392, 5369.456
1053.874, 5318.072
1054.356, 5258.950
1054.838, 5193.964
1055.320, 5131.274
1055.802, 5071.764
1056.285, 5017.148
1056.767, 4970.360
1057.249, 4925.586
1057.731, 4881.652
1058.213, 4837.288
1058.695, 4789.713
1059.177, 4740.610
1059.659, 4695.258
1060.141, 4655.393
1060.624, 4616.489
1061.106, 4575.612
1061.588, 4536.698
1062.070, 4502.016
1062.552, 4469.788
1063.034, 4438.933
1063.516, 4408.955
1063.998, 4379.308
1064.480, 4349.794
1064.963, 4320.136
1065.445, 4289.720
1065.927, 4259.708
1066.409, 4231.082
1066.891, 4202.816
1067.373, 4173.077
1067.855, 4143.249
1068.337, 4117.154
1068.820, 4095.985
1069.302, 4072.784
1069.784, 4040.687
1070.266, 4010.661
1070.748, 3991.978
1071.230, 3974.826
1071.712, 3947.607
1072.194, 3915.153
1072.677, 3889.280
1073.159, 3872.513
1073.641, 3855.995
1074.123, 3835.258
1074.605, 3814.611
1075.087, 3796.360
1075.569, 3779.057
1076.051, 3760.604
1076.533, 3742.362
1077.016, 3727.585
1077.498, 3716.523
1077.980, 3704.871
1078.462, 3688.788
1078.944, 3674.588
1079.426, 3666.906
1079.908, 3660.720
1080.390, 3652.554
1080.872, 3642.726
1081.354, 3631.225
1081.837, 3618.740
1082.319, 3609.111
1082.801, 3605.986
1083.283, 3601.578
1083.765, 3589.779
1084.247, 3577.985
1084.729, 3572.237
1085.211, 3569.487
1085.694, 3564.714
1086.176, 3558.128
1086.658, 3554.411
1087.140, 3556.622
1087.622, 3557.433
1088.104, 3553.573
1088.586, 3547.492
1089.068, 3539.205
1089.551, 3530.650
1090.033, 3523.952
1090.515, 3518.959
1090.997, 3514.148
1091.479, 3508.426
1091.961, 3505.883
1092.443, 3512.976
1092.925, 3517.664
1093.407, 3513.251
1093.890, 3503.799
1094.372, 3490.267
1094.854, 3475.928
1095.336, 3467.710
1095.818, 3467.645
1096.300, 3467.855
1096.782, 3466.816
1097.264, 3464.364
1097.746, 3459.217
1098.229, 3453.792
1098.711, 3449.977
1099.193, 3447.293
1099.675, 3444.311
1100.157, 3442.787
1100.639, 3438.986
1101.121, 3440.893
1101.603, 3442.199
1102.086, 3442.150
1102.568, 3440.654
1103.050, 3437.123
1103.532, 3432.403
1104.014, 3427.009
1104.496, 3421.247
1104.978, 3417.327
1105.460, 3415.076
1105.943, 3415.632
1106.425, 3420.172
1106.907, 3426.341
1107.389, 3436.125
1107.871, 3444.773
1108.353, 3447.378
1108.835, 3444.398
1109.317, 3438.597
1109.799, 3428.935
1110.281, 3419.554
1110.764, 3408.942
1111.246, 3401.101
1111.728, 3400.026
1112.210, 3399.466
1112.692, 3392.942
1113.174, 3383.481
1113.656, 3379.292
1114.138, 3381.885
1114.621, 3382.896
1115.103, 3380.331
1115.585, 3379.465
1116.067, 3382.173
1116.549, 3385.485
1117.031, 3389.224
1117.513, 3391.312
1117.995, 3387.394
1118.478, 3377.394
1118.960, 3371.242
1119.442, 3370.218
1119.924, 3370.248
1120.406, 3371.622
1120.888, 3372.873
1121.370, 3373.837
1121.852, 3373.573
1122.334, 3370.317
1122.817, 3365.050
1123.299, 3363.473
1123.781, 3366.895
1124.263, 3368.306
1124.745, 3366.796
1125.227, 3365.745
1125.709, 3365.865
1126.191, 3367.944
1126.673, 3373.374
1127.156, 3379.829
1127.638, 3381.392
1128.120, 3377.870
1128.602, 3374.381
1129.084, 3370.837
1129.566, 3368.231
1130.048, 3366.725
1130.530, 3366.943
1131.013, 3369.566
1131.495, 3372.384
1131.977, 3371.738
1132.459, 3373.054
1132.941, 3368.735
1133.423, 3371.622
1133.905, 3371.538
1134.387, 3368.133
1134.870, 3368.653
1135.352, 3375.953
1135.834, 3382.934
1136.316, 3382.280
1136.798, 3378.167
1137.280, 3379.825
1137.762, 3385.539
1138.244, 3388.792
1138.726, 3390.098
1139.208, 3394.699
1139.691, 3403.124
1140.173, 3408.976
1140.655, 3408.206
1141.137, 3403.933
1141.619, 3398.353
1142.101, 3393.174
1142.583, 3391.734
1143.065, 3393.058
1143.548, 3394.778
1144.030, 3396.872
1144.512, 3401.028
1144.994, 3407.829
1145.476, 3414.942
1145.958, 3422.124
1146.440, 3426.692
1146.922, 3424.544
1147.405, 3419.257
1147.887, 3413.411
1148.369, 3408.831
1148.851, 3408.839
1149.333, 3413.384
1149.815, 3418.178
1150.297, 3421.311
1150.779, 3424.021
1151.261, 3426.902
1151.744, 3429.762
1152.226, 3431.223
1152.708, 3433.474
1153.190, 3441.698
1153.672, 3452.787
1154.154, 3456.120
1154.636, 3448.006
1155.118, 3441.750
1155.600, 3441.758
1156.083, 3443.574
1156.565, 3446.521
1157.047, 3449.880
1157.529, 3453.358
1158.011, 3456.867
1158.493, 3460.918
1158.975, 3465.473
1159.457, 3467.023
1159.940, 3460.975
1160.422, 3459.127
1160.904, 3463.729
1161.386, 3469.977
1161.868, 3478.880
1162.350, 3485.541
1162.832, 3484.092
1163.314, 3477.531
1163.796, 3474.995
1164.279, 3476.567
1164.761, 3482.421
1165.243, 3494.542
1165.725, 3503.624
1166.207, 3507.203
1166.689, 3509.662
1167.171, 3512.980
1167.653, 3518.397
1168.135, 3528.813
1168.618, 3531.380
1169.100, 3535.289
1169.582, 3541.066
1170.064, 3540.278
1170.546, 3545.017
1171.028, 3550.523
1171.510, 3555.228
1171.992, 3561.509
1172.474, 3571.790
1172.957, 3582.187
1173.439, 3584.903
1173.921, 3582.631
1174.403, 3581.865
1174.885, 3583.416
1175.367, 3590.962
1175.849, 3603.493
1176.331, 3613.091
1176.814, 3616.479
1177.296, 3619.763
1177.778, 3628.215
1178.260, 3639.514
1178.742, 3653.613
1179.224, 3666.937
1179.706, 3674.163
1180.188, 3676.914
1180.671, 3678.466
1181.153, 3679.771
1181.635, 3681.007
1182.117, 3681.939
1182.599, 3683.917
1183.081, 3687.529
1183.563, 3692.589
1184.045, 3699.648
1184.527, 3707.538
1185.010, 3716.359
1185.492, 3724.782
1185.974, 3729.130
1186.456, 3728.544
1186.938, 3731.597
1187.420, 3738.034
1187.902, 3750.746
1188.384, 3779.229
1188.866, 3802.816
1189.349, 3808.315
1189.831, 3808.848
1190.313, 3818.542
1190.795, 3834.343
1191.277, 3843.832
1191.759, 3844.793
1192.241, 3849.066
1192.723, 3857.461
1193.206, 3866.272
1193.688, 3874.853
1194.170, 3883.072
1194.652, 3890.638
1195.134, 3898.568
1195.616, 3908.691
1196.098, 3919.927
1196.580, 3926.526
1197.063, 3929.261
1197.545, 3936.815
1198.027, 3949.342
1198.509, 3962.398
1198.991, 3974.515
1199.473, 3984.660
1199.955, 3992.014
1200.437, 3997.795
1200.919, 4002.166
1201.401, 4007.150
1201.884, 4017.056
1202.366, 4029.889
1202.848, 4042.142
1203.330, 4053.440
1203.812, 4064.498
1204.294, 4075.432
1204.776, 4085.071
1205.258, 4091.663
1205.741, 4098.720
1206.223, 4110.152
1206.705, 4121.012
1207.187, 4124.607
1207.669, 4127.534
1208.151, 4140.332
1208.633, 4159.636
1209.115, 4172.287
1209.598, 4174.878
1210.080, 4177.884
1210.562, 4180.271
1211.044, 4187.171
1211.526, 4206.577
1212.008, 4221.874
1212.490, 4221.585
1212.972, 4217.423
1213.454, 4223.458
1213.937, 4237.438
1214.419, 4248.500
1214.901, 4256.143
1215.383, 4263.129
1215.865, 4269.172
1216.347, 4276.257
1216.829, 4284.712
1217.311, 4295.589
1217.793, 4309.895
1218.276, 4324.011
1218.758, 4333.121
1219.240, 4338.236
1219.722, 4341.544
1220.204, 4343.463
1220.686, 4343.524
1221.168, 4343.558
1221.650, 4352.197
1222.133, 4369.645
1222.615, 4383.358
1223.097, 4385.819
1223.579, 4387.217
1224.061, 4398.878
1224.543, 4401.804
1225.025, 4415.223
1225.507, 4415.706
1225.990, 4422.348
1226.472, 4430.954
1226.954, 4430.755
1227.436, 4421.079
1227.918, 4414.085
1228.400, 4414.970
1228.882, 4415.202
1229.364, 4409.086
1229.846, 4406.880
1230.328, 4418.148
1230.811, 4429.127
1231.293, 4426.890
1231.775, 4419.075
1232.257, 4420.678
1232.739, 4431.606
1233.221, 4436.638
1233.703, 4433.800
1234.185, 4434.306
1234.668, 4439.865
1235.150, 4443.835
1235.632, 4444.169
1236.114, 4440.781
1236.596, 4433.074
1237.078, 4424.305
1237.560, 4420.660
1238.042, 4420.367
1238.525, 4417.592
1239.007, 4413.026
1239.489, 4408.612
1239.971, 4404.632
1240.453, 4400.477
1240.935, 4396.280
1241.417, 4394.580
1241.899, 4398.172
1242.381, 4400.454
1242.864, 4395.253
1243.346, 4387.564
1243.828, 4379.245
1244.310, 4372.599
1244.792, 4371.502
1245.274, 4373.458
1245.756, 4373.014
1246.238, 4369.352
1246.720, 4364.474
1247.203, 4355.800
1247.685, 4350.722
1248.167, 4354.857
1248.649, 4354.304
1249.131, 4340.708
1249.613, 4328.233
1250.095, 4329.290
1250.577, 4336.132
1251.059, 4333.349
1251.542, 4321.787
1252.024, 4310.671
1252.506, 4299.996
1252.988, 4292.972
1253.470, 4289.894
1253.952, 4291.815
1254.434, 4298.504
1254.916, 4302.355
1255.399, 4297.910
1255.881, 4289.347
1256.363, 4279.250
1256.845, 4270.551
1257.327, 4267.896
1257.809, 4269.434
1258.291, 4274.045
1258.773, 4279.736
1259.255, 4282.749
1259.738, 4282.830
1260.220, 4284.272
1260.702, 4290.979
1261.184, 4292.611
1261.666, 4279.629
1262.148, 4269.386
1262.630, 4272.033
1263.112, 4276.370
1263.594, 4273.313
1264.077, 4267.761
1264.559, 4267.078
1265.041, 4270.635
1265.523, 4272.782
1266.005, 4272.489
1266.487, 4278.464
1266.969, 4292.414
1267.451, 4296.399
1267.934, 4285.857
1268.416, 4276.123
1268.898, 4275.842
1269.380, 4278.119
1269.862, 4273.675
1270.344, 4268.362
1270.826, 4275.395
1271.308, 4287.837
1271.791, 4293.561
1272.273, 4293.500
1272.755, 4288.874
1273.237, 4282.601
1273.719, 4283.642
1274.201, 4295.587
1274.683, 4305.256
1275.165, 4304.843
1275.647, 4303.901
1276.130, 4304.892
1276.612, 4307.735
1277.094, 4315.300
1277.576, 4322.126
1278.058, 4320.881
1278.540, 4315.070
1279.022, 4314.573
1279.504, 4319.830
1279.986, 4325.765
1280.469, 4332.484
1280.951, 4338.125
1281.433, 4342.425
1281.915, 4347.192
1282.397, 4353.112
1282.879, 4359.423
1283.361, 4365.550
1283.843, 4372.369
1284.326, 4380.999
1284.808, 4391.125
##END=



