##NAMES=Lemmleinite-Ba
##RRUFFID=R070650
##IDEAL CHEMISTRY=Na_4_K_4_Ba_2+x_Ti^4+^_8_(Si_4_O_12_)_4_(O,OH)_8_&#183;8H_2_O
##LOCALITY=Diamond Jo Quarry, Magnet Cove, Hot Spring County, Arkansas, USA
##OWNER=RRUFF
##SOURCE=Michael Scott 
##DESCRIPTION=Orange tabular crystals associated with colorless acicular pectolite
##STATUS=The identification of this mineral is confirmed by single-crystal X-ray diffraction and chemical analysis.
##URL=rruff.info/R070650
##MEASURED CHEMISTRY=(Na_3.92_Ca_0.08_)_Σ=4_(K_3.79_Na_0.21_)_Σ=4_(Ba_1.52_K_0.44_Fe^2+^_0.33_)_Σ=2.29_(Ti_7.80_Fe^3+^_0.20_)_Σ=8_(Si_4.00_O_12_)_4_((OH)_4.18_O_3.82_)_Σ=8_·13.53H_2_O ; = darker phase
156.4129, 30860.31
156.8950, 30787.07
157.3771, 30753.14
157.8592, 30736.53
158.3413, 30725.29
158.8235, 30716.80
159.3056, 30714.55
159.7877, 30717.08
160.2698, 30725.15
160.7519, 30747.02
161.2340, 30803.76
161.7162, 30868.79
162.1983, 30916.23
162.6804, 30921.46
163.1625, 30920.63
163.6446, 30932.56
164.1267, 30960.64
164.6089, 30981.76
165.0910, 30975.90
165.5731, 30956.77
166.0552, 30946.66
166.5373, 30972.48
167.0194, 31000.16
167.5016, 30993.41
167.9837, 30918.91
168.4658, 30880.19
168.9479, 31002.88
169.4300, 31227.34
169.9121, 31379.55
170.3943, 31302.26
170.8764, 31125.21
171.3585, 30983.34
171.8406, 30927.95
172.3227, 30900.67
172.8048, 30844.03
173.2870, 30764.46
173.7691, 30710.68
174.2512, 30738.10
174.7333, 30811.63
175.2154, 30874.44
175.6975, 30890.85
176.1797, 30891.46
176.6618, 30915.97
177.1439, 30965.90
177.6260, 31014.25
178.1081, 31028.71
178.5902, 31020.93
179.0724, 31022.70
179.5545, 31050.72
180.0366, 31097.32
180.5187, 31153.43
181.0008, 31222.08
181.4829, 31287.14
181.9651, 31328.70
182.4472, 31349.35
182.9293, 31362.96
183.4114, 31357.36
183.8935, 31349.79
184.3756, 31394.70
184.8578, 31513.81
185.3399, 31664.67
185.8220, 31784.64
186.3041, 31875.19
186.7862, 31935.50
187.2683, 31947.82
187.7504, 31923.66
188.2326, 31918.76
188.7147, 31950.79
189.1968, 32006.72
189.6789, 32049.17
190.1610, 32074.64
190.6431, 32114.99
191.1253, 32215.78
191.6074, 32370.33
192.0895, 32510.25
192.5716, 32611.86
193.0537, 32678.96
193.5358, 32724.73
194.0180, 32745.83
194.5001, 32756.13
194.9822, 32766.64
195.4643, 32777.31
195.9464, 32806.78
196.4285, 32869.03
196.9107, 32962.44
197.3928, 33061.45
197.8749, 33169.86
198.3570, 33277.86
198.8391, 33360.50
199.3212, 33412.77
199.8034, 33474.41
200.2855, 33576.43
200.7676, 33720.25
201.2497, 33841.98
201.7318, 33932.68
202.2139, 33999.65
202.6961, 34058.56
203.1782, 34103.84
203.6603, 34156.70
204.1424, 34239.43
204.6245, 34359.48
205.1066, 34456.02
205.5888, 34517.81
206.0709, 34550.82
206.5530, 34584.52
207.0351, 34622.70
207.5172, 34655.67
207.9993, 34668.54
208.4815, 34652.32
208.9636, 34660.51
209.4457, 34713.19
209.9278, 34807.82
210.4099, 34880.75
210.8920, 34930.12
211.3742, 34961.06
211.8563, 34986.58
212.3384, 35020.18
212.8205, 35004.52
213.3026, 34909.52
213.7847, 34726.73
214.2669, 34558.45
214.7490, 34375.23
215.2311, 34235.82
215.7132, 34270.88
216.1953, 34592.80
216.6774, 34823.32
217.1596, 34793.61
217.6417, 34421.12
218.1238, 34146.06
218.6059, 33988.99
219.0880, 33918.23
219.5701, 33868.25
220.0523, 33845.16
220.5344, 33832.13
221.0165, 33823.36
221.4986, 33822.27
221.9807, 33814.93
222.4628, 33800.09
222.9450, 33778.11
223.4271, 33750.36
223.9092, 33716.26
224.3913, 33675.97
224.8734, 33626.73
225.3555, 33557.41
225.8377, 33504.47
226.3198, 33472.47
226.8019, 33458.91
227.2840, 33449.75
227.7661, 33448.57
228.2482, 33447.20
228.7303, 33444.04
229.2125, 33454.75
229.6946, 33428.92
230.1767, 33343.27
230.6588, 33202.60
231.1409, 33111.85
231.6230, 33093.84
232.1052, 33101.55
232.5873, 33094.64
233.0694, 33066.65
233.5515, 33037.19
234.0336, 33006.25
234.5157, 32972.93
234.9979, 32961.05
235.4800, 32988.96
235.9621, 33022.75
236.4442, 33022.56
236.9263, 32968.25
237.4084, 32915.82
237.8906, 32877.41
238.3727, 32855.02
238.8548, 32836.17
239.3369, 32822.25
239.8190, 32811.23
240.3011, 32800.43
240.7833, 32789.82
241.2654, 32779.35
241.7475, 32766.67
242.2296, 32747.25
242.7117, 32742.66
243.1938, 32753.74
243.6760, 32778.59
244.1581, 32820.41
244.6402, 32912.17
245.1223, 32967.87
245.6044, 32945.14
246.0865, 32797.70
246.5687, 32703.63
247.0508, 32679.76
247.5329, 32702.12
248.0150, 32718.25
248.4971, 32721.18
248.9792, 32727.56
249.4614, 32748.81
249.9435, 32806.68
250.4256, 32825.17
250.9077, 32785.13
251.3898, 32709.47
251.8719, 32665.02
252.3541, 32662.62
252.8362, 32676.33
253.3183, 32695.48
253.8004, 32724.83
254.2825, 32751.57
254.7646, 32781.58
255.2468, 32809.18
255.7289, 32806.12
256.2110, 32750.08
256.6931, 32698.76
257.1752, 32684.95
257.6573, 32716.59
258.1395, 32767.79
258.6216, 32843.24
259.1037, 32937.80
259.5858, 33023.71
260.0679, 33102.28
260.5500, 33170.28
261.0322, 33221.07
261.5143, 33243.77
261.9964, 33278.57
262.4785, 33336.24
262.9606, 33410.42
263.4427, 33463.08
263.9249, 33484.17
264.4070, 33499.27
264.8891, 33529.38
265.3712, 33580.28
265.8533, 33629.15
266.3354, 33678.08
266.8176, 33724.37
267.2997, 33741.25
267.7818, 33711.92
268.2639, 33684.21
268.7460, 33707.01
269.2281, 33797.78
269.7103, 33875.43
270.1924, 33925.50
270.6745, 33949.87
271.1566, 33956.02
271.6387, 33932.43
272.1208, 33914.70
272.6030, 33945.77
273.0851, 34039.08
273.5672, 34116.89
274.0493, 34151.34
274.5314, 34149.84
275.0135, 34200.08
275.4957, 34319.58
275.9778, 34447.94
276.4599, 34519.23
276.9420, 34527.47
277.4241, 34513.62
277.9063, 34472.74
278.3884, 34411.95
278.8705, 34408.43
279.3526, 34470.28
279.8347, 34566.35
280.3168, 34677.13
280.7990, 34806.74
281.2811, 34903.73
281.7632, 34945.14
282.2453, 34938.96
282.7274, 34932.25
283.2095, 34923.80
283.6917, 34920.73
284.1738, 34932.16
284.6559, 34958.34
285.1380, 34991.20
285.6201, 35036.67
286.1022, 35087.99
286.5844, 35097.48
287.0665, 35053.04
287.5486, 35018.50
288.0307, 35097.94
288.5128, 35282.60
288.9949, 35420.54
289.4771, 35424.87
289.9592, 35335.80
290.4413, 35322.05
290.9234, 35391.61
291.4055, 35488.05
291.8876, 35552.77
292.3697, 35588.38
292.8518, 35614.61
293.3340, 35640.59
293.8161, 35662.56
294.2982, 35664.59
294.7803, 35644.57
295.2624, 35621.68
295.7445, 35616.52
296.2267, 35626.58
296.7088, 35640.29
297.1909, 35657.13
297.6730, 35674.73
298.1551, 35686.89
298.6372, 35694.18
299.1194, 35699.52
299.6015, 35695.98
300.0836, 35691.66
300.5657, 35709.13
301.0478, 35783.72
301.5299, 35877.43
302.0121, 35919.04
302.4942, 35904.92
302.9763, 35899.40
303.4584, 35979.43
303.9405, 36110.92
304.4226, 36222.50
304.9048, 36268.28
305.3869, 36283.63
305.8690, 36302.82
306.3511, 36325.93
306.8332, 36356.66
307.3153, 36409.46
307.7975, 36470.23
308.2796, 36514.41
308.7617, 36521.43
309.2438, 36514.82
309.7259, 36509.76
310.2080, 36506.84
310.6902, 36517.73
311.1723, 36573.24
311.6544, 36643.14
312.1365, 36685.30
312.6186, 36629.75
313.1007, 36582.65
313.5829, 36635.73
314.0650, 36791.59
314.5471, 36923.37
315.0292, 36948.57
315.5113, 36920.52
315.9934, 36900.44
316.4756, 36898.06
316.9577, 36916.92
317.4398, 36968.36
317.9219, 37051.86
318.4040, 37127.06
318.8861, 37163.56
319.3683, 37190.30
319.8504, 37234.91
320.3325, 37326.91
320.8146, 37417.12
321.2967, 37464.43
321.7788, 37470.60
322.2610, 37551.06
322.7431, 37842.65
323.2252, 38164.12
323.7073, 38371.04
324.1894, 38338.16
324.6715, 38294.13
325.1537, 38269.32
325.6358, 38265.11
326.1179, 38298.79
326.6000, 38401.95
327.0821, 38525.00
327.5642, 38633.90
328.0464, 38694.64
328.5285, 38775.97
329.0106, 38904.27
329.4927, 39072.67
329.9748, 39195.66
330.4569, 39229.03
330.9391, 39253.41
331.4212, 39321.51
331.9033, 39472.30
332.3854, 39606.38
332.8675, 39719.87
333.3496, 39812.53
333.8318, 39873.75
334.3139, 39864.18
334.7960, 39873.01
335.2781, 39964.19
335.7602, 40183.09
336.2423, 40367.70
336.7245, 40490.21
337.2066, 40571.06
337.6887, 40704.36
338.1708, 40924.05
338.6529, 41119.40
339.1350, 41216.53
339.6172, 41193.75
340.0993, 41179.63
340.5814, 41177.60
341.0635, 41194.08
341.5456, 41252.78
342.0277, 41361.17
342.5099, 41476.85
342.9920, 41583.17
343.4741, 41681.17
343.9562, 41746.10
344.4383, 41768.65
344.9204, 41772.33
345.4026, 41807.86
345.8847, 41876.07
346.3668, 41928.60
346.8489, 41914.31
347.3310, 41854.78
347.8131, 41862.01
348.2953, 41953.69
348.7774, 42074.23
349.2595, 42155.54
349.7416, 42200.36
350.2237, 42229.36
350.7058, 42252.52
351.1880, 42267.38
351.6701, 42264.73
352.1522, 42241.99
352.6343, 42219.62
353.1164, 42220.49
353.5985, 42239.42
354.0807, 42262.01
354.5628, 42295.34
355.0449, 42324.03
355.5270, 42339.67
356.0091, 42343.70
356.4912, 42308.62
356.9734, 42186.50
357.4555, 42015.90
357.9376, 41860.02
358.4197, 41724.00
358.9018, 41623.54
359.3839, 41586.29
359.8661, 41610.00
360.3482, 41625.63
360.8303, 41594.39
361.3124, 41536.93
361.7945, 41473.91
362.2766, 41405.07
362.7588, 41337.34
363.2409, 41277.40
363.7230, 41222.92
364.2051, 41157.04
364.6872, 41056.35
365.1693, 40952.59
365.6515, 40867.55
366.1336, 40801.33
366.6157, 40760.07
367.0978, 40776.61
367.5799, 40831.92
368.0620, 40830.32
368.5442, 40689.75
369.0263, 40546.36
369.5084, 40465.87
369.9905, 40494.74
370.4726, 40526.33
370.9547, 40567.06
371.4369, 40611.75
371.9190, 40643.01
372.4011, 40641.85
372.8832, 40652.55
373.3653, 40698.54
373.8474, 40806.50
374.3295, 40873.73
374.8116, 40880.89
375.2938, 40861.95
375.7759, 40876.50
376.2580, 40924.19
376.7401, 41005.52
377.2222, 41141.04
377.7043, 41339.87
378.1865, 41449.43
378.6686, 41453.66
379.1507, 41405.00
379.6328, 41349.95
380.1149, 41283.98
380.5970, 41281.38
381.0792, 41399.84
381.5613, 41604.05
382.0434, 41726.58
382.5255, 41757.42
383.0076, 41763.83
383.4897, 41817.52
383.9719, 41906.51
384.4540, 41978.57
384.9361, 42012.90
385.4182, 42025.55
385.9003, 42041.75
386.3824, 42062.00
386.8646, 42083.30
387.3467, 42106.09
387.8288, 42129.21
388.3109, 42147.27
388.7930, 42150.48
389.2751, 42164.51
389.7573, 42218.86
390.2394, 42306.97
390.7215, 42402.92
391.2036, 42494.22
391.6857, 42587.01
392.1678, 42686.91
392.6500, 42794.70
393.1321, 42908.34
393.6142, 43038.21
394.0963, 43170.28
394.5784, 43279.67
395.0605, 43300.75
395.5427, 43339.63
396.0248, 43464.78
396.5069, 43715.12
396.9890, 43920.52
397.4711, 44017.46
397.9532, 44055.12
398.4354, 44098.20
398.9175, 44147.25
399.3996, 44209.86
399.8817, 44299.50
400.3638, 44422.80
400.8459, 44509.75
401.3281, 44521.24
401.8102, 44525.67
402.2923, 44586.32
402.7744, 44762.23
403.2565, 44886.12
403.7386, 44920.24
404.2208, 44878.77
404.7029, 44858.68
405.1850, 44861.51
405.6671, 44883.59
406.1492, 44933.05
406.6313, 45020.65
407.1135, 45070.38
407.5956, 45068.58
408.0777, 45032.78
408.5598, 44993.46
409.0419, 44948.65
409.5240, 44927.68
410.0062, 44963.44
410.4883, 45044.46
410.9704, 45091.91
411.4525, 45094.04
411.9346, 45090.49
412.4167, 45148.91
412.8989, 45252.91
413.3810, 45332.31
413.8631, 45315.28
414.3452, 45265.37
414.8273, 45290.10
415.3094, 45392.88
415.7916, 45512.59
416.2737, 45610.41
416.7558, 45690.71
417.2379, 45762.59
417.7200, 45833.03
418.2021, 45893.28
418.6843, 45943.65
419.1664, 45982.41
419.6485, 45997.91
420.1306, 45906.79
420.6127, 45833.94
421.0948, 45885.23
421.5770, 46181.97
422.0591, 46460.55
422.5412, 46645.42
423.0233, 46756.63
423.5054, 46852.98
423.9875, 46911.74
424.4697, 46984.92
424.9518, 47094.89
425.4339, 47255.53
425.9160, 47420.66
426.3981, 47599.60
426.8802, 47779.17
427.3624, 47942.91
427.8445, 48096.07
428.3266, 48226.84
428.8087, 48323.97
429.2908, 48385.80
429.7729, 48480.05
430.2551, 48622.80
430.7372, 48770.73
431.2193, 48865.07
431.7014, 48888.96
432.1835, 48989.71
432.6656, 49224.43
433.1478, 49538.60
433.6299, 49744.56
434.1120, 49832.80
434.5941, 49921.86
435.0762, 50112.86
435.5583, 50379.40
436.0405, 50605.64
436.5226, 50770.29
437.0047, 50909.21
437.4868, 51072.11
437.9689, 51250.48
438.4510, 51411.51
438.9332, 51499.81
439.4153, 51579.19
439.8974, 51747.41
440.3795, 52017.76
440.8616, 52272.32
441.3438, 52412.81
441.8259, 52488.94
442.3080, 52570.26
442.7901, 52671.39
443.2722, 52791.95
443.7543, 52944.29
444.2365, 53122.04
444.7186, 53283.72
445.2007, 53417.00
445.6828, 53527.62
446.1649, 53621.05
446.6470, 53711.23
447.1292, 53766.12
447.6113, 53759.89
448.0934, 53715.76
448.5755, 53697.34
449.0576, 53739.45
449.5397, 53769.27
450.0219, 53760.97
450.5040, 53706.84
450.9861, 53653.48
451.4682, 53612.27
451.9503, 53560.18
452.4324, 53463.05
452.9146, 53310.55
453.3967, 53153.80
453.8788, 53002.87
454.3609, 52858.85
454.8430, 52752.10
455.3251, 52688.78
455.8072, 52611.15
456.2893, 52434.00
456.7715, 52185.08
457.2536, 52026.65
457.7357, 52004.87
458.2178, 52048.28
458.6999, 52060.00
459.1820, 52047.59
459.6642, 52044.77
460.1463, 52106.70
460.6284, 52173.58
461.1105, 52161.71
461.5926, 52054.70
462.0747, 51931.14
462.5569, 51810.15
463.0390, 51713.34
463.5211, 51673.11
464.0032, 51743.69
464.4853, 51833.50
464.9674, 51881.57
465.4496, 51894.11
465.9317, 51977.67
466.4138, 52229.46
466.8959, 52514.86
467.3780, 52752.98
467.8601, 52868.54
468.3423, 53019.38
468.8244, 53213.15
469.3065, 53446.93
469.7886, 53707.32
470.2707, 54023.52
470.7528, 54322.35
471.2350, 54556.02
471.7171, 54700.07
472.1992, 54962.58
472.6813, 55370.98
473.1634, 55846.77
473.6455, 56302.37
474.1277, 56739.65
474.6098, 57142.91
475.0919, 57499.35
475.5740, 57823.45
476.0561, 58142.79
476.5382, 58458.05
477.0204, 58804.97
477.5025, 59234.76
477.9846, 59711.88
478.4667, 60158.27
478.9488, 60563.38
479.4309, 60934.96
479.9131, 61247.63
480.3952, 61531.79
480.8773, 61857.94
481.3594, 62268.62
481.8415, 62722.39
482.3236, 63194.41
482.8058, 63678.11
483.2879, 64178.55
483.7700, 64730.54
484.2521, 65280.24
484.7342, 65781.65
485.2163, 66227.60
485.6985, 66610.95
486.1806, 66928.07
486.6627, 67179.85
487.1448, 67385.14
487.6269, 67589.23
488.1090, 67694.02
488.5912, 67654.09
489.0733, 67443.82
489.5554, 67178.45
490.0375, 66875.27
490.5196, 66493.84
491.0017, 65975.55
491.4839, 65307.59
491.9660, 64560.56
492.4481, 63723.46
492.9302, 62817.21
493.4123, 61961.31
493.8944, 61144.93
494.3766, 60368.34
494.8587, 59611.37
495.3408, 58889.39
495.8229, 58229.57
496.3050, 57643.13
496.7871, 57095.24
497.2693, 56532.21
497.7514, 55966.20
498.2335, 55444.22
498.7156, 55000.71
499.1977, 54596.16
499.6798, 54194.53
500.1620, 53794.57
500.6441, 53419.99
501.1262, 53057.43
501.6083, 52737.93
502.0904, 52485.08
502.5725, 52351.50
503.0547, 52235.00
503.5368, 52133.08
504.0189, 52039.34
504.5010, 51922.63
504.9831, 51737.59
505.4652, 51589.81
505.9474, 51528.66
506.4295, 51572.76
506.9116, 51621.84
507.3937, 51681.71
507.8758, 51738.02
508.3579, 51757.45
508.8401, 51732.54
509.3222, 51756.99
509.8043, 51873.29
510.2864, 52042.82
510.7685, 52148.56
511.2506, 52191.65
511.7328, 52246.38
512.2148, 52379.49
512.6970, 52557.68
513.1791, 52716.52
513.6612, 52839.96
514.1433, 52971.19
514.6254, 53150.98
515.1075, 53364.62
515.5897, 53585.57
516.0718, 53789.23
516.5539, 54011.70
517.0360, 54287.12
517.5181, 54614.21
518.0002, 54915.13
518.4824, 55150.02
518.9645, 55365.81
519.4466, 55591.79
519.9287, 55812.31
520.4108, 56073.23
520.8929, 56382.77
521.3751, 56726.23
521.8572, 57071.68
522.3393, 57418.01
522.8214, 57770.59
523.3035, 58145.91
523.7856, 58537.85
524.2678, 58856.79
524.7499, 59087.21
525.2320, 59293.28
525.7141, 59537.47
526.1962, 59811.61
526.6783, 60057.93
527.1605, 60264.48
527.6426, 60435.36
528.1247, 60578.32
528.6068, 60688.35
529.0889, 60758.04
529.5710, 60765.79
530.0532, 60739.68
530.5353, 60718.20
531.0174, 60705.09
531.4995, 60638.43
531.9816, 60471.24
532.4637, 60241.59
532.9459, 59981.01
533.4280, 59652.13
533.9101, 59347.98
534.3922, 59140.04
534.8743, 58979.71
535.3564, 58708.54
535.8386, 58218.25
536.3207, 57740.30
536.8028, 57356.71
537.2849, 57081.93
537.7670, 56804.10
538.2491, 56519.05
538.7313, 56235.96
539.2134, 55951.78
539.6955, 55665.86
540.1776, 55417.84
540.6597, 55223.73
541.1418, 55060.12
541.6240, 54884.28
542.1061, 54695.09
542.5882, 54499.29
543.0703, 54295.24
543.5524, 54088.23
544.0345, 53870.32
544.5167, 53636.87
544.9988, 53453.20
545.4809, 53419.82
545.9630, 53441.51
546.4451, 53407.00
546.9272, 53230.19
547.4094, 53046.13
547.8915, 52880.83
548.3736, 52740.75
548.8557, 52642.77
549.3378, 52662.05
549.8199, 52655.56
550.3021, 52560.25
550.7842, 52343.95
551.2663, 52195.26
551.7484, 52151.25
552.2305, 52129.57
552.7126, 52028.50
553.1948, 51825.71
553.6769, 51698.81
554.1590, 51696.65
554.6411, 51769.30
555.1232, 51812.53
555.6053, 51826.54
556.0875, 51812.13
556.5696, 51762.18
557.0517, 51686.53
557.5338, 51589.97
558.0159, 51470.86
558.4980, 51375.75
558.9802, 51354.31
559.4623, 51373.38
559.9444, 51390.41
560.4265, 51373.72
560.9086, 51378.89
561.3907, 51454.12
561.8729, 51570.45
562.3550, 51648.15
562.8371, 51658.54
563.3192, 51640.38
563.8013, 51585.88
564.2834, 51477.38
564.7656, 51469.89
565.2477, 51626.93
565.7298, 51800.92
566.2119, 51856.97
566.6940, 51771.71
567.1761, 51694.73
567.6583, 51638.15
568.1404, 51604.55
568.6225, 51616.18
569.1046, 51667.60
569.5867, 51691.32
570.0688, 51628.98
570.5510, 51529.04
571.0331, 51467.65
571.5152, 51447.41
571.9973, 51458.93
572.4794, 51534.95
572.9615, 51623.38
573.4437, 51665.12
573.9258, 51625.23
574.4079, 51583.56
574.8900, 51559.09
575.3721, 51553.48
575.8542, 51570.45
576.3364, 51615.09
576.8185, 51676.43
577.3006, 51764.95
577.7827, 51878.07
578.2648, 51937.57
578.7469, 51918.59
579.2291, 51889.57
579.7112, 51898.32
580.1933, 51948.00
580.6754, 51985.29
581.1575, 52005.90
581.6396, 52019.74
582.1218, 52019.82
582.6039, 52018.42
583.0860, 52078.14
583.5681, 52280.36
584.0502, 52499.84
584.5323, 52566.91
585.0145, 52505.82
585.4966, 52431.08
585.9787, 52381.70
586.4608, 52358.05
586.9429, 52362.75
587.4250, 52399.30
587.9072, 52448.30
588.3893, 52516.57
588.8714, 52589.81
589.3535, 52653.78
589.8356, 52710.79
590.3177, 52755.28
590.7999, 52780.25
591.2820, 52794.79
591.7641, 52834.07
592.2462, 52911.99
592.7283, 52963.60
593.2104, 52929.80
593.6926, 52832.99
594.1747, 52852.29
594.6568, 52996.00
595.1389, 53168.46
595.6210, 53302.48
596.1031, 53398.71
596.5853, 53450.52
597.0674, 53441.80
597.5495, 53425.97
598.0316, 53429.55
598.5137, 53459.14
598.9958, 53526.48
599.4780, 53689.18
599.9601, 53840.37
600.4422, 53934.89
600.9243, 53973.42
601.4064, 54009.88
601.8885, 54038.43
602.3707, 54074.39
602.8528, 54122.93
603.3349, 54177.92
603.8170, 54263.52
604.2991, 54390.27
604.7813, 54527.80
605.2634, 54641.51
605.7455, 54730.41
606.2276, 54805.98
606.7097, 54866.75
607.1918, 54921.50
607.6740, 54992.40
608.1561, 55075.45
608.6382, 55152.61
609.1203, 55200.32
609.6024, 55246.68
610.0845, 55329.15
610.5667, 55452.32
611.0488, 55549.71
611.5309, 55555.03
612.0130, 55544.95
612.4951, 55580.59
612.9772, 55720.77
613.4594, 55835.06
613.9415, 55915.02
614.4236, 55965.56
614.9057, 55990.02
615.3878, 55971.89
615.8699, 55969.45
616.3521, 56004.79
616.8342, 56065.70
617.3163, 56092.13
617.7984, 56082.00
618.2805, 56071.46
618.7626, 56100.11
619.2448, 56145.22
619.7269, 56154.99
620.2090, 56125.04
620.6911, 56076.25
621.1732, 55992.18
621.6553, 55911.98
622.1375, 55887.17
622.6196, 55984.49
623.1017, 56076.53
623.5838, 56104.71
624.0659, 56098.01
624.5480, 56129.06
625.0302, 56252.51
625.5123, 56358.95
625.9944, 56413.34
626.4765, 56416.68
626.9586, 56438.84
627.4407, 56481.11
627.9229, 56534.43
628.4050, 56587.06
628.8871, 56640.23
629.3692, 56725.86
629.8513, 56853.45
630.3334, 56979.92
630.8156, 57058.04
631.2977, 57100.82
631.7798, 57136.02
632.2619, 57165.00
632.7440, 57200.46
633.2261, 57245.07
633.7083, 57304.27
634.1904, 57389.77
634.6725, 57547.60
635.1546, 57696.54
635.6367, 57801.32
636.1188, 57857.18
636.6010, 57914.85
637.0831, 57970.04
637.5652, 58033.50
638.0473, 58110.41
638.5294, 58199.24
639.0115, 58311.45
639.4937, 58457.04
639.9758, 58599.93
640.4579, 58672.12
640.9400, 58691.79
641.4221, 58754.23
641.9042, 58920.79
642.3864, 59104.11
642.8685, 59174.30
643.3506, 59169.95
643.8327, 59212.90
644.3148, 59442.50
644.7969, 59670.20
645.2791, 59771.51
645.7612, 59725.47
646.2433, 59726.03
646.7254, 59833.49
647.2075, 59970.76
647.6896, 60093.89
648.1718, 60191.27
648.6539, 60313.18
649.1360, 60475.68
649.6181, 60640.92
650.1002, 60755.14
650.5823, 60821.00
651.0645, 60883.09
651.5466, 60961.95
652.0287, 61032.75
652.5108, 61025.29
652.9929, 60967.15
653.4750, 60961.98
653.9572, 61146.01
654.4393, 61341.37
654.9214, 61399.22
655.4035, 61315.29
655.8856, 61259.02
656.3677, 61291.53
656.8499, 61362.32
657.3320, 61443.68
657.8141, 61545.54
658.2962, 61629.18
658.7783, 61684.52
659.2604, 61733.35
659.7426, 61793.58
660.2247, 61862.75
660.7067, 61975.72
661.1888, 62154.77
661.6710, 62356.25
662.1531, 62519.69
662.6352, 62643.33
663.1173, 62720.64
663.5994, 62664.93
664.0815, 62619.13
664.5637, 62750.96
665.0458, 63038.82
665.5279, 63286.98
666.0100, 63400.19
666.4921, 63459.96
666.9742, 63507.55
667.4564, 63540.17
667.9385, 63578.93
668.4206, 63626.20
668.9027, 63677.81
669.3848, 63725.07
669.8669, 63763.02
670.3491, 63833.02
670.8312, 63948.12
671.3133, 64082.90
671.7954, 64202.66
672.2775, 64307.70
672.7596, 64391.82
673.2418, 64448.82
673.7239, 64489.95
674.2060, 64514.43
674.6881, 64529.24
675.1702, 64563.75
675.6523, 64639.27
676.1345, 64731.01
676.6166, 64831.03
677.0987, 64942.09
677.5808, 65037.00
678.0629, 65107.34
678.5450, 65170.75
679.0272, 65238.41
679.5093, 65312.95
679.9914, 65382.62
680.4735, 65446.11
680.9556, 65508.03
681.4377, 65575.35
681.9199, 65647.48
682.4020, 65718.96
682.8841, 65796.99
683.3662, 65860.48
683.8483, 65860.62
684.3304, 65827.72
684.8126, 65835.99
685.2947, 65951.34
685.7768, 66081.52
686.2589, 66172.02
686.7410, 66226.12
687.2231, 66332.59
687.7053, 66555.60
688.1874, 66756.87
688.6695, 66870.62
689.1516, 66888.39
689.6337, 66913.04
690.1158, 66943.45
690.5980, 66989.35
691.0801, 67062.84
691.5622, 67161.74
692.0443, 67275.12
692.5264, 67407.30
693.0085, 67532.91
693.4907, 67624.33
693.9728, 67693.72
694.4549, 67761.25
694.9370, 67800.47
695.4191, 67872.15
695.9012, 68034.23
696.3834, 68244.58
696.8655, 68372.91
697.3476, 68333.48
697.8297, 68334.18
698.3118, 68445.94
698.7939, 68650.05
699.2761, 68807.41
699.7582, 68918.40
700.2403, 68985.93
700.7224, 68986.47
701.2045, 68950.18
701.6866, 68957.51
702.1688, 69013.18
702.6509, 69092.20
703.1330, 69204.92
703.6151, 69316.60
704.0972, 69381.06
704.5793, 69345.95
705.0615, 69367.39
705.5436, 69552.33
706.0257, 69788.47
706.5078, 69937.10
706.9899, 69949.37
707.4720, 69966.56
707.9542, 69999.15
708.4363, 70050.77
708.9184, 70138.22
709.4005, 70261.11
709.8826, 70379.34
710.3647, 70478.68
710.8469, 70564.48
711.3290, 70646.66
711.8111, 70723.66
712.2932, 70782.55
712.7753, 70749.84
713.2574, 70747.28
713.7396, 70884.77
714.2217, 71180.96
714.7038, 71427.36
715.1859, 71535.90
715.6680, 71618.52
716.1501, 71735.97
716.6323, 71909.02
717.1144, 72019.17
717.5965, 72035.17
718.0786, 72060.65
718.5607, 72263.20
719.0428, 72599.31
719.5250, 72806.03
720.0071, 72815.78
720.4892, 72743.04
720.9713, 72689.71
721.4534, 72646.27
721.9355, 72595.80
722.4177, 72476.81
722.8998, 72411.19
723.3819, 72489.00
723.8640, 72661.16
724.3461, 72762.23
724.8282, 72741.41
725.3104, 72719.16
725.7925, 72722.56
726.2746, 72750.29
726.7567, 72799.30
727.2388, 72869.23
727.7209, 72947.98
728.2031, 73049.99
728.6852, 73149.53
729.1673, 73168.43
729.6494, 73106.43
730.1315, 73068.52
730.6136, 73163.00
731.0958, 73292.88
731.5779, 73374.29
732.0600, 73381.05
732.5421, 73380.16
733.0242, 73358.45
733.5063, 73351.30
733.9885, 73403.27
734.4706, 73558.66
734.9527, 73613.98
735.4348, 73521.77
735.9169, 73383.24
736.3990, 73360.58
736.8812, 73437.48
737.3633, 73524.32
737.8454, 73608.55
738.3275, 73669.13
738.8096, 73660.52
739.2917, 73611.52
739.7739, 73590.02
740.2560, 73675.09
740.7381, 73739.77
741.2202, 73711.25
741.7023, 73603.60
742.1844, 73549.94
742.6666, 73558.46
743.1487, 73605.59
743.6308, 73702.53
744.1129, 73838.30
744.5950, 73894.22
745.0771, 73866.79
745.5593, 73815.72
746.0414, 73788.34
746.5235, 73768.00
747.0056, 73724.12
747.4877, 73653.11
747.9698, 73586.32
748.4520, 73517.68
748.9341, 73476.83
749.4162, 73498.48
749.8983, 73662.15
750.3804, 73733.03
750.8625, 73649.85
751.3447, 73525.40
751.8268, 73486.06
752.3089, 73545.23
752.7910, 73572.45
753.2731, 73532.88
753.7552, 73493.08
754.2374, 73580.23
754.7195, 73750.13
755.2016, 73881.42
755.6837, 73926.78
756.1658, 73917.76
756.6479, 73838.13
757.1301, 73719.30
757.6122, 73640.64
758.0943, 73646.56
758.5764, 73666.93
759.0585, 73693.63
759.5406, 73723.27
760.0228, 73737.29
760.5049, 73738.30
760.9870, 73721.02
761.4691, 73677.95
761.9512, 73618.36
762.4333, 73563.19
762.9155, 73515.07
763.3976, 73491.70
763.8797, 73551.93
764.3618, 73612.30
764.8439, 73568.38
765.3260, 73402.52
765.8082, 73302.83
766.2903, 73389.63
766.7724, 73503.84
767.2545, 73553.34
767.7366, 73522.39
768.2188, 73475.31
768.7009, 73399.10
769.1830, 73336.94
769.6651, 73338.95
770.1472, 73393.65
770.6293, 73451.32
771.1115, 73510.13
771.5936, 73549.81
772.0757, 73533.26
772.5578, 73492.23
773.0399, 73469.43
773.5220, 73470.44
774.0042, 73498.84
774.4863, 73598.33
774.9684, 73708.98
775.4505, 73732.61
775.9326, 73611.95
776.4147, 73557.45
776.8969, 73628.59
777.3790, 73751.98
777.8611, 73749.77
778.3432, 73644.57
778.8253, 73592.49
779.3074, 73730.54
779.7896, 73873.61
780.2717, 73768.02
780.7538, 73499.81
781.2359, 73320.81
781.7180, 73420.95
782.2001, 73530.34
782.6823, 73519.98
783.1644, 73421.34
783.6465, 73437.66
784.1286, 73642.58
784.6107, 73774.13
785.0928, 73683.88
785.5750, 73427.52
786.0571, 73261.98
786.5392, 73184.46
787.0213, 73126.81
787.5034, 73028.38
787.9855, 72933.55
788.4677, 72883.77
788.9498, 72882.63
789.4319, 72916.63
789.9140, 73064.51
790.3961, 73177.55
790.8782, 73150.07
791.3604, 72935.20
791.8425, 72842.91
792.3246, 72920.55
792.8067, 73008.31
793.2888, 72948.22
793.7709, 72771.33
794.2531, 72627.14
794.7352, 72524.84
795.2173, 72476.78
795.6994, 72552.08
796.1815, 72659.34
796.6636, 72684.91
797.1458, 72561.42
797.6279, 72454.31
798.1100, 72437.90
798.5921, 72434.00
799.0742, 72356.67
799.5563, 72170.21
800.0385, 72041.56
800.5206, 71993.51
801.0027, 71990.68
801.4848, 71997.55
801.9669, 72008.91
802.4490, 72005.73
802.9312, 71994.16
803.4133, 71946.13
803.8954, 71781.81
804.3775, 71581.14
804.8596, 71468.83
805.3417, 71579.22
805.8239, 71660.66
806.3060, 71659.44
806.7881, 71610.84
807.2702, 71595.91
807.7523, 71625.64
808.2344, 71609.23
808.7166, 71502.90
809.1987, 71358.30
809.6808, 71259.01
810.1629, 71203.88
810.6450, 71191.60
811.1271, 71276.73
811.6093, 71351.98
812.0914, 71323.59
812.5735, 71224.30
813.0556, 71185.55
813.5377, 71296.82
814.0198, 71376.75
814.5020, 71365.25
814.9841, 71287.25
815.4662, 71274.42
815.9483, 71332.20
816.4304, 71364.63
816.9125, 71296.09
817.3947, 71184.26
817.8768, 71131.25
818.3589, 71128.12
818.8410, 71117.11
819.3231, 71055.49
819.8052, 70991.36
820.2874, 70957.59
820.7695, 70956.12
821.2516, 70925.57
821.7337, 70829.31
822.2158, 70772.08
822.6979, 70826.31
823.1801, 70971.34
823.6622, 71028.63
824.1443, 70998.83
824.6264, 70973.00
825.1085, 71050.02
825.5906, 71146.61
826.0727, 71154.23
826.5548, 71065.46
827.0369, 70988.13
827.5190, 70951.04
828.0012, 70945.54
828.4833, 70980.87
828.9654, 71071.73
829.4475, 71065.71
829.9296, 70926.17
830.4117, 70810.17
830.8939, 70895.07
831.3760, 71098.77
831.8581, 71139.30
832.3402, 70996.92
832.8223, 70856.48
833.3044, 70859.49
833.7866, 70921.40
834.2687, 70981.72
834.7508, 71045.02
835.2329, 71050.09
835.7150, 70947.87
836.1971, 70842.62
836.6793, 70810.30
837.1614, 70856.85
837.6435, 70917.89
838.1256, 70997.95
838.6077, 71052.48
839.0898, 71011.52
839.5720, 70925.19
840.0541, 70864.39
840.5362, 70836.08
841.0183, 70859.27
841.5004, 71022.20
841.9825, 71187.76
842.4647, 71227.95
842.9468, 71062.78
843.4289, 70974.94
843.9110, 70976.59
844.3931, 71026.20
844.8752, 71110.82
845.3574, 71213.20
845.8395, 71239.44
846.3216, 71170.70
846.8037, 71081.72
847.2858, 71016.49
847.7679, 70978.42
848.2501, 70977.52
848.7322, 71046.40
849.2143, 71083.45
849.6964, 71032.76
850.1785, 70986.37
850.6606, 71042.16
851.1428, 71217.72
851.6249, 71337.65
852.1070, 71378.33
852.5891, 71399.65
853.0712, 71475.97
853.5533, 71578.98
854.0355, 71654.75
854.5176, 71682.69
854.9997, 71707.10
855.4818, 71727.54
855.9639, 71766.02
856.4460, 71853.96
856.9282, 72052.55
857.4103, 72150.77
857.8924, 72108.19
858.3745, 72038.16
858.8566, 72090.80
859.3387, 72239.31
859.8209, 72349.81
860.3030, 72395.32
860.7851, 72428.50
861.2672, 72483.51
861.7493, 72557.09
862.2314, 72644.05
862.7136, 72725.41
863.1957, 72857.55
863.6778, 73075.54
864.1599, 73311.97
864.6420, 73495.91
865.1241, 73619.29
865.6063, 73785.28
866.0884, 74010.20
866.5705, 74242.84
867.0526, 74415.51
867.5347, 74562.02
868.0168, 74740.36
868.4990, 74969.96
868.9811, 75212.85
869.4632, 75464.36
869.9453, 75720.83
870.4274, 75971.71
870.9095, 76191.16
871.3917, 76507.70
871.8738, 76953.03
872.3559, 77414.71
872.8380, 77749.63
873.3201, 77998.55
873.8022, 78281.27
874.2844, 78612.98
874.7665, 78995.23
875.2486, 79500.17
875.7307, 80010.36
876.2128, 80407.34
876.6949, 80558.69
877.1771, 80824.22
877.6592, 81251.15
878.1413, 81725.29
878.6234, 82156.32
879.1055, 82543.75
879.5876, 82859.49
880.0698, 83099.50
880.5519, 83304.16
881.0340, 83498.05
881.5161, 83686.10
881.9982, 83885.84
882.4803, 84128.64
882.9625, 84292.07
883.4446, 84329.12
883.9267, 84305.93
884.4088, 84263.48
884.8909, 84204.04
885.3730, 84104.77
885.8552, 83960.91
886.3373, 83794.29
886.8194, 83611.63
887.3015, 83422.59
887.7836, 83258.17
888.2657, 83127.45
888.7479, 82942.61
889.2300, 82642.97
889.7121, 82291.41
890.1942, 81914.94
890.6763, 81499.59
891.1584, 81172.00
891.6406, 80949.99
892.1227, 80745.42
892.6048, 80488.80
893.0869, 80198.14
893.5690, 79895.84
894.0511, 79583.07
894.5333, 79323.34
895.0154, 79186.91
895.4975, 79086.09
895.9796, 78964.24
896.4617, 78813.91
896.9438, 78655.08
897.4260, 78468.95
897.9081, 78311.42
898.3902, 78222.43
898.8723, 78190.94
899.3544, 78172.30
899.8365, 78164.49
900.3187, 78133.73
900.8008, 78000.93
901.2829, 77879.97
901.7650, 77873.08
902.2471, 77980.11
902.7292, 78091.06
903.2114, 78213.87
903.6935, 78302.36
904.1756, 78313.52
904.6577, 78274.24
905.1398, 78356.65
905.6219, 78552.33
906.1041, 78726.17
906.5862, 78754.96
907.0683, 78757.13
907.5504, 78870.16
908.0325, 79063.23
908.5146, 79204.83
908.9968, 79259.63
909.4789, 79247.48
909.9610, 79123.80
910.4431, 78952.55
910.9252, 78996.66
911.4073, 79260.45
911.8895, 79460.63
912.3716, 79457.58
912.8537, 79375.50
913.3358, 79364.28
913.8179, 79402.44
914.3000, 79438.77
914.7822, 79445.27
915.2643, 79462.38
915.7464, 79503.62
916.2285, 79559.36
916.7106, 79603.52
917.1927, 79629.54
917.6749, 79704.16
918.1570, 79856.64
918.6391, 80024.63
919.1212, 80117.15
919.6033, 80162.15
920.0854, 80214.26
920.5676, 80304.86
921.0497, 80378.54
921.5318, 80412.19
922.0139, 80422.13
922.4960, 80417.88
922.9781, 80386.34
923.4603, 80413.73
923.9424, 80518.11
924.4245, 80650.00
924.9066, 80739.72
925.3887, 80814.77
925.8708, 80931.34
926.3530, 81114.66
926.8351, 81280.85
927.3172, 81422.68
927.7993, 81510.23
928.2814, 81505.54
928.7635, 81365.38
929.2457, 81324.20
929.7278, 81393.82
930.2099, 81511.24
930.6920, 81638.20
931.1741, 81769.14
931.6563, 81907.30
932.1384, 82052.30
932.6205, 82157.68
933.1026, 82159.73
933.5847, 82152.31
934.0668, 82188.27
934.5490, 82267.95
935.0311, 82397.91
935.5132, 82597.84
935.9953, 82769.63
936.4774, 82806.98
936.9595, 82792.60
937.4417, 82952.35
937.9238, 83249.30
938.4059, 83510.20
938.8880, 83598.84
939.3701, 83668.63
939.8522, 83795.05
940.3344, 83962.87
940.8165, 84105.90
941.2986, 84211.77
941.7807, 84340.34
942.2628, 84528.75
942.7449, 84731.56
943.2271, 84828.31
943.7092, 84863.50
944.1913, 84956.52
944.6734, 85213.00
945.1555, 85475.92
945.6376, 85694.36
946.1198, 85874.68
946.6019, 86028.16
947.0840, 86139.75
947.5661, 86269.07
948.0482, 86424.74
948.5303, 86595.00
949.0125, 86770.34
949.4946, 86946.66
949.9767, 87112.84
950.4588, 87261.16
950.9409, 87417.63
951.4230, 87586.66
951.9052, 87778.77
952.3873, 88009.79
952.8694, 88304.66
953.3515, 88544.63
953.8336, 88719.86
954.3157, 88873.00
954.7979, 89028.82
955.2800, 89191.20
955.7621, 89371.73
956.2442, 89570.35
956.7263, 89760.31
957.2084, 89932.77
957.6906, 90086.96
958.1727, 90221.83
958.6548, 90336.09
959.1369, 90441.57
959.6190, 90538.56
960.1011, 90626.90
960.5833, 90709.47
961.0654, 90782.70
961.5475, 90822.23
962.0296, 90845.15
962.5117, 90910.66
962.9938, 91131.60
963.4760, 91298.57
963.9581, 91314.37
964.4402, 91238.57
964.9223, 91208.46
965.4044, 91230.93
965.8865, 91227.14
966.3687, 91166.40
966.8508, 91094.61
967.3329, 91066.80
967.8150, 91071.29
968.2971, 91090.09
968.7792, 91142.90
969.2614, 91167.49
969.7435, 91146.23
970.2256, 91098.10
970.7077, 91029.70
971.1898, 90939.88
971.6719, 90880.01
972.1541, 90853.55
972.6362, 90865.42
973.1183, 90955.26
973.6004, 91064.73
974.0825, 91116.34
974.5646, 91089.02
975.0468, 91102.46
975.5289, 91207.95
976.0110, 91317.38
976.4931, 91383.70
976.9752, 91414.86
977.4573, 91496.39
977.9395, 91623.69
978.4216, 91722.55
978.9037, 91722.90
979.3858, 91699.31
979.8679, 91724.34
980.3500, 91784.05
980.8322, 91809.91
981.3143, 91719.05
981.7964, 91735.81
982.2785, 91951.55
982.7606, 92246.48
983.2427, 92344.58
983.7249, 92288.13
984.2070, 92269.91
984.6891, 92361.59
985.1712, 92473.28
985.6533, 92535.98
986.1354, 92584.72
986.6176, 92665.75
987.0997, 92797.24
987.5818, 92925.20
988.0639, 93054.00
988.5460, 93166.26
989.0281, 93232.27
989.5103, 93272.46
989.9923, 93340.20
990.4744, 93441.37
990.9565, 93552.90
991.4387, 93680.45
991.9208, 93800.13
992.4029, 93882.16
992.8850, 93931.02
993.3671, 94078.95
993.8492, 94357.43
994.3314, 94548.38
994.8135, 94471.76
995.2956, 94301.58
995.7777, 94362.95
996.2598, 94578.63
996.7419, 94730.94
997.2241, 94594.38
997.7062, 94564.84
998.1883, 94806.89
998.6704, 95164.05
999.1525, 95349.97
999.6346, 95360.59
1000.117, 95443.98
1000.599, 95664.77
1001.081, 95902.54
1001.563, 96052.29
1002.045, 96137.45
1002.527, 96172.72
1003.009, 96109.97
1003.492, 96151.57
1003.974, 96355.75
1004.456, 96586.87
1004.938, 96750.07
1005.420, 96852.30
1005.902, 96968.22
1006.384, 97095.02
1006.866, 97206.73
1007.349, 97254.33
1007.831, 97308.19
1008.313, 97444.71
1008.795, 97642.84
1009.277, 97744.64
1009.759, 97706.78
1010.241, 97705.78
1010.723, 97809.33
1011.205, 97957.08
1011.688, 98041.59
1012.170, 98080.51
1012.652, 98109.35
1013.134, 98120.05
1013.616, 98162.24
1014.098, 98263.58
1014.580, 98402.36
1015.062, 98565.79
1015.544, 98760.58
1016.027, 98911.23
1016.509, 99007.45
1016.991, 99106.80
1017.473, 99268.48
1017.955, 99457.08
1018.437, 99626.40
1018.919, 99770.38
1019.401, 99943.15
1019.884, 100188.6
1020.366, 100412.7
1020.848, 100572.4
1021.330, 100688.0
1021.812, 100845.7
1022.294, 101036.3
1022.776, 101201.5
1023.258, 101296.5
1023.740, 101381.0
1024.223, 101513.5
1024.705, 101660.3
1025.187, 101750.7
1025.669, 101740.3
1026.151, 101793.5
1026.633, 101932.8
1027.115, 102117.4
1027.597, 102305.3
1028.080, 102500.7
1028.562, 102715.8
1029.044, 102954.3
1029.526, 103175.3
1030.008, 103364.3
1030.490, 103522.3
1030.972, 103631.0
1031.454, 103698.3
1031.937, 103886.5
1032.419, 104195.9
1032.901, 104491.4
1033.383, 104647.8
1033.865, 104791.8
1034.347, 105112.6
1034.829, 105521.1
1035.311, 105785.9
1035.793, 105795.9
1036.276, 105754.4
1036.758, 105654.2
1037.240, 105556.6
1037.722, 105563.5
1038.204, 105651.4
1038.686, 105740.0
1039.168, 105817.3
1039.650, 105889.7
1040.132, 105958.5
1040.615, 106027.4
1041.097, 106102.1
1041.579, 106182.2
1042.061, 106259.6
1042.543, 106335.0
1043.025, 106394.5
1043.507, 106468.3
1043.989, 106493.7
1044.472, 106311.1
1044.954, 106003.0
1045.436, 105815.6
1045.918, 105961.1
1046.400, 106051.5
1046.882, 106017.8
1047.364, 105914.8
1047.846, 105812.9
1048.328, 105718.1
1048.811, 105679.9
1049.293, 105721.9
1049.775, 105726.9
1050.257, 105547.1
1050.739, 105337.4
1051.221, 105230.2
1051.703, 105232.8
1052.185, 105306.9
1052.667, 105481.7
1053.150, 105584.0
1053.632, 105448.8
1054.114, 105214.2
1054.596, 105115.5
1055.078, 105121.2
1055.560, 105130.7
1056.042, 105096.7
1056.524, 105082.6
1057.007, 105122.5
1057.489, 105168.3
1057.971, 105136.9
1058.453, 105038.3
1058.935, 104942.1
1059.417, 104859.5
1059.899, 104793.8
1060.381, 104752.2
1060.864, 104725.8
1061.346, 104703.2
1061.828, 104679.9
1062.310, 104699.9
1062.792, 104779.4
1063.274, 104820.7
1063.756, 104744.3
1064.238, 104615.8
1064.720, 104553.2
1065.203, 104538.2
1065.685, 104523.7
1066.167, 104505.2
1066.649, 104469.1
1067.131, 104415.9
1067.613, 104345.5
1068.095, 104234.8
1068.577, 104097.3
1069.059, 104067.9
1069.542, 104176.9
1070.024, 104243.7
1070.506, 104046.0
1070.988, 103824.8
1071.470, 103784.5
1071.952, 103931.2
1072.434, 104046.7
1072.916, 104127.3
1073.398, 104189.8
1073.881, 104238.4
1074.363, 104273.0
1074.845, 104270.5
1075.327, 104254.3
1075.809, 104273.9
1076.291, 104419.6
1076.773, 104484.7
1077.255, 104410.3
1077.738, 104299.0
1078.220, 104250.3
1078.702, 104257.4
1079.184, 104311.4
1079.666, 104410.9
1080.148, 104479.4
1080.630, 104477.3
1081.112, 104421.6
1081.594, 104295.3
1082.077, 104122.3
1082.559, 104009.5
1083.041, 103967.4
1083.523, 103902.7
1084.005, 103767.2
1084.487, 103637.7
1084.969, 103640.5
1085.451, 103703.7
1085.933, 103712.8
1086.416, 103548.3
1086.898, 103539.7
1087.380, 103779.6
1087.862, 104006.5
1088.344, 103968.6
1088.826, 103753.7
1089.308, 103655.4
1089.790, 103659.4
1090.273, 103616.4
1090.755, 103314.6
1091.237, 103102.3
1091.719, 103178.5
1092.201, 103407.8
1092.683, 103497.8
1093.165, 103450.3
1093.647, 103373.5
1094.130, 103281.1
1094.612, 103209.7
1095.094, 103224.4
1095.576, 103258.9
1096.058, 103232.6
1096.540, 103117.3
1097.022, 103092.4
1097.504, 103194.0
1097.986, 103252.8
1098.469, 103125.8
1098.951, 102926.1
1099.433, 102868.3
1099.915, 102913.1
1100.397, 102953.6
1100.879, 102901.3
1101.361, 102918.9
1101.843, 103080.4
1102.325, 103246.3
1102.808, 103206.9
1103.290, 103005.9
1103.772, 102872.2
1104.254, 102830.8
1104.736, 102795.1
1105.218, 102713.6
1105.700, 102620.5
1106.182, 102536.7
1106.665, 102460.8
1107.147, 102369.7
1107.629, 102263.5
1108.111, 102188.6
1108.593, 102175.3
1109.075, 102175.5
1109.557, 102139.0
1110.039, 102085.8
1110.521, 102042.7
1111.004, 102008.2
1111.486, 102006.0
1111.968, 102052.1
1112.450, 102082.6
1112.932, 102021.4
1113.414, 101922.0
1113.896, 101909.7
1114.378, 101963.3
1114.860, 101972.9
1115.343, 101818.3
1115.825, 101720.3
1116.307, 101746.1
1116.789, 101821.2
1117.271, 101795.2
1117.753, 101699.7
1118.235, 101699.4
1118.717, 101832.4
1119.200, 101958.3
1119.682, 101999.1
1120.164, 101995.3
1120.646, 101975.5
1121.128, 101939.6
1121.610, 101858.3
1122.092, 101732.6
1122.574, 101629.4
1123.057, 101613.5
1123.539, 101585.1
1124.021, 101394.5
1124.503, 101152.1
1124.985, 101047.8
1125.467, 101175.9
1125.949, 101226.1
1126.431, 101186.4
1126.913, 101102.2
1127.396, 100958.9
1127.878, 100825.2
1128.360, 100840.1
1128.842, 100979.0
1129.324, 101061.6
1129.806, 101000.3
1130.288, 100934.4
1130.770, 100893.2
1131.252, 100850.3
1131.735, 100735.4
1132.217, 100580.9
1132.699, 100485.5
1133.181, 100469.0
1133.663, 100491.0
1134.145, 100605.8
1134.627, 100677.8
1135.109, 100617.3
1135.592, 100451.5
1136.074, 100373.6
1136.556, 100373.5
1137.038, 100351.3
1137.520, 100212.6
1138.002, 100108.8
1138.484, 100216.6
1138.966, 100368.8
1139.448, 100319.9
1139.931, 99991.91
1140.413, 99923.06
1140.895, 100149.7
1141.377, 100345.7
1141.859, 100170.4
1142.341, 99908.98
1142.823, 99828.24
1143.305, 99910.09
1143.787, 99993.46
1144.270, 100079.8
1144.752, 100118.0
1145.234, 100085.2
1145.716, 100034.2
1146.198, 100035.3
1146.680, 100065.0
1147.162, 100090.5
1147.644, 100105.5
1148.127, 100119.9
1148.609, 100148.8
1149.091, 100153.6
1149.573, 100115.7
1150.055, 100046.3
1150.537, 99951.18
1151.019, 99850.08
1151.501, 99796.20
1151.984, 99840.05
1152.466, 99880.70
1152.948, 99932.10
1153.430, 99928.96
1153.912, 99757.98
1154.394, 99453.88
1154.876, 99412.27
1155.358, 99609.13
1155.840, 99780.50
1156.323, 99742.45
1156.805, 99671.70
1157.287, 99679.62
1157.769, 99698.13
1158.251, 99575.02
1158.733, 99312.68
1159.215, 99208.98
1159.697, 99317.88
1160.179, 99449.05
1160.662, 99448.97
1161.144, 99407.75
1161.626, 99379.94
1162.108, 99373.91
1162.590, 99440.39
1163.072, 99592.88
1163.554, 99692.52
1164.036, 99681.02
1164.519, 99625.47
1165.001, 99569.19
1165.483, 99528.60
1165.965, 99531.22
1166.447, 99592.82
1166.929, 99639.78
1167.411, 99668.83
1167.893, 99689.41
1168.375, 99725.30
1168.858, 99743.20
1169.340, 99655.99
1169.822, 99513.61
1170.304, 99434.85
1170.786, 99515.71
1171.268, 99564.77
1171.750, 99570.89
1172.232, 99556.24
1172.714, 99538.68
1173.197, 99519.41
1173.679, 99498.95
1174.161, 99477.48
1174.643, 99456.52
1175.125, 99409.71
1175.607, 99397.92
1176.089, 99431.45
1176.571, 99505.87
1177.054, 99654.16
1177.536, 99831.73
1178.018, 99903.30
1178.500, 99829.31
1178.982, 99771.01
1179.464, 99837.21
1179.946, 99887.79
1180.428, 99855.75
1180.911, 99767.46
1181.393, 99698.18
1181.875, 99653.12
1182.357, 99656.18
1182.839, 99739.93
1183.321, 99822.77
1183.803, 99884.58
1184.285, 99914.39
1184.767, 99896.06
1185.250, 99832.46
1185.732, 99776.09
1186.214, 99731.34
1186.696, 99736.85
1187.178, 99839.95
1187.660, 99972.81
1188.142, 100139.6
1188.624, 100292.7
1189.106, 100356.5
1189.589, 100325.9
1190.071, 100309.7
1190.553, 100314.1
1191.035, 100328.4
1191.517, 100325.4
1191.999, 100344.1
1192.481, 100418.9
1192.963, 100537.1
1193.446, 100673.6
1193.928, 100835.0
1194.410, 100930.5
1194.892, 100938.4
1195.374, 100904.8
1195.856, 100833.3
1196.338, 100772.3
1196.820, 100774.6
1197.302, 100841.6
1197.785, 100917.3
1198.267, 101007.7
1198.749, 101067.3
1199.231, 101072.3
1199.713, 101060.4
1200.195, 101062.1
1200.677, 101075.1
1201.159, 101088.5
1201.641, 101083.4
1202.124, 101181.0
1202.606, 101400.0
1203.088, 101580.7
1203.570, 101570.2
1204.052, 101528.1
1204.534, 101666.7
1205.016, 101910.9
1205.498, 102111.2
1205.981, 102266.3
1206.463, 102328.9
1206.945, 102283.9
1207.427, 102216.5
1207.909, 102182.3
1208.391, 102179.9
1208.873, 102219.7
1209.355, 102291.7
1209.838, 102353.2
1210.320, 102384.4
1210.802, 102444.7
1211.284, 102548.5
1211.766, 102653.2
1212.248, 102702.6
1212.730, 102726.8
1213.212, 102758.6
1213.694, 102801.9
1214.177, 102879.3
1214.659, 103009.5
1215.141, 103125.5
1215.623, 103210.1
1216.105, 103281.0
1216.587, 103361.9
1217.069, 103448.2
1217.551, 103545.7
1218.033, 103666.1
1218.516, 103704.0
1218.998, 103622.7
1219.480, 103543.5
1219.962, 103501.3
1220.444, 103511.8
1220.926, 103635.6
1221.408, 103821.4
1221.890, 103972.6
1222.373, 104037.4
1222.855, 104145.4
1223.337, 104323.9
1223.819, 104485.0
1224.301, 104561.9
1224.783, 104592.2
1225.265, 104631.5
1225.747, 104682.3
1226.229, 104750.1
1226.712, 104842.6
1227.194, 104946.8
1227.676, 105068.7
1228.158, 105186.5
1228.640, 105275.7
1229.122, 105352.8
1229.604, 105447.7
1230.086, 105557.6
1230.568, 105669.5
1231.051, 105813.5
1231.533, 105887.9
1232.015, 105856.1
1232.497, 105824.0
1232.979, 105953.4
1233.461, 106144.9
1233.943, 106199.1
1234.425, 106123.6
1234.908, 106184.7
1235.390, 106519.9
1235.872, 106785.9
1236.354, 106904.1
1236.836, 106951.1
1237.318, 106972.2
1237.800, 107025.1
1238.282, 107243.6
1238.764, 107656.8
1239.247, 107924.6
1239.729, 107965.5
1240.211, 107979.6
1240.693, 108005.9
1241.175, 108082.7
1241.657, 108332.6
1242.139, 108649.7
1242.621, 108874.1
1243.104, 108950.5
1243.586, 109037.4
1244.068, 109158.5
1244.550, 109243.1
1245.032, 109235.9
1245.514, 109207.3
1245.996, 109272.2
1246.478, 109395.9
1246.960, 109518.9
1247.443, 109624.7
1247.925, 109746.1
1248.407, 109887.9
1248.889, 110019.2
1249.371, 110096.1
1249.853, 110165.1
1250.335, 110296.2
1250.817, 110467.2
1251.299, 110631.1
1251.782, 110775.6
1252.264, 110921.9
1252.746, 111071.6
1253.228, 111214.8
1253.710, 111387.0
1254.192, 111518.2
1254.674, 111476.1
1255.156, 111334.9
1255.639, 111318.1
1256.121, 111474.2
1256.603, 111632.7
1257.085, 111782.4
1257.567, 111922.1
1258.049, 112055.0
1258.531, 112173.3
1259.013, 112244.1
1259.495, 112292.4
1259.978, 112416.0
1260.460, 112617.8
1260.942, 112899.3
1261.424, 113281.4
1261.906, 113582.4
1262.388, 113486.9
1262.870, 113350.2
1263.352, 113525.2
1263.834, 113943.0
1264.317, 114203.8
1264.799, 114299.0
1265.281, 114408.0
1265.763, 114578.0
1266.245, 114716.2
1266.727, 114698.4
1267.209, 114658.2
1267.691, 114706.8
1268.174, 114830.7
1268.656, 114958.3
1269.138, 115092.3
1269.620, 115244.2
1270.102, 115426.8
1270.584, 115608.4
1271.066, 115819.2
1271.548, 115973.0
1272.031, 115987.7
1272.513, 115899.0
1272.995, 115914.7
1273.477, 116027.7
1273.959, 116192.8
1274.441, 116408.4
1274.923, 116631.9
1275.405, 116782.4
1275.887, 116996.8
1276.370, 117424.4
1276.852, 117984.6
1277.334, 118198.8
1277.816, 118145.7
1278.298, 118182.5
1278.780, 118554.5
1279.262, 118841.0
1279.744, 118870.5
1280.226, 118867.0
1280.709, 119017.0
1281.191, 119261.0
1281.673, 119344.8
1282.155, 119319.9
1282.637, 119355.1
1283.119, 119545.9
1283.601, 119774.2
1284.083, 120056.7
1284.566, 120310.1
1285.048, 120465.9
1285.530, 120543.1
1286.012, 120555.0
1286.494, 120525.9
1286.976, 120532.5
1287.458, 120587.1
1287.940, 120702.8
1288.422, 120892.0
1288.905, 121103.0
1289.387, 121313.4
1289.869, 121494.5
1290.351, 121586.2
1290.833, 121611.4
1291.315, 121676.0
1291.797, 121811.4
1292.279, 121893.8
1292.761, 121896.7
1293.244, 121928.1
1293.726, 122128.4
1294.208, 122375.1
1294.690, 122563.9
1295.172, 122693.7
1295.654, 122785.8
1296.136, 122828.2
1296.618, 122957.8
1297.101, 123200.1
1297.583, 123435.6
1298.065, 123565.4
1298.547, 123652.8
1299.029, 123713.1
1299.511, 123766.7
1299.993, 123898.1
1300.475, 124100.9
1300.958, 124222.6
1301.440, 124226.3
1301.922, 124219.2
1302.404, 124237.7
1302.886, 124310.8
1303.368, 124479.3
1303.850, 124682.3
1304.332, 124799.3
1304.814, 124859.9
##END=



