##NAMES=Lemoynite
##RRUFFID=R080106
##IDEAL CHEMISTRY=Na_2_CaZr^4+^_2_Si_10_O_26_&#183;5-6H_2_O
##LOCALITY=Mont Saint-Hilaire, Quebec, Canada
##OWNER=RRUFF
##SOURCE=William W. Pinch
##DESCRIPTION=Aggregates of cream-white, sub-parallel prismatic crystals
##STATUS=The identification of this mineral has been confirmed by single-crystal X-ray diffraction.
##URL=rruff.info/R080106
92.52344, 411.5348
93.00555, 410.2531
93.48767, 410.7459
93.96979, 420.9063
94.45190, 431.0605
94.93402, 439.7365
95.41614, 441.5194
95.89825, 438.6899
96.38037, 434.9855
96.86249, 430.5055
97.34460, 425.7566
97.82672, 421.3804
98.30884, 416.9081
98.79095, 412.1700
99.27307, 406.7794
99.75519, 400.8175
100.2373, 395.5666
100.7194, 391.3046
101.2015, 387.6011
101.6837, 383.8566
102.1658, 380.7972
102.6479, 379.1810
103.1300, 379.0667
103.6121, 379.3072
104.0942, 379.1086
104.5764, 378.6223
105.0585, 378.0751
105.5406, 377.5100
106.0227, 376.9130
106.5048, 376.2785
106.9869, 375.5901
107.4691, 374.6286
107.9512, 373.4435
108.4333, 371.9623
108.9154, 370.0304
109.3975, 367.3784
109.8796, 363.8482
110.3618, 360.5345
110.8439, 357.5927
111.3260, 354.7009
111.8081, 351.7918
112.2902, 348.8307
112.7723, 345.7303
113.2544, 342.2971
113.7366, 337.7451
114.2187, 334.4599
114.7008, 333.1909
115.1829, 332.6766
115.6650, 331.7828
116.1471, 330.0964
116.6293, 328.0112
117.1114, 326.4673
117.5935, 325.6712
118.0756, 324.9190
118.5577, 323.9528
119.0398, 322.8971
119.5220, 322.0410
120.0041, 321.5267
120.4862, 321.3123
120.9683, 321.1620
121.4504, 320.8857
121.9325, 320.9618
122.4147, 322.1118
122.8968, 324.4593
123.3789, 326.3500
123.8610, 326.6505
124.3431, 326.1269
124.8252, 325.3618
125.3074, 324.4660
125.7895, 323.5043
126.2716, 322.5639
126.7537, 321.4799
127.2358, 320.7662
127.7179, 320.9143
128.2001, 321.3869
128.6822, 321.4700
129.1643, 320.6890
129.6464, 319.1071
130.1285, 317.5653
130.6107, 315.7465
131.0928, 314.2807
131.5749, 313.5638
132.0570, 313.3697
132.5391, 313.1442
133.0212, 312.3424
133.5034, 310.7675
133.9855, 310.0768
134.4676, 310.8703
134.9497, 311.8710
135.4318, 312.3595
135.9139, 312.2747
136.3960, 312.0240
136.8782, 312.0611
137.3603, 312.4561
137.8424, 312.8108
138.3245, 312.8926
138.8066, 313.0023
139.2887, 313.6036
139.7709, 314.8915
140.2530, 316.2910
140.7351, 316.9365
141.2172, 316.9000
141.6993, 317.0412
142.1814, 317.8584
142.6636, 319.1771
143.1457, 320.3350
143.6278, 321.0112
144.1099, 321.6942
144.5920, 322.8278
145.0741, 324.4079
145.5563, 326.0964
146.0384, 327.5663
146.5205, 328.7728
147.0026, 330.1256
147.4847, 332.3394
147.9668, 334.2986
148.4490, 335.1502
148.9311, 334.7750
149.4132, 333.9872
149.8953, 334.0829
150.3774, 335.7121
150.8595, 336.9128
151.3417, 337.5934
151.8238, 337.8415
152.3059, 337.6676
152.7880, 337.0875
153.2701, 336.1871
153.7522, 335.1893
154.2344, 333.8886
154.7165, 332.7280
155.1986, 331.7379
155.6807, 330.8877
156.1628, 330.2100
156.6449, 329.7523
157.1271, 329.3795
157.6092, 328.5009
158.0913, 326.9344
158.5734, 325.1846
159.0555, 323.2617
159.5376, 321.2450
160.0198, 319.3558
160.5019, 317.7636
160.9840, 316.3681
161.4661, 314.8071
161.9482, 313.0887
162.4303, 311.2111
162.9125, 309.1380
163.3946, 306.8759
163.8767, 304.5460
164.3588, 302.0280
164.8409, 299.5715
165.3230, 297.5963
165.8052, 296.4067
166.2873, 295.5244
166.7694, 294.3598
167.2515, 292.8509
167.7336, 291.2495
168.2157, 289.5268
168.6979, 287.8230
169.1800, 286.2874
169.6621, 284.9496
170.1442, 283.8474
170.6263, 283.1835
171.1084, 283.5521
171.5906, 283.3752
172.0727, 281.8850
172.5548, 279.6751
173.0369, 277.5534
173.5190, 276.0064
174.0011, 274.9774
174.4833, 273.9964
174.9654, 273.1268
175.4475, 272.2374
175.9296, 271.2848
176.4117, 270.2935
176.8938, 269.3133
177.3760, 268.3950
177.8581, 267.5440
178.3402, 266.5236
178.8223, 264.8955
179.3044, 263.5404
179.7865, 262.9824
180.2687, 263.0282
180.7508, 263.0729
181.2329, 262.5975
181.7150, 261.5408
182.1971, 260.5849
182.6792, 259.5472
183.1614, 258.7381
183.6435, 258.5108
184.1256, 258.8105
184.6077, 259.0780
185.0898, 258.7644
185.5719, 257.8219
186.0541, 257.1364
186.5362, 257.0253
187.0183, 257.0035
187.5004, 256.5019
187.9825, 255.4285
188.4646, 254.4350
188.9468, 254.3253
189.4289, 254.8654
189.9110, 255.0937
190.3931, 254.3398
190.8752, 253.2854
191.3573, 253.0475
191.8395, 253.8847
192.3216, 255.0490
192.8037, 256.1333
193.2858, 257.1096
193.7679, 257.8731
194.2500, 258.2422
194.7322, 258.3470
195.2143, 258.6137
195.6964, 259.1035
196.1785, 259.6884
196.6606, 260.2262
197.1427, 260.7827
197.6249, 261.5050
198.1070, 262.5693
198.5891, 263.9292
199.0712, 265.1217
199.5533, 266.0970
200.0354, 266.9301
200.5176, 267.7016
200.9997, 268.3612
201.4818, 268.8030
201.9639, 268.9563
202.4460, 268.8239
202.9281, 268.3639
203.4103, 267.0529
203.8924, 265.8800
204.3745, 265.2356
204.8566, 265.0006
205.3387, 264.8399
205.8208, 264.4735
206.3030, 263.8903
206.7851, 263.1816
207.2672, 262.1152
207.7493, 261.1524
208.2314, 260.4343
208.7135, 259.9849
209.1957, 259.8090
209.6778, 259.9427
210.1599, 260.4435
210.6420, 260.8072
211.1241, 261.0518
211.6062, 261.1735
212.0884, 260.9004
212.5705, 260.3841
213.0526, 260.2590
213.5347, 261.1599
214.0168, 263.2422
214.4989, 265.1241
214.9811, 267.1434
215.4632, 268.7376
215.9453, 269.3100
216.4274, 268.9094
216.9095, 268.3588
217.3916, 268.3426
217.8737, 268.8971
218.3559, 269.4508
218.8380, 270.2817
219.3201, 270.9319
219.8022, 270.9166
220.2843, 270.2018
220.7664, 269.3106
221.2486, 268.6854
221.7307, 268.2318
222.2128, 267.5694
222.6949, 266.5277
223.1770, 265.3094
223.6591, 264.1653
224.1413, 263.1226
224.6234, 261.9998
225.1055, 260.4613
225.5876, 258.7638
226.0697, 257.4142
226.5518, 256.7414
227.0340, 256.3900
227.5161, 255.8311
227.9982, 255.0022
228.4803, 254.1771
228.9624, 253.5484
229.4445, 253.0172
229.9267, 252.4389
230.4088, 251.7081
230.8909, 250.9526
231.3730, 250.3923
231.8551, 249.9938
232.3372, 249.9022
232.8194, 250.3869
233.3015, 251.1158
233.7836, 251.6828
234.2657, 251.8640
234.7478, 251.8810
235.2299, 252.2713
235.7121, 253.2638
236.1942, 254.1822
236.6763, 254.8277
237.1584, 255.3114
237.6405, 255.7232
238.1227, 256.0884
238.6048, 256.4590
239.0869, 256.9619
239.5690, 257.6199
240.0511, 258.3947
240.5332, 259.2556
241.0154, 260.2142
241.4975, 261.3510
241.9796, 262.7061
242.4617, 264.0909
242.9438, 264.9882
243.4259, 265.0076
243.9081, 265.1315
244.3902, 265.4820
244.8723, 265.9686
245.3544, 266.6029
245.8365, 267.3788
246.3186, 268.0916
246.8008, 268.2639
247.2829, 267.4918
247.7650, 266.7062
248.2471, 265.9407
248.7292, 265.1864
249.2113, 264.4925
249.6935, 263.8612
250.1756, 263.1583
250.6577, 262.0994
251.1398, 260.1791
251.6219, 258.6436
252.1040, 257.9199
252.5862, 257.3452
253.0683, 256.2579
253.5504, 254.4921
254.0325, 252.4519
254.5146, 250.7988
254.9967, 249.8006
255.4789, 248.7552
255.9610, 247.5360
256.4431, 246.3499
256.9252, 245.3989
257.4073, 244.7234
257.8894, 244.1885
258.3716, 243.6335
258.8537, 243.1132
259.3358, 242.3792
259.8179, 241.1647
260.3000, 239.8943
260.7821, 238.9899
261.2643, 238.5091
261.7464, 238.1232
262.2285, 237.4668
262.7106, 236.4604
263.1927, 235.4934
263.6748, 234.3027
264.1570, 233.3246
264.6391, 232.9816
265.1212, 233.3011
265.6033, 233.9844
266.0854, 234.9202
266.5675, 236.0941
267.0497, 236.6335
267.5318, 235.9560
268.0139, 235.0250
268.4960, 234.5714
268.9781, 234.6354
269.4602, 234.9273
269.9424, 235.3079
270.4245, 235.7487
270.9066, 236.0705
271.3887, 236.2377
271.8708, 236.3109
272.3529, 236.3135
272.8351, 236.2515
273.3172, 236.1549
273.7993, 235.9589
274.2814, 235.7772
274.7635, 235.9156
275.2456, 236.7000
275.7278, 237.4490
276.2099, 237.6062
276.6920, 237.2378
277.1741, 236.9137
277.6562, 237.0422
278.1383, 237.2680
278.6205, 236.8600
279.1026, 235.4971
279.5847, 234.1848
280.0668, 233.6790
280.5489, 233.8563
281.0310, 233.9795
281.5132, 233.6998
281.9953, 233.3504
282.4774, 233.4627
282.9595, 234.1316
283.4416, 234.6936
283.9237, 234.6915
284.4059, 234.2330
284.8880, 233.7444
285.3701, 233.2574
285.8522, 232.8756
286.3343, 232.6531
286.8164, 232.5852
287.2986, 232.7302
287.7807, 233.3221
288.2628, 234.1788
288.7449, 234.6329
289.2270, 234.3781
289.7091, 234.1053
290.1913, 234.5175
290.6734, 235.4264
291.1555, 236.1615
291.6376, 236.3592
292.1197, 236.1657
292.6018, 235.8545
293.0840, 235.3152
293.5661, 234.9583
294.0482, 235.3190
294.5303, 236.0279
295.0124, 236.3846
295.4945, 235.8679
295.9767, 234.9723
296.4588, 234.6513
296.9409, 235.0803
297.4230, 235.4828
297.9051, 235.2929
298.3872, 234.8928
298.8694, 234.7399
299.3515, 235.0165
299.8336, 235.4987
300.3157, 235.9055
300.7978, 236.2265
301.2799, 236.5472
301.7621, 236.8496
302.2442, 237.1969
302.7263, 237.6785
303.2084, 238.3302
303.6905, 238.9998
304.1726, 239.5713
304.6548, 240.0451
305.1369, 240.3571
305.6190, 240.4041
306.1011, 240.3428
306.5832, 240.2455
307.0653, 240.1250
307.5475, 240.0896
308.0296, 240.2714
308.5117, 240.6502
308.9938, 241.0087
309.4759, 241.4891
309.9580, 241.7136
310.4402, 241.3880
310.9223, 240.6070
311.4044, 239.7296
311.8865, 238.9482
312.3686, 238.2515
312.8507, 237.6024
313.3329, 237.0872
313.8150, 236.4578
314.2971, 235.4616
314.7792, 234.2762
315.2613, 233.2117
315.7434, 232.3538
316.2256, 231.7333
316.7077, 231.5251
317.1898, 231.9589
317.6719, 232.1513
318.1540, 231.4209
318.6361, 230.3598
319.1183, 229.6364
319.6004, 229.5211
320.0825, 229.5901
320.5646, 229.1571
321.0467, 228.0894
321.5288, 227.3736
322.0110, 227.6691
322.4931, 228.2434
322.9752, 228.5671
323.4573, 228.5575
323.9394, 228.3734
324.4215, 228.1078
324.9037, 227.7646
325.3858, 227.4621
325.8679, 227.1864
326.3500, 227.0045
326.8321, 227.0483
327.3142, 227.2669
327.7964, 227.3619
328.2785, 226.9538
328.7606, 226.2009
329.2427, 225.9227
329.7248, 226.4162
330.2069, 226.9544
330.6891, 227.1258
331.1712, 227.0171
331.6533, 226.7916
332.1354, 226.4635
332.6175, 226.0949
333.0996, 225.7879
333.5818, 225.5156
334.0639, 225.3898
334.5460, 225.6984
335.0281, 226.1059
335.5102, 226.1888
335.9923, 225.7455
336.4745, 225.1638
336.9566, 224.9174
337.4387, 225.0282
337.9208, 225.0979
338.4029, 224.8338
338.8850, 224.6018
339.3671, 224.8535
339.8492, 225.6636
340.3314, 226.4028
340.8135, 226.5076
341.2956, 226.0838
341.7777, 225.8105
342.2598, 225.9231
342.7419, 226.0423
343.2241, 225.7881
343.7062, 225.2316
344.1883, 224.7304
344.6704, 224.4129
345.1525, 224.2744
345.6346, 224.4321
346.1168, 225.0639
346.5989, 225.4353
347.0810, 224.7031
347.5631, 223.3630
348.0452, 222.2383
348.5273, 221.5604
349.0095, 221.1654
349.4916, 220.9629
349.9737, 220.9601
350.4558, 220.8542
350.9379, 220.4137
351.4200, 219.8413
351.9022, 219.4862
352.3843, 219.4438
352.8664, 219.4014
353.3485, 218.9142
353.8306, 218.1931
354.3127, 218.1866
354.7949, 219.4443
355.2770, 221.0292
355.7591, 221.6099
356.2412, 221.2073
356.7233, 221.1015
357.2054, 222.0505
357.6876, 223.4847
358.1697, 224.5030
358.6518, 224.9668
359.1339, 225.1889
359.6160, 225.3608
360.0981, 225.4993
360.5803, 225.6893
361.0624, 225.7757
361.5445, 226.0426
362.0266, 226.9093
362.5087, 228.2865
362.9908, 229.4612
363.4730, 230.0276
363.9551, 230.1059
364.4372, 230.1095
364.9193, 229.8582
365.4014, 229.8269
365.8835, 230.4610
366.3657, 231.4277
366.8478, 232.0090
367.3299, 231.9227
367.8120, 231.5536
368.2941, 231.5248
368.7762, 231.9356
369.2584, 232.2171
369.7405, 232.2826
370.2226, 232.1899
370.7047, 231.9336
371.1868, 231.5302
371.6689, 231.1502
372.1511, 230.9782
372.6332, 231.0251
373.1153, 230.8276
373.5974, 230.2871
374.0795, 229.6282
374.5616, 228.9777
375.0438, 228.2982
375.5259, 227.4366
376.0080, 226.2873
376.4901, 224.9637
376.9722, 223.8776
377.4543, 223.1875
377.9365, 222.5257
378.4186, 221.8063
378.9007, 221.1169
379.3828, 220.6453
379.8649, 220.4177
380.3470, 220.1488
380.8292, 219.4075
381.3113, 217.9285
381.7934, 216.7560
382.2755, 215.7669
382.7576, 215.1395
383.2397, 215.2283
383.7219, 215.8275
384.2040, 216.3367
384.6861, 216.2922
385.1682, 215.7167
385.6503, 214.9393
386.1324, 213.3176
386.6146, 212.2243
387.0967, 212.3332
387.5788, 212.9709
388.0609, 213.2616
388.5430, 212.8331
389.0251, 212.0161
389.5073, 211.4903
389.9894, 211.4789
390.4715, 211.2872
390.9536, 210.6806
391.4357, 210.0575
391.9178, 209.6078
392.4000, 209.3830
392.8821, 209.4027
393.3642, 209.7910
393.8463, 210.5695
394.3284, 210.9529
394.8105, 210.6538
395.2927, 210.2638
395.7748, 209.8580
396.2569, 209.5253
396.7390, 209.4076
397.2211, 209.6078
397.7032, 209.9959
398.1854, 210.2726
398.6675, 210.3917
399.1496, 210.5460
399.6317, 210.7241
400.1138, 211.0020
400.5959, 211.5303
401.0781, 212.3239
401.5602, 213.0525
402.0423, 213.3296
402.5244, 213.2037
403.0065, 213.1890
403.4886, 213.2235
403.9708, 213.5787
404.4529, 214.5270
404.9350, 215.9148
405.4171, 217.3375
405.8992, 218.7458
406.3813, 220.0193
406.8635, 220.9582
407.3456, 221.5459
407.8277, 221.9383
408.3098, 222.0407
408.7919, 222.0802
409.2740, 222.3869
409.7562, 222.9421
410.2383, 223.8678
410.7204, 225.5395
411.2025, 227.6672
411.6846, 229.4215
412.1667, 230.5880
412.6489, 231.3711
413.1310, 231.9171
413.6131, 232.2381
414.0952, 232.5899
414.5773, 232.8919
415.0594, 233.3277
415.5416, 234.1946
416.0237, 235.4418
416.5058, 236.6020
416.9879, 237.3974
417.4700, 237.8403
417.9521, 238.0140
418.4343, 237.5317
418.9164, 237.2860
419.3985, 237.7531
419.8806, 238.5345
420.3627, 238.9378
420.8448, 238.7481
421.3270, 238.5059
421.8091, 239.0987
422.2912, 241.1330
422.7733, 242.2000
423.2554, 241.6978
423.7375, 240.8358
424.2197, 240.1222
424.7018, 239.6680
425.1839, 239.5285
425.6660, 239.7712
426.1481, 240.3352
426.6302, 240.8148
427.1124, 241.2045
427.5945, 241.4997
428.0766, 241.4600
428.5587, 241.4472
429.0408, 241.9893
429.5229, 243.1889
430.0051, 244.4338
430.4872, 244.7210
430.9693, 243.6958
431.4514, 243.2007
431.9335, 243.8717
432.4156, 244.5719
432.8978, 244.9611
433.3799, 245.0134
433.8620, 244.7776
434.3441, 244.2739
434.8262, 243.5121
435.3083, 242.4299
435.7905, 240.8293
436.2726, 239.4691
436.7547, 238.8498
437.2368, 238.4666
437.7189, 237.8603
438.2010, 236.9304
438.6832, 236.0034
439.1653, 235.3044
439.6474, 234.8326
440.1295, 234.6366
440.6116, 234.8703
441.0938, 235.1000
441.5759, 234.8995
442.0580, 234.3860
442.5401, 233.8894
443.0222, 233.5006
443.5043, 233.1710
443.9865, 232.9589
444.4686, 232.8254
444.9507, 232.3758
445.4328, 231.2991
445.9149, 229.9202
446.3970, 229.0593
446.8792, 228.9875
447.3613, 228.5803
447.8434, 227.3398
448.3255, 225.6874
448.8076, 224.1325
449.2897, 222.7556
449.7719, 221.3639
450.2540, 219.7576
450.7361, 217.9155
451.2182, 216.2077
451.7003, 214.8186
452.1824, 213.3436
452.6646, 211.4449
453.1467, 209.3931
453.6288, 207.7143
454.1109, 206.6360
454.5930, 205.8453
455.0751, 204.6763
455.5573, 202.7315
456.0394, 201.1929
456.5215, 200.1582
457.0036, 199.3725
457.4857, 198.8271
457.9678, 198.4123
458.4500, 197.8696
458.9321, 196.9712
459.4142, 195.7889
459.8963, 194.7226
460.3784, 193.7246
460.8605, 192.9476
461.3427, 192.5933
461.8248, 192.3550
462.3069, 191.8823
462.7890, 191.0892
463.2711, 190.3006
463.7532, 189.8813
464.2354, 189.8053
464.7175, 189.7563
465.1996, 189.7623
465.6817, 189.6877
466.1638, 189.3220
466.6459, 188.8005
467.1281, 188.4772
467.6102, 188.5786
468.0923, 188.8288
468.5744, 188.9375
469.0565, 188.9168
469.5386, 188.8763
470.0208, 188.8314
470.5029, 188.8224
470.9850, 188.9589
471.4671, 189.2831
471.9492, 189.4953
472.4313, 189.4333
472.9135, 189.2734
473.3956, 189.1591
473.8777, 189.1213
474.3598, 189.2246
474.8419, 189.5451
475.3240, 190.0552
475.8062, 190.4695
476.2883, 190.9623
476.7704, 191.1685
477.2525, 190.8007
477.7346, 190.2001
478.2167, 189.7010
478.6989, 189.4178
479.1810, 189.3913
479.6631, 189.7235
480.1452, 190.5198
480.6273, 191.1205
481.1094, 191.3700
481.5916, 191.5760
482.0737, 191.8716
482.5558, 192.1833
483.0379, 192.3289
483.5200, 192.1905
484.0021, 192.0014
484.4843, 192.2549
484.9664, 193.0616
485.4485, 193.8148
485.9306, 194.6099
486.4127, 195.1174
486.8948, 194.9615
487.3770, 194.2495
487.8591, 193.5956
488.3412, 193.3306
488.8233, 193.3643
489.3054, 193.6335
489.7875, 194.1799
490.2697, 194.5192
490.7518, 194.3198
491.2339, 193.7912
491.7160, 193.3940
492.1981, 193.1849
492.6802, 192.9485
493.1624, 192.5634
493.6445, 192.1091
494.1266, 191.7104
494.6087, 191.3858
495.0908, 191.0637
495.5729, 190.6632
496.0551, 190.1882
496.5372, 189.8340
497.0193, 189.6122
497.5014, 189.4767
497.9835, 189.5506
498.4656, 189.6539
498.9478, 189.4429
499.4299, 188.8317
499.9120, 188.2055
500.3941, 188.1705
500.8762, 188.9379
501.3583, 189.4527
501.8405, 189.5700
502.3226, 189.5787
502.8047, 189.5710
503.2868, 189.5276
503.7689, 189.3519
504.2510, 188.9592
504.7331, 188.5688
505.2152, 188.5942
505.6974, 189.0783
506.1795, 189.7401
506.6616, 190.8963
507.1437, 191.8418
507.6258, 191.8642
508.1079, 191.1357
508.5901, 190.6211
509.0722, 190.9324
509.5543, 191.6559
510.0364, 192.2350
510.5185, 192.6648
511.0006, 192.9774
511.4828, 193.0967
511.9649, 193.1887
512.4470, 193.6299
512.9291, 194.5045
513.4113, 195.3634
513.8934, 195.8235
514.3755, 196.3697
514.8576, 197.6313
515.3397, 199.5824
515.8218, 201.6420
516.3040, 203.4497
516.7861, 204.9673
517.2682, 205.8962
517.7503, 205.5691
518.2324, 205.4722
518.7145, 205.5239
519.1967, 205.9944
519.6788, 207.3199
520.1609, 209.4559
520.6430, 211.7506
521.1251, 213.5292
521.6072, 214.8196
522.0894, 216.2523
522.5715, 217.8108
523.0536, 219.5589
523.5357, 221.6404
524.0178, 223.8417
524.4999, 225.9013
524.9821, 227.7460
525.4642, 229.5579
525.9463, 231.3813
526.4284, 233.2829
526.9105, 235.7239
527.3926, 238.9121
527.8748, 242.1645
528.3569, 244.9104
528.8390, 247.2859
529.3211, 249.8039
529.8032, 252.6308
530.2853, 255.4658
530.7675, 258.0935
531.2496, 260.6123
531.7317, 263.2607
532.2138, 266.1221
532.6959, 268.9413
533.1780, 271.3545
533.6602, 273.2525
534.1423, 275.4513
534.6244, 278.1907
535.1065, 280.9321
535.5886, 283.5041
536.0707, 285.9288
536.5529, 288.2887
537.0350, 290.5981
537.5171, 292.7687
537.9992, 294.6593
538.4813, 296.2960
538.9634, 297.5049
539.4456, 298.0705
539.9277, 298.4042
540.4098, 298.8557
540.8919, 299.2001
541.3740, 298.9813
541.8561, 297.9909
542.3383, 296.4368
542.8204, 294.5160
543.3025, 292.2376
543.7846, 289.6681
544.2667, 286.7752
544.7488, 283.6969
545.2310, 280.6328
545.7131, 277.5607
546.1952, 274.0639
546.6773, 269.4215
547.1594, 264.9714
547.6415, 261.9829
548.1237, 259.8751
548.6058, 257.0328
549.0879, 252.8049
549.5700, 247.9229
550.0521, 243.5413
550.5342, 239.6629
551.0164, 236.3891
551.4985, 234.4508
551.9806, 232.3029
552.4627, 228.8042
552.9448, 224.6599
553.4269, 221.3114
553.9091, 219.4831
554.3912, 218.3137
554.8733, 216.1889
555.3554, 212.8858
555.8375, 210.1096
556.3196, 208.3227
556.8018, 206.8455
557.2839, 205.2030
557.7660, 203.4836
558.2481, 201.9562
558.7302, 200.6846
559.2123, 199.6884
559.6945, 199.2990
560.1766, 199.2980
560.6587, 198.5827
561.1408, 196.6702
561.6229, 194.4356
562.1050, 192.9698
562.5872, 192.4247
563.0693, 191.7166
563.5514, 190.8020
564.0335, 189.7581
564.5156, 188.4014
564.9977, 186.9949
565.4799, 186.0664
565.9620, 185.8186
566.4441, 185.8208
566.9262, 185.3438
567.4083, 184.1932
567.8904, 183.3501
568.3726, 182.9250
568.8547, 182.7174
569.3368, 182.9453
569.8189, 183.2736
570.3010, 183.1018
570.7831, 182.1317
571.2653, 181.0017
571.7474, 180.5280
572.2295, 180.6212
572.7116, 180.5186
573.1937, 180.0471
573.6758, 179.4958
574.1580, 179.0867
574.6401, 178.7962
575.1222, 178.5280
575.6043, 178.1311
576.0864, 177.9163
576.5685, 178.2497
577.0507, 178.8073
577.5328, 179.0282
578.0149, 178.7801
578.4970, 178.3221
578.9791, 177.8831
579.4612, 177.4498
579.9434, 177.3805
580.4255, 178.1782
580.9076, 178.7527
581.3897, 178.7021
581.8718, 178.4375
582.3539, 178.4501
582.8361, 178.8320
583.3182, 179.2416
583.8003, 179.2142
584.2824, 178.8548
584.7645, 178.9837
585.2466, 179.7352
585.7288, 180.6031
586.2108, 181.3738
586.6929, 182.1006
587.1750, 182.8846
587.6572, 183.7847
588.1393, 184.5074
588.6214, 184.7058
589.1035, 184.7569
589.5856, 185.2046
590.0677, 186.0653
590.5499, 186.9672
591.0320, 187.6820
591.5141, 188.2446
591.9962, 188.7696
592.4783, 189.0315
592.9604, 189.5858
593.4426, 190.6247
593.9247, 191.8000
594.4068, 192.9883
594.8889, 194.0999
595.3710, 194.9812
595.8531, 195.4873
596.3353, 195.7826
596.8174, 196.3130
597.2995, 197.1563
597.7816, 197.7642
598.2637, 197.8761
598.7458, 197.8582
599.2280, 198.1001
599.7101, 198.5275
600.1922, 198.7347
600.6743, 198.4366
601.1564, 198.0031
601.6385, 197.8750
602.1207, 197.8723
602.6028, 197.4359
603.0849, 196.3730
603.5670, 194.9262
604.0491, 193.3776
604.5313, 191.7049
605.0134, 190.0651
605.4955, 188.5673
605.9776, 186.9678
606.4597, 185.1610
606.9418, 183.2164
607.4240, 181.1909
607.9061, 179.1237
608.3882, 177.1545
608.8703, 175.4602
609.3524, 174.0328
609.8345, 172.7388
610.3167, 171.6358
610.7988, 170.5327
611.2809, 169.3015
611.7630, 168.0338
612.2451, 166.8741
612.7272, 165.8766
613.2094, 164.8002
613.6915, 163.3588
614.1736, 161.8740
614.6557, 160.8149
615.1378, 160.1588
615.6199, 159.5155
616.1021, 158.6275
616.5842, 157.6514
617.0663, 157.0704
617.5484, 157.4156
618.0305, 157.2341
618.5126, 155.8639
618.9948, 154.6287
619.4769, 154.5325
619.9590, 155.1698
620.4411, 155.5213
620.9232, 155.0814
621.4053, 154.1042
621.8875, 152.6946
622.3696, 150.8743
622.8517, 150.0061
623.3338, 150.7327
623.8159, 151.6582
624.2980, 151.5559
624.7802, 150.7057
625.2623, 149.9994
625.7444, 149.5854
626.2265, 149.2670
626.7086, 148.9201
627.1907, 148.6258
627.6729, 148.5986
628.1550, 148.8281
628.6371, 148.9260
629.1192, 148.5124
629.6013, 147.6732
630.0834, 147.1458
630.5656, 147.2093
631.0477, 147.1172
631.5298, 146.5071
632.0119, 145.9191
632.4940, 145.8578
632.9761, 146.2505
633.4583, 146.5459
633.9404, 146.3933
634.4225, 145.9752
634.9046, 145.5143
635.3867, 145.0208
635.8688, 144.6238
636.3510, 144.3200
636.8331, 144.2436
637.3152, 144.6766
637.7973, 145.7017
638.2794, 146.2600
638.7615, 146.0385
639.2437, 145.6865
639.7258, 145.5457
640.2079, 145.4089
640.6900, 144.8836
641.1721, 143.9140
641.6542, 142.9097
642.1364, 142.2630
642.6185, 141.9712
643.1006, 142.1171
643.5827, 143.0336
644.0648, 143.6458
644.5469, 143.2141
645.0291, 142.5299
645.5112, 142.3448
645.9933, 142.7076
646.4754, 143.0086
646.9575, 142.9209
647.4396, 142.6762
647.9218, 142.5042
648.4039, 142.3989
648.8860, 142.2908
649.3681, 142.1509
649.8502, 141.9999
650.3323, 141.8609
650.8145, 141.7184
651.2966, 141.6621
651.7787, 141.7448
652.2608, 141.8483
652.7429, 142.0313
653.2250, 142.1715
653.7072, 142.0917
654.1893, 141.7551
654.6714, 141.3452
655.1535, 140.9368
655.6356, 140.5933
656.1177, 140.5336
656.5999, 140.7736
657.0820, 141.2747
657.5641, 142.2441
658.0462, 143.2578
658.5283, 143.3859
659.0104, 142.4330
659.4926, 141.7968
659.9747, 141.8649
660.4568, 142.1217
660.9389, 142.3001
661.4210, 142.4059
661.9031, 142.4733
662.3853, 142.5213
662.8674, 142.6372
663.3495, 143.0448
663.8316, 143.7909
664.3137, 144.0110
664.7958, 143.3191
665.2780, 142.8023
665.7601, 142.9420
666.2422, 143.5193
666.7243, 144.5126
667.2064, 146.0214
667.6885, 146.9715
668.1707, 146.3609
668.6528, 145.2642
669.1349, 144.9490
669.6170, 145.3237
670.0991, 145.6264
670.5812, 145.4904
671.0634, 145.2274
671.5455, 145.4153
672.0276, 146.2371
672.5097, 146.8113
672.9918, 147.1848
673.4739, 147.2424
673.9561, 146.5937
674.4382, 145.7583
674.9203, 145.4322
675.4024, 145.7890
675.8845, 146.3284
676.3666, 146.7187
676.8488, 146.9823
677.3309, 147.1306
677.8130, 147.1673
678.2951, 147.2811
678.7772, 147.6284
679.2593, 147.9722
679.7415, 147.8334
680.2236, 146.9296
680.7057, 146.4201
681.1878, 146.6929
681.6699, 146.9317
682.1520, 146.7402
682.6342, 146.2845
683.1163, 145.8262
683.5984, 145.4469
684.0805, 145.1047
684.5626, 144.7287
685.0447, 144.3421
685.5269, 144.0629
686.0090, 143.8916
686.4911, 143.8514
686.9732, 144.0802
687.4553, 144.3322
687.9374, 144.1361
688.4196, 143.4351
688.9017, 142.9101
689.3838, 142.7289
689.8659, 142.6893
690.3480, 142.7919
690.8301, 142.9161
691.3123, 142.8160
691.7944, 142.4363
692.2765, 142.0661
692.7586, 142.1003
693.2407, 142.4917
693.7228, 142.5292
694.2050, 142.0453
694.6871, 141.6609
695.1692, 141.6821
695.6513, 141.8380
696.1334, 141.8716
696.6155, 141.7769
697.0977, 141.5509
697.5798, 141.0228
698.0619, 140.5219
698.5440, 139.9418
699.0261, 140.3166
699.5082, 140.4750
699.9904, 140.4286
700.4725, 139.5641
700.9546, 139.7561
701.4367, 139.5246
701.9188, 139.2758
702.4009, 139.6165
702.8831, 138.8710
703.3652, 139.2023
703.8473, 139.1037
704.3294, 139.2019
704.8115, 138.8741
705.2936, 138.6778
705.7758, 138.9077
706.2579, 138.9016
706.7400, 138.5248
707.2221, 138.6355
707.7042, 137.8751
708.1863, 137.8791
708.6685, 138.2128
709.1506, 137.8574
709.6327, 137.9759
710.1148, 137.9139
710.5969, 137.0316
711.0790, 137.5759
711.5612, 137.5031
712.0433, 136.7971
712.5254, 137.2924
713.0075, 136.6736
713.4896, 136.4525
713.9717, 136.5307
714.4539, 137.2636
714.9360, 137.2873
715.4181, 136.8473
715.9002, 136.7660
716.3823, 137.1440
716.8644, 137.2508
717.3466, 136.4663
717.8287, 135.1280
718.3108, 134.5150
718.7929, 135.2551
719.2750, 135.5322
719.7571, 134.7971
720.2393, 134.1123
720.7214, 134.1571
721.2035, 134.6036
721.6856, 134.7549
722.1677, 134.3396
722.6498, 133.8391
723.1320, 133.6697
723.6141, 133.6976
724.0962, 133.6143
724.5783, 133.4116
725.0604, 133.3888
725.5425, 133.7612
726.0247, 134.2423
726.5068, 134.2082
726.9889, 133.3741
727.4710, 132.8948
727.9531, 133.0270
728.4352, 133.2157
728.9174, 133.4048
729.3995, 133.4869
729.8816, 133.2428
730.3637, 132.6446
730.8458, 132.1636
731.3279, 132.2206
731.8101, 132.5557
732.2922, 132.8009
732.7743, 132.9419
733.2564, 132.9064
733.7385, 132.6331
734.2206, 132.4319
734.7028, 132.7668
735.1849, 133.7055
735.6670, 134.1533
736.1491, 133.6003
736.6312, 133.2000
737.1133, 133.2576
737.5955, 133.4511
738.0776, 133.4261
738.5597, 133.2286
739.0418, 133.2728
739.5239, 133.9989
740.0060, 134.7882
740.4882, 134.8115
740.9703, 134.3076
741.4524, 134.0014
741.9345, 134.0439
742.4166, 134.2353
742.8987, 134.4272
743.3809, 134.6164
743.8630, 134.7883
744.3451, 134.9490
744.8272, 135.0790
745.3093, 135.1096
745.7914, 135.1762
746.2736, 135.3799
746.7557, 135.6673
747.2378, 135.9336
747.7199, 136.1503
748.2020, 136.3191
748.6841, 136.3900
749.1663, 136.4373
749.6484, 136.5714
750.1305, 136.8056
750.6126, 137.1760
751.0947, 137.7187
751.5768, 138.2963
752.0590, 138.6565
752.5411, 138.7566
753.0232, 138.8473
753.5053, 138.9909
753.9874, 139.0383
754.4695, 138.7287
754.9517, 138.4353
755.4338, 138.6843
755.9159, 139.4993
756.3980, 140.1086
756.8801, 139.8899
757.3622, 139.5240
757.8444, 139.8501
758.3265, 140.5247
758.8086, 140.5998
759.2907, 139.8690
759.7728, 139.0847
760.2549, 139.0309
760.7371, 139.5300
761.2192, 139.4045
761.7013, 138.2778
762.1834, 137.5595
762.6655, 137.9604
763.1476, 138.3483
763.6298, 137.7641
764.1119, 136.5778
764.5940, 135.8421
765.0761, 135.9446
765.5582, 136.1701
766.0403, 136.2695
766.5225, 136.2472
767.0046, 136.0490
767.4867, 135.7251
767.9688, 135.4278
768.4509, 135.2321
768.9330, 135.1233
769.4152, 135.1203
769.8973, 135.2318
770.3794, 135.1567
770.8615, 134.7791
771.3436, 134.5169
771.8257, 134.5984
772.3079, 134.8640
772.7900, 135.1090
773.2721, 135.3403
773.7542, 135.4685
774.2363, 135.2518
774.7184, 135.1827
775.2006, 135.7930
775.6827, 136.5576
776.1648, 136.6893
776.6469, 136.1336
777.1290, 135.5255
777.6111, 135.3964
778.0933, 135.4884
778.5754, 135.1871
779.0575, 134.5070
779.5396, 133.8291
780.0217, 133.1732
780.5038, 132.7367
780.9860, 132.7975
781.4681, 133.1754
781.9502, 133.0694
782.4323, 132.0275
782.9144, 131.2590
783.3965, 131.0138
783.8787, 130.8589
784.3608, 130.4558
784.8429, 129.9937
785.3250, 129.9246
785.8071, 130.3942
786.2892, 130.7788
786.7714, 130.5089
787.2535, 129.8132
787.7356, 128.9307
788.2177, 127.9559
788.6998, 127.4929
789.1819, 127.8074
789.6641, 128.2786
790.1462, 128.1144
790.6283, 127.3191
791.1104, 126.8335
791.5925, 126.8883
792.0746, 126.8687
792.5568, 126.4322
793.0389, 126.0923
793.5210, 126.4224
794.0031, 127.1758
794.4852, 127.4734
794.9673, 126.8828
795.4495, 126.1266
795.9316, 125.5469
796.4137, 125.1272
796.8958, 124.8840
797.3779, 124.7851
797.8600, 124.7129
798.3422, 124.6050
798.8243, 124.5274
799.3064, 124.6683
799.7885, 125.0465
800.2706, 124.9955
800.7527, 124.3124
801.2349, 123.8251
801.7170, 123.9917
802.1991, 124.3994
802.6812, 124.5228
803.1633, 124.3712
803.6454, 124.0301
804.1276, 123.2191
804.6097, 122.5742
805.0918, 122.4240
805.5739, 122.4977
806.0560, 122.4983
806.5381, 122.4277
807.0203, 122.5242
807.5024, 123.0126
807.9845, 123.4665
808.4666, 123.0581
808.9487, 122.0857
809.4308, 121.7967
809.9130, 122.3453
810.3951, 123.0524
810.8772, 123.6086
811.3593, 123.8893
811.8414, 123.5567
812.3235, 122.2578
812.8057, 121.6732
813.2878, 122.5001
813.7699, 123.1773
814.2520, 123.2099
814.7341, 122.9484
815.2162, 122.7301
815.6984, 122.5836
816.1805, 122.3914
816.6626, 121.9503
817.1447, 121.6064
817.6268, 121.7336
818.1089, 122.0758
818.5911, 122.2249
819.0732, 122.1399
819.5553, 122.0261
820.0374, 122.0247
820.5195, 122.0357
821.0016, 121.7668
821.4838, 121.2007
821.9659, 121.0114
822.4480, 121.3235
822.9301, 121.7696
823.4122, 122.2558
823.8943, 122.6901
824.3765, 122.9209
824.8586, 122.9458
825.3407, 122.7738
825.8228, 122.0514
826.3049, 121.5611
826.7870, 121.7812
827.2692, 122.2242
827.7513, 122.3273
828.2334, 122.1039
828.7155, 122.0168
829.1976, 122.4049
829.6797, 122.8646
830.1619, 122.9076
830.6440, 122.6794
831.1261, 122.5229
831.6082, 122.4749
832.0903, 122.4183
832.5724, 122.2874
833.0546, 122.0938
833.5367, 121.8196
834.0188, 121.4105
834.5009, 121.3187
834.9830, 121.7234
835.4651, 122.0857
835.9473, 122.2332
836.4294, 122.2253
836.9115, 122.1142
837.3936, 121.9037
837.8757, 121.6696
838.3578, 121.2586
838.8400, 121.0324
839.3221, 121.2374
839.8042, 121.6107
840.2863, 122.0233
840.7684, 122.3565
841.2505, 122.2985
841.7327, 121.6316
842.2148, 121.0096
842.6969, 121.3503
843.1790, 122.3325
843.6611, 123.1899
844.1432, 123.8433
844.6254, 123.8876
845.1075, 123.0760
845.5896, 122.0495
846.0717, 121.6689
846.5538, 121.9381
847.0359, 122.1787
847.5181, 122.4614
848.0002, 122.5711
848.4823, 122.4400
848.9644, 122.1404
849.4465, 121.5512
849.9286, 120.8359
850.4108, 120.4968
850.8929, 120.7897
851.3750, 121.0632
851.8571, 120.9872
852.3392, 120.8906
852.8214, 121.1437
853.3035, 121.5646
853.7856, 121.7283
854.2677, 121.5144
854.7498, 121.2166
855.2319, 121.0653
855.7141, 121.0537
856.1962, 121.2741
856.6783, 121.6643
857.1604, 121.7016
857.6425, 121.2304
858.1246, 120.8106
858.6068, 120.9239
859.0889, 121.4361
859.5710, 121.8747
860.0531, 122.3372
860.5352, 122.4535
861.0173, 121.9325
861.4995, 121.4305
861.9816, 121.2007
862.4637, 121.1745
862.9458, 121.3224
863.4279, 121.6565
863.9100, 121.8792
864.3922, 121.6990
864.8743, 121.6367
865.3564, 122.2714
865.8385, 122.9891
866.3206, 122.8694
866.8027, 122.0308
867.2849, 121.4735
867.7670, 121.8471
868.2491, 122.4277
868.7312, 122.1912
869.2133, 121.4208
869.6954, 120.8557
870.1776, 120.5684
870.6597, 120.6416
871.1418, 121.1498
871.6239, 121.7371
872.1060, 121.9024
872.5881, 121.6480
873.0703, 121.3500
873.5524, 120.9450
874.0345, 120.6563
874.5166, 120.5040
874.9987, 120.5141
875.4808, 120.8113
875.9630, 121.2884
876.4451, 121.6333
876.9272, 121.8376
877.4093, 121.8882
877.8914, 121.6470
878.3735, 121.3903
878.8557, 121.2474
879.3378, 121.2183
879.8199, 121.2877
880.3020, 121.4486
880.7841, 121.6783
881.2662, 121.9301
881.7484, 122.2736
882.2305, 122.9550
882.7126, 123.7628
883.1947, 124.1480
883.6768, 124.0593
884.1589, 123.8716
884.6411, 123.8288
885.1232, 123.8060
885.6053, 123.4296
886.0874, 122.6741
886.5695, 122.6638
887.0516, 123.6849
887.5338, 124.3125
888.0159, 123.8077
888.4980, 122.9931
888.9801, 122.8651
889.4622, 123.4221
889.9443, 123.8483
890.4265, 124.2161
890.9086, 124.3505
891.3907, 124.0132
891.8728, 123.6532
892.3549, 123.5642
892.8370, 123.6510
893.3192, 123.7039
893.8013, 123.6745
894.2834, 123.6339
894.7655, 123.6533
895.2476, 123.6408
895.7297, 123.4233
896.2119, 123.1581
896.6940, 123.1370
897.1761, 123.3871
897.6582, 123.7136
898.1403, 124.0208
898.6224, 124.2162
899.1046, 124.0440
899.5867, 123.6161
900.0688, 123.4760
900.5509, 123.6656
901.0330, 123.7553
901.5151, 123.5125
901.9973, 123.2486
902.4794, 123.4856
902.9615, 124.2249
903.4436, 124.4453
903.9257, 123.9309
904.4078, 123.4562
904.8900, 123.1237
905.3721, 122.9461
905.8542, 122.9709
906.3363, 123.1590
906.8184, 123.3983
907.3005, 123.7420
907.7827, 124.0009
908.2648, 123.9436
908.7469, 124.0308
909.2290, 124.6755
909.7111, 125.4813
910.1932, 125.8940
910.6754, 125.8992
911.1575, 126.0084
911.6396, 126.5733
912.1217, 127.1757
912.6038, 127.4658
913.0859, 127.5884
913.5681, 127.7464
914.0502, 127.9389
914.5323, 128.0001
915.0144, 127.8654
915.4965, 127.8831
915.9786, 128.6145
916.4607, 129.8178
916.9428, 130.5788
917.4249, 130.9358
917.9070, 131.4006
918.3892, 132.1066
918.8713, 132.8433
919.3534, 133.4343
919.8355, 133.9437
920.3176, 134.5779
920.7997, 135.4231
921.2819, 136.0668
921.7640, 136.3234
922.2461, 136.7365
922.7282, 137.6269
923.2103, 138.6859
923.6924, 139.4686
924.1746, 140.0000
924.6567, 140.8088
925.1388, 142.2276
925.6209, 143.4827
926.1030, 144.2250
926.5851, 144.9584
927.0673, 146.0520
927.5494, 147.3683
928.0315, 148.6367
928.5136, 149.7850
928.9957, 150.8978
929.4778, 151.9123
929.9600, 153.0134
930.4421, 154.5509
930.9242, 156.1916
931.4063, 157.3284
931.8884, 158.0056
932.3705, 158.8554
932.8527, 160.2872
933.3348, 161.6773
933.8169, 162.1113
934.2990, 161.8933
934.7811, 161.7880
935.2632, 161.8304
935.7454, 162.0755
936.2275, 162.5447
936.7096, 162.6957
937.1917, 161.9581
937.6738, 160.5327
938.1559, 159.1752
938.6381, 157.9197
939.1202, 156.4521
939.6023, 154.6200
940.0844, 153.0194
940.5665, 152.0740
941.0486, 151.3618
941.5308, 150.1809
942.0129, 148.4556
942.4950, 147.0473
942.9771, 145.9953
943.4592, 145.1973
943.9413, 144.7902
944.4235, 144.4751
944.9056, 144.0587
945.3877, 143.5969
945.8698, 143.1945
946.3519, 142.8268
946.8340, 142.7005
947.3162, 143.0684
947.7983, 143.4619
948.2804, 143.7225
948.7625, 143.8188
949.2446, 143.5775
949.7267, 143.1338
950.2089, 143.0029
950.6910, 143.4768
951.1731, 144.1011
951.6552, 144.5801
952.1373, 144.9632
952.6194, 145.2297
953.1016, 145.4657
953.5837, 145.8472
954.0658, 146.4285
954.5479, 147.2154
955.0300, 148.3085
955.5121, 149.4302
955.9943, 150.1114
956.4764, 150.3785
956.9585, 150.1544
957.4406, 149.4957
957.9227, 149.2250
958.4048, 149.7391
958.8870, 150.5743
959.3691, 151.1181
959.8512, 151.4171
960.3333, 151.8777
960.8154, 152.5357
961.2975, 153.1035
961.7797, 153.5733
962.2618, 153.7649
962.7439, 153.4309
963.2260, 152.8999
963.7081, 152.9441
964.1902, 153.7885
964.6724, 153.9971
965.1545, 153.2224
965.6366, 152.3842
966.1187, 151.5077
966.6008, 150.8184
967.0829, 150.6483
967.5651, 150.7923
968.0472, 150.6633
968.5293, 150.3688
969.0114, 149.4314
969.4935, 147.2090
969.9756, 145.0047
970.4578, 143.4398
970.9399, 142.1498
971.4220, 140.7820
971.9041, 139.2764
972.3862, 137.5725
972.8683, 135.4164
973.3505, 133.6000
973.8326, 132.7381
974.3147, 132.1926
974.7968, 131.5650
975.2789, 130.7667
975.7610, 129.6002
976.2432, 128.1188
976.7253, 126.8652
977.2074, 126.2502
977.6895, 125.9224
978.1716, 125.6398
978.6537, 125.3111
979.1359, 124.6554
979.6180, 123.7887
980.1001, 123.2220
980.5822, 123.1248
981.0643, 123.0861
981.5464, 122.6762
982.0286, 122.0510
982.5107, 121.5729
982.9928, 121.2147
983.4749, 120.8831
983.9570, 120.5545
984.4391, 120.0199
984.9213, 119.1460
985.4034, 118.2896
985.8855, 118.0626
986.3676, 118.3430
986.8497, 117.9614
987.3318, 116.8309
987.8140, 116.1283
988.2961, 116.1869
988.7782, 116.1762
989.2603, 115.5014
989.7424, 114.4962
990.2245, 113.8479
990.7067, 113.5991
991.1888, 113.3701
991.6709, 113.1869
992.1530, 112.9416
992.6351, 112.4945
993.1172, 112.1560
993.5994, 112.2914
994.0815, 112.6845
994.5636, 112.6587
995.0457, 112.0553
995.5278, 111.4787
996.0099, 110.8535
996.4921, 110.3471
996.9742, 110.0796
997.4563, 109.8807
997.9384, 109.6628
998.4205, 109.3928
998.9026, 108.9506
999.3848, 108.1686
999.8669, 107.6157
1000.349, 107.4737
1000.831, 107.5012
1001.313, 107.8645
1001.795, 108.1413
1002.277, 107.7520
1002.760, 106.8187
1003.242, 106.0698
1003.724, 105.8198
1004.206, 105.5754
1004.688, 104.9480
1005.170, 104.3989
1005.652, 104.5206
1006.134, 104.8335
1006.617, 104.4253
1007.099, 103.3417
1007.581, 102.6666
1008.063, 103.1263
1008.545, 103.6732
1009.027, 103.3236
1009.509, 102.7118
1009.991, 102.6598
1010.473, 102.9402
1010.956, 102.8991
1011.438, 102.4306
1011.920, 102.0280
1012.402, 102.0642
1012.884, 102.2233
1013.366, 102.1139
1013.848, 101.8491
1014.330, 101.6110
1014.813, 101.4211
1015.295, 101.3179
1015.777, 101.2975
1016.259, 101.1940
1016.741, 100.7888
1017.223, 100.3847
1017.705, 100.7695
1018.187, 101.6191
1018.669, 101.6371
1019.152, 100.8546
1019.634, 100.3588
1020.116, 100.5512
1020.598, 101.0254
1021.080, 101.4131
1021.562, 101.6886
1022.044, 101.7170
1022.526, 101.5293
1023.008, 101.4961
1023.491, 101.6540
1023.973, 101.5932
1024.455, 101.1107
1024.937, 100.6490
1025.419, 100.7564
1025.901, 101.2790
1026.383, 101.4617
1026.865, 101.2678
1027.348, 101.3502
1027.830, 101.8449
1028.312, 102.1229
1028.794, 101.8133
1029.276, 101.4655
1029.758, 101.8215
1030.240, 102.7596
1030.722, 103.2715
1031.204, 103.2342
1031.687, 103.3203
1032.169, 103.6189
1032.651, 103.9745
1033.133, 104.3415
1033.615, 104.6805
1034.097, 104.9174
1034.579, 105.0658
1035.061, 105.3349
1035.544, 105.7530
1036.026, 106.2245
1036.508, 106.7943
1036.990, 107.3214
1037.472, 107.7636
1037.954, 108.0959
1038.436, 108.2123
1038.918, 108.1294
1039.401, 108.3790
1039.883, 109.2224
1040.365, 109.9047
1040.847, 110.2863
1041.329, 110.6261
1041.811, 111.0052
1042.293, 111.4311
1042.775, 111.9711
1043.257, 112.6160
1043.740, 113.0401
1044.222, 113.0875
1044.704, 113.1567
1045.186, 113.1576
1045.668, 113.3132
1046.150, 114.1111
1046.632, 114.8686
1047.114, 114.5032
1047.596, 113.1161
1048.079, 112.4191
1048.561, 113.3329
1049.043, 113.7638
1049.525, 113.1444
1050.007, 112.3648
1050.489, 111.8048
1050.971, 111.3467
1051.453, 110.8289
1051.936, 110.2511
1052.418, 109.7186
1052.900, 109.3502
1053.382, 108.8496
1053.864, 108.0044
1054.346, 107.1847
1054.828, 106.5686
1055.310, 106.0923
1055.792, 105.7157
1056.275, 105.4090
1056.757, 105.0521
1057.239, 104.5176
1057.721, 104.1424
1058.203, 104.2970
1058.685, 104.3172
1059.167, 103.7573
1059.649, 102.9171
1060.131, 102.0280
1060.614, 101.1928
1061.096, 100.6573
1061.578, 100.5419
1062.060, 100.5924
1062.542, 100.9766
1063.024, 101.2138
1063.506, 100.8815
1063.988, 100.3581
1064.471, 100.0692
1064.953, 100.0094
1065.435, 99.97066
1065.917, 99.91379
1066.399, 99.80988
1066.881, 99.70191
1067.363, 99.48119
1067.845, 98.93834
1068.328, 98.35792
1068.810, 98.03601
1069.292, 97.96582
1069.774, 98.04493
1070.256, 98.29263
1070.738, 98.41459
1071.220, 98.11178
1071.702, 97.84946
1072.184, 97.87864
1072.667, 98.10123
1073.149, 98.63783
1073.631, 99.22954
1074.113, 99.16197
1074.595, 98.17510
1075.077, 97.45198
1075.559, 97.81995
1076.041, 98.24075
1076.523, 98.13920
1077.006, 97.80693
1077.488, 97.42384
1077.970, 97.08705
1078.452, 96.97583
1078.934, 97.13096
1079.416, 97.17025
1079.898, 96.73972
1080.380, 96.38447
1080.862, 96.38963
1081.345, 96.59340
1081.827, 97.06717
1082.309, 97.54077
1082.791, 97.47997
1083.273, 96.82375
1083.755, 96.21561
1084.237, 95.94958
1084.719, 95.75535
1085.202, 95.50539
1085.684, 95.27761
1086.166, 95.11459
1086.648, 95.02715
1087.130, 95.04801
1087.612, 95.16530
1088.094, 95.28064
1088.576, 95.40177
1089.058, 95.42692
1089.541, 95.22855
1090.023, 95.00696
1090.505, 94.92761
1090.987, 94.89560
1091.469, 94.74992
1091.951, 94.51036
1092.433, 94.33942
1092.915, 94.26032
1093.397, 93.51736
1093.880, 93.98086
1094.362, 94.22801
1094.844, 94.27039
1095.326, 93.49466
1095.808, 93.77535
1096.290, 93.63268
1096.772, 93.47264
1097.254, 93.90202
1097.737, 93.24521
1098.219, 93.66524
1098.701, 93.65544
1099.183, 93.84237
1099.665, 93.60330
1100.147, 93.49582
1100.629, 93.81445
1101.111, 93.89714
1101.594, 93.60898
1102.076, 93.80840
1102.558, 93.13678
1103.040, 93.22952
1103.522, 93.80171
1104.004, 93.78576
1104.486, 93.82834
1104.968, 93.93229
1105.450, 94.07852
1105.932, 94.26518
1106.415, 94.51111
1106.897, 94.95182
1107.379, 95.25254
1107.861, 95.27601
1108.343, 95.22665
1108.825, 95.17567
1109.307, 95.13241
1109.789, 95.05785
1110.272, 94.97960
1110.754, 95.08463
1111.236, 95.49074
1111.718, 95.88420
1112.200, 96.39151
1112.682, 96.68710
1113.164, 96.46729
1113.646, 96.15438
1114.129, 96.06712
1114.611, 96.20155
1115.093, 96.58758
1115.575, 97.47337
1116.057, 97.82500
1116.539, 97.12402
1117.021, 96.67726
1117.503, 96.91857
1117.985, 97.26569
1118.468, 97.28681
1118.950, 97.19582
1119.432, 97.46993
1119.914, 98.17504
1120.396, 98.41862
1120.878, 97.95652
1121.360, 97.55172
1121.842, 97.28312
1122.324, 97.10435
1122.807, 97.03117
1123.289, 96.98463
1123.771, 96.84641
1124.253, 96.63898
1124.735, 96.55354
1125.217, 96.62286
1125.699, 96.74716
1126.181, 97.06955
1126.664, 96.92212
1127.146, 95.88504
1127.628, 94.83016
1128.110, 94.62099
1128.592, 94.91995
1129.074, 94.65983
1129.556, 93.74020
1130.038, 93.45718
1130.521, 93.95426
1131.003, 93.99724
1131.485, 93.23315
1131.967, 92.48656
1132.449, 92.31158
1132.931, 92.33898
1133.413, 91.89855
1133.895, 91.10996
1134.377, 90.90403
1134.859, 91.25347
1135.342, 91.31130
1135.824, 90.97104
1136.306, 90.75277
1136.788, 90.88805
1137.270, 91.05888
1137.752, 90.92960
1138.234, 90.59315
1138.716, 89.46764
1139.199, 89.84765
1139.681, 90.01148
1140.163, 89.97057
1140.645, 89.11151
1141.127, 89.30891
1141.609, 89.08291
1142.091, 88.83958
1142.573, 89.18562
1143.056, 88.44534
1143.538, 88.78207
1144.020, 88.68894
1144.502, 88.79257
1144.984, 88.47019
1145.466, 88.27941
1145.948, 88.51472
1146.430, 88.51408
1146.912, 87.79197
1147.395, 87.80957
1147.877, 88.02558
1148.359, 87.90823
1148.841, 87.73856
1149.323, 88.06826
1149.805, 88.63724
1150.287, 88.75147
1150.769, 88.30753
1151.251, 87.80748
1151.734, 87.40845
1152.216, 87.28908
1152.698, 87.89890
1153.180, 88.49524
1153.662, 88.38528
1154.144, 87.93416
1154.626, 87.53587
1155.108, 87.29148
1155.591, 87.33598
1156.073, 87.77634
1156.555, 88.04121
1157.037, 87.85726
1157.519, 87.55647
1158.001, 87.08054
1158.483, 86.72975
1158.965, 86.81863
1159.448, 87.14350
1159.930, 87.35917
1160.412, 87.43717
1160.894, 87.48976
1161.376, 87.50309
1161.858, 87.53158
1162.340, 87.70784
1162.822, 87.72491
1163.304, 87.01333
1163.786, 86.56582
1164.269, 86.42562
1164.751, 86.95938
1165.233, 87.27676
1165.715, 87.38934
1166.197, 86.68383
1166.679, 87.03474
1167.161, 86.96229
1167.643, 86.87247
1168.126, 87.37613
1168.608, 87.23563
1169.090, 87.45452
1169.572, 87.90826
1170.054, 88.52213
1170.536, 88.65575
1171.018, 88.28284
1171.500, 88.00216
1171.983, 87.85774
1172.465, 88.01550
1172.947, 88.55025
1173.429, 89.01266
1173.911, 89.01444
1174.393, 88.76443
1174.875, 88.58877
1175.357, 88.50929
1175.839, 88.71674
1176.322, 89.09888
1176.804, 89.10796
1177.286, 88.73161
1177.768, 88.48898
1178.250, 88.61361
1178.732, 88.83951
1179.214, 88.90029
1179.696, 88.94165
1180.178, 89.23421
1180.661, 89.58849
1181.143, 89.63053
1181.625, 89.51065
1182.107, 89.71508
1182.589, 90.22876
1183.071, 90.42738
1183.553, 89.96915
1184.035, 89.33714
1184.518, 88.56426
1185.000, 88.03765
1185.482, 88.28113
1185.964, 88.70696
1186.446, 88.64388
1186.928, 88.25760
1187.410, 88.04027
1187.892, 88.07829
1188.375, 88.18729
1188.857, 88.43106
1189.339, 88.58138
1189.821, 88.60100
1190.303, 88.50561
1190.785, 88.12421
1191.267, 87.77588
1191.749, 87.95394
1192.231, 88.43849
1192.714, 88.27721
1193.196, 87.02387
1193.678, 86.58733
1194.160, 87.02806
1194.642, 87.25240
1195.124, 87.27195
1195.606, 86.47340
1196.088, 86.73126
1196.570, 86.56577
1197.053, 86.38279
1197.535, 86.78933
1198.017, 86.10977
1198.499, 86.50696
1198.981, 85.62895
1199.463, 86.03294
1199.945, 86.22054
1200.427, 86.20335
1200.910, 85.36787
1201.392, 85.58900
1201.874, 85.38676
1202.356, 85.16718
1202.838, 85.53698
1203.320, 84.82069
1203.802, 85.18115
1204.284, 85.11179
1204.766, 85.23917
1205.249, 84.94036
1205.731, 84.77334
1206.213, 85.03240
1206.695, 85.05555
1207.177, 85.39305
1207.659, 85.05118
1208.141, 84.55466
1208.623, 84.27827
1209.105, 84.21296
1209.588, 84.51490
1210.070, 84.95506
1210.552, 84.81927
1211.034, 83.86593
1211.516, 83.28220
1211.998, 83.50921
1212.480, 83.89194
1212.962, 84.58981
1213.445, 85.03591
1213.927, 84.73528
1214.409, 84.19083
1214.891, 83.93125
1215.373, 83.89474
1215.855, 83.81150
1216.337, 83.68649
1216.819, 83.46162
1217.302, 83.05200
1217.784, 82.92843
1218.266, 83.27631
1218.748, 83.47796
1219.230, 83.16992
1219.712, 82.64757
1220.194, 82.25037
1220.676, 82.00459
1221.158, 82.03160
1221.641, 82.28806
1222.123, 82.58067
1222.605, 82.87717
1223.087, 83.12632
1223.569, 83.29926
1224.051, 83.27526
1224.533, 82.97625
1225.015, 82.67892
1225.497, 82.67717
1225.980, 82.81219
1226.462, 83.04087
1226.944, 83.18232
1227.426, 82.79228
1227.908, 82.21035
1228.390, 82.19201
1228.872, 82.78681
1229.354, 83.41094
1229.837, 84.04581
1230.319, 84.16415
1230.801, 83.08176
1231.283, 82.10477
1231.765, 81.91792
1232.247, 81.92527
1232.729, 81.54543
1233.211, 81.09171
1233.693, 81.17529
1234.176, 81.77744
1234.658, 82.34425
1235.140, 82.92993
1235.622, 83.32230
1236.104, 83.50331
1236.586, 83.53410
1237.068, 83.44707
1237.550, 83.08761
1238.032, 82.26782
1238.515, 81.45908
1238.997, 81.57922
1239.479, 82.30692
1239.961, 82.25542
1240.443, 81.61691
1240.925, 81.21386
1241.407, 81.11264
1241.889, 81.25012
1242.372, 81.55027
1242.854, 81.64271
1243.336, 81.24881
1243.818, 80.89310
1244.300, 81.17185
1244.782, 81.61409
1245.264, 81.89992
1245.746, 81.96807
1246.229, 81.52849
1246.711, 80.92294
1247.193, 80.94516
1247.675, 81.63033
1248.157, 81.92237
1248.639, 81.26418
1249.121, 80.80397
1249.603, 80.82308
1250.085, 80.95513
1250.568, 81.13062
1251.050, 81.32474
1251.532, 81.54238
1252.014, 81.75127
1252.496, 81.90742
1252.978, 82.00636
1253.460, 82.01746
1253.942, 81.95108
1254.424, 81.56934
1254.907, 80.83556
1255.389, 80.56404
1255.871, 80.97245
1256.353, 81.52537
1256.835, 81.89592
1257.317, 82.02805
1257.799, 81.79165
1258.281, 81.33102
1258.764, 80.68616
1259.246, 80.13952
1259.728, 80.39330
1260.210, 81.11343
1260.692, 81.42718
1261.174, 81.24688
1261.656, 81.13836
1262.138, 81.36089
1262.620, 81.46836
1263.103, 81.06168
1263.585, 80.75484
1264.067, 81.01645
1264.549, 81.26484
1265.031, 80.95433
1265.513, 80.46990
1265.995, 80.45168
1266.477, 80.76862
1266.959, 80.68387
1267.442, 80.02725
1267.924, 79.66582
1268.406, 79.62722
1268.888, 79.77295
1269.370, 80.09420
1269.852, 80.48766
1270.334, 80.91497
1270.816, 81.24033
1271.299, 81.31870
1271.781, 81.19941
1272.263, 80.86504
1272.745, 80.46574
1273.227, 80.41818
1273.709, 80.59898
1274.191, 80.68657
1274.673, 80.65515
1275.156, 80.63534
1275.638, 80.66750
1276.120, 80.65603
1276.602, 80.44146
1277.084, 80.35918
1277.566, 80.17873
1278.048, 80.67521
1278.530, 80.95528
1279.012, 81.03059
1279.495, 80.28778
1279.977, 80.60139
1280.459, 80.49162
1280.941, 80.36451
1281.423, 80.82680
1281.905, 80.20298
1282.387, 80.65593
1282.869, 80.67905
1283.351, 80.89889
1283.834, 80.69275
1284.316, 80.61819
1284.798, 80.24337
1285.280, 80.14234
1285.762, 81.69487
1286.244, 84.95550
##END=



