##NAMES=Lepidocrocite
##RRUFFID=R050454
##IDEAL CHEMISTRY=Fe^3+^O(OH)
##LOCALITY=Malvern, Chester County, Pennsylvania, USA
##OWNER=RRUFF
##SOURCE=University of Arizona Mineral Museum
##DESCRIPTION=Aggregate of red-brown flattened and platy crystals
##STATUS=The identification of this mineral has been confirmed by X-ray diffraction and chemical analysis
##URL=rruff.info/R050454
##MEASURED CHEMISTRY=Fe^3+^_0.99_O(OH)
92.93628, -0.1850128
93.41840, -0.3807405
93.90051, -0.6457778
94.38263, -0.9191558
94.86475, -1.109309
95.34686, -1.216491
95.82898, -1.265940
96.31110, -1.249006
96.79321, -1.173634
97.27533, -1.130023
97.75745, -1.160395
98.23956, -1.235501
98.72168, -1.223927
99.20380, -1.112225
99.68591, -0.9566224
100.1680, -0.8178636
100.6501, -0.7039518
101.1323, -0.5716702
101.6144, -0.3917217
102.0965, -0.1539837
102.5786, -4.5444942E-03
103.0607, 1.2294630E-02
103.5428, -1.9012431E-02
104.0250, 4.9347319E-02
104.5071, 0.2704015
104.9892, 0.5006707
105.4713, 0.6699540
105.9534, 0.6819867
106.4355, 0.8473570
106.9177, 1.248615
107.3998, 1.806285
107.8819, 2.287538
108.3640, 2.728614
108.8461, 3.058965
109.3282, 3.247566
109.8104, 2.922784
110.2925, 2.876268
110.7746, 3.264483
111.2567, 4.029776
111.7388, 4.738875
112.2209, 5.349129
112.7031, 5.880718
113.1852, 6.354091
113.6673, 6.693074
114.1494, 7.043996
114.6315, 7.430771
115.1136, 7.857037
115.5958, 8.353318
116.0779, 9.057255
116.5600, 9.798530
117.0421, 10.38376
117.5242, 10.55496
118.0063, 10.70187
118.4885, 11.04669
118.9706, 11.63463
119.4527, 12.27944
119.9348, 12.88377
120.4169, 13.47108
120.8990, 14.09468
121.3812, 14.82236
121.8633, 15.57592
122.3454, 16.32486
122.8275, 17.15398
123.3096, 17.76468
123.7917, 17.74519
124.2739, 17.23166
124.7560, 16.72376
125.2381, 16.52668
125.7202, 16.54947
126.2023, 16.63419
126.6844, 16.72501
127.1666, 16.89009
127.6487, 17.25659
128.1308, 17.81813
128.6129, 18.43386
129.0950, 19.05943
129.5771, 19.66598
130.0593, 20.14798
130.5414, 20.44419
131.0235, 20.60396
131.5056, 20.65080
131.9877, 20.48478
132.4698, 20.34344
132.9520, 20.68890
133.4341, 21.48967
133.9162, 22.18692
134.3983, 22.53366
134.8804, 22.58794
135.3625, 22.79208
135.8447, 23.16901
136.3268, 23.63303
136.8089, 24.07956
137.2910, 24.50840
137.7731, 24.93623
138.2552, 25.43067
138.7374, 26.03123
139.2195, 26.35648
139.7016, 26.37561
140.1837, 26.16247
140.6658, 25.82592
141.1479, 25.27502
141.6301, 24.79996
142.1122, 24.55308
142.5943, 24.63765
143.0764, 24.65647
143.5585, 24.57211
144.0406, 24.41763
144.5228, 24.29291
145.0049, 24.12835
145.4870, 24.07790
145.9691, 24.25720
146.4512, 25.00328
146.9333, 25.42632
147.4155, 25.34524
147.8976, 24.82556
148.3797, 24.48501
148.8618, 24.36002
149.3439, 24.38139
149.8260, 24.50340
150.3082, 24.97312
150.7903, 25.26998
151.2724, 25.29736
151.7545, 25.04769
152.2366, 24.82968
152.7188, 24.58538
153.2009, 24.40832
153.6830, 24.37674
154.1651, 24.81482
154.6472, 25.08848
155.1293, 24.95470
155.6115, 24.34066
156.0936, 23.89979
156.5757, 23.85466
157.0578, 23.99697
157.5399, 24.10036
158.0220, 24.09491
158.5042, 24.05952
158.9863, 24.04992
159.4684, 24.10150
159.9505, 24.03278
160.4326, 23.52072
160.9147, 22.89835
161.3969, 22.66154
161.8790, 23.40328
162.3611, 24.26874
162.8432, 24.79194
163.3253, 24.83356
163.8074, 24.75915
164.2896, 24.65834
164.7717, 24.55779
165.2538, 24.51125
165.7359, 24.61937
166.2180, 24.74592
166.7001, 24.77514
167.1823, 24.64223
167.6644, 24.50793
168.1465, 24.47110
168.6286, 24.51278
169.1107, 24.58036
169.5928, 24.67481
170.0750, 24.76795
170.5571, 24.83938
171.0392, 24.90671
171.5213, 24.91419
172.0034, 24.73543
172.4855, 24.42153
172.9677, 24.20210
173.4498, 24.35263
173.9319, 24.65571
174.4140, 24.79053
174.8961, 24.59118
175.3782, 24.28542
175.8604, 24.06276
176.3425, 23.92840
176.8246, 23.93225
177.3067, 24.25964
177.7888, 24.74655
178.2709, 25.04823
178.7531, 25.00247
179.2352, 24.77234
179.7173, 24.53252
180.1994, 24.28585
180.6815, 24.15272
181.1636, 24.35426
181.6458, 24.77662
182.1279, 25.06633
182.6100, 25.01216
183.0921, 24.79710
183.5742, 24.85282
184.0563, 25.19254
184.5385, 25.51773
185.0206, 25.46083
185.5027, 25.09813
185.9848, 24.80092
186.4669, 24.73489
186.9490, 24.82460
187.4312, 24.83814
187.9133, 24.76669
188.3954, 24.67595
188.8775, 24.61471
189.3596, 24.58731
189.8417, 24.64191
190.3239, 24.85239
190.8060, 25.17558
191.2881, 25.35430
191.7702, 25.35651
192.2523, 25.33333
192.7344, 25.53407
193.2166, 25.95757
193.6987, 26.28108
194.1808, 26.31461
194.6629, 26.09066
195.1450, 25.98862
195.6271, 26.01081
196.1093, 26.14768
196.5914, 26.44191
197.0735, 26.91143
197.5556, 27.31510
198.0377, 27.47080
198.5198, 27.37650
199.0020, 27.57352
199.4841, 28.16237
199.9662, 28.86532
200.4483, 29.19495
200.9304, 29.08865
201.4125, 28.99006
201.8947, 29.11785
202.3768, 29.49443
202.8589, 29.81159
203.3410, 30.06257
203.8231, 30.26198
204.3052, 30.40291
204.7874, 30.45422
205.2695, 30.58019
205.7516, 30.90749
206.2337, 31.49073
206.7158, 31.87928
207.1979, 31.99360
207.6801, 31.98628
208.1622, 32.19997
208.6443, 32.71547
209.1264, 33.20525
209.6085, 33.42897
210.0906, 33.23217
210.5728, 33.52281
211.0549, 34.47461
211.5370, 35.80267
212.0191, 36.82213
212.5012, 37.43465
212.9833, 38.00293
213.4655, 38.71984
213.9476, 39.67833
214.4297, 40.46229
214.9118, 41.07071
215.3939, 41.49638
215.8760, 41.76405
216.3582, 41.95070
216.8403, 41.81590
217.3224, 41.15974
217.8045, 39.73021
218.2866, 38.54572
218.7687, 37.68853
219.2508, 37.06788
219.7330, 36.47252
220.2151, 35.90718
220.6972, 35.35825
221.1793, 34.81411
221.6614, 34.23110
222.1435, 33.74505
222.6257, 33.30307
223.1078, 32.97359
223.5899, 32.98846
224.0720, 33.59504
224.5541, 34.15044
225.0362, 34.33669
225.5184, 33.95943
226.0005, 33.67973
226.4826, 33.46124
226.9647, 33.35907
227.4468, 33.54089
227.9289, 34.10359
228.4111, 34.80175
228.8932, 35.52960
229.3753, 36.27689
229.8574, 37.07786
230.3395, 37.94708
230.8216, 38.85971
231.3038, 39.75014
231.7859, 40.53055
232.2680, 41.40930
232.7501, 42.51046
233.2322, 44.00718
233.7143, 45.32034
234.1965, 46.36626
234.6786, 47.25096
235.1607, 48.30477
235.6428, 49.69061
236.1249, 51.00710
236.6070, 52.04057
237.0892, 52.54973
237.5713, 53.31767
238.0534, 54.44933
238.5355, 55.81152
239.0176, 57.04279
239.4997, 58.01498
239.9819, 59.06541
240.4640, 60.32452
240.9461, 61.82972
241.4282, 63.46608
241.9103, 65.20807
242.3924, 67.08897
242.8746, 69.19456
243.3567, 71.56876
243.8388, 74.09989
244.3209, 76.71690
244.8030, 79.24667
245.2851, 82.25766
245.7673, 85.81975
246.2494, 89.83488
246.7315, 94.15378
247.2136, 99.05893
247.6957, 103.8299
248.1778, 108.3618
248.6600, 113.0093
249.1421, 116.2406
249.6242, 117.9589
250.1063, 118.3456
250.5884, 117.8168
251.0705, 116.7314
251.5527, 114.0891
252.0348, 109.3310
252.5169, 101.8090
252.9990, 94.29475
253.4811, 86.49099
253.9632, 78.80270
254.4454, 72.05326
254.9275, 66.32482
255.4096, 61.28453
255.8917, 56.81763
256.3738, 52.94644
256.8560, 49.71139
257.3381, 47.22421
257.8202, 45.25350
258.3023, 43.40916
258.7844, 41.68406
259.2665, 40.14068
259.7487, 38.79053
260.2308, 37.63807
260.7129, 36.71700
261.1950, 36.08680
261.6771, 35.62462
262.1592, 35.18059
262.6414, 34.76912
263.1235, 34.34648
263.6056, 33.88714
264.0877, 33.37864
264.5698, 32.97548
265.0519, 32.72335
265.5341, 32.51542
266.0162, 32.19921
266.4983, 31.71186
266.9804, 31.32228
267.4625, 31.12920
267.9446, 31.12999
268.4268, 31.01423
268.9089, 30.71930
269.3910, 30.42246
269.8731, 30.33917
270.3552, 30.54089
270.8373, 30.66842
271.3195, 30.63347
271.8016, 30.44881
272.2837, 30.23477
272.7658, 29.96061
273.2479, 29.72031
273.7300, 29.61987
274.2122, 29.68707
274.6943, 29.72041
275.1764, 29.66856
275.6585, 29.55174
276.1406, 29.46980
276.6227, 29.42135
277.1049, 29.41318
277.5870, 29.46686
278.0691, 29.58970
278.5512, 29.69254
279.0333, 29.76310
279.5154, 29.80320
279.9976, 29.79927
280.4797, 29.73683
280.9618, 29.70509
281.4439, 29.82229
281.9260, 30.09044
282.4081, 30.17724
282.8903, 29.97610
283.3724, 29.64064
283.8545, 29.54749
284.3366, 29.71196
284.8187, 29.95665
285.3008, 30.21594
285.7830, 30.48169
286.2651, 30.60292
286.7472, 30.52176
287.2293, 30.37823
287.7114, 30.43312
288.1935, 30.68517
288.6757, 30.99888
289.1578, 31.32787
289.6399, 31.66321
290.1220, 31.93579
290.6041, 32.13425
291.0862, 32.29967
291.5684, 32.50675
292.0505, 32.74743
292.5326, 32.93849
293.0147, 32.99720
293.4968, 32.97432
293.9789, 33.01718
294.4611, 33.12859
294.9432, 33.30964
295.4253, 33.61589
295.9074, 34.01394
296.3895, 34.35094
296.8716, 34.20254
297.3538, 34.70484
297.8359, 35.03154
298.3180, 35.19209
298.8001, 34.68888
299.2822, 35.04278
299.7643, 35.05320
300.2465, 35.04954
300.7286, 35.52408
301.2107, 35.11740
301.6928, 35.58437
302.1749, 35.70259
302.6570, 35.98042
303.1392, 35.91265
303.6213, 35.95162
304.1034, 35.96584
304.5855, 35.76036
305.0676, 35.52048
305.5497, 35.50420
306.0319, 35.67170
306.5140, 35.81517
306.9961, 35.81215
307.4782, 35.70238
307.9603, 35.50927
308.4424, 35.17151
308.9246, 34.87912
309.4067, 34.91632
309.8888, 35.14360
310.3709, 35.16151
310.8530, 34.51101
311.3351, 33.69066
311.8173, 33.13906
312.2994, 32.97710
312.7815, 32.90746
313.2636, 32.78554
313.7457, 32.63183
314.2278, 32.48177
314.7100, 32.30278
315.1921, 32.16901
315.6742, 32.17543
316.1563, 32.37160
316.6384, 32.45277
317.1205, 32.13879
317.6027, 31.67458
318.0848, 31.37204
318.5669, 31.41309
319.0490, 31.55842
319.5311, 31.78446
320.0132, 32.09584
320.4954, 32.24454
320.9775, 31.93779
321.4596, 31.54414
321.9417, 31.38129
322.4238, 31.86186
322.9059, 32.21730
323.3881, 32.18627
323.8702, 31.80533
324.3523, 31.54520
324.8344, 31.57540
325.3165, 31.67872
325.7986, 31.72675
326.2808, 31.54868
326.7629, 31.50507
327.2450, 31.72812
327.7271, 32.13171
328.2092, 32.37431
328.6913, 32.23005
329.1735, 32.12146
329.6556, 32.23324
330.1377, 32.78488
330.6198, 33.13668
331.1019, 33.20065
331.5840, 33.08994
332.0662, 33.01042
332.5483, 32.93017
333.0304, 32.92765
333.5125, 33.04113
333.9946, 33.29590
334.4767, 33.54497
334.9589, 33.82048
335.4410, 34.05582
335.9231, 34.14606
336.4052, 34.02545
336.8873, 33.92884
337.3694, 33.90249
337.8516, 33.94641
338.3337, 34.09040
338.8158, 34.38543
339.2979, 34.67458
339.7800, 34.80651
340.2621, 34.75909
340.7442, 34.69670
341.2263, 34.62484
341.7085, 34.56953
342.1906, 34.64460
342.6727, 34.86975
343.1548, 35.10633
343.6369, 35.27797
344.1190, 35.38316
344.6012, 35.40006
345.0833, 35.29085
345.5654, 35.15941
346.0475, 35.26587
346.5296, 35.58809
347.0117, 35.78152
347.4939, 35.52611
347.9760, 34.98536
348.4581, 34.70570
348.9402, 34.74371
349.4223, 34.86672
349.9044, 34.80910
350.3866, 34.61516
350.8687, 34.43766
351.3508, 34.38603
351.8329, 34.36604
352.3150, 34.20015
352.7971, 33.89227
353.2793, 33.60064
353.7614, 33.43777
354.2435, 33.37127
354.7256, 33.34591
355.2077, 33.33580
355.6898, 33.37300
356.1720, 33.53953
356.6541, 33.79854
357.1362, 33.99179
357.6183, 33.95643
358.1004, 33.85477
358.5826, 33.83771
359.0647, 33.95881
359.5468, 34.10057
360.0289, 34.25042
360.5110, 34.37355
360.9931, 34.40368
361.4753, 34.11460
361.9574, 33.88524
362.4395, 33.95570
362.9216, 34.40036
363.4037, 34.79987
363.8858, 35.00793
364.3680, 35.11706
364.8501, 35.22517
365.3322, 35.23228
365.8143, 35.36247
366.2964, 35.73679
366.7785, 36.35023
367.2607, 36.87046
367.7428, 37.26443
368.2249, 37.56252
368.7070, 37.77949
369.1891, 37.75241
369.6712, 37.86114
370.1534, 38.15733
370.6355, 38.59801
371.1176, 39.06080
371.5997, 39.62960
372.0818, 40.11051
372.5639, 40.41465
373.0461, 40.48240
373.5282, 40.55458
374.0103, 40.58760
374.4924, 40.66516
374.9745, 40.95380
375.4566, 41.55343
375.9388, 42.05553
376.4209, 42.32704
376.9030, 42.38235
377.3851, 42.38715
377.8672, 42.32335
378.3493, 42.26973
378.8315, 42.33006
379.3136, 42.50875
379.7957, 42.62250
380.2778, 42.63660
380.7599, 42.56908
381.2420, 42.43354
381.7242, 42.23223
382.2063, 42.05012
382.6884, 41.94897
383.1705, 41.91322
383.6526, 41.90288
384.1347, 41.92004
384.6169, 41.93411
385.0990, 41.93224
385.5811, 41.90051
386.0632, 41.79405
386.5453, 41.51003
387.0274, 41.17582
387.5096, 40.98902
387.9917, 40.95113
388.4738, 40.91107
388.9559, 40.69699
389.4380, 40.42896
389.9201, 40.27047
390.4023, 40.35976
390.8844, 40.47669
391.3665, 40.47221
391.8486, 40.37154
392.3307, 40.26652
392.8128, 40.28688
393.2950, 40.26112
393.7771, 40.02849
394.2592, 39.43513
394.7413, 38.98144
395.2234, 38.96477
395.7055, 39.16313
396.1877, 39.23353
396.6698, 38.98203
397.1519, 38.70433
397.6340, 38.49933
398.1161, 38.38429
398.5982, 38.22020
399.0804, 37.97615
399.5625, 37.69394
400.0446, 37.40049
400.5267, 37.04241
401.0088, 36.75978
401.4909, 36.65490
401.9731, 36.64476
402.4552, 36.34947
402.9373, 35.52846
403.4194, 34.81527
403.9015, 34.57002
404.3836, 34.96508
404.8658, 35.12602
405.3479, 34.98384
405.8300, 34.69796
406.3121, 34.49260
406.7942, 34.37402
407.2763, 34.29102
407.7585, 34.24420
408.2406, 34.22036
408.7227, 34.12331
409.2048, 33.93983
409.6869, 33.79198
410.1690, 33.81744
410.6512, 33.98349
411.1333, 34.14270
411.6154, 34.28510
412.0975, 34.37639
412.5796, 34.32127
413.0617, 34.15051
413.5439, 34.01558
414.0260, 34.05434
414.5081, 34.16099
414.9902, 34.19693
415.4723, 34.15311
415.9544, 34.03373
416.4366, 33.75965
416.9187, 33.43015
417.4008, 33.19468
417.8829, 33.19638
418.3650, 33.23114
418.8471, 33.17961
419.3293, 33.05326
419.8114, 32.92134
420.2935, 32.84030
420.7756, 32.74675
421.2577, 32.59512
421.7398, 32.33753
422.2220, 32.09690
422.7041, 31.91080
423.1862, 31.75561
423.6683, 31.58791
424.1504, 31.38685
424.6325, 31.18529
425.1147, 30.98617
425.5968, 30.78284
426.0789, 30.61426
426.5610, 30.44333
427.0431, 30.34036
427.5252, 30.38739
428.0074, 30.69719
428.4895, 30.88736
428.9716, 30.87777
429.4537, 30.73193
429.9358, 30.65458
430.4179, 30.66619
430.9001, 30.67366
431.3822, 30.61600
431.8643, 30.49148
432.3464, 30.43208
432.8285, 30.45826
433.3106, 30.48417
433.7928, 30.37195
434.2749, 30.14125
434.7570, 29.95694
435.2391, 29.87219
435.7212, 29.86304
436.2033, 29.90124
436.6855, 29.98271
437.1676, 30.06808
437.6497, 30.14800
438.1318, 30.20851
438.6139, 30.21673
439.0960, 30.15264
439.5782, 30.09122
440.0603, 30.10831
440.5424, 30.17083
441.0245, 30.21662
441.5066, 30.23129
441.9887, 30.21189
442.4709, 30.13282
442.9530, 29.99767
443.4351, 29.89786
443.9172, 29.88665
444.3993, 29.91324
444.8814, 29.94436
445.3636, 30.04750
445.8457, 30.05601
446.3278, 29.85473
446.8099, 29.54272
447.2920, 29.36154
447.7741, 29.39419
448.2563, 29.47181
448.7384, 29.55661
449.2205, 29.65402
449.7026, 29.72851
450.1847, 29.79434
450.6668, 29.81948
451.1490, 29.73345
451.6311, 29.46141
452.1132, 29.39633
452.5953, 29.68432
453.0774, 30.14849
453.5595, 30.28177
454.0417, 30.04977
454.5238, 29.80826
455.0059, 29.73863
455.4880, 29.82265
455.9701, 30.00479
456.4522, 30.30270
456.9344, 30.56283
457.4165, 30.58704
457.8986, 30.43755
458.3807, 30.28583
458.8628, 30.18167
459.3449, 30.10400
459.8271, 29.99902
460.3092, 29.88800
460.7913, 29.85876
461.2734, 30.01698
461.7555, 30.24604
462.2376, 30.47265
462.7198, 30.70274
463.2019, 30.84217
463.6840, 30.74894
464.1661, 30.57085
464.6482, 30.48672
465.1303, 30.54975
465.6125, 30.70393
466.0946, 31.03320
466.5767, 31.50080
467.0588, 31.74971
467.5409, 31.57411
468.0230, 31.33356
468.5052, 31.17529
468.9873, 31.10566
469.4694, 31.11536
469.9515, 31.27037
470.4336, 31.44823
470.9157, 31.43672
471.3979, 31.14119
471.8800, 30.99224
472.3621, 31.14934
472.8442, 31.53491
473.3263, 31.80399
473.8084, 31.95664
474.2906, 31.99286
474.7727, 31.82401
475.2548, 31.51237
475.7369, 31.38023
476.2190, 31.48430
476.7011, 31.67173
477.1833, 31.74256
477.6654, 31.74579
478.1475, 31.81772
478.6296, 32.14165
479.1117, 32.47362
479.5938, 32.51770
480.0760, 32.31354
480.5581, 32.12654
481.0402, 32.05323
481.5223, 32.09233
482.0044, 32.28449
482.4865, 32.73946
482.9687, 33.06289
483.4508, 33.04701
483.9329, 32.83901
484.4150, 32.64968
484.8971, 32.43055
485.3792, 32.32309
485.8614, 32.45189
486.3435, 32.78876
486.8256, 32.89841
487.3077, 32.56143
487.7898, 32.25417
488.2719, 32.26117
488.7541, 32.71839
489.2362, 33.03895
489.7183, 33.17003
490.2004, 33.23001
490.6825, 33.42793
491.1646, 33.78656
491.6468, 34.05398
492.1289, 34.14008
492.6110, 34.09291
493.0931, 34.01359
493.5752, 33.90358
494.0573, 33.87806
494.5395, 34.08271
495.0216, 34.42002
495.5037, 34.70560
495.9858, 34.91673
496.4679, 35.05236
496.9500, 34.87564
497.4322, 34.65757
497.9143, 34.85182
498.3964, 36.20124
498.8785, 37.50629
499.3606, 37.99074
499.8427, 37.80595
500.3249, 37.63403
500.8070, 37.58537
501.2891, 37.71124
501.7712, 38.07925
502.2533, 38.81149
502.7354, 39.45059
503.2176, 39.83992
503.6997, 40.18038
504.1818, 40.68122
504.6639, 41.43717
505.1460, 42.17133
505.6281, 42.80765
506.1103, 43.39962
506.5924, 44.14251
507.0745, 45.06161
507.5566, 46.03969
508.0387, 47.01289
508.5208, 47.98413
509.0030, 49.04448
509.4851, 50.21161
509.9672, 51.36714
510.4493, 52.29516
510.9314, 53.09222
511.4135, 54.10779
511.8957, 55.48400
512.3778, 56.99896
512.8599, 58.41859
513.3420, 59.76472
513.8242, 61.09375
514.3063, 62.41267
514.7884, 63.76552
515.2705, 65.19569
515.7526, 66.70108
516.2347, 68.20263
516.7169, 69.52602
517.1990, 70.91441
517.6811, 72.56139
518.1632, 74.82503
518.6453, 76.90142
519.1274, 78.62560
519.6096, 80.13338
520.0917, 81.64342
520.5738, 83.16954
521.0559, 84.67754
521.5380, 86.26172
522.0201, 87.88793
522.5023, 88.86424
522.9844, 89.01418
523.4665, 89.02378
523.9486, 89.51148
524.4307, 90.43661
524.9128, 90.88966
525.3950, 90.78797
525.8771, 90.23339
526.3592, 89.23841
526.8413, 87.87913
527.3234, 86.39274
527.8055, 84.87784
528.2877, 83.28804
528.7698, 81.50939
529.2519, 79.58869
529.7340, 77.65672
530.2161, 75.81408
530.6982, 73.97747
531.1804, 72.02188
531.6625, 69.93935
532.1446, 67.92419
532.6267, 66.06973
533.1088, 64.31487
533.5909, 62.63258
534.0731, 60.88286
534.5552, 59.36326
535.0373, 58.18430
535.5194, 57.23549
536.0015, 56.13993
536.4836, 54.72454
536.9658, 53.54123
537.4479, 52.87740
537.9300, 52.70287
538.4121, 52.24531
538.8942, 51.44624
539.3763, 50.61489
539.8585, 50.06134
540.3406, 49.72489
540.8227, 49.20658
541.3048, 48.38727
541.7869, 47.60924
542.2690, 47.40359
542.7512, 47.57707
543.2333, 47.64546
543.7154, 47.37979
544.1975, 46.95131
544.6796, 46.40095
545.1617, 45.77282
545.6439, 45.28379
546.1260, 45.24021
546.6081, 45.20594
547.0902, 44.88361
547.5723, 44.15059
548.0544, 43.53104
548.5366, 43.17164
549.0187, 42.91098
549.5008, 42.60122
549.9829, 42.16688
550.4650, 41.82720
550.9471, 41.63997
551.4293, 41.53722
551.9114, 41.36519
552.3935, 41.12531
552.8756, 40.80767
553.3577, 40.38330
553.8398, 39.87835
554.3220, 39.40764
554.8041, 38.96961
555.2862, 38.56157
555.7683, 38.15592
556.2504, 37.77992
556.7325, 37.48905
557.2147, 37.29898
557.6968, 37.14799
558.1789, 36.97369
558.6610, 36.80693
559.1431, 36.69492
559.6252, 36.80522
560.1074, 36.81883
560.5895, 36.50267
561.0716, 35.96825
561.5537, 35.59541
562.0358, 35.64771
562.5179, 35.68668
563.0001, 35.53395
563.4822, 35.16361
563.9643, 34.89971
564.4464, 34.81441
564.9285, 34.73399
565.4106, 34.49569
565.8928, 34.05523
566.3749, 33.76484
566.8570, 33.68576
567.3391, 33.68221
567.8212, 33.51376
568.3033, 33.20903
568.7855, 32.99380
569.2676, 32.97305
569.7497, 33.05159
570.2318, 33.16789
570.7139, 33.28331
571.1960, 33.23851
571.6782, 32.71487
572.1603, 32.14273
572.6424, 31.91504
573.1245, 32.08315
573.6066, 32.25360
574.0887, 32.23343
574.5709, 32.18102
575.0530, 32.22435
575.5351, 32.57768
576.0172, 32.73705
576.4993, 32.59986
576.9814, 32.30712
577.4636, 32.07297
577.9457, 31.88356
578.4278, 31.80189
578.9099, 31.89711
579.3920, 32.09543
579.8741, 32.05976
580.3563, 31.76736
580.8384, 31.55208
581.3205, 31.71423
581.8026, 32.10311
582.2847, 32.24299
582.7668, 32.11631
583.2490, 31.97982
583.7311, 32.11706
584.2132, 32.34712
584.6953, 32.42881
585.1774, 32.26355
585.6595, 32.04279
586.1417, 31.72607
586.6238, 31.45223
587.1058, 31.42542
587.5880, 32.11435
588.0701, 32.59422
588.5522, 32.50891
589.0343, 32.00194
589.5164, 31.73478
589.9985, 31.81960
590.4807, 31.95707
590.9628, 32.04201
591.4449, 32.07435
591.9270, 32.05464
592.4091, 31.98672
592.8912, 31.84943
593.3734, 31.51658
593.8555, 31.06745
594.3376, 30.91347
594.8197, 31.15126
595.3018, 31.52200
595.7839, 31.84601
596.2661, 32.08662
596.7482, 32.17147
597.2303, 31.99606
597.7124, 31.73621
598.1945, 31.42316
598.6766, 31.09978
599.1588, 30.89459
599.6409, 30.91098
600.1230, 30.99339
600.6051, 31.11005
601.0872, 31.26330
601.5693, 31.35853
602.0515, 31.38157
602.5336, 31.36418
603.0157, 31.30040
603.4978, 31.16378
603.9799, 31.16895
604.4620, 31.36300
604.9442, 31.58160
605.4263, 31.54705
605.9084, 31.32008
606.3905, 31.28486
606.8726, 31.61793
607.3547, 32.00951
607.8369, 32.06258
608.3190, 31.86812
608.8011, 31.65919
609.2832, 31.52454
609.7653, 31.43103
610.2474, 31.36346
610.7296, 31.31979
611.2117, 31.29620
611.6938, 31.25630
612.1759, 31.26536
612.6580, 31.37688
613.1401, 31.63312
613.6223, 31.80638
614.1044, 31.88262
614.5865, 31.89310
615.0686, 31.81357
615.5507, 31.61089
616.0328, 31.65622
616.5150, 32.06585
616.9971, 32.54009
617.4792, 32.58842
617.9613, 32.28951
618.4434, 32.00092
618.9255, 31.82934
619.4077, 31.74323
619.8898, 31.72964
620.3719, 31.77478
620.8540, 31.83428
621.3361, 31.91382
621.8182, 31.97720
622.3004, 31.98978
622.7825, 31.95139
623.2646, 31.93985
623.7467, 31.90426
624.2288, 31.95749
624.7109, 32.18639
625.1931, 32.69804
625.6752, 33.00794
626.1573, 33.06364
626.6394, 33.00810
627.1215, 32.95642
627.6036, 32.90718
628.0858, 32.95499
628.5679, 33.13250
629.0500, 33.36571
629.5321, 33.54303
630.0142, 33.68209
630.4963, 33.83535
630.9785, 34.07516
631.4606, 34.28949
631.9427, 34.31182
632.4248, 34.21617
632.9069, 34.23872
633.3890, 34.66248
633.8712, 35.05845
634.3533, 35.21385
634.8354, 35.10030
635.3175, 35.01055
635.7996, 34.92348
636.2817, 34.89716
636.7639, 34.97026
637.2460, 35.15907
637.7281, 35.35881
638.2102, 35.56350
638.6923, 35.79641
639.1744, 36.16722
639.6566, 36.62025
640.1387, 36.80366
640.6208, 36.58513
641.1029, 36.27909
641.5850, 36.21227
642.0671, 36.32988
642.5493, 36.52078
643.0314, 36.85466
643.5135, 37.13696
643.9956, 37.23940
644.4777, 37.20613
644.9598, 37.17701
645.4420, 37.20721
645.9241, 37.22164
646.4062, 37.17741
646.8883, 37.08049
647.3704, 37.07183
647.8525, 37.18583
648.3347, 37.31318
648.8168, 37.39416
649.2989, 37.43023
649.7810, 37.45504
650.2631, 37.47703
650.7452, 37.41777
651.2274, 37.09096
651.7095, 36.64606
652.1916, 36.41439
652.6737, 36.50695
653.1558, 36.63479
653.6379, 36.62934
654.1201, 36.51774
654.6022, 36.33665
655.0843, 35.94117
655.5664, 35.65706
656.0485, 35.68373
656.5306, 35.86114
657.0128, 35.81242
657.4949, 35.38608
657.9770, 35.01813
658.4591, 34.81411
658.9412, 34.75203
659.4233, 34.76596
659.9055, 34.86625
660.3876, 34.92948
660.8697, 34.87899
661.3518, 34.74422
661.8339, 34.57173
662.3160, 34.36672
662.7982, 34.19727
663.2803, 34.15961
663.7624, 34.15276
664.2445, 34.08956
664.7266, 33.96090
665.2087, 33.76084
665.6909, 33.33071
666.1730, 32.92109
666.6551, 32.75215
667.1372, 32.97704
667.6193, 33.18700
668.1014, 33.41862
668.5836, 33.59323
669.0657, 33.55019
669.5478, 33.26160
670.0299, 33.09898
670.5120, 33.16856
670.9941, 33.34644
671.4763, 33.44054
671.9584, 33.45806
672.4405, 33.42945
672.9226, 33.36623
673.4047, 33.26507
673.8868, 33.10498
674.3690, 32.90130
674.8511, 32.70323
675.3332, 32.41762
675.8153, 32.24633
676.2974, 32.32506
676.7795, 32.66835
677.2617, 32.92441
677.7438, 33.11005
678.2259, 33.18446
678.7080, 33.07853
679.1901, 32.77131
679.6722, 32.64209
680.1544, 32.70805
680.6365, 32.83831
681.1186, 32.94756
681.6007, 33.02412
682.0828, 33.02111
682.5649, 32.91635
683.0471, 32.82413
683.5292, 32.88675
684.0113, 32.99843
684.4934, 33.03054
684.9755, 32.91417
685.4576, 32.76997
685.9398, 32.60825
686.4219, 32.44122
686.9040, 32.27951
687.3861, 32.07393
687.8682, 31.97955
688.3503, 32.05039
688.8325, 32.22589
689.3146, 32.37559
689.7967, 32.50043
690.2788, 32.54500
690.7609, 32.50721
691.2430, 32.35875
691.7252, 31.91274
692.2073, 31.25830
692.6894, 30.81699
693.1715, 31.04299
693.6536, 31.40033
694.1357, 31.47938
694.6179, 31.27376
695.1000, 31.15705
695.5821, 31.34667
696.0642, 31.53194
696.5463, 31.57266
697.0284, 31.45485
697.5106, 31.26698
697.9927, 30.97104
698.4748, 30.69397
698.9569, 30.53491
699.4390, 30.48862
699.9211, 30.54412
700.4033, 30.71319
700.8854, 30.88685
701.3675, 30.95976
701.8496, 30.96374
702.3317, 30.94452
702.8138, 30.90576
703.2960, 30.86466
703.7781, 30.87233
704.2602, 30.86588
704.7423, 30.76827
705.2244, 30.39328
705.7065, 30.15668
706.1887, 30.14767
706.6708, 30.25641
707.1529, 30.27261
707.6350, 30.17559
708.1171, 30.10861
708.5992, 30.11438
709.0814, 30.16425
709.5635, 30.18504
710.0456, 30.19110
710.5277, 30.24915
711.0098, 30.44954
711.4919, 30.67101
711.9741, 30.84307
712.4562, 30.95294
712.9383, 30.95864
713.4204, 30.74445
713.9025, 30.51768
714.3846, 30.35465
714.8668, 30.25384
715.3489, 30.20749
715.8310, 30.21577
716.3131, 30.27862
716.7952, 30.42957
717.2773, 30.65496
717.7595, 30.76666
718.2416, 30.75975
718.7237, 30.71014
719.2058, 30.65933
719.6879, 30.61277
720.1700, 30.56707
720.6522, 30.51867
721.1343, 30.52680
721.6164, 30.71590
722.0985, 30.91889
722.5806, 30.99526
723.0627, 30.85495
723.5449, 30.74444
724.0270, 30.68648
724.5091, 30.65136
724.9912, 30.60246
725.4733, 30.52595
725.9554, 30.52665
726.4376, 30.63011
726.9197, 30.76168
727.4018, 30.85244
727.8839, 30.88920
728.3660, 30.80587
728.8481, 30.51978
729.3303, 30.26544
729.8124, 30.27682
730.2945, 30.44313
730.7766, 30.59537
731.2587, 30.74132
731.7408, 30.80227
732.2230, 30.68647
732.7051, 30.49146
733.1872, 30.40312
733.6693, 30.46382
734.1514, 30.51224
734.6335, 30.51291
735.1157, 30.47622
735.5978, 30.40605
736.0799, 30.31072
736.5620, 30.26149
737.0441, 30.36193
737.5262, 30.46899
738.0084, 30.36856
738.4905, 30.12551
738.9726, 29.96048
739.4547, 30.02786
739.9368, 30.13684
740.4189, 30.23522
740.9011, 30.31317
741.3832, 30.30112
741.8653, 30.16265
742.3474, 29.99599
742.8295, 29.81985
743.3116, 29.64453
743.7938, 29.58150
744.2759, 29.63352
744.7580, 29.70175
745.2401, 29.72276
745.7222, 29.71416
746.2043, 29.69430
746.6865, 29.66580
747.1686, 29.65242
747.6507, 29.69831
748.1328, 29.74088
748.6149, 29.74575
749.0970, 29.71246
749.5792, 29.61320
750.0613, 29.39581
750.5434, 29.17983
751.0255, 29.02732
751.5076, 28.93775
751.9897, 28.95234
752.4719, 29.08848
752.9540, 29.23368
753.4361, 29.26412
753.9182, 29.23231
754.4003, 29.27341
754.8824, 29.42245
755.3646, 29.49295
755.8467, 29.25665
756.3288, 28.94040
756.8109, 28.76474
757.2930, 28.82937
757.7751, 28.90186
758.2573, 29.00072
758.7394, 29.07126
759.2215, 29.04679
759.7036, 28.90839
760.1857, 28.80673
760.6678, 28.75751
761.1500, 28.74316
761.6321, 28.73777
762.1142, 28.75087
762.5963, 28.81369
763.0784, 28.94972
763.5605, 29.08991
764.0427, 29.21915
764.5248, 29.31084
765.0069, 29.33179
765.4890, 29.20697
765.9711, 29.09905
766.4532, 29.01781
766.9354, 28.95975
767.4175, 28.92159
767.8996, 28.90553
768.3817, 28.88961
768.8638, 28.85683
769.3459, 28.85321
769.8281, 29.01687
770.3102, 29.27545
770.7923, 29.41210
771.2744, 29.31614
771.7565, 29.13249
772.2386, 28.85016
772.7208, 28.57015
773.2029, 28.46832
773.6850, 28.80030
774.1671, 29.04315
774.6492, 29.10250
775.1313, 29.04152
775.6135, 28.98522
776.0956, 28.93351
776.5777, 28.89157
777.0598, 28.86789
777.5419, 28.84360
778.0240, 28.75934
778.5062, 28.64194
778.9883, 28.57488
779.4704, 28.58629
779.9525, 28.66992
780.4346, 28.87583
780.9167, 29.15010
781.3989, 29.36365
781.8810, 29.47728
782.3631, 29.54093
782.8452, 29.55294
783.3273, 29.52376
783.8094, 29.48229
784.2916, 29.42867
784.7737, 29.36036
785.2558, 29.27470
785.7379, 29.17497
786.2200, 29.02842
786.7021, 28.86584
787.1843, 28.79742
787.6664, 29.06058
788.1485, 29.25165
788.6306, 29.01041
789.1127, 28.48506
789.5948, 28.25996
790.0770, 28.63954
790.5591, 28.95003
791.0412, 29.01139
791.5233, 28.89706
792.0054, 28.88741
792.4875, 28.98556
792.9697, 29.02928
793.4518, 28.91452
793.9339, 28.73141
794.4160, 28.59927
794.8981, 28.51839
795.3802, 28.49001
795.8624, 28.50389
796.3445, 28.58084
796.8266, 28.82580
797.3087, 29.16775
797.7908, 29.25341
798.2729, 28.90760
798.7551, 28.63356
799.2372, 28.60156
799.7193, 28.73675
800.2014, 28.74939
800.6835, 28.65049
801.1656, 28.59295
801.6478, 28.71265
802.1299, 28.87045
802.6120, 28.92155
803.0941, 28.87571
803.5762, 28.76372
804.0583, 28.43951
804.5405, 28.21423
805.0226, 28.28231
805.5047, 28.55790
805.9868, 28.71417
806.4689, 28.72231
806.9510, 28.69446
807.4332, 28.66776
807.9153, 28.63162
808.3974, 28.56077
808.8795, 28.45514
809.3616, 28.31311
809.8438, 28.04493
810.3259, 27.81780
810.8080, 27.76950
811.2901, 27.87671
811.7722, 28.05685
812.2543, 28.53000
812.7365, 28.77849
813.2186, 28.56625
813.7007, 28.05418
814.1828, 27.83725
814.6649, 27.94209
815.1470, 28.12493
815.6292, 28.32364
816.1113, 28.51340
816.5934, 28.67881
817.0755, 28.79940
817.5576, 28.80639
818.0397, 28.53164
818.5219, 28.27161
819.0040, 28.21712
819.4861, 28.30246
819.9682, 28.30448
820.4503, 28.13646
820.9324, 28.01119
821.4146, 27.97010
821.8967, 28.00363
822.3788, 28.14212
822.8609, 28.37136
823.3430, 28.47714
823.8251, 28.32308
824.3073, 28.08596
824.7894, 27.94762
825.2715, 27.89098
825.7536, 27.87238
826.2357, 27.88188
826.7178, 27.92118
827.2000, 28.02750
827.6821, 28.15452
828.1642, 28.20336
828.6463, 27.80692
829.1284, 28.20622
829.6105, 28.42995
830.0927, 28.48753
830.5748, 27.88134
831.0569, 28.13227
831.5390, 28.03970
832.0211, 27.93305
832.5032, 28.30462
832.9854, 27.79497
833.4675, 28.15896
833.9496, 28.17420
834.4317, 28.34906
834.9138, 28.17829
835.3959, 28.11428
835.8781, 28.39600
836.3602, 28.48628
836.8423, 28.27573
837.3244, 28.46073
837.8065, 27.93901
838.2886, 28.03745
838.7708, 28.40345
839.2529, 28.21028
839.7350, 28.40160
840.2171, 28.44648
840.6992, 27.82588
841.1813, 28.36263
841.6635, 28.39886
842.1456, 27.92117
842.6277, 28.41826
843.1098, 28.01142
843.5919, 27.92722
844.0740, 28.08584
844.5562, 27.99134
845.0383, 28.29592
845.5204, 28.21603
846.0025, 28.10180
846.4846, 28.13746
846.9667, 27.74835
847.4489, 28.14729
847.9310, 28.00793
848.4131, 28.13614
848.8952, 28.32501
849.3773, 28.04947
849.8594, 28.26559
850.3416, 27.71926
850.8237, 27.81091
851.3058, 27.83385
851.7879, 28.26456
852.2700, 27.72195
852.7521, 27.79587
853.2343, 28.13229
853.7164, 28.17998
854.1985, 27.93163
854.6806, 27.71579
855.1627, 27.65040
855.6448, 27.67330
856.1270, 27.78483
856.6091, 27.98998
857.0912, 28.02481
857.5733, 27.85777
858.0554, 27.69499
858.5375, 27.70354
859.0197, 27.79826
859.5018, 27.77927
859.9839, 27.66230
860.4660, 27.55293
860.9481, 27.56704
861.4302, 27.55093
861.9124, 27.32683
862.3945, 26.94167
862.8766, 26.88635
863.3587, 27.31728
863.8408, 27.72175
864.3229, 27.93422
864.8051, 27.98827
865.2872, 27.91464
865.7693, 27.74304
866.2514, 27.65231
866.7335, 27.84293
867.2156, 28.03818
867.6978, 27.96654
868.1799, 27.73995
868.6620, 27.61328
869.1441, 27.73314
869.6262, 27.84958
870.1083, 27.95778
870.5905, 28.02446
871.0726, 27.93785
871.5547, 27.70359
872.0368, 27.59850
872.5189, 27.72738
873.0010, 27.90771
873.4832, 27.95683
873.9653, 27.90618
874.4474, 27.79930
874.9295, 27.56641
875.4116, 27.42130
875.8937, 27.50922
876.3759, 27.64329
876.8580, 27.62875
877.3401, 27.41900
877.8222, 27.35217
878.3043, 27.48600
878.7864, 27.60894
879.2686, 27.42696
879.7507, 27.09601
880.2328, 26.90655
880.7149, 26.91020
881.1970, 26.95171
881.6791, 26.98040
882.1613, 26.99989
882.6434, 26.99631
883.1255, 26.95324
883.6076, 27.04713
884.0897, 27.34525
884.5718, 27.56428
885.0540, 27.41650
885.5361, 27.04702
886.0182, 26.96874
886.5003, 27.14547
886.9824, 27.26724
887.4645, 27.08401
887.9467, 26.84176
888.4288, 26.63198
888.9109, 26.48244
889.3930, 26.55107
889.8751, 26.99029
890.3572, 27.31553
890.8394, 27.34330
891.3215, 27.17458
891.8036, 27.07703
892.2857, 27.03993
892.7678, 26.99872
893.2499, 26.89997
893.7321, 26.81876
894.2142, 26.83630
894.6963, 26.90659
895.1784, 26.94104
895.6605, 26.91299
896.1426, 26.85670
896.6248, 26.74305
897.1069, 26.63950
897.5890, 26.67445
898.0711, 26.83070
898.5532, 26.93813
899.0353, 26.96590
899.5175, 26.94352
899.9996, 26.88615
900.4817, 26.75232
900.9638, 26.96805
901.4459, 27.08544
901.9280, 27.10977
902.4102, 26.76234
902.8923, 26.89497
903.3744, 26.83522
903.8565, 26.76757
904.3386, 26.96777
904.8207, 26.67442
905.3029, 26.87036
905.7850, 26.87099
906.2671, 26.96101
906.7492, 26.85746
907.2313, 26.81369
907.7134, 26.96356
908.1956, 27.00622
908.6777, 26.88038
909.1598, 26.97609
909.6419, 26.67597
910.1240, 26.72319
910.6061, 26.68963
911.0883, 26.67689
911.5704, 26.46844
912.0525, 26.22838
912.5346, 26.15611
913.0167, 26.21469
913.4988, 26.32405
913.9810, 26.58704
914.4631, 26.72854
914.9452, 26.62331
915.4273, 26.41889
915.9094, 26.31561
916.3915, 26.31787
916.8737, 26.38985
917.3558, 26.54336
917.8379, 26.68834
918.3200, 26.68995
918.8021, 26.62989
919.2842, 26.63229
919.7664, 26.73319
920.2485, 26.83622
920.7306, 26.95533
921.2127, 27.02728
921.6948, 27.01171
922.1769, 26.90542
922.6591, 26.74312
923.1412, 26.51630
923.6233, 26.31213
924.1054, 26.16608
924.5875, 26.09223
925.0696, 26.15241
925.5518, 26.31812
926.0339, 26.43568
926.5160, 26.34385
926.9981, 26.31012
927.4802, 26.47279
927.9623, 26.74410
928.4445, 26.84774
928.9266, 26.77288
929.4087, 26.65362
929.8908, 26.50184
930.3729, 26.37932
930.8550, 26.39300
931.3372, 26.48990
931.8193, 26.57586
932.3014, 26.61997
932.7835, 26.65560
933.2656, 26.67914
933.7477, 26.70688
934.2299, 26.76201
934.7120, 26.85101
935.1941, 26.90964
935.6762, 26.93665
936.1583, 26.91828
936.6404, 26.74026
937.1226, 26.56246
937.6047, 26.66749
938.0868, 27.07791
938.5689, 27.34924
939.0510, 27.13894
939.5331, 26.97898
940.0153, 27.13948
940.4974, 27.54035
940.9795, 27.57538
941.4616, 27.23804
941.9437, 26.95539
942.4258, 26.95809
942.9080, 27.07915
943.3901, 27.18017
943.8722, 27.24102
944.3543, 27.21838
944.8364, 27.00058
945.3185, 26.82551
945.8007, 26.69751
946.2828, 26.65396
946.7649, 26.78017
947.2470, 27.07071
947.7291, 27.32453
948.2112, 27.52516
948.6934, 27.61624
949.1755, 27.42259
949.6576, 27.16090
950.1397, 27.08323
950.6218, 27.25699
951.1039, 27.40507
951.5861, 27.47113
952.0682, 27.53669
952.5503, 27.67537
953.0324, 27.85468
953.5145, 27.78207
953.9966, 27.48429
954.4788, 27.28137
954.9609, 27.42862
955.4430, 27.67632
955.9251, 27.89987
956.4072, 28.06517
956.8893, 28.07387
957.3715, 27.74094
957.8536, 27.57383
958.3357, 27.71898
958.8178, 27.93466
959.2999, 27.73632
959.7820, 27.24648
960.2642, 27.07630
960.7463, 27.39510
961.2284, 27.71141
961.7105, 27.55128
962.1926, 27.30783
962.6747, 27.37588
963.1569, 27.89744
963.6390, 28.13658
964.1211, 27.98056
964.6032, 27.85593
965.0853, 28.14767
965.5674, 28.63936
966.0496, 28.61124
966.5317, 28.16651
967.0138, 27.79732
967.4959, 27.79134
967.9780, 27.89815
968.4601, 28.05318
968.9423, 28.22746
969.4244, 28.36840
969.9065, 28.49242
970.3886, 28.49569
970.8707, 28.32305
971.3528, 28.13703
971.8350, 28.25689
972.3171, 28.48858
972.7992, 28.41365
973.2813, 27.84379
973.7634, 27.48580
974.2455, 27.86724
974.7277, 28.30517
975.2098, 28.34418
975.6919, 27.97629
976.1740, 27.86014
976.6561, 28.00457
977.1382, 28.20649
977.6204, 28.40075
978.1025, 28.54177
978.5846, 28.52773
979.0667, 28.41254
979.5488, 28.35528
980.0309, 28.42563
980.5131, 28.53765
980.9952, 28.69371
981.4773, 28.86640
981.9594, 29.03613
982.4415, 29.19199
982.9236, 29.21625
983.4058, 29.06310
983.8879, 28.93468
984.3700, 29.04574
984.8521, 29.23392
985.3342, 29.37271
985.8163, 29.46002
986.2985, 29.34906
986.7806, 28.90185
987.2627, 28.57819
987.7448, 28.68779
988.2269, 29.07181
988.7090, 29.25915
989.1912, 29.10155
989.6733, 29.35039
990.1554, 29.50089
990.6375, 29.55835
991.1196, 29.24403
991.6017, 29.40977
992.0839, 29.38313
992.5660, 29.34860
993.0481, 29.58191
993.5302, 29.32167
994.0123, 29.55073
994.4944, 29.58446
994.9766, 29.70760
995.4587, 29.63716
995.9408, 29.62651
996.4229, 29.80950
996.9050, 29.88526
997.3871, 29.79254
997.8693, 29.92136
998.3514, 29.65435
998.8335, 29.73469
999.3156, 29.96488
999.7977, 29.88189
1000.280, 29.90975
1000.762, 29.99537
1001.244, 30.07712
1001.726, 30.15234
1002.208, 30.21714
1002.690, 30.29125
1003.173, 30.31264
1003.655, 30.25321
1004.137, 30.19424
1004.619, 30.23029
1005.101, 30.33637
1005.583, 30.44829
1006.065, 30.55835
1006.547, 30.58800
1007.029, 30.33248
1007.512, 30.13051
1007.994, 30.29039
1008.476, 30.69220
1008.958, 30.75214
1009.440, 30.39474
1009.922, 30.18564
1010.404, 30.36606
1010.886, 30.61555
1011.369, 30.42610
1011.851, 30.01023
1012.333, 29.73024
1012.815, 29.72073
1013.297, 29.74419
1013.779, 29.73545
1014.261, 29.77119
1014.743, 29.96096
1015.225, 30.28779
1015.708, 30.32288
1016.190, 30.08500
1016.672, 29.87961
1017.154, 29.93315
1017.636, 30.06954
1018.118, 30.18893
1018.600, 30.28779
1019.082, 30.35960
1019.565, 30.34847
1020.047, 30.48204
1020.529, 30.85873
1021.011, 31.23674
1021.493, 31.22873
1021.975, 30.98836
1022.457, 30.82329
1022.939, 30.78356
1023.421, 30.83217
1023.904, 31.14286
1024.386, 31.33908
1024.868, 31.15046
1025.350, 30.64980
1025.832, 30.58270
1026.314, 30.94374
1026.796, 31.23490
1027.278, 31.15101
1027.760, 30.99316
1028.243, 31.11395
1028.725, 31.35468
1029.207, 31.44611
1029.689, 31.15298
1030.171, 31.03476
1030.653, 31.15707
1031.135, 31.33281
1031.617, 31.37397
1032.100, 31.32181
1032.582, 31.29976
1033.064, 31.31155
1033.546, 31.31664
1034.028, 31.20142
1034.510, 31.17361
1034.992, 31.45078
1035.474, 31.86928
1035.957, 31.85141
1036.439, 31.35270
1036.921, 31.26154
1037.403, 31.90145
1037.885, 32.61345
1038.367, 32.58687
1038.849, 32.22448
1039.331, 32.03332
1039.813, 32.15844
1040.296, 32.18586
1040.778, 32.05628
1041.260, 31.89611
1041.742, 31.75046
1042.224, 31.63605
1042.706, 31.63232
1043.188, 31.71890
1043.670, 31.81779
1044.152, 31.88468
1044.635, 31.96255
1045.117, 32.11302
1045.599, 32.25788
1046.081, 32.28551
1046.563, 32.17702
1047.045, 32.09792
1047.527, 32.05779
1048.009, 32.06001
1048.492, 32.15668
1048.974, 32.26426
1049.456, 32.27517
1049.938, 32.19578
1050.420, 32.16665
1050.902, 32.20448
1051.384, 32.29895
1051.866, 32.48743
1052.349, 32.67134
1052.831, 32.59655
1053.313, 32.36518
1053.795, 32.26843
1054.277, 32.40354
1054.759, 32.56483
1055.241, 32.70758
1055.723, 32.79637
1056.205, 32.80798
1056.688, 32.74342
1057.170, 32.60143
1057.652, 32.38183
1058.134, 32.32283
1058.616, 32.73173
1059.098, 33.15600
1059.580, 33.11822
1060.062, 32.80746
1060.544, 32.57309
1061.027, 32.44692
1061.509, 32.45644
1061.991, 32.64788
1062.473, 32.84591
1062.955, 32.90523
1063.437, 32.83701
1063.919, 32.59835
1064.401, 32.21973
1064.884, 31.94027
1065.366, 31.84910
1065.848, 31.91448
1066.330, 32.18315
1066.812, 32.54325
1067.294, 32.76027
1067.776, 32.83827
1068.258, 32.80819
1068.740, 32.65079
1069.223, 32.53342
1069.705, 32.65019
1070.187, 32.81993
1070.669, 32.88507
1071.151, 32.83318
1071.633, 32.75595
1072.115, 32.63704
1072.597, 32.57413
1073.079, 32.63916
1073.562, 32.74499
1074.044, 32.74859
1074.526, 32.69806
1075.008, 32.68367
1075.490, 32.75423
1075.972, 32.82293
1076.454, 32.87792
1076.936, 32.93557
1077.419, 33.00987
1077.901, 33.09846
1078.383, 33.23081
1078.865, 33.38703
1079.347, 33.42765
1079.829, 33.06730
1080.311, 32.80362
1080.793, 32.96270
1081.275, 33.31672
1081.758, 33.54341
1082.240, 33.64458
1082.722, 33.55470
1083.204, 33.23869
1083.686, 32.98863
1084.168, 33.19163
1084.650, 33.48094
1085.132, 33.48637
1085.615, 33.19450
1086.097, 33.00601
1086.579, 32.95349
1087.061, 32.94213
1087.543, 32.95216
1088.025, 32.97715
1088.507, 33.00454
1088.989, 33.04024
1089.471, 33.09159
1089.953, 33.15488
1090.436, 33.25889
1090.918, 33.46449
1091.400, 33.63553
1091.882, 33.68201
1092.364, 33.64026
1092.846, 33.67497
1093.328, 33.77526
1093.810, 33.89527
1094.293, 34.08123
1094.775, 34.18892
1095.257, 34.05907
1095.739, 33.87632
1096.221, 33.85378
1096.703, 34.01943
1097.185, 34.08937
1097.667, 34.05645
1098.150, 34.01554
1098.632, 34.07432
1099.114, 34.12300
1099.596, 33.99346
1100.078, 33.77525
1100.560, 33.77822
1101.042, 34.12295
1101.524, 34.36048
1102.006, 34.42651
1102.489, 34.40106
1102.971, 34.32516
1103.453, 34.24523
1103.935, 34.26487
1104.417, 34.38754
1104.899, 34.42051
1105.381, 34.23976
1105.863, 34.07585
1106.345, 33.97297
1106.828, 33.94125
1107.310, 34.02998
1107.792, 34.20958
1108.274, 34.41654
1108.756, 34.67615
1109.238, 34.78122
1109.720, 34.35739
1110.202, 34.03094
1110.685, 34.23136
1111.167, 34.85538
1111.649, 35.09616
1112.131, 34.98571
1112.613, 34.84624
1113.095, 34.82313
1113.577, 34.80075
1114.059, 34.64916
1114.542, 34.48196
1115.024, 34.42463
1115.506, 34.47558
1115.988, 34.69688
1116.470, 35.11501
1116.952, 35.43556
1117.434, 35.36379
1117.916, 35.16976
1118.398, 35.16088
1118.880, 35.26123
1119.363, 35.27146
1119.845, 35.05172
1120.327, 35.01002
1120.809, 35.22762
1121.291, 35.45193
1121.773, 35.40135
1122.255, 35.19750
1122.737, 35.01204
1123.220, 34.86675
1123.702, 34.81778
1124.184, 34.90666
1124.666, 35.08370
1125.148, 35.38192
1125.630, 35.70369
1126.112, 35.91090
1126.594, 36.01091
1127.077, 36.00650
1127.559, 35.89500
1128.041, 35.77267
1128.523, 35.58751
1129.005, 35.52616
1129.487, 35.74003
1129.969, 36.09285
1130.451, 36.13218
1130.933, 35.89695
1131.416, 35.67036
1131.898, 35.50158
1132.380, 35.45084
1132.862, 35.72180
1133.344, 35.98817
1133.826, 35.91759
1134.308, 35.54065
1134.790, 35.56241
1135.272, 35.99456
1135.755, 36.33760
1136.237, 36.35770
1136.719, 36.26812
1137.201, 36.19092
1137.683, 36.16143
1138.165, 36.25296
1138.647, 36.52008
1139.129, 36.66179
1139.612, 36.67062
1140.094, 36.60554
1140.576, 36.42030
1141.058, 36.25212
1141.540, 36.31069
1142.022, 36.51469
1142.504, 36.69618
1142.986, 36.90093
1143.469, 36.89010
1143.951, 36.57862
1144.433, 36.29366
1144.915, 36.37306
1145.397, 36.64391
1145.879, 36.80556
1146.361, 36.87080
1146.843, 36.93287
1147.325, 37.09570
1147.807, 37.13287
1148.290, 36.96783
1148.772, 36.76112
1149.254, 36.70824
1149.736, 36.76874
1150.218, 36.85405
1150.700, 36.95304
1151.182, 37.02502
1151.664, 37.04617
1152.147, 37.03828
1152.629, 36.98233
1153.111, 36.93017
1153.593, 37.01117
1154.075, 37.18395
1154.557, 37.26825
1155.039, 37.23109
1155.521, 37.21132
1156.004, 37.28083
1156.486, 37.39685
1156.968, 37.56786
1157.450, 37.75153
1157.932, 37.81824
1158.414, 37.77637
1158.896, 37.65377
1159.378, 37.42150
1159.860, 37.29119
1160.343, 37.54083
1160.825, 37.81997
1161.307, 37.85142
1161.789, 37.68010
1162.271, 37.68106
1162.753, 37.84635
1163.235, 37.99852
1163.717, 38.08647
1164.199, 38.11132
1164.682, 37.95879
1165.164, 37.82356
1165.646, 37.93814
1166.128, 38.32098
1166.610, 38.53920
1167.092, 38.58653
1167.574, 38.58529
1168.056, 38.57186
1168.539, 38.56846
1169.021, 38.56851
1169.503, 38.60425
1169.985, 38.74610
1170.467, 39.04806
1170.949, 39.19139
1171.431, 39.16246
1171.913, 39.09378
1172.396, 38.98523
1172.878, 38.95673
1173.360, 39.23352
1173.842, 39.65626
1174.324, 39.91169
1174.806, 39.91737
1175.288, 39.92093
1175.770, 39.93592
1176.252, 39.89967
1176.734, 39.68658
1177.217, 39.44975
1177.699, 39.37160
1178.181, 39.42892
1178.663, 39.55869
1179.145, 39.79805
1179.627, 39.98727
1180.109, 40.11363
1180.591, 40.19327
1181.074, 40.22933
1181.556, 40.23473
1182.038, 40.21827
1182.520, 40.18642
1183.002, 40.16164
1183.484, 40.12619
1183.966, 40.14929
1184.448, 40.24979
1184.931, 40.38094
1185.413, 40.54855
1185.895, 40.68245
1186.377, 40.56660
1186.859, 40.24805
1187.341, 40.23998
1187.823, 40.92776
1188.305, 41.31186
1188.787, 41.12382
1189.270, 40.76311
1189.752, 40.81277
1190.234, 41.05896
1190.716, 41.12066
1191.198, 40.96381
1191.680, 40.83760
1192.162, 40.73984
1192.644, 40.79801
1193.126, 41.10270
1193.609, 41.46084
1194.091, 41.52097
1194.573, 41.42100
1195.055, 41.41955
1195.537, 41.56059
1196.019, 41.67329
1196.501, 41.69997
1196.983, 41.73180
1197.466, 41.79604
1197.948, 41.87886
1198.430, 41.96019
1198.912, 42.04002
1199.394, 42.12962
1199.876, 42.23822
1200.358, 42.27302
1200.840, 42.07509
1201.323, 42.07977
1201.805, 42.56249
1202.287, 43.17649
1202.769, 43.07328
1203.251, 42.57777
1203.733, 42.40890
1204.215, 42.81160
1204.697, 43.14168
1205.179, 43.31108
1205.661, 43.34708
1206.144, 43.19481
1206.626, 42.99133
1207.108, 43.08875
1207.590, 43.37030
1208.072, 43.58747
1208.554, 43.66186
1209.036, 43.69850
1209.518, 43.72097
1210.001, 43.68983
1210.483, 43.51649
1210.965, 43.33808
1211.447, 43.55546
1211.929, 44.01721
1212.411, 44.40830
1212.893, 44.65223
1213.375, 44.75861
1213.858, 44.67100
1214.340, 44.59068
1214.822, 44.64266
1215.304, 44.77189
1215.786, 44.86177
1216.268, 44.92025
1216.750, 44.95739
1217.232, 44.94188
1217.714, 44.98869
1218.197, 45.13200
1218.679, 45.27633
1219.161, 45.33301
1219.643, 45.36833
1220.125, 45.56911
1220.607, 45.85999
1221.089, 46.06792
1221.571, 46.10283
1222.053, 46.11367
1222.536, 46.10123
1223.018, 46.08604
1223.500, 46.06602
1223.982, 46.06311
1224.464, 46.16919
1224.946, 46.32051
1225.428, 46.37045
1225.910, 46.10500
1226.393, 46.04397
1226.875, 46.23944
1227.357, 46.49871
1227.839, 46.73674
1228.321, 46.91240
1228.803, 46.88118
1229.285, 46.74777
1229.767, 46.75720
1230.250, 47.05272
1230.732, 47.33690
1231.214, 47.62467
1231.696, 47.83280
1232.178, 47.84998
1232.660, 47.78271
1233.142, 47.69672
1233.624, 47.65473
1234.106, 47.82588
1234.589, 48.39694
1235.071, 48.74386
1235.553, 48.84441
1236.035, 48.76324
1236.517, 48.36158
1236.999, 47.95911
1237.481, 47.94527
1237.963, 48.21513
1238.445, 48.55154
1238.928, 49.01719
1239.410, 49.20364
1239.892, 49.06294
1240.374, 48.95818
1240.856, 49.32796
1241.338, 49.70911
1241.820, 49.57434
1242.302, 49.16878
1242.785, 49.01249
1243.267, 49.15175
1243.749, 49.40688
1244.231, 49.77851
1244.713, 50.09901
1245.195, 50.26244
1245.677, 50.31389
1246.159, 50.13922
1246.641, 49.93927
1247.124, 50.13012
1247.606, 50.78119
1248.088, 50.90703
1248.570, 50.47398
1249.052, 50.11418
1249.534, 50.26573
1250.016, 50.59969
1250.498, 51.11080
1250.980, 51.56629
1251.463, 51.57639
1251.945, 51.15227
1252.427, 51.14476
1252.909, 51.54906
1253.391, 51.91685
1253.873, 51.88366
1254.355, 51.85989
1254.837, 52.03333
1255.320, 52.29980
1255.802, 52.59458
1256.284, 52.89172
1256.766, 52.97796
1257.248, 52.87463
1257.730, 52.79668
1258.212, 52.97503
1258.694, 53.00771
1259.177, 52.64193
1259.659, 52.31223
1260.141, 52.57253
1260.623, 53.23193
1261.105, 53.67937
1261.587, 53.91517
1262.069, 54.05986
1262.551, 54.02649
1263.033, 54.12251
1263.516, 54.45093
1263.998, 54.77185
1264.480, 54.82655
1264.962, 54.71436
1265.444, 54.57228
1265.926, 54.44337
1266.408, 54.45506
1266.890, 54.70314
1267.372, 55.00245
1267.855, 55.37191
1268.337, 55.69778
1268.819, 55.92628
1269.301, 56.02543
1269.783, 55.80647
1270.265, 55.43268
1270.747, 55.38382
1271.229, 55.84877
1271.712, 56.09893
1272.194, 56.06824
1272.676, 56.09077
1273.158, 56.55396
1273.640, 57.07299
1274.122, 57.27972
1274.604, 57.28083
1275.086, 57.30708
1275.568, 57.38301
1276.051, 57.28638
1276.533, 57.00885
1277.015, 56.96329
1277.497, 57.77650
1277.979, 58.51084
1278.461, 58.44746
1278.943, 58.06571
1279.425, 57.96183
1279.907, 58.12992
1280.390, 58.22673
1280.872, 58.25838
1281.354, 58.31746
1281.836, 58.50263
1282.318, 58.66164
1282.800, 58.72290
1283.282, 58.75590
1283.764, 58.82428
1284.247, 58.91516
1284.729, 58.91427
1285.211, 58.86718
1285.693, 58.94670
1286.175, 59.39751
1286.657, 59.71212
1287.139, 59.80333
1287.621, 59.82084
1288.104, 59.91016
1288.586, 59.98865
1289.068, 59.78379
1289.550, 59.44196
1290.032, 59.29875
1290.514, 59.46709
1290.996, 59.88808
1291.478, 60.67183
1291.960, 61.25500
1292.443, 61.17541
1292.925, 60.82142
1293.407, 60.58587
1293.889, 60.43821
1294.371, 60.33285
1294.853, 60.25520
1295.335, 60.26145
1295.817, 60.35318
1296.299, 60.45045
1296.782, 60.50686
1297.264, 60.56132
1297.746, 60.64127
1298.228, 60.73833
1298.710, 60.87494
1299.192, 61.04128
1299.674, 60.97880
1300.156, 60.72971
1300.639, 60.55493
1301.121, 60.55882
1301.603, 60.65690
1302.085, 61.00327
1302.567, 61.24516
1303.049, 61.22022
1303.531, 60.91766
##END=



