##NAMES=Leucite
##RRUFFID=R060300
##IDEAL CHEMISTRY=K(Si_2_Al)O_6_
##LOCALITY=Alban Hills, Rome Province, Latium, Italy
##OWNER=RRUFF
##SOURCE=Herb Obodda
##DESCRIPTION=Colorless complete pseudocubic crystal showing trapezohedral faces
##STATUS=The identification of this mineral has been confirmed by X-ray diffraction and chemical analysis
##URL=rruff.info/R060300
##MEASURED CHEMISTRY=(K_0.98_Na_0.02_)_Î£=1_Al_1.00_Si_2.00_O_6_
91.53320, 313.7232
92.01532, 310.3528
92.49744, 308.3417
92.97955, 313.1640
93.46167, 319.5550
93.94379, 322.1210
94.42590, 322.5865
94.90802, 321.6840
95.39014, 319.2278
95.87225, 314.9419
96.35437, 310.5256
96.83649, 307.0591
97.31860, 304.0074
97.80072, 300.7875
98.28284, 296.8124
98.76495, 291.9398
99.24707, 286.8177
99.72919, 280.8963
100.2113, 275.4266
100.6934, 270.6392
101.1755, 266.4410
101.6577, 262.6691
102.1398, 259.0767
102.6219, 255.4879
103.1040, 253.0080
103.5861, 252.3046
104.0682, 251.7875
104.5504, 250.4082
105.0325, 248.0771
105.5146, 245.5998
105.9967, 244.1109
106.4788, 244.0238
106.9609, 243.8552
107.4431, 243.3106
107.9252, 242.6776
108.4073, 242.3573
108.8894, 242.4966
109.3715, 242.9476
109.8536, 243.4083
110.3358, 243.8026
110.8179, 244.4311
111.3000, 245.3629
111.7821, 246.6138
112.2642, 248.3992
112.7463, 251.2938
113.2285, 254.4944
113.7106, 257.2159
114.1927, 259.2808
114.6748, 260.9468
115.1569, 262.6195
115.6390, 264.5475
116.1212, 265.8167
116.6033, 266.3473
117.0854, 266.1469
117.5675, 265.1337
118.0496, 263.2244
118.5317, 260.5260
119.0139, 257.5851
119.4960, 254.4311
119.9781, 250.9446
120.4602, 246.8281
120.9423, 242.3568
121.4244, 238.0222
121.9066, 234.2203
122.3887, 230.9983
122.8708, 227.5377
123.3529, 223.3325
123.8350, 219.3628
124.3171, 216.0110
124.7993, 213.3252
125.2814, 211.2363
125.7635, 209.6470
126.2456, 208.6281
126.7277, 208.3329
127.2098, 209.2918
127.6920, 210.7399
128.1741, 211.7623
128.6562, 212.0765
129.1383, 212.4406
129.6204, 213.8575
130.1025, 216.1841
130.5847, 218.9233
131.0668, 222.2783
131.5489, 225.9781
132.0310, 228.9366
132.5131, 230.2177
132.9952, 231.5363
133.4774, 234.3755
133.9595, 238.7550
134.4416, 243.7035
134.9237, 248.5238
135.4058, 253.2703
135.8879, 257.6626
136.3701, 261.2718
136.8522, 264.7341
137.3343, 268.4586
137.8164, 272.5612
138.2985, 276.7120
138.7806, 280.2886
139.2628, 282.5608
139.7449, 285.6534
140.2270, 290.2841
140.7091, 295.4453
141.1912, 300.1836
141.6733, 304.0482
142.1555, 307.3963
142.6376, 311.3952
143.1197, 317.0674
143.6018, 322.2793
144.0839, 326.4837
144.5660, 330.1133
145.0482, 334.0279
145.5303, 338.8522
146.0124, 344.2679
146.4945, 347.9570
146.9766, 348.7117
147.4587, 349.3354
147.9409, 351.1640
148.4230, 353.9764
148.9051, 356.6598
149.3872, 358.5879
149.8693, 359.6518
150.3514, 360.1077
150.8336, 359.6266
151.3157, 358.7415
151.7978, 357.9560
152.2799, 357.3135
152.7620, 356.4947
153.2441, 355.3350
153.7263, 353.8309
154.2084, 351.8179
154.6905, 349.0165
155.1726, 345.7150
155.6547, 342.5400
156.1368, 339.6201
156.6190, 336.6107
157.1011, 333.5669
157.5832, 330.3272
158.0653, 326.4802
158.5474, 321.4166
159.0295, 315.2843
159.5117, 310.0980
159.9938, 306.7518
160.4759, 303.5157
160.9580, 299.8795
161.4401, 295.8475
161.9222, 291.5866
162.4044, 287.1974
162.8865, 282.5880
163.3686, 278.2512
163.8507, 274.1339
164.3328, 270.2747
164.8149, 266.7101
165.2971, 263.4215
165.7792, 260.4516
166.2613, 257.8369
166.7434, 255.7144
167.2255, 253.6326
167.7076, 251.1719
168.1898, 249.0072
168.6719, 247.5726
169.1540, 246.9625
169.6361, 247.0809
170.1182, 247.8530
170.6003, 249.5358
171.0825, 251.3208
171.5646, 252.8195
172.0467, 254.5390
172.5288, 257.1024
173.0109, 260.7155
173.4930, 265.0121
173.9752, 269.5132
174.4573, 274.1537
174.9394, 279.1294
175.4215, 284.8090
175.9036, 290.8877
176.3857, 296.6440
176.8679, 301.9228
177.3500, 306.7985
177.8321, 311.5803
178.3142, 316.3830
178.7963, 320.4490
179.2784, 323.1861
179.7606, 324.7127
180.2427, 325.8319
180.7248, 326.9564
181.2069, 327.4697
181.6890, 327.0222
182.1711, 325.5848
182.6533, 323.1089
183.1354, 319.2508
183.6175, 313.8307
184.0996, 308.4584
184.5817, 303.8587
185.0638, 299.1761
185.5460, 293.8972
186.0281, 287.9135
186.5102, 281.5103
186.9923, 274.9665
187.4744, 268.0482
187.9565, 261.6490
188.4387, 256.0598
188.9208, 250.8201
189.4029, 245.7051
189.8850, 240.6038
190.3671, 235.5195
190.8492, 230.3217
191.3314, 224.7166
191.8135, 219.5874
192.2956, 215.2831
192.7777, 211.2878
193.2598, 207.1192
193.7419, 202.6049
194.2241, 197.9444
194.7062, 193.6271
195.1883, 190.0445
195.6704, 186.3574
196.1525, 182.1321
196.6346, 177.9400
197.1168, 174.5064
197.5989, 172.1610
198.0810, 170.5943
198.5631, 168.9499
199.0452, 167.4944
199.5273, 165.6283
200.0095, 162.7251
200.4916, 159.4212
200.9737, 156.8123
201.4558, 155.4583
201.9379, 154.9290
202.4200, 153.9523
202.9022, 152.3497
203.3843, 150.7375
203.8664, 149.1320
204.3485, 147.6520
204.8306, 146.6905
205.3127, 146.5469
205.7949, 146.9006
206.2770, 147.0676
206.7591, 147.1632
207.2412, 146.8816
207.7233, 145.6902
208.2054, 143.7789
208.6876, 142.4018
209.1697, 142.3477
209.6518, 142.9079
210.1339, 142.9501
210.6160, 142.2862
211.0981, 141.5309
211.5803, 141.3533
212.0624, 141.7576
212.5445, 141.7061
213.0266, 140.4563
213.5087, 138.7939
213.9908, 137.4464
214.4730, 136.5520
214.9551, 135.8211
215.4372, 135.0187
215.9193, 134.1630
216.4014, 133.1031
216.8836, 131.6067
217.3657, 129.9829
217.8478, 128.4153
218.3299, 126.9554
218.8120, 125.5240
219.2941, 124.0369
219.7763, 122.5006
220.2584, 120.8828
220.7405, 119.1683
221.2226, 117.3728
221.7047, 115.5046
222.1868, 113.5647
222.6690, 111.5380
223.1511, 109.3487
223.6332, 106.7746
224.1153, 104.5408
224.5974, 102.6790
225.0795, 101.1423
225.5617, 100.0762
226.0438, 99.46764
226.5259, 98.93640
227.0080, 97.77505
227.4901, 95.49854
227.9722, 93.46491
228.4544, 91.81505
228.9365, 90.33331
229.4186, 88.92710
229.9007, 87.55193
230.3828, 86.13881
230.8649, 84.55180
231.3471, 82.35703
231.8292, 80.71851
232.3113, 79.97371
232.7934, 79.53628
233.2755, 78.97828
233.7576, 78.16920
234.2398, 77.16074
234.7219, 76.02778
235.2040, 74.47789
235.6861, 73.36546
236.1682, 72.99590
236.6503, 72.88583
237.1325, 72.64780
237.6146, 72.17313
238.0967, 71.51221
238.5788, 70.69685
239.0609, 69.51334
239.5430, 68.72731
240.0252, 68.77277
240.5073, 69.03148
240.9894, 68.87065
241.4715, 68.13947
241.9536, 67.14272
242.4357, 66.20635
242.9179, 65.27073
243.4000, 64.72513
243.8821, 65.01181
244.3642, 65.52364
244.8463, 65.53222
245.3284, 64.87432
245.8106, 64.05181
246.2927, 63.66742
246.7748, 63.73585
247.2569, 63.77845
247.7390, 63.58018
248.2211, 63.38291
248.7033, 63.60039
249.1854, 64.35420
249.6675, 65.04777
250.1496, 64.91287
250.6317, 64.08776
251.1138, 63.50619
251.5960, 63.47007
252.0781, 63.73181
252.5602, 63.99633
253.0423, 64.23771
253.5244, 64.47578
254.0065, 64.78773
254.4887, 65.11881
254.9708, 65.28662
255.4529, 65.01133
255.9350, 64.64072
256.4171, 64.71866
256.8992, 65.34216
257.3813, 66.03957
257.8635, 66.54713
258.3456, 66.89484
258.8277, 67.08994
259.3098, 67.01303
259.7919, 66.85293
260.2740, 66.93326
260.7562, 67.32935
261.2383, 67.63846
261.7204, 67.46207
262.2025, 67.10033
262.6846, 66.92148
263.1667, 67.06522
263.6489, 67.39375
264.1310, 67.79017
264.6131, 68.31851
265.0952, 68.63380
265.5773, 68.35572
266.0594, 67.87176
266.5416, 67.52052
267.0237, 67.38835
267.5058, 67.42777
267.9879, 67.64246
268.4700, 68.09877
268.9521, 68.42181
269.4343, 68.29996
269.9164, 68.08801
270.3985, 68.06802
270.8806, 68.31730
271.3627, 68.66444
271.8448, 68.95029
272.3270, 69.20551
272.8091, 69.24242
273.2912, 68.71839
273.7733, 68.14265
274.2554, 67.84441
274.7375, 67.87466
275.2197, 68.02904
275.7018, 68.13868
276.1839, 68.22961
276.6660, 68.10123
277.1481, 67.25656
277.6302, 66.52716
278.1124, 66.42117
278.5945, 66.92857
279.0766, 67.61489
279.5587, 68.05147
280.0408, 68.20545
280.5229, 68.41821
281.0051, 68.55617
281.4872, 68.89893
281.9693, 69.77481
282.4514, 71.02237
282.9335, 72.11935
283.4156, 72.51418
283.8978, 72.18533
284.3799, 72.18222
284.8620, 72.85350
285.3441, 73.52098
285.8262, 73.79248
286.3083, 73.87056
286.7905, 74.22859
287.2726, 75.26711
287.7547, 76.90146
288.2368, 78.28734
288.7189, 79.06977
289.2010, 80.02676
289.6832, 81.54082
290.1653, 83.31885
290.6474, 84.89876
291.1295, 85.97457
291.6116, 86.70591
292.0938, 87.72640
292.5759, 89.09776
293.0580, 90.71230
293.5401, 92.67649
294.0222, 94.79640
294.5043, 96.91402
294.9865, 98.97086
295.4686, 100.8579
295.9507, 102.2322
296.4328, 102.5374
296.9149, 103.3363
297.3970, 105.1935
297.8792, 107.3364
298.3613, 109.1488
298.8434, 110.4349
299.3255, 111.3141
299.8076, 111.9562
300.2897, 112.2901
300.7719, 112.5290
301.2540, 112.7184
301.7361, 112.8104
302.2182, 112.8196
302.7003, 112.7234
303.1824, 112.4319
303.6646, 111.8248
304.1467, 110.8620
304.6288, 109.7170
305.1109, 108.1263
305.5930, 106.5853
306.0751, 105.4088
306.5573, 104.5299
307.0394, 103.6366
307.5215, 102.4368
308.0036, 100.8988
308.4857, 99.41065
308.9678, 97.77779
309.4500, 96.38980
309.9321, 95.60022
310.4142, 95.13869
310.8963, 94.44956
311.3784, 93.11404
311.8605, 91.23730
312.3427, 89.67094
312.8248, 88.44700
313.3069, 87.53244
313.7890, 87.22908
314.2711, 87.13064
314.7532, 86.65703
315.2354, 85.50630
315.7175, 83.97609
316.1996, 82.96680
316.6817, 82.96506
317.1638, 82.72050
317.6459, 82.01891
318.1281, 81.08549
318.6102, 80.01038
319.0923, 78.85325
319.5744, 77.83042
320.0565, 77.35472
320.5386, 77.73479
321.0208, 77.96054
321.5029, 77.79707
321.9850, 77.63745
322.4671, 77.89195
322.9492, 78.50891
323.4313, 78.95448
323.9135, 78.51554
324.3956, 76.90179
324.8777, 75.88685
325.3598, 76.06467
325.8419, 76.28889
326.3240, 76.05946
326.8062, 75.48589
327.2883, 74.98788
327.7704, 74.92235
328.2525, 75.25554
328.7346, 75.36269
329.2167, 74.77308
329.6989, 74.50253
330.1810, 75.10526
330.6631, 76.10994
331.1452, 76.74294
331.6273, 76.53541
332.1094, 75.86911
332.5916, 76.02400
333.0737, 77.84335
333.5558, 79.02762
334.0379, 78.85660
334.5200, 78.14530
335.0021, 77.64291
335.4843, 77.59206
335.9664, 77.72202
336.4485, 77.59010
336.9306, 77.09749
337.4127, 76.63287
337.8948, 76.16504
338.3770, 75.78374
338.8591, 75.57217
339.3412, 75.52100
339.8233, 75.53365
340.3055, 75.52140
340.7876, 75.48237
341.2697, 75.45403
341.7518, 75.94369
342.2339, 75.90229
342.7160, 74.53912
343.1982, 72.29822
343.6803, 70.23550
344.1624, 69.07268
344.6445, 68.66103
345.1266, 68.26643
345.6087, 67.86817
346.0909, 67.52733
346.5730, 67.33469
347.0551, 67.17744
347.5372, 66.90522
348.0193, 66.44130
348.5014, 65.88015
348.9836, 65.35749
349.4657, 64.84201
349.9478, 64.48112
350.4299, 64.67136
350.9120, 64.81043
351.3941, 64.28915
351.8763, 63.01655
352.3584, 61.74238
352.8405, 61.32073
353.3226, 61.77531
353.8047, 62.16310
354.2868, 62.37232
354.7690, 62.46980
355.2511, 62.36338
355.7332, 62.14254
356.2153, 62.15472
356.6974, 62.90870
357.1795, 64.12407
357.6617, 64.60767
358.1438, 63.99426
358.6259, 63.37519
359.1080, 63.40178
359.5901, 63.82090
360.0722, 64.26936
360.5544, 64.69417
361.0365, 65.00388
361.5186, 65.00663
362.0007, 64.65660
362.4828, 64.35290
362.9649, 64.19096
363.4471, 64.20844
363.9292, 64.47672
364.4113, 65.04488
364.8934, 65.68111
365.3755, 66.31150
365.8576, 66.89555
366.3398, 67.19726
366.8219, 67.11657
367.3040, 66.79256
367.7861, 66.23028
368.2682, 65.46712
368.7503, 65.01568
369.2325, 65.28050
369.7146, 65.92753
370.1967, 66.44663
370.6788, 66.81416
371.1609, 66.92287
371.6430, 66.50955
372.1252, 65.74962
372.6073, 65.24290
373.0894, 65.22547
373.5715, 65.36179
374.0536, 65.34220
374.5357, 65.21372
375.0179, 65.31559
375.5000, 65.95259
375.9821, 66.78655
376.4642, 67.01321
376.9463, 66.47206
377.4284, 65.80053
377.9106, 64.92059
378.3927, 64.13024
378.8748, 64.10887
379.3569, 65.10799
379.8390, 66.33832
380.3211, 66.73360
380.8033, 66.10122
381.2854, 65.73809
381.7675, 66.06750
382.2496, 66.46011
382.7317, 66.23866
383.2138, 65.47293
383.6960, 64.95361
384.1781, 65.32634
384.6602, 66.51820
385.1423, 67.43489
385.6244, 68.15545
386.1065, 68.57670
386.5887, 68.32644
387.0708, 67.81090
387.5529, 67.83240
388.0350, 68.77180
388.5171, 70.07877
388.9992, 70.53568
389.4814, 69.34167
389.9635, 68.47640
390.4456, 68.02531
390.9277, 67.83885
391.4098, 67.93387
391.8919, 68.23442
392.3741, 68.44753
392.8562, 68.23981
393.3383, 67.53555
393.8204, 66.98469
394.3025, 66.50282
394.7846, 66.24683
395.2668, 66.51287
395.7489, 67.01954
396.2310, 67.22831
396.7131, 66.79774
397.1952, 65.94908
397.6773, 65.47996
398.1595, 65.78645
398.6416, 65.81202
399.1237, 65.28688
399.6058, 64.54320
400.0879, 63.79069
400.5700, 63.10522
401.0522, 62.56201
401.5343, 62.32209
402.0164, 62.47223
402.4985, 62.40356
402.9806, 61.62376
403.4627, 61.07925
403.9449, 61.48501
404.4270, 62.48244
404.9091, 63.11336
405.3912, 62.64933
405.8733, 61.45665
406.3554, 60.67585
406.8376, 60.39101
407.3197, 60.30196
407.8018, 60.37661
408.2839, 60.54107
408.7660, 60.73992
409.2481, 60.96992
409.7303, 61.18976
410.2124, 61.29253
410.6945, 61.29757
411.1766, 61.54529
411.6587, 62.30971
412.1408, 63.07656
412.6230, 63.23485
413.1051, 62.88403
413.5872, 62.77674
414.0693, 63.45409
414.5514, 64.48594
415.0335, 65.09840
415.5157, 65.19965
415.9978, 65.43135
416.4799, 66.24796
416.9620, 67.52090
417.4441, 68.76981
417.9262, 69.90907
418.4084, 71.11598
418.8905, 72.73335
419.3726, 74.50313
419.8547, 75.64514
420.3368, 75.79345
420.8189, 75.54919
421.3011, 75.87997
421.7832, 76.90409
422.2653, 77.95675
422.7474, 79.08862
423.2295, 80.14039
423.7116, 80.83642
424.1938, 81.23827
424.6759, 81.83950
425.1580, 83.07539
425.6401, 84.89771
426.1222, 86.44714
426.6043, 87.60273
427.0865, 88.67119
427.5686, 89.77548
428.0507, 90.82640
428.5328, 91.67563
429.0149, 92.27060
429.4970, 92.72031
429.9792, 93.26746
430.4613, 94.26488
430.9434, 94.54676
431.4255, 93.64966
431.9076, 92.57898
432.3897, 91.79279
432.8719, 91.34132
433.3540, 91.18998
433.8361, 91.45858
434.3182, 91.97667
434.8003, 91.41245
435.2824, 88.93739
435.7646, 86.62202
436.2467, 84.98550
436.7288, 83.75113
437.2109, 82.69851
437.6930, 81.76074
438.1751, 80.82096
438.6573, 79.68932
439.1394, 78.34563
439.6215, 77.08568
440.1036, 75.86600
440.5857, 74.84409
441.0678, 74.14265
441.5500, 73.71203
442.0321, 73.36203
442.5142, 72.93588
442.9963, 72.55132
443.4784, 72.50787
443.9605, 72.86543
444.4427, 73.08426
444.9248, 72.74749
445.4069, 72.17883
445.8890, 71.96692
446.3711, 72.25307
446.8532, 72.56547
447.3354, 72.63913
447.8175, 72.55213
448.2996, 72.39224
448.7817, 72.13611
449.2638, 72.09087
449.7459, 72.69308
450.2281, 73.99374
450.7102, 75.01541
451.1923, 75.40511
451.6744, 75.78857
452.1565, 76.60929
452.6386, 77.76235
453.1208, 78.83974
453.6029, 79.60741
454.0850, 80.24947
454.5671, 81.27708
455.0492, 82.89073
455.5313, 84.65665
456.0135, 86.86935
456.4956, 89.03259
456.9777, 90.61903
457.4598, 91.65588
457.9419, 92.73373
458.4240, 94.45794
458.9062, 96.83774
459.3883, 99.00970
459.8704, 100.7177
460.3525, 102.5137
460.8346, 104.6774
461.3167, 106.9373
461.7989, 108.7966
462.2810, 110.0615
462.7631, 111.3691
463.2452, 113.8649
463.7273, 117.7960
464.2094, 121.4311
464.6916, 124.1482
465.1737, 126.9056
465.6558, 130.2339
466.1379, 134.0690
466.6200, 138.1223
467.1021, 141.9599
467.5843, 146.0427
468.0664, 151.4124
468.5485, 158.2319
469.0306, 165.2898
469.5127, 171.7580
469.9948, 178.3810
470.4770, 186.1686
470.9591, 195.3415
471.4412, 204.9825
471.9233, 214.4487
472.4054, 224.1329
472.8875, 234.6913
473.3697, 246.2551
473.8518, 258.5008
474.3339, 271.0823
474.8160, 284.0432
475.2981, 298.0479
475.7802, 313.4424
476.2624, 329.4153
476.7445, 345.8433
477.2266, 362.6382
477.7087, 379.5194
478.1908, 396.5069
478.6729, 413.6426
479.1551, 430.9507
479.6372, 448.6077
480.1193, 466.1620
480.6014, 483.7371
481.0835, 501.1883
481.5656, 518.5104
482.0478, 535.5958
482.5299, 552.3385
483.0120, 568.7209
483.4941, 584.5592
483.9762, 598.4445
484.4583, 609.2880
484.9405, 620.3781
485.4226, 632.6187
485.9047, 645.2040
486.3868, 657.2772
486.8689, 668.8159
487.3510, 680.5741
487.8332, 693.0565
488.3153, 706.2120
488.7974, 720.3428
489.2795, 735.7447
489.7616, 751.3664
490.2437, 766.9838
490.7259, 782.3268
491.2080, 797.0618
491.6901, 810.6926
492.1722, 824.3312
492.6543, 839.6448
493.1364, 855.5947
493.6186, 869.2270
494.1007, 879.9290
494.5828, 888.0742
495.0649, 894.2786
495.5470, 898.4791
496.0291, 899.1713
496.5113, 895.6779
496.9934, 889.2532
497.4755, 880.0366
497.9576, 868.4925
498.4397, 855.2592
498.9218, 840.6646
499.4040, 825.1970
499.8861, 810.0521
500.3682, 794.8637
500.8503, 780.9460
501.3324, 767.6516
501.8145, 755.9481
502.2967, 746.6066
502.7788, 739.3714
503.2609, 733.3451
503.7430, 727.9687
504.2251, 723.1877
504.7072, 718.8678
505.1894, 715.0530
505.6715, 711.5681
506.1536, 710.0270
506.6357, 707.7012
507.1178, 702.1467
507.5999, 693.1477
508.0821, 682.8171
508.5642, 672.9715
509.0463, 663.0179
509.5284, 650.9471
510.0105, 636.4481
510.4926, 620.7414
510.9748, 603.7939
511.4569, 586.4457
511.9390, 570.5173
512.4211, 556.3155
512.9032, 543.3643
513.3853, 531.5620
513.8674, 520.8599
514.3495, 511.3884
514.8317, 503.0902
515.3138, 495.6996
515.7959, 488.8664
516.2780, 482.5320
516.7601, 477.6420
517.2422, 474.1431
517.7244, 471.8638
518.2065, 470.8009
518.6886, 470.9002
519.1707, 472.0223
519.6528, 474.1299
520.1349, 477.4708
520.6171, 482.5670
521.0992, 489.7946
521.5813, 497.2483
522.0634, 504.2665
522.5455, 512.2428
523.0276, 522.0876
523.5098, 533.2209
523.9919, 544.5424
524.4740, 555.7027
524.9561, 566.6133
525.4382, 577.5777
525.9203, 588.5536
526.4025, 598.4824
526.8846, 607.8014
527.3667, 614.8964
527.8488, 618.3394
528.3309, 618.3911
528.8130, 616.1586
529.2952, 612.5850
529.7773, 606.4039
530.2594, 596.2641
530.7415, 582.3875
531.2236, 565.5533
531.7057, 545.8266
532.1879, 524.1246
532.6700, 502.1807
533.1521, 479.8174
533.6342, 457.2665
534.1163, 433.8864
534.5984, 410.9829
535.0806, 389.4008
535.5627, 369.0739
536.0448, 349.5197
536.5269, 330.5361
537.0090, 312.1351
537.4911, 294.6094
537.9733, 277.6044
538.4554, 261.9770
538.9375, 248.0675
539.4196, 235.2867
539.9017, 223.1583
540.3839, 211.7480
540.8660, 201.5998
541.3481, 193.3930
541.8302, 186.4816
542.3123, 179.4413
542.7944, 172.2390
543.2766, 165.2903
543.7587, 158.7092
544.2408, 152.5637
544.7229, 146.8469
545.2050, 141.5200
545.6871, 136.8458
546.1693, 133.2491
546.6514, 130.1703
547.1335, 127.0255
547.6156, 123.7879
548.0977, 120.5770
548.5798, 117.4615
549.0620, 114.4326
549.5441, 111.4880
550.0262, 108.4974
550.5083, 105.7864
550.9904, 103.4620
551.4725, 101.3337
551.9547, 99.30025
552.4368, 97.33128
552.9189, 95.40884
553.4010, 93.55810
553.8831, 91.71883
554.3652, 89.65480
554.8474, 87.28452
555.3295, 84.92119
555.8116, 82.41771
556.2937, 80.11042
556.7758, 78.37239
557.2579, 77.18607
557.7401, 76.01820
558.2222, 74.37464
558.7043, 72.62670
559.1864, 71.54972
559.6685, 71.17257
560.1506, 70.56093
560.6328, 69.17137
561.1149, 67.36637
561.5970, 65.90977
562.0791, 64.85770
562.5612, 63.90139
563.0433, 63.15017
563.5255, 62.35274
564.0076, 61.22168
564.4897, 59.81710
564.9718, 58.43257
565.4539, 57.25827
565.9360, 56.23031
566.4182, 55.11805
566.9003, 53.65168
567.3824, 52.61368
567.8645, 52.57827
568.3466, 52.49391
568.8287, 51.48320
569.3109, 49.76832
569.7930, 48.35242
570.2751, 47.98595
570.7572, 48.16247
571.2393, 47.77235
571.7214, 46.76439
572.2036, 45.82964
572.6857, 45.17900
573.1678, 44.71302
573.6499, 44.30101
574.1320, 43.94220
574.6141, 43.69749
575.0963, 43.77834
575.5784, 43.82631
576.0605, 43.53924
576.5426, 42.94896
577.0247, 42.09864
577.5068, 40.96207
577.9890, 39.88995
578.4711, 39.57806
578.9532, 40.41908
579.4353, 41.04103
579.9174, 41.47914
580.3995, 41.69641
580.8817, 41.47145
581.3638, 41.04648
581.8459, 40.92878
582.3280, 41.39301
582.8101, 41.97076
583.2922, 41.76076
583.7744, 40.68147
584.2565, 40.05804
584.7386, 40.34688
585.2207, 40.71376
585.7029, 40.48186
586.1850, 39.86878
586.6671, 39.42344
587.1492, 39.28445
587.6313, 39.33708
588.1135, 39.68895
588.5956, 40.15031
589.0777, 40.15960
589.5598, 39.56107
590.0419, 38.97886
590.5240, 39.14951
591.0062, 40.12762
591.4883, 40.56634
591.9704, 39.99681
592.4525, 39.52545
592.9346, 39.53228
593.4167, 39.72633
593.8989, 39.76025
594.3810, 39.56051
594.8631, 39.30150
595.3452, 39.16199
595.8273, 39.13152
596.3094, 39.08010
596.7916, 38.99057
597.2737, 38.92012
597.7558, 39.09707
598.2379, 39.19895
598.7200, 38.77468
599.2021, 37.71537
599.6843, 36.73445
600.1664, 36.16950
600.6485, 35.90854
601.1306, 35.85421
601.6127, 35.97633
602.0948, 36.12547
602.5770, 36.21630
603.0591, 36.27549
603.5412, 36.38284
604.0233, 36.70516
604.5054, 36.78726
604.9875, 36.42306
605.4697, 36.00337
605.9518, 35.83090
606.4339, 35.81538
606.9160, 35.64813
607.3981, 35.13293
607.8802, 34.48840
608.3624, 34.13018
608.8445, 34.07232
609.3266, 34.22399
609.8087, 34.72671
610.2908, 35.23650
610.7729, 35.59928
611.2551, 35.77954
611.7372, 35.63427
612.2193, 34.82754
612.7014, 34.05963
613.1835, 33.83018
613.6656, 34.00980
614.1478, 34.39441
614.6299, 34.92868
615.1120, 35.42360
615.5941, 35.69439
616.0762, 35.74038
616.5583, 35.64411
617.0405, 35.22954
617.5226, 34.89231
618.0047, 34.62456
618.4868, 34.50612
618.9689, 34.66144
619.4510, 35.07672
619.9332, 35.56474
620.4153, 35.97918
620.8974, 36.33925
621.3795, 36.77147
621.8616, 37.34656
622.3438, 37.59690
622.8259, 37.16536
623.3080, 36.47987
623.7901, 36.15132
624.2722, 36.20186
624.7543, 36.14215
625.2365, 35.64679
625.7186, 35.15266
626.2007, 35.07450
626.6828, 35.30404
627.1649, 35.54216
627.6470, 35.66730
628.1292, 35.62799
628.6113, 35.28539
629.0934, 34.47509
629.5755, 34.04767
630.0576, 34.60778
630.5397, 34.90801
631.0219, 34.31273
631.5040, 33.34157
631.9861, 32.71758
632.4682, 32.65324
632.9503, 32.81918
633.4324, 32.97109
633.9146, 33.11137
634.3967, 33.26732
634.8788, 33.45137
635.3609, 33.55052
635.8430, 33.49910
636.3251, 33.31553
636.8073, 33.04071
637.2894, 32.64074
637.7715, 32.24585
638.2536, 31.69972
638.7357, 31.30729
639.2178, 31.51034
639.7000, 32.08378
640.1821, 32.35439
640.6642, 31.94263
641.1463, 31.14869
641.6284, 30.52595
642.1105, 30.06143
642.5927, 29.87844
643.0748, 30.29912
643.5569, 30.60516
644.0390, 30.20325
644.5211, 29.44444
645.0032, 29.05724
645.4854, 29.30764
645.9675, 29.72064
646.4496, 30.12770
646.9317, 30.43512
647.4138, 30.30950
647.8959, 29.75188
648.3781, 29.47591
648.8602, 30.10572
649.3423, 31.36350
649.8244, 31.90686
650.3065, 31.07311
650.7886, 30.50126
651.2708, 30.43299
651.7529, 30.47201
652.2350, 30.32678
652.7171, 30.05640
653.1992, 29.89575
653.6813, 29.96740
654.1635, 30.21074
654.6456, 30.64905
655.1277, 31.24597
655.6098, 31.50346
656.0919, 31.24483
656.5740, 30.86144
657.0562, 30.62913
657.5383, 30.55964
658.0204, 30.64133
658.5025, 30.91995
658.9846, 31.29248
659.4667, 31.87412
659.9489, 32.44486
660.4310, 32.71711
660.9131, 32.70767
661.3952, 32.69327
661.8773, 32.88668
662.3594, 33.21337
662.8416, 33.42155
663.3237, 33.47815
663.8058, 33.54406
664.2879, 33.70420
664.7700, 33.82025
665.2521, 33.69360
665.7343, 33.43123
666.2164, 33.41029
666.6985, 33.93343
667.1806, 34.46523
667.6627, 34.46979
668.1448, 34.25571
668.6270, 34.51423
669.1091, 35.34541
669.5912, 36.18775
670.0733, 36.57347
670.5554, 36.52158
671.0375, 36.13575
671.5197, 34.87664
672.0018, 34.18828
672.4839, 34.78784
672.9660, 35.47584
673.4481, 35.26884
673.9302, 34.38820
674.4124, 33.79598
674.8945, 34.06706
675.3766, 34.70229
675.8587, 35.11995
676.3408, 35.35958
676.8229, 35.62184
677.3051, 35.96515
677.7872, 36.24855
678.2693, 36.36559
678.7514, 36.31469
679.2335, 36.06633
679.7156, 35.40142
680.1978, 34.85243
680.6799, 34.50285
681.1620, 34.28933
681.6441, 34.21243
682.1262, 34.22694
682.6083, 34.23515
683.0905, 34.19299
683.5726, 34.06906
684.0547, 33.77593
684.5368, 33.31493
685.0189, 32.81314
685.5010, 32.20434
685.9832, 31.77325
686.4653, 31.86022
686.9474, 32.35858
687.4295, 32.69206
687.9116, 32.97993
688.3937, 32.91845
688.8759, 32.29601
689.3580, 31.36523
689.8401, 30.14414
690.3222, 28.82153
690.8043, 27.95694
691.2864, 27.94737
691.7686, 28.48875
692.2507, 28.89615
692.7328, 29.17170
693.2149, 29.30021
693.6970, 29.27125
694.1791, 29.10392
694.6613, 28.64339
695.1434, 28.07352
695.6255, 27.86186
696.1076, 28.37298
696.5897, 28.64621
697.0718, 27.95163
697.5540, 26.95032
698.0361, 26.41183
698.5182, 26.38274
699.0003, 26.63164
699.4824, 27.05516
699.9645, 27.45065
700.4467, 27.20863
700.9288, 26.01781
701.4109, 25.36783
701.8930, 25.69526
702.3751, 26.15195
702.8572, 26.25614
703.3394, 26.22001
703.8215, 26.47204
704.3036, 27.21384
704.7857, 27.76464
705.2678, 27.52511
705.7499, 26.97058
706.2321, 26.75830
706.7142, 26.88633
707.1963, 27.00410
707.6784, 26.92350
708.1605, 26.76522
708.6426, 26.77906
709.1248, 27.02773
709.6069, 27.22593
710.0890, 27.39855
710.5711, 27.48702
711.0532, 27.37949
711.5353, 27.22090
712.0175, 27.22563
712.4996, 27.44291
712.9817, 27.63679
713.4638, 27.58283
713.9459, 27.46522
714.4280, 27.57901
714.9102, 27.88684
715.3923, 28.14224
715.8744, 28.23716
716.3565, 28.26363
716.8386, 28.35615
717.3207, 28.52316
717.8029, 28.69392
718.2850, 29.05775
718.7671, 29.17674
719.2492, 28.73833
719.7313, 28.14918
720.2134, 27.77566
720.6956, 27.67183
721.1777, 27.73719
721.6598, 28.20390
722.1419, 28.60948
722.6240, 28.11684
723.1061, 26.99153
723.5883, 26.34742
724.0704, 26.53162
724.5525, 26.97360
725.0346, 27.09159
725.5167, 26.89162
725.9988, 26.62494
726.4810, 25.99488
726.9631, 25.73786
727.4452, 26.40586
727.9273, 27.08398
728.4094, 26.88845
728.8915, 26.03198
729.3737, 25.51181
729.8558, 25.90869
730.3379, 26.61986
730.8200, 27.14495
731.3021, 27.46159
731.7842, 27.39913
732.2664, 26.93889
732.7485, 26.58177
733.2306, 26.75942
733.7127, 27.27706
734.1948, 27.33836
734.6769, 26.48698
735.1591, 26.01339
735.6412, 26.27887
736.1233, 26.57077
736.6054, 26.50664
737.0875, 26.21442
737.5696, 25.95122
738.0518, 25.78749
738.5339, 25.71939
739.0160, 25.78430
739.4981, 25.92627
739.9802, 26.06322
740.4623, 26.18237
740.9445, 26.25724
741.4266, 26.27921
741.9087, 26.22593
742.3908, 26.05158
742.8729, 25.73257
743.3550, 25.38973
743.8372, 24.99758
744.3193, 24.61167
744.8014, 24.28454
745.2835, 23.94962
745.7656, 23.43065
746.2477, 22.73687
746.7299, 22.33055
747.2120, 22.66781
747.6941, 23.26995
748.1762, 23.68285
748.6583, 23.89327
749.1404, 23.85599
749.6226, 23.56165
750.1047, 23.11559
750.5868, 22.58920
751.0689, 22.01019
751.5510, 21.67520
752.0331, 21.71706
752.5153, 21.75067
752.9974, 21.78579
753.4795, 21.73105
753.9616, 21.46766
754.4437, 21.06056
754.9258, 20.70594
755.4080, 20.43183
755.8901, 20.28158
756.3722, 20.40949
756.8543, 20.62045
757.3364, 20.50891
757.8185, 20.12671
758.3007, 20.03436
758.7828, 20.60831
759.2649, 21.44249
759.7470, 21.61302
760.2291, 20.95010
760.7112, 20.43015
761.1934, 20.00302
761.6755, 19.83173
762.1576, 20.19428
762.6397, 20.75965
763.1218, 21.14056
763.6039, 21.30577
764.0861, 21.29664
764.5682, 21.00845
765.0503, 20.66132
765.5324, 20.38741
766.0145, 20.19606
766.4966, 20.07734
766.9788, 20.03080
767.4609, 20.07673
767.9430, 20.24316
768.4251, 20.51662
768.9072, 20.87515
769.3893, 21.37257
769.8715, 21.65327
770.3536, 21.54238
770.8357, 21.31251
771.3178, 21.19764
771.7999, 21.18041
772.2820, 21.17196
772.7642, 21.16586
773.2463, 21.16998
773.7284, 21.25477
774.2105, 21.29789
774.6926, 20.96352
775.1747, 20.48849
775.6569, 20.70420
776.1390, 22.10705
776.6211, 23.54972
777.1032, 23.16588
777.5853, 21.33210
778.0674, 20.15062
778.5496, 19.77607
779.0317, 20.07064
779.5138, 21.23188
779.9959, 22.62761
780.4780, 23.11637
780.9601, 22.45067
781.4423, 21.83976
781.9244, 21.15064
782.4065, 20.67389
782.8886, 20.54336
783.3707, 20.64751
783.8528, 20.92924
784.3350, 21.33957
784.8171, 21.73320
785.2992, 22.11724
785.7813, 22.33343
786.2634, 22.05359
786.7455, 21.42974
787.2277, 20.94871
787.7098, 20.70924
788.1919, 20.59326
788.6740, 20.52359
789.1561, 20.48729
789.6382, 20.44388
790.1204, 20.42212
790.6025, 20.32093
791.0846, 19.93231
791.5667, 19.69175
792.0488, 20.01730
792.5309, 20.52419
793.0131, 20.56416
793.4952, 19.97098
793.9773, 19.36274
794.4594, 19.05783
794.9415, 18.84025
795.4236, 18.36565
795.9058, 17.83727
796.3879, 17.89654
796.8700, 18.67336
797.3521, 19.34542
797.8342, 18.93303
798.3163, 17.73603
798.7985, 17.45245
799.2806, 18.30741
799.7627, 18.72737
800.2448, 18.15472
800.7269, 17.38872
801.2090, 17.11167
801.6912, 17.24159
802.1733, 17.28605
802.6554, 17.34757
803.1375, 17.15753
803.6196, 16.19514
804.1017, 15.38959
804.5839, 15.66103
805.0660, 16.57491
805.5481, 17.16569
806.0302, 17.07785
806.5123, 16.64738
806.9944, 16.07744
807.4766, 15.45531
807.9587, 14.96547
808.4408, 14.61763
808.9229, 14.45548
809.4050, 14.51417
809.8871, 14.64875
810.3693, 14.68625
810.8514, 14.62788
811.3335, 14.60549
811.8156, 14.69124
812.2977, 14.69126
812.7798, 14.45557
813.2620, 14.23778
813.7441, 14.31690
814.2262, 14.54864
814.7083, 14.48853
815.1904, 13.89454
815.6725, 13.30609
816.1547, 13.04749
816.6368, 12.93620
817.1189, 12.69963
817.6010, 12.41281
818.0831, 12.41717
818.5652, 12.85088
819.0474, 13.38062
819.5295, 13.56068
820.0116, 13.42792
820.4937, 13.32714
820.9758, 13.27314
821.4579, 13.14911
821.9401, 12.87018
822.4222, 12.59343
822.9043, 12.51284
823.3864, 12.61774
823.8685, 12.60473
824.3506, 12.38409
824.8328, 12.17781
825.3149, 11.98597
825.7970, 11.84880
826.2791, 11.80181
826.7612, 11.83102
827.2433, 11.92427
827.7255, 12.09326
828.2076, 12.20058
828.6897, 12.09967
829.1718, 11.87717
829.6539, 11.61789
830.1360, 11.36189
830.6182, 11.29680
831.1003, 11.49643
831.5824, 11.66320
832.0645, 11.39318
832.5466, 10.74297
833.0287, 10.43988
833.5109, 10.54753
833.9930, 10.83880
834.4751, 11.48743
834.9572, 12.04020
835.4393, 12.07256
835.9214, 11.71356
836.4036, 11.28852
836.8857, 10.63371
837.3678, 10.29634
837.8499, 10.64369
838.3320, 11.13792
838.8141, 11.48604
839.2963, 11.66063
839.7784, 11.69105
840.2605, 11.58348
840.7426, 11.30488
841.2247, 10.63498
841.7068, 9.860823
842.1890, 9.561569
842.6711, 9.687191
843.1532, 10.02284
843.6353, 10.52123
844.1174, 10.96630
844.5995, 11.16389
845.0817, 11.15080
845.5638, 11.07517
846.0459, 10.90537
846.5280, 10.75697
847.0101, 10.58237
847.4922, 10.50487
847.9744, 10.63473
848.4565, 10.87897
848.9386, 11.12329
849.4207, 11.37327
849.9028, 11.51514
850.3849, 11.54355
850.8671, 11.42711
851.3492, 10.95003
851.8313, 10.42008
852.3134, 10.25366
852.7955, 10.49655
853.2776, 10.95864
853.7598, 11.65705
854.2419, 12.18754
854.7240, 11.69236
855.2061, 10.47285
855.6882, 9.740567
856.1703, 9.645854
856.6525, 9.882096
857.1346, 10.32543
857.6167, 10.82219
858.0988, 11.04893
858.5809, 10.93745
859.0630, 11.03913
859.5452, 11.64440
860.0273, 11.94291
860.5094, 11.39464
860.9915, 10.66998
861.4736, 10.35701
861.9557, 10.41027
862.4379, 10.48917
862.9200, 10.55267
863.4021, 10.60853
863.8842, 10.74037
864.3663, 10.79883
864.8484, 10.49441
865.3306, 10.03050
865.8127, 9.925461
866.2948, 10.37424
866.7769, 10.95698
867.2590, 11.30449
867.7411, 11.47109
868.2233, 11.54151
868.7054, 11.52752
869.1875, 11.46199
869.6696, 11.35331
870.1517, 11.26526
870.6339, 11.26179
871.1160, 11.32486
871.5981, 11.37813
872.0802, 11.42890
872.5623, 11.44795
873.0444, 11.45765
873.5266, 11.38843
874.0087, 11.04916
874.4908, 10.67472
874.9729, 10.72846
875.4550, 11.29385
875.9371, 11.80722
876.4193, 12.44762
876.9014, 12.71940
877.3835, 12.00550
877.8656, 11.08909
878.3477, 10.87508
878.8298, 11.31894
879.3120, 11.72050
879.7941, 11.72969
880.2762, 11.58779
880.7583, 11.49587
881.2404, 11.42622
881.7225, 11.30352
882.2047, 11.14733
882.6868, 11.08678
883.1689, 11.17718
883.6510, 11.30195
884.1331, 11.31213
884.6152, 11.22220
885.0974, 11.10904
885.5795, 10.94678
886.0616, 10.97456
886.5437, 11.31119
887.0258, 11.69812
887.5079, 11.94894
887.9901, 12.07385
888.4722, 12.10893
888.9543, 11.93812
889.4364, 11.90063
889.9185, 12.26628
890.4006, 12.45078
890.8828, 12.02688
891.3649, 11.40944
891.8470, 11.08891
892.3291, 11.11855
892.8112, 11.27681
893.2933, 11.61650
893.7755, 11.89804
894.2576, 11.98278
894.7397, 11.91680
895.2218, 11.68832
895.7039, 11.36192
896.1860, 11.10056
896.6682, 10.97925
897.1503, 10.97270
897.6324, 11.05782
898.1145, 11.23010
898.5966, 11.49103
899.0787, 11.83391
899.5609, 12.22932
900.0430, 12.67543
900.5251, 13.08674
901.0072, 13.40524
901.4893, 13.59696
901.9714, 13.41753
902.4536, 12.65405
902.9357, 12.32700
903.4178, 12.73561
903.8999, 13.21338
904.3820, 13.45514
904.8641, 13.52629
905.3463, 13.54554
905.8284, 13.52492
906.3105, 13.36967
906.7926, 12.71432
907.2747, 12.38436
907.7568, 12.94019
908.2390, 13.67450
908.7211, 13.98763
909.2032, 13.91938
909.6853, 13.77722
910.1674, 13.63809
910.6495, 13.56842
911.1317, 13.59503
911.6138, 13.72713
912.0959, 14.19021
912.5780, 14.72373
913.0601, 14.53261
913.5422, 13.52617
914.0244, 12.81085
914.5065, 13.48366
914.9886, 14.82078
915.4707, 15.22485
915.9528, 14.85349
916.4349, 14.73429
916.9171, 15.00772
917.3992, 15.27845
917.8813, 15.33838
918.3634, 15.24731
918.8455, 15.06219
919.3276, 14.76008
919.8098, 14.80907
920.2919, 15.37945
920.7740, 15.87876
921.2561, 16.26075
921.7382, 16.40739
922.2203, 15.96452
922.7025, 15.19689
923.1846, 15.15926
923.6667, 16.31907
924.1488, 17.18255
924.6309, 17.36492
925.1130, 17.50572
925.5952, 18.09421
926.0773, 18.68789
926.5594, 18.60847
927.0415, 17.88617
927.5236, 17.34054
928.0057, 17.37353
928.4879, 17.59385
928.9700, 17.81724
929.4521, 18.03866
929.9342, 18.27475
930.4163, 18.50219
930.8984, 18.65632
931.3806, 18.71553
931.8627, 18.74958
932.3448, 18.80373
932.8269, 18.89561
933.3090, 19.01852
933.7911, 19.20627
934.2733, 19.68472
934.7554, 20.47432
935.2375, 21.14751
935.7196, 21.40490
936.2017, 21.42347
936.6838, 21.59056
937.1660, 21.92253
937.6481, 22.02131
938.1302, 21.78678
938.6123, 21.78703
939.0944, 22.29687
939.5765, 22.92627
940.0587, 23.26847
940.5408, 23.37565
941.0229, 23.61826
941.5050, 24.23159
941.9871, 24.54846
942.4692, 24.11814
942.9514, 23.88019
943.4335, 24.15061
943.9156, 24.85288
944.3977, 26.09943
944.8798, 27.86523
945.3619, 29.11214
945.8441, 29.39475
946.3262, 29.41533
946.8083, 29.08892
947.2904, 28.88968
947.7725, 29.33269
948.2546, 30.20007
948.7368, 30.94528
949.2189, 31.40416
949.7010, 31.83736
950.1831, 32.58704
950.6652, 33.24583
951.1473, 33.22646
951.6295, 32.89259
952.1116, 32.90554
952.5937, 33.32659
953.0758, 33.84830
953.5579, 34.30936
954.0400, 34.68702
954.5222, 34.85361
955.0043, 34.93151
955.4864, 35.38756
955.9685, 36.15791
956.4506, 36.62484
956.9327, 36.60504
957.4149, 36.64469
957.8970, 37.28377
958.3791, 37.35947
958.8612, 37.58917
959.3433, 38.08432
959.8254, 38.03301
960.3076, 38.53744
960.7897, 39.01327
961.2718, 39.22717
961.7539, 39.25234
962.2360, 39.10677
962.7181, 38.81433
963.2003, 38.97560
963.6824, 40.03933
964.1645, 40.62207
964.6466, 40.23639
965.1287, 39.79354
965.6108, 39.87809
966.0930, 40.15737
966.5751, 40.04440
967.0572, 39.45565
967.5393, 39.28832
968.0214, 39.87511
968.5035, 40.57397
968.9857, 41.57656
969.4678, 42.29726
969.9499, 42.03465
970.4320, 41.20533
970.9141, 40.83183
971.3962, 41.22246
971.8784, 41.43159
972.3605, 40.73862
972.8426, 40.03127
973.3247, 40.01485
973.8068, 40.28938
974.2889, 40.32621
974.7711, 40.11403
975.2532, 39.89264
975.7353, 39.73871
976.2174, 39.83913
976.6995, 40.62064
977.1816, 41.57984
977.6638, 42.00245
978.1459, 42.00677
978.6280, 41.86147
979.1101, 41.68914
979.5922, 41.77613
980.0743, 42.38890
980.5565, 43.06211
981.0386, 42.99946
981.5207, 42.35888
982.0028, 41.54868
982.4849, 40.65724
982.9670, 40.16669
983.4492, 40.24286
983.9313, 40.65366
984.4134, 41.22870
984.8955, 41.87399
985.3776, 42.32056
985.8597, 42.57014
986.3419, 42.51421
986.8240, 42.10372
987.3061, 41.60357
987.7882, 41.05642
988.2703, 40.68474
988.7524, 40.79805
989.2346, 41.34357
989.7167, 41.75945
990.1988, 42.03371
990.6809, 42.22377
991.1630, 42.36963
991.6451, 42.34700
992.1273, 41.88206
992.6094, 41.40547
993.0915, 41.68858
993.5736, 42.80130
994.0557, 43.34660
994.5378, 42.81283
995.0200, 42.45682
995.5021, 42.52240
995.9842, 42.65926
996.4663, 42.62513
996.9484, 42.84941
997.4305, 42.75167
997.9127, 43.24084
998.3948, 43.61283
998.8769, 43.82289
999.3590, 43.87746
999.8411, 43.59804
1000.323, 43.33054
1000.805, 43.39159
1001.287, 43.65661
1001.770, 43.85088
1002.252, 43.91546
1002.734, 43.91510
1003.216, 43.89282
1003.698, 43.79393
1004.180, 43.53495
1004.662, 43.22108
1005.144, 42.81970
1005.627, 42.48636
1006.109, 42.69915
1006.591, 43.65959
1007.073, 44.40514
1007.555, 43.95686
1008.037, 43.28145
1008.519, 43.47766
1009.001, 43.99890
1009.483, 43.76786
1009.966, 42.92292
1010.448, 42.52247
1010.930, 43.07859
1011.412, 43.91333
1011.894, 44.51227
1012.376, 44.84420
1012.858, 44.69849
1013.340, 44.28248
1013.823, 44.17833
1014.305, 44.41784
1014.787, 44.49760
1015.269, 44.11257
1015.751, 43.70013
1016.233, 44.07870
1016.715, 43.73258
1017.197, 43.49186
1017.679, 43.67609
1018.162, 43.09861
1018.644, 43.13702
1019.126, 43.51473
1019.608, 44.08522
1020.090, 44.60338
1020.572, 44.48195
1021.054, 44.80604
1021.536, 45.00322
1022.018, 44.76176
1022.501, 45.15388
1022.983, 44.87167
1023.465, 44.41959
1023.947, 44.13971
1024.429, 44.02396
1024.911, 44.06800
1025.393, 44.27400
1025.875, 44.55434
1026.358, 44.90976
1026.840, 45.39906
1027.322, 46.12389
1027.804, 46.57588
1028.286, 46.31775
1028.768, 45.58019
1029.250, 44.80840
1029.732, 43.86007
1030.214, 44.22036
1030.697, 46.54572
1031.179, 47.81586
1031.661, 46.88265
1032.143, 45.51536
1032.625, 45.04279
1033.107, 45.22815
1033.589, 45.43586
1034.071, 45.71798
1034.553, 45.73464
1035.036, 45.11678
1035.518, 45.07821
1036.000, 46.31836
1036.482, 47.66487
1036.964, 48.26997
1037.446, 48.24603
1037.928, 47.85115
1038.410, 46.84649
1038.893, 46.31594
1039.375, 46.55296
1039.857, 46.79716
1040.339, 46.82020
1040.821, 46.84615
1041.303, 47.06178
1041.785, 47.40900
1042.267, 47.71685
1042.750, 47.96254
1043.232, 48.24321
1043.714, 48.73304
1044.196, 49.02092
1044.678, 48.75657
1045.160, 48.49630
1045.642, 48.61348
1046.124, 49.05162
1046.606, 49.69984
1047.089, 50.63172
1047.571, 51.41975
1048.053, 52.04888
1048.535, 52.48439
1049.017, 52.61601
1049.499, 52.64635
1049.981, 52.83221
1050.463, 53.00753
1050.945, 52.69130
1051.428, 51.69484
1051.910, 51.10708
1052.392, 51.26403
1052.874, 51.68330
1053.356, 52.40489
1053.838, 53.15188
1054.320, 53.82948
1054.802, 54.33631
1055.285, 54.42562
1055.767, 54.01609
1056.249, 53.78623
1056.731, 53.95965
1057.213, 54.28048
1057.695, 55.03516
1058.177, 55.54106
1058.659, 54.87560
1059.141, 53.72594
1059.624, 53.50465
1060.106, 54.45468
1060.588, 55.21673
1061.070, 55.42074
1061.552, 55.27641
1062.034, 54.44456
1062.516, 53.69883
1062.998, 53.89661
1063.480, 54.50016
1063.963, 54.50670
1064.445, 53.77593
1064.927, 53.03577
1065.409, 52.51921
1065.891, 52.08797
1066.373, 51.67750
1066.855, 51.34228
1067.337, 51.06466
1067.820, 50.92087
1068.302, 51.20867
1068.784, 51.85524
1069.266, 51.96951
1069.748, 50.79826
1070.230, 49.76802
1070.712, 49.47082
1071.194, 49.58388
1071.677, 50.40920
1072.159, 51.17509
1072.641, 50.48058
1073.123, 48.50661
1073.605, 47.28285
1074.087, 47.92947
1074.569, 48.49864
1075.051, 47.91744
1075.533, 47.11409
1076.016, 46.59841
1076.498, 46.36316
1076.980, 46.44243
1077.462, 46.74506
1077.944, 46.99831
1078.426, 47.17119
1078.908, 47.06904
1079.390, 46.29177
1079.873, 45.55635
1080.355, 45.34109
1080.837, 45.43146
1081.319, 45.73619
1081.801, 46.08120
1082.283, 46.02197
1082.765, 45.34914
1083.247, 44.79173
1083.729, 44.69847
1084.212, 44.79256
1084.694, 45.20369
1085.176, 45.48772
1085.658, 44.90045
1086.140, 43.88251
1086.622, 43.66786
1087.104, 44.59180
1087.586, 45.19787
1088.068, 44.63010
1088.551, 43.90818
1089.033, 43.38225
1089.515, 43.06291
1089.997, 43.08527
1090.479, 43.26133
1090.961, 43.20730
1091.443, 42.87427
1091.925, 42.70781
1092.408, 43.07510
1092.890, 43.36651
1093.372, 43.23424
1093.854, 43.04573
1094.336, 43.08137
1094.818, 43.22854
1095.300, 43.31144
1095.782, 43.30733
1096.265, 43.26117
1096.747, 43.18760
1097.229, 43.07030
1097.711, 42.81254
1098.193, 42.61274
1098.675, 42.62670
1099.157, 42.73482
1099.639, 42.79161
1100.121, 42.80504
1100.604, 42.89771
1101.086, 43.19472
1101.568, 43.25996
1102.050, 42.82042
1102.532, 42.32457
1103.014, 41.66874
1103.496, 41.29755
1103.978, 41.87734
1104.460, 43.00974
1104.943, 43.63350
1105.425, 43.53413
1105.907, 43.32861
1106.389, 42.97660
1106.871, 42.74029
1107.353, 42.73575
1107.835, 42.83105
1108.317, 43.03534
1108.800, 43.23302
1109.282, 43.21299
1109.764, 42.95319
1110.246, 42.70617
1110.728, 42.66019
1111.210, 42.37811
1111.692, 41.40736
1112.174, 40.64286
1112.656, 40.67827
1113.139, 41.04205
1113.621, 41.26908
1114.103, 41.33049
1114.585, 41.00863
1115.067, 39.88514
1115.549, 39.13388
1116.031, 38.83723
1116.513, 38.80555
1116.995, 39.12311
1117.478, 39.53756
1117.960, 39.93410
1118.442, 40.22787
1118.924, 40.11317
1119.406, 39.42475
1119.888, 39.00221
1120.370, 39.08681
1120.852, 38.92070
1121.335, 38.23302
1121.817, 37.44766
1122.299, 36.77337
1122.781, 36.24826
1123.263, 35.93585
1123.745, 35.83638
1124.227, 36.06242
1124.709, 36.83711
1125.192, 37.10576
1125.674, 36.60601
1126.156, 35.99582
1126.638, 35.57519
1127.120, 35.16730
1127.602, 34.50586
1128.084, 33.71519
1128.566, 33.44844
1129.048, 33.76543
1129.531, 34.14186
1130.013, 34.61358
1130.495, 34.63502
1130.977, 33.96705
1131.459, 33.25592
1131.941, 33.02530
1132.423, 33.11745
1132.905, 33.29625
1133.387, 33.52990
1133.870, 33.14807
1134.352, 32.18948
1134.834, 31.89610
1135.316, 32.49574
1135.798, 32.96676
1136.280, 32.74893
1136.762, 32.71836
1137.244, 31.89657
1137.727, 31.62247
1138.209, 30.72158
1138.691, 29.46197
1139.173, 29.11132
1139.655, 29.66016
1140.137, 30.35058
1140.619, 30.87426
1141.101, 30.91376
1141.583, 30.10153
1142.066, 29.03395
1142.548, 28.73660
1143.030, 28.79873
1143.512, 28.36191
1143.994, 27.55621
1144.476, 26.74223
1144.958, 26.06374
1145.440, 25.77773
1145.922, 26.03921
1146.405, 26.30189
1146.887, 25.85776
1147.369, 25.33144
1147.851, 25.69509
1148.333, 26.27768
1148.815, 25.98344
1149.297, 25.01294
1149.779, 24.09119
1150.262, 23.45198
1150.744, 23.09494
1151.226, 23.16091
1151.708, 23.28568
1152.190, 23.43199
1152.672, 23.34336
1153.154, 22.56959
1153.636, 21.55547
1154.119, 21.02361
1154.601, 20.91388
1155.083, 20.47626
1155.565, 19.27480
1156.047, 18.55410
1156.529, 19.24748
1157.011, 19.82971
1157.493, 19.49764
1157.975, 18.90418
1158.458, 18.54359
1158.940, 18.36975
1159.422, 18.28495
1159.904, 18.30918
1160.386, 17.99755
1160.868, 16.80742
1161.350, 16.06080
1161.832, 16.18124
1162.314, 16.40285
1162.797, 16.54779
1163.279, 16.50767
1163.761, 16.05527
1164.243, 15.32648
1164.725, 14.99938
1165.207, 15.26879
1165.689, 15.24345
1166.171, 14.84218
1166.654, 14.36709
1167.136, 13.83851
1167.618, 13.42139
1168.100, 13.25727
1168.582, 13.19688
1169.064, 12.98119
1169.546, 12.63241
1170.028, 12.28687
1170.510, 11.93491
1170.993, 12.19107
1171.475, 13.13665
1171.957, 13.48778
1172.439, 12.74493
1172.921, 11.82407
1173.403, 11.56374
1173.885, 11.62323
1174.367, 11.30538
1174.849, 10.74154
1175.332, 10.35193
1175.814, 10.13584
1176.296, 10.08091
1176.778, 10.14368
1177.260, 10.13176
1177.742, 9.952865
1178.224, 9.737789
1178.706, 9.449808
1179.189, 9.379895
1179.671, 10.24058
1180.153, 11.33094
1180.635, 11.54430
1181.117, 11.12560
1181.599, 10.80219
1182.081, 10.70670
1182.563, 10.51474
1183.046, 10.07216
1183.528, 9.520499
1184.010, 8.630197
1184.492, 8.022264
1184.974, 8.324825
1185.456, 8.956314
1185.938, 9.491889
1186.420, 9.786642
1186.902, 9.632777
1187.385, 8.982228
1187.867, 8.226368
1188.349, 6.932155
1188.831, 6.303766
1189.313, 7.097706
1189.795, 7.961882
1190.277, 8.347495
1190.759, 8.408751
1191.241, 8.239447
1191.724, 7.879560
1192.206, 7.453589
1192.688, 6.854243
1193.170, 6.657508
1193.652, 6.961637
1194.134, 7.429527
1194.616, 8.140705
1195.098, 8.481917
1195.581, 8.030300
1196.063, 7.260880
1196.545, 6.771702
1197.027, 6.577653
1197.509, 6.870120
1197.991, 7.598910
1198.473, 7.870647
1198.955, 7.670186
1199.438, 7.613699
1199.920, 7.849973
1200.402, 7.895251
1200.884, 7.400377
1201.366, 6.869698
1201.848, 7.212108
1202.330, 6.687953
1202.812, 7.360049
1203.294, 6.361540
1203.776, 5.869934
1204.259, 5.892877
1204.741, 6.085701
1205.223, 6.323365
1205.705, 6.546935
1206.187, 6.717135
1206.669, 6.879565
1207.151, 7.167589
1207.633, 7.349292
1208.116, 7.133285
1208.598, 6.791984
1209.080, 6.616416
1209.562, 6.601348
1210.044, 6.675559
1210.526, 6.841522
1211.008, 6.886669
1211.490, 6.675839
1211.973, 6.484231
1212.455, 6.255921
1212.937, 6.195633
1213.419, 6.563822
1213.901, 6.954580
1214.383, 6.921609
1214.865, 6.600133
1215.347, 6.456994
1215.829, 6.527626
1216.312, 6.530595
1216.794, 6.450286
1217.276, 6.366743
1217.758, 6.279744
1218.240, 6.290584
1218.722, 6.456235
1219.204, 6.701468
1219.686, 6.970850
1220.168, 7.195782
1220.651, 7.232866
1221.133, 7.070546
1221.615, 6.449271
1222.097, 5.580801
1222.579, 5.441102
1223.061, 6.076176
1223.543, 6.590853
1224.025, 6.561653
1224.508, 6.544466
1224.990, 7.478584
1225.472, 8.096147
1225.954, 6.276056
1226.436, 4.166432
1226.918, 4.638283
1227.400, 6.408966
1227.882, 7.148798
1228.365, 6.686577
1228.847, 6.119586
1229.329, 5.685756
1229.811, 5.436249
1230.293, 5.278111
1230.775, 5.452627
1231.257, 6.632232
1231.739, 7.521700
1232.221, 7.036328
1232.703, 5.963805
1233.186, 5.130360
1233.668, 4.601678
1234.150, 4.930763
1234.632, 6.537038
1235.114, 7.282080
1235.596, 6.973280
1236.078, 6.618073
1236.560, 6.427872
1237.043, 6.368311
1237.525, 6.437722
1238.007, 6.500014
1238.489, 6.359210
1238.971, 6.334380
1239.453, 6.018213
1239.935, 6.022233
1240.417, 5.818770
1240.900, 5.472264
1241.382, 5.255783
1241.864, 5.223374
1242.346, 5.308712
1242.828, 5.482201
1243.310, 5.692488
1243.792, 6.060082
1244.274, 6.256138
1244.756, 5.633681
1245.239, 5.080458
1245.721, 5.818511
1246.203, 6.998578
1246.685, 7.204468
1247.167, 6.465969
1247.649, 5.759844
1248.131, 5.084244
1248.613, 5.000417
1249.095, 6.348517
1249.578, 7.103602
1250.060, 6.610911
1250.542, 5.941119
1251.024, 5.551213
1251.506, 5.373076
1251.988, 5.341452
1252.470, 5.441080
1252.952, 5.648404
1253.435, 5.970538
1253.917, 6.162841
1254.399, 6.219007
1254.881, 5.960612
1255.363, 5.387099
1255.845, 4.909501
1256.327, 4.722187
1256.809, 4.829385
1257.292, 5.340469
1257.774, 5.894845
1258.256, 5.953216
1258.738, 5.774939
1259.220, 5.641829
1259.702, 5.598109
1260.184, 5.700332
1260.666, 5.918872
1261.148, 6.224351
1261.630, 6.611597
1262.113, 6.687836
1262.595, 5.901352
1263.077, 5.398706
1263.559, 5.809405
1264.041, 6.199735
1264.523, 6.059776
1265.005, 5.746748
1265.487, 5.470315
1265.970, 5.327150
1266.452, 5.612988
1266.934, 6.341916
1267.416, 6.540487
1267.898, 6.116424
1268.380, 5.922242
1268.862, 6.063749
1269.344, 5.905849
1269.827, 5.236506
1270.309, 4.610657
1270.791, 4.420645
1271.273, 4.565817
1271.755, 5.123815
1272.237, 5.757549
1272.719, 5.748794
1273.201, 5.414203
1273.683, 5.315927
1274.166, 5.386095
1274.648, 5.320099
1275.130, 5.088208
1275.612, 4.900022
1276.094, 4.835797
1276.576, 4.809118
1277.058, 4.685426
1277.540, 4.732590
1278.022, 5.239116
1278.505, 5.746222
1278.987, 6.003222
1279.469, 6.047144
1279.951, 5.874568
1280.433, 5.538828
1280.915, 5.240239
1281.397, 4.961505
1281.879, 4.931969
1282.362, 5.197515
1282.844, 5.087812
1283.326, 4.485383
1283.808, 4.241129
1284.290, 4.707810
1284.772, 5.362287
1285.254, 5.781156
1285.736, 5.967038
##END=



