##NAMES=Leucite
##RRUFFID=R040107
##IDEAL CHEMISTRY=K(Si_2_Al)O_6_
##LOCALITY=Roccamonfina, Italy
##OWNER=RRUFF
##SOURCE=University of Arizona Mineral Museum
##DESCRIPTION=Rounded colorless crystals embedded in an ash matrix
##STATUS=The identification of this mineral has been confirmed by X-ray diffraction and chemical analysis
##URL=rruff.info/R040107
##MEASURED CHEMISTRY=(K_0.95_Na_0.03_)Al_0.99_Si_2.01_O_6_
120.1184, 1689.219
120.6006, 1786.314
121.0827, 1899.236
121.5648, 2023.969
122.0469, 2146.955
122.5290, 2257.698
123.0111, 2362.828
123.4933, 2470.079
123.9754, 2578.229
124.4575, 2692.457
124.9396, 2816.601
125.4217, 2949.866
125.9038, 3097.420
126.3860, 3250.207
126.8681, 3374.606
127.3502, 3471.153
127.8323, 3559.710
128.3144, 3642.899
128.7965, 3727.558
129.2787, 3815.247
129.7608, 3896.695
130.2429, 3962.798
130.7250, 4014.192
131.2071, 4052.711
131.6892, 4070.594
132.1714, 4072.228
132.6535, 4086.282
133.1356, 4115.814
133.6177, 4155.669
134.0998, 4196.101
134.5819, 4236.462
135.0640, 4275.997
135.5462, 4310.713
136.0283, 4339.389
136.5104, 4378.722
136.9925, 4436.536
137.4746, 4508.667
137.9567, 4561.404
138.4389, 4591.924
138.9210, 4612.797
139.4031, 4632.936
139.8852, 4647.371
140.3673, 4679.367
140.8494, 4743.739
141.3316, 4850.614
141.8137, 4920.873
142.2958, 4939.321
142.7779, 4936.677
143.2600, 4969.815
143.7421, 5062.012
144.2243, 5151.250
144.7064, 5213.009
145.1885, 5235.981
145.6706, 5256.698
146.1527, 5274.747
146.6348, 5290.559
147.1170, 5306.229
147.5991, 5323.054
148.0812, 5338.202
148.5633, 5349.919
149.0454, 5359.929
149.5275, 5363.876
150.0097, 5364.351
150.4918, 5361.442
150.9739, 5340.877
151.4560, 5283.776
151.9381, 5218.014
152.4202, 5165.411
152.9024, 5115.735
153.3845, 5089.565
153.8666, 5054.164
154.3487, 5010.025
154.8308, 4930.982
155.3129, 4897.010
155.7950, 4844.976
156.2772, 4792.190
156.7593, 4764.563
157.2414, 4690.597
157.7235, 4662.570
158.2056, 4616.205
158.6877, 4547.471
159.1699, 4480.082
159.6520, 4413.020
160.1341, 4354.213
160.6162, 4313.248
161.0983, 4277.335
161.5804, 4238.125
162.0626, 4191.957
162.5447, 4145.179
163.0268, 4098.505
163.5089, 4052.593
163.9910, 4011.106
164.4731, 3973.361
164.9553, 3941.635
165.4374, 3918.122
165.9195, 3910.709
166.4016, 3906.093
166.8837, 3891.481
167.3658, 3866.616
167.8480, 3852.753
168.3301, 3869.052
168.8122, 3903.719
169.2943, 3939.037
169.7764, 3963.190
170.2585, 3986.848
170.7407, 4018.593
171.2228, 4058.991
171.7049, 4107.907
172.1870, 4171.367
172.6691, 4244.339
173.1512, 4313.097
173.6334, 4367.277
174.1155, 4414.959
174.5976, 4466.629
175.0797, 4525.019
175.5618, 4584.056
176.0439, 4641.065
176.5260, 4694.938
177.0082, 4738.855
177.4903, 4765.939
177.9724, 4780.985
178.4545, 4793.356
178.9366, 4808.338
179.4187, 4818.480
179.9009, 4813.052
180.3830, 4792.465
180.8651, 4761.372
181.3472, 4723.706
181.8293, 4678.398
182.3114, 4622.271
182.7936, 4547.003
183.2757, 4463.301
183.7578, 4391.760
184.2399, 4333.735
184.7220, 4276.840
185.2041, 4204.000
185.6863, 4118.296
186.1684, 4042.504
186.6505, 3992.373
187.1326, 3959.839
187.6147, 3911.778
188.0968, 3845.450
188.5790, 3772.196
189.0611, 3703.203
189.5432, 3638.830
190.0253, 3580.681
190.5074, 3532.127
190.9895, 3492.073
191.4717, 3447.966
191.9538, 3398.744
192.4359, 3345.841
192.9180, 3289.344
193.4001, 3228.438
193.8822, 3171.305
194.3644, 3124.121
194.8465, 3086.608
195.3286, 3048.330
195.8107, 3006.410
196.2928, 2964.969
196.7749, 2936.490
197.2570, 2922.823
197.7392, 2911.437
198.2213, 2892.833
198.7034, 2866.324
199.1855, 2840.670
199.6676, 2815.433
200.1497, 2792.147
200.6319, 2778.308
201.1140, 2775.400
201.5961, 2776.885
202.0782, 2779.591
202.5603, 2785.037
203.0424, 2780.676
203.5246, 2758.076
204.0067, 2720.648
204.4888, 2707.014
204.9709, 2725.088
205.4530, 2750.815
205.9352, 2756.561
206.4173, 2737.737
206.8994, 2717.165
207.3815, 2699.088
207.8636, 2683.143
208.3457, 2679.987
208.8279, 2694.974
209.3100, 2715.363
209.7921, 2722.855
210.2742, 2714.127
210.7563, 2702.219
211.2384, 2690.669
211.7206, 2678.851
212.2027, 2671.529
212.6848, 2671.373
213.1669, 2673.303
213.6490, 2668.162
214.1311, 2654.631
214.6133, 2637.065
215.0954, 2616.025
215.5775, 2590.127
216.0596, 2566.606
216.5417, 2544.452
217.0238, 2525.209
217.5059, 2514.329
217.9881, 2519.479
218.4702, 2518.798
218.9523, 2499.195
219.4344, 2450.925
219.9165, 2412.057
220.3986, 2387.814
220.8808, 2373.338
221.3629, 2349.141
221.8450, 2305.720
222.3271, 2267.257
222.8092, 2249.409
223.2913, 2264.317
223.7735, 2271.315
224.2556, 2266.641
224.7377, 2251.335
225.2198, 2231.165
225.7019, 2203.122
226.1840, 2173.758
226.6662, 2146.892
227.1483, 2122.482
227.6304, 2101.115
228.1125, 2084.087
228.5946, 2070.845
229.0767, 2052.769
229.5589, 2025.934
230.0410, 1999.032
230.5231, 1979.371
231.0052, 1972.210
231.4873, 1962.325
231.9694, 1945.952
232.4516, 1923.217
232.9337, 1905.169
233.4158, 1894.364
233.8979, 1885.761
234.3800, 1874.781
234.8621, 1860.640
235.3443, 1845.590
235.8264, 1829.393
236.3085, 1811.808
236.7906, 1796.472
237.2727, 1781.575
237.7548, 1770.529
238.2369, 1768.407
238.7191, 1784.299
239.2012, 1793.153
239.6833, 1786.164
240.1654, 1759.988
240.6475, 1745.179
241.1296, 1746.962
241.6118, 1756.025
242.0939, 1760.834
242.5760, 1760.166
243.0581, 1757.255
243.5402, 1752.158
244.0223, 1744.086
244.5045, 1738.504
244.9866, 1735.513
245.4687, 1734.976
245.9508, 1737.292
246.4329, 1745.426
246.9150, 1751.377
247.3972, 1751.661
247.8793, 1743.858
248.3614, 1741.378
248.8435, 1748.692
249.3256, 1758.660
249.8077, 1757.569
250.2899, 1736.165
250.7720, 1719.759
251.2541, 1718.330
251.7362, 1737.020
252.2183, 1751.872
252.7004, 1761.530
253.1826, 1767.932
253.6647, 1774.078
254.1468, 1778.253
254.6289, 1785.199
255.1110, 1798.727
255.5931, 1824.669
256.0753, 1837.412
256.5574, 1831.116
257.0395, 1815.043
257.5216, 1809.540
258.0037, 1819.582
258.4858, 1830.613
258.9680, 1836.210
259.4501, 1833.969
259.9322, 1834.269
260.4143, 1838.414
260.8964, 1844.410
261.3785, 1846.895
261.8607, 1843.106
262.3428, 1841.739
262.8249, 1848.778
263.3070, 1869.618
263.7891, 1879.234
264.2712, 1873.106
264.7534, 1858.150
265.2355, 1850.954
265.7176, 1854.027
266.1997, 1858.824
266.6818, 1862.073
267.1639, 1864.299
267.6461, 1862.158
268.1282, 1853.894
268.6103, 1842.327
269.0924, 1832.950
269.5745, 1824.378
270.0566, 1821.926
270.5387, 1832.395
271.0208, 1860.790
271.5030, 1873.373
271.9851, 1863.964
272.4672, 1841.743
272.9493, 1828.534
273.4314, 1825.766
273.9135, 1826.888
274.3957, 1828.055
274.8778, 1828.733
275.3599, 1835.444
275.8420, 1851.746
276.3241, 1871.242
276.8062, 1877.457
277.2884, 1868.080
277.7705, 1856.689
278.2526, 1850.168
278.7347, 1848.631
279.2168, 1849.479
279.6989, 1852.062
280.1811, 1857.539
280.6632, 1870.981
281.1453, 1893.804
281.6274, 1913.711
282.1095, 1921.521
282.5916, 1917.513
283.0738, 1916.647
283.5559, 1920.398
284.0380, 1927.175
284.5201, 1933.063
285.0022, 1937.867
285.4843, 1945.511
285.9665, 1957.874
286.4486, 1974.948
286.9307, 1998.743
287.4128, 2032.165
287.8949, 2066.611
288.3770, 2082.772
288.8592, 2081.307
289.3413, 2081.804
289.8234, 2100.386
290.3055, 2132.405
290.7876, 2151.646
291.2697, 2151.918
291.7519, 2149.159
292.2340, 2172.867
292.7161, 2220.537
293.1982, 2265.792
293.6803, 2292.236
294.1624, 2304.721
294.6446, 2317.362
295.1267, 2331.597
295.6088, 2345.465
296.0909, 2353.399
296.5730, 2357.059
297.0551, 2366.145
297.5373, 2395.047
298.0194, 2431.762
298.5015, 2449.611
298.9836, 2443.313
299.4657, 2429.098
299.9478, 2426.374
300.4300, 2431.692
300.9121, 2434.077
301.3942, 2424.207
301.8763, 2408.920
302.3584, 2399.200
302.8405, 2396.735
303.3227, 2395.341
303.8048, 2391.489
304.2869, 2384.363
304.7690, 2371.688
305.2511, 2343.352
305.7332, 2313.446
306.2154, 2300.050
306.6975, 2306.882
307.1796, 2313.644
307.6617, 2300.844
308.1438, 2276.898
308.6259, 2256.716
309.1081, 2251.293
309.5901, 2249.954
310.0723, 2243.881
310.5544, 2232.106
311.0365, 2219.849
311.5186, 2211.928
312.0007, 2205.164
312.4828, 2194.920
312.9650, 2170.906
313.4471, 2149.215
313.9292, 2143.412
314.4113, 2155.228
314.8934, 2162.641
315.3755, 2150.795
315.8577, 2130.156
316.3398, 2113.221
316.8219, 2102.862
317.3040, 2097.900
317.7861, 2102.337
318.2682, 2116.361
318.7504, 2121.706
319.2325, 2101.469
319.7146, 2074.406
320.1967, 2058.362
320.6788, 2064.287
321.1609, 2074.833
321.6431, 2089.033
322.1252, 2106.383
322.6073, 2115.677
323.0894, 2109.369
323.5715, 2097.076
324.0536, 2085.853
324.5358, 2074.878
325.0179, 2067.095
325.5000, 2062.160
325.9821, 2060.332
326.4642, 2063.951
326.9464, 2087.803
327.4285, 2107.373
327.9106, 2108.045
328.3927, 2058.963
328.8748, 2030.685
329.3569, 2038.450
329.8391, 2073.520
330.3212, 2091.779
330.8033, 2081.428
331.2854, 2066.368
331.7675, 2059.298
332.2496, 2067.391
332.7318, 2069.862
333.2139, 2063.910
333.6960, 2052.402
334.1781, 2043.894
334.6602, 2039.886
335.1423, 2036.418
335.6245, 2030.011
336.1066, 2016.113
336.5887, 2015.796
337.0708, 2036.922
337.5529, 2065.763
338.0350, 2070.000
338.5172, 2041.839
338.9993, 2013.934
339.4814, 2000.957
339.9635, 2004.586
340.4456, 2006.835
340.9277, 2007.491
341.4099, 2007.101
341.8920, 2006.950
342.3741, 2007.206
342.8562, 2005.417
343.3383, 1999.125
343.8204, 1989.246
344.3026, 1979.538
344.7847, 1949.538
345.2668, 1967.208
345.7489, 1975.644
346.2310, 1975.345
346.7131, 1940.141
347.1953, 1950.007
347.6774, 1941.812
348.1595, 1932.876
348.6416, 1949.087
349.1237, 1918.960
349.6058, 1934.772
350.0880, 1932.245
350.5700, 1938.113
351.0522, 1925.805
351.5343, 1919.111
352.0164, 1930.597
352.4985, 1932.017
352.9806, 1917.617
353.4627, 1924.018
353.9449, 1904.041
354.4270, 1906.006
354.9091, 1913.450
355.3912, 1921.488
355.8733, 1925.518
356.3554, 1926.188
356.8376, 1926.330
357.3197, 1927.260
357.8018, 1928.430
358.2839, 1929.271
358.7660, 1929.393
359.2481, 1929.746
359.7303, 1930.644
360.2124, 1932.168
360.6945, 1934.523
361.1766, 1939.521
361.6587, 1944.226
362.1408, 1946.059
362.6230, 1942.909
363.1051, 1943.377
363.5872, 1955.947
364.0693, 1972.462
364.5514, 1980.868
365.0335, 1972.365
365.5157, 1961.393
365.9978, 1951.347
366.4799, 1941.934
366.9620, 1935.989
367.4441, 1933.688
367.9262, 1934.948
368.4084, 1939.879
368.8905, 1957.034
369.3726, 1967.413
369.8547, 1964.494
370.3368, 1948.359
370.8189, 1940.689
371.3011, 1946.632
371.7832, 1956.030
372.2653, 1961.850
372.7474, 1963.840
373.2295, 1962.332
373.7116, 1954.919
374.1938, 1944.118
374.6759, 1943.123
375.1580, 1957.284
375.6401, 1969.398
376.1222, 1966.084
376.6043, 1943.927
377.0865, 1931.797
377.5686, 1934.194
378.0507, 1944.650
378.5328, 1949.918
379.0149, 1949.702
379.4970, 1947.793
379.9792, 1943.800
380.4613, 1938.542
380.9434, 1941.030
381.4255, 1952.688
381.9076, 1967.381
382.3897, 1978.528
382.8719, 1986.157
383.3540, 1990.015
383.8361, 1988.474
384.3182, 1983.460
384.8003, 1977.262
385.2824, 1969.746
385.7646, 1966.082
386.2467, 1977.051
386.7288, 1994.711
387.2109, 2002.720
387.6930, 1988.506
388.1751, 1969.717
388.6573, 1963.414
389.1394, 1968.113
389.6215, 1975.607
390.1036, 1983.550
390.5857, 1990.520
391.0678, 1995.367
391.5499, 1998.249
392.0320, 1998.129
392.5142, 1990.137
392.9963, 1978.502
393.4784, 1973.261
393.9605, 1987.345
394.4426, 2002.004
394.9247, 2007.075
395.4069, 1999.170
395.8890, 1988.466
396.3711, 1973.145
396.8532, 1957.439
397.3353, 1947.279
397.8174, 1947.396
398.2996, 1949.188
398.7817, 1952.797
399.2638, 1959.546
399.7459, 1957.285
400.2280, 1934.972
400.7101, 1911.469
401.1923, 1903.031
401.6744, 1919.233
402.1565, 1933.169
402.6386, 1941.458
403.1207, 1944.659
403.6028, 1945.100
404.0850, 1939.981
404.5671, 1937.681
405.0492, 1946.094
405.5313, 1968.471
406.0134, 1980.992
406.4955, 1979.767
406.9777, 1970.438
407.4598, 1962.301
407.9419, 1954.953
408.4240, 1953.631
408.9061, 1963.854
409.3882, 1983.324
409.8704, 1999.055
410.3525, 2010.591
410.8346, 2019.672
411.3167, 2028.788
411.7988, 2037.486
412.2809, 2043.501
412.7631, 2044.354
413.2452, 2043.147
413.7273, 2043.998
414.2094, 2046.899
414.6915, 2051.972
415.1736, 2059.024
415.6558, 2068.427
416.1379, 2080.812
416.6200, 2098.629
417.1021, 2116.196
417.5842, 2127.637
418.0663, 2135.480
418.5485, 2146.963
419.0306, 2171.135
419.5127, 2196.199
419.9948, 2213.990
420.4769, 2220.167
420.9590, 2228.052
421.4412, 2243.961
421.9233, 2263.238
422.4054, 2279.687
422.8875, 2285.542
423.3696, 2294.697
423.8517, 2313.860
424.3339, 2344.968
424.8160, 2367.168
425.2981, 2374.538
425.7802, 2377.054
426.2623, 2382.119
426.7444, 2391.267
427.2266, 2400.243
427.7087, 2408.915
428.1908, 2417.151
428.6729, 2425.947
429.1550, 2438.013
429.6371, 2444.341
430.1193, 2436.263
430.6014, 2410.917
431.0835, 2398.940
431.5656, 2405.866
432.0477, 2417.665
432.5298, 2409.609
433.0119, 2381.794
433.4940, 2354.905
433.9762, 2336.806
434.4583, 2325.998
434.9404, 2319.644
435.4225, 2317.993
435.9046, 2315.310
436.3867, 2306.406
436.8689, 2292.462
437.3510, 2275.917
437.8331, 2256.394
438.3152, 2235.963
438.7973, 2215.321
439.2794, 2195.194
439.7616, 2178.324
440.2437, 2167.407
440.7258, 2160.017
441.2079, 2153.976
441.6900, 2148.489
442.1721, 2146.021
442.6543, 2149.184
443.1364, 2155.778
443.6185, 2162.590
444.1006, 2174.155
444.5827, 2180.538
445.0648, 2175.182
445.5470, 2156.990
446.0291, 2145.103
446.5112, 2143.578
446.9933, 2148.007
447.4754, 2155.205
447.9576, 2165.071
448.4397, 2178.118
448.9218, 2197.345
449.4039, 2219.481
449.8860, 2232.460
450.3681, 2231.281
450.8503, 2230.632
451.3324, 2236.530
451.8145, 2249.059
452.2966, 2268.470
452.7787, 2296.957
453.2608, 2328.020
453.7430, 2352.557
454.2251, 2370.422
454.7072, 2389.904
455.1893, 2413.503
455.6714, 2440.732
456.1535, 2472.126
456.6357, 2507.481
457.1178, 2541.602
457.5999, 2568.336
458.0820, 2590.917
458.5641, 2614.542
459.0462, 2639.484
459.5284, 2668.322
460.0105, 2706.627
460.4926, 2750.993
460.9747, 2791.816
461.4568, 2819.939
461.9389, 2846.378
462.4211, 2877.339
462.9032, 2913.305
463.3853, 2956.594
463.8674, 3014.159
464.3495, 3076.677
464.8316, 3135.291
465.3138, 3173.942
465.7959, 3223.995
466.2780, 3296.914
466.7601, 3388.668
467.2422, 3474.169
467.7243, 3540.558
468.2065, 3613.931
468.6886, 3706.191
469.1707, 3821.425
469.6528, 3944.317
470.1349, 4077.744
470.6170, 4215.487
471.0992, 4344.450
471.5813, 4459.163
472.0634, 4591.352
472.5455, 4757.793
473.0276, 4949.955
473.5097, 5117.507
473.9918, 5258.119
474.4739, 5404.075
474.9561, 5584.365
475.4382, 5794.756
475.9203, 6013.637
476.4024, 6241.238
476.8845, 6470.723
477.3666, 6697.639
477.8488, 6919.962
478.3309, 7131.111
478.8130, 7321.067
479.2951, 7502.431
479.7772, 7679.828
480.2593, 7854.009
480.7415, 8051.026
481.2236, 8320.161
481.7057, 8604.358
482.1878, 8846.953
482.6699, 9004.245
483.1520, 9149.309
483.6342, 9295.673
484.1163, 9444.676
484.5984, 9599.084
485.0805, 9772.566
485.5626, 9939.244
486.0447, 10090.96
486.5269, 10225.00
487.0090, 10352.32
487.4911, 10466.41
487.9732, 10578.06
488.4553, 10701.11
488.9374, 10836.61
489.4196, 10977.44
489.9017, 11125.38
490.3838, 11276.53
490.8659, 11423.14
491.3480, 11565.67
491.8301, 11695.28
492.3123, 11806.86
492.7944, 11900.71
493.2765, 11987.52
493.7586, 12070.80
494.2407, 12132.05
494.7228, 12147.51
495.2050, 12121.98
495.6871, 12068.72
496.1692, 11993.08
496.6513, 11892.32
497.1334, 11755.16
497.6155, 11586.01
498.0977, 11408.22
498.5798, 11223.71
499.0619, 11043.48
499.5440, 10881.38
500.0261, 10744.32
500.5082, 10613.62
500.9904, 10479.04
501.4725, 10349.87
501.9546, 10239.58
502.4367, 10162.39
502.9188, 10092.49
503.4009, 10020.44
503.8831, 9945.514
504.3652, 9895.936
504.8473, 9894.421
505.3294, 9887.091
505.8115, 9833.633
506.2936, 9725.269
506.7758, 9609.731
507.2579, 9493.194
507.7400, 9367.753
508.2221, 9214.483
508.7042, 9033.388
509.1863, 8847.363
509.6685, 8657.775
510.1506, 8472.424
510.6327, 8320.101
511.1148, 8200.952
511.5969, 8081.768
512.0790, 7916.473
512.5612, 7737.535
513.0433, 7598.521
513.5254, 7520.044
514.0075, 7466.487
514.4896, 7418.475
514.9717, 7376.083
515.4539, 7338.472
515.9360, 7301.895
516.4181, 7272.631
516.9002, 7247.406
517.3823, 7224.298
517.8644, 7232.060
518.3466, 7289.993
518.8287, 7371.531
519.3108, 7457.240
519.7929, 7549.972
520.2750, 7642.545
520.7571, 7735.488
521.2393, 7827.553
521.7214, 7918.919
522.2035, 8011.272
522.6856, 8097.856
523.1677, 8170.505
523.6498, 8232.144
524.1320, 8321.953
524.6141, 8446.531
525.0962, 8558.808
525.5783, 8612.744
526.0604, 8618.805
526.5425, 8616.581
527.0247, 8619.339
527.5068, 8602.717
527.9889, 8540.566
528.4710, 8436.813
528.9531, 8299.790
529.4352, 8126.013
529.9174, 7928.112
530.3995, 7709.297
530.8816, 7473.779
531.3637, 7231.596
531.8458, 6991.946
532.3279, 6746.288
532.8101, 6491.280
533.2922, 6208.282
533.7743, 5937.938
534.2564, 5678.352
534.7385, 5434.271
535.2206, 5203.894
535.7027, 4987.493
536.1848, 4787.502
536.6669, 4601.604
537.1490, 4431.593
537.6312, 4287.152
538.1133, 4175.553
538.5954, 4068.011
539.0775, 3935.046
539.5596, 3781.012
540.0417, 3650.192
540.5239, 3549.147
541.0060, 3464.052
541.4881, 3377.236
541.9702, 3290.400
542.4523, 3208.842
542.9344, 3131.422
543.4166, 3062.792
543.8987, 3012.230
544.3808, 2977.021
544.8629, 2940.582
545.3450, 2889.706
545.8271, 2837.028
546.3093, 2792.541
546.7914, 2763.388
547.2735, 2730.122
547.7556, 2684.170
548.2377, 2633.671
548.7198, 2589.562
549.2020, 2552.083
549.6841, 2520.995
550.1662, 2497.366
550.6483, 2480.408
551.1304, 2466.462
551.6125, 2458.855
552.0947, 2444.671
552.5768, 2412.563
553.0589, 2363.108
553.5410, 2322.077
554.0231, 2290.265
554.5052, 2265.800
554.9874, 2251.499
555.4695, 2243.629
555.9516, 2229.652
556.4337, 2201.488
556.9158, 2171.753
557.3979, 2156.221
557.8801, 2150.772
558.3622, 2142.439
558.8443, 2122.830
559.3264, 2099.508
559.8085, 2076.028
560.2906, 2052.175
560.7728, 2033.236
561.2549, 2025.472
561.7370, 2020.439
562.2191, 2011.277
562.7012, 1996.056
563.1833, 1978.835
563.6655, 1957.448
564.1476, 1935.237
564.6297, 1919.795
565.1118, 1912.641
565.5939, 1907.954
566.0760, 1905.459
566.5582, 1904.037
567.0403, 1895.456
567.5224, 1879.274
568.0045, 1862.421
568.4866, 1851.949
568.9688, 1845.147
569.4509, 1834.478
569.9330, 1818.233
570.4151, 1801.873
570.8972, 1788.161
571.3793, 1778.379
571.8615, 1774.983
572.3436, 1788.803
572.8257, 1799.767
573.3078, 1794.251
573.7899, 1775.955
574.2720, 1763.639
574.7542, 1758.047
575.2363, 1762.326
575.7184, 1782.483
576.2005, 1827.774
576.6826, 1849.785
577.1647, 1839.616
577.6469, 1816.463
578.1290, 1798.072
578.6111, 1784.781
579.0932, 1773.468
579.5753, 1762.659
580.0574, 1755.304
580.5396, 1760.906
581.0217, 1778.152
581.5038, 1791.762
581.9859, 1790.548
582.4680, 1782.514
582.9501, 1781.367
583.4323, 1786.494
583.9144, 1790.281
584.3965, 1782.272
584.8786, 1773.359
585.3607, 1775.375
585.8428, 1795.329
586.3250, 1811.916
586.8071, 1818.162
587.2892, 1817.076
587.7713, 1812.479
588.2534, 1797.129
588.7355, 1788.017
589.2177, 1790.470
589.6998, 1800.948
590.1819, 1804.925
590.6640, 1800.949
591.1461, 1794.370
591.6282, 1785.888
592.1104, 1775.900
592.5925, 1772.505
593.0746, 1776.300
593.5567, 1782.165
594.0388, 1785.349
594.5209, 1786.654
595.0031, 1788.921
595.4852, 1794.099
595.9673, 1796.354
596.4494, 1786.282
596.9315, 1769.749
597.4136, 1758.151
597.8958, 1764.931
598.3779, 1769.180
598.8600, 1755.662
599.3421, 1727.729
599.8242, 1714.438
600.3063, 1735.290
600.7885, 1758.377
601.2706, 1770.000
601.7527, 1767.454
602.2348, 1767.089
602.7169, 1770.380
603.1990, 1773.443
603.6812, 1771.668
604.1633, 1764.836
604.6454, 1757.794
605.1275, 1750.204
605.6096, 1744.936
606.0917, 1750.010
606.5739, 1762.550
607.0560, 1770.838
607.5381, 1766.254
608.0202, 1756.470
608.5023, 1747.429
608.9844, 1739.601
609.4666, 1735.592
609.9487, 1739.238
610.4308, 1745.313
610.9129, 1751.183
611.3950, 1757.820
611.8771, 1760.469
612.3593, 1753.482
612.8414, 1745.543
613.3235, 1744.876
613.8056, 1755.952
614.2877, 1763.173
614.7698, 1763.543
615.2520, 1760.434
615.7341, 1762.794
616.2162, 1770.974
616.6983, 1775.243
617.1804, 1768.237
617.6625, 1755.975
618.1446, 1751.627
618.6267, 1754.887
619.1088, 1763.355
619.5909, 1784.561
620.0731, 1805.223
620.5552, 1808.953
621.0373, 1791.341
621.5194, 1772.568
622.0015, 1759.889
622.4836, 1750.903
622.9658, 1743.239
623.4479, 1731.024
623.9300, 1727.864
624.4121, 1741.964
624.8942, 1762.853
625.3763, 1767.524
625.8585, 1748.707
626.3406, 1735.848
626.8227, 1740.912
627.3048, 1758.365
627.7869, 1761.379
628.2690, 1749.532
628.7512, 1739.620
629.2333, 1746.767
629.7154, 1762.592
630.1975, 1772.898
630.6796, 1776.791
631.1617, 1772.109
631.6439, 1747.102
632.1260, 1717.264
632.6081, 1700.471
633.0902, 1709.883
633.5723, 1717.646
634.0544, 1716.206
634.5366, 1708.351
635.0187, 1698.507
635.5008, 1681.706
635.9829, 1671.220
636.4650, 1672.817
636.9471, 1682.586
637.4293, 1682.351
637.9114, 1670.391
638.3935, 1656.886
638.8756, 1644.322
639.3577, 1634.341
639.8398, 1637.123
640.3220, 1653.043
640.8041, 1666.699
641.2862, 1660.001
641.7683, 1645.163
642.2504, 1640.434
642.7325, 1652.538
643.2147, 1663.380
643.6968, 1660.828
644.1789, 1652.592
644.6610, 1648.212
645.1431, 1655.242
645.6252, 1659.492
646.1074, 1656.471
646.5895, 1649.896
647.0716, 1650.859
647.5537, 1663.492
648.0358, 1672.851
648.5179, 1672.272
649.0001, 1664.247
649.4822, 1661.710
649.9643, 1664.738
650.4464, 1671.297
650.9285, 1685.744
651.4106, 1701.221
651.8928, 1701.090
652.3749, 1682.807
652.8570, 1666.505
653.3391, 1669.448
653.8212, 1680.465
654.3033, 1687.837
654.7855, 1684.924
655.2676, 1684.639
655.7497, 1692.871
656.2318, 1704.497
656.7139, 1711.241
657.1960, 1708.803
657.6782, 1710.494
658.1603, 1722.428
658.6424, 1738.887
659.1245, 1736.005
659.6066, 1711.805
660.0887, 1692.987
660.5709, 1694.021
661.0530, 1709.811
661.5351, 1732.644
662.0172, 1761.663
662.4993, 1783.770
662.9814, 1784.989
663.4636, 1777.242
663.9457, 1771.712
664.4278, 1770.290
664.9099, 1769.574
665.3920, 1770.376
665.8741, 1770.299
666.3563, 1766.706
666.8384, 1754.732
667.3205, 1747.451
667.8026, 1746.504
668.2847, 1749.466
668.7668, 1750.855
669.2490, 1749.692
669.7311, 1757.030
670.2132, 1780.740
670.6953, 1809.716
671.1774, 1819.291
671.6595, 1811.781
672.1417, 1799.932
672.6238, 1787.089
673.1059, 1775.997
673.5880, 1770.325
674.0701, 1769.809
674.5522, 1769.043
675.0344, 1764.635
675.5165, 1760.155
675.9986, 1757.083
676.4807, 1754.115
676.9628, 1757.788
677.4449, 1773.081
677.9271, 1789.126
678.4092, 1796.554
678.8913, 1794.925
679.3734, 1786.576
679.8555, 1769.314
680.3376, 1752.014
680.8198, 1749.910
681.3019, 1759.344
681.7840, 1767.686
682.2661, 1771.960
682.7482, 1772.119
683.2303, 1764.882
683.7125, 1753.574
684.1946, 1746.129
684.6767, 1753.461
685.1588, 1757.680
685.6409, 1748.754
686.1230, 1727.469
686.6052, 1714.416
687.0873, 1712.848
687.5694, 1714.510
688.0515, 1716.141
688.5336, 1717.713
689.0157, 1720.966
689.4979, 1726.514
689.9800, 1729.672
690.4621, 1724.422
690.9442, 1713.763
691.4263, 1703.840
691.9084, 1694.939
692.3906, 1690.605
692.8727, 1698.540
693.3548, 1710.663
693.8369, 1717.537
694.3190, 1713.532
694.8011, 1708.257
695.2833, 1702.448
695.7654, 1697.156
696.2475, 1693.947
696.7296, 1692.617
697.2117, 1694.286
697.6938, 1701.180
698.1760, 1710.104
698.6581, 1708.440
699.1402, 1696.089
699.6223, 1689.785
700.1044, 1704.764
700.5865, 1727.248
701.0686, 1729.175
701.5507, 1713.627
702.0328, 1700.407
702.5150, 1704.520
702.9971, 1712.638
703.4792, 1715.475
703.9613, 1711.744
704.4434, 1707.677
704.9255, 1703.537
705.4077, 1700.140
705.8898, 1697.741
706.3719, 1695.756
706.8540, 1697.244
707.3361, 1676.708
707.8182, 1699.978
708.3004, 1714.015
708.7825, 1719.315
709.2646, 1689.712
709.7467, 1705.180
710.2288, 1702.585
710.7109, 1699.249
711.1931, 1721.061
711.6752, 1696.534
712.1573, 1717.947
712.6394, 1721.021
713.1215, 1732.488
713.6036, 1725.781
714.0858, 1728.075
714.5679, 1727.707
715.0500, 1727.711
715.5321, 1727.277
716.0142, 1726.789
716.4963, 1729.949
716.9785, 1738.062
717.4606, 1739.558
717.9427, 1719.507
718.4248, 1690.886
718.9069, 1689.797
719.3890, 1713.661
719.8712, 1736.888
720.3533, 1741.901
720.8354, 1738.884
721.3175, 1735.385
721.7996, 1732.092
722.2817, 1729.315
722.7639, 1725.786
723.2460, 1723.812
723.7281, 1725.431
724.2102, 1733.305
724.6923, 1736.235
725.1744, 1733.345
725.6566, 1727.055
726.1387, 1717.002
726.6208, 1704.495
727.1029, 1700.374
727.5850, 1707.472
728.0671, 1719.322
728.5493, 1735.389
729.0314, 1749.694
729.5135, 1751.464
729.9956, 1721.574
730.4777, 1699.271
730.9598, 1711.094
731.4420, 1739.898
731.9241, 1748.376
732.4062, 1715.982
732.8883, 1694.075
733.3704, 1695.547
733.8525, 1712.052
734.3347, 1716.258
734.8168, 1707.240
735.2989, 1698.503
735.7810, 1695.609
736.2631, 1697.062
736.7452, 1701.522
737.2274, 1708.251
737.7095, 1713.424
738.1916, 1714.057
738.6737, 1712.975
739.1558, 1712.937
739.6379, 1714.122
740.1201, 1711.325
740.6022, 1697.948
741.0843, 1686.038
741.5664, 1680.468
742.0485, 1681.482
742.5306, 1689.495
743.0128, 1707.831
743.4949, 1721.412
743.9770, 1711.441
744.4591, 1685.674
744.9412, 1673.049
745.4233, 1677.008
745.9055, 1684.971
746.3876, 1688.433
746.8697, 1689.157
747.3518, 1688.522
747.8339, 1684.225
748.3160, 1684.148
748.7982, 1701.771
749.2803, 1718.078
749.7624, 1709.956
750.2445, 1661.611
750.7266, 1633.997
751.2087, 1637.982
751.6909, 1657.155
752.1730, 1664.017
752.6551, 1660.961
753.1372, 1664.136
753.6193, 1682.576
754.1014, 1701.324
754.5836, 1704.484
755.0657, 1695.920
755.5478, 1683.505
756.0299, 1658.302
756.5120, 1643.066
756.9941, 1651.840
757.4763, 1677.169
757.9584, 1693.252
758.4405, 1695.609
758.9226, 1697.969
759.4047, 1705.299
759.8868, 1714.977
760.3690, 1718.484
760.8511, 1715.769
761.3332, 1707.603
761.8153, 1683.384
762.2974, 1660.092
762.7795, 1666.963
763.2617, 1699.064
763.7438, 1723.676
764.2259, 1721.332
764.7080, 1711.081
765.1901, 1701.178
765.6722, 1692.170
766.1544, 1684.667
766.6365, 1678.797
767.1186, 1674.207
767.6007, 1669.609
768.0828, 1665.204
768.5649, 1670.181
769.0471, 1685.211
769.5292, 1698.693
770.0113, 1698.796
770.4934, 1692.209
770.9755, 1688.974
771.4576, 1690.380
771.9398, 1692.184
772.4219, 1692.157
772.9040, 1691.772
773.3861, 1691.697
773.8682, 1690.076
774.3503, 1694.873
774.8325, 1711.761
775.3146, 1726.968
775.7967, 1724.325
776.2788, 1704.288
776.7609, 1694.247
777.2430, 1697.764
777.7252, 1706.464
778.2073, 1712.168
778.6894, 1716.287
779.1715, 1721.871
779.6536, 1731.852
780.1357, 1737.759
780.6179, 1731.238
781.1000, 1720.456
781.5821, 1715.866
782.0642, 1723.671
782.5463, 1727.618
783.0284, 1727.064
783.5105, 1722.104
783.9926, 1710.342
784.4747, 1692.455
784.9568, 1678.967
785.4390, 1671.970
785.9211, 1671.216
786.4032, 1680.286
786.8853, 1694.779
787.3674, 1705.975
787.8495, 1704.733
788.3317, 1706.523
788.8138, 1723.180
789.2959, 1745.577
789.7780, 1753.148
790.2601, 1736.864
790.7422, 1723.829
791.2244, 1719.082
791.7065, 1720.036
792.1886, 1723.172
792.6707, 1727.728
793.1528, 1725.572
793.6349, 1710.475
794.1171, 1690.739
794.5992, 1668.271
795.0813, 1648.408
795.5634, 1644.386
796.0455, 1685.417
796.5276, 1718.001
797.0098, 1718.094
797.4919, 1693.996
797.9740, 1675.966
798.4561, 1664.618
798.9382, 1657.234
799.4203, 1654.036
799.9025, 1653.505
800.3846, 1650.575
800.8667, 1645.683
801.3488, 1642.098
801.8309, 1641.501
802.3130, 1643.041
802.7952, 1649.489
803.2773, 1658.395
803.7594, 1659.384
804.2415, 1638.248
804.7236, 1620.222
805.2057, 1614.701
805.6879, 1619.971
806.1700, 1624.082
806.6521, 1627.521
807.1342, 1627.669
807.6163, 1621.911
808.0984, 1612.405
808.5806, 1604.716
809.0627, 1598.808
809.5448, 1594.011
810.0269, 1590.336
810.5090, 1587.262
810.9911, 1583.576
811.4733, 1579.469
811.9554, 1578.725
812.4375, 1585.826
812.9196, 1591.754
813.4017, 1593.993
813.8839, 1592.538
814.3660, 1583.947
814.8481, 1567.175
815.3302, 1555.945
815.8123, 1566.681
816.2944, 1585.499
816.7766, 1583.219
817.2587, 1562.753
817.7408, 1549.314
818.2229, 1564.828
818.7050, 1584.242
819.1871, 1592.752
819.6693, 1588.598
820.1514, 1589.388
820.6335, 1598.327
821.1156, 1606.211
821.5977, 1607.190
822.0798, 1602.658
822.5620, 1603.832
823.0441, 1610.524
823.5262, 1617.590
824.0083, 1622.179
824.4904, 1624.530
824.9725, 1623.123
825.4547, 1618.274
825.9368, 1617.137
826.4189, 1627.547
826.9010, 1637.272
827.3831, 1640.004
827.8652, 1635.547
828.3474, 1632.434
828.8295, 1630.810
829.3116, 1630.037
829.7937, 1630.941
830.2758, 1632.281
830.7579, 1629.725
831.2401, 1623.503
831.7222, 1616.879
832.2043, 1611.728
832.6864, 1607.229
833.1685, 1601.669
833.6506, 1594.810
834.1328, 1593.844
834.6149, 1602.704
835.0970, 1612.641
835.5791, 1621.136
836.0612, 1627.811
836.5433, 1626.927
837.0255, 1618.245
837.5076, 1610.770
837.9897, 1613.349
838.4718, 1619.298
838.9539, 1617.535
839.4360, 1608.748
839.9182, 1603.986
840.4003, 1614.011
840.8824, 1623.644
841.3645, 1623.271
841.8466, 1613.357
842.3287, 1609.511
842.8109, 1612.792
843.2930, 1618.805
843.7751, 1627.046
844.2572, 1635.853
844.7393, 1639.147
845.2214, 1637.325
845.7036, 1633.704
846.1857, 1627.888
846.6678, 1623.117
847.1499, 1623.364
847.6320, 1628.189
848.1141, 1629.251
848.5963, 1622.933
849.0784, 1616.426
849.5605, 1612.116
850.0426, 1609.755
850.5247, 1607.082
851.0068, 1604.070
851.4890, 1604.020
851.9711, 1614.259
852.4532, 1625.096
852.9353, 1619.264
853.4174, 1601.321
853.8995, 1590.891
854.3817, 1598.287
854.8638, 1612.961
855.3459, 1637.473
855.8280, 1667.052
856.3101, 1677.315
856.7922, 1663.204
857.2744, 1649.981
857.7565, 1648.328
858.2386, 1653.049
858.7207, 1651.895
859.2028, 1646.296
859.6849, 1641.688
860.1671, 1641.795
860.6492, 1642.900
861.1313, 1640.714
861.6134, 1637.520
862.0955, 1642.257
862.5776, 1663.910
863.0598, 1677.603
863.5419, 1676.043
864.0240, 1664.856
864.5061, 1656.532
864.9882, 1651.158
865.4703, 1649.148
865.9524, 1652.206
866.4345, 1656.549
866.9166, 1657.244
867.3987, 1656.564
867.8809, 1658.891
868.3630, 1676.190
868.8451, 1682.530
869.3272, 1666.222
869.8093, 1641.336
870.2914, 1634.100
870.7736, 1646.127
871.2557, 1657.417
871.7378, 1664.620
872.2199, 1667.528
872.7020, 1661.502
873.1841, 1651.687
873.6663, 1649.192
874.1484, 1663.657
874.6305, 1674.393
875.1126, 1671.914
875.5947, 1662.281
876.0768, 1652.913
876.5590, 1642.128
877.0411, 1637.207
877.5232, 1639.742
878.0053, 1645.528
878.4874, 1649.628
878.9695, 1652.778
879.4517, 1657.462
879.9338, 1664.563
880.4159, 1670.794
880.8980, 1673.874
881.3801, 1675.063
881.8622, 1675.021
882.3444, 1671.243
882.8265, 1673.789
883.3086, 1686.617
883.7907, 1698.740
884.2728, 1700.152
884.7549, 1692.072
885.2371, 1681.083
885.7192, 1667.432
886.2013, 1658.764
886.6834, 1665.071
887.1655, 1676.819
887.6476, 1686.415
888.1298, 1693.176
888.6119, 1695.393
889.0940, 1688.945
889.5761, 1683.192
890.0582, 1683.142
890.5403, 1688.393
891.0225, 1691.458
891.5046, 1692.356
891.9867, 1693.155
892.4688, 1697.881
892.9509, 1701.526
893.4330, 1694.419
893.9152, 1679.062
894.3973, 1671.664
894.8794, 1687.619
895.3615, 1701.677
895.8436, 1703.966
896.3257, 1697.542
896.8079, 1697.978
897.2900, 1706.011
897.7721, 1711.560
898.2542, 1709.334
898.7363, 1703.438
899.2184, 1699.266
899.7006, 1696.664
900.1827, 1695.414
900.6648, 1694.831
901.1469, 1696.180
901.6290, 1697.674
902.1111, 1702.155
902.5933, 1717.466
903.0754, 1748.599
903.5575, 1767.190
904.0396, 1765.035
904.5217, 1755.716
905.0038, 1758.993
905.4860, 1770.719
905.9681, 1782.621
906.4502, 1794.187
906.9323, 1801.159
907.4144, 1796.867
907.8965, 1789.528
908.3787, 1788.464
908.8608, 1797.050
909.3429, 1802.468
909.8250, 1804.029
910.3071, 1803.471
910.7892, 1801.258
911.2714, 1798.457
911.7535, 1796.759
912.2356, 1796.129
912.7177, 1800.771
913.1998, 1821.323
913.6819, 1841.927
914.1641, 1849.222
914.6462, 1840.318
915.1283, 1837.963
915.6104, 1845.010
916.0925, 1851.107
916.5746, 1849.143
917.0568, 1841.477
917.5389, 1835.596
918.0210, 1831.610
918.5031, 1830.223
918.9852, 1833.113
919.4673, 1837.692
919.9495, 1841.828
920.4316, 1846.153
920.9137, 1854.868
921.3958, 1872.253
921.8779, 1883.818
922.3600, 1883.059
922.8422, 1876.353
923.3243, 1878.361
923.8064, 1887.858
924.2885, 1900.712
924.7706, 1919.342
925.2527, 1934.409
925.7349, 1944.449
926.2170, 1945.579
926.6991, 1928.605
927.1812, 1870.646
927.6633, 1842.835
928.1454, 1857.226
928.6276, 1890.018
929.1097, 1915.930
929.5918, 1934.457
930.0739, 1941.816
930.5560, 1935.720
931.0381, 1930.841
931.5203, 1941.103
932.0024, 1955.259
932.4845, 1962.152
932.9666, 1955.889
933.4487, 1961.675
933.9308, 1986.026
934.4130, 2008.683
934.8951, 2012.347
935.3772, 2002.363
935.8593, 2003.325
936.3414, 2014.678
936.8235, 2030.349
937.3057, 2049.804
937.7878, 2069.138
938.2699, 2085.254
938.7520, 2098.482
939.2341, 2114.133
939.7162, 2138.696
940.1984, 2149.581
940.6805, 2133.916
941.1626, 2107.295
941.6447, 2110.651
942.1268, 2136.854
942.6089, 2157.708
943.0911, 2157.679
943.5732, 2156.466
944.0553, 2168.271
944.5374, 2185.584
945.0195, 2196.163
945.5016, 2195.916
945.9838, 2196.374
946.4659, 2196.862
946.9480, 2201.300
947.4301, 2217.905
947.9122, 2242.203
948.3943, 2259.440
948.8764, 2266.936
949.3585, 2276.011
949.8406, 2298.069
950.3228, 2321.332
950.8049, 2336.867
951.2870, 2344.024
951.7691, 2347.386
952.2512, 2345.276
952.7333, 2344.999
953.2155, 2354.494
953.6976, 2367.647
954.1797, 2363.958
954.6618, 2347.951
955.1439, 2340.618
955.6260, 2362.283
956.1082, 2385.364
956.5903, 2393.817
957.0724, 2394.333
957.5545, 2407.433
958.0366, 2439.654
958.5187, 2455.130
959.0009, 2441.917
959.4830, 2418.974
959.9651, 2413.760
960.4472, 2420.973
960.9293, 2429.963
961.4114, 2438.345
961.8936, 2447.334
962.3757, 2462.914
962.8578, 2475.032
963.3399, 2473.236
963.8220, 2452.831
964.3041, 2444.202
964.7863, 2448.336
965.2684, 2457.027
965.7505, 2464.612
966.2326, 2471.830
966.7147, 2481.879
967.1968, 2494.032
967.6790, 2499.865
968.1611, 2488.628
968.6432, 2478.896
969.1253, 2477.307
969.6074, 2482.176
970.0895, 2486.625
970.5717, 2490.737
971.0538, 2495.035
971.5359, 2501.456
972.0180, 2505.475
972.5001, 2499.843
972.9822, 2488.902
973.4644, 2480.175
973.9465, 2475.396
974.4286, 2473.655
974.9107, 2476.296
975.3928, 2479.894
975.8749, 2479.532
976.3571, 2476.022
976.8392, 2476.019
977.3213, 2480.061
977.8034, 2488.919
978.2855, 2511.865
978.7676, 2533.674
979.2498, 2538.634
979.7319, 2524.014
980.2140, 2513.939
980.6961, 2510.233
981.1782, 2509.086
981.6603, 2511.187
982.1425, 2513.354
982.6246, 2501.027
983.1067, 2478.847
983.5888, 2465.514
984.0709, 2476.627
984.5530, 2491.771
985.0352, 2508.064
985.5173, 2519.304
985.9994, 2513.532
986.4815, 2482.441
986.9636, 2462.322
987.4457, 2456.747
987.9279, 2462.662
988.4100, 2485.870
988.8921, 2514.980
989.3742, 2525.898
989.8563, 2512.959
990.3384, 2504.027
990.8206, 2515.658
991.3027, 2529.378
991.7848, 2534.722
992.2669, 2532.228
992.7490, 2533.850
993.2311, 2539.806
993.7133, 2542.617
994.1954, 2531.433
994.6775, 2520.814
995.1596, 2535.775
995.6417, 2564.371
996.1238, 2577.013
996.6060, 2545.110
997.0881, 2525.199
997.5702, 2526.581
998.0523, 2539.281
998.5344, 2553.570
999.0165, 2567.829
999.4987, 2569.538
999.9808, 2555.156
1000.463, 2542.560
1000.945, 2552.777
1001.427, 2565.639
1001.909, 2561.070
1002.391, 2533.682
1002.873, 2521.697
1003.356, 2530.235
1003.838, 2538.888
1004.320, 2533.502
1004.802, 2523.380
1005.284, 2534.788
1005.766, 2562.106
1006.248, 2585.987
1006.730, 2602.557
1007.213, 2608.745
1007.695, 2594.794
1008.177, 2573.635
1008.659, 2565.096
1009.141, 2571.235
1009.623, 2568.299
1010.105, 2551.229
1010.587, 2537.900
1011.069, 2558.648
1011.552, 2587.830
1012.034, 2589.183
1012.516, 2553.969
1012.998, 2534.346
1013.480, 2552.551
1013.962, 2567.043
1014.444, 2556.388
1014.926, 2529.190
1015.409, 2526.264
1015.891, 2544.183
1016.373, 2560.571
1016.855, 2570.703
1017.337, 2569.442
1017.819, 2539.699
1018.301, 2500.717
1018.783, 2487.481
1019.265, 2513.050
1019.748, 2529.220
1020.230, 2531.209
1020.712, 2528.284
1021.194, 2528.883
1021.676, 2532.106
1022.158, 2537.056
1022.640, 2543.539
1023.122, 2548.671
1023.604, 2551.501
1024.087, 2552.196
1024.569, 2551.036
1025.051, 2547.916
1025.533, 2539.770
1026.015, 2526.999
1026.497, 2522.545
1026.979, 2536.583
1027.461, 2552.294
1027.943, 2548.749
1028.426, 2538.155
1028.908, 2538.913
1029.390, 2570.750
1029.872, 2584.325
1030.354, 2574.383
1030.836, 2557.637
1031.318, 2547.849
1031.800, 2543.667
1032.283, 2539.985
1032.765, 2536.970
1033.247, 2539.389
1033.729, 2556.408
1034.211, 2572.730
1034.693, 2583.253
1035.175, 2587.024
1035.657, 2576.022
1036.140, 2548.449
1036.622, 2535.578
1037.104, 2550.612
1037.586, 2569.576
1038.068, 2560.408
1038.550, 2539.689
1039.032, 2530.015
1039.514, 2540.550
1039.996, 2547.854
1040.479, 2547.772
1040.961, 2549.164
1041.443, 2559.144
1041.925, 2575.594
1042.407, 2592.352
1042.889, 2607.958
1043.371, 2612.790
1043.853, 2586.550
1044.335, 2564.537
1044.818, 2569.427
1045.300, 2588.501
1045.782, 2596.308
1046.264, 2590.236
1046.746, 2591.159
1047.228, 2603.094
1047.710, 2616.923
1048.192, 2622.535
1048.675, 2624.267
1049.157, 2626.446
1049.639, 2629.354
1050.121, 2636.738
1050.603, 2653.172
1051.085, 2666.104
1051.567, 2667.050
1052.049, 2662.927
1052.531, 2683.649
1053.014, 2720.566
1053.496, 2738.508
1053.978, 2709.833
1054.460, 2678.995
1054.942, 2666.233
1055.424, 2663.669
1055.906, 2662.705
1056.388, 2664.383
1056.870, 2659.852
1057.353, 2647.827
1057.835, 2639.999
1058.317, 2647.425
1058.799, 2663.257
1059.281, 2688.197
1059.763, 2717.806
1060.245, 2723.584
1060.727, 2681.726
1061.210, 2650.159
1061.692, 2641.490
1062.174, 2647.430
1062.656, 2657.870
1063.138, 2670.170
1063.620, 2676.829
1064.102, 2676.247
1064.584, 2669.692
1065.067, 2645.159
1065.549, 2604.029
1066.031, 2622.826
1066.513, 2632.390
1066.995, 2633.218
1067.477, 2599.141
1067.959, 2610.136
1068.441, 2603.069
1068.923, 2595.261
1069.406, 2612.594
1069.888, 2583.595
1070.370, 2600.534
1070.852, 2599.135
1071.334, 2606.130
1071.816, 2594.950
1072.298, 2589.384
1072.780, 2601.998
1073.262, 2604.545
1073.745, 2591.268
1074.227, 2598.796
1074.709, 2569.162
1075.191, 2572.137
1075.673, 2589.183
1076.155, 2576.825
1076.637, 2584.685
1077.119, 2571.468
1077.601, 2577.519
1078.084, 2574.509
1078.566, 2554.658
1079.048, 2536.724
1079.530, 2540.313
1080.012, 2549.438
1080.494, 2546.442
1080.976, 2528.559
1081.458, 2521.982
1081.941, 2527.630
1082.423, 2540.044
1082.905, 2563.846
1083.387, 2585.997
1083.869, 2583.750
1084.351, 2565.294
1084.833, 2548.871
1085.315, 2538.349
1085.797, 2533.243
1086.280, 2535.404
1086.762, 2539.673
1087.244, 2541.604
1087.726, 2541.005
1088.208, 2536.084
1088.690, 2527.045
1089.172, 2518.170
1089.654, 2504.641
1090.136, 2499.995
1090.619, 2516.335
1091.101, 2543.341
1091.583, 2555.271
1092.065, 2552.199
1092.547, 2540.554
1093.029, 2518.869
1093.511, 2501.684
1093.993, 2510.120
1094.476, 2524.852
1094.958, 2524.104
1095.440, 2503.068
1095.922, 2498.305
1096.404, 2514.502
1096.886, 2527.929
1097.368, 2524.232
1097.850, 2514.368
1098.333, 2517.032
1098.815, 2527.120
1099.297, 2533.996
1099.779, 2533.149
1100.261, 2509.117
1100.743, 2528.941
1101.225, 2539.533
1101.707, 2541.387
1102.189, 2508.338
1102.672, 2520.358
1103.154, 2514.317
1103.636, 2507.536
1104.118, 2525.902
1104.600, 2497.929
1105.082, 2515.896
1105.564, 2515.525
1106.046, 2523.546
1106.528, 2513.394
1107.011, 2508.852
1107.493, 2522.493
1107.975, 2526.068
1108.457, 2513.823
1108.939, 2522.378
1109.421, 2493.771
1109.903, 2497.774
1110.385, 2494.197
1110.868, 2488.916
1111.350, 2490.443
1111.832, 2502.779
1112.314, 2514.855
1112.796, 2506.103
1113.278, 2488.791
1113.760, 2482.048
1114.242, 2495.632
1114.724, 2502.663
1115.207, 2499.165
1115.689, 2494.250
1116.171, 2494.636
1116.653, 2497.165
1117.135, 2490.435
1117.617, 2477.957
1118.099, 2471.085
1118.581, 2482.728
1119.063, 2489.528
1119.546, 2483.405
1120.028, 2473.753
1120.510, 2470.891
1120.992, 2473.719
1121.474, 2472.569
1121.956, 2467.220
1122.438, 2461.679
1122.920, 2460.760
1123.403, 2458.135
1123.885, 2448.328
1124.367, 2434.841
1124.849, 2425.913
1125.331, 2421.960
1125.813, 2411.795
1126.295, 2392.039
1126.777, 2375.821
1127.260, 2378.446
1127.742, 2388.258
1128.224, 2396.290
1128.706, 2401.521
1129.188, 2402.964
1129.670, 2400.620
1130.152, 2393.161
1130.634, 2376.625
1131.116, 2361.838
1131.599, 2367.394
1132.081, 2383.342
1132.563, 2394.916
1133.045, 2399.127
1133.527, 2397.468
1134.009, 2387.359
1134.491, 2377.785
1134.973, 2374.313
1135.455, 2374.721
1135.938, 2376.086
1136.420, 2376.808
1136.902, 2372.530
1137.384, 2354.618
1137.866, 2341.456
1138.348, 2337.226
1138.830, 2336.411
1139.312, 2335.725
1139.795, 2334.355
1140.277, 2326.669
1140.759, 2313.408
1141.241, 2300.801
1141.723, 2292.335
1142.205, 2285.457
1142.687, 2279.338
1143.169, 2274.055
1143.651, 2270.780
1144.134, 2269.244
1144.616, 2264.216
1145.098, 2254.995
1145.580, 2245.098
1146.062, 2231.930
1146.544, 2223.742
1147.026, 2232.538
1147.508, 2251.407
1147.990, 2252.814
1148.473, 2235.581
1148.955, 2218.016
1149.437, 2204.250
1149.919, 2193.111
1150.401, 2182.801
1150.883, 2175.228
1151.365, 2173.493
1151.847, 2178.149
1152.330, 2180.782
1152.812, 2181.528
1153.294, 2178.575
1153.776, 2168.709
1154.258, 2159.121
1154.740, 2165.246
1155.222, 2175.492
1155.704, 2172.461
1156.186, 2146.109
1156.669, 2121.527
1157.151, 2097.386
1157.633, 2079.363
1158.115, 2072.999
1158.597, 2073.716
1159.079, 2075.704
1159.561, 2077.558
1160.043, 2075.874
1160.526, 2064.902
1161.008, 2057.589
1161.490, 2055.951
1161.972, 2055.303
1162.454, 2052.608
1162.936, 2047.352
1163.418, 2033.488
1163.900, 2014.466
1164.382, 2006.537
1164.865, 2035.309
1165.347, 2048.941
1165.829, 2032.240
1166.311, 2005.199
1166.793, 1994.164
1167.275, 1995.145
1167.757, 1994.417
1168.239, 1990.829
1168.721, 1985.700
1169.204, 1974.733
1169.686, 1968.948
1170.168, 1974.875
1170.650, 1985.382
1171.132, 1985.877
1171.614, 1977.587
1172.096, 1964.371
1172.578, 1945.739
1173.061, 1934.757
1173.543, 1953.041
1174.025, 1965.683
1174.507, 1948.395
1174.989, 1913.103
1175.471, 1904.246
1175.953, 1918.934
1176.435, 1933.969
1176.917, 1944.857
1177.400, 1947.123
1177.882, 1930.932
1178.364, 1910.455
1178.846, 1895.269
1179.328, 1885.580
1179.810, 1884.557
1180.292, 1891.691
1180.774, 1894.471
1181.256, 1883.862
1181.739, 1875.614
1182.221, 1889.856
1182.703, 1906.837
1183.185, 1903.275
1183.667, 1876.304
1184.149, 1864.872
1184.631, 1868.970
1185.113, 1879.758
1185.596, 1900.169
1186.078, 1916.040
1186.560, 1910.665
1187.042, 1896.217
1187.524, 1892.271
1188.006, 1904.554
1188.488, 1899.053
1188.970, 1873.739
1189.453, 1854.709
1189.935, 1870.335
1190.417, 1890.678
1190.899, 1883.378
1191.381, 1862.760
1191.863, 1863.084
1192.345, 1892.417
1192.827, 1913.878
1193.309, 1925.977
1193.792, 1923.603
1194.274, 1884.801
1194.756, 1844.294
1195.238, 1839.216
1195.720, 1862.209
1196.202, 1880.236
1196.684, 1892.219
1197.166, 1897.459
1197.648, 1895.467
1198.131, 1889.244
1198.613, 1876.288
1199.095, 1864.666
1199.577, 1864.862
1200.059, 1875.757
1200.541, 1882.891
1201.023, 1885.003
1201.505, 1887.169
1201.988, 1890.944
1202.470, 1892.459
1202.952, 1880.109
1203.434, 1867.919
1203.916, 1877.277
1204.398, 1908.714
1204.880, 1917.589
1205.362, 1896.243
1205.844, 1880.379
1206.327, 1880.367
1206.809, 1886.911
1207.291, 1893.787
1207.773, 1897.242
1208.255, 1890.321
1208.737, 1870.723
1209.219, 1860.478
1209.701, 1861.893
1210.183, 1863.430
1210.666, 1860.435
1211.148, 1857.394
1211.630, 1859.601
1212.112, 1865.745
1212.594, 1876.962
1213.076, 1896.829
1213.558, 1896.479
1214.040, 1870.564
1214.523, 1848.365
1215.005, 1843.524
1215.487, 1846.890
1215.969, 1848.071
1216.451, 1848.876
1216.933, 1852.322
1217.415, 1860.302
1217.897, 1864.260
1218.380, 1863.042
1218.862, 1863.931
1219.344, 1872.970
1219.826, 1883.166
1220.308, 1885.172
1220.790, 1882.430
1221.272, 1880.039
1221.754, 1877.961
1222.236, 1878.391
1222.719, 1881.143
1223.201, 1887.512
1223.683, 1903.664
1224.165, 1918.517
1224.647, 1919.855
1225.129, 1910.523
1225.611, 1893.239
1226.093, 1859.373
1226.575, 1850.478
1227.058, 1869.901
1227.540, 1889.235
1228.022, 1880.926
1228.504, 1869.358
1228.986, 1886.997
1229.468, 1917.700
1229.950, 1926.502
1230.432, 1903.424
1230.915, 1895.515
1231.397, 1905.646
1231.879, 1914.795
1232.361, 1903.346
1232.843, 1889.307
1233.325, 1889.756
1233.807, 1899.761
1234.289, 1908.214
1234.771, 1915.063
1235.254, 1919.223
1235.736, 1920.814
1236.218, 1916.865
1236.700, 1894.297
1237.182, 1875.702
1237.664, 1887.538
1238.146, 1914.405
1238.628, 1917.720
1239.110, 1893.666
1239.593, 1885.592
1240.075, 1897.597
1240.557, 1907.250
1241.039, 1892.062
1241.521, 1873.985
1242.003, 1866.244
1242.485, 1867.292
1242.967, 1874.630
1243.449, 1888.360
1243.932, 1899.310
1244.414, 1906.431
1244.896, 1910.486
1245.378, 1913.204
1245.860, 1911.658
1246.342, 1899.360
1246.824, 1883.965
1247.306, 1879.404
1247.789, 1885.034
1248.271, 1891.217
1248.753, 1896.943
1249.235, 1901.534
1249.717, 1903.887
1250.199, 1905.722
1250.681, 1907.967
1251.163, 1910.135
1251.646, 1913.386
1252.128, 1916.110
1252.610, 1906.368
1253.092, 1882.724
1253.574, 1865.852
1254.056, 1870.911
1254.538, 1880.679
1255.020, 1890.847
1255.502, 1899.205
1255.984, 1899.021
1256.467, 1893.471
1256.949, 1893.378
1257.431, 1900.166
1257.913, 1906.399
1258.395, 1910.969
1258.877, 1910.800
1259.359, 1901.668
1259.841, 1893.033
1260.324, 1907.011
1260.806, 1932.103
1261.288, 1942.868
1261.770, 1935.957
1262.252, 1926.264
1262.734, 1916.084
1263.216, 1905.049
1263.698, 1891.069
1264.181, 1881.031
1264.663, 1890.700
1265.145, 1908.671
1265.627, 1914.556
1266.109, 1905.989
1266.591, 1909.789
1267.073, 1935.058
1267.555, 1950.018
1268.037, 1944.979
1268.520, 1932.436
1269.002, 1926.720
1269.484, 1923.638
1269.966, 1916.390
1270.448, 1904.938
1270.930, 1903.997
1271.412, 1916.032
1271.894, 1924.112
1272.376, 1923.480
1272.859, 1920.557
1273.341, 1923.516
1273.823, 1926.078
1274.305, 1916.281
1274.787, 1899.173
1275.269, 1911.642
1275.751, 1954.990
1276.233, 1977.668
1276.716, 1965.540
1277.198, 1943.046
1277.680, 1917.069
1278.162, 1900.061
##END=



