##NAMES=Leucophoenicite
##RRUFFID=R060308
##IDEAL CHEMISTRY=Mn^2+^_7_(SiO_4_)_3_(OH)_2_
##LOCALITY=Parker Shaft, Franklin, Sussex County, New Jersey, USA
##OWNER=RRUFF
##SOURCE=Michael Scott
##DESCRIPTION=Pink-tan colored massive, associated with white willemite and pinkish ribbeite (R150125). X-ray shows sample is twinned 180 deg around a.
##STATUS=The identification of this mineral has been confirmed by single-crystal X-ray diffraction.
##URL=rruff.info/R060308
90.49219, 37.38512
90.97430, 36.97865
91.45642, 36.83534
91.93854, 37.31126
92.42065, 37.94560
92.90277, 38.00753
93.38489, 37.38550
93.86700, 36.50092
94.34912, 35.72895
94.83124, 35.08447
95.31335, 34.68024
95.79547, 34.77288
96.27759, 35.21736
96.75970, 35.38679
97.24182, 35.11852
97.72394, 34.62974
98.20605, 34.45278
98.68817, 34.63286
99.17029, 34.74967
99.65240, 34.34620
100.1345, 33.36787
100.6166, 32.66588
101.0988, 32.43351
101.5809, 32.63028
102.0630, 32.93797
102.5451, 33.43108
103.0272, 33.90759
103.5093, 34.16512
103.9915, 34.19899
104.4736, 34.00284
104.9557, 33.42395
105.4378, 32.27275
105.9199, 31.86663
106.4020, 32.68789
106.8842, 34.01571
107.3663, 34.58541
107.8484, 33.84569
108.3305, 32.97863
108.8126, 32.38779
109.2947, 32.27535
109.7769, 32.10300
110.2590, 31.80527
110.7411, 31.43509
111.2232, 31.16506
111.7053, 31.12612
112.1874, 31.09753
112.6696, 30.98072
113.1517, 30.52536
113.6338, 30.24070
114.1159, 30.23802
114.5980, 30.48998
115.0801, 30.80246
115.5623, 31.51696
116.0444, 32.08759
116.5265, 32.09273
117.0086, 30.44434
117.4907, 29.06823
117.9728, 28.99054
118.4550, 30.28118
118.9371, 31.23616
119.4192, 30.84541
119.9013, 29.73800
120.3834, 28.72048
120.8655, 27.88932
121.3477, 27.41018
121.8298, 27.56597
122.3119, 28.49603
122.7940, 29.38052
123.2761, 29.54607
123.7582, 29.22210
124.2404, 28.91953
124.7225, 29.02456
125.2046, 29.26305
125.6867, 29.22358
126.1688, 28.71135
126.6509, 28.24359
127.1331, 28.44559
127.6152, 29.22632
128.0973, 30.13311
128.5794, 31.13399
129.0615, 32.03904
129.5436, 32.32896
130.0258, 31.67217
130.5079, 30.58797
130.9900, 29.89877
131.4721, 29.61031
131.9542, 29.64536
132.4363, 29.94024
132.9185, 30.50090
133.4006, 31.36625
133.8827, 32.54968
134.3648, 34.03804
134.8469, 36.02797
135.3290, 38.63493
135.8112, 41.24635
136.2933, 42.85373
136.7754, 43.36229
137.2575, 44.47543
137.7396, 47.06187
138.2217, 51.02319
138.7039, 54.17971
139.1860, 56.16900
139.6681, 57.93268
140.1502, 61.16838
140.6323, 66.32116
141.1144, 71.35886
141.5966, 75.56931
142.0787, 78.87237
142.5608, 81.52395
143.0429, 83.29790
143.5250, 84.54517
144.0071, 86.04348
144.4893, 87.86624
144.9714, 89.80050
145.4535, 91.66344
145.9356, 93.08720
146.4177, 95.25762
146.8998, 98.59935
147.3820, 102.7559
147.8641, 106.3756
148.3462, 108.9758
148.8283, 111.4479
149.3104, 114.2647
149.7925, 116.9498
150.2747, 120.6048
150.7568, 125.8785
151.2389, 132.5701
151.7210, 138.2012
152.2031, 142.4614
152.6852, 145.8055
153.1674, 148.5585
153.6495, 149.9248
154.1316, 151.5110
154.6137, 153.9207
155.0958, 157.1871
155.5779, 159.4454
156.0601, 159.7491
156.5422, 159.2854
157.0243, 159.0631
157.5064, 159.4103
157.9885, 159.8776
158.4706, 160.4254
158.9528, 161.0820
159.4349, 161.5160
159.9170, 160.9858
160.3991, 160.3817
160.8812, 160.7331
161.3633, 162.6845
161.8455, 165.3747
162.3276, 168.5394
162.8097, 172.1628
163.2918, 175.9907
163.7739, 179.7590
164.2560, 183.4608
164.7382, 186.2327
165.2203, 189.2269
165.7024, 192.5921
166.1845, 196.3328
166.6666, 200.7043
167.1487, 204.6519
167.6309, 206.9769
168.1130, 208.4882
168.5951, 210.8535
169.0772, 215.6628
169.5593, 221.2318
170.0414, 226.2184
170.5236, 230.4857
171.0057, 233.9841
171.4878, 236.3652
171.9699, 237.9256
172.4520, 239.5089
172.9341, 242.4362
173.4163, 245.3749
173.8984, 246.6559
174.3805, 245.4785
174.8626, 243.3142
175.3447, 241.2357
175.8268, 239.2600
176.3090, 237.4808
176.7911, 235.6992
177.2732, 234.2026
177.7553, 233.5854
178.2374, 234.4998
178.7195, 235.7761
179.2017, 235.6583
179.6838, 234.2937
180.1659, 233.1006
180.6480, 233.4732
181.1301, 234.8435
181.6122, 235.8623
182.0944, 235.8961
182.5765, 235.5536
183.0586, 236.0295
183.5407, 237.3044
184.0228, 238.5321
184.5049, 238.9435
184.9871, 238.6691
185.4692, 238.1493
185.9513, 237.4853
186.4334, 236.6834
186.9155, 235.9660
187.3976, 235.4010
187.8798, 234.1933
188.3619, 231.0361
188.8440, 226.2248
189.3261, 221.8738
189.8082, 218.9667
190.2903, 217.0346
190.7725, 214.3614
191.2546, 210.8604
191.7367, 206.8954
192.2188, 202.4758
192.7009, 197.6187
193.1830, 193.4483
193.6652, 190.4842
194.1473, 188.5722
194.6294, 187.0864
195.1115, 186.1374
195.5936, 185.2446
196.0757, 183.5018
196.5579, 180.8586
197.0400, 178.8015
197.5221, 178.1283
198.0042, 178.7398
198.4863, 179.1814
198.9684, 179.4809
199.4506, 179.5454
199.9327, 179.0341
200.4148, 177.8420
200.8969, 177.0023
201.3790, 177.1248
201.8611, 178.2559
202.3433, 178.8394
202.8254, 178.6508
203.3075, 178.2677
203.7896, 178.6925
204.2717, 180.0202
204.7538, 181.6432
205.2360, 183.4093
205.7181, 185.3606
206.2002, 187.0029
206.6823, 188.2129
207.1644, 189.2601
207.6465, 190.6313
208.1287, 192.3350
208.6108, 194.2816
209.0929, 196.4770
209.5750, 198.9823
210.0571, 201.4913
210.5392, 204.0757
211.0214, 206.6278
211.5035, 208.8276
211.9856, 210.4458
212.4677, 212.2961
212.9498, 214.8660
213.4319, 218.3820
213.9140, 221.5749
214.3962, 224.4263
214.8783, 226.9644
215.3604, 229.0965
215.8425, 230.5623
216.3246, 232.2392
216.8067, 234.5831
217.2889, 237.7277
217.7710, 240.9673
218.2531, 244.2418
218.7352, 247.6159
219.2173, 251.2718
219.6994, 255.0778
220.1816, 259.4433
220.6637, 264.6880
221.1458, 271.0998
221.6279, 277.6353
222.1100, 284.4380
222.5921, 291.3205
223.0743, 297.8477
223.5564, 303.3825
224.0385, 309.6305
224.5206, 317.3967
225.0027, 327.5184
225.4848, 337.1801
225.9670, 346.1375
226.4491, 354.5950
226.9312, 363.3383
227.4133, 372.7447
227.8954, 381.7455
228.3775, 389.8573
228.8597, 397.8376
229.3418, 403.2956
229.8239, 405.5551
230.3060, 405.4480
230.7881, 405.3698
231.2702, 406.2801
231.7524, 405.7164
232.2345, 402.4051
232.7166, 395.0612
233.1987, 387.8333
233.6808, 380.8826
234.1629, 374.0600
234.6451, 366.7542
235.1272, 358.5924
235.6093, 350.6038
236.0914, 343.2736
236.5735, 336.8904
237.0556, 330.4815
237.5378, 323.6872
238.0199, 316.9816
238.5020, 311.6514
238.9841, 308.2388
239.4662, 305.3167
239.9483, 302.2569
240.4305, 298.8836
240.9126, 295.8384
241.3947, 293.0774
241.8768, 290.6486
242.3589, 288.7609
242.8410, 287.8675
243.3232, 286.8086
243.8053, 284.9601
244.2874, 281.5407
244.7695, 279.2431
245.2516, 278.4139
245.7337, 278.5498
246.2159, 278.5445
246.6980, 278.3005
247.1801, 278.0747
247.6622, 278.0081
248.1443, 278.2655
248.6264, 278.2036
249.1086, 277.6657
249.5907, 276.8898
250.0728, 276.4295
250.5549, 276.6615
251.0370, 276.5716
251.5191, 275.6909
252.0013, 273.7339
252.4834, 271.9178
252.9655, 270.1315
253.4476, 268.5600
253.9297, 267.6810
254.4118, 268.0191
254.8940, 268.0777
255.3761, 267.2624
255.8582, 265.3285
256.3403, 263.4974
256.8224, 261.9129
257.3046, 260.3235
257.7867, 258.2816
258.2688, 255.4947
258.7509, 252.8618
259.2330, 250.8870
259.7151, 249.8367
260.1973, 247.7683
260.6794, 244.4288
261.1615, 240.3716
261.6436, 236.4374
262.1257, 232.5959
262.6078, 228.8677
263.0900, 225.2415
263.5721, 221.6501
264.0542, 218.5785
264.5363, 216.2662
265.0184, 214.1461
265.5005, 211.2993
265.9827, 207.4192
266.4648, 203.7673
266.9469, 200.7547
267.4290, 198.4033
267.9111, 196.0275
268.3932, 193.5097
268.8754, 191.1754
269.3575, 189.5662
269.8396, 188.9797
270.3217, 187.9270
270.8038, 185.7796
271.2859, 182.6236
271.7681, 180.5558
272.2502, 179.7760
272.7323, 179.6693
273.2144, 179.8592
273.6965, 180.5244
274.1786, 180.4469
274.6608, 178.9124
275.1429, 176.3058
275.6250, 175.6344
276.1071, 177.3932
276.5892, 179.6647
277.0714, 180.5791
277.5535, 179.9767
278.0356, 179.5521
278.5177, 179.5921
278.9998, 180.0537
279.4819, 180.9290
279.9641, 182.3813
280.4462, 183.6103
280.9283, 183.8678
281.4104, 183.1231
281.8925, 182.3767
282.3746, 181.7715
282.8568, 181.2689
283.3389, 180.7673
283.8210, 180.2659
284.3031, 179.7627
284.7852, 179.1764
285.2673, 178.5274
285.7495, 178.2254
286.2316, 178.5050
286.7137, 178.8828
287.1958, 178.0854
287.6779, 176.0658
288.1600, 174.2602
288.6422, 173.7871
289.1243, 174.4394
289.6064, 174.8370
290.0885, 174.9532
290.5706, 174.5864
291.0527, 173.0554
291.5349, 170.4532
292.0170, 168.1145
292.4991, 166.9057
292.9812, 166.5801
293.4633, 166.3128
293.9454, 166.0585
294.4276, 165.8672
294.9097, 165.8355
295.3918, 165.9404
295.8739, 166.0627
296.3560, 166.0916
296.8381, 166.1003
297.3203, 166.2835
297.8024, 166.6542
298.2845, 167.0862
298.7666, 167.6070
299.2487, 168.1073
299.7308, 168.2612
300.2130, 167.3055
300.6951, 166.1566
301.1772, 166.5446
301.6593, 168.4609
302.1414, 170.6037
302.6235, 171.9795
303.1057, 172.7467
303.5878, 173.1574
304.0699, 172.9377
304.5520, 172.7024
305.0341, 173.4469
305.5162, 175.0329
305.9984, 176.3094
306.4805, 175.8887
306.9626, 174.7803
307.4447, 174.4178
307.9268, 175.4158
308.4089, 176.9659
308.8911, 178.5487
309.3732, 180.1351
309.8553, 181.6094
310.3374, 183.0406
310.8195, 184.2649
311.3016, 185.0276
311.7838, 185.0531
312.2659, 185.0901
312.7480, 185.8649
313.2301, 187.0473
313.7122, 187.8322
314.1943, 187.4986
314.6765, 186.8641
315.1586, 186.5638
315.6407, 186.8296
316.1228, 186.9356
316.6049, 186.3301
317.0870, 185.3624
317.5692, 184.6157
318.0513, 184.8665
318.5334, 184.9146
319.0155, 184.0479
319.4976, 182.0697
319.9797, 180.1251
320.4619, 178.6982
320.9440, 177.4519
321.4261, 176.0285
321.9082, 174.1311
322.3903, 172.2309
322.8724, 170.5058
323.3546, 168.9665
323.8367, 167.3460
324.3188, 165.4994
324.8009, 163.6017
325.2830, 161.8085
325.7651, 160.3077
326.2473, 158.7143
326.7294, 156.8330
327.2115, 154.7350
327.6936, 152.9615
328.1757, 152.0959
328.6578, 151.1797
329.1400, 149.7206
329.6221, 146.8687
330.1042, 144.6561
330.5863, 143.4975
331.0684, 142.9903
331.5505, 141.9543
332.0327, 139.8512
332.5148, 137.8393
332.9969, 136.4090
333.4790, 135.8972
333.9611, 135.1122
334.4432, 134.0195
334.9254, 132.6660
335.4075, 131.1113
335.8896, 129.1976
336.3717, 127.3769
336.8538, 125.8213
337.3359, 124.5409
337.8180, 123.2540
338.3001, 121.8855
338.7823, 120.6292
339.2644, 119.7897
339.7465, 119.4712
340.2286, 119.0840
340.7107, 118.4579
341.1928, 117.6340
341.6750, 116.9388
342.1571, 116.3454
342.6392, 115.9352
343.1213, 115.9601
343.6034, 116.4329
344.0855, 116.3294
344.5677, 115.2812
345.0498, 113.7659
345.5319, 113.0145
346.0140, 113.0476
346.4961, 113.2625
346.9782, 113.2140
347.4604, 112.9952
347.9425, 113.1265
348.4246, 113.7453
348.9067, 114.4626
349.3888, 114.7458
349.8709, 114.6353
350.3531, 114.3474
350.8352, 113.4925
351.3173, 112.6443
351.7994, 113.2156
352.2815, 115.3598
352.7636, 117.6125
353.2458, 118.4140
353.7279, 118.2703
354.2100, 118.2759
354.6921, 118.9841
355.1742, 119.9434
355.6563, 120.7873
356.1385, 121.4998
356.6206, 121.9710
357.1027, 121.6641
357.5848, 121.2408
358.0669, 121.5400
358.5490, 123.2315
359.0312, 125.0196
359.5133, 126.0689
359.9954, 126.5458
360.4775, 126.9879
360.9596, 127.7454
361.4417, 128.4937
361.9239, 128.9742
362.4060, 129.0273
362.8881, 129.1632
363.3702, 129.3185
363.8523, 129.7234
364.3344, 130.7308
364.8166, 133.2670
365.2987, 135.7001
365.7808, 137.1938
366.2629, 137.5746
366.7450, 138.3580
367.2271, 140.0999
367.7093, 142.1912
368.1914, 144.0966
368.6735, 145.5298
369.1556, 147.0569
369.6377, 148.7136
370.1198, 150.5090
370.6020, 152.4242
371.0841, 154.4457
371.5662, 156.6092
372.0483, 158.8882
372.5304, 161.1241
373.0125, 163.8525
373.4947, 167.3937
373.9768, 171.2953
374.4589, 174.4443
374.9410, 176.3874
375.4231, 178.5300
375.9052, 181.5846
376.3874, 185.7631
376.8695, 189.1536
377.3516, 191.4739
377.8337, 193.5400
378.3158, 196.4500
378.7979, 200.2889
379.2801, 204.4511
379.7622, 208.8740
380.2443, 213.4891
380.7264, 218.2891
381.2085, 223.2981
381.6906, 228.1465
382.1728, 232.4452
382.6549, 236.2930
383.1370, 240.0259
383.6191, 243.6827
384.1012, 247.3492
384.5833, 251.3911
385.0655, 255.7393
385.5476, 259.8349
386.0297, 263.3780
386.5118, 266.5034
386.9939, 269.6292
387.4760, 272.8284
387.9582, 275.6090
388.4403, 277.0522
388.9224, 277.7713
389.4045, 279.0254
389.8866, 282.3840
390.3687, 285.7931
390.8509, 287.2202
391.3330, 286.8016
391.8151, 286.2455
392.2972, 286.7352
392.7793, 287.4901
393.2614, 287.6999
393.7436, 286.4879
394.2257, 285.6498
394.7078, 286.0783
395.1899, 287.4761
395.6720, 289.0619
396.1541, 291.4031
396.6363, 293.2326
397.1184, 293.8224
397.6005, 292.7112
398.0826, 291.5935
398.5647, 290.6297
399.0468, 289.8271
399.5290, 289.1947
400.0111, 289.6182
400.4932, 289.2433
400.9753, 287.4178
401.4574, 284.1391
401.9395, 281.4979
402.4217, 280.0771
402.9038, 278.6518
403.3859, 276.3869
403.8680, 272.9946
404.3501, 269.3904
404.8322, 265.5399
405.3144, 261.5714
405.7965, 258.0846
406.2786, 255.3319
406.7607, 252.1542
407.2428, 247.6644
407.7249, 241.7691
408.2071, 237.3792
408.6892, 234.8439
409.1713, 232.7060
409.6534, 228.8560
410.1355, 223.4138
410.6176, 218.5215
411.0998, 214.9461
411.5819, 212.1973
412.0640, 209.1178
412.5461, 205.7452
413.0282, 202.3424
413.5103, 199.1523
413.9925, 196.1186
414.4746, 193.0541
414.9567, 189.8700
415.4388, 186.8068
415.9209, 184.0371
416.4030, 181.5596
416.8852, 179.2922
417.3673, 177.4972
417.8494, 175.7324
418.3315, 173.5382
418.8136, 170.9025
419.2957, 168.2710
419.7779, 165.8700
420.2600, 163.6261
420.7421, 161.5058
421.2242, 159.5399
421.7063, 157.6291
422.1884, 155.5188
422.6706, 153.3728
423.1527, 151.7236
423.6348, 151.5064
424.1169, 151.1869
424.5990, 149.9419
425.0811, 147.0202
425.5633, 144.7835
426.0454, 143.6202
426.5275, 143.0507
427.0096, 142.4870
427.4917, 142.0564
427.9738, 141.4414
428.4560, 140.5551
428.9381, 139.3987
429.4202, 138.1387
429.9023, 136.6630
430.3844, 135.3141
430.8665, 134.4476
431.3487, 134.1787
431.8308, 133.6643
432.3129, 132.7889
432.7950, 131.6880
433.2771, 130.5498
433.7592, 129.3701
434.2414, 128.4730
434.7235, 128.1878
435.2056, 128.3316
435.6877, 128.0900
436.1698, 127.4302
436.6519, 126.7953
437.1341, 126.7154
437.6162, 127.0175
438.0983, 127.2380
438.5804, 127.1963
439.0625, 127.1014
439.5446, 127.3202
440.0268, 127.7307
440.5089, 127.8853
440.9910, 127.2712
441.4731, 126.4356
441.9552, 125.8882
442.4373, 125.7494
442.9195, 125.5911
443.4016, 125.0375
443.8837, 124.3950
444.3658, 124.0361
444.8479, 124.1230
445.3300, 124.4583
445.8122, 125.1703
446.2943, 126.1794
446.7764, 126.8699
447.2585, 126.7051
447.7406, 126.5422
448.2227, 126.8487
448.7049, 128.0605
449.1870, 128.9148
449.6691, 129.4537
450.1512, 129.6088
450.6333, 129.1458
451.1154, 127.5572
451.5976, 126.4678
452.0797, 126.5732
452.5618, 127.7373
453.0439, 127.8879
453.5260, 126.8556
454.0081, 125.3396
454.4903, 123.6876
454.9724, 121.9206
455.4545, 120.6751
455.9366, 120.1887
456.4187, 119.9434
456.9008, 118.9180
457.3830, 117.2187
457.8651, 115.7841
458.3472, 115.2971
458.8293, 115.2744
459.3114, 114.8445
459.7935, 114.0048
460.2757, 112.9709
460.7578, 111.7684
461.2399, 110.5315
461.7220, 109.4709
462.2041, 108.7368
462.6862, 108.0038
463.1684, 106.8620
463.6505, 105.5464
464.1326, 104.6297
464.6147, 105.0069
465.0968, 105.2876
465.5789, 104.5951
466.0611, 102.7054
466.5432, 101.1464
467.0253, 100.2563
467.5074, 99.81309
467.9895, 99.64040
468.4716, 100.3640
468.9538, 100.5220
469.4359, 99.74730
469.9180, 98.35519
470.4001, 97.38267
470.8822, 97.14672
471.3643, 96.77572
471.8465, 95.80378
472.3286, 94.12800
472.8107, 92.99754
473.2928, 92.54721
473.7749, 92.34391
474.2570, 91.88018
474.7392, 91.15992
475.2213, 90.64444
475.7034, 90.47433
476.1855, 90.51641
476.6676, 90.49160
477.1497, 90.41293
477.6319, 90.40523
478.1140, 90.60343
478.5961, 90.90059
479.0782, 91.10528
479.5603, 91.19752
480.0424, 91.29094
480.5246, 91.55270
481.0067, 91.85259
481.4888, 92.00042
481.9709, 91.76636
482.4530, 91.56141
482.9352, 91.60636
483.4173, 91.85291
483.8994, 92.14878
484.3815, 92.61364
484.8636, 92.97661
485.3457, 93.00658
485.8279, 92.49233
486.3100, 92.40011
486.7921, 93.04225
487.2742, 94.01657
487.7563, 95.02299
488.2384, 96.34486
488.7206, 97.18743
489.2027, 97.26694
489.6848, 96.83699
490.1669, 96.84468
490.6490, 97.44446
491.1311, 98.01432
491.6133, 98.21397
492.0954, 98.05260
492.5775, 97.97957
493.0596, 97.99461
493.5417, 98.10559
494.0238, 98.40369
494.5060, 98.83250
494.9881, 99.11492
495.4702, 99.14977
495.9523, 99.05370
496.4344, 99.03371
496.9165, 99.03841
497.3987, 98.87610
497.8808, 98.22576
498.3629, 97.48265
498.8450, 97.14503
499.3271, 97.27251
499.8092, 97.14718
500.2914, 95.79041
500.7735, 94.28431
501.2556, 93.63399
501.7377, 95.08381
502.2198, 96.22091
502.7019, 96.44256
503.1841, 95.97021
503.6662, 95.41622
504.1483, 94.53409
504.6304, 93.88348
505.1125, 93.70069
505.5946, 94.03444
506.0768, 94.18145
506.5589, 94.03733
507.0410, 93.86227
507.5231, 93.89725
508.0052, 94.18845
508.4873, 94.35081
508.9695, 94.25729
509.4516, 94.14745
509.9337, 94.52841
510.4158, 95.37737
510.8979, 96.27065
511.3800, 97.17719
511.8622, 97.95855
512.3443, 98.13162
512.8264, 97.73283
513.3085, 97.48067
513.7906, 98.22541
514.2728, 99.32799
514.7549, 99.86714
515.2370, 99.45891
515.7191, 99.11661
516.2012, 99.72707
516.6833, 100.7599
517.1655, 101.4098
517.6476, 101.2859
518.1297, 100.8683
518.6118, 100.1476
519.0939, 99.17822
519.5760, 98.48292
520.0582, 98.33607
520.5403, 98.30465
521.0224, 98.27480
521.5045, 98.42912
521.9866, 97.96501
522.4688, 96.42917
522.9509, 94.77316
523.4330, 94.35474
523.9151, 95.49097
524.3972, 96.06979
524.8793, 95.47476
525.3615, 94.17848
525.8436, 93.31293
526.3257, 92.87544
526.8078, 92.79122
527.2899, 93.12663
527.7720, 93.76380
528.2542, 94.53640
528.7363, 95.44588
529.2184, 96.15635
529.7005, 96.22734
530.1826, 95.96724
530.6647, 95.75125
531.1469, 95.49954
531.6290, 95.62530
532.1111, 96.51942
532.5932, 97.94685
533.0753, 99.42263
533.5574, 100.9308
534.0396, 102.3544
534.5217, 103.6872
535.0038, 104.9166
535.4859, 105.9895
535.9680, 106.9205
536.4501, 107.6704
536.9323, 108.1583
537.4144, 108.1739
537.8965, 108.5731
538.3786, 109.5241
538.8607, 110.6547
539.3428, 111.3848
539.8250, 111.6997
540.3071, 111.8952
540.7892, 111.9949
541.2713, 112.0774
541.7534, 112.3047
542.2355, 112.6786
542.7177, 113.2106
543.1998, 114.0820
543.6819, 115.0607
544.1640, 115.6834
544.6461, 115.8933
545.1282, 116.2589
545.6104, 117.2506
546.0925, 118.5840
546.5746, 119.9637
547.0567, 121.5730
547.5388, 122.8460
548.0209, 123.2207
548.5031, 123.1283
548.9852, 123.5276
549.4673, 124.9141
549.9494, 126.4413
550.4315, 127.9382
550.9136, 129.4049
551.3958, 130.8012
551.8779, 132.0512
552.3600, 133.3635
552.8421, 134.9574
553.3242, 136.8914
553.8063, 138.4507
554.2885, 139.4587
554.7706, 140.4961
555.2527, 142.3869
555.7348, 145.0384
556.2169, 147.8999
556.6990, 150.8245
557.1812, 153.8069
557.6633, 156.7106
558.1454, 159.6183
558.6275, 162.8553
559.1096, 166.7516
559.5917, 170.9301
560.0739, 174.8884
560.5560, 178.6001
561.0381, 182.8875
561.5202, 188.3731
562.0023, 194.3411
562.4844, 200.2200
562.9666, 205.2423
563.4487, 211.2711
563.9308, 218.5892
564.4129, 226.8456
564.8950, 235.6293
565.3771, 245.2573
565.8593, 254.4622
566.3414, 262.8074
566.8235, 270.4891
567.3056, 278.8253
567.7877, 287.8456
568.2698, 296.9738
568.7520, 306.3577
569.2341, 315.6308
569.7162, 323.9171
570.1983, 331.1475
570.6804, 336.9736
571.1625, 341.3089
571.6447, 343.8784
572.1268, 344.1708
572.6089, 341.8276
573.0910, 337.7433
573.5731, 332.4673
574.0552, 325.8574
574.5374, 317.5388
575.0195, 306.4100
575.5016, 294.6219
575.9837, 282.5683
576.4658, 270.3828
576.9479, 258.6215
577.4301, 247.6062
577.9122, 236.7981
578.3943, 225.6695
578.8764, 213.9691
579.3585, 203.7318
579.8406, 195.1573
580.3228, 187.5917
580.8049, 180.3840
581.2870, 173.5740
581.7691, 167.4454
582.2512, 162.1758
582.7333, 157.4117
583.2155, 152.6397
583.6975, 147.9723
584.1796, 143.5299
584.6617, 139.5026
585.1439, 135.6892
585.6260, 131.7910
586.1081, 127.8957
586.5902, 124.4474
587.0723, 121.9108
587.5544, 119.6950
588.0366, 117.4709
588.5187, 115.2573
589.0008, 112.8657
589.4829, 109.8103
589.9650, 106.8835
590.4471, 104.7353
590.9293, 103.8112
591.4114, 102.5998
591.8935, 100.8587
592.3756, 98.93586
592.8577, 97.55566
593.3398, 96.77439
593.8220, 95.74369
594.3041, 93.99600
594.7862, 91.97163
595.2683, 90.82386
595.7504, 90.45110
596.2325, 90.03580
596.7147, 88.95670
597.1968, 87.61897
597.6789, 86.40087
598.1610, 85.32899
598.6431, 84.51080
599.1252, 84.26713
599.6074, 84.16154
600.0895, 83.84303
600.5716, 83.25363
601.0537, 82.43783
601.5358, 81.07293
602.0179, 79.61883
602.5001, 78.68553
602.9822, 78.46518
603.4643, 78.43116
603.9464, 78.64700
604.4285, 78.92642
604.9106, 78.56852
605.3928, 77.50900
605.8749, 76.41531
606.3570, 75.61482
606.8391, 75.03419
607.3212, 74.33827
607.8033, 73.54348
608.2855, 73.00733
608.7676, 73.26014
609.2497, 73.83292
609.7318, 74.10775
610.2139, 73.94604
610.6960, 73.72544
611.1782, 73.65777
611.6603, 73.63811
612.1424, 73.55393
612.6245, 73.44184
613.1066, 73.18965
613.5887, 72.62951
614.0709, 71.95048
614.5530, 71.56068
615.0351, 71.70510
615.5172, 71.59426
615.9993, 70.80196
616.4814, 69.58122
616.9636, 69.46436
617.4457, 70.54671
617.9278, 71.63995
618.4099, 72.06542
618.8920, 71.91482
619.3741, 71.31561
619.8563, 70.26137
620.3384, 69.21931
620.8205, 68.36263
621.3026, 67.82434
621.7847, 67.88670
622.2668, 68.92589
622.7490, 69.69014
623.2311, 69.33394
623.7132, 68.49664
624.1953, 67.99570
624.6774, 68.27689
625.1595, 68.52219
625.6417, 68.55396
626.1238, 68.49722
626.6059, 68.80943
627.0880, 69.77488
627.5701, 70.22086
628.0522, 69.43332
628.5344, 67.79395
629.0165, 67.38392
629.4986, 68.22916
629.9807, 69.16642
630.4628, 69.27242
630.9449, 68.92382
631.4271, 68.86153
631.9092, 69.15133
632.3913, 69.41462
632.8734, 69.34505
633.3555, 69.12276
633.8376, 68.90270
634.3198, 68.58871
634.8019, 68.54436
635.2840, 69.20552
635.7661, 70.07188
636.2482, 70.43470
636.7303, 69.88245
637.2125, 69.49297
637.6946, 69.44505
638.1767, 69.63865
638.6588, 69.81489
639.1409, 69.98177
639.6230, 70.08939
640.1052, 70.10933
640.5873, 70.06137
641.0694, 69.95440
641.5515, 69.80164
642.0336, 69.75383
642.5157, 70.03376
642.9979, 70.41209
643.4800, 70.60482
643.9621, 70.58312
644.4442, 70.54771
644.9263, 70.61716
645.4084, 70.70362
645.8906, 70.73594
646.3727, 70.68506
646.8548, 70.60683
647.3369, 70.47948
647.8190, 70.34133
648.3011, 70.23497
648.7833, 70.15361
649.2654, 70.10880
649.7475, 70.07762
650.2296, 70.11179
650.7117, 70.39987
651.1938, 70.91386
651.6760, 71.28655
652.1581, 71.26405
652.6402, 71.10033
653.1223, 71.20947
653.6044, 71.53025
654.0865, 71.80905
654.5687, 71.81289
655.0508, 71.79797
655.5329, 72.05101
656.0150, 72.60631
656.4971, 72.77261
656.9792, 71.88083
657.4614, 70.97878
657.9435, 70.63720
658.4256, 70.99361
658.9077, 71.47465
659.3898, 72.18758
659.8719, 72.83475
660.3541, 72.98596
660.8362, 72.66350
661.3183, 72.69237
661.8004, 73.26858
662.2825, 73.97736
662.7646, 74.31191
663.2468, 74.35011
663.7289, 74.25930
664.2110, 73.86316
664.6931, 73.65947
665.1752, 74.33592
665.6573, 75.46803
666.1395, 76.06502
666.6216, 75.16274
667.1037, 74.36742
667.5858, 74.24255
668.0679, 74.70363
668.5500, 75.22816
669.0322, 75.96765
669.5143, 76.47061
669.9964, 76.40807
670.4785, 75.83762
670.9606, 75.70396
671.4427, 76.02338
671.9249, 76.62672
672.4070, 77.65289
672.8891, 78.81554
673.3712, 79.46765
673.8533, 79.52963
674.3354, 79.31356
674.8176, 78.75414
675.2997, 78.17776
675.7818, 77.94724
676.2639, 78.29492
676.7460, 78.69957
677.2281, 79.13109
677.7103, 79.51564
678.1924, 79.74738
678.6745, 79.72620
679.1566, 79.77450
679.6387, 79.96304
680.1208, 80.21646
680.6030, 80.36880
681.0851, 80.41785
681.5672, 80.44721
682.0493, 80.41563
682.5314, 80.44838
683.0135, 80.98196
683.4957, 81.83777
683.9778, 82.29353
684.4599, 81.51526
684.9420, 80.56119
685.4241, 80.18861
685.9063, 80.38754
686.3884, 80.53822
686.8705, 80.45788
687.3526, 80.31633
687.8347, 80.15775
688.3168, 79.95799
688.7990, 79.99716
689.2811, 80.45860
689.7632, 80.75609
690.2453, 80.23330
690.7274, 78.98186
691.2095, 78.30157
691.6917, 78.32105
692.1738, 78.57948
692.6559, 78.75001
693.1380, 78.78651
693.6201, 78.57571
694.1022, 78.01299
694.5844, 77.42224
695.0665, 76.98795
695.5486, 76.63786
696.0307, 76.27812
696.5128, 75.59630
696.9949, 75.30946
697.4771, 75.75239
697.9592, 76.50552
698.4413, 76.68723
698.9234, 76.14931
699.4055, 75.63549
699.8876, 75.35487
700.3698, 75.20813
700.8519, 74.97121
701.3340, 74.64758
701.8161, 74.26109
702.2982, 73.72627
702.7803, 73.20171
703.2625, 72.82291
703.7446, 72.59692
704.2267, 72.55549
704.7088, 72.93443
705.1909, 73.30526
705.6730, 73.35277
706.1552, 73.01814
706.6373, 73.10955
707.1194, 74.13482
707.6015, 74.87232
708.0836, 74.47221
708.5657, 72.85217
709.0479, 71.82443
709.5300, 71.43282
710.0121, 71.35643
710.4942, 71.34639
710.9763, 71.42343
711.4584, 71.70676
711.9406, 72.24922
712.4227, 72.67537
712.9048, 72.60310
713.3869, 72.32641
713.8690, 72.16467
714.3511, 72.33765
714.8333, 72.36285
715.3154, 71.74271
715.7975, 71.15441
716.2796, 71.46754
716.7617, 73.25571
717.2438, 74.16346
717.7260, 73.64144
718.2081, 72.53854
718.6902, 72.52831
719.1723, 73.43295
719.6544, 73.77662
720.1365, 72.68869
720.6187, 71.47801
721.1008, 71.98724
721.5829, 73.57456
722.0650, 74.74927
722.5471, 74.60645
723.0292, 74.16737
723.5114, 73.61738
723.9935, 73.07869
724.4756, 73.06210
724.9577, 74.01480
725.4398, 74.78175
725.9219, 74.90726
726.4041, 74.55746
726.8862, 74.82800
727.3683, 75.79434
727.8504, 76.54929
728.3325, 76.31299
728.8146, 75.59698
729.2968, 75.54469
729.7789, 76.09741
730.2610, 76.66286
730.7431, 76.88975
731.2252, 76.97209
731.7073, 76.96651
732.1895, 76.85476
732.6716, 77.01318
733.1537, 77.68509
733.6358, 78.48814
734.1179, 79.32095
734.6000, 80.26149
735.0822, 80.68204
735.5643, 80.47831
736.0464, 80.11952
736.5285, 80.06493
737.0106, 80.21570
737.4927, 80.08894
737.9749, 79.58714
738.4570, 79.31654
738.9391, 80.17442
739.4212, 81.38881
739.9033, 82.05399
740.3854, 81.79301
740.8676, 81.44566
741.3497, 81.00994
741.8318, 80.73746
742.3139, 80.90757
742.7960, 81.78481
743.2781, 82.41602
743.7603, 82.67065
744.2424, 82.77726
744.7245, 83.02537
745.2066, 83.41025
745.6887, 83.96817
746.1708, 84.80137
746.6530, 85.56645
747.1351, 85.58308
747.6172, 85.30572
748.0993, 85.54137
748.5814, 87.45324
749.0635, 88.91957
749.5457, 88.79324
750.0278, 87.78990
750.5099, 87.44094
750.9920, 88.00143
751.4741, 88.83144
751.9562, 89.98434
752.4384, 91.20992
752.9205, 91.75150
753.4026, 91.63135
753.8847, 91.49500
754.3668, 91.49350
754.8489, 91.72068
755.3311, 92.54851
755.8132, 93.74914
756.2953, 94.62997
756.7774, 94.36010
757.2595, 94.20132
757.7416, 94.97194
758.2238, 96.46238
758.7059, 97.46058
759.1880, 97.46394
759.6701, 97.68810
760.1522, 98.61234
760.6343, 100.0473
761.1165, 100.9722
761.5986, 101.3595
762.0807, 101.7207
762.5628, 102.4227
763.0449, 103.2424
763.5270, 103.5966
764.0092, 103.6243
764.4913, 104.0913
764.9734, 106.0479
765.4555, 108.0384
765.9376, 109.0590
766.4197, 109.0775
766.9019, 109.3285
767.3840, 109.8470
767.8661, 110.6614
768.3482, 111.8761
768.8303, 113.4764
769.3124, 114.7855
769.7946, 115.7701
770.2767, 116.7467
770.7588, 118.1381
771.2409, 119.5965
771.7230, 120.2116
772.2051, 120.0208
772.6873, 120.3740
773.1694, 122.5431
773.6515, 125.1646
774.1336, 127.3731
774.6157, 129.0242
775.0978, 130.5733
775.5800, 131.8686
776.0621, 133.2977
776.5442, 135.1857
777.0263, 137.5757
777.5084, 139.4794
777.9905, 140.8439
778.4727, 142.3100
778.9548, 144.4113
779.4369, 146.9925
779.9190, 149.9029
780.4011, 153.1181
780.8832, 156.2629
781.3654, 158.5817
781.8475, 161.0836
782.3296, 164.6437
782.8117, 169.8228
783.2938, 174.4341
783.7759, 177.8592
784.2581, 181.6003
784.7402, 187.0864
785.2223, 194.2988
785.7044, 200.2924
786.1865, 204.7068
786.6686, 209.6899
787.1508, 217.9644
787.6329, 227.8486
788.1150, 236.4657
788.5971, 243.0515
789.0792, 251.0586
789.5613, 263.2202
790.0435, 276.9439
790.5256, 290.1991
791.0077, 301.8670
791.4898, 315.3778
791.9719, 330.5995
792.4540, 347.7719
792.9362, 366.6726
793.4183, 387.2969
793.9004, 409.8952
794.3825, 433.9504
794.8646, 459.9302
795.3467, 487.7416
795.8289, 518.2966
796.3110, 552.5259
796.7931, 591.3004
797.2752, 632.7237
797.7573, 676.2766
798.2394, 722.6970
798.7216, 772.3904
799.2037, 825.7907
799.6858, 882.5146
800.1679, 943.0609
800.6500, 1005.877
801.1321, 1071.759
801.6143, 1139.895
802.0964, 1207.608
802.5785, 1274.299
803.0606, 1340.980
803.5427, 1409.354
804.0248, 1476.718
804.5070, 1540.868
804.9891, 1600.832
805.4712, 1658.912
805.9533, 1716.034
806.4354, 1771.710
806.9175, 1825.411
807.3997, 1876.616
807.8818, 1928.318
808.3639, 1980.156
808.8460, 2032.441
809.3281, 2087.051
809.8102, 2142.041
810.2924, 2192.746
810.7745, 2238.630
811.2566, 2279.675
811.7387, 2317.890
812.2208, 2349.547
812.7029, 2371.483
813.1851, 2383.664
813.6672, 2383.549
814.1493, 2369.014
814.6314, 2345.190
815.1135, 2314.458
815.5956, 2276.176
816.0778, 2239.188
816.5599, 2203.293
817.0420, 2171.717
817.5241, 2145.788
818.0062, 2126.975
818.4883, 2118.140
818.9705, 2120.302
819.4526, 2126.739
819.9347, 2138.143
820.4168, 2149.814
820.8989, 2159.586
821.3810, 2169.924
821.8632, 2168.763
822.3453, 2156.621
822.8274, 2131.585
823.3095, 2091.001
823.7916, 2035.898
824.2737, 1972.961
824.7559, 1902.196
825.2380, 1828.780
825.7201, 1753.703
826.2022, 1680.654
826.6843, 1614.043
827.1664, 1554.492
827.6486, 1500.347
828.1307, 1449.504
828.6128, 1405.398
829.0949, 1369.688
829.5770, 1342.892
830.0591, 1320.849
830.5413, 1303.714
831.0234, 1291.164
831.5055, 1283.253
831.9876, 1279.669
832.4697, 1280.749
832.9518, 1286.209
833.4340, 1292.554
833.9161, 1296.846
834.3982, 1302.053
834.8803, 1310.564
835.3624, 1322.794
835.8445, 1334.130
836.3267, 1345.173
836.8088, 1354.096
837.2909, 1359.692
837.7730, 1362.328
838.2551, 1364.310
838.7372, 1365.572
839.2194, 1364.846
839.7015, 1361.635
840.1836, 1355.839
840.6657, 1347.246
841.1478, 1335.899
841.6299, 1322.401
842.1121, 1305.823
842.5942, 1288.224
843.0763, 1270.173
843.5584, 1251.615
844.0405, 1232.409
844.5226, 1212.610
845.0048, 1191.594
845.4869, 1169.079
845.9690, 1145.052
846.4511, 1120.785
846.9332, 1095.405
847.4153, 1066.328
847.8975, 1031.246
848.3796, 993.2404
848.8617, 952.9393
849.3438, 910.6569
849.8259, 868.0492
850.3080, 824.2178
850.7902, 781.4517
851.2723, 740.3487
851.7544, 701.1107
852.2365, 664.5007
852.7186, 630.4957
853.2007, 598.7893
853.6829, 569.3006
854.1650, 542.5851
854.6471, 519.6138
855.1292, 499.3999
855.6113, 480.2085
856.0934, 460.7038
856.5756, 443.8326
857.0577, 430.5392
857.5398, 419.4307
858.0219, 407.8760
858.5040, 395.7061
858.9861, 385.5738
859.4683, 378.0629
859.9504, 371.8638
860.4325, 365.8066
860.9146, 359.8593
861.3967, 354.0615
861.8788, 348.4022
862.3610, 342.9707
862.8431, 338.1084
863.3252, 333.3490
863.8073, 328.3397
864.2894, 323.0082
864.7715, 317.5620
865.2537, 312.0693
865.7358, 306.2917
866.2179, 299.9134
866.7000, 293.0234
867.1821, 285.6646
867.6642, 277.7580
868.1464, 270.0753
868.6285, 262.9511
869.1106, 256.2743
869.5927, 249.9050
870.0748, 243.8019
870.5569, 237.9466
871.0391, 232.3839
871.5212, 226.9991
872.0033, 221.7650
872.4854, 216.6674
872.9675, 211.6305
873.4496, 206.6353
873.9318, 202.4290
874.4139, 200.1411
874.8960, 198.3720
875.3781, 195.9367
875.8602, 192.8367
876.3423, 189.6626
876.8245, 186.0660
877.3066, 183.0807
877.7887, 181.2647
878.2708, 180.2360
878.7529, 178.2222
879.2350, 175.2326
879.7172, 172.5782
880.1993, 170.9005
880.6814, 169.8306
881.1635, 169.1722
881.6456, 168.7422
882.1277, 168.1107
882.6099, 166.9047
883.0920, 165.7288
883.5741, 164.5634
884.0562, 163.6091
884.5383, 163.2991
885.0204, 163.7911
885.5026, 163.9237
885.9847, 163.4758
886.4668, 162.6454
886.9489, 161.2733
887.4310, 159.7974
887.9131, 159.2454
888.3953, 160.2473
888.8774, 161.1030
889.3595, 160.7460
889.8416, 160.0893
890.3237, 160.0114
890.8058, 160.7012
891.2880, 161.4760
891.7701, 162.3628
892.2522, 163.2324
892.7343, 164.0160
893.2164, 164.6903
893.6985, 165.0899
894.1807, 165.2051
894.6628, 165.5126
895.1449, 166.4921
895.6270, 167.6205
896.1091, 168.4995
896.5912, 169.0672
897.0734, 170.0486
897.5555, 171.7651
898.0376, 173.0833
898.5197, 173.2039
899.0018, 172.5809
899.4839, 172.9769
899.9661, 174.2050
900.4482, 175.1717
900.9303, 175.1217
901.4124, 174.7610
901.8945, 174.3817
902.3766, 174.0612
902.8588, 174.0284
903.3409, 174.4247
903.8230, 174.8741
904.3051, 175.3293
904.7872, 175.7873
905.2693, 176.0903
905.7515, 176.3362
906.2336, 177.2235
906.7157, 179.1906
907.1978, 181.1545
907.6799, 181.8768
908.1620, 182.1862
908.6442, 183.1266
909.1263, 185.5221
909.6084, 187.4263
910.0905, 188.4961
910.5726, 189.4661
911.0547, 191.1660
911.5369, 193.5008
912.0190, 195.3421
912.5011, 196.6123
912.9832, 197.7931
913.4653, 199.4706
913.9474, 201.1208
914.4296, 202.0097
914.9117, 202.0236
915.3938, 202.8335
915.8759, 205.4934
916.3580, 207.8028
916.8401, 208.5042
917.3223, 208.0981
917.8044, 209.6961
918.2865, 213.1889
918.7686, 217.0200
919.2507, 220.4505
919.7328, 223.7529
920.2150, 227.2014
920.6971, 230.7198
921.1792, 234.2001
921.6613, 238.7504
922.1434, 241.7012
922.6255, 242.6384
923.1077, 241.9084
923.5898, 239.6815
924.0719, 236.0700
924.5540, 232.6619
925.0361, 229.7005
925.5182, 227.2936
926.0004, 225.3588
926.4825, 224.0913
926.9646, 223.7518
927.4467, 224.5915
927.9288, 225.7610
928.4109, 226.5727
928.8931, 228.3637
929.3752, 232.3595
929.8573, 238.4915
930.3394, 243.9841
930.8215, 248.7950
931.3036, 254.2124
931.7858, 261.4169
932.2679, 269.4951
932.7500, 277.8613
933.2321, 286.3312
933.7142, 294.9180
934.1964, 304.3309
934.6785, 312.8238
935.1606, 319.8910
935.6427, 325.7199
936.1248, 331.0573
936.6069, 335.8051
937.0891, 338.0188
937.5712, 336.8320
938.0533, 333.3983
938.5354, 328.3297
939.0175, 321.9077
939.4996, 314.6449
939.9818, 306.2339
940.4639, 297.3383
940.9460, 287.8094
941.4281, 278.2299
941.9102, 269.1811
942.3923, 260.6971
942.8745, 253.1291
943.3566, 246.4450
943.8387, 240.5235
944.3208, 235.6548
944.8029, 231.2882
945.2850, 226.9256
945.7672, 222.5411
946.2493, 218.4488
946.7314, 214.7598
947.2135, 211.1867
947.6956, 207.6699
948.1777, 204.1413
948.6599, 200.6356
949.1420, 197.0936
949.6241, 193.2309
950.1062, 188.4797
950.5883, 183.8819
951.0704, 180.4863
951.5526, 177.6618
952.0347, 174.1914
952.5168, 169.1217
952.9989, 165.1952
953.4810, 162.9471
953.9631, 161.2296
954.4453, 158.6095
954.9274, 155.3145
955.4095, 152.0783
955.8916, 149.0191
956.3737, 146.1337
956.8558, 143.1281
957.3380, 140.5333
957.8201, 138.8978
958.3022, 138.3008
958.7843, 137.4163
959.2664, 136.2203
959.7485, 134.7685
960.2307, 132.8759
960.7128, 130.8871
961.1949, 129.7856
961.6770, 129.3445
962.1591, 128.7840
962.6412, 127.4038
963.1234, 126.2025
963.6055, 125.8070
964.0876, 125.7626
964.5697, 125.2305
965.0518, 124.0337
965.5339, 123.2605
966.0161, 123.1140
966.4982, 123.1577
966.9803, 122.8883
967.4624, 122.4426
967.9445, 122.0406
968.4266, 121.7116
968.9088, 121.4329
969.3909, 121.1963
969.8730, 120.9967
970.3551, 120.7480
970.8372, 120.4785
971.3193, 120.8793
971.8015, 121.9811
972.2836, 122.7163
972.7657, 122.3082
973.2478, 121.3771
973.7299, 120.4038
974.2120, 119.5018
974.6942, 118.9396
975.1763, 118.8634
975.6584, 119.1050
976.1405, 119.8704
976.6226, 120.6879
977.1047, 120.8903
977.5869, 120.5096
978.0690, 119.7934
978.5511, 118.7458
979.0332, 117.7062
979.5153, 117.0093
979.9974, 116.4118
980.4796, 115.6281
980.9617, 114.5751
981.4438, 113.8675
981.9259, 113.6212
982.4080, 113.5082
982.8901, 113.4934
983.3723, 113.4399
983.8544, 112.7380
984.3365, 111.5619
984.8186, 110.6362
985.3007, 110.5384
985.7828, 110.5307
986.2650, 110.3149
986.7471, 109.9332
987.2292, 109.3957
987.7113, 108.4805
988.1934, 108.3720
988.6755, 109.3864
989.1577, 110.3724
989.6398, 109.7081
990.1219, 108.2715
990.6040, 107.6077
991.0861, 107.9014
991.5682, 108.2268
992.0504, 108.0376
992.5325, 108.0136
993.0146, 108.6653
993.4967, 109.7464
993.9788, 109.7516
994.4609, 108.6866
994.9431, 107.7568
995.4252, 107.4747
995.9073, 107.5218
996.3894, 107.7135
996.8715, 107.9435
997.3536, 108.0399
997.8358, 108.2758
998.3179, 107.7533
998.8000, 105.8481
999.2821, 104.1378
999.7642, 104.6137
1000.246, 106.7462
1000.728, 107.5044
1001.211, 106.7822
1001.693, 105.8195
1002.175, 105.0772
1002.657, 104.6818
1003.139, 105.0348
1003.621, 105.9349
1004.103, 105.9287
1004.585, 104.6953
1005.068, 103.8006
1005.550, 103.7769
1006.032, 104.0912
1006.514, 103.9623
1006.996, 103.5057
1007.478, 102.9301
1007.960, 102.2417
1008.442, 101.5803
1008.924, 100.8081
1009.407, 100.2346
1009.889, 100.1820
1010.371, 100.6842
1010.853, 100.5945
1011.335, 99.90468
1011.817, 99.30637
1012.299, 99.32425
1012.781, 99.58775
1013.263, 99.92704
1013.746, 100.2402
1014.228, 100.1840
1014.710, 99.35999
1015.192, 98.85477
1015.674, 98.94353
1016.156, 99.22202
1016.638, 98.95484
1017.120, 98.36797
1017.603, 98.24055
1018.085, 98.76033
1018.567, 99.23283
1019.049, 99.33156
1019.531, 99.15624
1020.013, 98.60091
1020.495, 97.70739
1020.977, 97.61256
1021.459, 98.40125
1021.942, 99.26051
1022.424, 99.96943
1022.906, 100.3580
1023.388, 100.0269
1023.870, 99.24113
1024.352, 98.51842
1024.834, 98.09180
1025.316, 97.60861
1025.799, 96.85387
1026.281, 96.27747
1026.763, 96.43655
1027.245, 97.22433
1027.727, 98.09040
1028.209, 98.98608
1028.691, 99.51187
1029.173, 99.08742
1029.656, 98.47588
1030.138, 98.17358
1030.620, 98.14729
1031.102, 98.06237
1031.584, 97.85958
1032.066, 97.83415
1032.548, 98.06767
1033.030, 98.48502
1033.512, 99.20203
1033.995, 99.94901
1034.477, 100.2334
1034.959, 99.87765
1035.441, 99.30985
1035.923, 98.28632
1036.405, 97.47690
1036.887, 97.33546
1037.369, 97.76773
1037.851, 97.87729
1038.334, 97.70061
1038.816, 97.59082
1039.298, 98.01946
1039.780, 98.30932
1040.262, 97.80795
1040.744, 96.89781
1041.226, 96.38930
1041.708, 96.58454
1042.191, 96.23524
1042.673, 95.05135
1043.155, 94.06291
1043.637, 94.68566
1044.119, 96.08210
1044.601, 96.80791
1045.083, 96.77745
1045.565, 96.66797
1046.047, 96.78187
1046.530, 96.76201
1047.012, 96.38076
1047.494, 95.86232
1047.976, 95.99760
1048.458, 96.66998
1048.940, 96.84270
1049.422, 96.03148
1049.904, 95.30959
1050.386, 95.73809
1050.869, 96.50529
1051.351, 96.72311
1051.833, 96.21177
1052.315, 96.03089
1052.797, 96.22654
1053.279, 96.54769
1053.761, 97.05460
1054.243, 97.45725
1054.726, 96.92802
1055.208, 95.88767
1055.690, 95.45078
1056.172, 96.94650
1056.654, 97.75620
1057.136, 97.33797
1057.618, 96.39240
1058.100, 95.52734
1058.583, 94.81129
1059.065, 94.94675
1059.547, 95.96020
1060.029, 96.61953
1060.511, 95.38634
1060.993, 94.16354
1061.475, 94.41470
1061.957, 95.73747
1062.439, 96.27747
1062.922, 95.89632
1063.404, 95.60493
1063.886, 95.67880
1064.368, 95.86785
1064.850, 96.00107
1065.332, 95.99182
1065.814, 95.62759
1066.296, 94.70039
1066.778, 94.24375
1067.261, 94.59370
1067.743, 94.94606
1068.225, 94.81680
1068.707, 94.41588
1069.189, 94.43471
1069.671, 94.80103
1070.153, 95.26746
1070.635, 95.90635
1071.118, 96.37498
1071.600, 96.45206
1072.082, 96.32932
1072.564, 96.15971
1073.046, 95.93393
1073.528, 95.77441
1074.010, 95.68407
1074.492, 95.71490
1074.974, 96.24418
1075.457, 96.62888
1075.939, 95.84671
1076.421, 94.35767
1076.903, 94.17996
1077.385, 96.13230
1077.867, 97.38070
1078.349, 97.35323
1078.831, 96.75874
1079.313, 96.24929
1079.796, 95.94215
1080.278, 96.21159
1080.760, 97.15218
1081.242, 97.73022
1081.724, 97.32160
1082.206, 96.78730
1082.688, 96.36880
1083.170, 96.07397
1083.652, 95.89851
1084.135, 95.86480
1084.617, 96.13123
1085.099, 96.86758
1085.581, 97.60610
1086.063, 98.23869
1086.545, 98.59681
1087.027, 98.42661
1087.509, 97.61604
1087.992, 97.68498
1088.474, 98.70904
1088.956, 99.46640
1089.438, 98.87793
1089.920, 97.94006
1090.402, 97.54404
1090.884, 97.61521
1091.366, 98.03633
1091.849, 99.16740
1092.331, 99.82742
1092.813, 99.84884
1093.295, 99.68471
1093.777, 99.81548
1094.259, 100.0755
1094.741, 100.0257
1095.223, 99.71696
1095.705, 99.66728
1096.188, 100.5740
1096.670, 101.1189
1097.152, 100.8138
1097.634, 100.1448
1098.116, 100.0369
1098.598, 100.3832
1099.080, 100.5714
1099.562, 100.4904
1100.044, 100.4027
1100.527, 100.4178
1101.009, 100.5499
1101.491, 100.9563
1101.973, 101.5209
1102.455, 101.3478
1102.937, 100.3964
1103.419, 99.93604
1103.901, 100.6112
1104.384, 101.3857
1104.866, 100.9430
1105.348, 100.1042
1105.830, 99.90936
1106.312, 100.7300
1106.794, 101.1994
1107.276, 101.2832
1107.758, 101.1300
1108.240, 100.7922
1108.723, 100.2988
1109.205, 99.35960
1109.687, 98.33287
1110.169, 98.02995
1110.651, 99.41085
1111.133, 100.5296
1111.615, 101.2751
1112.097, 101.6862
1112.579, 101.7651
1113.062, 101.5450
1113.544, 100.9548
1114.026, 100.0943
1114.508, 99.61396
1114.990, 100.4741
1115.472, 101.0052
1115.954, 100.2638
1116.436, 99.11301
1116.919, 98.92897
1117.401, 99.64010
1117.883, 100.1283
1118.365, 100.2652
1118.847, 100.2734
1119.329, 100.2718
1119.811, 100.2419
1120.293, 100.1784
1120.776, 100.0741
1121.258, 99.86052
1121.740, 99.50706
1122.222, 99.39187
1122.704, 99.69377
1123.186, 99.89030
1123.668, 99.13471
1124.150, 98.16208
1124.632, 97.77532
1125.115, 98.14187
1125.597, 98.70253
1126.079, 99.53837
1126.561, 100.2695
1127.043, 100.7369
1127.525, 101.0416
1128.007, 101.4211
1128.489, 101.7399
1128.971, 101.6684
1129.454, 100.7329
1129.936, 100.6336
1130.418, 102.0223
1130.900, 103.2488
1131.382, 103.1897
1131.864, 102.3064
1132.346, 101.7714
1132.828, 101.5827
1133.311, 101.7383
1133.793, 102.4454
1134.275, 103.2269
1134.757, 104.2499
1135.239, 105.0096
1135.721, 104.7687
1136.203, 103.7420
1136.685, 103.9357
1137.167, 105.2232
1137.650, 106.1926
1138.132, 105.5050
1138.614, 104.8992
1139.096, 105.4633
1139.578, 106.4328
1140.060, 106.6966
1140.542, 106.2452
1141.024, 106.0330
1141.506, 106.1374
1141.989, 106.4517
1142.471, 107.3885
1142.953, 108.0501
1143.435, 107.5089
1143.917, 106.1688
1144.399, 105.3962
1144.881, 105.2281
1145.363, 105.5233
1145.846, 106.3541
1146.328, 107.0238
1146.810, 106.4451
1147.292, 105.6323
1147.774, 105.6704
1148.256, 106.6226
1148.738, 107.2264
1149.220, 107.3898
1149.703, 107.4871
1150.185, 107.6103
1150.667, 107.7341
1151.149, 107.8493
1151.631, 107.9333
1152.113, 107.9181
1152.595, 107.7595
1153.077, 107.8036
1153.559, 108.1667
1154.042, 108.4483
1154.524, 108.4129
1155.006, 108.3127
1155.488, 108.8505
1155.970, 109.6125
1156.452, 109.6947
1156.934, 108.5138
1157.416, 107.7941
1157.898, 107.8721
1158.381, 108.1539
1158.863, 108.4251
1159.345, 108.5965
1159.827, 108.1984
1160.309, 107.4899
1160.791, 107.1951
1161.273, 107.7985
1161.755, 108.4778
1162.238, 109.4222
1162.720, 109.9253
1163.202, 109.0860
1163.684, 107.3111
1164.166, 106.8628
1164.648, 107.4924
1165.130, 108.1117
1165.612, 108.3028
1166.094, 108.2511
1166.577, 107.8936
1167.059, 107.4310
1167.541, 107.0054
1168.023, 106.6284
1168.505, 106.5238
1168.987, 106.6589
1169.469, 106.7232
1169.951, 106.3432
1170.433, 106.0710
1170.916, 106.2739
1171.398, 106.6513
1171.880, 106.8466
1172.362, 106.8657
1172.844, 106.7576
1173.326, 106.5304
1173.808, 106.2726
1174.290, 105.8817
1174.773, 105.6523
1175.255, 105.9478
1175.737, 106.4590
1176.219, 106.5666
1176.701, 106.2697
1177.183, 106.1099
1177.665, 106.1703
1178.147, 106.1007
1178.630, 105.3623
1179.112, 104.6371
1179.594, 104.5175
1180.076, 104.8039
1180.558, 104.7077
1181.040, 104.1781
1181.522, 104.4215
1182.004, 105.8054
1182.486, 107.0152
1182.969, 106.8249
1183.451, 106.0108
1183.933, 104.9672
1184.415, 103.8260
1184.897, 103.2370
1185.379, 103.2452
1185.861, 103.2439
1186.343, 103.0667
1186.825, 102.8833
1187.308, 102.7858
1187.790, 102.8176
1188.272, 103.1074
1188.754, 103.6397
1189.236, 103.9079
1189.718, 103.8797
1190.200, 103.8894
1190.682, 104.0526
1191.165, 104.2716
1191.647, 104.6731
1192.129, 104.9287
1192.611, 104.4726
1193.093, 103.1886
1193.575, 102.8567
1194.057, 103.6244
1194.539, 104.2524
1195.021, 104.1835
1195.504, 103.9132
1195.986, 103.8845
1196.468, 104.0500
1196.950, 104.4002
1197.432, 104.9791
1197.914, 105.3827
1198.396, 105.6018
1198.878, 105.6999
1199.360, 105.6952
1199.843, 105.6014
1200.325, 105.3625
1200.807, 105.0802
1201.289, 104.9139
1201.771, 104.9208
1202.253, 104.8208
1202.735, 104.5710
1203.217, 104.5164
1203.700, 105.0480
1204.182, 105.6352
1204.664, 105.5659
1205.146, 105.1759
1205.628, 105.0329
1206.110, 105.3445
1206.592, 105.2754
1207.074, 104.7063
1207.557, 104.5156
1208.039, 105.6382
1208.521, 107.0655
1209.003, 107.7758
1209.485, 107.9632
1209.967, 107.9245
1210.449, 107.5547
1210.931, 107.4530
1211.413, 107.6650
1211.896, 107.8516
1212.378, 107.6465
1212.860, 107.4088
1213.342, 107.6431
1213.824, 108.1034
1214.306, 108.2559
1214.788, 107.9618
1215.270, 107.6877
1215.752, 107.4140
1216.235, 107.4123
1216.717, 108.2304
1217.199, 109.1182
1217.681, 109.1938
1218.163, 108.7930
1218.645, 108.6991
1219.127, 109.0402
1219.609, 109.3716
1220.092, 109.6970
1220.574, 109.8187
1221.056, 109.2901
1221.538, 108.7496
1222.020, 108.9646
1222.502, 109.5854
1222.984, 109.7388
1223.466, 109.2570
1223.948, 108.9340
1224.431, 108.7948
1224.913, 109.0987
1225.395, 110.8645
1225.877, 112.4035
1226.359, 111.7550
1226.841, 109.9348
1227.323, 109.5724
1227.805, 110.9345
1228.287, 112.0886
1228.770, 112.9104
1229.252, 113.2392
1229.734, 112.6183
1230.216, 111.7704
1230.698, 110.9684
1231.180, 110.4304
1231.662, 110.6969
1232.144, 111.8671
1232.627, 112.3226
1233.109, 111.9072
1233.591, 111.6381
1234.073, 112.4631
1234.555, 113.5054
1235.037, 114.4154
1235.519, 115.0474
1236.001, 115.0799
1236.484, 114.5143
1236.966, 113.9615
1237.448, 113.4792
1237.930, 112.9953
1238.412, 112.0401
1238.894, 111.5183
1239.376, 112.3595
1239.858, 113.7430
1240.340, 114.4126
1240.823, 114.3994
1241.305, 113.9859
1241.787, 113.2288
1242.269, 112.8650
1242.751, 113.6674
1243.233, 114.6286
1243.715, 115.4849
1244.197, 116.0826
1244.679, 115.9596
1245.162, 115.3164
1245.644, 115.2800
1246.126, 115.9215
1246.608, 116.6440
1247.090, 117.5248
1247.572, 117.8776
1248.054, 117.2798
1248.536, 116.4088
1249.019, 116.3804
1249.501, 116.9339
1249.983, 117.1383
1250.465, 116.9703
1250.947, 117.1836
1251.429, 118.8621
1251.911, 119.8346
1252.393, 119.4570
1252.875, 118.5762
1253.358, 118.1323
1253.840, 118.1244
1254.322, 118.8033
1254.804, 120.0576
1255.286, 120.7779
1255.768, 120.1952
1256.250, 119.8804
1256.732, 120.1497
1257.214, 120.5487
1257.697, 120.4153
1258.179, 120.0993
1258.661, 120.2974
1259.143, 120.9253
1259.625, 121.0612
1260.107, 120.1936
1260.589, 120.0340
1261.071, 121.0020
1261.554, 121.9767
1262.036, 121.4186
1262.518, 120.4447
1263.000, 120.4777
1263.482, 120.2883
1263.964, 120.2937
1264.446, 120.9774
1264.928, 121.1122
1265.411, 122.3146
1265.893, 123.4627
1266.375, 123.2744
1266.857, 122.8428
1267.339, 123.1143
1267.821, 123.9336
1268.303, 124.6680
1268.785, 125.3167
1269.267, 125.9820
1269.750, 126.6797
1270.232, 127.1213
1270.714, 127.0860
1271.196, 126.7367
1271.678, 125.7445
1272.160, 124.7300
1272.642, 124.8628
1273.124, 126.0447
1273.606, 126.9384
1274.089, 127.4243
1274.571, 127.4693
1275.053, 126.4010
1275.535, 125.7133
1276.017, 126.0678
1276.499, 126.9198
1276.981, 127.7627
1277.463, 128.4811
1277.946, 128.3910
1278.428, 127.6097
1278.910, 127.2416
1279.392, 128.4050
1279.874, 129.1149
1280.356, 128.9366
1280.838, 128.3945
1281.320, 127.8663
1281.802, 127.4815
1282.285, 127.5155
1282.767, 127.9430
1283.249, 128.6342
1283.731, 130.0921
1284.213, 130.6384
1284.695, 129.9308
1285.177, 129.1177
1285.659, 129.3486
1286.141, 130.0111
1286.624, 130.2532
1287.106, 130.2900
1287.588, 130.8740
1288.070, 132.3174
1288.552, 133.0395
1289.034, 132.8932
1289.516, 132.8145
1289.998, 133.9677
1290.481, 135.0301
1290.963, 134.7134
1291.445, 133.6682
1291.927, 132.9588
1292.409, 132.5689
1292.891, 132.9643
1293.373, 134.0982
1293.855, 135.1402
1294.338, 135.6266
1294.820, 135.8586
1295.302, 135.8768
1295.784, 135.7760
1296.266, 135.5554
1296.748, 135.2647
1297.230, 135.3014
1297.712, 135.5978
1298.194, 135.8216
1298.677, 135.2358
1299.159, 135.5216
1299.641, 137.5782
1300.123, 139.1760
1300.605, 138.0112
1301.087, 135.4782
1301.569, 134.8535
1302.051, 135.5622
1302.533, 136.2658
1303.016, 136.6060
##END=



