##NAMES=Leucite
##RRUFFID=R040107
##IDEAL CHEMISTRY=K(Si_2_Al)O_6_
##LOCALITY=Roccamonfina, Italy
##OWNER=RRUFF
##SOURCE=University of Arizona Mineral Museum
##DESCRIPTION=Rounded colorless crystals embedded in an ash matrix
##STATUS=The identification of this mineral has been confirmed by X-ray diffraction and chemical analysis
##URL=rruff.info/R040107
##MEASURED CHEMISTRY=(K_0.95_Na_0.03_)Al_0.99_Si_2.01_O_6_
104.2732, 571.6317
104.7553, 569.5974
105.2374, 556.5214
105.7195, 533.2683
106.2017, 514.2307
106.6838, 508.9092
107.1659, 514.1193
107.6480, 516.7822
108.1301, 512.5079
108.6122, 506.6938
109.0943, 505.0421
109.5765, 507.8015
110.0586, 510.7325
110.5407, 509.6253
111.0228, 504.3897
111.5049, 501.2236
111.9870, 501.6461
112.4692, 504.9648
112.9513, 511.7819
113.4334, 522.4700
113.9155, 533.5425
114.3976, 541.6920
114.8797, 547.3825
115.3619, 547.9399
115.8440, 536.4164
116.3261, 523.1036
116.8082, 516.3009
117.2903, 519.1111
117.7724, 526.4294
118.2546, 528.0349
118.7367, 518.8397
119.2188, 514.0165
119.7009, 523.1779
120.1830, 534.6199
120.6651, 534.5984
121.1473, 515.7169
121.6294, 486.1697
122.1115, 472.1824
122.5936, 482.5322
123.0757, 499.4648
123.5578, 521.9694
124.0400, 548.1609
124.5221, 576.0370
125.0042, 604.0624
125.4863, 632.7308
125.9684, 665.3337
126.4505, 702.1965
126.9327, 742.9716
127.4148, 785.5392
127.8969, 832.2174
128.3790, 887.1223
128.8611, 953.5198
129.3432, 1031.560
129.8254, 1110.664
130.3075, 1193.381
130.7896, 1275.092
131.2717, 1359.721
131.7538, 1442.866
132.2359, 1514.234
132.7181, 1565.155
133.2002, 1594.413
133.6823, 1614.292
134.1644, 1627.007
134.6465, 1630.753
135.1286, 1621.752
135.6107, 1601.656
136.0929, 1576.172
136.5750, 1548.220
137.0571, 1515.856
137.5392, 1502.828
138.0213, 1513.684
138.5034, 1538.543
138.9856, 1573.147
139.4677, 1616.429
139.9498, 1664.412
140.4319, 1711.148
140.9140, 1754.780
141.3961, 1817.564
141.8783, 1903.445
142.3604, 2006.913
142.8425, 2123.703
143.3246, 2253.120
143.8067, 2394.886
144.2888, 2551.002
144.7710, 2722.342
145.2531, 2902.776
145.7352, 3085.607
146.2173, 3235.006
146.6994, 3345.726
147.1815, 3454.253
147.6637, 3557.592
148.1458, 3654.814
148.6279, 3748.689
149.1100, 3827.034
149.5921, 3887.494
150.0742, 3931.846
150.5564, 3961.539
151.0385, 3976.474
151.5206, 3977.950
152.0027, 3966.069
152.4848, 3941.872
152.9669, 3905.857
153.4491, 3852.019
153.9312, 3785.391
154.4133, 3720.341
154.8954, 3661.736
155.3775, 3599.574
155.8596, 3519.912
156.3418, 3423.066
156.8239, 3328.500
157.3060, 3242.793
157.7881, 3166.125
158.2702, 3099.265
158.7523, 3043.443
159.2345, 2996.999
159.7166, 2957.943
160.1987, 2926.256
160.6808, 2897.031
161.1629, 2871.071
161.6451, 2846.942
162.1272, 2813.735
162.6093, 2761.974
163.0914, 2709.815
163.5735, 2671.691
164.0556, 2647.634
164.5378, 2633.258
165.0199, 2632.542
165.5020, 2643.608
165.9841, 2640.086
166.4662, 2600.131
166.9483, 2561.108
167.4305, 2552.651
167.9126, 2575.652
168.3947, 2607.218
168.8768, 2631.677
169.3589, 2649.108
169.8410, 2660.649
170.3232, 2659.383
170.8053, 2658.102
171.2874, 2665.648
171.7695, 2682.568
172.2516, 2703.211
172.7337, 2723.429
173.2158, 2743.182
173.6980, 2761.141
174.1801, 2770.844
174.6622, 2783.359
175.1443, 2806.826
175.6264, 2841.702
176.1085, 2880.204
176.5907, 2914.285
177.0728, 2943.523
177.5549, 2974.486
178.0370, 3025.663
178.5191, 3065.163
179.0012, 3066.894
179.4834, 3030.048
179.9655, 2984.854
180.4476, 2964.880
180.9297, 2974.913
181.4118, 2976.230
181.8939, 2960.631
182.3761, 2936.307
182.8582, 2905.296
183.3403, 2868.417
183.8224, 2828.116
184.3045, 2786.094
184.7866, 2742.225
185.2688, 2699.309
185.7509, 2659.301
186.2330, 2619.315
186.7151, 2579.153
187.1972, 2538.228
187.6793, 2494.908
188.1615, 2446.202
188.6436, 2391.150
189.1257, 2336.365
189.6078, 2273.156
190.0899, 2217.569
190.5720, 2182.079
191.0542, 2165.886
191.5363, 2153.727
192.0184, 2128.077
192.5005, 2085.619
192.9826, 2049.458
193.4647, 2025.001
193.9469, 2004.236
194.4290, 1987.097
194.9111, 1971.811
195.3932, 1952.067
195.8753, 1916.388
196.3574, 1859.244
196.8396, 1819.384
197.3217, 1818.403
197.8038, 1819.754
198.2859, 1804.319
198.7680, 1773.787
199.2501, 1745.156
199.7323, 1738.675
200.2144, 1758.738
200.6965, 1769.311
201.1786, 1763.202
201.6607, 1752.370
202.1428, 1739.646
202.6250, 1725.860
203.1071, 1711.652
203.5892, 1696.531
204.0713, 1679.942
204.5534, 1667.843
205.0355, 1661.254
205.5177, 1658.809
205.9998, 1663.520
206.4819, 1672.854
206.9640, 1679.638
207.4461, 1675.651
207.9282, 1660.374
208.4103, 1652.731
208.8925, 1657.736
209.3746, 1666.240
209.8567, 1680.432
210.3388, 1696.025
210.8209, 1703.352
211.3030, 1691.463
211.7852, 1661.691
212.2673, 1642.630
212.7494, 1646.150
213.2315, 1648.023
213.7136, 1639.222
214.1957, 1622.370
214.6779, 1603.467
215.1600, 1585.857
215.6421, 1569.645
216.1242, 1556.513
216.6063, 1550.184
217.0884, 1542.240
217.5706, 1530.730
218.0527, 1515.750
218.5348, 1497.018
219.0169, 1472.634
219.4990, 1445.106
219.9811, 1425.706
220.4633, 1418.696
220.9454, 1413.940
221.4275, 1413.391
221.9096, 1411.610
222.3917, 1399.337
222.8738, 1368.548
223.3560, 1328.210
223.8381, 1306.529
224.3202, 1317.349
224.8023, 1320.796
225.2844, 1296.365
225.7665, 1261.805
226.2487, 1238.695
226.7308, 1237.789
227.2129, 1248.303
227.6950, 1248.067
228.1771, 1233.149
228.6592, 1217.262
229.1414, 1203.178
229.6235, 1190.731
230.1056, 1181.009
230.5877, 1175.074
231.0698, 1168.482
231.5519, 1151.854
232.0341, 1120.556
232.5162, 1097.100
232.9983, 1093.760
233.4804, 1097.334
233.9625, 1099.573
234.4446, 1098.704
234.9268, 1094.869
235.4089, 1087.113
235.8910, 1074.794
236.3731, 1064.000
236.8552, 1056.275
237.3373, 1050.595
237.8195, 1047.333
238.3016, 1046.498
238.7837, 1044.897
239.2658, 1037.434
239.7479, 1024.312
240.2300, 1017.439
240.7122, 1021.076
241.1943, 1030.036
241.6764, 1043.598
242.1585, 1060.856
242.6406, 1072.157
243.1227, 1066.079
243.6048, 1046.329
244.0870, 1035.115
244.5691, 1040.684
245.0512, 1047.137
245.5333, 1039.404
246.0154, 1020.610
246.4975, 1006.151
246.9797, 1006.997
247.4618, 1017.893
247.9439, 1024.615
248.4260, 1024.761
248.9081, 1024.057
249.3902, 1029.120
249.8724, 1037.117
250.3545, 1040.077
250.8366, 1028.165
251.3187, 1011.988
251.8008, 1010.962
252.2829, 1028.487
252.7651, 1045.262
253.2472, 1045.652
253.7293, 1035.718
254.2114, 1028.542
254.6935, 1026.853
255.1756, 1028.726
255.6578, 1033.906
256.1399, 1042.360
256.6220, 1048.725
257.1041, 1048.541
257.5862, 1044.623
258.0684, 1044.423
258.5505, 1049.614
259.0326, 1056.728
259.5147, 1066.986
259.9968, 1078.540
260.4789, 1080.837
260.9610, 1064.658
261.4431, 1041.329
261.9253, 1037.212
262.4074, 1061.655
262.8895, 1082.943
263.3716, 1084.832
263.8537, 1074.900
264.3358, 1069.496
264.8180, 1074.710
265.3001, 1084.288
265.7822, 1086.938
266.2643, 1080.735
266.7464, 1075.656
267.2285, 1073.564
267.7107, 1073.590
268.1928, 1075.572
268.6749, 1079.466
269.1570, 1082.836
269.6391, 1082.334
270.1212, 1076.173
270.6034, 1072.310
271.0855, 1072.831
271.5676, 1074.207
272.0497, 1073.637
272.5318, 1070.986
273.0139, 1067.932
273.4961, 1066.008
273.9782, 1065.383
274.4603, 1063.972
274.9424, 1061.549
275.4245, 1058.713
275.9066, 1054.177
276.3888, 1049.277
276.8709, 1047.515
277.3530, 1051.596
277.8351, 1060.721
278.3172, 1067.577
278.7993, 1071.434
279.2815, 1073.970
279.7636, 1074.494
280.2457, 1074.147
280.7278, 1074.499
281.2099, 1076.309
281.6920, 1079.132
282.1742, 1081.608
282.6563, 1081.768
283.1384, 1084.719
283.6205, 1095.016
284.1026, 1105.698
284.5847, 1110.522
285.0669, 1107.807
285.5490, 1100.547
286.0311, 1091.347
286.5132, 1075.081
286.9953, 1071.310
287.4774, 1089.909
287.9596, 1112.854
288.4417, 1129.587
288.9238, 1140.017
289.4059, 1151.488
289.8880, 1173.041
290.3701, 1205.522
290.8523, 1231.138
291.3344, 1243.181
291.8165, 1254.926
292.2986, 1273.410
292.7807, 1295.893
293.2628, 1315.830
293.7450, 1328.375
294.2271, 1335.394
294.7092, 1343.118
295.1913, 1351.228
295.6734, 1360.785
296.1555, 1374.144
296.6377, 1388.521
297.1198, 1399.356
297.6019, 1403.090
298.0840, 1406.321
298.5661, 1421.573
299.0482, 1450.893
299.5304, 1471.475
300.0125, 1469.767
300.4946, 1457.824
300.9767, 1449.978
301.4588, 1448.376
301.9409, 1446.879
302.4231, 1438.960
302.9052, 1426.914
303.3873, 1421.886
303.8694, 1430.569
304.3515, 1440.466
304.8336, 1434.278
305.3158, 1412.279
305.7979, 1391.328
306.2800, 1377.414
306.7621, 1367.494
307.2442, 1357.318
307.7263, 1346.295
308.2085, 1335.873
308.6906, 1327.443
309.1727, 1321.120
309.6548, 1315.245
310.1369, 1309.762
310.6190, 1304.744
311.1012, 1301.001
311.5833, 1298.014
312.0654, 1293.744
312.5475, 1286.972
313.0296, 1277.840
313.5117, 1267.287
313.9939, 1255.401
314.4760, 1242.256
314.9581, 1222.789
315.4402, 1203.414
315.9223, 1195.447
316.4044, 1203.494
316.8866, 1219.112
317.3687, 1225.043
317.8508, 1212.703
318.3329, 1203.655
318.8150, 1199.763
319.2971, 1197.615
319.7793, 1196.177
320.2614, 1194.465
320.7435, 1189.529
321.2256, 1175.774
321.7077, 1149.278
322.1898, 1138.400
322.6720, 1157.601
323.1541, 1178.914
323.6362, 1195.148
324.1183, 1205.754
324.6004, 1211.414
325.0826, 1211.284
325.5647, 1207.336
326.0468, 1207.859
326.5289, 1213.895
327.0110, 1222.831
327.4931, 1238.638
327.9753, 1254.623
328.4574, 1262.179
328.9395, 1257.451
329.4216, 1248.530
329.9037, 1245.482
330.3858, 1248.618
330.8679, 1253.353
331.3500, 1258.962
331.8322, 1265.560
332.3143, 1274.144
332.7964, 1284.793
333.2785, 1293.255
333.7606, 1298.160
334.2427, 1298.932
334.7249, 1291.990
335.2070, 1274.049
335.6891, 1257.226
336.1712, 1255.802
336.6533, 1266.285
337.1354, 1271.240
337.6176, 1261.382
338.0997, 1249.240
338.5818, 1248.651
339.0639, 1258.016
339.5460, 1261.829
340.0281, 1248.885
340.5103, 1224.395
340.9924, 1211.461
341.4745, 1221.672
341.9566, 1227.728
342.4387, 1217.865
342.9208, 1200.552
343.4030, 1189.007
343.8851, 1187.657
344.3672, 1190.710
344.8493, 1188.446
345.3314, 1177.363
345.8135, 1168.376
346.2957, 1163.366
346.7778, 1158.804
347.2599, 1152.184
347.7420, 1143.626
348.2241, 1134.955
348.7062, 1127.785
349.1884, 1122.107
349.6705, 1116.467
350.1526, 1111.883
350.6347, 1106.193
351.1168, 1095.552
351.5989, 1084.373
352.0811, 1079.909
352.5632, 1086.329
353.0453, 1097.595
353.5274, 1100.823
354.0095, 1093.014
354.4916, 1087.606
354.9738, 1089.488
355.4559, 1094.052
355.9380, 1100.055
356.4201, 1107.082
356.9022, 1110.497
357.3843, 1103.109
357.8665, 1087.986
358.3486, 1079.048
358.8307, 1078.145
359.3128, 1083.223
359.7949, 1098.516
360.2770, 1119.760
360.7592, 1131.903
361.2413, 1124.457
361.7234, 1110.558
362.2055, 1101.313
362.6876, 1096.961
363.1697, 1098.160
363.6519, 1107.340
364.1340, 1121.032
364.6161, 1127.593
365.0982, 1124.120
365.5803, 1119.499
366.0624, 1117.387
366.5446, 1115.152
367.0267, 1106.360
367.5088, 1089.695
367.9909, 1075.082
368.4730, 1077.224
368.9551, 1104.047
369.4373, 1121.592
369.9194, 1124.251
370.4015, 1124.157
370.8836, 1128.462
371.3657, 1135.584
371.8478, 1139.215
372.3300, 1134.404
372.8121, 1123.126
373.2942, 1116.294
373.7763, 1116.944
374.2584, 1117.659
374.7405, 1115.238
375.2227, 1113.016
375.7048, 1114.607
376.1869, 1121.091
376.6690, 1129.858
377.1511, 1139.650
377.6332, 1150.722
378.1154, 1154.782
378.5975, 1145.278
379.0796, 1134.470
379.5617, 1132.540
380.0438, 1137.663
380.5259, 1140.724
381.0081, 1132.637
381.4902, 1121.933
381.9723, 1124.486
382.4544, 1141.559
382.9365, 1157.420
383.4186, 1163.422
383.9008, 1161.045
384.3829, 1156.710
384.8650, 1148.119
385.3471, 1140.954
385.8292, 1138.501
386.3113, 1138.882
386.7935, 1138.658
387.2756, 1136.773
387.7577, 1134.512
388.2398, 1133.564
388.7219, 1134.028
389.2040, 1135.885
389.6862, 1145.438
390.1683, 1150.827
390.6504, 1140.119
391.1325, 1118.552
391.6146, 1102.786
392.0967, 1105.338
392.5789, 1121.539
393.0610, 1125.911
393.5431, 1106.167
394.0252, 1093.683
394.5073, 1099.113
394.9894, 1110.490
395.4716, 1117.774
395.9537, 1118.200
396.4358, 1113.392
396.9179, 1102.549
397.4000, 1085.753
397.8821, 1074.688
398.3643, 1073.781
398.8464, 1074.377
399.3285, 1070.691
399.8106, 1063.623
400.2927, 1055.864
400.7748, 1046.481
401.2569, 1038.079
401.7390, 1034.171
402.2212, 1034.563
402.7033, 1036.608
403.1854, 1040.293
403.6675, 1043.769
404.1496, 1042.257
404.6317, 1034.165
405.1139, 1025.615
405.5960, 1016.794
406.0781, 1009.039
406.5602, 1004.139
407.0423, 1002.331
407.5244, 1002.208
408.0066, 1002.492
408.4887, 1003.233
408.9708, 1003.847
409.4529, 1004.057
409.9350, 1004.455
410.4171, 1005.637
410.8993, 1007.039
411.3814, 1007.820
411.8635, 1007.608
412.3456, 1006.566
412.8277, 1005.185
413.3098, 1003.878
413.7920, 1000.828
414.2741, 987.9783
414.7562, 979.5524
415.2383, 987.4498
415.7204, 1009.684
416.2025, 1030.708
416.6847, 1040.166
417.1668, 1041.414
417.6489, 1041.399
418.1310, 1039.758
418.6131, 1039.580
419.0952, 1042.238
419.5774, 1047.898
420.0595, 1056.379
420.5416, 1068.715
421.0237, 1082.189
421.5058, 1098.709
421.9879, 1114.806
422.4701, 1122.111
422.9522, 1118.249
423.4343, 1113.088
423.9164, 1119.295
424.3985, 1140.733
424.8806, 1155.056
425.3628, 1160.840
425.8449, 1161.939
426.3270, 1153.654
426.8091, 1142.658
427.2912, 1143.288
427.7733, 1164.275
428.2555, 1194.992
428.7376, 1208.159
429.2197, 1195.135
429.7018, 1185.123
430.1839, 1185.350
430.6660, 1187.402
431.1482, 1186.741
431.6303, 1182.821
432.1124, 1176.652
432.5945, 1168.895
433.0766, 1159.488
433.5587, 1146.687
434.0409, 1128.859
434.5230, 1115.099
435.0051, 1114.039
435.4872, 1119.749
435.9693, 1118.681
436.4514, 1106.383
436.9336, 1093.835
437.4157, 1088.589
437.8978, 1086.208
438.3799, 1077.279
438.8620, 1059.363
439.3441, 1040.606
439.8263, 1030.377
440.3084, 1030.317
440.7905, 1029.522
441.2726, 1027.299
441.7547, 1025.187
442.2368, 1022.838
442.7190, 1021.235
443.2011, 1022.825
443.6832, 1028.961
444.1653, 1036.194
444.6474, 1036.722
445.1295, 1028.063
445.6117, 1021.118
446.0938, 1016.363
446.5759, 1014.569
447.0580, 1017.193
447.5401, 1023.613
448.0222, 1031.050
448.5044, 1040.203
448.9865, 1048.501
449.4686, 1048.665
449.9507, 1039.923
450.4328, 1035.927
450.9149, 1044.418
451.3971, 1061.068
451.8792, 1076.307
452.3613, 1090.498
452.8434, 1102.433
453.3255, 1107.765
453.8076, 1112.763
454.2898, 1127.256
454.7719, 1151.299
455.2540, 1173.569
455.7361, 1183.252
456.2182, 1180.828
456.7003, 1184.619
457.1825, 1198.245
457.6646, 1214.353
458.1467, 1235.016
458.6288, 1256.025
459.1109, 1272.111
459.5930, 1282.024
460.0752, 1290.496
460.5573, 1302.333
461.0394, 1317.526
461.5215, 1337.855
462.0036, 1366.652
462.4857, 1395.640
462.9679, 1417.956
463.4500, 1436.747
463.9321, 1459.189
464.4142, 1487.875
464.8963, 1519.950
465.3784, 1550.410
465.8606, 1581.817
466.3427, 1624.895
466.8248, 1684.783
467.3069, 1749.413
467.7890, 1801.092
468.2711, 1832.351
468.7533, 1878.349
469.2354, 1946.172
469.7175, 2021.523
470.1996, 2096.917
470.6817, 2174.225
471.1638, 2258.935
471.6459, 2354.610
472.1281, 2458.315
472.6102, 2563.854
473.0923, 2669.693
473.5744, 2782.064
474.0565, 2899.482
474.5386, 3026.530
475.0208, 3156.372
475.5029, 3295.933
475.9850, 3472.977
476.4671, 3761.269
476.9492, 4070.296
477.4313, 4222.330
477.9135, 4217.110
478.3956, 4221.140
478.8777, 4306.954
479.3598, 4446.942
479.8419, 4586.658
480.3240, 4727.599
480.8062, 4866.428
481.2883, 4999.551
481.7704, 5132.295
482.2525, 5275.521
482.7346, 5425.070
483.2167, 5564.518
483.6989, 5678.877
484.1810, 5774.298
484.6631, 5880.212
485.1452, 6000.864
485.6273, 6126.544
486.1094, 6258.915
486.5916, 6392.392
487.0737, 6522.382
487.5558, 6648.305
488.0379, 6775.712
488.5200, 6908.044
489.0021, 7044.778
489.4843, 7187.020
489.9664, 7337.204
490.4485, 7479.077
490.9306, 7601.513
491.4127, 7710.750
491.8948, 7826.835
492.3770, 7959.829
492.8591, 8077.016
493.3412, 8170.924
493.8233, 8241.261
494.3054, 8286.088
494.7875, 8305.936
495.2697, 8304.709
495.7518, 8286.248
496.2339, 8249.778
496.7160, 8187.356
497.1981, 8086.823
497.6802, 7973.899
498.1624, 7844.329
498.6445, 7709.793
499.1266, 7576.447
499.6087, 7447.394
500.0908, 7331.649
500.5729, 7241.838
501.0551, 7173.100
501.5372, 7103.021
502.0193, 7029.988
502.5014, 6960.830
502.9835, 6900.101
503.4656, 6846.163
503.9478, 6794.210
504.4299, 6743.926
504.9120, 6696.030
505.3941, 6662.826
505.8762, 6626.696
506.3583, 6561.349
506.8405, 6464.848
507.3226, 6361.035
507.8047, 6273.270
508.2868, 6198.138
508.7689, 6089.775
509.2510, 5919.537
509.7332, 5752.701
510.2153, 5590.621
510.6974, 5442.437
511.1795, 5321.219
511.6616, 5227.019
512.1437, 5140.073
512.6259, 5036.877
513.1080, 4926.144
513.5901, 4844.328
514.0722, 4796.950
514.5543, 4754.620
515.0364, 4697.586
515.5186, 4636.476
516.0007, 4595.394
516.4828, 4575.966
516.9649, 4572.223
517.4470, 4589.916
517.9291, 4618.019
518.4113, 4643.792
518.8934, 4666.532
519.3755, 4693.598
519.8576, 4729.902
520.3397, 4776.306
520.8218, 4839.540
521.3040, 4927.212
521.7861, 5019.449
522.2682, 5118.530
522.7503, 5216.189
523.2324, 5302.981
523.7145, 5379.205
524.1967, 5458.099
524.6788, 5562.854
525.1609, 5672.392
525.6430, 5740.584
526.1251, 5765.644
526.6072, 5769.194
527.0894, 5759.117
527.5715, 5736.022
528.0536, 5702.130
528.5357, 5666.305
529.0178, 5600.155
529.4999, 5496.290
529.9821, 5363.128
530.4642, 5196.393
530.9463, 5005.799
531.4284, 4815.658
531.9105, 4643.530
532.3926, 4478.499
532.8748, 4286.300
533.3569, 4050.005
533.8390, 3839.365
534.3211, 3679.139
534.8032, 3537.457
535.2853, 3402.050
535.7675, 3269.611
536.2496, 3129.619
536.7317, 2963.072
537.2138, 2796.803
537.6959, 2663.606
538.1780, 2558.585
538.6602, 2462.542
539.1423, 2369.659
539.6244, 2279.604
540.1065, 2190.835
540.5886, 2098.961
541.0707, 2025.550
541.5529, 1985.332
542.0350, 1946.371
542.5171, 1893.915
542.9992, 1833.634
543.4813, 1776.009
543.9634, 1724.986
544.4456, 1678.141
544.9277, 1629.361
545.4098, 1578.802
545.8919, 1544.741
546.3740, 1536.801
546.8561, 1529.649
547.3383, 1500.084
547.8204, 1457.665
548.3025, 1428.923
548.7846, 1431.108
549.2667, 1427.221
549.7488, 1395.447
550.2310, 1349.027
550.7131, 1303.778
551.1952, 1264.020
551.6773, 1234.008
552.1594, 1219.055
552.6415, 1217.872
553.1237, 1212.125
553.6058, 1199.097
554.0879, 1185.717
554.5700, 1175.432
555.0521, 1164.224
555.5342, 1147.202
556.0164, 1124.271
556.4985, 1102.149
556.9806, 1085.737
557.4627, 1072.775
557.9448, 1059.280
558.4269, 1045.149
558.9091, 1032.441
559.3912, 1022.813
559.8733, 1013.982
560.3554, 1000.902
560.8375, 979.8146
561.3196, 962.6038
561.8018, 949.2884
562.2839, 939.9316
562.7660, 941.2892
563.2481, 945.9031
563.7302, 935.7064
564.2123, 900.1021
564.6945, 856.7280
565.1766, 836.6865
565.6587, 840.8484
566.1408, 843.3046
566.6229, 841.5030
567.1050, 835.7670
567.5872, 822.5025
568.0693, 805.0245
568.5514, 794.0406
569.0335, 794.9082
569.5156, 797.8531
569.9977, 799.3636
570.4799, 799.6613
570.9620, 798.0408
571.4441, 794.8206
571.9262, 793.6523
572.4083, 799.4407
572.8904, 810.7215
573.3726, 809.5847
573.8547, 788.1152
574.3368, 768.2235
574.8189, 752.7847
575.3010, 742.6232
575.7831, 740.9240
576.2653, 747.3021
576.7473, 752.3041
577.2294, 747.1000
577.7115, 739.8992
578.1937, 743.5093
578.6758, 756.3342
579.1579, 767.6714
579.6400, 773.5343
580.1221, 773.0618
580.6042, 763.3034
581.0864, 736.9736
581.5685, 723.5093
582.0506, 734.0108
582.5327, 743.8433
583.0148, 739.1483
583.4969, 727.9697
583.9791, 725.0646
584.4612, 736.2527
584.9433, 750.7662
585.4254, 757.8899
585.9075, 758.3304
586.3896, 754.5707
586.8718, 746.1554
587.3539, 737.1964
587.8360, 729.4354
588.3181, 723.4954
588.8002, 721.9655
589.2823, 729.8065
589.7645, 733.8328
590.2466, 729.1966
590.7287, 722.0007
591.2108, 716.0114
591.6929, 712.2259
592.1750, 711.9803
592.6572, 717.4372
593.1393, 723.8032
593.6214, 716.9648
594.1035, 694.4081
594.5856, 681.4451
595.0677, 687.8546
595.5499, 698.6313
596.0320, 697.9235
596.5141, 688.9332
596.9962, 687.0912
597.4783, 704.7767
597.9604, 719.0477
598.4426, 715.0569
598.9247, 701.9615
599.4068, 692.4086
599.8889, 689.4977
600.3710, 690.5630
600.8531, 693.6895
601.3353, 698.4669
601.8174, 701.1727
602.2995, 701.4345
602.7816, 700.4947
603.2637, 701.4117
603.7458, 699.2520
604.2280, 685.3292
604.7101, 660.1862
605.1922, 644.7395
605.6743, 653.8677
606.1564, 670.4211
606.6385, 681.7064
607.1207, 687.3358
607.6028, 687.1237
608.0849, 680.9437
608.5670, 672.2320
609.0491, 665.1482
609.5313, 659.4005
610.0134, 658.1295
610.4955, 666.5690
610.9776, 672.3847
611.4597, 670.0846
611.9418, 664.1834
612.4240, 659.2985
612.9061, 656.1924
613.3882, 655.6163
613.8703, 658.9247
614.3524, 664.5576
614.8345, 672.4797
615.3167, 681.4462
615.7988, 684.0535
616.2809, 675.7894
616.7630, 662.9394
617.2451, 658.5816
617.7272, 667.7123
618.2094, 671.2101
618.6915, 658.1905
619.1736, 651.1403
619.6557, 667.1459
620.1378, 691.8484
620.6199, 700.9332
621.1021, 685.3954
621.5842, 665.9472
622.0663, 658.8823
622.5484, 660.4153
623.0305, 663.6784
623.5126, 667.8381
623.9948, 671.2273
624.4769, 672.5977
624.9590, 672.9672
625.4411, 675.5827
625.9232, 686.2170
626.4053, 688.2737
626.8875, 673.8377
627.3696, 659.5199
627.8517, 654.3375
628.3338, 655.6562
628.8159, 657.1805
629.2980, 656.6420
629.7802, 655.0569
630.2623, 653.7337
630.7444, 652.1715
631.2265, 648.5746
631.7086, 642.6824
632.1907, 636.2963
632.6729, 630.2264
633.1550, 624.9908
633.6371, 622.7128
634.1192, 624.6661
634.6013, 627.8312
635.0834, 635.9561
635.5656, 641.7746
636.0477, 637.9597
636.5298, 628.4271
637.0119, 623.6537
637.4940, 629.8707
637.9761, 637.8907
638.4583, 636.1679
638.9404, 627.5686
639.4225, 621.8908
639.9046, 620.7422
640.3867, 621.4167
640.8688, 622.3741
641.3510, 623.2827
641.8331, 622.5148
642.3152, 618.3047
642.7973, 614.9233
643.2794, 611.6487
643.7615, 609.9470
644.2437, 611.7505
644.7258, 615.9204
645.2079, 619.7159
645.6900, 622.5003
646.1721, 622.8248
646.6542, 616.7037
647.1364, 606.6279
647.6185, 601.4833
648.1006, 602.8914
648.5827, 606.1086
649.0648, 607.7397
649.5469, 608.0828
650.0291, 608.6034
650.5112, 609.8915
650.9933, 610.4438
651.4754, 606.4460
651.9575, 605.0874
652.4396, 615.3683
652.9218, 632.0476
653.4039, 639.8950
653.8860, 628.9626
654.3681, 615.2540
654.8502, 615.7559
655.3323, 626.7130
655.8145, 640.2599
656.2966, 654.9777
656.7787, 663.1462
657.2608, 657.5031
657.7429, 642.1902
658.2250, 635.1035
658.7072, 641.5976
659.1893, 646.9794
659.6714, 652.1320
660.1535, 654.5700
660.6356, 650.1922
661.1177, 642.1679
661.5999, 638.5219
662.0820, 643.9039
662.5641, 649.9050
663.0462, 647.4248
663.5283, 641.0494
664.0104, 640.4995
664.4926, 646.6396
664.9747, 653.5074
665.4568, 657.0802
665.9389, 658.3640
666.4210, 661.0115
666.9031, 667.9891
667.3853, 669.0126
667.8674, 657.2446
668.3495, 645.6083
668.8316, 638.8154
669.3137, 636.8091
669.7958, 639.5524
670.2780, 648.3090
670.7601, 658.1583
671.2422, 669.5153
671.7243, 678.3168
672.2064, 677.1993
672.6885, 667.2001
673.1707, 655.7500
673.6528, 646.6046
674.1349, 641.3372
674.6170, 645.0489
675.0991, 661.0494
675.5812, 670.0294
676.0634, 668.2180
676.5455, 663.7054
677.0276, 659.4023
677.5097, 655.6302
677.9918, 653.2627
678.4739, 653.0126
678.9561, 651.9739
679.4382, 649.0499
679.9203, 644.9167
680.4024, 638.5602
680.8845, 631.6074
681.3666, 628.4019
681.8488, 630.8860
682.3309, 635.3531
682.8130, 636.1756
683.2951, 633.4390
683.7772, 632.6392
684.2593, 635.0045
684.7415, 635.4656
685.2236, 630.0637
685.7057, 622.4161
686.1878, 619.5723
686.6699, 622.7003
687.1520, 624.2108
687.6342, 624.0903
688.1163, 621.2159
688.5984, 612.6074
689.0805, 601.7687
689.5626, 593.1467
690.0447, 588.2684
690.5269, 587.3657
691.0090, 596.2776
691.4911, 608.6076
691.9732, 599.6028
692.4553, 569.2416
692.9374, 552.1722
693.4196, 563.9897
693.9017, 585.8947
694.3838, 593.7966
694.8659, 585.9894
695.3480, 578.4776
695.8301, 568.0786
696.3123, 561.9057
696.7944, 565.1472
697.2765, 570.9011
697.7586, 572.2505
698.2407, 568.9384
698.7228, 565.9481
699.2050, 567.7806
699.6871, 569.7695
700.1692, 564.3717
700.6513, 554.6794
701.1334, 551.8552
701.6155, 558.1773
702.0977, 560.6929
702.5798, 545.3221
703.0619, 517.3018
703.5440, 511.5958
704.0261, 540.3967
704.5082, 562.6355
704.9904, 567.2953
705.4725, 568.4963
705.9546, 576.5219
706.4367, 588.6518
706.9188, 595.9131
707.4009, 594.7496
707.8831, 591.4025
708.3652, 588.1620
708.8473, 584.8201
709.3294, 581.4782
709.8115, 577.8472
710.2936, 571.8882
710.7758, 561.8250
711.2579, 553.4415
711.7400, 560.3317
712.2221, 582.0865
712.7042, 593.9852
713.1863, 592.0452
713.6685, 586.8517
714.1506, 583.2170
714.6327, 580.9500
715.1148, 579.9961
715.5969, 582.0818
716.0790, 580.7743
716.5612, 570.0396
717.0433, 561.8463
717.5253, 565.5558
718.0074, 574.2944
718.4896, 576.4402
718.9717, 569.0852
719.4538, 561.9628
719.9359, 564.1852
720.4180, 571.2222
720.9001, 576.0242
721.3823, 578.3186
721.8644, 576.8809
722.3465, 570.9943
722.8286, 564.9281
723.3107, 564.4040
723.7928, 569.4073
724.2750, 570.5572
724.7571, 564.3841
725.2392, 560.6295
725.7213, 563.9705
726.2034, 568.6309
726.6855, 570.9693
727.1677, 570.8693
727.6498, 568.8062
728.1319, 561.2551
728.6140, 556.0653
729.0961, 557.3541
729.5782, 563.2717
730.0604, 577.0956
730.5425, 594.6268
731.0246, 598.1274
731.5067, 573.6402
731.9888, 539.1261
732.4709, 530.5850
732.9531, 546.6970
733.4352, 558.5380
733.9173, 562.2662
734.3994, 564.2458
734.8815, 568.6801
735.3636, 573.9149
735.8458, 575.5223
736.3279, 572.2872
736.8100, 567.8924
737.2921, 559.4377
737.7742, 552.9879
738.2563, 554.3391
738.7385, 557.9651
739.2206, 553.9042
739.7027, 539.9501
740.1848, 530.1223
740.6669, 537.9078
741.1490, 551.4056
741.6312, 562.4291
742.1133, 566.6617
742.5954, 545.5673
743.0775, 495.1698
743.5596, 450.4912
744.0417, 451.7738
744.5239, 491.5177
745.0060, 518.1499
745.4881, 529.3840
745.9702, 535.9592
746.4523, 541.2861
746.9344, 541.1337
747.4166, 525.3893
747.8987, 498.7004
748.3808, 488.8855
748.8629, 513.4745
749.3450, 532.2846
749.8271, 533.8729
750.3093, 529.8911
750.7914, 528.5208
751.2735, 529.6262
751.7556, 530.8854
752.2377, 531.8445
752.7198, 529.4662
753.2020, 515.3365
753.6841, 497.2251
754.1662, 495.1638
754.6483, 508.2269
755.1304, 518.9768
755.6125, 519.3464
756.0947, 513.1688
756.5768, 505.3974
757.0589, 495.4666
757.5410, 491.6510
758.0231, 497.7480
758.5052, 502.1389
758.9874, 498.5324
759.4695, 493.6216
759.9516, 494.8694
760.4337, 501.9965
760.9158, 508.5649
761.3979, 517.9083
761.8801, 521.2434
762.3622, 508.7370
762.8443, 492.8910
763.3264, 488.7392
763.8085, 494.7444
764.2906, 497.4828
764.7728, 488.3834
765.2549, 476.2369
765.7370, 472.1686
766.2191, 474.4290
766.7012, 478.0128
767.1833, 482.2967
767.6655, 487.4164
768.1476, 493.5180
768.6297, 500.2981
769.1118, 507.5739
769.5939, 515.9838
770.0760, 521.3456
770.5582, 521.8431
771.0403, 522.3080
771.5224, 523.7477
772.0045, 526.6516
772.4866, 534.0208
772.9688, 546.2860
773.4509, 549.5798
773.9330, 534.9955
774.4151, 518.3389
774.8972, 502.9176
775.3793, 491.5941
775.8615, 489.0569
776.3436, 494.1524
776.8257, 499.9296
777.3078, 502.0180
777.7899, 503.1268
778.2720, 505.1640
778.7542, 509.2452
779.2363, 521.0320
779.7184, 540.4742
780.2005, 557.5573
780.6826, 566.7553
781.1647, 567.6502
781.6469, 556.1201
782.1290, 526.7547
782.6111, 514.4891
783.0932, 529.1812
783.5753, 541.0959
784.0574, 536.1672
784.5396, 523.2560
785.0217, 512.4962
785.5038, 503.3777
785.9859, 503.1974
786.4680, 525.2885
786.9501, 541.1738
787.4323, 535.3959
787.9144, 521.7127
788.3965, 513.1954
788.8786, 511.1927
789.3607, 511.6510
789.8428, 512.5963
790.3250, 514.9427
790.8071, 523.7201
791.2892, 533.2084
791.7713, 528.0587
792.2534, 509.6742
792.7355, 497.4908
793.2177, 502.4558
793.6998, 514.1754
794.1819, 514.1155
794.6640, 501.8739
795.1461, 491.7006
795.6282, 484.5482
796.1104, 475.4832
796.5925, 460.0827
797.0746, 445.5284
797.5567, 443.0731
798.0388, 454.2050
798.5209, 457.0627
799.0031, 444.2320
799.4852, 433.7200
799.9673, 429.6434
800.4494, 428.2979
800.9315, 425.9991
801.4136, 423.7700
801.8958, 426.2688
802.3779, 438.1487
802.8600, 447.3629
803.3421, 445.9885
803.8242, 438.3911
804.3063, 423.9567
804.7885, 408.1124
805.2706, 406.6776
805.7527, 425.5227
806.2348, 446.5719
806.7169, 446.1609
807.1990, 430.4480
807.6812, 421.8986
808.1633, 420.3975
808.6454, 423.6456
809.1275, 431.8021
809.6096, 439.1110
810.0917, 439.2416
810.5739, 433.3713
811.0560, 430.4895
811.5381, 432.2256
812.0202, 432.9298
812.5023, 429.5559
812.9844, 427.9195
813.4666, 436.1323
813.9487, 447.3739
814.4308, 446.5197
814.9129, 427.3376
815.3950, 413.2205
815.8771, 413.0381
816.3593, 414.9792
816.8414, 412.9449
817.3235, 408.5509
817.8056, 403.5811
818.2877, 398.9238
818.7698, 397.1734
819.2520, 403.0302
819.7341, 409.5841
820.2162, 407.7198
820.6983, 401.0282
821.1804, 397.4216
821.6625, 397.7051
822.1447, 396.8648
822.6268, 391.1817
823.1089, 385.2761
823.5910, 390.7666
824.0731, 406.8230
824.5552, 412.2081
825.0374, 404.5449
825.5195, 393.7433
826.0016, 382.4384
826.4837, 373.9184
826.9658, 374.1224
827.4479, 384.1149
827.9301, 388.9253
828.4122, 387.4909
828.8943, 382.4702
829.3764, 366.4398
829.8585, 353.8873
830.3406, 359.4698
830.8228, 377.4909
831.3049, 387.7497
831.7870, 382.4573
832.2691, 377.9532
832.7512, 381.4933
833.2333, 385.5325
833.7155, 383.6170
834.1976, 378.3190
834.6797, 375.0701
835.1618, 375.3799
835.6439, 376.3193
836.1260, 376.4936
836.6082, 375.4721
837.0903, 372.1322
837.5724, 367.2418
838.0545, 362.0660
838.5366, 357.1877
839.0187, 354.2413
839.5009, 354.6473
839.9830, 357.1890
840.4651, 360.2861
840.9472, 363.7035
841.4293, 361.3103
841.9114, 351.3498
842.3936, 345.6751
842.8757, 350.3502
843.3578, 362.0618
843.8399, 377.4911
844.3220, 398.2944
844.8041, 404.7186
845.2863, 389.0934
845.7684, 373.0341
846.2505, 358.0528
846.7326, 347.6152
847.2147, 346.1310
847.6968, 351.7039
848.1790, 356.4039
848.6611, 358.4579
849.1432, 361.5531
849.6253, 369.1876
850.1074, 375.2923
850.5895, 376.2093
851.0717, 372.8966
851.5538, 365.7343
852.0359, 355.0399
852.5180, 347.7007
853.0001, 349.4128
853.4822, 354.6346
853.9644, 361.1112
854.4465, 366.4223
854.9286, 364.6581
855.4107, 356.8142
855.8928, 352.2315
856.3749, 357.5732
856.8571, 365.6039
857.3392, 364.8348
857.8213, 357.7548
858.3034, 352.0616
858.7855, 348.5638
859.2676, 349.0616
859.7497, 354.5613
860.2318, 361.6255
860.7139, 366.3233
861.1960, 368.5529
861.6782, 366.4472
862.1603, 358.6259
862.6424, 353.6480
863.1245, 353.9530
863.6066, 355.7646
864.0887, 356.6063
864.5709, 356.6096
865.0530, 356.1207
865.5351, 354.1915
866.0172, 353.8844
866.4993, 357.4044
866.9814, 359.9240
867.4636, 358.7305
867.9457, 356.4617
868.4278, 356.2951
868.9099, 358.3001
869.3920, 359.7008
869.8741, 356.3758
870.3563, 356.9739
870.8384, 371.7507
871.3205, 385.7071
871.8026, 382.9000
872.2847, 368.6412
872.7668, 358.1765
873.2490, 357.0281
873.7311, 357.4998
874.2132, 351.6749
874.6953, 347.0686
875.1774, 355.4877
875.6595, 370.2177
876.1417, 376.5544
876.6238, 372.0756
877.1059, 365.3804
877.5880, 362.7429
878.0701, 361.5755
878.5522, 355.3486
879.0344, 347.1482
879.5165, 350.3739
879.9986, 364.6888
880.4807, 372.6315
880.9628, 365.3537
881.4449, 354.4987
881.9271, 357.9210
882.4092, 373.3820
882.8913, 377.5190
883.3734, 368.6915
883.8555, 363.5674
884.3376, 366.7155
884.8198, 371.9084
885.3019, 374.7670
885.7840, 375.4376
886.2661, 374.2347
886.7482, 369.9536
887.2303, 367.1545
887.7125, 366.1844
888.1946, 366.1521
888.6767, 366.9995
889.1588, 368.4005
889.6409, 370.4665
890.1230, 373.1773
890.6052, 374.0106
891.0873, 369.5951
891.5694, 367.9154
892.0515, 372.8299
892.5336, 378.4290
893.0157, 380.6359
893.4979, 380.6498
893.9800, 381.6058
894.4621, 384.4640
894.9442, 385.5082
895.4263, 381.3792
895.9084, 377.2021
896.3906, 376.6756
896.8727, 377.5676
897.3548, 377.0055
897.8369, 374.8663
898.3190, 372.3518
898.8011, 369.0478
899.2833, 368.4769
899.7654, 379.0739
900.2475, 390.4247
900.7296, 384.7957
901.2117, 368.4155
901.6938, 360.0023
902.1760, 365.0226
902.6581, 374.3966
903.1402, 381.1859
903.6223, 385.9586
904.1044, 389.1350
904.5865, 391.1650
905.0687, 393.7654
905.5508, 397.0056
906.0329, 399.2734
906.5150, 399.6836
906.9971, 399.0389
907.4792, 398.8275
907.9614, 398.7800
908.4435, 394.7980
908.9256, 386.7608
909.4077, 388.6031
909.8898, 405.6362
910.3719, 421.0295
910.8541, 419.8625
911.3362, 407.7574
911.8183, 403.8810
912.3004, 411.2490
912.7825, 408.3291
913.2646, 387.5188
913.7468, 378.1076
914.2289, 398.1010
914.7110, 425.2648
915.1931, 431.5253
915.6752, 417.5862
916.1573, 406.9795
916.6395, 398.0515
917.1216, 395.7923
917.6037, 406.9256
918.0858, 417.3918
918.5679, 417.9879
919.0500, 413.3737
919.5322, 412.0172
920.0143, 414.9696
920.4964, 415.7002
920.9785, 412.0770
921.4606, 408.4671
921.9427, 403.8977
922.4249, 401.6196
922.9070, 404.3201
923.3891, 411.4558
923.8712, 421.5497
924.3533, 435.8153
924.8354, 448.2665
925.3176, 461.4227
925.7997, 467.5064
926.2818, 452.4308
926.7639, 433.5312
927.2460, 437.2522
927.7281, 461.5266
928.2103, 476.1621
928.6924, 463.9927
929.1745, 448.4977
929.6566, 441.8042
930.1387, 440.5794
930.6208, 444.9732
931.1030, 451.1392
931.5851, 449.6983
932.0672, 439.5626
932.5493, 435.6919
933.0314, 454.9877
933.5135, 477.7292
933.9957, 481.6345
934.4778, 475.5247
934.9599, 472.5834
935.4420, 473.7392
935.9241, 474.4115
936.4063, 472.6758
936.8884, 473.4931
937.3705, 486.5907
937.8526, 503.0943
938.3347, 503.3458
938.8168, 493.3250
939.2990, 491.7068
939.7811, 500.9044
940.2632, 510.8976
940.7453, 515.6731
941.2274, 517.4671
941.7095, 518.3571
942.1917, 519.2939
942.6738, 525.4415
943.1559, 535.8790
943.6380, 542.0261
944.1201, 541.5272
944.6022, 538.9567
945.0844, 538.0651
945.5665, 537.8208
946.0486, 534.1976
946.5307, 527.7951
947.0128, 529.4979
947.4949, 540.1733
947.9771, 551.9719
948.4592, 562.5534
948.9413, 567.8071
949.4234, 561.2334
949.9055, 547.2797
950.3876, 548.8857
950.8698, 568.1554
951.3519, 584.1003
951.8340, 595.1393
952.3161, 599.0981
952.7982, 592.7945
953.2803, 584.1526
953.7625, 584.9188
954.2446, 594.7386
954.7267, 603.7811
955.2088, 612.9885
955.6909, 617.6303
956.1730, 615.5243
956.6552, 611.9748
957.1373, 609.2110
957.6194, 608.1665
958.1015, 611.4794
958.5836, 620.4023
959.0657, 622.9150
959.5479, 612.7700
960.0300, 610.2277
960.5121, 624.1626
960.9942, 639.8885
961.4763, 646.3569
961.9584, 647.0559
962.4406, 651.9830
962.9227, 664.5875
963.4048, 669.4704
963.8869, 659.2668
964.3690, 652.4980
964.8511, 658.5912
965.3333, 665.2756
965.8154, 658.8818
966.2975, 644.2266
966.7796, 640.9974
967.2617, 657.8091
967.7438, 667.2170
968.2260, 658.3832
968.7081, 654.9989
969.1902, 671.8645
969.6723, 692.2704
970.1544, 701.0704
970.6365, 698.7842
971.1187, 690.9443
971.6008, 670.5296
972.0829, 658.0596
972.5650, 662.4706
973.0471, 667.5700
973.5292, 665.5936
974.0114, 660.7564
974.4935, 657.0515
974.9756, 655.0760
975.4577, 656.7881
975.9398, 668.2375
976.4219, 674.6496
976.9041, 668.2723
977.3862, 661.5078
977.8683, 662.5610
978.3504, 666.9235
978.8325, 667.3271
979.3146, 663.4485
979.7968, 662.2240
980.2789, 667.8164
980.7610, 672.8431
981.2431, 676.4758
981.7252, 677.6046
982.2073, 673.7030
982.6895, 667.6201
983.1716, 661.8551
983.6537, 657.1009
984.1358, 660.8395
984.6179, 686.6791
985.1000, 706.4003
985.5822, 706.8873
986.0643, 699.4896
986.5464, 689.8973
987.0285, 680.2059
987.5106, 672.1959
987.9927, 666.2269
988.4749, 663.4974
988.9570, 668.1066
989.4391, 671.3865
989.9212, 665.5736
990.4033, 660.1652
990.8854, 665.9783
991.3676, 677.9147
991.8497, 685.4832
992.3318, 686.3656
992.8139, 680.3956
993.2960, 652.6530
993.7781, 636.3412
994.2603, 660.3710
994.7424, 693.8689
995.2245, 707.9198
995.7066, 707.1270
996.1887, 707.1458
996.6708, 711.8116
997.1530, 718.5150
997.6351, 728.9642
998.1172, 737.6880
998.5993, 742.4200
999.0814, 743.2226
999.5635, 737.1221
1000.046, 727.8665
1000.528, 724.1603
1001.010, 728.6563
1001.492, 734.5054
1001.974, 737.5780
1002.456, 742.3420
1002.938, 756.3460
1003.420, 769.4203
1003.903, 767.1050
1004.385, 755.5172
1004.867, 753.3802
1005.349, 766.7063
1005.831, 778.9979
1006.313, 782.0165
1006.795, 782.8394
1007.277, 784.8298
1007.759, 787.2924
1008.242, 790.4863
1008.724, 793.2075
1009.206, 791.9060
1009.688, 784.9220
1010.170, 780.3408
1010.652, 780.5019
1011.134, 785.5280
1011.616, 799.8044
1012.099, 815.4794
1012.581, 827.0468
1013.063, 832.9029
1013.545, 829.4443
1014.027, 813.9942
1014.509, 803.7813
1014.991, 810.7789
1015.473, 818.6062
1015.955, 818.6957
1016.438, 815.4710
1016.920, 813.5938
1017.402, 812.2377
1017.884, 806.5764
1018.366, 794.0012
1018.848, 789.1653
1019.330, 810.0916
1019.812, 823.8667
1020.294, 805.9399
1020.777, 781.4992
1021.259, 773.2529
1021.741, 777.8868
1022.223, 783.6738
1022.705, 788.5408
1023.187, 792.7304
1023.669, 794.2211
1024.151, 797.7256
1024.634, 805.6230
1025.116, 815.8591
1025.598, 831.2874
1026.080, 846.4232
1026.562, 847.9009
1027.044, 831.1353
1027.526, 820.9922
1028.008, 822.7691
1028.490, 832.2583
1028.973, 856.7562
1029.455, 880.2584
1029.937, 893.1494
1030.419, 895.5710
1030.901, 883.7561
1031.383, 853.2647
1031.865, 845.7903
1032.347, 893.0215
1032.830, 928.0038
1033.312, 924.2661
1033.794, 914.3742
1034.276, 919.9875
1034.758, 933.6301
1035.240, 941.5439
1035.722, 942.8521
1036.204, 939.9915
1036.687, 927.6152
1037.169, 919.0859
1037.651, 915.5361
1038.133, 917.0081
1038.615, 927.7355
1039.097, 941.3410
1039.579, 947.8788
1040.061, 947.0182
1040.543, 946.0980
1041.026, 943.5384
1041.508, 943.6891
1041.990, 947.1813
1042.472, 953.2197
1042.954, 963.6564
1043.436, 974.2406
1043.918, 977.4322
1044.400, 973.9316
1044.882, 982.0620
1045.365, 1015.124
1045.847, 1024.237
1046.329, 991.6257
1046.811, 966.3127
1047.293, 973.3356
1047.775, 990.1805
1048.257, 989.9976
1048.739, 976.1706
1049.222, 972.2255
1049.704, 981.1496
1050.186, 986.9501
1050.668, 987.9401
1051.150, 989.3284
1051.632, 993.6117
1052.114, 996.9879
1052.596, 995.2866
1053.078, 990.1393
1053.561, 986.3069
1054.043, 983.3571
1054.525, 990.2599
1055.007, 1009.055
1055.489, 1018.809
1055.971, 1012.007
1056.453, 1004.773
1056.935, 1011.384
1057.417, 1023.494
1057.900, 1021.341
1058.382, 1006.159
1058.864, 991.1050
1059.346, 976.8112
1059.828, 971.3611
1060.310, 976.4330
1060.792, 982.0990
1061.274, 981.6027
1061.757, 979.4890
1062.239, 983.7983
1062.721, 992.3969
1063.203, 1000.157
1063.685, 1005.568
1064.167, 999.0148
1064.649, 981.3026
1065.131, 969.6120
1065.614, 972.8182
1066.096, 979.9394
1066.578, 978.9200
1067.060, 972.9785
1067.542, 964.9133
1068.024, 957.6700
1068.506, 960.5612
1068.988, 970.9178
1069.470, 974.4951
1069.953, 966.4707
1070.435, 959.5939
1070.917, 968.1791
1071.399, 977.8271
1071.881, 969.5667
1072.363, 955.3214
1072.845, 951.6359
1073.327, 955.4133
1073.809, 956.5400
1074.292, 952.6640
1074.774, 947.7350
1075.256, 941.6379
1075.738, 939.2083
1076.220, 946.5198
1076.702, 955.8215
1077.184, 962.2435
1077.666, 965.1710
1078.148, 961.8385
1078.631, 954.1608
1079.113, 953.2790
1079.595, 967.9728
1080.077, 976.2029
1080.559, 963.3704
1081.041, 951.0422
1081.523, 952.3005
1082.005, 957.8715
1082.488, 956.7235
1082.970, 951.3546
1083.452, 952.4728
1083.934, 963.0771
1084.416, 973.8057
1084.898, 992.6732
1085.380, 999.2853
1085.862, 978.5754
1086.344, 955.4205
1086.827, 942.8369
1087.309, 940.4155
1087.791, 949.5994
1088.273, 972.1176
1088.755, 986.0134
1089.237, 989.1219
1089.719, 988.9097
1090.201, 984.8306
1090.683, 981.4578
1091.166, 981.4990
1091.648, 982.3615
1092.130, 980.2393
1092.612, 976.0690
1093.094, 976.5292
1093.576, 982.2445
1094.058, 981.8221
1094.540, 973.4634
1095.023, 975.9366
1095.505, 996.9235
1095.987, 1015.617
1096.469, 1012.005
1096.951, 997.5990
1097.433, 996.7810
1097.915, 1007.504
1098.397, 1025.573
1098.880, 1047.103
1099.362, 1051.061
1099.844, 1034.809
1100.326, 1014.375
1100.808, 998.6555
1101.290, 991.5035
1101.772, 1004.091
1102.254, 1023.385
1102.736, 1027.056
1103.219, 1021.987
1103.701, 1020.663
1104.183, 1024.115
1104.665, 1029.670
1105.147, 1036.200
1105.629, 1040.873
1106.111, 1040.261
1106.593, 1038.997
1107.075, 1039.980
1107.558, 1042.416
1108.040, 1046.722
1108.522, 1051.316
1109.004, 1052.267
1109.486, 1050.104
1109.968, 1052.831
1110.450, 1063.700
1110.932, 1078.023
1111.415, 1102.916
1111.897, 1120.885
1112.379, 1118.994
1112.861, 1109.640
1113.343, 1102.523
1113.825, 1098.727
1114.307, 1100.850
1114.789, 1110.212
1115.271, 1120.947
1115.754, 1137.499
1116.236, 1146.460
1116.718, 1141.823
1117.200, 1135.383
1117.682, 1133.823
1118.164, 1135.203
1118.646, 1136.623
1119.128, 1138.055
1119.610, 1138.695
1120.093, 1138.146
1120.575, 1141.259
1121.057, 1148.677
1121.539, 1158.574
1122.021, 1170.530
1122.503, 1179.940
1122.985, 1181.945
1123.467, 1179.838
1123.950, 1181.014
1124.432, 1184.072
1124.914, 1183.127
1125.396, 1179.359
1125.878, 1178.971
1126.360, 1182.449
1126.842, 1182.876
1127.324, 1176.055
1127.807, 1173.344
1128.289, 1191.902
1128.771, 1215.072
1129.253, 1221.607
1129.735, 1221.726
1130.217, 1230.860
1130.699, 1246.145
1131.181, 1255.922
1131.663, 1257.674
1132.146, 1261.200
1132.628, 1276.213
1133.110, 1285.740
1133.592, 1277.098
1134.074, 1267.405
1134.556, 1270.566
1135.038, 1276.605
1135.520, 1268.053
1136.002, 1249.538
1136.485, 1250.100
1136.967, 1283.936
1137.449, 1304.361
1137.931, 1304.264
1138.413, 1303.786
1138.895, 1309.480
1139.377, 1310.980
1139.859, 1298.389
1140.342, 1282.843
1140.824, 1284.415
1141.306, 1301.377
1141.788, 1313.428
1142.270, 1320.783
1142.752, 1314.639
1143.234, 1293.750
1143.716, 1286.509
1144.198, 1303.557
1144.681, 1323.327
1145.163, 1326.585
1145.645, 1321.872
1146.127, 1322.030
1146.609, 1326.833
1147.091, 1337.435
1147.573, 1351.756
1148.055, 1366.544
1148.537, 1379.654
1149.020, 1385.766
1149.502, 1382.487
1149.984, 1375.837
1150.466, 1368.990
1150.948, 1361.918
1151.430, 1350.178
1151.912, 1342.332
1152.394, 1349.173
1152.877, 1364.794
1153.359, 1382.236
1153.841, 1398.834
1154.323, 1401.973
1154.805, 1375.052
1155.287, 1361.180
1155.769, 1375.973
1156.251, 1391.278
1156.734, 1397.909
1157.216, 1402.000
1157.698, 1406.375
1158.180, 1413.160
1158.662, 1429.855
1159.144, 1457.600
1159.626, 1457.934
1160.108, 1424.667
1160.590, 1413.862
1161.073, 1434.616
1161.555, 1458.727
1162.037, 1474.585
1162.519, 1485.960
1163.001, 1496.193
1163.483, 1505.738
1163.965, 1515.915
1164.447, 1525.908
1164.929, 1532.149
1165.412, 1536.643
1165.894, 1546.184
1166.376, 1560.696
1166.858, 1573.686
1167.340, 1582.247
1167.822, 1591.040
1168.304, 1603.564
1168.786, 1617.481
1169.269, 1631.701
1169.751, 1645.878
1170.233, 1662.449
1170.715, 1677.194
1171.197, 1679.705
1171.679, 1671.492
1172.161, 1674.990
1172.643, 1700.715
1173.125, 1724.033
1173.608, 1745.155
1174.090, 1760.477
1174.572, 1764.671
1175.054, 1770.234
1175.536, 1785.987
1176.018, 1808.614
1176.500, 1833.125
1176.982, 1859.012
1177.464, 1878.146
1177.947, 1890.556
1178.429, 1904.860
1178.911, 1922.061
1179.393, 1946.670
1179.875, 1979.560
1180.357, 2004.776
1180.839, 2008.480
1181.321, 2006.916
1181.804, 2024.059
1182.286, 2048.510
1182.768, 2063.308
1183.250, 2072.662
1183.732, 2082.897
1184.214, 2095.737
1184.696, 2111.434
1185.178, 2130.153
1185.661, 2156.438
1186.143, 2202.546
1186.625, 2241.405
1187.107, 2260.517
1187.589, 2273.868
1188.071, 2288.370
1188.553, 2301.765
1189.035, 2310.623
1189.517, 2316.339
1190.000, 2321.870
1190.482, 2325.175
1190.964, 2345.521
1191.446, 2389.498
1191.928, 2418.283
1192.410, 2424.360
1192.892, 2425.438
1193.374, 2428.598
1193.856, 2440.934
1194.339, 2472.364
1194.821, 2510.882
1195.303, 2529.246
1195.785, 2536.687
1196.267, 2561.093
1196.749, 2593.161
1197.231, 2602.156
1197.713, 2590.293
1198.196, 2587.809
1198.678, 2606.487
1199.160, 2628.111
1199.642, 2648.260
1200.124, 2659.719
1200.606, 2647.771
1201.088, 2637.442
1201.570, 2655.654
1202.052, 2680.058
1202.535, 2674.120
1203.017, 2645.356
1203.499, 2643.129
1203.981, 2680.047
1204.463, 2689.895
1204.945, 2662.241
1205.427, 2639.608
1205.909, 2627.509
1206.391, 2633.258
1206.874, 2663.544
1207.356, 2693.091
1207.838, 2690.692
1208.320, 2672.918
1208.802, 2681.480
1209.284, 2705.578
1209.766, 2716.910
1210.248, 2715.297
1210.731, 2698.019
1211.213, 2671.817
1211.695, 2664.523
1212.177, 2687.633
1212.659, 2704.103
1213.141, 2682.165
1213.623, 2660.078
1214.105, 2659.041
1214.587, 2663.738
1215.070, 2663.366
1215.552, 2662.494
1216.034, 2674.085
1216.516, 2690.758
1216.998, 2679.257
1217.480, 2629.906
1217.962, 2607.381
1218.444, 2620.360
1218.927, 2622.662
1219.409, 2604.400
1219.891, 2597.083
1220.373, 2616.115
1220.855, 2634.482
1221.337, 2623.303
1221.819, 2601.065
1222.301, 2605.698
1222.783, 2623.514
1223.266, 2625.421
1223.748, 2616.702
1224.230, 2610.019
1224.712, 2606.733
1225.194, 2604.963
1225.676, 2603.892
1226.158, 2597.142
1226.640, 2575.903
1227.122, 2557.251
1227.605, 2543.307
1228.087, 2537.847
1228.569, 2546.992
1229.051, 2561.697
1229.533, 2576.334
1230.015, 2589.526
1230.497, 2598.933
1230.979, 2604.563
1231.462, 2599.333
1231.944, 2582.551
1232.426, 2566.849
1232.908, 2553.680
1233.390, 2548.205
1233.872, 2551.504
1234.354, 2552.865
1234.836, 2544.290
1235.318, 2533.738
1235.801, 2532.315
1236.283, 2532.378
1236.765, 2521.001
1237.247, 2508.700
1237.729, 2511.238
1238.211, 2522.567
1238.693, 2526.316
1239.175, 2522.041
1239.657, 2530.120
1240.140, 2569.592
1240.622, 2586.712
1241.104, 2562.980
1241.586, 2547.090
1242.068, 2551.330
1242.550, 2560.739
1243.032, 2568.105
1243.514, 2572.840
1243.997, 2574.609
1244.479, 2572.307
1244.961, 2557.365
1245.443, 2536.401
1245.925, 2540.393
1246.407, 2560.392
1246.889, 2556.421
1247.371, 2532.052
1247.854, 2537.142
1248.336, 2589.756
1248.818, 2625.371
1249.300, 2587.139
1249.782, 2549.446
1250.264, 2547.545
1250.746, 2554.916
1251.228, 2557.289
1251.710, 2559.634
1252.193, 2567.300
1252.675, 2579.302
1253.157, 2595.104
1253.639, 2614.658
1254.121, 2618.067
1254.603, 2603.619
1255.085, 2603.716
1255.567, 2620.560
1256.049, 2624.891
1256.532, 2609.169
1257.014, 2593.208
1257.496, 2589.131
1257.978, 2594.801
1258.460, 2615.891
1258.942, 2636.903
1259.424, 2635.901
1259.906, 2631.295
1260.389, 2644.097
1260.871, 2666.904
1261.353, 2689.406
1261.835, 2708.641
1262.317, 2716.243
1262.799, 2705.007
##END=



