##NAMES=Leucophanite
##RRUFFID=R060207
##IDEAL CHEMISTRY=NaCaBeSi_2_O_6_F
##LOCALITY=Mont Saint-Hilaire, Rouville County, Quebec, Canada
##OWNER=RRUFF
##SOURCE=Royal Ontario Museum
##DESCRIPTION=Pale yellow tabular crystal
##STATUS=The identification of this mineral is confirmed by single-crystal X-ray diffraction and chemical analysis.
##URL=rruff.info/R060207
##MEASURED CHEMISTRY=Na_1.00_Ca_1.00_Be_1.00_Si_2.00_O_6_(F_0.80_(OH)_0.20_)_Î£=1_; (OH)  estimated by charge balance; Be estimated by difference
92.07813, 1037.100
92.56024, 1029.782
93.04236, 1034.436
93.52448, 1048.327
94.00659, 1061.338
94.48871, 1069.191
94.97083, 1071.910
95.45294, 1068.120
95.93506, 1055.348
96.41718, 1040.630
96.89929, 1037.555
97.38141, 1046.287
97.86353, 1056.817
98.34564, 1061.098
98.82776, 1059.444
99.30988, 1061.133
99.79199, 1069.046
100.2741, 1080.868
100.7562, 1086.966
101.2383, 1085.415
101.7205, 1083.528
102.2026, 1090.159
102.6847, 1109.354
103.1668, 1120.814
103.6489, 1117.517
104.1310, 1099.001
104.6132, 1088.585
105.0953, 1089.589
105.5774, 1095.666
106.0595, 1098.817
106.5416, 1096.103
107.0237, 1094.973
107.5059, 1096.942
107.9880, 1101.532
108.4701, 1111.106
108.9522, 1134.693
109.4343, 1161.583
109.9164, 1172.696
110.3986, 1146.522
110.8807, 1122.440
111.3628, 1112.396
111.8449, 1125.310
112.3270, 1138.304
112.8091, 1146.086
113.2913, 1152.436
113.7734, 1167.909
114.2555, 1206.615
114.7376, 1247.009
115.2197, 1276.808
115.7018, 1272.656
116.1840, 1282.096
116.6661, 1325.339
117.1482, 1396.334
117.6303, 1463.337
118.1124, 1508.831
118.5945, 1548.663
119.0767, 1596.046
119.5588, 1651.259
120.0409, 1718.551
120.5230, 1798.607
121.0051, 1891.198
121.4872, 2000.729
121.9694, 2132.214
122.4515, 2281.024
122.9336, 2441.447
123.4157, 2609.712
123.8978, 2787.591
124.3799, 2976.100
124.8621, 3175.309
125.3442, 3384.784
125.8263, 3608.362
126.3084, 3842.462
126.7905, 4079.344
127.2726, 4316.745
127.7548, 4552.171
128.2369, 4780.529
128.7190, 5001.765
129.2011, 5214.622
129.6832, 5420.911
130.1653, 5617.848
130.6474, 5800.295
131.1296, 5954.603
131.6117, 6088.679
132.0938, 6233.643
132.5759, 6390.208
133.0580, 6564.490
133.5401, 6764.466
134.0223, 6990.927
134.5044, 7241.288
134.9865, 7513.971
135.4686, 7811.670
135.9507, 8131.505
136.4328, 8480.908
136.9150, 8854.222
137.3971, 9227.402
137.8792, 9603.522
138.3613, 9975.578
138.8434, 10344.82
139.3255, 10713.74
139.8077, 11050.81
140.2898, 11347.34
140.7719, 11605.14
141.2540, 11871.59
141.7361, 12158.63
142.2182, 12429.88
142.7004, 12643.07
143.1825, 12770.67
143.6646, 12904.21
144.1467, 13063.74
144.6288, 13254.04
145.1109, 13427.52
145.5931, 13582.71
146.0752, 13723.55
146.5573, 13855.50
147.0394, 13964.05
147.5215, 14083.53
148.0036, 14218.99
148.4858, 14372.91
148.9679, 14540.48
149.4500, 14712.98
149.9321, 14902.45
150.4142, 15122.76
150.8963, 15392.67
151.3785, 15680.22
151.8606, 15975.79
152.3427, 16291.33
152.8248, 16598.75
153.3069, 16892.34
153.7890, 17179.18
154.2712, 17419.47
154.7533, 17552.62
155.2354, 17670.54
155.7175, 17777.01
156.1996, 17875.49
156.6817, 17952.18
157.1639, 17995.90
157.6460, 18017.25
158.1281, 18037.66
158.6102, 18070.17
159.0923, 18096.85
159.5744, 18108.25
160.0566, 18095.13
160.5387, 18079.63
161.0208, 18066.71
161.5029, 18056.18
161.9850, 18047.08
162.4671, 18046.06
162.9493, 18042.79
163.4314, 18029.51
163.9135, 17992.99
164.3956, 17961.15
164.8777, 17946.43
165.3598, 17946.23
165.8420, 17950.45
166.3241, 17950.65
166.8062, 17954.08
167.2883, 17967.23
167.7704, 17994.77
168.2525, 18028.58
168.7346, 18061.53
169.2168, 18094.71
169.6989, 18136.98
170.1810, 18194.90
170.6631, 18264.15
171.1452, 18340.08
171.6273, 18420.04
172.1095, 18505.77
172.5916, 18609.06
173.0737, 18727.48
173.5558, 18830.92
174.0379, 18905.55
174.5201, 18949.85
175.0022, 18962.43
175.4843, 18932.59
175.9664, 18876.18
176.4485, 18802.61
176.9306, 18711.65
177.4128, 18629.80
177.8949, 18583.05
178.3770, 18562.52
178.8591, 18547.68
179.3412, 18527.55
179.8233, 18508.92
180.3055, 18505.52
180.7876, 18518.03
181.2697, 18532.74
181.7518, 18533.13
182.2339, 18523.96
182.7160, 18520.47
183.1982, 18536.09
183.6803, 18561.30
184.1624, 18571.34
184.6445, 18564.01
185.1266, 18556.97
185.6087, 18576.18
186.0909, 18616.53
186.5730, 18649.49
187.0551, 18657.82
187.5372, 18648.61
188.0193, 18642.21
188.5014, 18636.67
188.9836, 18642.56
189.4657, 18681.17
189.9478, 18749.06
190.4299, 18813.96
190.9120, 18861.86
191.3941, 18893.70
191.8763, 18913.99
192.3584, 18920.40
192.8405, 18921.61
193.3226, 18928.42
193.8047, 18940.84
194.2868, 18959.11
194.7690, 18989.80
195.2511, 19031.02
195.7332, 19053.83
196.2153, 19053.14
196.6974, 19044.89
197.1795, 19055.14
197.6617, 19084.87
198.1438, 19122.50
198.6259, 19165.20
199.1080, 19212.89
199.5901, 19258.54
200.0722, 19301.62
200.5544, 19342.93
201.0365, 19386.02
201.5186, 19432.91
202.0007, 19469.33
202.4828, 19482.22
202.9649, 19468.65
203.4471, 19472.32
203.9292, 19500.02
204.4113, 19537.43
204.8934, 19554.85
205.3755, 19547.37
205.8576, 19538.04
206.3398, 19539.57
206.8219, 19554.88
207.3040, 19558.32
207.7861, 19542.75
208.2682, 19521.88
208.7503, 19528.28
209.2325, 19570.72
209.7146, 19612.95
210.1967, 19636.32
210.6788, 19635.60
211.1609, 19642.87
211.6430, 19660.88
212.1252, 19685.64
212.6073, 19706.57
213.0894, 19720.11
213.5715, 19739.07
214.0536, 19772.35
214.5357, 19827.36
215.0179, 19868.48
215.5000, 19890.52
215.9821, 19902.03
216.4642, 19922.39
216.9463, 19953.92
217.4284, 19988.58
217.9105, 20023.13
218.3927, 20056.32
218.8748, 20092.67
219.3569, 20134.91
219.8390, 20178.57
220.3211, 20213.43
220.8032, 20233.48
221.2854, 20256.11
221.7675, 20290.04
222.2496, 20339.55
222.7317, 20386.05
223.2138, 20430.18
223.6959, 20470.74
224.1781, 20504.79
224.6602, 20525.62
225.1423, 20551.18
225.6244, 20588.96
226.1065, 20644.06
226.5886, 20698.42
227.0708, 20757.22
227.5529, 20813.09
228.0350, 20849.61
228.5171, 20857.15
228.9992, 20862.11
229.4813, 20873.97
229.9635, 20893.54
230.4456, 20918.80
230.9277, 20957.36
231.4098, 20997.69
231.8919, 21014.96
232.3740, 20989.41
232.8562, 20972.97
233.3383, 20987.84
233.8204, 21048.62
234.3025, 21092.16
234.7846, 21107.45
235.2667, 21111.77
235.7489, 21136.51
236.2310, 21190.11
236.7131, 21250.61
237.1952, 21314.87
237.6773, 21387.89
238.1594, 21441.70
238.6416, 21463.15
239.1237, 21473.65
239.6058, 21510.00
240.0879, 21593.19
240.5700, 21668.85
241.0521, 21716.65
241.5343, 21726.36
242.0164, 21752.71
242.4985, 21808.52
242.9806, 21871.76
243.4627, 21908.33
243.9448, 21900.89
244.4270, 21895.33
244.9091, 21904.65
245.3912, 21931.57
245.8733, 21957.39
246.3554, 21983.43
246.8375, 22006.85
247.3197, 22022.35
247.8018, 22020.70
248.2839, 22028.05
248.7660, 22057.37
249.2481, 22115.08
249.7302, 22143.29
250.2124, 22125.07
250.6945, 22093.91
251.1766, 22088.77
251.6587, 22121.07
252.1408, 22157.89
252.6229, 22191.22
253.1051, 22220.75
253.5872, 22260.46
254.0693, 22315.27
254.5514, 22375.72
255.0335, 22433.50
255.5156, 22490.56
255.9978, 22538.98
256.4799, 22575.95
256.9620, 22601.46
257.4441, 22621.28
257.9262, 22626.93
258.4083, 22637.18
258.8904, 22673.69
259.3726, 22756.03
259.8547, 22814.88
260.3368, 22828.66
260.8189, 22803.17
261.3010, 22805.61
261.7831, 22848.01
262.2653, 22899.25
262.7474, 22933.83
263.2295, 22946.01
263.7116, 22958.67
264.1937, 22971.67
264.6758, 22987.39
265.1580, 23023.29
265.6401, 23090.38
266.1222, 23157.12
266.6043, 23198.87
267.0864, 23206.87
267.5685, 23223.75
268.0507, 23257.15
268.5328, 23301.95
269.0149, 23338.73
269.4970, 23366.33
269.9791, 23390.05
270.4612, 23411.92
270.9434, 23430.09
271.4255, 23455.20
271.9076, 23489.62
272.3897, 23530.25
272.8718, 23567.39
273.3539, 23596.93
273.8361, 23635.07
274.3182, 23697.97
274.8003, 23791.77
275.2824, 23855.08
275.7645, 23875.85
276.2466, 23875.64
276.7288, 23897.79
277.2109, 23945.78
277.6930, 23997.59
278.1751, 24044.77
278.6572, 24087.86
279.1393, 24121.15
279.6215, 24142.87
280.1036, 24159.14
280.5857, 24177.67
281.0678, 24198.32
281.5499, 24225.31
282.0320, 24265.23
282.5142, 24316.49
282.9963, 24350.23
283.4784, 24363.46
283.9605, 24368.77
284.4426, 24379.86
284.9247, 24396.72
285.4069, 24418.65
285.8890, 24445.46
286.3711, 24476.89
286.8532, 24513.20
287.3353, 24554.19
287.8174, 24600.64
288.2996, 24656.23
288.7817, 24720.05
289.2638, 24779.48
289.7459, 24832.01
290.2280, 24877.49
290.7101, 24914.09
291.1923, 24941.45
291.6744, 24969.06
292.1565, 25004.24
292.6386, 25046.58
293.1207, 25095.00
293.6028, 25151.87
294.0850, 25211.18
294.5671, 25261.84
295.0492, 25304.22
295.5313, 25348.58
296.0134, 25404.84
296.4955, 25468.52
296.9777, 25524.98
297.4598, 25568.32
297.9419, 25610.18
298.4240, 25672.21
298.9061, 25749.84
299.3882, 25820.15
299.8704, 25863.81
300.3525, 25891.82
300.8346, 25925.65
301.3167, 25967.90
301.7988, 26015.59
302.2809, 26065.10
302.7631, 26117.68
303.2452, 26178.07
303.7273, 26248.38
304.2094, 26327.98
304.6915, 26417.77
305.1736, 26519.54
305.6558, 26620.43
306.1379, 26715.93
306.6200, 26802.15
307.1021, 26871.61
307.5842, 26895.88
308.0663, 26917.37
308.5485, 26983.02
309.0306, 27091.29
309.5127, 27202.49
309.9948, 27287.80
310.4769, 27359.85
310.9590, 27434.50
311.4412, 27518.54
311.9233, 27605.85
312.4054, 27694.80
312.8875, 27785.03
313.3696, 27870.93
313.8517, 27945.54
314.3339, 28015.72
314.8160, 28089.85
315.2981, 28180.16
315.7802, 28258.62
316.2623, 28316.48
316.7444, 28353.08
317.2266, 28366.29
317.7087, 28332.58
318.1908, 28290.86
318.6729, 28268.00
319.1550, 28278.63
319.6371, 28279.66
320.1193, 28235.01
320.6014, 28174.29
321.0835, 28145.51
321.5656, 28189.97
322.0477, 28245.41
322.5298, 28285.30
323.0120, 28303.33
323.4941, 28325.95
323.9762, 28350.70
324.4583, 28385.19
324.9404, 28437.75
325.4225, 28534.55
325.9047, 28625.37
326.3868, 28690.98
326.8689, 28731.05
327.3510, 28784.83
327.8331, 28863.91
328.3152, 28953.21
328.7974, 29042.36
329.2795, 29130.90
329.7616, 29220.71
330.2437, 29313.53
330.7258, 29407.74
331.2079, 29496.84
331.6901, 29578.29
332.1722, 29656.70
332.6543, 29732.70
333.1364, 29791.15
333.6185, 29873.42
334.1006, 29987.14
334.5828, 30121.84
335.0649, 30249.29
335.5470, 30362.61
336.0291, 30482.17
336.5112, 30617.67
336.9933, 30775.84
337.4755, 30918.30
337.9576, 31038.76
338.4397, 31149.40
338.9218, 31269.93
339.4039, 31403.91
339.8860, 31531.73
340.3681, 31645.61
340.8503, 31747.54
341.3324, 31851.08
341.8145, 31961.16
342.2966, 32062.83
342.7787, 32145.92
343.2608, 32209.70
343.7430, 32256.48
344.2251, 32281.29
344.7072, 32292.71
345.1893, 32315.53
345.6714, 32350.67
346.1535, 32387.36
346.6357, 32414.53
347.1178, 32435.01
347.5999, 32467.75
348.0820, 32517.68
348.5641, 32574.15
349.0462, 32618.48
349.5284, 32652.64
350.0105, 32693.61
350.4926, 32762.93
350.9747, 32843.54
351.4568, 32892.92
351.9389, 32906.67
352.4211, 32913.39
352.9032, 32941.06
353.3853, 32984.27
353.8674, 33029.81
354.3495, 33071.84
354.8316, 33114.35
355.3138, 33161.60
355.7959, 33213.71
356.2780, 33269.98
356.7601, 33336.76
357.2422, 33406.04
357.7243, 33466.13
358.2065, 33502.30
358.6886, 33545.48
359.1707, 33622.17
359.6528, 33724.10
360.1349, 33826.36
360.6170, 33910.01
361.0992, 33993.51
361.5813, 34094.93
362.0634, 34225.18
362.5455, 34340.91
363.0276, 34418.56
363.5097, 34471.43
363.9919, 34519.46
364.4740, 34590.33
364.9561, 34637.20
365.4382, 34639.03
365.9203, 34592.39
366.4024, 34528.09
366.8846, 34429.62
367.3667, 34327.59
367.8488, 34246.86
368.3309, 34201.29
368.8130, 34165.22
369.2951, 34134.88
369.7773, 34111.24
370.2594, 34099.18
370.7415, 34096.81
371.2236, 34108.44
371.7057, 34138.12
372.1878, 34202.82
372.6700, 34252.23
373.1521, 34269.66
373.6342, 34278.71
374.1163, 34330.38
374.5984, 34452.90
375.0805, 34561.32
375.5627, 34625.04
376.0448, 34639.77
376.5269, 34661.86
377.0090, 34695.11
377.4911, 34728.48
377.9732, 34751.45
378.4554, 34763.65
378.9375, 34764.74
379.4196, 34751.81
379.9017, 34728.82
380.3838, 34706.19
380.8659, 34682.94
381.3481, 34670.56
381.8302, 34689.85
382.3123, 34734.16
382.7944, 34750.73
383.2765, 34730.45
383.7586, 34691.23
384.2408, 34657.02
384.7229, 34627.57
385.2050, 34598.26
385.6871, 34562.60
386.1692, 34527.24
386.6513, 34498.36
387.1335, 34475.71
387.6156, 34474.85
388.0977, 34522.97
388.5798, 34601.07
389.0619, 34675.68
389.5440, 34737.27
390.0262, 34787.13
390.5083, 34813.70
390.9904, 34824.52
391.4725, 34855.20
391.9546, 34940.70
392.4367, 35046.47
392.9189, 35146.04
393.4010, 35236.13
393.8831, 35312.89
394.3652, 35353.23
394.8473, 35381.39
395.3294, 35438.07
395.8116, 35555.66
396.2937, 35687.80
396.7758, 35820.38
397.2579, 35953.44
397.7400, 36076.71
398.2221, 36172.94
398.7043, 36265.52
399.1864, 36373.09
399.6685, 36512.62
400.1506, 36649.14
400.6327, 36776.53
401.1148, 36897.16
401.5970, 37024.30
402.0791, 37165.63
402.5612, 37302.69
403.0433, 37424.78
403.5254, 37521.01
404.0075, 37635.30
404.4897, 37776.26
404.9718, 37929.18
405.4539, 38070.12
405.9360, 38194.79
406.4181, 38326.16
406.9002, 38482.58
407.3824, 38656.33
407.8645, 38779.91
408.3466, 38846.35
408.8287, 38888.65
409.3108, 38933.05
409.7929, 38978.59
410.2751, 39017.86
410.7572, 39050.59
411.2393, 39073.89
411.7214, 39081.18
412.2035, 39072.80
412.6856, 39054.77
413.1678, 39022.06
413.6499, 38983.35
414.1320, 38960.91
414.6141, 38957.30
415.0962, 38954.70
415.5783, 38927.13
416.0605, 38890.29
416.5426, 38872.79
417.0247, 38891.55
417.5068, 38928.97
417.9889, 38975.52
418.4710, 39029.36
418.9532, 39082.72
419.4353, 39108.45
419.9174, 39144.45
420.3995, 39225.27
420.8816, 39374.02
421.3637, 39522.93
421.8459, 39648.49
422.3280, 39755.55
422.8101, 39853.63
423.2922, 39922.20
423.7743, 40001.54
424.2564, 40106.81
424.7386, 40239.57
425.2207, 40373.42
425.7028, 40523.92
426.1849, 40662.80
426.6670, 40770.79
427.1491, 40823.82
427.6313, 40884.96
428.1134, 40949.89
428.5955, 41027.15
429.0776, 41144.68
429.5597, 41330.99
430.0418, 41505.20
430.5240, 41631.43
431.0061, 41704.32
431.4882, 41801.58
431.9703, 41931.46
432.4524, 42065.74
432.9345, 42172.15
433.4167, 42249.50
433.8988, 42318.29
434.3809, 42380.98
434.8630, 42437.53
435.3451, 42492.65
435.8272, 42545.65
436.3094, 42579.18
436.7915, 42572.76
437.2736, 42538.88
437.7557, 42510.71
438.2378, 42493.49
438.7199, 42467.89
439.2020, 42404.38
439.6841, 42318.60
440.1663, 42242.46
440.6484, 42185.60
441.1305, 42146.41
441.6126, 42127.21
442.0947, 42126.27
442.5768, 42134.43
443.0590, 42159.72
443.5411, 42184.12
444.0232, 42192.13
444.5053, 42173.51
444.9874, 42153.47
445.4695, 42123.59
445.9517, 42100.34
446.4338, 42110.20
446.9159, 42193.99
447.3980, 42276.00
447.8801, 42334.25
448.3622, 42367.38
448.8444, 42397.84
449.3265, 42420.56
449.8086, 42445.63
450.2907, 42479.73
450.7728, 42525.68
451.2549, 42576.30
451.7371, 42630.67
452.2192, 42690.23
452.7013, 42759.44
453.1834, 42840.76
453.6655, 42921.70
454.1476, 42998.37
454.6298, 43070.12
455.1119, 43132.50
455.5940, 43183.89
456.0761, 43230.43
456.5582, 43270.03
457.0403, 43306.40
457.5225, 43364.45
458.0046, 43457.05
458.4867, 43555.30
458.9688, 43608.48
459.4509, 43625.78
459.9330, 43644.05
460.4152, 43697.74
460.8973, 43756.96
461.3794, 43780.98
461.8615, 43767.51
462.3436, 43750.52
462.8257, 43737.25
463.3079, 43738.85
463.7900, 43768.57
464.2721, 43854.44
464.7542, 43940.34
465.2363, 43995.04
465.7184, 44031.72
466.2006, 44087.51
466.6827, 44193.43
467.1648, 44301.55
467.6469, 44388.77
468.1290, 44444.43
468.6111, 44517.14
469.0933, 44616.79
469.5754, 44728.61
470.0575, 44842.60
470.5396, 44965.07
471.0217, 45078.04
471.5038, 45186.03
471.9860, 45282.41
472.4681, 45340.25
472.9502, 45348.64
473.4323, 45355.04
473.9144, 45383.10
474.3965, 45431.91
474.8787, 45484.98
475.3608, 45547.88
475.8429, 45586.71
476.3250, 45542.03
476.8071, 45431.34
477.2892, 45343.62
477.7714, 45303.88
478.2535, 45295.57
478.7356, 45295.19
479.2177, 45305.53
479.6998, 45338.04
480.1819, 45420.39
480.6641, 45517.41
481.1462, 45593.37
481.6283, 45645.77
482.1104, 45685.03
482.5925, 45694.47
483.0746, 45704.35
483.5568, 45746.09
484.0389, 45864.43
484.5210, 45976.99
485.0031, 46046.73
485.4852, 46090.90
485.9673, 46165.50
486.4495, 46307.43
486.9316, 46452.54
487.4137, 46578.42
487.8958, 46680.33
488.3779, 46782.55
488.8600, 46873.42
489.3422, 46975.77
489.8243, 47120.07
490.3064, 47325.39
490.7885, 47496.79
491.2706, 47613.59
491.7527, 47695.58
492.2349, 47791.57
492.7170, 47900.76
493.1991, 48025.04
493.6812, 48181.04
494.1633, 48354.33
494.6454, 48481.84
495.1276, 48561.25
495.6097, 48629.65
496.0918, 48718.42
496.5739, 48821.59
497.0560, 48922.37
497.5381, 49018.11
498.0203, 49112.75
498.5024, 49216.59
498.9845, 49322.74
499.4666, 49418.49
499.9487, 49493.05
500.4308, 49558.52
500.9130, 49624.79
501.3951, 49691.92
501.8772, 49743.68
502.3593, 49754.41
502.8414, 49761.00
503.3235, 49788.78
503.8057, 49874.31
504.2878, 49931.75
504.7699, 49958.03
505.2520, 49955.26
505.7341, 49920.76
506.2162, 49824.11
506.6984, 49755.36
507.1805, 49744.95
507.6626, 49785.65
508.1447, 49812.16
508.6268, 49820.93
509.1089, 49826.59
509.5911, 49836.33
510.0732, 49850.62
510.5553, 49877.50
511.0374, 49919.86
511.5195, 49966.76
512.0016, 50005.23
512.4838, 50037.18
512.9659, 50066.86
513.4480, 50090.06
513.9301, 50118.95
514.4122, 50172.73
514.8943, 50246.62
515.3765, 50319.48
515.8586, 50372.42
516.3407, 50424.55
516.8228, 50494.25
517.3049, 50589.01
517.7870, 50671.60
518.2692, 50709.17
518.7513, 50736.80
519.2334, 50788.10
519.7155, 50882.62
520.1976, 50984.28
520.6797, 51097.29
521.1619, 51214.31
521.6440, 51310.68
522.1261, 51368.09
522.6082, 51437.02
523.0903, 51541.87
523.5724, 51684.05
524.0546, 51800.15
524.5367, 51884.08
525.0188, 51960.21
525.5009, 52054.44
525.9830, 52164.80
526.4651, 52258.10
526.9473, 52325.07
527.4294, 52388.02
527.9115, 52486.18
528.3936, 52607.83
528.8757, 52716.82
529.3578, 52789.54
529.8400, 52843.69
530.3221, 52890.44
530.8042, 52930.85
531.2863, 52977.43
531.7684, 53042.70
532.2505, 53111.79
532.7327, 53171.57
533.2148, 53215.79
533.6969, 53263.77
534.1790, 53326.54
534.6611, 53393.41
535.1432, 53451.28
535.6254, 53493.55
536.1075, 53536.98
536.5896, 53587.66
537.0717, 53641.78
537.5538, 53681.70
538.0359, 53705.20
538.5181, 53722.30
539.0002, 53734.80
539.4823, 53743.16
539.9644, 53764.05
540.4465, 53800.27
540.9286, 53835.45
541.4108, 53842.07
541.8929, 53831.05
542.3750, 53856.48
542.8571, 53936.92
543.3392, 54026.64
543.8214, 54059.93
544.3035, 54059.13
544.7856, 54080.49
545.2677, 54174.46
545.7498, 54279.21
546.2319, 54343.32
546.7141, 54373.65
547.1962, 54414.16
547.6783, 54489.98
548.1604, 54575.01
548.6425, 54654.60
549.1246, 54720.98
549.6068, 54799.42
550.0889, 54905.63
550.5710, 55016.63
551.0531, 55111.67
551.5352, 55186.71
552.0173, 55253.20
552.4995, 55305.45
552.9816, 55353.89
553.4637, 55424.84
553.9458, 55520.34
554.4279, 55625.96
554.9100, 55742.30
555.3922, 55864.19
555.8743, 55970.01
556.3564, 56059.18
556.8385, 56139.20
557.3206, 56206.18
557.8027, 56270.21
558.2849, 56350.02
558.7670, 56449.32
559.2491, 56560.21
559.7312, 56689.24
560.2133, 56821.56
560.6954, 56936.61
561.1776, 57006.59
561.6597, 57077.79
562.1418, 57176.03
562.6239, 57290.02
563.1060, 57377.18
563.5881, 57414.61
564.0703, 57441.76
564.5524, 57474.24
565.0345, 57514.32
565.5166, 57526.65
565.9987, 57506.79
566.4808, 57467.08
566.9630, 57414.64
567.4451, 57349.33
567.9272, 57274.43
568.4093, 57185.81
568.8914, 57098.81
569.3735, 57031.66
569.8557, 56984.23
570.3378, 56952.34
570.8199, 56938.38
571.3020, 56936.04
571.7841, 56938.61
572.2662, 56946.14
572.7484, 56958.91
573.2305, 56966.48
573.7126, 56986.89
574.1947, 57039.02
574.6768, 57125.27
575.1589, 57208.61
575.6411, 57271.71
576.1232, 57329.35
576.6053, 57390.51
577.0874, 57453.52
577.5695, 57524.22
578.0516, 57615.29
578.5338, 57704.35
579.0159, 57751.24
579.4980, 57734.61
579.9801, 57752.26
580.4622, 57836.65
580.9443, 57963.80
581.4265, 58060.71
581.9086, 58127.66
582.3907, 58175.93
582.8728, 58199.52
583.3549, 58212.55
583.8370, 58246.81
584.3192, 58302.82
584.8013, 58366.77
585.2834, 58420.25
585.7655, 58480.76
586.2476, 58571.98
586.7297, 58709.85
587.2118, 58846.70
587.6939, 58975.17
588.1760, 59087.26
588.6581, 59172.86
589.1403, 59199.88
589.6224, 59234.89
590.1045, 59288.27
590.5866, 59355.84
591.0687, 59424.12
591.5508, 59488.98
592.0330, 59561.59
592.5151, 59647.01
592.9972, 59744.49
593.4793, 59850.47
593.9614, 59967.80
594.4435, 60075.01
594.9257, 60144.46
595.4078, 60190.32
595.8899, 60258.60
596.3720, 60356.27
596.8541, 60463.57
597.3362, 60554.79
597.8184, 60645.89
598.3005, 60762.55
598.7826, 60924.30
599.2647, 61095.00
599.7468, 61257.85
600.2289, 61417.06
600.7111, 61582.48
601.1932, 61776.54
601.6753, 61951.63
602.1574, 62083.41
602.6395, 62174.98
603.1216, 62293.24
603.6038, 62456.09
604.0859, 62611.54
604.5680, 62724.20
605.0501, 62789.21
605.5322, 62888.92
606.0143, 63028.55
606.4965, 63181.53
606.9786, 63319.49
607.4607, 63447.92
607.9428, 63593.81
608.4249, 63774.26
608.9070, 63940.80
609.3892, 64040.66
609.8713, 64093.69
610.3534, 64138.74
610.8355, 64182.80
611.3176, 64230.88
611.7997, 64283.02
612.2819, 64340.71
612.7640, 64410.86
613.2461, 64519.87
613.7282, 64615.02
614.2103, 64671.04
614.6924, 64683.46
615.1746, 64729.52
615.6567, 64826.08
616.1388, 64922.63
616.6209, 64976.99
617.1030, 64986.89
617.5851, 65032.88
618.0673, 65125.03
618.5494, 65227.04
619.0315, 65291.36
619.5136, 65329.73
619.9957, 65370.44
620.4778, 65414.62
620.9600, 65478.82
621.4421, 65601.45
621.9242, 65754.45
622.4063, 65878.61
622.8884, 65926.08
623.3705, 65964.51
623.8527, 66015.55
624.3348, 66078.91
624.8169, 66152.06
625.2990, 66225.25
625.7811, 66317.30
626.2632, 66445.26
626.7454, 66614.92
627.2275, 66730.60
627.7096, 66783.26
628.1917, 66806.16
628.6738, 66813.92
629.1559, 66810.44
629.6381, 66834.02
630.1202, 66890.98
630.6023, 66967.14
631.0844, 67067.20
631.5665, 67173.83
632.0486, 67244.93
632.5308, 67241.58
633.0129, 67245.95
633.4950, 67319.02
633.9771, 67439.52
634.4592, 67567.83
634.9413, 67704.26
635.4235, 67831.81
635.9056, 67940.52
636.3877, 68032.88
636.8698, 68130.88
637.3519, 68237.56
637.8340, 68340.49
638.3162, 68428.48
638.7983, 68502.39
639.2804, 68600.57
639.7625, 68727.10
640.2446, 68855.08
640.7267, 68957.59
641.2089, 69043.15
641.6910, 69139.15
642.1731, 69249.81
642.6552, 69358.55
643.1373, 69446.63
643.6194, 69524.32
644.1016, 69604.23
644.5837, 69685.45
645.0658, 69778.61
645.5479, 69896.73
646.0300, 70028.22
646.5121, 70150.53
646.9943, 70246.67
647.4764, 70353.49
647.9585, 70483.34
648.4406, 70627.19
648.9227, 70757.45
649.4048, 70872.50
649.8870, 70973.82
650.3691, 71054.76
650.8512, 71122.67
651.3333, 71220.73
651.8154, 71347.36
652.2975, 71471.52
652.7797, 71552.72
653.2618, 71625.73
653.7439, 71754.68
654.2260, 71946.05
654.7081, 72128.54
655.1902, 72260.96
655.6724, 72363.05
656.1545, 72449.08
656.6366, 72500.16
657.1187, 72579.04
657.6008, 72696.86
658.0829, 72844.52
658.5651, 73020.98
659.0472, 73245.73
659.5293, 73441.59
660.0114, 73587.59
660.4935, 73712.53
660.9756, 73876.22
661.4578, 74075.67
661.9399, 74281.19
662.4220, 74471.58
662.9041, 74670.86
663.3862, 74925.29
663.8683, 75225.59
664.3505, 75540.27
664.8326, 75872.52
665.3147, 76192.45
665.7968, 76460.38
666.2789, 76680.70
666.7610, 76941.90
667.2432, 77289.10
667.7253, 77666.07
668.2074, 78044.41
668.6895, 78421.20
669.1716, 78818.34
669.6537, 79236.05
670.1359, 79677.45
670.6180, 80159.48
671.1001, 80675.95
671.5822, 81159.68
672.0643, 81598.13
672.5464, 82033.84
673.0286, 82516.82
673.5107, 83028.67
673.9928, 83544.77
674.4749, 84082.97
674.9570, 84574.45
675.4391, 84976.79
675.9213, 85296.42
676.4034, 85542.05
676.8855, 85750.27
677.3676, 85838.03
677.8497, 85783.39
678.3318, 85596.84
678.8140, 85284.96
679.2961, 84814.89
679.7782, 84290.64
680.2603, 83716.23
680.7424, 83119.73
681.2245, 82581.03
681.7067, 82098.60
682.1888, 81654.77
682.6709, 81219.13
683.1530, 80818.42
683.6351, 80496.77
684.1172, 80258.58
684.5994, 80050.01
685.0815, 79828.79
685.5636, 79635.40
686.0457, 79500.00
686.5278, 79433.99
687.0099, 79403.51
687.4921, 79422.14
687.9742, 79462.55
688.4563, 79504.03
688.9384, 79535.70
689.4205, 79605.20
689.9026, 79728.12
690.3848, 79861.26
690.8669, 79941.63
691.3490, 79975.57
691.8311, 80013.02
692.3132, 80059.75
692.7953, 80124.16
693.2775, 80232.14
693.7596, 80363.93
694.2417, 80480.80
694.7238, 80559.71
695.2059, 80626.98
695.6880, 80681.00
696.1702, 80732.14
696.6523, 80810.91
697.1344, 80922.98
697.6165, 81065.37
698.0986, 81254.73
698.5807, 81477.30
699.0629, 81650.00
699.5450, 81766.15
700.0271, 81873.97
700.5092, 82000.34
700.9913, 82114.05
701.4734, 82255.49
701.9556, 82355.38
702.4377, 82462.55
702.9198, 82591.30
703.4019, 82739.15
703.8840, 82917.55
704.3661, 83130.09
704.8483, 83308.78
705.3304, 83399.67
705.8125, 83468.04
706.2946, 83559.88
706.7767, 83693.69
707.2589, 83805.00
707.7410, 83891.91
708.2231, 83958.37
708.7052, 84006.67
709.1873, 84036.59
709.6694, 84053.04
710.1516, 84053.83
710.6337, 84050.48
711.1158, 84063.11
711.5979, 84081.53
712.0800, 84080.55
712.5621, 84042.73
713.0443, 84007.70
713.5264, 84014.34
714.0085, 84037.19
714.4906, 84038.35
714.9727, 83961.45
715.4548, 83920.89
715.9370, 83947.20
716.4191, 84015.41
716.9012, 84074.21
717.3833, 84122.61
717.8654, 84164.75
718.3475, 84200.26
718.8297, 84231.70
719.3118, 84261.52
719.7939, 84291.13
720.2760, 84333.05
720.7581, 84394.83
721.2402, 84470.42
721.7224, 84555.39
722.2045, 84648.05
722.6866, 84742.73
723.1687, 84823.38
723.6508, 84917.04
724.1329, 85050.33
724.6151, 85223.13
725.0972, 85345.08
725.5793, 85380.80
726.0614, 85424.20
726.5435, 85528.70
727.0256, 85690.87
727.5078, 85835.02
727.9899, 85961.67
728.4720, 86084.77
728.9541, 86219.66
729.4362, 86358.17
729.9183, 86487.45
730.4005, 86605.68
730.8826, 86701.96
731.3647, 86742.90
731.8468, 86775.51
732.3289, 86839.63
732.8110, 86956.12
733.2932, 87063.95
733.7753, 87161.38
734.2574, 87246.72
734.7395, 87313.77
735.2216, 87358.00
735.7037, 87422.80
736.1859, 87523.02
736.6680, 87611.21
737.1501, 87583.33
737.6322, 87491.69
738.1143, 87515.48
738.5964, 87726.44
739.0786, 87960.52
739.5607, 88083.49
740.0428, 88144.92
740.5249, 88211.63
741.0070, 88333.55
741.4891, 88424.52
741.9713, 88427.66
742.4534, 88406.60
742.9355, 88460.09
743.4176, 88615.54
743.8997, 88754.48
744.3818, 88845.42
744.8640, 88918.30
745.3461, 89041.23
745.8282, 89206.23
746.3103, 89360.45
746.7924, 89479.59
747.2745, 89583.22
747.7567, 89687.92
748.2388, 89793.13
748.7209, 89895.60
749.2030, 89996.55
749.6851, 90094.52
750.1672, 90185.84
750.6494, 90274.27
751.1315, 90368.02
751.6136, 90455.33
752.0957, 90579.30
752.5778, 90781.25
753.0599, 91021.88
753.5421, 91133.45
754.0242, 91122.10
754.5063, 91118.23
754.9884, 91201.82
755.4705, 91330.44
755.9526, 91447.42
756.4348, 91558.63
756.9169, 91693.09
757.3990, 91881.45
757.8811, 92078.64
758.3632, 92279.77
758.8453, 92480.58
759.3275, 92608.13
759.8096, 92601.68
760.2917, 92628.05
760.7738, 92792.15
761.2559, 93071.02
761.7380, 93251.60
762.2202, 93330.37
762.7023, 93399.80
763.1844, 93535.16
763.6665, 93700.55
764.1486, 93855.11
764.6307, 93995.50
765.1129, 94100.97
765.5950, 94111.31
766.0771, 94122.83
766.5592, 94213.38
767.0413, 94420.99
767.5234, 94535.87
768.0056, 94499.14
768.4877, 94461.71
768.9698, 94545.20
769.4519, 94746.79
769.9340, 94861.11
770.4161, 94878.37
770.8983, 94879.59
771.3804, 94922.99
771.8625, 95003.38
772.3446, 95121.08
772.8267, 95278.63
773.3088, 95437.13
773.7910, 95571.16
774.2731, 95701.70
774.7552, 95849.99
775.2373, 96040.84
775.7194, 96176.67
776.2015, 96226.42
776.6837, 96265.86
777.1658, 96370.84
777.6479, 96538.44
778.1300, 96664.53
778.6121, 96736.84
779.0942, 96803.92
779.5764, 96918.01
780.0585, 97058.88
780.5406, 97201.06
781.0227, 97343.20
781.5048, 97473.70
781.9869, 97563.67
782.4691, 97652.36
782.9512, 97779.27
783.4332, 97986.48
783.9153, 98142.77
784.3975, 98224.59
784.8796, 98286.72
785.3617, 98384.89
785.8438, 98516.05
786.3259, 98669.32
786.8080, 98851.30
787.2902, 99011.83
787.7723, 99070.92
788.2544, 99086.02
788.7365, 99140.24
789.2186, 99266.52
789.7007, 99398.70
790.1829, 99497.23
790.6650, 99601.82
791.1471, 99759.13
791.6292, 100031.0
792.1113, 100208.5
792.5934, 100257.5
793.0756, 100267.4
793.5577, 100340.7
794.0398, 100473.6
794.5219, 100652.7
795.0040, 100891.3
795.4861, 101116.0
795.9683, 101247.2
796.4504, 101330.7
796.9325, 101429.4
797.4146, 101566.8
797.8967, 101702.5
798.3788, 101817.5
798.8610, 101932.6
799.3431, 102068.3
799.8252, 102231.6
800.3073, 102396.5
800.7894, 102565.0
801.2715, 102721.5
801.7537, 102842.1
802.2358, 102933.9
802.7179, 103023.7
803.2000, 103115.9
803.6821, 103208.1
804.1642, 103295.6
804.6464, 103384.7
805.1285, 103484.8
805.6106, 103613.5
806.0927, 103728.4
806.5748, 103827.4
807.0569, 103911.9
807.5391, 103974.2
808.0212, 104005.9
808.5033, 104098.6
808.9854, 104276.6
809.4675, 104465.9
809.9496, 104566.9
810.4318, 104611.8
810.9139, 104668.8
811.3960, 104757.0
811.8781, 104846.8
812.3602, 104902.3
812.8423, 104959.8
813.3245, 105057.2
813.8066, 105209.4
814.2887, 105388.9
814.7708, 105616.0
815.2529, 105837.7
815.7350, 105988.3
816.2172, 106070.7
816.6993, 106147.5
817.1814, 106224.2
817.6635, 106304.2
818.1456, 106380.3
818.6277, 106465.7
819.1099, 106581.6
819.5920, 106741.0
820.0741, 106904.8
820.5562, 107051.5
821.0383, 107205.0
821.5204, 107395.5
822.0026, 107665.0
822.4847, 107844.6
822.9668, 107913.0
823.4489, 107941.7
823.9310, 107990.4
824.4131, 108058.7
824.8953, 108155.9
825.3774, 108285.2
825.8595, 108402.0
826.3416, 108440.8
826.8237, 108466.7
827.3058, 108548.8
827.7880, 108725.8
828.2701, 108866.6
828.7522, 108939.2
829.2343, 108996.3
829.7164, 109069.5
830.1985, 109158.8
830.6807, 109297.7
831.1628, 109496.5
831.6449, 109676.4
832.1270, 109714.4
832.6091, 109704.4
833.0912, 109820.9
833.5734, 110087.1
834.0555, 110318.4
834.5376, 110342.7
835.0197, 110359.9
835.5018, 110527.7
835.9839, 110880.3
836.4661, 111132.6
836.9482, 111255.5
837.4303, 111343.5
837.9124, 111455.1
838.3945, 111584.8
838.8766, 111703.5
839.3588, 111813.0
839.8409, 111932.9
840.3230, 112081.9
840.8051, 112247.6
841.2872, 112426.4
841.7693, 112618.6
842.2515, 112792.6
842.7336, 112941.0
843.2157, 113073.7
843.6978, 113185.2
844.1799, 113279.1
844.6620, 113417.6
845.1442, 113602.1
845.6263, 113776.6
846.1084, 113908.8
846.5905, 114007.4
847.0726, 114074.3
847.5547, 114115.6
848.0369, 114163.0
848.5190, 114209.4
849.0011, 114286.3
849.4832, 114431.5
849.9653, 114628.4
850.4474, 114778.3
850.9296, 114864.8
851.4117, 114961.7
851.8938, 115100.0
852.3759, 115262.6
852.8580, 115398.8
853.3401, 115516.2
853.8223, 115641.0
854.3044, 115788.8
854.7865, 115948.4
855.2686, 116131.7
855.7507, 116320.1
856.2328, 116471.7
856.7150, 116542.1
857.1971, 116623.7
857.6792, 116722.4
858.1613, 116844.0
858.6434, 117008.0
859.1255, 117211.2
859.6077, 117413.9
860.0898, 117596.5
860.5719, 117780.5
861.0540, 118002.8
861.5361, 118236.9
862.0182, 118443.5
862.5004, 118579.9
862.9825, 118724.5
863.4646, 118920.6
863.9467, 119115.2
864.4288, 119244.4
864.9109, 119293.5
865.3931, 119358.0
865.8752, 119450.0
866.3573, 119554.1
866.8394, 119669.0
867.3215, 119781.7
867.8036, 119860.2
868.2858, 119894.7
868.7679, 119927.6
869.2500, 119973.9
869.7321, 120037.1
870.2142, 120122.5
870.6964, 120236.3
871.1785, 120356.7
871.6606, 120485.7
872.1427, 120612.6
872.6248, 120698.8
873.1069, 120769.3
873.5891, 120967.9
874.0712, 121297.1
874.5533, 121585.7
875.0354, 121649.2
875.5175, 121665.0
875.9996, 121782.5
876.4818, 122015.8
876.9639, 122217.7
877.4460, 122353.0
877.9281, 122485.8
878.4102, 122642.6
878.8923, 122819.6
879.3745, 123002.6
879.8566, 123190.1
880.3387, 123341.5
880.8208, 123415.5
881.3029, 123456.5
881.7850, 123504.3
882.2672, 123558.9
882.7493, 123615.8
883.2314, 123656.6
883.7135, 123728.0
884.1956, 123859.4
884.6777, 124023.3
885.1599, 124141.6
885.6420, 124213.2
886.1241, 124266.5
886.6062, 124288.7
887.0883, 124337.3
887.5704, 124519.5
888.0526, 124778.1
888.5347, 125004.3
889.0168, 125114.9
889.4989, 125253.3
889.9810, 125523.7
890.4631, 125803.2
890.9453, 125939.3
891.4274, 125881.6
891.9095, 125909.4
892.3916, 126061.1
892.8737, 126243.2
893.3558, 126354.8
893.8380, 126416.2
894.3201, 126456.8
894.8022, 126476.8
895.2843, 126534.1
895.7664, 126701.6
896.2485, 126889.1
896.7307, 127023.7
897.2128, 127091.0
897.6949, 127201.1
898.1770, 127365.5
898.6591, 127534.5
899.1412, 127661.2
899.6234, 127767.7
900.1055, 127919.8
900.5876, 128115.6
901.0697, 128348.1
901.5518, 128691.4
902.0339, 128991.9
902.5161, 129118.2
902.9982, 129091.9
903.4803, 129141.6
903.9624, 129290.5
904.4445, 129467.2
904.9266, 129658.6
905.4088, 129853.8
905.8909, 130019.5
906.3730, 130162.8
906.8551, 130315.9
907.3372, 130511.2
907.8193, 130694.2
908.3015, 130798.8
908.7836, 130873.7
909.2657, 131005.9
909.7478, 131264.3
910.2299, 131466.9
910.7120, 131595.8
911.1942, 131675.3
911.6763, 131715.9
912.1584, 131730.7
912.6405, 131790.9
913.1226, 131911.2
913.6047, 132049.2
914.0869, 132198.4
914.5690, 132334.0
915.0511, 132415.8
915.5332, 132403.8
916.0153, 132500.9
916.4974, 132779.0
916.9796, 133053.3
917.4617, 133194.3
917.9438, 133226.9
918.4259, 133340.6
918.9080, 133529.0
919.3901, 133715.6
919.8723, 133826.8
920.3544, 133935.0
920.8365, 134118.2
921.3186, 134358.8
921.8007, 134548.0
922.2828, 134640.2
922.7650, 134731.0
923.2471, 134834.0
923.7292, 134956.1
924.2113, 135129.5
924.6934, 135343.7
925.1755, 135531.3
925.6577, 135652.3
926.1398, 135770.9
926.6219, 135956.4
927.1040, 136169.5
927.5861, 136353.2
928.0682, 136459.7
928.5504, 136588.2
929.0325, 136747.5
929.5146, 136912.5
929.9967, 137063.0
930.4788, 137196.2
930.9609, 137286.8
931.4431, 137330.6
931.9252, 137404.4
932.4073, 137626.2
932.8894, 137867.4
933.3715, 137999.2
933.8536, 137998.6
934.3358, 138069.9
934.8179, 138284.9
935.3000, 138475.0
935.7821, 138552.5
936.2642, 138554.7
936.7463, 138634.3
937.2285, 138785.2
937.7106, 138957.4
938.1927, 139158.0
938.6748, 139339.9
939.1569, 139434.9
939.6390, 139487.8
940.1212, 139603.3
940.6033, 139850.7
941.0854, 140057.7
941.5675, 140191.7
942.0496, 140297.6
942.5317, 140434.0
943.0139, 140599.4
943.4960, 140798.9
943.9781, 141048.2
944.4602, 141256.2
944.9423, 141277.7
945.4244, 141276.8
945.9066, 141419.5
946.3887, 141787.9
946.8708, 142061.3
947.3529, 142215.3
947.8350, 142336.5
948.3171, 142472.2
948.7993, 142618.9
949.2814, 142765.8
949.7635, 142912.9
950.2456, 143063.7
950.7277, 143219.5
951.2098, 143378.3
951.6920, 143540.2
952.1741, 143703.4
952.6562, 143861.2
953.1383, 144007.8
953.6204, 144165.1
954.1025, 144345.3
954.5847, 144522.4
955.0668, 144640.5
955.5489, 144723.5
956.0310, 144835.9
956.5131, 144997.9
956.9952, 145175.7
957.4774, 145358.1
957.9595, 145544.3
958.4416, 145742.8
958.9237, 145969.4
959.4058, 146123.4
959.8879, 146181.3
960.3701, 146270.2
960.8522, 146526.3
961.3343, 146869.1
961.8164, 147112.9
962.2985, 147274.4
962.7806, 147475.7
963.2628, 147837.2
963.7449, 148177.4
964.2270, 148393.2
964.7091, 148539.5
965.1912, 148796.5
965.6733, 149180.3
966.1555, 149507.5
966.6376, 149729.5
967.1197, 149883.4
967.6018, 149946.4
968.0839, 149997.3
968.5660, 150181.1
969.0482, 150653.9
969.5303, 150997.7
970.0124, 151058.8
970.4945, 151046.6
970.9766, 151116.8
971.4587, 151272.2
971.9409, 151353.4
972.4230, 151354.2
972.9051, 151406.0
973.3872, 151662.8
973.8693, 151974.3
974.3514, 152195.0
974.8336, 152326.1
975.3157, 152434.5
975.7978, 152471.3
976.2799, 152580.5
976.7620, 152819.2
977.2441, 153128.1
977.7263, 153372.0
978.2084, 153562.1
978.6905, 153745.2
979.1726, 153938.7
979.6547, 154126.5
980.1368, 154304.9
980.6190, 154470.1
981.1010, 154613.7
981.5831, 154721.4
982.0652, 154847.4
982.5474, 154980.0
983.0295, 155163.3
983.5116, 155468.2
983.9937, 155843.9
984.4758, 156136.1
984.9579, 156350.0
985.4401, 156550.6
985.9222, 156735.3
986.4043, 156949.7
986.8864, 157243.5
987.3685, 157580.7
987.8506, 157849.4
988.3328, 158028.7
988.8149, 158268.3
989.2970, 158623.3
989.7791, 159001.3
990.2612, 159267.0
990.7433, 159473.2
991.2255, 159712.6
991.7076, 160029.3
992.1897, 160306.3
992.6718, 160492.9
993.1539, 160651.7
993.6360, 160806.5
994.1182, 160958.0
994.6003, 161178.8
995.0824, 161468.8
995.5645, 161737.5
996.0466, 161896.6
996.5287, 162039.2
997.0109, 162267.4
997.4930, 162550.1
997.9751, 162771.7
998.4572, 162842.4
998.9393, 163009.4
999.4214, 163353.0
999.9036, 163744.6
1000.386, 163931.0
1000.868, 163982.9
1001.350, 164140.4
1001.832, 164466.8
1002.314, 164798.3
1002.796, 165019.3
1003.278, 165211.3
1003.760, 165431.0
1004.243, 165682.0
1004.725, 165938.5
1005.207, 166201.5
1005.689, 166465.8
1006.171, 166717.9
1006.653, 166976.9
1007.135, 167295.3
1007.617, 167651.6
1008.100, 168000.8
1008.582, 168327.0
1009.064, 168631.9
1009.546, 168891.3
1010.028, 169149.2
1010.510, 169478.5
1010.992, 169874.2
1011.474, 170231.7
1011.956, 170543.1
1012.439, 170834.6
1012.921, 171138.2
1013.403, 171432.1
1013.885, 171671.8
1014.367, 171855.7
1014.849, 172156.3
1015.331, 172616.7
1015.813, 173103.1
1016.296, 173562.1
1016.778, 174013.8
1017.260, 174514.2
1017.742, 175043.2
1018.224, 175549.5
1018.706, 175946.6
1019.188, 176424.5
1019.670, 177108.5
1020.152, 177871.6
1020.635, 178576.6
1021.117, 179200.5
1021.599, 179920.1
1022.081, 180750.4
1022.563, 181550.2
1023.045, 182182.6
1023.527, 182738.4
1024.009, 183358.2
1024.492, 184017.3
1024.974, 184532.2
1025.456, 184867.9
1025.938, 185032.4
1026.420, 184990.4
1026.902, 184824.1
1027.384, 184667.6
1027.866, 184523.3
1028.349, 184391.5
1028.831, 184270.6
1029.313, 184183.5
1029.795, 184126.6
1030.277, 184123.8
1030.759, 184194.6
1031.241, 184336.4
1031.723, 184562.6
1032.205, 184888.0
1032.688, 185216.5
1033.170, 185483.3
1033.652, 185728.7
1034.134, 185952.1
1034.616, 186201.5
1035.098, 186601.9
1035.580, 187419.6
1036.062, 188071.9
1036.544, 188416.1
1037.027, 188653.5
1037.509, 189025.2
1037.991, 189510.7
1038.473, 189958.1
1038.955, 190356.8
1039.437, 190714.8
1039.919, 190999.4
1040.401, 191278.6
1040.884, 191605.0
1041.366, 191974.3
1041.848, 192351.8
1042.330, 192745.8
1042.812, 193107.2
1043.294, 193404.4
1043.776, 193716.9
1044.258, 194215.9
1044.740, 194810.2
1045.223, 195333.0
1045.705, 195706.9
1046.187, 196140.3
1046.669, 196750.0
1047.151, 197331.2
1047.633, 197691.5
1048.115, 197879.3
1048.597, 198310.8
1049.079, 198961.2
1049.562, 199606.8
1050.044, 200113.0
1050.526, 200573.3
1051.008, 201015.8
1051.490, 201450.8
1051.972, 201892.3
1052.454, 202345.4
1052.936, 202779.2
1053.419, 203194.2
1053.901, 203568.6
1054.383, 203890.5
1054.865, 204151.5
1055.347, 204320.4
1055.829, 204398.4
1056.311, 204526.8
1056.793, 204838.2
1057.276, 205085.4
1057.758, 205185.6
1058.240, 205187.5
1058.722, 205214.2
1059.204, 205259.0
1059.686, 205286.7
1060.168, 205281.7
1060.650, 205269.0
1061.132, 205275.1
1061.615, 205268.8
1062.097, 205211.1
1062.579, 205089.8
1063.061, 205027.4
1063.543, 205028.5
1064.025, 205031.8
1064.507, 205040.2
1064.989, 204997.9
1065.471, 204784.6
1065.954, 204469.7
1066.436, 204222.9
1066.918, 204138.6
1067.400, 204055.3
1067.882, 203980.4
1068.364, 203869.7
1068.846, 203608.9
1069.328, 203274.5
1069.811, 203133.7
1070.293, 203199.4
1070.775, 203267.0
1071.257, 203253.8
1071.739, 203186.8
1072.221, 203092.7
1072.703, 202953.9
1073.185, 202665.2
1073.667, 202234.0
1074.150, 201895.3
1074.632, 201732.3
1075.114, 201620.5
1075.596, 201474.7
1076.078, 201301.8
1076.560, 201100.1
1077.042, 200857.4
1077.524, 200681.5
1078.006, 200604.4
1078.489, 200486.1
1078.971, 200228.7
1079.453, 199904.9
1079.935, 199645.5
1080.417, 199438.3
1080.899, 199255.4
1081.381, 199125.0
1081.863, 198958.8
1082.345, 198719.1
1082.828, 198476.8
1083.310, 198309.9
1083.792, 198207.9
1084.274, 198087.7
1084.756, 197949.9
1085.238, 197840.8
1085.720, 197806.5
1086.202, 197791.5
1086.685, 197792.8
1087.167, 197783.4
1087.649, 197666.6
1088.131, 197414.4
1088.613, 197349.5
1089.095, 197556.4
1089.577, 197788.0
1090.059, 197762.1
1090.542, 197640.5
1091.024, 197595.3
1091.506, 197649.9
1091.988, 197690.0
1092.470, 197695.5
1092.952, 197720.2
1093.434, 197783.8
1093.916, 197876.4
1094.398, 197996.5
1094.880, 198127.8
1095.363, 198231.3
1095.845, 198294.5
1096.327, 198333.1
1096.809, 198331.4
1097.291, 198326.4
1097.773, 198326.1
1098.255, 198338.6
1098.737, 198463.3
1099.220, 198676.0
1099.702, 198824.0
1100.184, 198742.3
1100.666, 198671.8
1101.148, 198773.7
1101.630, 198945.6
1102.112, 199044.1
1102.594, 199068.9
1103.077, 199042.0
1103.559, 198962.9
1104.041, 198896.7
1104.523, 198901.2
1105.005, 198941.0
1105.487, 198957.8
1105.969, 198973.2
1106.451, 199114.5
1106.933, 199456.3
1107.416, 199698.0
1107.898, 199760.2
1108.380, 199774.1
1108.862, 199920.1
1109.344, 200130.3
1109.826, 200289.9
1110.308, 200374.0
1110.790, 200495.7
1111.272, 200692.6
1111.755, 200917.0
1112.237, 201175.9
1112.719, 201437.3
1113.201, 201624.8
1113.683, 201748.2
1114.165, 201832.8
1114.647, 201867.4
1115.129, 201931.5
1115.612, 202066.3
1116.094, 202244.5
1116.576, 202446.8
1117.058, 202672.7
1117.540, 202934.6
1118.022, 203226.6
1118.504, 203495.3
1118.986, 203717.2
1119.469, 203896.4
1119.951, 203978.6
1120.433, 204044.4
1120.915, 204229.3
1121.397, 204596.3
1121.879, 204782.7
1122.361, 204767.9
1122.843, 204717.4
1123.325, 204771.8
1123.807, 204850.4
1124.290, 204846.7
1124.772, 204794.3
1125.254, 204818.6
1125.736, 204974.0
1126.218, 205089.8
1126.700, 205123.7
1127.182, 205191.0
1127.664, 205470.0
1128.147, 205851.5
1128.629, 206161.7
1129.111, 206385.8
1129.593, 206545.8
1130.075, 206548.5
1130.557, 206630.0
1131.039, 206873.3
1131.521, 207184.3
1132.004, 207369.7
1132.486, 207480.4
1132.968, 207683.0
1133.450, 208028.2
1133.932, 208337.1
1134.414, 208474.5
1134.896, 208627.7
1135.378, 208906.9
1135.860, 209268.8
1136.343, 209521.1
1136.825, 209681.1
1137.307, 209826.4
1137.789, 209953.8
1138.271, 210146.8
1138.753, 210525.8
1139.235, 210934.1
1139.717, 211214.8
1140.199, 211364.9
1140.682, 211577.4
1141.164, 211847.6
1141.646, 212094.8
1142.128, 212259.5
1142.610, 212401.1
1143.092, 212582.4
1143.574, 212765.7
1144.056, 212883.7
1144.539, 212895.7
1145.021, 213027.0
1145.503, 213298.4
1145.985, 213557.7
1146.467, 213683.5
1146.949, 213742.4
1147.431, 213749.3
1147.913, 213751.1
1148.396, 213887.7
1148.878, 214242.5
1149.360, 214542.3
1149.842, 214760.6
1150.324, 214933.3
1150.806, 215095.1
1151.288, 215234.6
1151.770, 215296.8
1152.252, 215302.5
1152.734, 215421.3
1153.217, 215770.2
1153.699, 216093.9
1154.181, 216344.8
1154.663, 216556.1
1155.145, 216790.3
1155.627, 217021.5
1156.109, 217175.4
1156.591, 217242.2
1157.074, 217348.4
1157.556, 217588.3
1158.038, 217811.5
1158.520, 217971.0
1159.002, 218096.5
1159.484, 218228.0
1159.966, 218381.5
1160.448, 218622.8
1160.931, 218986.9
1161.413, 219325.9
1161.895, 219542.8
1162.377, 219746.5
1162.859, 220005.6
1163.341, 220282.4
1163.823, 220381.3
1164.305, 220348.2
1164.787, 220416.2
1165.270, 220711.1
1165.752, 220988.0
1166.234, 221048.5
1166.716, 221107.3
1167.198, 221344.2
1167.680, 221738.5
1168.162, 221970.9
1168.644, 222057.5
1169.126, 222125.7
1169.609, 222248.8
1170.091, 222349.9
1170.573, 222279.0
1171.055, 222239.3
1171.537, 222474.7
1172.019, 223023.2
1172.501, 223363.6
1172.983, 223493.3
1173.466, 223590.7
1173.948, 223718.0
1174.430, 223894.8
1174.912, 224186.6
1175.394, 224512.6
1175.876, 224718.4
1176.358, 224746.2
1176.840, 225085.0
1177.323, 225772.3
1177.805, 226298.0
1178.287, 226045.8
1178.769, 225677.5
1179.251, 225784.0
1179.733, 226209.6
1180.215, 226485.0
1180.697, 226553.8
1181.179, 226717.0
1181.661, 227011.0
1182.144, 227322.7
1182.626, 227547.9
1183.108, 227748.6
1183.590, 227974.5
1184.072, 228227.5
1184.554, 228509.5
1185.036, 228831.8
1185.518, 229117.0
1186.001, 229352.3
1186.483, 229558.4
1186.965, 229690.5
1187.447, 229850.3
1187.929, 230195.3
1188.411, 230708.4
1188.893, 231113.0
1189.375, 231418.5
1189.858, 231510.0
1190.340, 231300.3
1190.822, 231089.2
1191.304, 231262.1
1191.786, 231637.5
1192.268, 232027.8
1192.750, 232410.5
1193.232, 232726.5
1193.714, 232961.1
1194.197, 233169.2
1194.679, 233353.5
1195.161, 233539.5
1195.643, 233762.0
1196.125, 234004.0
1196.607, 234237.2
1197.089, 234449.9
1197.571, 234708.0
1198.053, 235036.9
1198.536, 235341.7
1199.018, 235598.8
1199.500, 235806.9
1199.982, 235924.5
1200.464, 236012.4
1200.946, 236177.7
1201.428, 236481.4
1201.910, 236690.0
1202.393, 236761.9
1202.875, 236861.7
1203.357, 237067.9
1203.839, 237343.0
1204.321, 237643.5
1204.803, 237959.4
1205.285, 238275.9
1205.767, 238596.7
1206.250, 238882.5
1206.732, 239109.2
1207.214, 239365.0
1207.696, 239727.7
1208.178, 240111.1
1208.660, 240316.3
1209.142, 240435.1
1209.624, 240651.2
1210.106, 241126.8
1210.589, 241431.8
1211.071, 241510.4
1211.553, 241587.8
1212.035, 241859.6
1212.517, 242189.3
1212.999, 242333.7
1213.481, 242367.5
1213.963, 242448.3
1214.445, 242665.5
1214.928, 242851.5
1215.410, 242993.2
1215.892, 243159.4
1216.374, 243420.7
1216.856, 243727.8
1217.338, 244057.8
1217.820, 244361.0
1218.302, 244508.8
1218.785, 244279.5
1219.267, 244283.4
1219.749, 244581.7
1220.231, 244943.9
1220.713, 245199.4
1221.195, 245397.2
1221.677, 245599.4
1222.159, 245806.1
1222.641, 246015.5
1223.124, 246231.1
1223.606, 246441.3
1224.088, 246645.5
1224.570, 246864.8
1225.052, 247137.3
1225.534, 247424.5
1226.016, 247699.2
1226.498, 247945.3
1226.980, 248098.9
1227.463, 248092.8
1227.945, 248184.5
1228.427, 248408.9
1228.909, 248648.5
1229.391, 248824.0
1229.873, 248931.4
1230.355, 248893.7
1230.837, 248779.3
1231.320, 248852.8
1231.802, 249208.6
1232.284, 249448.9
1232.766, 249529.7
1233.248, 249530.7
1233.730, 249442.6
1234.212, 249386.4
1234.694, 249524.1
1235.177, 249812.9
1235.659, 250051.0
1236.141, 250234.7
1236.623, 250339.6
1237.105, 250345.5
1237.587, 250428.3
1238.069, 250870.2
1238.551, 251355.6
1239.033, 251518.7
1239.516, 251471.3
1239.998, 251707.7
1240.480, 252258.9
1240.962, 252755.7
1241.444, 253140.8
1241.926, 253490.4
1242.408, 253927.2
1242.890, 254304.6
1243.372, 254466.5
1243.855, 254479.2
1244.337, 254548.2
1244.819, 254674.2
1245.301, 254853.3
1245.783, 255093.5
1246.265, 255280.6
1246.747, 255266.2
1247.229, 255237.3
1247.712, 255340.1
1248.194, 255527.3
1248.676, 255685.9
1249.158, 255822.8
1249.640, 255969.7
1250.122, 256134.7
1250.604, 256284.9
1251.086, 256336.0
1251.568, 256434.4
1252.051, 256684.8
1252.533, 257005.9
1253.015, 257196.4
1253.497, 257283.5
1253.979, 257437.9
1254.461, 257681.5
1254.943, 257953.0
1255.425, 258281.5
1255.907, 258535.8
1256.390, 258625.2
1256.872, 258655.0
1257.354, 258865.1
1257.836, 259197.8
1258.318, 259480.7
1258.800, 259690.9
1259.282, 259809.6
1259.764, 259711.8
1260.247, 259685.2
1260.729, 259815.7
1261.211, 260052.0
1261.693, 260327.8
1262.175, 260632.3
1262.657, 260969.4
1263.139, 261340.8
1263.621, 261578.1
1264.104, 261545.5
1264.586, 261567.0
1265.068, 261730.9
1265.550, 261949.2
1266.032, 262059.3
1266.514, 262321.4
1266.996, 262394.9
1267.478, 262801.6
1267.960, 263135.7
1268.443, 263358.5
1268.925, 263579.2
1269.407, 263834.7
1269.889, 264066.8
1270.371, 264155.6
1270.853, 264221.2
1271.335, 264439.6
1271.817, 264806.4
1272.299, 265019.6
1272.782, 265044.2
1273.264, 265117.0
1273.746, 265297.3
1274.228, 265501.6
1274.710, 265668.9
1275.192, 265811.7
1275.674, 265945.2
1276.156, 266064.1
1276.639, 266135.6
1277.121, 266158.4
1277.603, 266206.0
1278.085, 266287.2
1278.567, 266443.6
1279.049, 266803.2
1279.531, 267149.0
1280.013, 267338.8
1280.495, 267422.6
1280.978, 267519.2
1281.460, 267621.4
1281.942, 267658.5
1282.424, 267612.8
1282.906, 267634.3
1283.388, 267872.6
1283.870, 268103.9
1284.352, 268215.3
1284.834, 268496.9
1285.317, 268572.0
1285.799, 268959.6
1286.281, 269261.4
1286.763, 269454.5
1287.245, 269730.3
1287.727, 270324.7
1288.209, 270722.5
1288.691, 270761.9
1289.173, 270669.8
1289.656, 270723.4
1290.138, 270891.8
1290.620, 271159.1
1291.102, 271513.3
1291.584, 271808.5
1292.066, 272039.9
1292.548, 272183.6
1293.030, 272216.3
1293.513, 272242.3
1293.995, 272321.6
1294.477, 272499.4
1294.959, 272899.1
1295.441, 273459.7
1295.923, 273812.2
1296.405, 273940.5
1296.887, 273994.7
1297.370, 273988.3
1297.852, 274019.2
1298.334, 274155.4
1298.816, 274407.6
1299.298, 274843.3
1299.780, 275268.9
1300.262, 275486.8
1300.744, 275524.6
1301.226, 275709.5
1301.708, 276062.9
1302.191, 276374.9
1302.673, 276405.9
1303.155, 276387.3
1303.637, 276224.9
1304.119, 275796.5
##END=



