##NAMES=Leucophosphite
##RRUFFID=R060338
##IDEAL CHEMISTRY=KFe^3+^_2_(PO_4_)_2_(OH)&#183;2H_2_O
##LOCALITY=Gunheath pit, St. Austell, Cornwall, England
##OWNER=RRUFF
##SOURCE=Michael Scott
##DESCRIPTION=White to pale pink spherical aggregates associated with green chalcosiderite, R060339, and orange cyrilovite, R060504
##STATUS=The identification of this mineral is confirmed by single-crystal X-ray diffraction and chemical analysis.
##URL=rruff.info/R060338
##MEASURED CHEMISTRY=K_1.00_(Fe^3+^_1.90_Al_0.10_)_Σ=2_(P_1.00_O_4_)_2_(OH)·2.75H_2_O; H_2_O estimated by difference; (OH) by charge balance
90.49219, 28.43363
90.97430, 28.18227
91.45642, 28.09383
91.93854, 28.25346
92.42065, 28.55202
92.90277, 28.81373
93.38489, 29.01172
93.86700, 29.25218
94.34912, 29.97972
94.83124, 31.03882
95.31335, 31.50079
95.79547, 30.19923
96.27759, 27.66151
96.75970, 26.11649
97.24182, 26.13705
97.72394, 26.97808
98.20605, 26.95601
98.68817, 25.97498
99.17029, 24.90063
99.65240, 24.43958
100.1345, 24.63218
100.6166, 24.82885
101.0988, 24.88458
101.5809, 24.82827
102.0630, 24.92392
102.5451, 25.22386
103.0272, 25.58404
103.5093, 25.91260
103.9915, 26.32655
104.4736, 26.37849
104.9557, 25.76534
105.4378, 24.23743
105.9199, 23.49169
106.4020, 23.91571
106.8842, 24.92725
107.3663, 25.52959
107.8484, 25.55520
108.3305, 25.35709
108.8126, 25.02411
109.2947, 24.33719
109.7769, 23.87909
110.2590, 23.64860
110.7411, 23.64658
111.2232, 23.88126
111.7053, 25.01014
112.1874, 25.91485
112.6696, 26.08317
113.1517, 24.23694
113.6338, 22.97608
114.1159, 22.97116
114.5980, 24.03962
115.0801, 24.86566
115.5623, 24.90437
116.0444, 24.69473
116.5265, 24.65354
117.0086, 25.31092
117.4907, 25.78526
117.9728, 25.60623
118.4550, 24.74178
118.9371, 23.97255
119.4192, 23.55459
119.9013, 23.45020
120.3834, 23.61944
120.8655, 24.46523
121.3477, 25.31446
121.8298, 25.59270
122.3119, 25.16389
122.7940, 24.69132
123.2761, 24.63391
123.7582, 24.88424
124.2404, 25.20302
124.7225, 25.37032
125.2046, 25.56881
125.6867, 26.01324
126.1688, 26.73898
126.6509, 27.70915
127.1331, 28.93448
127.6152, 30.39304
128.0973, 31.97569
128.5794, 33.59198
129.0615, 35.27647
129.5436, 37.04543
130.0258, 38.71770
130.5079, 40.68103
130.9900, 43.95984
131.4721, 48.52485
131.9542, 53.20984
132.4363, 56.52008
132.9185, 58.76870
133.4006, 62.15908
133.8827, 67.61949
134.3648, 74.57912
134.8469, 81.11993
135.3290, 86.99667
135.8112, 93.56527
136.2933, 102.4263
136.7754, 113.7092
137.2575, 125.7452
137.7396, 137.6917
138.2217, 149.4092
138.7039, 163.9481
139.1860, 182.0150
139.6681, 201.8389
140.1502, 221.1148
140.6323, 239.3988
141.1144, 257.9902
141.5966, 277.8544
142.0787, 299.6184
142.5608, 319.3381
143.0429, 336.7142
143.5250, 352.1883
144.0071, 366.5070
144.4893, 379.1661
144.9714, 391.2859
145.4535, 403.0078
145.9356, 413.4921
146.4177, 425.5624
146.8998, 439.9298
147.3820, 456.0220
147.8641, 472.0760
148.3462, 487.2220
148.8283, 502.9430
149.3104, 520.2369
149.7925, 540.0613
150.2747, 560.1086
150.7568, 580.0630
151.2389, 599.9229
151.7210, 619.6778
152.2031, 638.7510
152.6852, 657.8624
153.1674, 677.6763
153.6495, 699.8504
154.1316, 720.8394
154.6137, 739.9296
155.0958, 757.0875
155.5779, 773.7587
156.0601, 790.4012
156.5422, 806.5387
157.0243, 821.5636
157.5064, 835.1575
157.9885, 847.8376
158.4706, 859.2670
158.9528, 869.2145
159.4349, 879.9894
159.9170, 890.5352
160.3991, 902.7069
160.8812, 918.6491
161.3633, 942.8671
161.8455, 967.8730
162.3276, 990.8167
162.8097, 1011.086
163.2918, 1029.462
163.7739, 1048.059
164.2560, 1063.396
164.7382, 1065.232
165.2203, 1057.445
165.7024, 1044.218
166.1845, 1026.208
166.6666, 1002.840
167.1487, 977.1614
167.6309, 948.3705
168.1130, 918.1190
168.5951, 890.4372
169.0772, 866.2460
169.5593, 845.4835
170.0414, 828.3536
170.5236, 815.3621
171.0057, 804.5472
171.4878, 794.8517
171.9699, 786.0750
172.4520, 777.8488
172.9341, 769.1295
173.4163, 761.0092
173.8984, 754.7933
174.3805, 750.8568
174.8626, 748.6235
175.3447, 747.7826
175.8268, 748.1850
176.3090, 749.2145
176.7911, 750.4339
177.2732, 751.9814
177.7553, 754.0854
178.2374, 756.8273
178.7195, 760.1103
179.2017, 763.8516
179.6838, 768.0670
180.1659, 772.6346
180.6480, 776.7117
181.1301, 781.0487
181.6122, 787.7726
182.0944, 799.1519
182.5765, 811.9938
183.0586, 820.3613
183.5407, 824.1757
184.0228, 827.8932
184.5049, 835.6735
184.9871, 846.7086
185.4692, 857.8654
185.9513, 868.6744
186.4334, 878.8348
186.9155, 888.0295
187.3976, 896.2406
187.8798, 903.2695
188.3619, 908.6175
188.8440, 912.4911
189.3261, 915.8480
189.8082, 919.2086
190.2903, 922.3303
190.7725, 924.0358
191.2546, 924.1061
191.7367, 924.0294
192.2188, 925.9672
192.7009, 929.7971
193.1830, 932.8846
193.6652, 933.7754
194.1473, 932.9258
194.6294, 933.1322
195.1115, 934.4594
195.5936, 936.5979
196.0757, 939.1396
196.5579, 942.0739
197.0400, 945.6315
197.5221, 949.8063
198.0042, 954.5964
198.4863, 960.4557
198.9684, 967.4365
199.4506, 975.3417
199.9327, 983.9875
200.4148, 993.4994
200.8969, 1002.938
201.3790, 1011.935
201.8611, 1020.421
202.3433, 1029.302
202.8254, 1038.827
203.3075, 1048.355
203.7896, 1056.955
204.2717, 1064.835
204.7538, 1070.946
205.2360, 1074.380
205.7181, 1074.805
206.2002, 1075.456
206.6823, 1076.229
207.1644, 1077.335
207.6465, 1079.035
208.1287, 1081.144
208.6108, 1084.423
209.0929, 1089.277
209.5750, 1095.873
210.0571, 1103.449
210.5392, 1112.321
211.0214, 1121.980
211.5035, 1131.109
211.9856, 1138.984
212.4677, 1148.126
212.9498, 1160.419
213.4319, 1177.102
213.9140, 1191.230
214.3962, 1202.406
214.8783, 1211.255
215.3604, 1219.252
215.8425, 1227.097
216.3246, 1232.647
216.8067, 1235.012
217.2889, 1234.039
217.7710, 1230.122
218.2531, 1222.464
218.7352, 1212.257
219.2173, 1202.078
219.6994, 1191.791
220.1816, 1181.682
220.6637, 1171.701
221.1458, 1161.772
221.6279, 1152.130
222.1100, 1142.727
222.5921, 1133.625
223.0743, 1124.521
223.5564, 1114.920
224.0385, 1106.350
224.5206, 1100.005
225.0027, 1097.036
225.4848, 1092.873
225.9670, 1086.609
226.4491, 1079.445
226.9312, 1074.690
227.4133, 1073.921
227.8954, 1073.044
228.3775, 1070.111
228.8597, 1064.148
229.3418, 1058.337
229.8239, 1052.782
230.3060, 1047.312
230.7881, 1041.710
231.2702, 1036.060
231.7524, 1029.951
232.2345, 1022.870
232.7166, 1012.853
233.1987, 1006.307
233.6808, 1004.698
234.1629, 1006.200
234.6451, 1005.740
235.1272, 1001.655
235.6093, 998.1352
236.0914, 997.2045
236.5735, 1000.294
237.0556, 1002.724
237.5378, 1003.961
238.0199, 1004.737
238.5020, 1006.841
238.9841, 1010.475
239.4662, 1015.213
239.9483, 1020.989
240.4305, 1028.066
240.9126, 1035.399
241.3947, 1042.870
241.8768, 1050.613
242.3589, 1058.923
242.8410, 1067.552
243.3232, 1077.051
243.8053, 1087.588
244.2874, 1099.327
244.7695, 1111.770
245.2516, 1125.136
245.7337, 1139.183
246.2159, 1153.387
246.6980, 1167.796
247.1801, 1182.338
247.6622, 1197.019
248.1443, 1211.661
248.6264, 1227.142
249.1086, 1243.786
249.5907, 1261.224
250.0728, 1278.809
250.5549, 1296.983
251.0370, 1314.564
251.5191, 1331.116
252.0013, 1346.246
252.4834, 1361.260
252.9655, 1376.679
253.4476, 1391.504
253.9297, 1403.865
254.4118, 1413.547
254.8940, 1420.881
255.3761, 1425.641
255.8582, 1427.223
256.3403, 1428.815
256.8224, 1431.142
257.3046, 1432.952
257.7867, 1432.033
258.2688, 1427.729
258.7509, 1422.118
259.2330, 1415.776
259.7151, 1408.580
260.1973, 1401.414
260.6794, 1394.943
261.1615, 1388.047
261.6436, 1378.875
262.1257, 1366.081
262.6078, 1354.150
263.0900, 1344.910
263.5721, 1338.665
264.0542, 1331.096
264.5363, 1321.420
265.0184, 1311.231
265.5005, 1302.168
265.9827, 1294.353
266.4648, 1287.446
266.9469, 1281.224
267.4290, 1275.669
267.9111, 1272.090
268.3932, 1270.957
268.8754, 1271.108
269.3575, 1270.996
269.8396, 1270.097
270.3217, 1270.954
270.8038, 1274.602
271.2859, 1280.915
271.7681, 1286.309
272.2502, 1289.988
272.7323, 1294.412
273.2144, 1302.431
273.6965, 1314.787
274.1786, 1326.833
274.6608, 1337.515
275.1429, 1347.059
275.6250, 1357.527
276.1071, 1369.096
276.5892, 1381.055
277.0714, 1393.087
277.5535, 1405.535
278.0356, 1415.406
278.5177, 1421.515
278.9998, 1424.803
279.4819, 1429.477
279.9641, 1436.114
280.4462, 1441.983
280.9283, 1445.203
281.4104, 1445.755
281.8925, 1443.699
282.3746, 1438.420
282.8568, 1431.015
283.3389, 1424.862
283.8210, 1420.202
284.3031, 1414.844
284.7852, 1407.000
285.2673, 1396.826
285.7495, 1386.050
286.2316, 1374.548
286.7137, 1362.964
287.1958, 1352.508
287.6779, 1343.165
288.1600, 1334.929
288.6422, 1328.421
289.1243, 1323.258
289.6064, 1316.806
290.0885, 1308.200
290.5706, 1299.654
291.0527, 1294.642
291.5349, 1293.076
292.0170, 1293.526
292.4991, 1295.368
292.9812, 1298.649
293.4633, 1303.427
293.9454, 1309.734
294.4276, 1317.568
294.9097, 1326.945
295.3918, 1337.831
295.8739, 1349.904
296.3560, 1363.002
296.8381, 1377.141
297.3203, 1392.160
297.8024, 1408.009
298.2845, 1424.405
298.7666, 1441.372
299.2487, 1458.569
299.7308, 1475.483
300.2130, 1491.959
300.6951, 1507.993
301.1772, 1524.092
301.6593, 1540.200
302.1414, 1555.122
302.6235, 1568.447
303.1057, 1579.723
303.5878, 1587.641
304.0699, 1591.003
304.5520, 1591.564
305.0341, 1591.103
305.5162, 1589.629
305.9984, 1587.090
306.4805, 1582.807
306.9626, 1577.597
307.4447, 1572.792
307.9268, 1569.389
308.4089, 1565.512
308.8911, 1559.055
309.3732, 1550.502
309.8553, 1541.880
310.3374, 1534.988
310.8195, 1528.306
311.3016, 1520.349
311.7838, 1510.528
312.2659, 1500.032
312.7480, 1489.570
313.2301, 1479.160
313.7122, 1468.607
314.1943, 1457.322
314.6765, 1446.111
315.1586, 1435.580
315.6407, 1426.018
316.1228, 1416.561
316.6049, 1406.343
317.0870, 1396.057
317.5692, 1386.993
318.0513, 1380.885
318.5334, 1374.929
319.0155, 1367.586
319.4976, 1358.415
319.9797, 1349.505
320.4619, 1342.302
320.9440, 1335.377
321.4261, 1327.236
321.9082, 1315.626
322.3903, 1304.473
322.8724, 1295.576
323.3546, 1289.042
323.8367, 1281.260
324.3188, 1270.244
324.8009, 1258.430
325.2830, 1247.814
325.7651, 1237.500
326.2473, 1229.588
326.7294, 1225.221
327.2115, 1224.011
327.6936, 1222.791
328.1757, 1220.494
328.6578, 1218.841
329.1400, 1218.698
329.6221, 1221.368
330.1042, 1223.776
330.5863, 1225.721
331.0684, 1227.377
331.5505, 1229.213
332.0327, 1230.969
332.5148, 1233.192
332.9969, 1236.434
333.4790, 1241.822
333.9611, 1244.953
334.4432, 1245.841
334.9254, 1244.435
335.4075, 1240.723
335.8896, 1234.799
336.3717, 1226.292
336.8538, 1214.686
337.3359, 1199.561
337.8180, 1185.009
338.3001, 1171.673
338.7823, 1157.991
339.2644, 1142.372
339.7465, 1124.488
340.2286, 1105.621
340.7107, 1085.775
341.1928, 1065.026
341.6750, 1046.016
342.1571, 1028.646
342.6392, 1012.333
343.1213, 996.2381
343.6034, 980.4745
344.0855, 965.7062
344.5677, 952.1378
345.0498, 939.6796
345.5319, 928.5064
346.0140, 918.6260
346.4961, 909.8251
346.9782, 902.4084
347.4604, 896.0579
347.9425, 889.3143
348.4246, 881.6826
348.9067, 874.5479
349.3888, 870.4867
349.8709, 868.9947
350.3531, 867.2281
350.8352, 862.7094
351.3173, 857.1954
351.7994, 854.2802
352.2815, 854.2363
352.7636, 855.1682
353.2458, 855.3270
353.7279, 855.0936
354.2100, 855.2997
354.6921, 856.5859
355.1742, 858.2225
355.6563, 859.1744
356.1385, 859.5491
356.6206, 860.5481
357.1027, 863.7831
357.5848, 867.8035
358.0669, 870.9130
358.5490, 872.3100
359.0312, 873.1956
359.5133, 873.8371
359.9954, 874.4871
360.4775, 875.9372
360.9596, 879.3043
361.4417, 883.1094
361.9239, 886.4025
362.4060, 888.9776
362.8881, 891.1911
363.3702, 892.9557
363.8523, 894.4814
364.3344, 896.0922
364.8166, 898.0092
365.2987, 899.9302
365.7808, 901.6327
366.2629, 903.0744
366.7450, 904.7803
367.2271, 907.9329
367.7093, 910.8642
368.1914, 912.1080
368.6735, 909.1066
369.1556, 907.1269
369.6377, 907.2678
370.1198, 909.2812
370.6020, 911.0963
371.0841, 912.8417
371.5662, 914.2759
372.0483, 915.1784
372.5304, 914.8851
373.0125, 915.3723
373.4947, 917.1455
373.9768, 919.5450
374.4589, 921.0072
374.9410, 921.2141
375.4231, 921.1320
375.9052, 921.1088
376.3874, 921.1639
376.8695, 920.9905
377.3516, 920.2634
377.8337, 919.8602
378.3158, 921.5573
378.7979, 925.8862
379.2801, 928.2072
379.7622, 926.5107
380.2443, 921.9083
380.7264, 919.2203
381.2085, 918.5456
381.6906, 919.1956
382.1728, 920.8635
382.6549, 923.4619
383.1370, 926.3489
383.6191, 929.4355
384.1012, 932.7649
384.5833, 936.3107
385.0655, 940.1419
385.5476, 944.6765
386.0297, 950.9091
386.5118, 957.8868
386.9939, 963.6844
387.4760, 967.9026
387.9582, 972.4418
388.4403, 979.2699
388.9224, 987.8143
389.4045, 996.7977
389.8866, 1005.719
390.3687, 1014.929
390.8509, 1024.613
391.3330, 1034.720
391.8151, 1045.249
392.2972, 1055.810
392.7793, 1066.856
393.2614, 1078.964
393.7436, 1093.016
394.2257, 1106.861
394.7078, 1118.984
395.1899, 1130.056
395.6720, 1141.840
396.1541, 1154.531
396.6363, 1168.364
397.1184, 1183.760
397.6005, 1201.458
398.0826, 1218.549
398.5647, 1234.426
399.0468, 1249.536
399.5290, 1264.415
400.0111, 1278.671
400.4932, 1293.167
400.9753, 1307.983
401.4574, 1323.181
401.9395, 1338.940
402.4217, 1356.919
402.9038, 1373.838
403.3859, 1387.307
403.8680, 1395.905
404.3501, 1404.544
404.8322, 1414.064
405.3144, 1423.524
405.7965, 1430.156
406.2786, 1433.740
406.7607, 1435.373
407.2428, 1435.293
407.7249, 1433.459
408.2071, 1430.827
408.6892, 1427.273
409.1713, 1423.238
409.6534, 1419.426
410.1355, 1415.803
410.6176, 1411.386
411.0998, 1405.648
411.5819, 1399.055
412.0640, 1393.077
412.5461, 1387.700
413.0282, 1381.237
413.5103, 1371.024
413.9925, 1359.056
414.4746, 1349.715
414.9567, 1344.371
415.4388, 1339.800
415.9209, 1332.458
416.4030, 1323.205
416.8852, 1313.953
417.3673, 1306.141
417.8494, 1298.556
418.3315, 1290.109
418.8136, 1280.807
419.2957, 1271.017
419.7779, 1261.264
420.2600, 1251.065
420.7421, 1240.100
421.2242, 1227.597
421.7063, 1214.924
422.1884, 1202.435
422.6706, 1190.079
423.1527, 1177.135
423.6348, 1162.051
424.1169, 1147.650
424.5990, 1135.094
425.0811, 1124.975
425.5633, 1115.810
426.0454, 1107.179
426.5275, 1099.625
427.0096, 1093.802
427.4917, 1090.469
427.9738, 1087.787
428.4560, 1085.304
428.9381, 1083.035
429.4202, 1081.811
429.9023, 1081.544
430.3844, 1082.472
430.8665, 1084.975
431.3487, 1089.267
431.8308, 1093.740
432.3129, 1098.140
432.7950, 1102.773
433.2771, 1108.810
433.7592, 1116.301
434.2414, 1122.432
434.7235, 1126.336
435.2056, 1127.856
435.6877, 1126.460
436.1698, 1122.181
436.6519, 1114.779
437.1341, 1103.482
437.6162, 1088.934
438.0983, 1072.381
438.5804, 1053.643
439.0625, 1033.832
439.5446, 1013.589
440.0268, 993.1936
440.5089, 973.6505
440.9910, 955.6495
441.4731, 938.7472
441.9552, 921.8959
442.4373, 904.7996
442.9195, 889.7903
443.4016, 879.1691
443.8837, 870.9756
444.3658, 862.8260
444.8479, 853.5903
445.3300, 844.7240
445.8122, 836.3482
446.2943, 828.6019
446.7764, 821.9443
447.2585, 817.0457
447.7406, 812.7896
448.2227, 808.6264
448.7049, 804.5779
449.1870, 800.5992
449.6691, 796.4973
450.1512, 792.5782
450.6333, 789.4777
451.1154, 787.5607
451.5976, 785.5837
452.0797, 783.0009
452.5618, 779.9167
453.0439, 778.1069
453.5260, 777.7172
454.0081, 778.2327
454.4903, 779.5986
454.9724, 781.7858
455.4545, 783.3264
455.9366, 783.7277
456.4187, 784.0483
456.9008, 786.5753
457.3830, 791.0169
457.8651, 794.8229
458.3472, 795.9151
458.8293, 795.8971
459.3114, 797.8396
459.7935, 801.7409
460.2757, 806.2271
460.7578, 809.9869
461.2399, 813.6738
461.7220, 818.2226
462.2041, 824.2128
462.6862, 830.6288
463.1684, 836.7280
463.6505, 842.7784
464.1326, 849.2637
464.6147, 855.8604
465.0968, 863.3995
465.5789, 872.7542
466.0611, 884.3725
466.5432, 894.6352
467.0253, 901.4919
467.5074, 907.3124
467.9895, 914.0364
468.4716, 921.7621
468.9538, 930.5790
469.4359, 940.7243
469.9180, 951.8768
470.4001, 963.1530
470.8822, 974.5552
471.3643, 985.9784
471.8465, 997.4130
472.3286, 1008.883
472.8107, 1020.215
473.2928, 1031.147
473.7749, 1042.283
474.2570, 1054.534
474.7392, 1067.893
475.2213, 1079.931
475.7034, 1089.699
476.1855, 1098.375
476.6676, 1108.659
477.1497, 1120.393
477.6319, 1131.617
478.1140, 1141.499
478.5961, 1150.103
479.0782, 1157.320
479.5603, 1163.078
480.0424, 1168.256
480.5246, 1174.531
481.0067, 1180.404
481.4888, 1183.745
481.9709, 1182.754
482.4530, 1180.403
482.9352, 1178.422
483.4173, 1176.353
483.8994, 1172.742
484.3815, 1166.594
484.8636, 1159.180
485.3457, 1150.902
485.8279, 1141.459
486.3100, 1132.310
486.7921, 1123.426
487.2742, 1114.993
487.7563, 1107.076
488.2384, 1099.451
488.7206, 1092.691
489.2027, 1086.888
489.6848, 1081.990
490.1669, 1078.077
490.6490, 1075.542
491.1311, 1072.930
491.6133, 1069.505
492.0954, 1065.279
492.5775, 1061.149
493.0596, 1057.065
493.5417, 1053.424
494.0238, 1051.185
494.5060, 1049.937
494.9881, 1047.911
495.4702, 1045.023
495.9523, 1040.617
496.4344, 1033.949
496.9165, 1025.031
497.3987, 1013.962
497.8808, 999.4681
498.3629, 983.5097
498.8450, 968.1799
499.3271, 953.5616
499.8092, 937.9902
500.2914, 918.9637
500.7735, 899.2380
501.2556, 880.9223
501.7377, 866.3401
502.2198, 851.3428
502.7019, 834.0226
503.1841, 815.5066
503.6662, 798.7546
504.1483, 784.4444
504.6304, 771.1582
505.1125, 758.5667
505.5946, 746.6104
506.0768, 736.0580
506.5589, 727.5306
507.0410, 719.6197
507.5231, 710.9095
508.0052, 701.0829
508.4873, 692.8563
508.9695, 686.9307
509.4516, 682.3543
509.9337, 677.4403
510.4158, 672.2220
510.8979, 667.3824
511.3800, 663.5792
511.8622, 660.1979
512.3443, 655.3693
512.8264, 649.2319
513.3085, 643.6833
513.7906, 640.4504
514.2728, 638.5736
514.7549, 636.9603
515.2370, 635.6163
515.7191, 633.8575
516.2012, 630.7216
516.6833, 627.0202
517.1655, 623.9468
517.6476, 622.6496
518.1297, 621.2989
518.6118, 619.0813
519.0939, 616.0925
519.5760, 613.5368
520.0582, 611.7368
520.5403, 610.2753
521.0224, 609.0763
521.5045, 608.3574
521.9866, 607.2023
522.4688, 605.3936
522.9509, 603.3776
523.4330, 601.5885
523.9151, 599.9720
524.3972, 598.9063
524.8793, 598.6304
525.3615, 598.8307
525.8436, 598.6536
526.3257, 598.1036
526.8078, 597.6017
527.2899, 597.4168
527.7720, 597.4518
528.2542, 597.6176
528.7363, 597.9281
529.2184, 597.9352
529.7005, 596.4810
530.1826, 594.7408
530.6647, 594.4423
531.1469, 596.9014
531.6290, 599.5035
532.1111, 600.5215
532.5932, 600.6455
533.0753, 601.2789
533.5574, 603.3820
534.0396, 605.5297
534.5217, 607.1689
535.0038, 608.2215
535.4859, 609.5477
535.9680, 611.4037
536.4501, 613.2803
536.9323, 614.8156
537.4144, 615.7130
537.8965, 617.1264
538.3786, 619.0840
538.8607, 621.5494
539.3428, 624.6954
539.8250, 628.6472
540.3071, 631.9266
540.7892, 633.7556
541.2713, 634.9098
541.7534, 637.1843
542.2355, 640.5266
542.7177, 644.3333
543.1998, 648.4373
543.6819, 652.7394
544.1640, 657.1536
544.6461, 661.6934
545.1282, 666.0066
545.6104, 669.6600
546.0925, 672.9717
546.5746, 676.3094
547.0567, 679.9713
547.5388, 683.3828
548.0209, 686.1115
548.5031, 688.4258
548.9852, 690.9819
549.4673, 694.9400
549.9494, 698.0080
550.4315, 699.5118
550.9136, 699.4578
551.3958, 699.0667
551.8779, 698.4211
552.3600, 697.3007
552.8421, 695.6430
553.3242, 693.4935
553.8063, 690.2694
554.2885, 685.7776
554.7706, 680.6791
555.2527, 675.6161
555.7348, 670.6434
556.2169, 666.1174
556.6990, 662.3307
557.1812, 658.8759
557.6633, 654.8157
558.1454, 650.4932
558.6275, 647.1906
559.1096, 646.4501
559.5917, 646.5068
560.0739, 646.1180
560.5560, 645.1939
561.0381, 643.7626
561.5202, 641.3619
562.0023, 638.7654
562.4844, 636.5286
562.9666, 634.5021
563.4487, 633.2009
563.9308, 632.9643
564.4129, 633.2980
564.8950, 633.5065
565.3771, 633.6672
565.8593, 633.4630
566.3414, 632.5817
566.8235, 631.3040
567.3056, 630.9988
567.7877, 631.7751
568.2698, 632.7208
568.7520, 633.2950
569.2341, 633.5919
569.7162, 633.9757
570.1983, 634.4555
570.6804, 635.0408
571.1625, 635.8318
571.6447, 636.7122
572.1268, 637.4343
572.6089, 637.7645
573.0910, 638.3359
573.5731, 639.8215
574.0552, 641.7928
574.5374, 643.5307
575.0195, 644.1518
575.5016, 645.1561
575.9837, 647.4894
576.4658, 650.9729
576.9479, 653.3586
577.4301, 653.7571
577.9122, 654.0294
578.3943, 654.8698
578.8764, 656.2398
579.3585, 658.5184
579.8406, 661.9567
580.3228, 665.7415
580.8049, 668.8082
581.2870, 671.2195
581.7691, 674.5833
582.2512, 679.3740
582.7333, 684.6676
583.2155, 689.3936
583.6975, 693.4688
584.1796, 696.8761
584.6617, 698.3005
585.1439, 699.9283
585.6260, 704.1553
586.1081, 710.5292
586.5902, 716.7688
587.0723, 721.2752
587.5544, 725.7272
588.0366, 731.2340
588.5187, 738.0889
589.0008, 745.0945
589.4829, 752.0889
589.9650, 759.2174
590.4471, 766.5417
590.9293, 773.8492
591.4114, 781.9420
591.8935, 791.0386
592.3756, 800.8442
592.8577, 810.7047
593.3398, 820.4813
593.8220, 831.2766
594.3041, 843.5013
594.7862, 856.9091
595.2683, 871.1692
595.7504, 886.1168
596.2325, 901.4572
596.7147, 916.9975
597.1968, 932.7709
597.6789, 948.9469
598.1610, 965.5338
598.6431, 982.8604
599.1252, 1001.204
599.6074, 1020.102
600.0895, 1039.193
600.5716, 1057.332
601.0537, 1077.644
601.5358, 1101.746
602.0179, 1127.691
602.5001, 1152.767
602.9822, 1175.307
603.4643, 1200.064
603.9464, 1228.855
604.4285, 1260.077
604.9106, 1288.996
605.3928, 1314.966
605.8749, 1342.110
606.3570, 1374.074
606.8391, 1408.608
607.3212, 1438.741
607.8033, 1464.444
608.2855, 1488.015
608.7676, 1512.004
609.2497, 1534.298
609.7318, 1552.038
610.2139, 1565.068
610.6960, 1573.068
611.1782, 1575.096
611.6603, 1572.404
612.1424, 1566.304
612.6245, 1555.986
613.1066, 1543.660
613.5887, 1529.630
614.0709, 1513.792
614.5530, 1495.067
615.0351, 1472.444
615.5172, 1449.716
615.9993, 1427.081
616.4814, 1405.089
616.9636, 1386.302
617.4457, 1370.891
617.9278, 1357.444
618.4099, 1345.411
618.8920, 1334.829
619.3741, 1325.515
619.8563, 1317.387
620.3384, 1310.481
620.8205, 1304.784
621.3026, 1300.301
621.7847, 1296.962
622.2668, 1294.482
622.7490, 1293.756
623.2311, 1296.402
623.7132, 1300.557
624.1953, 1303.851
624.6774, 1304.865
625.1595, 1306.237
625.6417, 1308.333
626.1238, 1310.998
626.6059, 1313.957
627.0880, 1317.655
627.5701, 1320.388
628.0522, 1321.438
628.5344, 1321.047
629.0165, 1320.770
629.4986, 1320.652
629.9807, 1318.881
630.4628, 1314.275
630.9449, 1307.096
631.4271, 1297.858
631.9092, 1286.608
632.3913, 1272.763
632.8734, 1255.849
633.3555, 1236.160
633.8376, 1213.534
634.3198, 1187.245
634.8019, 1159.899
635.2840, 1131.489
635.7661, 1102.735
636.2482, 1074.101
636.7303, 1044.890
637.2125, 1017.036
637.6946, 990.9002
638.1767, 966.2222
638.6588, 941.8057
639.1409, 917.2399
639.6230, 894.5034
640.1052, 874.3949
640.5873, 856.4175
641.0694, 839.3213
641.5515, 823.0472
642.0336, 808.4830
642.5157, 796.8235
642.9979, 786.8202
643.4800, 777.4013
643.9621, 768.3962
644.4442, 759.7471
644.9263, 751.0167
645.4084, 742.7399
645.8906, 735.4472
646.3727, 729.7070
646.8548, 724.0151
647.3369, 717.8907
647.8190, 711.9915
648.3011, 707.2969
648.7833, 704.1232
649.2654, 700.8875
649.7475, 697.2092
650.2296, 693.4368
650.7117, 690.2288
651.1938, 687.5278
651.6760, 685.0452
652.1581, 683.0272
652.6402, 680.8345
653.1223, 677.0596
653.6044, 672.1389
654.0865, 667.6592
654.5687, 664.9404
655.0508, 662.7073
655.5329, 659.8597
656.0150, 656.2972
656.4971, 653.7808
656.9792, 654.0129
657.4614, 654.3260
657.9435, 653.1391
658.4256, 649.7512
658.9077, 647.3825
659.3898, 646.4271
659.8719, 645.7838
660.3541, 644.2352
660.8362, 641.8182
661.3183, 639.5748
661.8004, 637.7073
662.2825, 635.9952
662.7646, 633.9230
663.2468, 631.7899
663.7289, 630.3956
664.2110, 630.8461
664.6931, 631.1054
665.1752, 629.2850
665.6573, 626.2040
666.1395, 623.7527
666.6216, 623.0634
667.1037, 622.5198
667.5858, 621.6961
668.0679, 620.5971
668.5500, 619.1967
669.0322, 617.0653
669.5143, 615.4679
669.9964, 615.1943
670.4785, 616.1229
670.9606, 616.3367
671.4427, 615.7962
671.9249, 614.8455
672.4070, 613.4563
672.8891, 611.9012
673.3712, 610.7605
673.8533, 610.0818
674.3354, 609.8043
674.8176, 610.3613
675.2997, 611.0589
675.7818, 611.1236
676.2639, 609.9919
676.7460, 608.9755
677.2281, 608.6422
677.7103, 608.4819
678.1924, 607.8661
678.6745, 606.5927
679.1566, 605.2728
679.6387, 603.7640
680.1208, 602.4547
680.6030, 602.2328
681.0851, 603.0940
681.5672, 604.4947
682.0493, 606.8215
682.5314, 608.9919
683.0135, 608.4590
683.4957, 605.8866
683.9778, 603.9255
684.4599, 605.2927
684.9420, 606.7260
685.4241, 605.4217
685.9063, 601.5658
686.3884, 598.7705
686.8705, 598.5582
687.3526, 599.1441
687.8347, 599.8641
688.3168, 600.7979
688.7990, 601.3155
689.2811, 601.3121
689.7632, 601.1707
690.2453, 601.0605
690.7274, 601.0134
691.2095, 601.7079
691.6917, 603.3356
692.1738, 604.5831
692.6559, 603.4760
693.1380, 601.1614
693.6201, 599.6880
694.1022, 599.8640
694.5844, 599.9605
695.0665, 598.4861
695.5486, 596.5226
696.0307, 595.4555
696.5128, 596.3227
696.9949, 597.1867
697.4771, 597.9786
697.9592, 598.6058
698.4413, 598.7690
698.9234, 598.2831
699.4055, 598.1514
699.8876, 598.8644
700.3698, 599.8959
700.8519, 599.6332
701.3340, 598.2936
701.8161, 597.3095
702.2982, 598.0638
702.7803, 599.1416
703.2625, 598.6995
703.7446, 597.0644
704.2267, 595.9277
704.7088, 596.1282
705.1909, 596.9361
705.6730, 598.1852
706.1552, 599.9197
706.6373, 601.2081
707.1194, 601.7998
707.6015, 602.2839
708.0836, 603.0383
708.5657, 604.0861
709.0479, 604.6812
709.5300, 604.7839
710.0121, 604.5901
710.4942, 603.9724
710.9763, 603.2225
711.4584, 603.2357
711.9406, 604.2557
712.4227, 604.9443
712.9048, 603.7005
713.3869, 601.9193
713.8690, 601.1003
714.3511, 602.1478
714.8333, 603.1691
715.3154, 604.0311
715.7975, 604.6042
716.2796, 604.6879
716.7617, 604.1050
717.2438, 603.6228
717.7260, 603.3707
718.2081, 603.2366
718.6902, 603.0001
719.1723, 602.6862
719.6544, 602.4482
720.1365, 602.2365
720.6187, 602.2695
721.1008, 603.0114
721.5829, 604.1889
722.0650, 605.1874
722.5471, 605.5051
723.0292, 605.7963
723.5114, 606.4288
723.9935, 607.2722
724.4756, 607.7757
724.9577, 607.7888
725.4398, 607.6222
725.9219, 607.1739
726.4041, 606.6045
726.8862, 607.0073
727.3683, 608.4768
727.8504, 609.9459
728.3325, 611.0037
728.8146, 611.6086
729.2968, 611.3558
729.7789, 610.3654
730.2610, 609.6578
730.7431, 610.1623
731.2252, 610.9828
731.7073, 611.4498
732.1895, 611.4686
732.6716, 611.5695
733.1537, 612.1061
733.6358, 612.4949
734.1179, 612.4391
734.6000, 611.8818
735.0822, 610.9371
735.5643, 609.3282
736.0464, 608.2286
736.5285, 609.1599
737.0106, 611.5475
737.4927, 613.2159
737.9749, 613.9254
738.4570, 614.2021
738.9391, 614.4478
739.4212, 614.5575
739.9033, 614.3170
740.3854, 613.3575
740.8676, 612.9032
741.3497, 613.8270
741.8318, 615.1461
742.3139, 615.7966
742.7960, 615.2816
743.2781, 615.3539
743.7603, 616.2178
744.2424, 617.5206
744.7245, 619.0616
745.2066, 620.7086
745.6887, 621.3865
746.1708, 620.5139
746.6530, 619.3945
747.1351, 619.5027
747.6172, 620.4229
748.0993, 621.4412
748.5814, 622.4026
749.0635, 623.2919
749.5457, 624.2921
750.0278, 625.2022
750.5099, 625.5444
750.9920, 624.8796
751.4741, 624.5748
751.9562, 625.1024
752.4384, 625.9835
752.9205, 625.7579
753.4026, 624.4700
753.8847, 623.6200
754.3668, 624.0154
754.8489, 624.9130
755.3311, 625.1387
755.8132, 624.9543
756.2953, 625.1155
756.7774, 626.8290
757.2595, 628.1360
757.7416, 627.4589
758.2238, 625.3209
758.7059, 624.7579
759.1880, 626.9250
759.6701, 629.0102
760.1522, 630.1282
760.6343, 630.4927
761.1165, 631.3399
761.5986, 632.6871
762.0807, 634.0464
762.5628, 635.3132
763.0449, 636.3423
763.5270, 636.8509
764.0092, 636.8731
764.4913, 636.6089
764.9734, 635.7931
765.4555, 635.0417
765.9376, 634.6517
766.4197, 634.6417
766.9019, 635.2012
767.3840, 637.0623
767.8661, 638.4103
768.3482, 638.0820
768.8303, 636.2035
769.3124, 636.2668
769.7946, 638.4252
770.2767, 640.6569
770.7588, 641.6348
771.2409, 641.6848
771.7230, 641.0543
772.2051, 639.8196
772.6873, 639.0284
773.1694, 639.5871
773.6515, 640.5734
774.1336, 641.3265
774.6157, 641.6818
775.0978, 642.4750
775.5800, 643.9727
776.0621, 645.5696
776.5442, 647.0338
777.0263, 648.3879
777.5084, 648.9911
777.9905, 648.7989
778.4727, 648.3127
778.9548, 647.7672
779.4369, 647.2877
779.9190, 647.1719
780.4011, 647.4708
780.8832, 647.7203
781.3654, 647.4503
781.8475, 647.1844
782.3296, 647.4254
782.8117, 648.6154
783.2938, 649.0018
783.7759, 648.0547
784.2581, 647.0597
784.7402, 647.0676
785.2223, 648.0805
785.7044, 649.0828
786.1865, 650.0457
786.6686, 650.8167
787.1508, 650.9988
787.6329, 650.9705
788.1150, 651.6141
788.5971, 653.2961
789.0792, 653.9562
789.5613, 650.6705
790.0435, 647.2073
790.5256, 646.9601
791.0077, 652.0532
791.4898, 654.9294
791.9719, 654.9492
792.4540, 653.7655
792.9362, 652.5594
793.4183, 651.3724
793.9004, 651.0889
794.3825, 651.8825
794.8646, 652.6567
795.3467, 652.0696
795.8289, 650.9564
796.3110, 650.5518
796.7931, 651.2816
797.2752, 651.7947
797.7573, 651.6612
798.2394, 651.0752
798.7216, 650.1326
799.2037, 648.3901
799.6858, 647.5162
800.1679, 647.6682
800.6500, 648.3235
801.1321, 649.1717
801.6143, 650.1120
802.0964, 650.7238
802.5785, 650.9648
803.0606, 650.7606
803.5427, 649.2457
804.0248, 647.6516
804.5070, 647.5452
804.9891, 649.9336
805.4712, 651.5685
805.9533, 651.5822
806.4354, 650.7200
806.9175, 649.2701
807.3997, 646.8494
807.8818, 645.6157
808.3639, 645.7820
808.8460, 646.5936
809.3281, 647.7538
809.8102, 648.9080
810.2924, 648.8753
810.7745, 647.3538
811.2566, 646.0416
811.7387, 646.5782
812.2208, 647.6086
812.7029, 647.8994
813.1851, 646.9623
813.6672, 646.0081
814.1493, 644.5670
814.6314, 643.7430
815.1135, 644.9379
815.5956, 648.3141
816.0778, 649.4659
816.5599, 647.9766
817.0420, 646.2703
817.5241, 646.9327
818.0062, 648.8073
818.4883, 650.1824
818.9705, 650.8079
819.4526, 651.0469
819.9347, 650.8555
820.4168, 650.5016
820.8989, 650.1683
821.3810, 649.8768
821.8632, 649.5019
822.3453, 648.8347
822.8274, 648.5507
823.3095, 649.4203
823.7916, 651.2190
824.2737, 652.7083
824.7559, 653.8386
825.2380, 654.7134
825.7201, 655.2016
826.2022, 655.6025
826.6843, 656.2917
827.1664, 657.3751
827.6486, 658.1427
828.1307, 657.6027
828.6128, 657.5202
829.0949, 659.0802
829.5770, 662.4692
830.0591, 664.3263
830.5413, 664.4889
831.0234, 664.0330
831.5055, 663.4537
831.9876, 662.9160
832.4697, 662.6368
832.9518, 662.6481
833.4340, 663.2119
833.9161, 664.8068
834.3982, 666.7226
834.8803, 668.7217
835.3624, 670.7968
835.8445, 671.9949
836.3267, 671.7530
836.8088, 671.7498
837.2909, 673.0244
837.7730, 675.2620
838.2551, 676.4877
838.7372, 676.7613
839.2194, 676.9358
839.7015, 677.1788
840.1836, 677.8783
840.6657, 679.7800
841.1478, 682.6672
841.6299, 685.0798
842.1121, 686.2164
842.5942, 687.1754
843.0763, 688.4922
843.5584, 689.9753
844.0405, 690.1574
844.5226, 688.6866
845.0048, 688.4573
845.4869, 691.5877
845.9690, 696.0334
846.4511, 697.5367
846.9332, 696.8329
847.4153, 696.3222
847.8975, 698.0941
848.3796, 699.3909
848.8617, 698.6054
849.3438, 696.2317
849.8259, 694.0388
850.3080, 691.8458
850.7902, 690.3841
851.2723, 690.0284
851.7544, 690.2914
852.2365, 690.4282
852.7186, 690.3260
853.2007, 689.1839
853.6829, 686.1853
854.1650, 682.9459
854.6471, 680.7343
855.1292, 679.2723
855.6113, 678.0867
856.0934, 677.3334
856.5756, 676.5092
857.0577, 675.6696
857.5398, 674.6407
858.0219, 672.9423
858.5040, 670.4938
858.9861, 668.7238
859.4683, 667.9696
859.9504, 667.5123
860.4325, 666.3748
860.9146, 664.9431
861.3967, 663.9449
861.8788, 663.7717
862.3610, 663.4551
862.8431, 662.7382
863.3252, 661.6371
863.8073, 660.1878
864.2894, 658.2639
864.7715, 656.2618
865.2537, 654.0599
865.7358, 652.2125
866.2179, 651.5374
866.7000, 651.6257
867.1821, 651.3707
867.6642, 650.6598
868.1464, 649.7238
868.6285, 648.3152
869.1106, 647.0330
869.5927, 646.3460
870.0748, 646.4026
870.5569, 646.6894
871.0391, 647.6536
871.5212, 647.9823
872.0033, 646.4008
872.4854, 643.3046
872.9675, 642.1430
873.4496, 642.7560
873.9318, 643.0400
874.4139, 640.8550
874.8960, 638.2272
875.3781, 637.0040
875.8602, 637.0818
876.3423, 637.1827
876.8245, 636.6556
877.3066, 636.6026
877.7887, 637.7605
878.2708, 639.5551
878.7529, 639.2610
879.2350, 636.8877
879.7172, 634.7218
880.1993, 633.9777
880.6814, 633.7394
881.1635, 632.8547
881.6456, 631.5434
882.1277, 630.3111
882.6099, 629.0753
883.0920, 628.2812
883.5741, 628.3888
884.0562, 628.8621
884.5383, 628.7106
885.0204, 627.7283
885.5026, 627.6273
885.9847, 629.0270
886.4668, 630.4650
886.9489, 629.3754
887.4310, 626.9218
887.9131, 625.5139
888.3953, 625.9675
888.8774, 626.8978
889.3595, 628.3517
889.8416, 629.5865
890.3237, 629.8484
890.8058, 628.7050
891.2880, 627.7015
891.7701, 626.6723
892.2522, 626.3160
892.7343, 628.1312
893.2164, 631.0079
893.6985, 631.4700
894.1807, 629.2777
894.6628, 627.5647
895.1449, 629.4053
895.6270, 631.5577
896.1091, 631.5251
896.5912, 628.9459
897.0734, 627.6689
897.5555, 628.1110
898.0376, 628.9114
898.5197, 629.6702
899.0018, 630.2133
899.4839, 629.5574
899.9661, 627.9381
900.4482, 626.7288
900.9303, 627.1437
901.4124, 627.7910
901.8945, 627.6769
902.3766, 627.0447
902.8588, 626.7461
903.3409, 627.0889
903.8230, 627.3800
904.3051, 627.5458
904.7872, 627.5494
905.2693, 627.1634
905.7515, 626.4858
906.2336, 626.1526
906.7157, 626.4600
907.1978, 626.7985
907.6799, 626.4332
908.1620, 625.8820
908.6442, 625.7911
909.1263, 626.7034
909.6084, 627.4042
910.0905, 628.0681
910.5726, 628.2279
911.0547, 627.0413
911.5369, 624.7131
912.0190, 623.6464
912.5011, 624.0104
912.9832, 624.9404
913.4653, 626.2443
913.9474, 627.4268
914.4296, 627.8971
914.9117, 627.5718
915.3938, 627.4102
915.8759, 627.6227
916.3580, 627.8855
916.8401, 627.8962
917.3223, 627.8289
917.8044, 629.0224
918.2865, 631.3749
918.7686, 633.4568
919.2507, 634.5035
919.7328, 634.9238
920.2150, 634.7695
920.6971, 634.3173
921.1792, 634.2501
921.6613, 634.9288
922.1434, 635.8212
922.6255, 636.9270
923.1077, 638.1512
923.5898, 639.4510
924.0719, 640.7918
924.5540, 641.5291
925.0361, 641.3339
925.5182, 641.3465
926.0004, 643.4136
926.4825, 646.0026
926.9646, 647.0081
927.4467, 644.9042
927.9288, 644.5830
928.4109, 647.9267
928.8931, 651.4094
929.3752, 652.4522
929.8573, 651.1078
930.3394, 649.8893
930.8215, 648.8102
931.3036, 648.5526
931.7858, 650.7689
932.2679, 653.2298
932.7500, 653.4516
933.2321, 651.6672
933.7142, 650.3781
934.1964, 650.5690
934.6785, 650.7689
935.1606, 650.6481
935.6427, 650.2786
936.1248, 649.7294
936.6069, 649.0344
937.0891, 648.7813
937.5712, 649.3546
938.0533, 650.0467
938.5354, 649.7753
939.0175, 649.2988
939.4996, 649.7367
939.9818, 652.1577
940.4639, 654.3710
940.9460, 656.3295
941.4281, 657.9567
941.9102, 659.0612
942.3923, 659.6914
942.8745, 660.1780
943.3566, 660.5364
943.8387, 661.2120
944.3208, 662.7087
944.8029, 664.5665
945.2850, 666.4262
945.7672, 668.2442
946.2493, 670.1877
946.7314, 672.1385
947.2135, 674.4721
947.6956, 677.5842
948.1777, 681.0959
948.6599, 683.2484
949.1420, 684.2855
949.6241, 685.4938
950.1062, 686.7193
950.5883, 689.2214
951.0704, 694.7001
951.5526, 701.9066
952.0347, 708.4084
952.5168, 714.0009
952.9989, 718.8480
953.4810, 722.6486
953.9631, 726.3279
954.4453, 730.9732
954.9274, 736.4656
955.4095, 742.6589
955.8916, 749.5524
956.3737, 756.0316
956.8558, 760.4695
957.3380, 764.8658
957.8201, 770.8885
958.3022, 778.7059
958.7843, 786.4063
959.2664, 793.8134
959.7485, 801.8027
960.2307, 811.4262
960.7128, 821.5120
961.1949, 828.5540
961.6770, 833.4557
962.1591, 839.2480
962.6412, 848.2099
963.1234, 857.4716
963.6055, 865.9722
964.0876, 874.0786
964.5697, 882.6275
965.0518, 891.7191
965.5339, 900.5299
966.0161, 908.9965
966.4982, 917.1882
966.9803, 924.4933
967.4624, 931.8948
967.9445, 941.1346
968.4266, 952.7713
968.9088, 964.3215
969.3909, 974.2636
969.8730, 984.5541
970.3551, 996.2134
970.8372, 1009.042
971.3193, 1023.442
971.8015, 1039.331
972.2836, 1055.478
972.7657, 1071.002
973.2478, 1086.316
973.7299, 1102.219
974.2120, 1118.418
974.6942, 1134.345
975.1763, 1149.463
975.6584, 1164.752
976.1405, 1180.622
976.6226, 1196.611
977.1047, 1212.139
977.5869, 1227.338
978.0690, 1241.898
978.5511, 1255.488
979.0332, 1269.973
979.5153, 1287.080
979.9974, 1305.864
980.4796, 1325.137
980.9617, 1344.541
981.4438, 1367.478
981.9259, 1395.307
982.4080, 1424.397
982.8901, 1452.839
983.3723, 1481.775
983.8544, 1515.177
984.3365, 1552.414
984.8186, 1590.870
985.3007, 1629.283
985.7828, 1668.578
986.2650, 1710.584
986.7471, 1753.566
987.2292, 1794.931
987.7113, 1834.863
988.1934, 1872.547
988.6755, 1908.191
989.1577, 1940.514
989.6398, 1969.045
990.1219, 1992.562
990.6040, 2008.756
991.0861, 2017.363
991.5682, 2019.411
992.0504, 2013.268
992.5325, 2002.455
993.0146, 1988.523
993.4967, 1971.696
993.9788, 1950.579
994.4609, 1925.219
994.9431, 1901.109
995.4252, 1881.178
995.9073, 1862.480
996.3894, 1842.083
996.8715, 1820.414
997.3536, 1797.731
997.8358, 1775.709
998.3179, 1750.573
998.8000, 1722.298
999.2821, 1690.790
999.7642, 1654.704
1000.246, 1614.438
1000.728, 1574.220
1001.211, 1533.776
1001.693, 1493.636
1002.175, 1451.399
1002.657, 1411.308
1003.139, 1376.762
1003.621, 1347.307
1004.103, 1319.929
1004.585, 1294.118
1005.068, 1272.497
1005.550, 1255.885
1006.032, 1243.258
1006.514, 1233.752
1006.996, 1226.586
1007.478, 1219.906
1007.960, 1212.904
1008.442, 1207.301
1008.924, 1203.129
1009.407, 1200.968
1009.889, 1201.569
1010.371, 1205.024
1010.853, 1209.079
1011.335, 1213.793
1011.817, 1217.172
1012.299, 1216.744
1012.781, 1215.384
1013.263, 1216.012
1013.746, 1217.989
1014.228, 1218.914
1014.710, 1218.856
1015.192, 1216.972
1015.674, 1212.908
1016.156, 1207.339
1016.638, 1201.503
1017.120, 1194.961
1017.603, 1185.781
1018.085, 1173.173
1018.567, 1161.284
1019.049, 1152.592
1019.531, 1145.447
1020.013, 1138.681
1020.495, 1132.249
1020.977, 1126.506
1021.459, 1121.482
1021.942, 1116.861
1022.424, 1112.506
1022.906, 1108.471
1023.388, 1104.240
1023.870, 1100.434
1024.352, 1098.267
1024.834, 1098.910
1025.316, 1100.151
1025.799, 1101.413
1026.281, 1103.651
1026.763, 1108.547
1027.245, 1115.501
1027.727, 1120.643
1028.209, 1123.851
1028.691, 1127.695
1029.173, 1135.016
1029.656, 1142.600
1030.138, 1148.021
1030.620, 1151.602
1031.102, 1155.771
1031.584, 1160.772
1032.066, 1165.239
1032.548, 1168.585
1033.030, 1171.923
1033.512, 1177.372
1033.995, 1183.781
1034.477, 1188.740
1034.959, 1190.833
1035.441, 1194.781
1035.923, 1202.984
1036.405, 1211.893
1036.887, 1219.392
1037.369, 1225.813
1037.851, 1234.780
1038.334, 1246.061
1038.816, 1258.768
1039.298, 1271.458
1039.780, 1286.341
1040.262, 1305.446
1040.744, 1327.895
1041.226, 1351.960
1041.708, 1378.080
1042.191, 1404.447
1042.673, 1430.871
1043.155, 1459.156
1043.637, 1492.760
1044.119, 1529.295
1044.601, 1564.383
1045.083, 1598.242
1045.565, 1633.766
1046.047, 1674.001
1046.530, 1714.021
1047.012, 1751.004
1047.494, 1787.076
1047.976, 1828.080
1048.458, 1874.160
1048.940, 1922.109
1049.422, 1971.573
1049.904, 2021.985
1050.386, 2072.665
1050.869, 2124.836
1051.351, 2180.242
1051.833, 2239.246
1052.315, 2300.186
1052.797, 2364.526
1053.279, 2424.662
1053.761, 2478.251
1054.243, 2524.798
1054.726, 2564.519
1055.208, 2596.828
1055.690, 2620.219
1056.172, 2637.391
1056.654, 2639.934
1057.136, 2626.018
1057.618, 2600.010
1058.100, 2566.628
1058.583, 2525.692
1059.065, 2474.971
1059.547, 2414.415
1060.029, 2348.094
1060.511, 2276.022
1060.993, 2203.594
1061.475, 2133.721
1061.957, 2066.601
1062.439, 2003.367
1062.922, 1944.630
1063.404, 1885.579
1063.886, 1824.977
1064.368, 1765.058
1064.850, 1707.497
1065.332, 1652.190
1065.814, 1599.056
1066.296, 1549.006
1066.778, 1499.403
1067.261, 1450.000
1067.743, 1400.509
1068.225, 1349.913
1068.707, 1299.294
1069.189, 1253.615
1069.671, 1212.384
1070.153, 1174.414
1070.635, 1140.008
1071.118, 1108.056
1071.600, 1079.279
1072.082, 1052.878
1072.564, 1028.268
1073.046, 1005.606
1073.528, 985.0572
1074.010, 966.7875
1074.492, 950.5723
1074.974, 937.0509
1075.457, 925.0939
1075.939, 913.7733
1076.421, 903.2076
1076.903, 893.7824
1077.385, 885.7905
1077.867, 878.2869
1078.349, 871.2418
1078.831, 864.4442
1079.313, 857.2273
1079.796, 850.2049
1080.278, 844.7461
1080.760, 841.0680
1081.242, 837.2570
1081.724, 832.1124
1082.206, 827.3902
1082.688, 823.8603
1083.170, 821.2017
1083.652, 818.6720
1084.135, 816.1729
1084.617, 813.2150
1085.099, 809.3366
1085.581, 805.7750
1086.063, 803.5363
1086.545, 801.8372
1087.027, 799.8398
1087.509, 797.4765
1087.992, 795.6627
1088.474, 794.4266
1088.956, 793.4480
1089.438, 792.2045
1089.920, 791.4044
1090.402, 792.0331
1090.884, 793.6010
1091.366, 795.0795
1091.849, 796.0483
1092.331, 797.2557
1092.813, 798.5179
1093.295, 800.5409
1093.777, 805.0187
1094.259, 810.3807
1094.741, 813.1254
1095.223, 813.4308
1095.705, 813.9713
1096.188, 815.4078
1096.670, 817.8389
1097.152, 821.5074
1097.634, 825.9092
1098.116, 830.2545
1098.598, 834.6000
1099.080, 839.1575
1099.562, 844.0385
1100.044, 848.6620
1100.527, 852.5026
1101.009, 856.1146
1101.491, 860.1967
1101.973, 864.4975
1102.455, 866.8682
1102.937, 867.2424
1103.419, 867.8344
1103.901, 869.5355
1104.384, 871.2947
1104.866, 872.6826
1105.348, 873.1136
1105.830, 871.7836
1106.312, 868.3211
1106.794, 863.9957
1107.276, 858.5595
1107.758, 853.0826
1108.240, 848.4757
1108.723, 843.9034
1109.205, 837.3340
1109.687, 829.5217
1110.169, 822.1724
1110.651, 815.9046
1111.133, 809.9988
1111.615, 804.3954
1112.097, 799.0214
1112.579, 793.9840
1113.062, 789.1027
1113.544, 783.1962
1114.026, 776.5211
1114.508, 771.1841
1114.990, 769.7014
1115.472, 768.0219
1115.954, 764.5480
1116.436, 760.2118
1116.919, 756.0775
1117.401, 752.1746
1117.883, 749.8483
1118.365, 749.2911
1118.847, 748.8009
1119.329, 746.8041
1119.811, 744.6843
1120.293, 743.4372
1120.776, 742.9084
1121.258, 742.3463
1121.740, 741.6990
1122.222, 741.5597
1122.704, 742.2028
1123.186, 742.8357
1123.668, 742.3513
1124.150, 741.5868
1124.632, 741.3640
1125.115, 741.8251
1125.597, 742.9933
1126.079, 744.8876
1126.561, 747.5609
1127.043, 751.5452
1127.525, 755.5270
1128.007, 756.9485
1128.489, 756.9717
1128.971, 757.6205
1129.454, 759.7607
1129.936, 761.4096
1130.418, 762.0283
1130.900, 762.8220
1131.382, 764.7305
1131.864, 767.2481
1132.346, 769.0028
1132.828, 770.1155
1133.311, 770.9768
1133.793, 771.6719
1134.275, 772.2304
1134.757, 772.8022
1135.239, 773.0956
1135.721, 773.0726
1136.203, 772.6161
1136.685, 770.4017
1137.167, 766.5831
1137.650, 762.7828
1138.132, 759.7955
1138.614, 757.2168
1139.096, 755.5696
1139.578, 753.7988
1140.060, 750.1685
1140.542, 744.6184
1141.024, 739.9972
1141.506, 736.5435
1141.989, 733.4128
1142.471, 729.9125
1142.953, 726.5255
1143.435, 723.8314
1143.917, 721.5057
1144.399, 718.1842
1144.881, 713.6456
1145.363, 710.0938
1145.846, 708.0756
1146.328, 706.4186
1146.810, 703.7238
1147.292, 701.0382
1147.774, 699.4340
1148.256, 699.0110
1148.738, 698.7327
1149.220, 698.8254
1149.703, 697.9594
1150.185, 695.4688
1150.667, 692.7247
1151.149, 691.4440
1151.631, 691.0646
1152.113, 690.8035
1152.595, 690.5027
1153.077, 690.7328
1153.559, 691.8198
1154.042, 692.5379
1154.524, 692.0881
1155.006, 691.4316
1155.488, 692.8724
1155.970, 695.3029
1156.452, 696.3810
1156.934, 694.8387
1157.416, 694.1266
1157.898, 694.8809
1158.381, 696.0145
1158.863, 696.9098
1159.345, 697.7701
1159.827, 698.8179
1160.309, 700.3149
1160.791, 703.0660
1161.273, 708.7151
1161.755, 713.1880
1162.238, 715.1605
1162.720, 716.5152
1163.202, 718.2840
1163.684, 720.5916
1164.166, 724.5787
1164.648, 729.8392
1165.130, 734.4886
1165.612, 736.4742
1166.094, 739.1818
1166.577, 743.9203
1167.059, 749.5211
1167.541, 755.0310
1168.023, 760.4285
1168.505, 765.0313
1168.987, 768.9254
1169.469, 772.9581
1169.951, 777.3676
1170.433, 782.3053
1170.916, 788.6539
1171.398, 795.1170
1171.880, 799.8069
1172.362, 802.8558
1172.844, 806.5499
1173.326, 811.0197
1173.808, 815.3225
1174.290, 819.9372
1174.773, 822.9950
1175.255, 822.6044
1175.737, 820.1678
1176.219, 818.2366
1176.701, 816.8091
1177.183, 814.3585
1177.665, 810.6609
1178.147, 806.0959
1178.630, 800.2936
1179.112, 794.3599
1179.594, 789.1471
1180.076, 784.4043
1180.558, 778.9279
1181.040, 772.5544
1181.522, 768.1556
1182.004, 766.6028
1182.486, 764.7332
1182.969, 758.4547
1183.451, 751.7191
1183.933, 748.1436
1184.415, 747.3121
1184.897, 745.6718
1185.379, 743.2634
1185.861, 738.9177
1186.343, 731.7737
1186.825, 725.1583
1187.308, 723.4076
1187.790, 723.0218
1188.272, 720.7210
1188.754, 716.3438
1189.236, 711.4156
1189.718, 705.8574
1190.200, 700.9352
1190.682, 697.0117
1191.165, 694.0410
1191.647, 693.0953
1192.129, 692.3736
1192.611, 689.4707
1193.093, 684.0245
1193.575, 680.1332
1194.057, 677.9466
1194.539, 676.1181
1195.021, 674.1404
1195.504, 672.1705
1195.986, 670.3124
1196.468, 668.5896
1196.950, 667.2018
1197.432, 666.3127
1197.914, 664.3732
1198.396, 661.1913
1198.878, 658.2125
1199.360, 656.1900
1199.843, 654.6504
1200.325, 652.7707
1200.807, 651.1848
1201.289, 651.1676
1201.771, 653.6252
1202.253, 653.7285
1202.735, 651.1549
1203.217, 648.3459
1203.700, 646.4760
1204.182, 645.3491
1204.664, 645.1927
1205.146, 645.4411
1205.628, 645.1149
1206.110, 643.8481
1206.592, 642.8536
1207.074, 642.0867
1207.557, 641.7828
1208.039, 642.5323
1208.521, 643.3803
1209.003, 642.9243
1209.485, 641.9015
1209.967, 641.7504
1210.449, 643.0604
1210.931, 643.8856
1211.413, 644.2536
1211.896, 643.9423
1212.378, 641.8835
1212.860, 639.8692
1213.342, 640.3229
1213.824, 642.1506
1214.306, 643.1151
1214.788, 643.0280
1215.270, 642.1324
1215.752, 640.3318
1216.235, 638.6042
1216.717, 637.9426
1217.199, 637.4576
1217.681, 635.8569
1218.163, 633.8386
1218.645, 633.1650
1219.127, 634.4356
1219.609, 634.7062
1220.092, 633.7580
1220.574, 632.7618
1221.056, 632.5255
1221.538, 632.7693
1222.020, 633.6496
1222.502, 634.7027
1222.984, 634.8734
1223.466, 633.9023
1223.948, 633.1484
1224.431, 632.6794
1224.913, 632.5638
1225.395, 633.1078
1225.877, 633.7911
1226.359, 634.2508
1226.841, 634.4963
1227.323, 634.5705
1227.805, 634.4086
1228.287, 634.6249
1228.770, 635.2851
1229.252, 635.8928
1229.734, 636.1483
1230.216, 636.0989
1230.698, 635.4103
1231.180, 634.5455
1231.662, 634.6233
1232.144, 635.7390
1232.627, 636.3752
1233.109, 636.3972
1233.591, 636.2282
1234.073, 636.3310
1234.555, 636.2101
1235.037, 635.0971
1235.519, 633.7210
1236.001, 633.4580
1236.484, 634.3135
1236.966, 635.4462
1237.448, 636.7825
1237.930, 638.4853
1238.412, 642.5038
1238.894, 644.9609
1239.376, 642.2908
1239.858, 637.3512
1240.340, 633.6184
1240.823, 631.3797
1241.305, 634.7538
1241.787, 643.8724
1242.269, 651.8170
1242.751, 653.7759
1243.233, 653.9871
1243.715, 654.1072
1244.197, 653.8209
1244.679, 651.8779
1245.162, 648.8806
1245.644, 649.3320
1246.126, 653.2484
1246.608, 654.1749
1247.090, 642.5442
1247.572, 635.8055
1248.054, 641.8073
1248.536, 651.6610
1249.019, 650.6815
1249.501, 642.3613
1249.983, 636.8582
1250.465, 635.2023
1250.947, 637.2703
1251.429, 648.7401
1251.911, 655.7566
1252.393, 654.5681
1252.875, 649.5849
1253.358, 645.6635
1253.840, 642.8434
1254.322, 641.7635
1254.804, 642.1651
1255.286, 641.4912
1255.768, 637.2939
1256.250, 635.2333
1256.732, 636.8423
1257.214, 639.1403
1257.697, 638.3489
1258.179, 635.8842
1258.661, 633.4941
1259.143, 631.4761
1259.625, 630.9383
1260.107, 632.6498
1260.589, 634.0125
1261.071, 634.7275
1261.554, 634.7414
1262.036, 633.5709
1262.518, 631.9752
1263.000, 630.4287
1263.482, 629.2175
1263.964, 629.4886
1264.446, 631.8254
1264.928, 632.9674
1265.411, 632.4003
1265.893, 631.3887
1266.375, 630.6203
1266.857, 630.2941
1267.339, 630.9668
1267.821, 632.1786
1268.303, 632.4367
1268.785, 631.6236
1269.267, 631.4053
1269.750, 631.9684
1270.232, 632.8360
1270.714, 634.6649
1271.196, 635.6519
1271.678, 633.6519
1272.160, 630.5189
1272.642, 629.2479
1273.124, 629.7111
1273.606, 629.9008
1274.089, 629.6852
1274.571, 629.7303
1275.053, 631.3593
1275.535, 632.1251
1276.017, 630.7722
1276.499, 628.5811
1276.981, 627.0149
1277.463, 626.0657
1277.946, 625.9787
1278.428, 626.6036
1278.910, 626.8329
1279.392, 625.6072
1279.874, 624.7188
1280.356, 624.4127
1280.838, 624.6392
1281.320, 625.9518
1281.802, 627.4836
1282.285, 627.1169
1282.767, 625.2103
1283.249, 623.6962
1283.731, 623.1185
1284.213, 622.9700
1284.695, 623.3747
1285.177, 623.6020
1285.659, 622.4981
1286.141, 621.2020
1286.624, 621.3809
1287.106, 622.5689
1287.588, 623.3318
1288.070, 623.4534
1288.552, 623.7371
1289.034, 624.2762
1289.516, 624.3252
1289.998, 622.6311
1290.481, 620.8936
1290.963, 620.5117
1291.445, 621.0266
1291.927, 621.5623
1292.409, 622.1114
1292.891, 622.6856
1293.373, 623.2929
1293.855, 623.9955
1294.338, 625.3956
1294.820, 626.2100
1295.302, 625.3776
1295.784, 624.0461
1296.266, 622.9876
1296.748, 622.2675
1297.230, 622.7068
1297.712, 623.9824
1298.194, 624.5574
1298.677, 621.8890
1299.159, 621.0933
1299.641, 623.7170
1300.123, 626.5494
1300.605, 627.1088
1301.087, 626.1074
1301.569, 624.6033
1302.051, 622.8955
1302.533, 621.6454
1303.016, 620.5604
##END=



