##NAMES=Leucophanite
##RRUFFID=R050004
##IDEAL CHEMISTRY=NaCaBeSi_2_O_6_F
##LOCALITY=Langesundfjord, Norway
##OWNER=RRUFF
##SOURCE=University of Arizona Mineral Museum
##DESCRIPTION=Pale green massive
##STATUS=The identification of this mineral has been confirmed by X-ray diffraction and chemical analysis
##URL=rruff.info/R050004
##MEASURED CHEMISTRY=Ca_1.00_Ca_1.00_Na_2.00_Be_2.00_Si_4.00_O_12_(F_0.96_(OH)_0.04_)_2_
141.9480, 3320.488
142.4301, 3364.140
142.9122, 3407.858
143.3943, 3450.410
143.8764, 3492.509
144.3585, 3533.752
144.8407, 3571.984
145.3228, 3605.708
145.8049, 3637.297
146.2870, 3668.201
146.7691, 3692.695
147.2512, 3723.480
147.7334, 3763.991
148.2155, 3817.214
148.6976, 3868.488
149.1797, 3913.044
149.6618, 3957.169
150.1439, 4008.676
150.6261, 4083.970
151.1082, 4151.332
151.5903, 4199.838
152.0724, 4217.507
152.5545, 4242.565
153.0366, 4282.001
153.5188, 4330.345
154.0009, 4376.647
154.4830, 4420.951
154.9651, 4462.187
155.4472, 4500.235
155.9293, 4533.955
156.4115, 4565.979
156.8936, 4600.904
157.3757, 4635.666
157.8578, 4660.355
158.3399, 4657.129
158.8221, 4651.495
159.3042, 4660.132
159.7863, 4706.802
160.2684, 4748.952
160.7505, 4767.937
161.2326, 4767.009
161.7148, 4769.882
162.1969, 4788.103
162.6790, 4814.442
163.1611, 4841.642
163.6432, 4876.858
164.1253, 4905.029
164.6075, 4910.410
165.0896, 4892.163
165.5717, 4884.389
166.0538, 4914.829
166.5359, 4966.291
167.0180, 5014.111
167.5002, 5051.260
167.9823, 5079.371
168.4644, 5097.177
168.9465, 5103.263
169.4286, 5108.256
169.9107, 5118.227
170.3929, 5132.714
170.8750, 5151.028
171.3571, 5172.490
171.8392, 5197.542
172.3213, 5228.962
172.8034, 5269.531
173.2856, 5307.370
173.7677, 5329.833
174.2498, 5339.760
174.7319, 5346.569
175.2140, 5350.821
175.6961, 5356.729
176.1783, 5373.931
176.6604, 5411.317
177.1425, 5447.250
177.6246, 5447.719
178.1067, 5417.776
178.5888, 5390.231
179.0710, 5391.881
179.5531, 5413.617
180.0352, 5436.463
180.5173, 5457.781
180.9994, 5475.928
181.4815, 5483.543
181.9637, 5481.150
182.4458, 5483.048
182.9279, 5508.807
183.4100, 5551.126
183.8921, 5582.336
184.3742, 5589.417
184.8564, 5582.630
185.3385, 5585.560
185.8206, 5598.740
186.3027, 5615.479
186.7848, 5627.739
187.2669, 5636.618
187.7491, 5650.959
188.2312, 5677.309
188.7133, 5711.553
189.1954, 5739.834
189.6775, 5762.008
190.1596, 5777.942
190.6418, 5783.840
191.1239, 5780.023
191.6060, 5780.442
192.0881, 5793.320
192.5702, 5816.938
193.0524, 5835.845
193.5345, 5849.096
194.0166, 5859.990
194.4987, 5873.536
194.9808, 5889.944
195.4629, 5905.877
195.9451, 5919.219
196.4272, 5930.200
196.9093, 5941.046
197.3914, 5950.799
197.8735, 5962.042
198.3556, 5982.555
198.8378, 6014.405
199.3199, 6042.023
199.8020, 6053.446
200.2841, 6046.989
200.7662, 6049.224
201.2483, 6064.764
201.7305, 6086.984
202.2126, 6099.339
202.6947, 6100.303
203.1768, 6097.088
203.6589, 6091.143
204.1410, 6080.734
204.6232, 6081.569
205.1053, 6099.256
205.5874, 6127.239
206.0695, 6142.065
206.5516, 6139.296
207.0337, 6135.026
207.5159, 6139.999
207.9980, 6155.188
208.4801, 6175.308
208.9622, 6202.890
209.4443, 6234.854
209.9264, 6254.512
210.4086, 6257.246
210.8907, 6256.966
211.3728, 6265.051
211.8549, 6284.695
212.3370, 6301.923
212.8191, 6314.210
213.3013, 6322.124
213.7834, 6330.999
214.2655, 6340.241
214.7476, 6351.466
215.2297, 6367.076
215.7118, 6390.337
216.1940, 6409.061
216.6761, 6419.405
217.1582, 6421.956
217.6403, 6428.889
218.1224, 6441.053
218.6045, 6456.335
219.0867, 6473.837
219.5688, 6496.328
220.0509, 6513.627
220.5330, 6519.631
221.0151, 6513.867
221.4972, 6524.422
221.9794, 6560.362
222.4615, 6602.583
222.9436, 6629.672
223.4257, 6632.214
223.9078, 6639.560
224.3899, 6661.053
224.8721, 6698.950
225.3542, 6724.067
225.8363, 6729.932
226.3184, 6729.372
226.8005, 6737.714
227.2827, 6757.808
227.7648, 6781.687
228.2469, 6810.407
228.7290, 6846.288
229.2111, 6867.360
229.6932, 6866.099
230.1754, 6855.891
230.6575, 6854.367
231.1396, 6865.775
231.6217, 6878.280
232.1038, 6887.046
232.5859, 6889.345
233.0681, 6903.942
233.5502, 6939.242
234.0323, 6980.708
234.5144, 7006.898
234.9965, 7009.511
235.4786, 7010.223
235.9608, 7012.633
236.4429, 7013.233
236.9250, 7033.098
237.4071, 7084.493
237.8892, 7147.419
238.3713, 7188.954
238.8535, 7196.584
239.3356, 7203.802
239.8177, 7222.537
240.2998, 7258.017
240.7819, 7284.458
241.2640, 7297.430
241.7462, 7304.363
242.2283, 7319.695
242.7104, 7353.521
243.1925, 7379.013
243.6746, 7384.912
244.1567, 7363.082
244.6389, 7348.941
245.1210, 7341.882
245.6031, 7342.798
246.0852, 7355.005
246.5673, 7386.132
247.0494, 7415.499
247.5316, 7434.614
248.0137, 7438.660
248.4958, 7449.117
248.9779, 7468.448
249.4600, 7492.780
249.9421, 7514.984
250.4243, 7536.103
250.9064, 7553.520
251.3885, 7566.017
251.8706, 7572.731
252.3527, 7576.886
252.8348, 7575.991
253.3170, 7574.064
253.7991, 7580.282
254.2812, 7601.081
254.7633, 7617.533
255.2454, 7621.041
255.7275, 7606.841
256.2097, 7596.959
256.6918, 7591.190
257.1739, 7589.980
257.6560, 7595.521
258.1381, 7612.214
258.6202, 7626.521
259.1024, 7631.101
259.5845, 7620.709
260.0666, 7623.978
260.5487, 7649.312
261.0308, 7681.903
261.5129, 7691.771
261.9951, 7666.449
262.4772, 7648.150
262.9593, 7658.712
263.4414, 7709.026
263.9235, 7733.001
264.4056, 7716.702
264.8878, 7687.334
265.3699, 7697.124
265.8520, 7760.949
266.3341, 7821.635
266.8162, 7853.937
267.2983, 7851.037
267.7805, 7863.548
268.2626, 7897.909
268.7447, 7940.437
269.2268, 7966.329
269.7089, 7971.382
270.1910, 7974.798
270.6732, 7983.862
271.1553, 7999.077
271.6374, 8014.622
272.1195, 8030.014
272.6016, 8046.488
273.0837, 8065.719
273.5659, 8088.123
274.0480, 8111.570
274.5301, 8137.079
275.0122, 8164.810
275.4943, 8184.363
275.9764, 8192.460
276.4586, 8198.545
276.9407, 8222.253
277.4228, 8266.836
277.9049, 8298.385
278.3870, 8295.379
278.8691, 8260.120
279.3513, 8247.236
279.8334, 8260.330
280.3155, 8286.539
280.7976, 8313.504
281.2798, 8341.483
281.7619, 8358.847
282.2440, 8356.733
282.7261, 8338.221
283.2082, 8326.316
283.6903, 8321.348
284.1725, 8321.783
284.6546, 8325.835
285.1367, 8333.497
285.6188, 8345.945
286.1009, 8368.405
286.5830, 8396.450
287.0652, 8409.257
287.5473, 8405.181
288.0294, 8395.020
288.5115, 8384.061
288.9936, 8374.128
289.4757, 8381.101
289.9579, 8422.582
290.4400, 8481.740
290.9221, 8510.755
291.4042, 8508.111
291.8863, 8494.185
292.3684, 8483.207
292.8506, 8476.537
293.3327, 8480.278
293.8148, 8501.849
294.2969, 8531.842
294.7790, 8551.390
295.2611, 8560.539
295.7433, 8568.151
296.2254, 8581.553
296.7075, 8599.737
297.1896, 8619.990
297.6717, 8646.485
298.1538, 8670.865
298.6360, 8672.650
299.1181, 8654.278
299.6002, 8644.326
300.0823, 8675.029
300.5644, 8728.526
301.0465, 8771.263
301.5287, 8792.636
302.0108, 8801.980
302.4929, 8799.939
302.9750, 8790.204
303.4571, 8794.020
303.9392, 8843.195
304.4214, 8909.311
304.9035, 8951.926
305.3856, 8946.355
305.8677, 8937.704
306.3498, 8969.161
306.8319, 9031.729
307.3141, 9094.560
307.7962, 9139.563
308.2783, 9175.174
308.7604, 9209.423
309.2425, 9241.688
309.7246, 9276.091
310.2068, 9319.661
310.6889, 9368.101
311.1710, 9410.770
311.6531, 9429.331
312.1352, 9448.266
312.6173, 9490.752
313.0995, 9572.105
313.5816, 9641.473
314.0637, 9671.465
314.5458, 9673.341
315.0279, 9668.757
315.5100, 9661.363
315.9922, 9653.187
316.4743, 9643.681
316.9564, 9630.798
317.4385, 9624.860
317.9206, 9641.014
318.4027, 9663.490
318.8849, 9670.250
319.3670, 9626.837
319.8491, 9591.802
320.3312, 9593.393
320.8133, 9641.563
321.2954, 9677.882
321.7776, 9672.005
322.2597, 9656.233
322.7418, 9664.991
323.2239, 9740.155
323.7060, 9803.432
324.1881, 9833.093
324.6703, 9825.881
325.1524, 9818.438
325.6345, 9811.533
326.1166, 9806.286
326.5987, 9803.535
327.0808, 9803.790
327.5630, 9805.898
328.0451, 9808.501
328.5272, 9811.854
329.0093, 9821.956
329.4914, 9843.848
329.9735, 9867.656
330.4557, 9886.831
330.9378, 9898.656
331.4199, 9910.582
331.9020, 9923.204
332.3841, 9936.422
332.8662, 9949.075
333.3484, 9957.696
333.8305, 9970.822
334.3126, 9995.609
334.7947, 10038.75
335.2768, 10070.64
335.7589, 10083.32
336.2411, 10087.48
336.7232, 10115.62
337.2053, 10178.96
337.6874, 10232.87
338.1695, 10248.14
338.6516, 10217.11
339.1338, 10215.39
339.6159, 10250.41
340.0980, 10305.31
340.5801, 10355.97
341.0622, 10403.98
341.5443, 10437.67
342.0265, 10445.19
342.5086, 10430.49
342.9907, 10434.16
343.4728, 10459.45
343.9549, 10490.19
344.4370, 10506.31
344.9192, 10508.92
345.4013, 10508.99
345.8834, 10511.67
346.3655, 10514.17
346.8476, 10506.57
347.3297, 10488.57
347.8119, 10470.43
348.2940, 10461.77
348.7761, 10460.79
349.2582, 10461.92
349.7403, 10462.00
350.2225, 10465.07
350.7046, 10479.35
351.1867, 10503.66
351.6688, 10527.83
352.1509, 10540.08
352.6331, 10548.69
353.1152, 10567.34
353.5973, 10603.53
354.0794, 10642.07
354.5615, 10667.12
355.0436, 10682.87
355.5258, 10702.11
356.0079, 10748.61
356.4900, 10792.41
356.9721, 10800.77
357.4542, 10756.32
357.9363, 10718.38
358.4185, 10727.71
358.9006, 10765.24
359.3827, 10797.98
359.8648, 10803.36
360.3469, 10808.33
360.8290, 10830.81
361.3112, 10875.94
361.7933, 10912.05
362.2754, 10920.43
362.7575, 10918.13
363.2396, 10923.71
363.7217, 10963.01
364.2039, 10988.85
364.6860, 10977.59
365.1681, 10928.49
365.6502, 10902.78
366.1323, 10930.07
366.6144, 10968.95
367.0966, 10990.82
367.5787, 10967.43
368.0608, 10960.52
368.5429, 10983.24
369.0250, 11028.52
369.5071, 11059.79
369.9893, 11072.90
370.4714, 11076.83
370.9535, 11073.11
371.4356, 11049.86
371.9177, 11046.98
372.3998, 11071.32
372.8820, 11113.21
373.3641, 11153.63
373.8462, 11196.63
374.3283, 11227.35
374.8104, 11235.71
375.2925, 11219.23
375.7747, 11211.85
376.2568, 11217.06
376.7389, 11224.35
377.2210, 11214.00
377.7031, 11183.80
378.1852, 11168.88
378.6674, 11184.88
379.1495, 11224.44
379.6316, 11260.49
380.1137, 11293.54
380.5958, 11315.89
381.0779, 11311.68
381.5601, 11287.15
382.0422, 11274.33
382.5243, 11283.72
383.0064, 11303.62
383.4885, 11317.74
383.9706, 11326.05
384.4528, 11327.38
384.9349, 11315.06
385.4170, 11296.75
385.8991, 11284.94
386.3812, 11282.01
386.8633, 11283.69
387.3455, 11287.04
387.8276, 11291.94
388.3097, 11298.20
388.7918, 11303.19
389.2739, 11311.10
389.7560, 11327.56
390.2382, 11353.88
390.7203, 11377.86
391.2024, 11389.50
391.6845, 11396.29
392.1666, 11407.01
392.6487, 11433.92
393.1309, 11456.47
393.6130, 11458.27
394.0951, 11442.36
394.5772, 11443.88
395.0593, 11490.05
395.5414, 11544.90
396.0236, 11585.50
396.5057, 11586.39
396.9878, 11599.57
397.4699, 11639.19
397.9520, 11695.75
398.4341, 11738.75
398.9163, 11755.87
399.3984, 11772.13
399.8805, 11795.81
400.3626, 11827.36
400.8447, 11866.13
401.3268, 11919.24
401.8090, 11974.24
402.2911, 12012.20
402.7732, 12024.24
403.2553, 12041.32
403.7374, 12071.39
404.2195, 12114.05
404.7017, 12166.33
405.1838, 12234.39
405.6659, 12295.84
406.1480, 12326.40
406.6301, 12325.77
407.1122, 12325.56
407.5944, 12330.34
408.0765, 12339.97
408.5586, 12354.38
409.0407, 12373.60
409.5228, 12396.32
410.0049, 12430.23
410.4871, 12466.98
410.9692, 12479.42
411.4513, 12460.46
411.9334, 12434.81
412.4155, 12434.20
412.8976, 12450.38
413.3798, 12459.53
413.8619, 12440.28
414.3440, 12414.76
414.8261, 12408.63
415.3082, 12422.34
415.7903, 12435.52
416.2725, 12426.85
416.7546, 12413.29
417.2367, 12414.10
417.7188, 12444.69
418.2009, 12480.58
418.6830, 12513.39
419.1652, 12543.11
419.6473, 12568.46
420.1294, 12585.57
420.6115, 12601.01
421.0937, 12618.57
421.5758, 12638.94
422.0579, 12660.26
422.5400, 12682.63
423.0221, 12705.76
423.5042, 12729.64
423.9864, 12749.11
424.4685, 12774.90
424.9506, 12813.34
425.4327, 12865.73
425.9148, 12906.76
426.3969, 12930.67
426.8791, 12949.78
427.3612, 12970.49
427.8433, 12985.05
428.3254, 13029.80
428.8075, 13127.58
429.2896, 13252.06
429.7718, 13300.08
430.2539, 13257.12
430.7360, 13215.83
431.2181, 13236.85
431.7002, 13315.57
432.1823, 13386.55
432.6645, 13447.38
433.1466, 13497.96
433.6287, 13535.92
434.1108, 13562.35
434.5929, 13582.27
435.0750, 13591.62
435.5572, 13598.14
436.0393, 13618.57
436.5214, 13652.19
437.0035, 13683.69
437.4856, 13700.01
437.9677, 13706.85
438.4499, 13711.40
438.9320, 13713.46
439.4141, 13717.11
439.8962, 13724.82
440.3783, 13736.31
440.8604, 13751.06
441.3426, 13784.91
441.8247, 13809.60
442.3068, 13802.53
442.7889, 13752.08
443.2710, 13714.24
443.7531, 13707.55
444.2353, 13719.72
444.7174, 13737.03
445.1995, 13774.16
445.6816, 13797.99
446.1637, 13795.72
446.6458, 13770.59
447.1280, 13755.92
447.6101, 13745.40
448.0922, 13752.40
448.5743, 13790.68
449.0564, 13886.97
449.5385, 13939.80
450.0207, 13928.04
450.5028, 13888.56
450.9849, 13898.71
451.4670, 13971.28
451.9491, 14027.09
452.4312, 14021.00
452.9134, 13965.85
453.3955, 13969.69
453.8776, 14038.65
454.3597, 14122.07
454.8418, 14173.16
455.3239, 14196.94
455.8061, 14210.21
456.2882, 14211.47
456.7703, 14212.57
457.2524, 14234.44
457.7345, 14272.35
458.2166, 14307.56
458.6988, 14325.22
459.1809, 14335.91
459.6630, 14352.59
460.1451, 14378.31
460.6272, 14398.43
461.1093, 14399.84
461.5915, 14391.43
462.0736, 14384.14
462.5557, 14357.52
463.0378, 14356.19
463.5199, 14420.98
464.0020, 14539.04
464.4842, 14616.76
464.9663, 14589.66
465.4484, 14549.84
465.9305, 14546.60
466.4126, 14607.57
466.8947, 14660.33
467.3769, 14707.14
467.8590, 14744.66
468.3411, 14766.21
468.8232, 14763.46
469.3053, 14760.76
469.7874, 14763.30
470.2696, 14771.14
470.7517, 14786.67
471.2338, 14811.71
471.7159, 14838.69
472.1980, 14858.03
472.6801, 14870.21
473.1623, 14897.39
473.6444, 14951.38
474.1265, 15005.01
474.6086, 15001.14
475.0907, 14948.22
475.5728, 14900.80
476.0550, 14893.72
476.5371, 14908.42
477.0192, 14916.52
477.5013, 14917.06
477.9834, 14914.29
478.4655, 14907.18
478.9477, 14900.06
479.4298, 14898.18
479.9119, 14898.12
480.3940, 14909.88
480.8761, 14951.76
481.3582, 15011.40
481.8404, 15052.70
482.3225, 15047.99
482.8046, 15035.34
483.2867, 15028.17
483.7688, 15022.75
484.2509, 15039.91
484.7331, 15110.05
485.2152, 15188.66
485.6973, 15232.90
486.1794, 15208.59
486.6615, 15209.39
487.1436, 15256.72
487.6258, 15339.56
488.1079, 15406.97
488.5900, 15456.90
489.0721, 15495.79
489.5542, 15517.92
490.0363, 15522.98
490.5185, 15562.63
491.0006, 15644.68
491.4827, 15738.66
491.9648, 15804.45
492.4470, 15846.06
492.9291, 15883.00
493.4112, 15915.70
493.8933, 15951.83
494.3754, 16006.71
494.8575, 16077.90
495.3397, 16146.67
495.8218, 16197.95
496.3039, 16242.79
496.7860, 16294.60
497.2681, 16359.62
497.7502, 16417.94
498.2324, 16456.50
498.7145, 16483.09
499.1966, 16508.99
499.6787, 16526.48
500.1608, 16554.58
500.6429, 16610.96
501.1251, 16692.29
501.6072, 16745.75
502.0893, 16748.56
502.5714, 16740.42
503.0535, 16738.55
503.5356, 16742.13
504.0178, 16754.66
504.4999, 16780.14
504.9820, 16810.86
505.4641, 16838.48
505.9462, 16865.28
506.4283, 16876.10
506.9105, 16861.37
507.3926, 16828.39
507.8747, 16807.49
508.3568, 16799.25
508.8389, 16790.83
509.3210, 16751.10
509.8032, 16703.64
510.2853, 16727.26
510.7674, 16847.26
511.2495, 16971.82
511.7316, 17001.90
512.2137, 16967.20
512.6959, 16928.07
513.1780, 16899.17
513.6601, 16882.92
514.1422, 16890.81
514.6243, 16917.95
515.1064, 16931.58
515.5886, 16889.76
516.0707, 16850.85
516.5528, 16854.33
517.0349, 16932.97
517.5170, 16995.74
517.9991, 17031.24
518.4813, 17046.98
518.9634, 17049.57
519.4455, 17025.61
519.9276, 17011.54
520.4097, 17015.53
520.8918, 17035.69
521.3740, 17060.32
521.8561, 17089.15
522.3382, 17123.43
522.8203, 17170.94
523.3024, 17229.48
523.7845, 17261.83
524.2667, 17259.85
524.7488, 17255.66
525.2309, 17295.41
525.7130, 17367.95
526.1951, 17433.13
526.6772, 17470.67
527.1594, 17501.05
527.6415, 17550.31
528.1236, 17614.01
528.6057, 17673.76
529.0878, 17719.19
529.5699, 17756.00
530.0521, 17785.75
530.5342, 17806.71
531.0163, 17830.80
531.4984, 17870.30
531.9805, 17911.47
532.4626, 17939.87
532.9448, 17926.54
533.4269, 17933.24
533.9090, 17975.85
534.3911, 18044.47
534.8732, 18100.13
535.3553, 18144.27
535.8375, 18173.41
536.3196, 18179.58
536.8017, 18160.87
537.2838, 18167.98
537.7659, 18210.07
538.2480, 18247.91
538.7302, 18228.02
539.2123, 18159.81
539.6944, 18110.10
540.1765, 18096.29
540.6586, 18101.84
541.1407, 18112.82
541.6229, 18125.29
542.1050, 18125.50
542.5871, 18096.18
543.0692, 18057.74
543.5513, 18021.16
544.0334, 17987.73
544.5156, 17977.56
544.9977, 18034.66
545.4798, 18099.02
545.9619, 18120.27
546.4440, 18038.89
546.9261, 17988.74
547.4083, 18010.15
547.8904, 18069.98
548.3725, 18108.18
548.8546, 18114.33
549.3367, 18115.66
549.8188, 18113.58
550.3010, 18110.00
550.7831, 18131.01
551.2652, 18182.96
551.7473, 18238.56
552.2294, 18278.52
552.7115, 18304.14
553.1937, 18322.68
553.6758, 18331.55
554.1579, 18346.52
554.6400, 18396.45
555.1221, 18469.52
555.6042, 18530.77
556.0864, 18563.37
556.5685, 18584.11
557.0506, 18605.32
557.5327, 18627.25
558.0148, 18650.50
558.4969, 18688.71
558.9791, 18718.36
559.4612, 18714.30
559.9433, 18660.89
560.4254, 18642.84
560.9075, 18710.63
561.3896, 18800.81
561.8718, 18857.27
562.3539, 18853.85
562.8360, 18862.47
563.3181, 18898.16
563.8002, 18944.28
564.2823, 18957.38
564.7645, 18930.27
565.2466, 18902.53
565.7287, 18895.29
566.2108, 18900.76
566.6929, 18871.43
567.1750, 18805.71
567.6572, 18746.82
568.1393, 18735.78
568.6214, 18757.57
569.1035, 18786.90
569.5856, 18823.85
570.0677, 18852.30
570.5499, 18850.61
571.0320, 18833.59
571.5141, 18824.72
571.9962, 18830.70
572.4783, 18848.31
572.9604, 18887.85
573.4426, 18942.15
573.9247, 18975.96
574.4068, 18970.02
574.8889, 18954.10
575.3710, 18935.11
575.8531, 18908.67
576.3353, 18904.90
576.8174, 18932.79
577.2995, 18970.09
577.7816, 18992.83
578.2637, 18998.21
578.7458, 19021.97
579.2280, 19076.93
579.7101, 19138.45
580.1922, 19159.32
580.6743, 19145.10
581.1564, 19127.23
581.6385, 19108.34
582.1207, 19100.38
582.6028, 19122.64
583.0849, 19172.77
583.5670, 19233.55
584.0491, 19323.74
584.5313, 19401.97
585.0134, 19425.83
585.4955, 19363.91
585.9776, 19330.13
586.4597, 19386.62
586.9418, 19472.26
587.4240, 19516.21
587.9061, 19480.29
588.3882, 19459.47
588.8703, 19466.21
589.3524, 19493.86
589.8345, 19524.43
590.3167, 19558.73
590.7988, 19592.94
591.2809, 19623.28
591.7630, 19651.58
592.2451, 19683.65
592.7272, 19719.20
593.2094, 19765.98
593.6915, 19851.17
594.1736, 19948.02
594.6557, 20001.03
595.1378, 19993.20
595.6199, 19971.60
596.1021, 19954.53
596.5842, 19950.18
597.0663, 19970.36
597.5485, 20040.63
598.0306, 20112.94
598.5127, 20174.55
598.9948, 20226.18
599.4769, 20272.39
599.9590, 20310.90
600.4412, 20348.32
600.9233, 20388.00
601.4054, 20430.94
601.8875, 20460.68
602.3696, 20470.69
602.8517, 20483.13
603.3339, 20519.10
603.8160, 20576.94
604.2981, 20633.09
604.7802, 20685.55
605.2623, 20731.96
605.7444, 20765.40
606.2266, 20789.76
606.7087, 20813.71
607.1908, 20836.94
607.6729, 20865.29
608.1550, 20912.70
608.6371, 20970.81
609.1193, 21014.11
609.6014, 21011.91
610.0835, 21009.71
610.5656, 21029.17
611.0477, 21073.81
611.5298, 21124.46
612.0120, 21192.14
612.4941, 21253.39
612.9762, 21289.33
613.4583, 21290.22
613.9404, 21301.04
614.4225, 21325.44
614.9047, 21356.70
615.3868, 21386.34
615.8689, 21414.69
616.3510, 21442.31
616.8331, 21468.06
617.3152, 21494.79
617.7974, 21532.57
618.2795, 21576.77
618.7616, 21611.44
619.2437, 21617.13
619.7258, 21617.72
620.2079, 21633.63
620.6901, 21665.68
621.1722, 21692.71
621.6543, 21698.43
622.1364, 21703.07
622.6185, 21720.18
623.1006, 21756.47
623.5828, 21792.48
624.0649, 21830.51
624.5470, 21866.15
625.0291, 21892.12
625.5112, 21905.58
625.9933, 21924.59
626.4755, 21952.26
626.9576, 21987.05
627.4397, 22033.04
627.9218, 22087.20
628.4039, 22126.42
628.8860, 22127.12
629.3682, 22112.77
629.8503, 22116.00
630.3324, 22134.78
630.8145, 22152.63
631.2966, 22146.12
631.7787, 22144.73
632.2609, 22175.54
632.7430, 22254.52
633.2251, 22315.90
633.7072, 22330.44
634.1893, 22331.80
634.6714, 22348.29
635.1536, 22388.88
635.6357, 22424.42
636.1178, 22449.80
636.5999, 22471.96
637.0820, 22503.64
637.5641, 22545.00
638.0463, 22588.99
638.5284, 22631.75
639.0105, 22677.44
639.4926, 22746.03
639.9747, 22831.45
640.4568, 22896.82
640.9390, 22900.00
641.4211, 22886.62
641.9032, 22899.34
642.3853, 22941.07
642.8674, 22988.13
643.3495, 23042.59
643.8317, 23091.28
644.3138, 23124.40
644.7959, 23126.77
645.2780, 23140.01
645.7601, 23165.64
646.2422, 23200.67
646.7244, 23244.58
647.2065, 23299.73
647.6886, 23351.62
648.1707, 23402.19
648.6528, 23441.16
649.1349, 23430.60
649.6171, 23380.19
650.0992, 23357.67
650.5813, 23410.78
651.0634, 23499.02
651.5455, 23583.28
652.0276, 23662.34
652.5098, 23725.56
652.9919, 23748.39
653.4740, 23768.46
653.9561, 23813.29
654.4382, 23891.66
654.9203, 23956.63
655.4025, 23988.17
655.8846, 24016.31
656.3667, 24063.80
656.8488, 24145.52
657.3309, 24196.16
657.8130, 24198.94
658.2952, 24197.21
658.7773, 24252.87
659.2594, 24363.22
659.7415, 24496.84
660.2236, 24665.32
660.7057, 24820.68
661.1879, 24852.54
661.6700, 24809.23
662.1521, 24825.57
662.6342, 25003.81
663.1163, 25230.72
663.5984, 25454.40
664.0806, 25670.50
664.5627, 25863.79
665.0448, 26000.13
665.5269, 26138.24
666.0090, 26307.63
666.4911, 26513.87
666.9733, 26692.40
667.4554, 26822.01
667.9375, 26966.04
668.4196, 27199.45
668.9017, 27518.42
669.3839, 27762.13
669.8660, 27903.21
670.3481, 28026.21
670.8302, 28229.63
671.3123, 28488.37
671.7944, 28750.79
672.2766, 29005.59
672.7587, 29248.03
673.2408, 29478.90
673.7229, 29695.59
674.2050, 29897.72
674.6871, 30141.26
675.1693, 30308.16
675.6514, 30351.28
676.1335, 30288.78
676.6156, 30209.84
677.0977, 30127.32
677.5798, 29999.25
678.0620, 29797.99
678.5441, 29529.57
679.0262, 29271.67
679.5083, 29023.22
679.9904, 28767.15
680.4725, 28485.21
680.9547, 28188.09
681.4368, 27873.54
681.9189, 27536.81
682.4010, 27253.79
682.8831, 27118.75
683.3652, 27045.34
683.8474, 26947.05
684.3295, 26764.94
684.8116, 26620.41
685.2937, 26555.09
685.7758, 26525.73
686.2579, 26480.25
686.7401, 26416.62
687.2222, 26338.26
687.7043, 26231.14
688.1864, 26124.21
688.6685, 26100.20
689.1506, 26154.22
689.6328, 26207.76
690.1149, 26229.04
690.5970, 26227.54
691.0791, 26203.84
691.5612, 26164.90
692.0433, 26146.55
692.5255, 26177.25
693.0076, 26226.76
693.4897, 26279.83
693.9718, 26335.71
694.4539, 26387.36
694.9360, 26440.82
695.4182, 26483.14
695.9003, 26502.29
696.3824, 26485.78
696.8645, 26501.09
697.3466, 26555.32
697.8287, 26622.76
698.3109, 26680.34
698.7930, 26728.02
699.2751, 26759.34
699.7572, 26764.83
700.2393, 26783.46
700.7214, 26873.15
701.2036, 27000.26
701.6857, 27108.95
702.1678, 27186.26
702.6499, 27233.70
703.1320, 27223.95
703.6141, 27185.17
704.0963, 27190.09
704.5784, 27274.37
705.0605, 27352.51
705.5426, 27404.79
706.0247, 27437.37
706.5068, 27487.23
706.9890, 27561.60
707.4711, 27595.00
707.9532, 27512.81
708.4353, 27373.55
708.9174, 27353.49
709.3995, 27439.60
709.8817, 27505.40
710.3638, 27419.33
710.8459, 27303.06
711.3280, 27278.58
711.8101, 27371.71
712.2922, 27433.05
712.7744, 27396.03
713.2565, 27330.88
713.7386, 27284.83
714.2207, 27264.29
714.7028, 27246.71
715.1849, 27232.24
715.6671, 27220.22
716.1492, 27202.04
716.6313, 27180.49
717.1134, 27194.70
717.5955, 27260.79
718.0776, 27333.32
718.5598, 27350.40
719.0419, 27333.62
719.5240, 27325.16
720.0061, 27354.64
720.4882, 27377.98
720.9703, 27356.16
721.4525, 27314.77
721.9346, 27312.48
722.4167, 27404.92
722.8988, 27473.32
723.3809, 27483.21
723.8630, 27453.96
724.3452, 27469.34
724.8273, 27536.24
725.3094, 27597.61
725.7915, 27620.36
726.2736, 27620.30
726.7557, 27639.29
727.2379, 27675.12
727.7200, 27710.21
728.2021, 27724.41
728.6842, 27739.18
729.1663, 27777.79
729.6484, 27842.84
730.1306, 27897.44
730.6127, 27931.43
731.0948, 27951.12
731.5769, 27958.02
732.0590, 27946.33
732.5411, 27947.17
733.0233, 27963.16
733.5054, 27985.83
733.9875, 28004.38
734.4696, 28021.16
734.9517, 28058.39
735.4338, 28122.84
735.9160, 28182.72
736.3981, 28193.83
736.8802, 28183.29
737.3623, 28192.79
737.8444, 28246.19
738.3266, 28296.27
738.8087, 28325.28
739.2908, 28340.50
739.7729, 28351.48
740.2551, 28352.99
740.7372, 28361.91
741.2193, 28383.94
741.7014, 28411.23
742.1835, 28421.52
742.6656, 28414.47
743.1478, 28426.01
743.6299, 28475.31
744.1120, 28539.93
744.5941, 28575.25
745.0762, 28594.41
745.5583, 28639.41
746.0405, 28777.13
746.5226, 28902.99
747.0047, 28946.58
747.4868, 28921.27
747.9689, 28908.70
748.4510, 28923.11
748.9332, 28945.38
749.4153, 28967.44
749.8974, 28990.90
750.3795, 29045.17
750.8616, 29136.52
751.3438, 29208.88
751.8259, 29201.65
752.3080, 29154.29
752.7901, 29163.77
753.2722, 29230.36
753.7543, 29312.61
754.2365, 29401.83
754.7186, 29482.22
755.2007, 29539.09
755.6828, 29569.32
756.1649, 29587.70
756.6470, 29565.84
757.1292, 29560.45
757.6113, 29613.99
758.0934, 29747.86
758.5755, 29844.46
759.0576, 29901.77
759.5397, 29931.14
760.0219, 29926.57
760.5040, 29903.35
760.9861, 29914.91
761.4682, 29974.68
761.9503, 30040.37
762.4324, 30077.38
762.9146, 30102.26
763.3967, 30134.83
763.8788, 30184.99
764.3609, 30234.80
764.8430, 30298.20
765.3251, 30349.72
765.8073, 30351.59
766.2894, 30282.75
766.7715, 30251.13
767.2536, 30281.95
767.7357, 30336.79
768.2178, 30342.69
768.7000, 30313.94
769.1821, 30311.74
769.6642, 30368.38
770.1463, 30438.19
770.6284, 30489.75
771.1105, 30525.07
771.5927, 30548.11
772.0748, 30528.75
772.5569, 30534.65
773.0390, 30607.16
773.5211, 30710.63
774.0032, 30744.96
774.4854, 30685.40
774.9675, 30651.86
775.4496, 30691.37
775.9317, 30770.03
776.4138, 30798.57
776.8959, 30785.72
777.3781, 30780.03
777.8602, 30805.64
778.3423, 30850.21
778.8244, 30920.51
779.3065, 31005.53
779.7886, 31060.29
780.2708, 31044.30
780.7529, 31023.03
781.2350, 31012.25
781.7171, 31013.18
782.1992, 31042.72
782.6813, 31108.79
783.1635, 31170.76
783.6456, 31200.79
784.1277, 31211.62
784.6098, 31247.72
785.0919, 31307.19
785.5740, 31371.73
786.0562, 31446.45
786.5383, 31509.70
787.0204, 31536.10
787.5025, 31524.92
787.9846, 31518.03
788.4667, 31522.27
788.9489, 31536.30
789.4310, 31560.46
789.9131, 31594.76
790.3952, 31638.14
790.8773, 31693.60
791.3594, 31742.41
791.8416, 31765.03
792.3237, 31770.46
792.8058, 31782.58
793.2879, 31802.57
793.7700, 31822.56
794.2521, 31825.34
794.7343, 31833.76
795.2164, 31862.92
795.6985, 31912.23
796.1806, 32000.67
796.6627, 32177.52
797.1448, 32340.78
797.6270, 32419.25
798.1091, 32402.59
798.5912, 32376.46
799.0733, 32336.37
799.5554, 32313.43
800.0375, 32349.28
800.5197, 32420.49
801.0018, 32485.64
801.4839, 32539.24
801.9660, 32582.35
802.4481, 32618.26
802.9302, 32642.28
803.4124, 32647.38
803.8945, 32612.54
804.3766, 32604.83
804.8587, 32631.45
805.3408, 32675.75
805.8229, 32732.73
806.3051, 32802.10
806.7872, 32828.44
807.2693, 32799.82
807.7514, 32772.88
808.2335, 32820.52
808.7156, 32902.99
809.1978, 32956.78
809.6799, 32958.31
810.1620, 32965.91
810.6441, 33016.18
811.1262, 33077.07
811.6083, 33114.68
812.0905, 33106.97
812.5726, 33129.66
813.0547, 33196.85
813.5368, 33269.69
814.0189, 33293.84
814.5010, 33279.26
814.9832, 33288.30
815.4653, 33335.50
815.9474, 33384.36
816.4295, 33398.66
816.9116, 33396.09
817.3937, 33397.31
817.8759, 33401.50
818.3580, 33421.25
818.8401, 33463.70
819.3222, 33519.87
819.8043, 33588.82
820.2864, 33680.68
820.7686, 33731.61
821.2507, 33724.60
821.7328, 33708.97
822.2149, 33763.49
822.6970, 33858.57
823.1791, 33916.94
823.6613, 33912.21
824.1434, 33897.16
824.6255, 33893.68
825.1076, 33904.73
825.5897, 33933.68
826.0718, 33999.30
826.5540, 34058.59
827.0361, 34116.16
827.5182, 34162.89
828.0003, 34177.87
828.4824, 34161.67
828.9645, 34184.07
829.4467, 34264.57
829.9288, 34346.03
830.4109, 34352.97
830.8930, 34321.10
831.3751, 34301.68
831.8572, 34297.21
832.3394, 34331.46
832.8215, 34465.00
833.3036, 34613.35
833.7857, 34679.32
834.2678, 34621.51
834.7499, 34600.85
835.2321, 34631.68
835.7142, 34690.47
836.1963, 34762.69
836.6784, 34839.98
837.1605, 34880.04
837.6426, 34863.28
838.1248, 34860.30
838.6069, 34945.55
839.0890, 35065.22
839.5711, 35159.85
840.0532, 35214.41
840.5353, 35245.09
841.0175, 35230.30
841.4996, 35217.00
841.9817, 35264.30
842.4638, 35376.17
842.9459, 35445.47
843.4280, 35455.73
843.9102, 35456.16
844.3923, 35516.21
844.8744, 35597.74
845.3565, 35627.60
845.8386, 35568.45
846.3207, 35544.98
846.8029, 35654.95
847.2850, 35792.30
847.7671, 35861.35
848.2492, 35827.08
848.7313, 35814.62
849.2134, 35824.01
849.6956, 35855.49
850.1777, 35917.09
850.6598, 36001.63
851.1419, 36086.95
851.6240, 36171.63
852.1061, 36247.33
852.5883, 36315.64
853.0704, 36368.17
853.5525, 36390.72
854.0346, 36358.64
854.5167, 36370.57
854.9988, 36460.13
855.4810, 36557.04
855.9631, 36603.59
856.4452, 36598.70
856.9273, 36643.48
857.4094, 36744.83
857.8915, 36832.11
858.3737, 36824.69
858.8558, 36774.98
859.3379, 36746.41
859.8200, 36747.37
860.3021, 36758.92
860.7842, 36757.83
861.2664, 36781.26
861.7485, 36857.45
862.2306, 36995.93
862.7127, 37093.76
863.1948, 37146.19
863.6769, 37182.43
864.1591, 37224.80
864.6412, 37266.54
865.1233, 37295.11
865.6054, 37309.95
866.0875, 37307.34
866.5696, 37239.21
867.0518, 37191.42
867.5339, 37235.23
868.0160, 37380.96
868.4981, 37482.86
868.9802, 37531.14
869.4623, 37555.95
869.9445, 37568.52
870.4266, 37568.92
870.9087, 37543.70
871.3908, 37497.41
871.8729, 37480.65
872.3550, 37555.91
872.8372, 37647.60
873.3193, 37681.97
873.8014, 37670.80
874.2835, 37687.61
874.7656, 37785.74
875.2477, 37869.66
875.7299, 37910.97
876.2120, 37920.95
876.6941, 37944.54
877.1762, 37981.61
877.6583, 38020.43
878.1404, 38058.75
878.6226, 38092.71
879.1047, 38104.83
879.5869, 38108.24
880.0690, 38136.96
880.5511, 38248.35
881.0332, 38335.14
881.5153, 38347.04
881.9974, 38320.31
882.4796, 38329.14
882.9617, 38379.96
883.4438, 38430.03
883.9259, 38468.36
884.4080, 38502.34
884.8901, 38527.84
885.3723, 38559.05
885.8544, 38635.71
886.3365, 38827.18
886.8186, 38974.01
887.3007, 38965.93
887.7828, 38886.33
888.2650, 38853.89
888.7471, 38892.82
889.2292, 38917.48
889.7113, 38914.79
890.1934, 38910.25
890.6755, 38940.95
891.1577, 38997.33
891.6398, 39052.70
892.1219, 39103.13
892.6040, 39144.01
893.0861, 39156.50
893.5682, 39166.45
894.0504, 39203.67
894.5325, 39302.63
895.0146, 39342.96
895.4967, 39297.22
895.9788, 39243.59
896.4609, 39253.21
896.9431, 39315.48
897.4252, 39359.44
897.9073, 39381.12
898.3894, 39420.72
898.8715, 39539.11
899.3536, 39667.81
899.8358, 39749.04
900.3179, 39773.64
900.8000, 39785.09
901.2821, 39775.10
901.7642, 39772.59
902.2463, 39790.09
902.7285, 39826.30
903.2106, 39877.05
903.6927, 39941.76
904.1748, 40009.81
904.6569, 40090.93
905.1390, 40160.90
905.6212, 40180.50
906.1033, 40163.27
906.5854, 40170.40
907.0675, 40249.91
907.5496, 40318.35
908.0317, 40353.75
908.5139, 40365.43
908.9960, 40377.09
909.4781, 40388.70
909.9602, 40414.77
910.4423, 40461.83
910.9244, 40522.91
911.4066, 40609.43
911.8887, 40699.86
912.3708, 40755.54
912.8529, 40696.46
913.3350, 40688.13
913.8171, 40785.61
914.2993, 40927.58
914.7814, 41037.88
915.2635, 41115.47
915.7456, 41173.58
916.2277, 41213.00
916.7098, 41238.06
917.1920, 41232.87
917.6741, 41224.34
918.1562, 41260.70
918.6383, 41370.48
919.1204, 41455.20
919.6025, 41455.60
920.0847, 41444.74
920.5668, 41473.51
921.0489, 41549.79
921.5310, 41611.44
922.0131, 41657.76
922.4952, 41693.79
922.9774, 41711.08
923.4595, 41726.56
923.9416, 41778.91
924.4237, 41865.45
924.9058, 41921.00
925.3879, 41875.34
925.8701, 41839.63
926.3522, 41869.76
926.8343, 41954.58
927.3164, 41992.49
927.7985, 41975.80
928.2806, 41986.31
928.7628, 42083.49
929.2449, 42208.28
929.7270, 42260.85
930.2091, 42264.54
930.6912, 42284.11
931.1733, 42346.29
931.6555, 42427.86
932.1376, 42537.72
932.6197, 42655.56
933.1018, 42750.71
933.5839, 42824.74
934.0660, 42863.14
934.5482, 42853.64
935.0303, 42839.33
935.5124, 42886.54
935.9945, 42965.56
936.4766, 43019.30
936.9587, 43017.48
937.4409, 43039.46
937.9230, 43147.09
938.4051, 43261.13
938.8872, 43316.10
939.3693, 43298.08
939.8514, 43307.06
940.3336, 43345.74
940.8157, 43392.65
941.2978, 43451.66
941.7799, 43497.04
942.2620, 43464.76
942.7441, 43359.45
943.2263, 43309.75
943.7084, 43423.91
944.1905, 43544.83
944.6726, 43609.34
945.1547, 43625.94
945.6368, 43641.59
946.1190, 43655.38
946.6011, 43687.91
947.0832, 43763.40
947.5653, 43846.16
948.0474, 43884.17
948.5295, 43892.87
949.0117, 43908.19
949.4938, 43958.41
949.9759, 43994.99
950.4580, 43995.63
950.9401, 43988.45
951.4222, 44022.56
951.9044, 44099.08
952.3865, 44147.45
952.8686, 44147.39
953.3507, 44160.77
953.8328, 44280.59
954.3149, 44440.19
954.7971, 44555.56
955.2792, 44600.26
955.7613, 44632.24
956.2434, 44660.77
956.7255, 44679.21
957.2076, 44667.07
957.6898, 44627.45
958.1719, 44689.84
958.6540, 44852.96
959.1361, 44995.18
959.6182, 44991.51
960.1003, 44962.36
960.5825, 45030.27
961.0646, 45180.53
961.5467, 45303.96
962.0288, 45380.43
962.5109, 45423.98
962.9930, 45418.46
963.4752, 45396.91
963.9573, 45454.69
964.4394, 45577.97
964.9215, 45684.38
965.4036, 45744.23
965.8857, 45784.05
966.3679, 45810.20
966.8500, 45835.61
967.3321, 45880.27
967.8142, 46000.87
968.2963, 46028.73
968.7784, 45921.51
969.2606, 45805.11
969.7427, 45834.96
970.2248, 45963.72
970.7069, 46008.64
971.1890, 45956.81
971.6711, 45910.43
972.1533, 45945.46
972.6354, 46001.28
973.1175, 46033.54
973.5996, 46041.71
974.0817, 46077.41
974.5638, 46145.40
975.0460, 46226.01
975.5281, 46325.13
976.0102, 46419.65
976.4923, 46448.97
976.9744, 46431.87
977.4565, 46423.56
977.9387, 46471.14
978.4208, 46504.62
978.9029, 46458.36
979.3850, 46404.39
979.8671, 46455.43
980.3492, 46638.66
980.8314, 46760.66
981.3135, 46792.56
981.7956, 46797.52
982.2777, 46840.48
982.7598, 46903.61
983.2419, 46963.52
983.7241, 47017.13
984.2062, 47063.83
984.6883, 47091.36
985.1704, 47124.54
985.6525, 47177.59
986.1346, 47247.93
986.6168, 47304.57
987.0989, 47348.19
987.5810, 47399.83
988.0631, 47484.11
988.5452, 47571.69
989.0273, 47633.93
989.5095, 47677.02
989.9916, 47716.13
990.4737, 47758.82
990.9558, 47789.79
991.4379, 47804.13
991.9200, 47809.99
992.4022, 47804.93
992.8843, 47799.71
993.3664, 47852.06
993.8485, 47981.93
994.3306, 48106.82
994.8127, 48169.16
995.2949, 48201.85
995.7770, 48221.34
996.2591, 48220.27
996.7412, 48286.10
997.2233, 48441.85
997.7054, 48578.25
998.1876, 48606.43
998.6697, 48577.42
999.1518, 48611.09
999.6339, 48691.87
1000.116, 48757.60
1000.598, 48740.03
1001.080, 48750.77
1001.562, 48856.43
1002.044, 49001.58
1002.527, 49083.00
1003.009, 49094.34
1003.491, 49130.41
1003.973, 49214.56
1004.455, 49297.34
1004.937, 49300.29
1005.419, 49279.82
1005.901, 49307.04
1006.384, 49400.92
1006.866, 49517.78
1007.348, 49672.80
1007.830, 49815.21
1008.312, 49912.52
1008.794, 49971.73
1009.276, 50028.12
1009.758, 50083.84
1010.240, 50157.95
1010.723, 50276.83
1011.205, 50402.57
1011.687, 50515.41
1012.169, 50616.02
1012.651, 50699.89
1013.133, 50734.52
1013.615, 50862.56
1014.097, 51129.45
1014.580, 51432.52
1015.062, 51602.13
1015.544, 51708.76
1016.026, 51896.88
1016.508, 52205.30
1016.990, 52516.02
1017.472, 52791.28
1017.954, 53044.84
1018.436, 53277.17
1018.919, 53488.84
1019.401, 53735.92
1019.883, 54018.48
1020.365, 54313.03
1020.847, 54637.85
1021.329, 54941.74
1021.811, 55162.76
1022.293, 55322.54
1022.776, 55480.14
1023.258, 55682.18
1023.740, 55822.16
1024.222, 55882.57
1024.704, 55889.25
1025.186, 55909.74
1025.668, 55906.99
1026.150, 55721.53
1026.632, 55317.57
1027.115, 54917.45
1027.597, 54659.41
1028.079, 54448.64
1028.561, 54207.75
1029.043, 53938.71
1029.525, 53751.20
1030.007, 53653.86
1030.489, 53593.23
1030.972, 53563.20
1031.454, 53536.66
1031.936, 53452.50
1032.418, 53344.76
1032.900, 53287.36
1033.382, 53355.10
1033.864, 53400.64
1034.346, 53396.43
1034.828, 53381.63
1035.311, 53399.68
1035.793, 53447.04
1036.275, 53500.70
1036.757, 53559.22
1037.239, 53621.19
1037.721, 53703.96
1038.203, 53774.27
1038.685, 53785.44
1039.167, 53749.38
1039.650, 53791.24
1040.132, 53928.40
1040.614, 54066.17
1041.096, 54166.71
1041.578, 54257.23
1042.060, 54389.01
1042.542, 54537.86
1043.024, 54658.24
1043.507, 54715.59
1043.989, 54784.32
1044.471, 54897.75
1044.953, 55005.31
1045.435, 55051.88
1045.917, 55046.03
1046.399, 55119.21
1046.881, 55269.84
1047.364, 55419.19
1047.846, 55503.21
1048.328, 55577.70
1048.810, 55685.32
1049.292, 55817.18
1049.774, 55929.42
1050.256, 56018.98
1050.738, 56095.65
1051.220, 56155.86
1051.703, 56218.68
1052.185, 56311.78
1052.667, 56424.45
1053.149, 56543.00
1053.631, 56670.57
1054.113, 56775.04
1054.595, 56821.79
1055.077, 56874.15
1055.559, 56973.96
1056.042, 57108.79
1056.524, 57196.15
1057.006, 57239.70
1057.488, 57269.42
1057.970, 57290.74
1058.452, 57314.58
1058.934, 57338.35
1059.416, 57373.25
1059.899, 57444.12
1060.381, 57573.10
1060.863, 57655.25
1061.345, 57674.96
1061.827, 57678.34
1062.309, 57715.25
1062.791, 57765.99
1063.273, 57800.72
1063.755, 57817.32
1064.238, 57831.13
1064.720, 57839.26
1065.202, 57854.96
1065.684, 57882.79
1066.166, 57920.21
1066.648, 57970.38
1067.130, 58025.76
1067.612, 58047.67
1068.094, 57995.61
1068.577, 57975.57
1069.059, 58122.19
1069.541, 58282.73
1070.023, 58296.94
1070.505, 58124.87
1070.987, 58037.51
1071.469, 58039.77
1071.951, 58066.72
1072.434, 58091.92
1072.916, 58103.44
1073.398, 58070.82
1073.880, 58010.63
1074.362, 57981.09
1074.844, 58009.39
1075.326, 58045.81
1075.808, 58091.73
1076.291, 58131.24
1076.773, 58130.24
1077.255, 58105.98
1077.737, 58115.66
1078.219, 58169.70
1078.701, 58206.53
1079.183, 58194.51
1079.665, 58154.36
1080.147, 58082.50
1080.630, 57992.34
1081.112, 57973.65
1081.594, 58023.77
1082.076, 58060.76
1082.558, 58051.19
1083.040, 58021.84
1083.522, 57970.02
1084.004, 57924.82
1084.486, 57930.27
1084.969, 58013.29
1085.451, 58083.91
1085.933, 58145.11
1086.415, 58180.69
1086.897, 58163.05
1087.379, 58118.86
1087.861, 58081.11
1088.343, 58056.41
1088.826, 58067.31
1089.308, 58155.29
1089.790, 58237.02
1090.272, 58300.61
1090.754, 58347.34
1091.236, 58367.89
1091.718, 58371.29
1092.200, 58409.87
1092.682, 58495.09
1093.165, 58556.66
1093.647, 58515.47
1094.129, 58468.50
1094.611, 58482.99
1095.093, 58548.86
1095.575, 58590.73
1096.057, 58607.43
1096.539, 58628.33
1097.022, 58659.35
1097.504, 58707.71
1097.986, 58815.65
1098.468, 58930.76
1098.950, 58972.08
1099.432, 58879.01
1099.914, 58846.31
1100.396, 58883.06
1100.879, 58952.01
1101.361, 59065.65
1101.843, 59175.01
1102.325, 59148.31
1102.807, 59026.78
1103.289, 58967.07
1103.771, 59087.52
1104.253, 59195.55
1104.735, 59257.21
1105.218, 59294.05
1105.700, 59315.44
1106.182, 59334.67
1106.664, 59437.09
1107.146, 59634.86
1107.628, 59794.42
1108.110, 59814.53
1108.592, 59793.61
1109.074, 59773.71
1109.557, 59759.89
1110.039, 59772.77
1110.521, 59812.83
1111.003, 59847.47
1111.485, 59857.59
1111.967, 59887.30
1112.449, 60002.36
1112.931, 60145.17
1113.414, 60257.07
1113.896, 60331.49
1114.378, 60361.93
1114.860, 60333.36
1115.342, 60327.43
1115.824, 60412.54
1116.306, 60529.06
1116.788, 60574.16
1117.271, 60576.80
1117.753, 60602.38
1118.235, 60688.54
1118.717, 60776.35
1119.199, 60871.84
1119.681, 60950.28
1120.163, 60975.26
1120.645, 60965.27
1121.127, 60962.64
1121.609, 60973.27
1122.092, 61024.96
1122.574, 61199.71
1123.056, 61331.46
1123.538, 61339.17
1124.020, 61294.95
1124.502, 61355.91
1124.984, 61506.75
1125.466, 61612.72
1125.949, 61643.48
1126.431, 61668.58
1126.913, 61750.69
1127.395, 61832.21
1127.877, 61858.21
1128.359, 61839.50
1128.841, 61874.88
1129.323, 61968.31
1129.806, 62045.81
1130.288, 62070.43
1130.770, 62089.83
1131.252, 62157.38
1131.734, 62246.50
1132.216, 62321.67
1132.698, 62375.99
1133.180, 62427.46
1133.662, 62474.67
1134.145, 62523.86
1134.627, 62580.38
1135.109, 62641.12
1135.591, 62704.10
1136.073, 62766.84
1136.555, 62821.32
1137.037, 62829.83
1137.519, 62893.08
1138.001, 63039.42
1138.484, 63193.01
1138.966, 63250.48
1139.448, 63259.45
1139.930, 63364.70
1140.412, 63556.50
1140.894, 63668.89
1141.376, 63514.97
1141.858, 63431.23
1142.341, 63532.68
1142.823, 63719.75
1143.305, 63809.52
1143.787, 63823.04
1144.269, 63858.52
1144.751, 63934.30
1145.233, 64009.58
1145.715, 64071.85
1146.198, 64114.88
1146.680, 64121.26
1147.162, 64108.64
1147.644, 64180.16
1148.126, 64327.10
1148.608, 64420.39
1149.090, 64394.45
1149.572, 64374.39
1150.054, 64474.18
1150.536, 64611.10
1151.019, 64704.56
1151.501, 64748.39
1151.983, 64816.01
1152.465, 64909.60
1152.947, 64979.75
1153.429, 64989.65
1153.911, 64975.65
1154.393, 64937.04
1154.876, 64909.32
1155.358, 64967.31
1155.840, 65160.64
1156.322, 65281.64
1156.804, 65315.14
1157.286, 65338.94
1157.768, 65424.24
1158.250, 65529.94
1158.733, 65594.38
1159.215, 65631.97
1159.697, 65709.66
1160.179, 65888.52
1160.661, 65987.03
1161.143, 65964.65
1161.625, 65913.68
1162.107, 65941.61
1162.589, 66013.80
1163.072, 66073.60
1163.554, 66117.32
1164.036, 66165.37
1164.518, 66218.77
1165.000, 66282.92
1165.482, 66360.05
1165.964, 66447.52
1166.446, 66549.99
1166.928, 66655.72
1167.411, 66738.96
1167.893, 66793.83
1168.375, 66835.13
1168.857, 66852.55
1169.339, 66876.82
1169.821, 66918.84
1170.303, 66976.12
1170.785, 67050.57
1171.268, 67134.79
1171.750, 67206.20
1172.232, 67253.80
1172.714, 67296.25
1173.196, 67316.02
1173.678, 67358.84
1174.160, 67465.25
1174.642, 67620.97
1175.125, 67721.59
1175.607, 67774.63
1176.089, 67816.58
1176.571, 67863.85
1177.053, 67906.05
1177.535, 67914.90
1178.017, 67935.46
1178.499, 68022.68
1178.981, 68175.91
1179.464, 68273.66
1179.946, 68317.64
1180.428, 68350.38
1180.910, 68396.73
1181.392, 68441.17
1181.874, 68466.05
1182.356, 68489.45
1182.838, 68542.91
1183.320, 68628.27
1183.803, 68697.73
1184.285, 68747.21
1184.767, 68802.60
1185.249, 68892.22
1185.731, 68986.91
1186.213, 69076.95
1186.695, 69153.25
1187.177, 69179.63
1187.660, 69149.68
1188.142, 69180.14
1188.624, 69297.38
1189.106, 69413.62
1189.588, 69424.30
1190.070, 69423.66
1190.552, 69494.50
1191.034, 69630.57
1191.516, 69767.37
1191.999, 69908.43
1192.481, 70021.59
1192.963, 70096.73
1193.445, 70155.90
1193.927, 70229.90
1194.409, 70293.17
1194.891, 70295.31
1195.373, 70232.30
1195.855, 70299.67
1196.338, 70518.76
1196.820, 70682.09
1197.302, 70688.43
1197.784, 70646.24
1198.266, 70660.00
1198.748, 70702.70
1199.230, 70737.45
1199.712, 70752.61
1200.195, 70809.32
1200.677, 70911.74
1201.159, 71028.45
1201.641, 71157.77
1202.123, 71272.37
1202.605, 71309.20
1203.087, 71320.21
1203.569, 71402.88
1204.052, 71622.52
1204.534, 71729.72
1205.016, 71706.65
1205.498, 71682.98
1205.980, 71759.09
1206.462, 71874.77
1206.944, 71979.64
1207.426, 72067.27
1207.908, 72113.09
1208.391, 72079.35
1208.873, 72128.38
1209.355, 72286.04
1209.837, 72425.77
1210.319, 72383.63
1210.801, 72307.71
1211.283, 72388.39
1211.765, 72583.57
1212.247, 72730.23
1212.730, 72822.11
1213.212, 72835.27
1213.694, 72750.58
1214.176, 72665.72
1214.658, 72665.25
1215.140, 72722.91
1215.622, 72816.50
1216.104, 72942.88
1216.587, 73095.22
1217.069, 73294.66
1217.551, 73439.24
1218.033, 73507.54
1218.515, 73538.83
1218.997, 73547.53
1219.479, 73563.27
1219.961, 73631.90
1220.443, 73750.86
1220.926, 73836.27
1221.408, 73874.26
1221.890, 73920.02
1222.372, 73989.95
1222.854, 74058.86
1223.336, 74101.09
1223.818, 74122.54
1224.300, 74106.18
1224.782, 74051.15
1225.265, 74116.84
1225.747, 74333.50
1226.229, 74527.46
1226.711, 74644.90
1227.193, 74720.05
1227.675, 74784.33
1228.157, 74836.09
1228.639, 74862.84
1229.122, 74859.10
1229.604, 74913.34
1230.086, 75039.91
1230.568, 75123.09
1231.050, 75089.16
1231.532, 75054.33
1232.014, 75198.59
1232.496, 75394.08
1232.979, 75461.45
1233.461, 75364.05
1233.943, 75391.29
1234.425, 75555.17
1234.907, 75722.25
1235.389, 75837.81
1235.871, 75916.73
1236.353, 75949.09
1236.835, 75970.50
1237.318, 76035.59
1237.800, 76157.14
1238.282, 76230.61
1238.764, 76253.82
1239.246, 76259.00
1239.728, 76201.79
1240.210, 76211.41
1240.692, 76525.27
1241.175, 76902.18
1241.657, 76984.27
1242.139, 76695.20
1242.621, 76619.99
1243.103, 76759.91
1243.585, 76891.07
1244.067, 76830.37
1244.549, 76764.30
1245.031, 76807.14
1245.514, 76932.62
1245.996, 77107.13
1246.478, 77341.20
1246.960, 77524.03
1247.442, 77653.78
1247.924, 77724.37
1248.406, 77652.01
1248.888, 77605.91
1249.370, 77732.73
1249.853, 77910.65
1250.335, 77966.67
1250.817, 77906.02
1251.299, 77914.77
1251.781, 77997.02
1252.263, 78089.22
1252.745, 78153.37
1253.227, 78218.26
1253.710, 78323.08
1254.192, 78414.27
1254.674, 78386.22
1255.156, 78268.62
1255.638, 78296.16
1256.120, 78471.04
1256.602, 78645.04
1257.084, 78784.84
1257.567, 78839.35
1258.049, 78751.58
1258.531, 78632.30
1259.013, 78641.07
1259.495, 78749.02
1259.977, 78863.20
1260.459, 78973.78
1260.941, 79065.63
1261.423, 79137.98
1261.906, 79170.00
1262.388, 79123.50
1262.870, 79092.17
1263.352, 79266.59
1263.834, 79543.33
1264.316, 79666.66
1264.798, 79625.08
1265.280, 79596.09
1265.762, 79620.20
1266.245, 79689.14
1266.727, 79817.32
1267.209, 79954.59
1267.691, 80030.56
1268.173, 80069.55
1268.655, 80110.59
1269.137, 80157.20
1269.619, 80188.45
1270.102, 80169.61
1270.584, 80236.61
1271.066, 80442.13
1271.548, 80656.97
1272.030, 80690.01
1272.512, 80654.02
1272.994, 80678.93
1273.476, 80773.39
1273.958, 80867.25
1274.441, 80965.10
1274.923, 81018.21
1275.405, 81005.52
1275.887, 80991.29
1276.369, 81045.09
1276.851, 81127.57
1277.333, 81212.00
1277.815, 81291.66
1278.297, 81341.28
1278.780, 81359.28
1279.262, 81366.74
1279.744, 81362.12
1280.226, 81384.87
1280.708, 81490.74
1281.190, 81615.37
1281.672, 81717.63
1282.154, 81799.30
1282.637, 81851.59
1283.119, 81881.27
1283.601, 81957.41
1284.083, 82103.13
1284.565, 82240.05
1285.047, 82353.01
1285.529, 82401.88
1286.011, 82349.70
1286.494, 82241.59
1286.976, 82195.88
1287.458, 82205.22
1287.940, 82246.26
1288.422, 82313.70
1288.904, 82418.69
1289.386, 82633.02
1289.868, 82789.41
1290.350, 82813.88
1290.833, 82774.64
1291.315, 82799.23
1291.797, 82864.52
1292.279, 82926.47
1292.761, 82976.48
1293.243, 83030.12
1293.725, 83095.31
1294.207, 83144.49
1294.689, 83157.52
1295.172, 83177.47
1295.654, 83305.76
1296.136, 83458.24
1296.618, 83509.88
1297.100, 83431.44
1297.582, 83401.02
1298.064, 83420.44
1298.546, 83480.76
1299.029, 83589.42
1299.511, 83705.23
1299.993, 83791.75
1300.475, 83857.92
1300.957, 83903.19
1301.439, 83932.99
1301.921, 83981.09
1302.403, 84047.45
1302.885, 84124.53
1303.368, 84213.16
1303.850, 84301.41
1304.332, 84395.13
1304.814, 84467.96
1305.296, 84502.05
##END=



