##NAMES=Leucophoenicite
##RRUFFID=R060308
##IDEAL CHEMISTRY=Mn^2+^_7_(SiO_4_)_3_(OH)_2_
##LOCALITY=Parker Shaft, Franklin, Sussex County, New Jersey, USA
##OWNER=RRUFF
##SOURCE=Michael Scott
##DESCRIPTION=Pink-tan colored massive, associated with white willemite and pinkish ribbeite (R150125). X-ray shows sample is twinned 180 deg around a.
##STATUS=The identification of this mineral has been confirmed by single-crystal X-ray diffraction.
##URL=rruff.info/R060308
91.53320, 368.2666
92.01532, 370.1613
92.49744, 369.9225
92.97955, 372.0435
93.46167, 372.7101
93.94379, 370.3698
94.42590, 367.9183
94.90802, 364.4994
95.39014, 357.7213
95.87225, 346.7162
96.35437, 336.3223
96.83649, 328.4550
97.31860, 322.3293
97.80072, 317.3092
98.28284, 312.8166
98.76495, 308.5389
99.24707, 304.7259
99.72919, 303.3774
100.2113, 300.3017
100.6934, 293.7809
101.1755, 284.6915
101.6577, 274.8266
102.1398, 265.3409
102.6219, 255.7238
103.1040, 249.3035
103.5861, 246.6063
104.0682, 245.5558
104.5504, 245.6389
105.0325, 246.5201
105.5146, 247.4082
105.9967, 247.1736
106.4788, 245.5012
106.9609, 243.2867
107.4431, 240.4751
107.9252, 237.1541
108.4073, 233.1209
108.8894, 227.9357
109.3715, 222.8890
109.8536, 220.3569
110.3358, 220.5229
110.8179, 221.3309
111.3000, 221.8870
111.7821, 222.2035
112.2642, 222.3687
112.7463, 222.0749
113.2285, 221.8688
113.7106, 222.4447
114.1927, 224.1337
114.6748, 226.0180
115.1569, 226.6502
115.6390, 225.3936
116.1212, 224.5235
116.6033, 225.1794
117.0854, 226.3251
117.5675, 226.7713
118.0496, 225.7795
118.5317, 223.8761
119.0139, 223.6131
119.4960, 226.7261
119.9781, 229.8066
120.4602, 232.3609
120.9423, 234.4450
121.4244, 236.2206
121.9066, 237.7757
122.3887, 239.0766
122.8708, 240.6947
123.3529, 242.7397
123.8350, 244.9233
124.3171, 247.1486
124.7993, 249.3965
125.2814, 251.6457
125.7635, 253.9037
126.2456, 256.1849
126.7277, 258.3299
127.2098, 260.0688
127.6920, 261.7851
128.1741, 263.8523
128.6562, 266.3187
129.1383, 269.1955
129.6204, 272.9339
130.1025, 277.4505
130.5847, 281.2702
131.0668, 283.7627
131.5489, 285.0827
132.0310, 285.6722
132.5131, 285.1562
132.9952, 284.4102
133.4774, 284.2556
133.9595, 284.7033
134.4416, 285.2303
134.9237, 285.4252
135.4058, 285.2805
135.8879, 284.8697
136.3701, 284.3093
136.8522, 283.4215
137.3343, 281.6800
137.8164, 279.0144
138.2985, 276.4481
138.7806, 275.9814
139.2628, 279.7043
139.7449, 281.6840
140.2270, 280.3099
140.7091, 277.7396
141.1912, 275.9039
141.6733, 275.6792
142.1555, 276.5631
142.6376, 276.8452
143.1197, 277.0723
143.6018, 275.9933
144.0839, 272.7650
144.5660, 268.1991
145.0482, 263.4748
145.5303, 259.2325
146.0124, 255.4611
146.4945, 251.9907
146.9766, 248.7682
147.4587, 245.8237
147.9409, 243.3045
148.4230, 241.1328
148.9051, 239.0005
149.3872, 236.7704
149.8693, 234.3726
150.3514, 231.6130
150.8336, 228.1623
151.3157, 224.5512
151.7978, 221.4698
152.2799, 219.0468
152.7620, 216.1736
153.2441, 211.5142
153.7263, 205.8278
154.2084, 200.2114
154.6905, 194.9833
155.1726, 190.1159
155.6547, 185.4488
156.1368, 180.7929
156.6190, 176.7987
157.1011, 173.7047
157.5832, 171.3923
158.0653, 169.6622
158.5474, 168.7398
159.0295, 168.5106
159.5117, 167.4091
159.9938, 164.2767
160.4759, 161.3585
160.9580, 159.3867
161.4401, 158.3008
161.9222, 157.7966
162.4044, 157.7055
162.8865, 158.1446
163.3686, 158.2957
163.8507, 157.7811
164.3328, 157.3220
164.8149, 157.3862
165.2971, 157.9034
165.7792, 158.3696
166.2613, 158.1296
166.7434, 156.6865
167.2255, 156.0297
167.7076, 156.9582
168.1898, 158.0143
168.6719, 158.0128
169.1540, 156.7695
169.6361, 155.1584
170.1182, 154.4227
170.6003, 155.0051
171.0825, 155.4185
171.5646, 155.6348
172.0467, 155.6395
172.5288, 155.2939
173.0109, 154.5068
173.4930, 153.6726
173.9752, 153.6604
174.4573, 154.6587
174.9394, 155.1051
175.4215, 154.3123
175.9036, 152.6403
176.3857, 150.7775
176.8679, 148.6479
177.3500, 146.8152
177.8321, 146.0171
178.3142, 146.2795
178.7963, 146.8618
179.2784, 147.5314
179.7606, 148.2459
180.2427, 148.5833
180.7248, 148.1479
181.2069, 147.5225
181.6890, 147.2151
182.1711, 147.2680
182.6533, 147.4770
183.1354, 147.6934
183.6175, 147.9292
184.0996, 148.0807
184.5817, 148.3485
185.0638, 148.3724
185.5460, 147.8436
186.0281, 146.7070
186.5102, 145.2593
186.9923, 143.8343
187.4744, 142.3028
187.9565, 141.1706
188.4387, 141.5105
188.9208, 141.6194
189.4029, 139.8073
189.8850, 135.6599
190.3671, 130.7293
190.8492, 128.0455
191.3314, 129.6583
191.8135, 130.3165
192.2956, 129.2925
192.7777, 127.5043
193.2598, 125.5820
193.7419, 123.8017
194.2241, 122.2904
194.7062, 121.3594
195.1883, 122.1874
195.6704, 122.2242
196.1525, 120.7058
196.6346, 118.5983
197.1168, 117.0660
197.5989, 116.6271
198.0810, 116.9013
198.5631, 116.7987
199.0452, 115.9949
199.5273, 115.2716
200.0095, 114.7752
200.4916, 114.4351
200.9737, 114.1350
201.4558, 113.8215
201.9379, 113.5175
202.4200, 113.2726
202.9022, 112.9987
203.3843, 112.9000
203.8664, 113.1181
204.3485, 113.5781
204.8306, 114.0916
205.3127, 114.6193
205.7949, 115.1055
206.2770, 115.4432
206.7591, 115.6145
207.2412, 115.7024
207.7233, 115.6698
208.2054, 115.5528
208.6876, 115.5566
209.1697, 115.6714
209.6518, 116.0593
210.1339, 116.9727
210.6160, 118.6101
211.0981, 120.2170
211.5803, 121.1469
212.0624, 121.3979
212.5445, 121.5020
213.0266, 121.4323
213.5087, 121.4320
213.9908, 121.7450
214.4730, 122.4291
214.9551, 123.2992
215.4372, 124.1626
215.9193, 125.0168
216.4014, 125.9023
216.8836, 126.9623
217.3657, 127.9862
217.8478, 128.7348
218.3299, 129.1383
218.8120, 129.5699
219.2941, 130.5982
219.7763, 132.4262
220.2584, 134.1832
220.7405, 135.8111
221.2226, 137.2677
221.7047, 138.2569
222.1868, 138.7477
222.6690, 139.4238
223.1511, 141.5320
223.6332, 145.9515
224.1153, 149.8493
224.5974, 152.8391
225.0795, 155.3674
225.5617, 157.6785
226.0438, 159.8615
226.5259, 161.9413
227.0080, 163.9570
227.4901, 165.8613
227.9722, 167.7702
228.4544, 170.2040
228.9365, 172.3451
229.4186, 173.3664
229.9007, 173.1017
230.3828, 172.1973
230.8649, 171.7808
231.3471, 172.3231
231.8292, 172.6171
232.3113, 172.9828
232.7934, 172.9499
233.2755, 171.8703
233.7576, 169.6475
234.2398, 167.0366
234.7219, 165.3311
235.2040, 165.2689
235.6861, 164.8517
236.1682, 163.6637
236.6503, 162.3510
237.1325, 161.6466
237.6146, 161.7167
238.0967, 161.9322
238.5788, 161.2890
239.0609, 159.1189
239.5430, 157.6611
240.0252, 157.5282
240.5073, 157.8794
240.9894, 157.8394
241.4715, 157.2007
241.9536, 156.4342
242.4357, 156.1695
242.9179, 156.5041
243.4000, 156.9526
243.8821, 157.8110
244.3642, 158.6065
244.8463, 158.6850
245.3284, 157.8875
245.8106, 156.8945
246.2927, 156.5547
246.7748, 156.8957
247.2569, 157.0906
247.7390, 156.5813
248.2211, 156.0523
248.7033, 156.6558
249.1854, 158.7250
249.6675, 160.6463
250.1496, 160.3703
250.6317, 158.2588
251.1138, 156.7295
251.5960, 156.8682
252.0781, 157.6035
252.5602, 157.5376
253.0423, 156.4819
253.5244, 155.0083
254.0065, 153.1648
254.4887, 151.2234
254.9708, 150.0842
255.4529, 150.4742
255.9350, 151.5968
256.4171, 152.5571
256.8992, 153.4405
257.3813, 153.6494
257.8635, 152.0464
258.3456, 149.5110
258.8277, 147.4805
259.3098, 146.5462
259.7919, 146.2375
260.2740, 146.1022
260.7562, 146.3001
261.2383, 145.9771
261.7204, 144.1900
262.2025, 141.6853
262.6846, 139.2509
263.1667, 136.9701
263.6489, 135.0268
264.1310, 133.8242
264.6131, 133.5584
265.0952, 133.1776
265.5773, 132.2550
266.0594, 130.9611
266.5416, 129.3044
267.0237, 127.1570
267.5058, 124.9971
267.9879, 123.5139
268.4700, 122.8465
268.9521, 122.2371
269.4343, 121.3108
269.9164, 120.4063
270.3985, 119.8634
270.8806, 119.7899
271.3627, 119.8172
271.8448, 119.4760
272.3270, 118.7006
272.8091, 117.8894
273.2912, 116.6887
273.7733, 115.7736
274.2554, 115.8164
274.7375, 116.8883
275.2197, 118.0835
275.7018, 118.1865
276.1839, 116.9288
276.6660, 116.3247
277.1481, 117.4949
277.6302, 118.7979
278.1124, 119.3256
278.5945, 119.0747
279.0766, 118.7317
279.5587, 119.0464
280.0408, 120.1171
280.5229, 120.9639
281.0051, 121.4317
281.4872, 121.7466
281.9693, 121.9620
282.4514, 122.0962
282.9335, 122.1800
283.4156, 122.3045
283.8978, 122.4789
284.3799, 122.2477
284.8620, 121.0818
285.3441, 120.0241
285.8262, 119.4139
286.3083, 119.1908
286.7905, 119.2130
287.2726, 119.4991
287.7547, 119.9668
288.2368, 119.7612
288.7189, 117.9011
289.2010, 116.5334
289.6832, 116.5568
290.1653, 117.3671
290.6474, 118.0542
291.1295, 118.0969
291.6116, 117.6279
292.0938, 117.1649
292.5759, 116.6550
293.0580, 116.2412
293.5401, 115.9890
294.0222, 115.8228
294.5043, 115.6315
294.9865, 115.3601
295.4686, 115.1097
295.9507, 115.1581
296.4328, 115.7738
296.9149, 116.2106
297.3970, 116.2189
297.8792, 116.1245
298.3613, 116.2418
298.8434, 116.6568
299.3255, 117.1699
299.8076, 117.4310
300.2897, 117.2847
300.7719, 117.2339
301.2540, 117.1770
301.7361, 117.2926
302.2182, 117.7377
302.7003, 118.5148
303.1824, 119.4747
303.6646, 120.4933
304.1467, 121.6528
304.6288, 122.5471
305.1109, 122.7600
305.5930, 123.0900
306.0751, 124.2802
306.5573, 126.0468
307.0394, 127.3180
307.5215, 126.9267
308.0036, 124.6863
308.4857, 123.5044
308.9678, 124.2237
309.4500, 125.2244
309.9321, 126.2596
310.4142, 127.2262
310.8963, 128.0498
311.3784, 128.6963
311.8605, 129.1546
312.3427, 129.3298
312.8248, 129.0663
313.3069, 128.6670
313.7890, 128.2147
314.2711, 127.6563
314.7532, 126.9109
315.2354, 125.9411
315.7175, 124.7744
316.1996, 123.4824
316.6817, 121.8740
317.1638, 120.4421
317.6459, 119.3163
318.1281, 118.3269
318.6102, 117.3817
319.0923, 116.4366
319.5744, 115.4135
320.0565, 114.1550
320.5386, 112.5160
321.0208, 110.9772
321.5029, 109.7601
321.9850, 108.4859
322.4671, 106.8528
322.9492, 104.8595
323.4313, 102.7812
323.9135, 100.8849
324.3956, 99.19166
324.8777, 97.58768
325.3598, 95.95132
325.8419, 94.51208
326.3240, 93.42131
326.8062, 92.61166
327.2883, 91.88573
327.7704, 91.09292
328.2525, 90.23988
328.7346, 89.42982
329.2167, 89.03654
329.6989, 88.22603
330.1810, 86.34396
330.6631, 84.02383
331.1452, 82.25368
331.6273, 81.60738
332.1094, 81.70164
332.5916, 81.31779
333.0737, 80.05647
333.5558, 78.99351
334.0379, 78.20314
334.5200, 77.71450
335.0021, 77.76548
335.4843, 78.40105
335.9664, 79.03271
336.4485, 78.56666
336.9306, 76.46652
337.4127, 74.86773
337.8948, 74.61568
338.3770, 74.41037
338.8591, 73.17879
339.3412, 71.00232
339.8233, 69.07447
340.3055, 68.85776
340.7876, 70.59229
341.2697, 71.61107
341.7518, 71.40541
342.2339, 70.91236
342.7160, 70.29726
343.1982, 69.67859
343.6803, 69.26775
344.1624, 69.29160
344.6445, 69.62495
345.1266, 69.59087
345.6087, 68.83111
346.0909, 68.29426
346.5730, 68.40379
347.0551, 68.83891
347.5372, 69.20230
348.0193, 69.33172
348.5014, 69.33269
348.9836, 69.39217
349.4657, 69.52040
349.9478, 69.67265
350.4299, 70.03413
350.9120, 70.29422
351.3941, 70.04565
351.8763, 69.23528
352.3584, 68.53772
352.8405, 68.78141
353.3226, 69.99833
353.8047, 71.01685
354.2868, 71.53920
354.7690, 71.97409
355.2511, 72.64063
355.7332, 73.47639
356.2153, 74.17905
356.6974, 74.55238
357.1795, 74.63577
357.6617, 74.48792
358.1438, 73.85403
358.6259, 73.53532
359.1080, 74.39290
359.5901, 75.77124
360.0722, 76.56463
360.5544, 76.06934
361.0365, 75.17929
361.5186, 75.29321
362.0007, 76.56223
362.4828, 77.62962
362.9649, 77.66750
363.4471, 77.37682
363.9292, 77.52283
364.4113, 78.20179
364.8934, 79.23935
365.3755, 80.79770
365.8576, 82.71591
366.3398, 84.03305
366.8219, 84.28133
367.3040, 84.23244
367.7861, 84.57778
368.2682, 85.29741
368.7503, 86.44913
369.2325, 88.42672
369.7146, 90.75077
370.1967, 92.49567
370.6788, 93.49515
371.1609, 94.49355
371.6430, 96.13509
372.1252, 98.24610
372.6073, 100.2019
373.0894, 101.4615
373.5715, 102.9024
374.0536, 105.4384
374.5357, 108.8791
375.0179, 112.1685
375.5000, 114.7704
375.9821, 116.8761
376.4642, 118.9824
376.9463, 121.1042
377.4284, 123.1765
377.9106, 124.7881
378.3927, 126.4103
378.8748, 129.0365
379.3569, 133.0112
379.8390, 137.3848
380.3211, 140.9177
380.8033, 143.4050
381.2854, 146.2183
381.7675, 149.7031
382.2496, 153.3481
382.7317, 156.8633
383.2138, 160.1902
383.6960, 163.2545
384.1781, 166.0176
384.6602, 168.4691
385.1423, 170.6668
385.6244, 172.2456
386.1065, 174.0253
386.5887, 176.4582
387.0708, 179.2292
387.5529, 181.9647
388.0350, 184.5315
388.5171, 186.6341
388.9992, 187.5963
389.4814, 186.0694
389.9635, 185.4478
390.4456, 186.3238
390.9277, 187.6966
391.4098, 188.9473
391.8919, 189.8884
392.3741, 190.4364
392.8562, 190.4302
393.3383, 189.7476
393.8204, 189.4598
394.3025, 190.1900
394.7846, 190.6444
395.2668, 190.1278
395.7489, 189.0380
396.2310, 188.1924
396.7131, 188.0973
397.1952, 188.4650
397.6773, 188.2815
398.1595, 187.2369
398.6416, 186.1147
399.1237, 185.0006
399.6058, 183.8731
400.0879, 182.7806
400.5700, 181.7072
401.0522, 180.4745
401.5343, 178.7912
402.0164, 176.5815
402.4985, 174.4133
402.9806, 172.4562
403.4627, 170.3916
403.9449, 167.9984
404.4270, 165.3798
404.9091, 162.8178
405.3912, 160.5345
405.8733, 158.4053
406.3554, 156.0466
406.8376, 153.3507
407.3197, 150.6457
407.8018, 147.8285
408.2839, 145.1758
408.7660, 143.1646
409.2481, 142.0074
409.7303, 140.8454
410.2124, 138.5987
410.6945, 135.3605
411.1766, 132.5482
411.6587, 130.6292
412.1408, 129.0063
412.6230, 127.2148
413.1051, 125.2526
413.5872, 123.0464
414.0693, 120.2725
414.5514, 117.3418
415.0335, 114.9873
415.5157, 113.2879
415.9978, 111.7256
416.4799, 109.9160
416.9620, 108.0118
417.4441, 106.4641
417.9262, 105.4696
418.4084, 104.5906
418.8905, 103.7446
419.3726, 102.8322
419.8547, 101.4885
420.3368, 99.48870
420.8189, 97.35073
421.3011, 96.02403
421.7832, 95.79189
422.2653, 95.12308
422.7474, 93.25016
423.2295, 91.28491
423.7116, 90.45427
424.1938, 90.67343
424.6759, 90.62488
425.1580, 89.17441
425.6401, 86.43668
426.1222, 84.51636
426.6043, 83.51095
427.0865, 83.06571
427.5686, 83.86411
428.0507, 84.92874
428.5328, 84.73968
429.0149, 82.73998
429.4970, 79.93908
429.9792, 78.13130
430.4613, 77.93484
430.9434, 77.38764
431.4255, 76.09496
431.9076, 74.85727
432.3897, 74.16530
432.8719, 73.95423
433.3540, 73.85008
433.8361, 73.56031
434.3182, 73.12415
434.8003, 72.82274
435.2824, 72.71070
435.7646, 72.66364
436.2467, 72.74707
436.7288, 72.82613
437.2109, 72.75466
437.6930, 72.48646
438.1751, 72.09854
438.6573, 71.64511
439.1394, 71.11560
439.6215, 70.68379
440.1036, 70.49619
440.5857, 70.27028
441.0678, 69.71188
441.5500, 68.93217
442.0321, 68.35696
442.5142, 68.49035
442.9963, 68.84827
443.4784, 68.33935
443.9605, 66.80583
444.4427, 65.63126
444.9248, 65.55433
445.4069, 66.27884
445.8890, 67.33979
446.3711, 68.99428
446.8532, 70.22247
447.3354, 70.16633
447.8175, 69.30876
448.2996, 68.71159
448.7817, 68.63205
449.2638, 68.69679
449.7459, 68.54369
450.2281, 68.15609
450.7102, 67.62468
451.1923, 66.48737
451.6744, 65.61935
452.1565, 65.93336
452.6386, 67.03057
453.1208, 67.64142
453.6029, 67.06322
454.0850, 65.72238
454.5671, 64.79904
455.0492, 64.61070
455.5313, 64.43594
456.0135, 64.53580
456.4956, 64.46618
456.9777, 63.55273
457.4598, 61.91869
457.9419, 60.60471
458.4240, 60.74898
458.9062, 62.38558
459.3883, 63.00734
459.8704, 61.44442
460.3525, 60.14124
460.8346, 59.90700
461.3167, 60.12721
461.7989, 59.97463
462.2810, 59.12867
462.7631, 57.97650
463.2452, 57.03210
463.7273, 56.26637
464.2094, 55.90287
464.6916, 56.45638
465.1737, 56.96154
465.6558, 56.72520
466.1379, 55.92342
466.6200, 55.25497
467.1021, 55.10838
467.5843, 55.33789
468.0664, 55.78106
468.5485, 56.51005
469.0306, 56.91858
469.5127, 56.50689
469.9948, 55.73940
470.4770, 55.38006
470.9591, 55.55843
471.4412, 55.75140
471.9233, 55.82706
472.4054, 55.71015
472.8875, 55.12252
473.3697, 53.98167
473.8518, 52.89069
474.3339, 52.37324
474.8160, 52.45755
475.2981, 52.75394
475.7802, 53.48851
476.2624, 54.18964
476.7445, 54.52522
477.2266, 54.69844
477.7087, 55.19835
478.1908, 56.23160
478.6729, 57.34771
479.1551, 57.66512
479.6372, 56.47544
480.1193, 56.17551
480.6014, 57.53241
481.0835, 58.96593
481.5656, 59.62366
482.0478, 59.58762
482.5299, 59.31810
483.0120, 59.09693
483.4941, 58.91275
483.9762, 58.69490
484.4583, 58.27210
484.9405, 58.18229
485.4226, 58.67216
485.9047, 59.40815
486.3868, 60.21143
486.8689, 61.03081
487.3510, 61.76265
487.8332, 62.25680
488.3153, 62.57008
488.7974, 63.04914
489.2795, 63.83489
489.7616, 64.46496
490.2437, 64.55692
490.7259, 64.33055
491.2080, 64.03625
491.6901, 63.52702
492.1722, 63.33785
492.6543, 64.20859
493.1364, 65.72667
493.6186, 66.67445
494.1007, 66.71236
494.5828, 66.25827
495.0649, 65.67455
495.5470, 64.93458
496.0291, 64.48689
496.5113, 64.76659
496.9934, 64.94894
497.4755, 64.44962
497.9576, 63.46586
498.4397, 62.56207
498.9218, 62.02772
499.4040, 61.59343
499.8861, 60.58492
500.3682, 57.96845
500.8503, 56.75824
501.3324, 58.09477
501.8145, 59.68884
502.2967, 60.16870
502.7788, 59.61639
503.2609, 58.81691
503.7430, 58.28473
504.2251, 57.95820
504.7072, 57.59609
505.1894, 57.14544
505.6715, 56.77897
506.1536, 56.48283
506.6357, 56.32264
507.1178, 56.42832
507.5999, 56.79634
508.0821, 57.15015
508.5642, 57.08801
509.0463, 56.85758
509.5284, 57.37000
510.0105, 58.89154
510.4926, 60.19880
510.9748, 60.50277
511.4569, 60.03947
511.9390, 59.36032
512.4211, 58.14934
512.9032, 57.36329
513.3853, 57.83213
513.8674, 58.94450
514.3495, 59.63828
514.8317, 59.68114
515.3138, 59.47395
515.7959, 59.42398
516.2780, 59.55132
516.7601, 59.50698
517.2422, 59.13662
517.7244, 58.79622
518.2065, 58.61456
518.6886, 58.53454
519.1707, 58.53932
519.6528, 58.60577
520.1349, 58.54811
520.6171, 58.08520
521.0992, 57.18020
521.5813, 56.01674
522.0634, 53.95188
522.5455, 52.28015
523.0276, 51.60598
523.5098, 51.64674
523.9919, 51.85281
524.4740, 51.98695
524.9561, 52.16802
525.4382, 52.74612
525.9203, 53.73358
526.4025, 54.10588
526.8846, 53.20891
527.3667, 52.17568
527.8488, 52.30865
528.3309, 53.39709
528.8130, 54.06573
529.2952, 53.50603
529.7773, 52.66810
530.2594, 52.43218
530.7415, 52.71169
531.2236, 52.99321
531.7057, 53.02553
532.1879, 53.01124
532.6700, 53.33654
533.1521, 54.09588
533.6342, 55.03196
534.1163, 56.58981
534.5984, 57.93747
535.0806, 58.43356
535.5627, 58.22950
536.0448, 57.78667
536.5269, 57.34236
537.0090, 57.05568
537.4911, 57.48102
537.9733, 59.03468
538.4554, 60.39815
538.9375, 61.38351
539.4196, 62.17100
539.9017, 62.80739
540.3839, 63.33358
540.8660, 63.84207
541.3481, 64.34885
541.8302, 64.90282
542.3123, 65.64025
542.7944, 66.57919
543.2766, 67.52451
543.7587, 68.33565
544.2408, 69.17171
544.7229, 70.25100
545.2050, 71.58836
545.6871, 73.00729
546.1693, 74.91377
546.6514, 76.57760
547.1335, 76.95857
547.6156, 76.17625
548.0977, 75.34061
548.5798, 75.07349
549.0620, 75.32401
549.5441, 75.91982
550.0262, 77.54163
550.5083, 78.58732
550.9904, 78.74160
551.4725, 78.55041
551.9547, 78.36539
552.4368, 78.22852
552.9189, 78.02072
553.4010, 77.61272
553.8831, 77.11376
554.3652, 77.03940
554.8474, 77.65838
555.3295, 78.02425
555.8116, 77.91906
556.2937, 77.44933
556.7758, 76.45256
557.2579, 75.00697
557.7401, 73.81680
558.2222, 73.56372
558.7043, 73.72799
559.1864, 73.21922
559.6685, 72.00893
560.1506, 71.26412
560.6328, 71.70998
561.1149, 72.81837
561.5970, 73.39492
562.0791, 73.20126
562.5612, 73.33074
563.0433, 73.93374
563.5255, 74.96914
564.0076, 76.64278
564.4897, 78.77562
564.9718, 80.76360
565.4539, 82.20097
565.9360, 83.28069
566.4182, 84.67143
566.9003, 86.78295
567.3824, 88.44090
567.8645, 89.08345
568.3466, 89.71558
568.8287, 91.12582
569.3109, 93.14439
569.7930, 94.97166
570.2751, 96.16851
570.7572, 96.82178
571.2393, 97.11937
571.7214, 97.07336
572.2036, 96.52900
572.6857, 95.31490
573.1678, 93.70061
573.6499, 92.03421
574.1320, 90.32504
574.6141, 88.30665
575.0963, 85.54346
575.5784, 82.73804
576.0605, 80.63387
576.5426, 79.04475
577.0247, 77.22806
577.5068, 74.83633
577.9890, 72.16496
578.4711, 69.76495
578.9532, 67.74102
579.4353, 65.73757
579.9174, 63.57594
580.3995, 61.60530
580.8817, 60.15118
581.3638, 58.99228
581.8459, 57.69148
582.3280, 56.02831
582.8101, 54.23718
583.2922, 52.63061
583.7744, 51.20583
584.2565, 50.09956
584.7386, 49.53048
585.2207, 48.98621
585.7029, 48.03225
586.1850, 46.82027
586.6671, 45.75129
587.1492, 45.09402
587.6313, 44.36525
588.1135, 42.87829
588.5956, 41.08317
589.0777, 40.19600
589.5598, 40.54493
590.0419, 41.13936
590.5240, 40.88944
591.0062, 39.74076
591.4883, 39.04435
591.9704, 39.30700
592.4525, 39.35154
592.9346, 38.56931
593.4167, 37.57920
593.8989, 37.25329
594.3810, 37.69872
594.8631, 38.06732
595.3452, 37.33159
595.8273, 35.62176
596.3094, 34.44640
596.7916, 33.92591
597.2737, 33.65504
597.7558, 33.62093
598.2379, 33.67218
598.7200, 33.68740
599.2021, 33.66597
599.6843, 33.49129
600.1664, 32.93237
600.6485, 32.26777
601.1306, 31.88631
601.6127, 31.80698
602.0948, 31.89461
602.5770, 32.10186
603.0591, 32.37261
603.5412, 32.55837
604.0233, 32.75309
604.5054, 32.68291
604.9875, 32.30571
605.4697, 31.70474
605.9518, 30.51516
606.4339, 29.15341
606.9160, 28.70035
607.3981, 29.86871
607.8802, 31.74409
608.3624, 32.41420
608.8445, 31.69174
609.3266, 31.25067
609.8087, 31.55041
610.2908, 31.92896
610.7729, 31.91014
611.2551, 31.57923
611.7372, 31.16814
612.2193, 30.59221
612.7014, 30.13216
613.1835, 30.13193
613.6656, 30.37532
614.1478, 30.30546
614.6299, 29.78916
615.1120, 29.31568
615.5941, 29.40638
616.0762, 30.06474
616.5583, 30.59365
617.0405, 31.17319
617.5226, 31.39744
618.0047, 30.89547
618.4868, 30.19336
618.9689, 29.81244
619.4510, 29.81686
619.9332, 29.90611
620.4153, 29.81550
620.8974, 29.61090
621.3795, 29.54773
621.8616, 29.65572
622.3438, 29.73713
622.8259, 29.63111
623.3080, 29.54480
623.7901, 29.84473
624.2722, 30.56636
624.7543, 30.99927
625.2365, 31.01781
625.7186, 30.62410
626.2007, 29.30572
626.6828, 27.56619
627.1649, 26.92894
627.6470, 28.05489
628.1292, 29.81147
628.6113, 30.28734
629.0934, 29.00281
629.5755, 28.44527
630.0576, 29.39986
630.5397, 30.26793
631.0219, 30.54169
631.5040, 30.46778
631.9861, 30.39194
632.4682, 30.41240
632.9503, 30.46840
633.4324, 30.64426
633.9146, 30.81114
634.3967, 30.36897
634.8788, 29.17391
635.3609, 28.35027
635.8430, 28.73505
636.3251, 29.85372
636.8073, 30.30553
637.2894, 29.81791
637.7715, 29.43785
638.2536, 29.27748
638.7357, 29.31705
639.2178, 29.75251
639.7000, 30.38084
640.1821, 30.63966
640.6642, 30.20061
641.1463, 29.43272
641.6284, 29.06068
642.1105, 29.12301
642.5927, 29.41785
643.0748, 30.28479
643.5569, 30.91838
644.0390, 30.68070
644.5211, 29.94699
645.0032, 29.49779
645.4854, 29.62486
645.9675, 29.79839
646.4496, 29.66957
646.9317, 29.34102
647.4138, 28.93962
647.8959, 28.50084
648.3781, 28.18866
648.8602, 28.13228
649.3423, 28.29649
649.8244, 28.51822
650.3065, 28.84570
650.7886, 29.16202
651.2708, 29.63684
651.7529, 29.95283
652.2350, 29.67019
652.7171, 29.03593
653.1992, 28.82684
653.6813, 29.61439
654.1635, 30.61199
654.6456, 30.45743
655.1277, 29.25748
655.6098, 28.31796
656.0919, 27.83898
656.5740, 27.81586
657.0562, 28.52074
657.5383, 29.77308
658.0204, 30.30040
658.5025, 29.24218
658.9846, 28.53180
659.4667, 29.10904
659.9489, 30.07519
660.4310, 30.61188
660.9131, 30.55883
661.3952, 29.92494
661.8773, 28.56822
662.3594, 26.92037
662.8416, 26.57050
663.3237, 28.00666
663.8058, 28.91474
664.2879, 28.33146
664.7700, 27.68609
665.2521, 28.22482
665.7343, 29.57495
666.2164, 30.44092
666.6985, 30.34216
667.1806, 29.81988
667.6627, 28.98136
668.1448, 28.06150
668.6270, 27.51352
669.1091, 27.42539
669.5912, 27.63671
670.0733, 28.05994
670.5554, 28.63885
671.0375, 28.95614
671.5197, 28.66635
672.0018, 28.68627
672.4839, 29.54704
672.9660, 30.35060
673.4481, 30.34533
673.9302, 29.70873
674.4124, 29.18935
674.8945, 29.19991
675.3766, 29.44163
675.8587, 29.62124
676.3408, 29.72123
676.8229, 29.62479
677.3051, 29.28158
677.7872, 28.89620
678.2693, 28.63053
678.7514, 28.48295
679.2335, 28.44005
679.7156, 28.38980
680.1978, 28.58265
680.6799, 29.57735
681.1620, 30.43887
681.6441, 30.10355
682.1262, 28.82385
682.6083, 27.82554
683.0905, 27.94017
683.5726, 28.60666
684.0547, 28.67002
684.5368, 28.13175
685.0189, 28.02290
685.5010, 28.66979
685.9832, 29.49882
686.4653, 30.27006
686.9474, 30.84253
687.4295, 30.58861
687.9116, 28.47282
688.3937, 26.93155
688.8759, 27.04152
689.3580, 27.81281
689.8401, 28.37663
690.3222, 28.61003
690.8043, 28.68017
691.2864, 28.68530
691.7686, 28.64469
692.2507, 28.62113
692.7328, 28.63488
693.2149, 28.50224
693.6970, 27.97064
694.1791, 27.61996
694.6613, 28.16650
695.1434, 29.15457
695.6255, 29.50256
696.1076, 28.66111
696.5897, 27.95869
697.0718, 28.21419
697.5540, 28.81316
698.0361, 29.08041
698.5182, 28.94572
699.0003, 28.50743
699.4824, 27.78846
699.9645, 27.01626
700.4467, 26.79698
700.9288, 27.29806
701.4109, 27.72702
701.8930, 27.92435
702.3751, 28.19043
702.8572, 28.85554
703.3394, 29.62599
703.8215, 30.00986
704.3036, 29.88934
704.7857, 29.44910
705.2678, 28.38401
705.7499, 27.28713
706.2321, 27.09342
706.7142, 27.72922
707.1963, 28.43089
707.6784, 28.80606
708.1605, 29.01665
708.6426, 29.41737
709.1248, 30.14089
709.6069, 30.57808
710.0890, 30.55559
710.5711, 30.44115
711.0532, 30.39437
711.5353, 30.31565
712.0175, 30.03591
712.4996, 29.51220
712.9817, 29.00115
713.4638, 28.55111
713.9459, 28.26786
714.4280, 28.28703
714.9102, 28.60983
715.3923, 29.36652
715.8744, 30.67467
716.3565, 31.86279
716.8386, 31.81513
717.3207, 30.24183
717.8029, 29.54104
718.2850, 30.45435
718.7671, 31.35519
719.2492, 32.18681
719.7313, 32.64034
720.2134, 32.12573
720.6956, 30.72224
721.1777, 29.67466
721.6598, 30.05170
722.1419, 30.95462
722.6240, 31.14710
723.1061, 30.82957
723.5883, 30.95326
724.0704, 31.83821
724.5525, 32.55499
725.0346, 31.97120
725.5167, 30.14937
725.9988, 29.42173
726.4810, 30.76709
726.9631, 31.81552
727.4452, 32.25317
727.9273, 32.33527
728.4094, 32.08111
728.8915, 31.63081
729.3737, 31.37386
729.8558, 31.52149
730.3379, 31.87998
730.8200, 32.39828
731.3021, 32.95182
731.7842, 33.07902
732.2664, 32.71099
732.7485, 32.49176
733.2306, 32.98078
733.7127, 33.91616
734.1948, 34.21605
734.6769, 33.12846
735.1591, 32.78589
735.6412, 34.21009
736.1233, 35.36574
736.6054, 34.83188
737.0875, 33.37969
737.5696, 32.51577
738.0518, 32.74566
738.5339, 33.39915
739.0160, 34.26428
739.4981, 35.06472
739.9802, 35.15064
740.4623, 34.56855
740.9445, 34.02534
741.4266, 33.85381
741.9087, 34.01637
742.3908, 34.51636
742.8729, 35.55492
743.3550, 36.06057
743.8372, 35.35702
744.3193, 34.92817
744.8014, 35.61545
745.2835, 36.51792
745.7656, 36.44494
746.2477, 35.30614
746.7299, 34.46256
747.2120, 34.79736
747.6941, 35.71019
748.1762, 36.79885
748.6583, 37.88576
749.1404, 38.37004
749.6226, 38.08889
750.1047, 37.52980
750.5868, 37.13588
751.0689, 36.92480
751.5510, 37.12447
752.0331, 38.10388
752.5153, 38.78069
752.9974, 38.62838
753.4795, 38.43370
753.9616, 38.78638
754.4437, 39.51842
754.9258, 40.00958
755.4080, 39.87857
755.8901, 39.84607
756.3722, 40.70635
756.8543, 41.82713
757.3364, 42.10803
757.8185, 41.58323
758.3007, 41.20726
758.7828, 41.57830
759.2649, 42.30265
759.7470, 42.41737
760.2291, 41.64720
760.7112, 41.64130
761.1934, 42.84237
761.6755, 44.18222
762.1576, 45.47193
762.6397, 46.46999
763.1218, 46.73937
763.6039, 46.17280
764.0861, 45.57765
764.5682, 44.89989
765.0503, 44.60278
765.5324, 45.38593
766.0145, 46.74128
766.4966, 47.68383
766.9788, 47.93788
767.4609, 47.87281
767.9430, 47.77980
768.4251, 47.72070
768.9072, 48.02227
769.3893, 48.71407
769.8715, 49.63593
770.3536, 50.90290
770.8357, 52.17236
771.3178, 53.09814
771.7999, 53.73439
772.2820, 54.36451
772.7642, 55.07606
773.2463, 55.68660
773.7284, 56.10400
774.2105, 56.43378
774.6926, 56.54673
775.1747, 56.65796
775.6569, 57.39126
776.1390, 59.11043
776.6211, 61.06688
777.1032, 62.16291
777.5853, 62.55935
778.0674, 63.11502
778.5496, 63.86094
779.0317, 65.03738
779.5138, 66.84361
779.9959, 69.03505
780.4780, 71.19884
780.9601, 73.32312
781.4423, 75.48402
781.9244, 77.70782
782.4065, 79.92855
782.8886, 82.14063
783.3707, 84.32668
783.8528, 86.32891
784.3350, 88.22838
784.8171, 90.55154
785.2992, 93.70837
785.7813, 97.37339
786.2634, 101.1051
786.7455, 104.9911
787.2277, 109.3080
787.7098, 114.1029
788.1919, 119.3199
788.6740, 124.8268
789.1561, 130.7473
789.6382, 137.5270
790.1204, 145.2286
790.6025, 153.5336
791.0846, 162.0578
791.5667, 171.6105
792.0488, 182.5754
792.5309, 194.7781
793.0131, 207.9761
793.4952, 222.1186
793.9773, 237.5222
794.4594, 254.2542
794.9415, 272.3620
795.4236, 291.7881
795.9058, 312.6310
796.3879, 335.1552
796.8700, 359.4469
797.3521, 385.4079
797.8342, 413.0996
798.3163, 442.5094
798.7985, 473.6414
799.2806, 506.7926
799.7627, 540.1636
800.2448, 573.2122
800.7269, 606.9279
801.2090, 642.7850
801.6912, 680.2939
802.1733, 717.2638
802.6554, 753.8762
803.1375, 789.6896
803.6196, 825.0828
804.1017, 859.0927
804.5839, 891.5615
805.0660, 921.8575
805.5481, 948.2559
806.0302, 970.2460
806.5123, 990.0089
806.9944, 1009.402
807.4766, 1028.321
807.9587, 1047.069
808.4408, 1065.473
808.9229, 1081.956
809.4050, 1095.927
809.8871, 1107.554
810.3693, 1117.184
810.8514, 1124.794
811.3335, 1128.978
811.8156, 1129.990
812.2977, 1127.085
812.7798, 1119.480
813.2620, 1108.709
813.7441, 1094.545
814.2262, 1078.084
814.7083, 1061.939
815.1904, 1046.659
815.6725, 1032.094
816.1547, 1016.923
816.6368, 1003.159
817.1189, 993.7388
817.6010, 987.8305
818.0831, 982.5020
818.5652, 976.4901
819.0474, 970.7932
819.5295, 967.2881
820.0116, 965.5286
820.4937, 961.5133
820.9758, 955.2056
821.4579, 947.0262
821.9401, 937.7155
822.4222, 925.4779
822.9043, 907.5026
823.3864, 884.0778
823.8685, 860.9866
824.3506, 839.0232
824.8328, 816.4553
825.3149, 790.8884
825.7970, 766.5469
826.2791, 746.2220
826.7612, 729.5565
827.2433, 715.0285
827.7255, 702.0420
828.2076, 690.9730
828.6897, 681.9800
829.1718, 675.1652
829.6539, 671.2107
830.1360, 669.7209
830.6182, 668.6683
831.1003, 667.2842
831.5824, 667.2327
832.0645, 670.7516
832.5466, 677.5370
833.0287, 683.6415
833.5109, 688.8394
833.9930, 693.9528
834.4751, 699.1124
834.9572, 704.2382
835.4393, 709.8287
835.9214, 715.2972
836.4036, 718.8324
836.8857, 719.9296
837.3678, 719.8017
837.8499, 718.7133
838.3320, 716.5192
838.8141, 713.3694
839.2963, 708.9734
839.7784, 702.8133
840.2605, 694.7303
840.7426, 685.0002
841.2247, 673.3234
841.7068, 660.3759
842.1890, 647.6473
842.6711, 634.8813
843.1532, 620.9618
843.6353, 605.5350
844.1174, 589.5713
844.5995, 574.1635
845.0817, 556.7650
845.5638, 541.4165
846.0459, 521.2331
846.5280, 501.4754
847.0101, 482.6118
847.4922, 464.0258
847.9744, 445.8206
848.4565, 427.5066
848.9386, 408.0207
849.4207, 387.0660
849.9028, 366.7740
850.3849, 347.3596
850.8671, 329.2562
851.3492, 313.0880
851.8313, 298.2262
852.3134, 283.4586
852.7955, 268.9095
853.2776, 255.9160
853.7598, 245.6777
854.2419, 236.8181
854.7240, 226.9492
855.2061, 216.5079
855.6882, 207.6381
856.1703, 200.5937
856.6525, 193.9283
857.1346, 186.7918
857.6167, 181.6781
858.0988, 174.9272
858.5809, 172.1593
859.0630, 169.0513
859.5452, 165.3304
860.0273, 161.7589
860.5094, 158.5493
860.9915, 155.6194
861.4736, 153.0696
861.9557, 150.8028
862.4379, 148.2013
862.9200, 144.6580
863.4021, 141.4816
863.8842, 139.7434
864.3663, 138.0702
864.8484, 135.0977
865.3306, 131.1887
865.8127, 127.3457
866.2948, 123.9749
866.7769, 120.9279
867.2590, 118.4029
867.7411, 115.9971
868.2233, 112.5375
868.7054, 108.3103
869.1875, 105.1687
869.6696, 103.6493
870.1517, 102.2856
870.6339, 99.61140
871.1160, 96.05943
871.5981, 93.69825
872.0802, 92.96298
872.5623, 91.79683
873.0444, 89.81709
873.5266, 87.70126
874.0087, 85.60820
874.4908, 83.71739
874.9729, 82.43105
875.4550, 81.85882
875.9371, 81.23669
876.4193, 80.37680
876.9014, 79.55661
877.3835, 78.81296
877.8656, 78.22872
878.3477, 78.03506
878.8298, 78.10841
879.3120, 77.92139
879.7941, 77.16470
880.2762, 76.19032
880.7583, 75.10305
881.2404, 74.14098
881.7225, 73.83932
882.2047, 74.11243
882.6868, 74.42983
883.1689, 74.56105
883.6510, 74.52227
884.1331, 74.21147
884.6152, 73.74236
885.0974, 74.15991
885.5795, 75.64578
886.0616, 76.66630
886.5437, 76.78294
887.0258, 76.53533
887.5079, 76.21790
887.9901, 75.92677
888.4722, 76.05906
888.9543, 76.98293
889.4364, 77.63216
889.9185, 77.95135
890.4006, 78.06588
890.8828, 77.74536
891.3649, 77.41043
891.8470, 77.60558
892.3291, 78.36480
892.8112, 79.20546
893.2933, 79.95816
893.7755, 80.70817
894.2576, 81.68199
894.7397, 82.57566
895.2218, 82.95583
895.7039, 82.87619
896.1860, 82.59327
896.6682, 82.21038
897.1503, 82.07691
897.6324, 82.82621
898.1145, 84.12366
898.5966, 84.99140
899.0787, 85.43130
899.5609, 85.85896
900.0430, 86.43156
900.5251, 86.51925
901.0072, 85.31568
901.4893, 83.30637
901.9714, 83.13841
902.4536, 85.72817
902.9357, 86.68652
903.4178, 84.74850
903.8999, 82.72369
904.3820, 81.95705
904.8641, 82.08535
905.3463, 82.61427
905.8284, 83.61459
906.3105, 84.39045
906.7926, 84.99991
907.2747, 85.24098
907.7568, 84.65847
908.2390, 84.00378
908.7211, 84.14503
909.2032, 84.79485
909.6853, 84.85225
910.1674, 83.75106
910.6495, 82.73988
911.1317, 82.90897
911.6138, 83.39664
912.0959, 83.30828
912.5780, 82.70459
913.0601, 81.76354
913.5422, 80.59692
914.0244, 79.58523
914.5065, 79.17195
914.9886, 78.92333
915.4707, 77.56599
915.9528, 75.40398
916.4349, 74.55807
916.9171, 75.33347
917.3992, 76.19075
917.8813, 76.32305
918.3634, 75.95471
918.8455, 75.33419
919.3276, 74.39633
919.8098, 74.52554
920.2919, 76.44390
920.7740, 77.53514
921.2561, 76.60582
921.7382, 75.41792
922.2203, 75.63419
922.7025, 76.79276
923.1846, 77.02109
923.6667, 75.63712
924.1488, 74.82259
924.6309, 74.56776
925.1130, 75.16220
925.5952, 77.71973
926.0773, 80.60561
926.5594, 81.35793
927.0415, 80.10464
927.5236, 79.96538
928.0057, 82.86270
928.4879, 86.32991
928.9700, 88.99705
929.4521, 91.18533
929.9342, 93.01507
930.4163, 94.75002
930.8984, 96.84719
931.3806, 99.50253
931.8627, 102.8738
932.3448, 107.7671
932.8269, 113.1199
933.3090, 116.5457
933.7911, 118.4304
934.2733, 120.5570
934.7554, 123.2143
935.2375, 124.8669
935.7196, 124.3917
936.2017, 122.7152
936.6838, 121.9954
937.1660, 122.3517
937.6481, 121.1143
938.1302, 118.0164
938.6123, 114.4368
939.0944, 110.7351
939.5765, 106.8817
940.0587, 102.8004
940.5408, 98.51389
941.0229, 94.42278
941.5050, 90.81872
941.9871, 86.87918
942.4692, 81.61941
942.9514, 77.14156
943.4335, 74.89873
943.9156, 73.57638
944.3977, 71.34939
944.8798, 68.14252
945.3619, 65.68559
945.8441, 65.14570
946.3262, 64.37064
946.8083, 62.30276
947.2904, 59.94735
947.7725, 58.06811
948.2546, 56.60979
948.7368, 55.30822
949.2189, 54.08221
949.7010, 52.78349
950.1831, 50.95898
950.6652, 49.31910
951.1473, 48.99001
951.6295, 49.19157
952.1116, 48.27409
952.5937, 46.27987
953.0758, 44.80974
953.5579, 44.82900
954.0400, 45.25558
954.5222, 44.45501
955.0043, 44.07468
955.4864, 43.47206
955.9685, 42.20455
956.4506, 41.65728
956.9327, 40.16850
957.4149, 38.87881
957.8970, 38.86734
958.3791, 39.66661
958.8612, 39.78725
959.3433, 39.16402
959.8254, 38.83660
960.3076, 38.95903
960.7897, 38.98543
961.2718, 38.66781
961.7539, 38.16607
962.2360, 37.59838
962.7181, 36.98881
963.2003, 36.98921
963.6824, 38.21466
964.1645, 38.76890
964.6466, 37.98793
965.1287, 37.11160
965.6108, 36.75043
966.0930, 36.72262
966.5751, 36.76525
967.0572, 36.86233
967.5393, 37.14582
968.0214, 37.93737
968.5035, 38.50399
968.9857, 38.72136
969.4678, 38.57647
969.9499, 37.68855
970.4320, 36.52398
970.9141, 36.12809
971.3962, 36.82724
971.8784, 37.54555
972.3605, 37.97009
972.8426, 38.05442
973.3247, 37.50927
973.8068, 36.76693
974.2889, 36.43712
974.7711, 36.46203
975.2532, 36.19975
975.7353, 35.25424
976.2174, 34.66375
976.6995, 36.04445
977.1816, 37.87774
977.6638, 37.87537
978.1459, 36.55112
978.6280, 35.21526
979.1101, 34.25615
979.5922, 33.87595
980.0743, 34.31959
980.5565, 34.94273
981.0386, 34.55892
981.5207, 33.47787
982.0028, 32.79325
982.4849, 32.54157
982.9670, 32.34315
983.4492, 32.06900
983.9313, 32.20156
984.4134, 33.34093
984.8955, 34.97330
985.3776, 35.28834
985.8597, 34.23174
986.3419, 33.64652
986.8240, 33.71565
987.3061, 34.05782
987.7882, 34.63602
988.2703, 35.03242
988.7524, 34.68739
989.2346, 33.67883
989.7167, 32.79795
990.1988, 31.85838
990.6809, 31.71395
991.1630, 33.14055
991.6451, 33.99595
992.1273, 32.63013
992.6094, 30.60411
993.0915, 30.39206
993.5736, 32.12121
994.0557, 33.24791
994.5378, 33.64104
995.0200, 33.60103
995.5021, 32.56895
995.9842, 31.73437
996.4663, 31.96946
996.9484, 32.71876
997.4305, 33.09869
997.9127, 33.03423
998.3948, 32.71232
998.8769, 31.85970
999.3590, 31.15708
999.8411, 30.87453
1000.323, 30.75952
1000.805, 30.72266
1001.287, 30.66755
1001.770, 30.33410
1002.252, 29.63083
1002.734, 29.33735
1003.216, 30.11735
1003.698, 31.00403
1004.180, 31.83331
1004.662, 32.17300
1005.144, 30.99071
1005.627, 28.98046
1006.109, 28.19201
1006.591, 29.39373
1007.073, 30.61433
1007.555, 30.30713
1008.037, 29.55666
1008.519, 29.30848
1009.001, 29.38192
1009.483, 29.58078
1009.966, 29.77347
1010.448, 29.61877
1010.930, 28.93283
1011.412, 28.38160
1011.894, 28.79041
1012.376, 29.65191
1012.858, 30.53095
1013.340, 31.13465
1013.823, 30.49492
1014.305, 28.70683
1014.787, 27.11063
1015.269, 26.47534
1015.751, 26.41703
1016.233, 26.56473
1016.715, 26.84341
1017.197, 27.04479
1017.679, 27.17856
1018.162, 27.31820
1018.644, 27.47682
1019.126, 27.61619
1019.608, 27.71415
1020.090, 27.75030
1020.572, 27.61897
1021.054, 27.37258
1021.536, 27.42405
1022.018, 27.76502
1022.501, 28.11688
1022.983, 28.42492
1023.465, 28.46011
1023.947, 27.99011
1024.429, 27.38396
1024.911, 27.62680
1025.393, 28.75694
1025.875, 28.55918
1026.358, 26.75588
1026.840, 26.12837
1027.322, 27.69200
1027.804, 29.19035
1028.286, 28.77026
1028.768, 27.24199
1029.250, 26.66949
1029.732, 27.20117
1030.214, 27.55447
1030.697, 27.67482
1031.179, 27.83616
1031.661, 28.22558
1032.143, 28.38756
1032.625, 27.86076
1033.107, 26.92405
1033.589, 26.37724
1034.071, 26.30021
1034.553, 26.22171
1035.036, 25.90797
1035.518, 26.16871
1036.000, 27.79840
1036.482, 29.17911
1036.964, 28.75913
1037.446, 27.22218
1037.928, 26.63967
1038.410, 27.43364
1038.893, 27.67655
1039.375, 26.79948
1039.857, 26.28363
1040.339, 26.75852
1040.821, 27.41712
1041.303, 27.77496
1041.785, 27.82873
1042.267, 27.46281
1042.750, 26.35162
1043.232, 25.90686
1043.714, 27.04247
1044.196, 27.62759
1044.678, 26.39945
1045.160, 25.18588
1045.642, 25.62833
1046.124, 27.05059
1046.606, 27.79338
1047.089, 27.67469
1047.571, 27.22186
1048.053, 25.84573
1048.535, 25.00830
1049.017, 25.62197
1049.499, 26.43525
1049.981, 26.44158
1050.463, 25.93224
1050.945, 25.65197
1051.428, 25.73033
1051.910, 25.73003
1052.392, 25.46551
1052.874, 25.25121
1053.356, 25.02549
1053.838, 25.03765
1054.320, 25.95526
1054.802, 27.09815
1055.285, 26.89376
1055.767, 24.96366
1056.249, 23.64822
1056.731, 24.08470
1057.213, 24.53965
1057.695, 24.24198
1058.177, 23.85690
1058.659, 23.76320
1059.141, 24.02401
1059.624, 24.88309
1060.106, 26.37836
1060.588, 27.26151
1061.070, 26.79479
1061.552, 26.09872
1062.034, 25.36096
1062.516, 24.80484
1062.998, 24.82468
1063.480, 25.05132
1063.963, 24.75863
1064.445, 23.86931
1064.927, 23.22280
1065.409, 23.02368
1065.891, 23.26294
1066.373, 24.48450
1066.855, 25.60791
1067.337, 25.71525
1067.820, 25.19736
1068.302, 24.60485
1068.784, 24.08372
1069.266, 23.86706
1069.748, 24.35332
1070.230, 24.61844
1070.712, 24.05053
1071.194, 23.31605
1071.677, 22.77970
1072.159, 22.47691
1072.641, 22.46974
1073.123, 22.70730
1073.605, 22.91339
1074.087, 22.91594
1074.569, 23.04547
1075.051, 23.86166
1075.533, 24.43067
1076.016, 23.65085
1076.498, 22.49578
1076.980, 22.41372
1077.462, 23.26930
1077.944, 23.74975
1078.426, 23.32498
1078.908, 22.81743
1079.390, 22.52390
1079.873, 22.36954
1080.355, 22.18093
1080.837, 22.19689
1081.319, 22.84072
1081.801, 23.93520
1082.283, 24.94306
1082.765, 25.76735
1083.247, 26.11486
1083.729, 25.45051
1084.212, 24.75340
1084.694, 24.70157
1085.176, 24.81295
1085.658, 24.42279
1086.140, 23.79874
1086.622, 23.83439
1087.104, 24.78523
1087.586, 25.25346
1088.068, 24.21716
1088.551, 23.11145
1089.033, 22.29722
1089.515, 22.04098
1089.997, 23.10540
1090.479, 24.68139
1090.961, 25.11509
1091.443, 24.18470
1091.925, 23.61429
1092.408, 24.83882
1092.890, 25.46298
1093.372, 23.63063
1093.854, 21.77673
1094.336, 21.78155
1094.818, 22.85566
1095.300, 24.07448
1095.782, 25.11403
1096.265, 24.95549
1096.747, 22.22916
1097.229, 20.37307
1097.711, 21.06675
1098.193, 22.34995
1098.675, 23.45781
1099.157, 24.25153
1099.639, 24.52401
1100.121, 24.39684
1100.604, 24.40927
1101.086, 24.82422
1101.568, 24.91370
1102.050, 24.01630
1102.532, 23.34480
1103.014, 23.86941
1103.496, 24.47195
1103.978, 23.90075
1104.460, 22.60826
1104.943, 21.91219
1105.425, 22.06942
1105.907, 22.37635
1106.389, 22.92631
1106.871, 23.30782
1107.353, 23.19303
1107.835, 23.08140
1108.317, 23.64284
1108.800, 24.29934
1109.282, 23.73238
1109.764, 21.77520
1110.246, 20.99552
1110.728, 23.30849
1111.210, 24.27772
1111.692, 22.02473
1112.174, 19.79169
1112.656, 18.93376
1113.139, 19.06732
1113.621, 19.97972
1114.103, 21.56093
1114.585, 22.76682
1115.067, 23.65529
1115.549, 24.04224
1116.031, 23.71918
1116.513, 23.18159
1116.995, 22.41865
1117.478, 21.67016
1117.960, 21.07082
1118.442, 20.67105
1118.924, 20.69196
1119.406, 20.30249
1119.888, 19.97316
1120.370, 20.24779
1120.852, 19.61128
1121.335, 20.13782
1121.817, 20.90896
1122.299, 21.53088
1122.781, 21.77464
1123.263, 20.99097
1123.745, 21.44784
1124.227, 21.80362
1124.709, 21.26438
1125.192, 22.58716
1125.674, 22.31204
1126.156, 21.66571
1126.638, 21.07231
1127.120, 20.73005
1127.602, 20.97269
1128.084, 21.60111
1128.566, 21.44533
1129.048, 20.29574
1129.531, 20.54445
1130.013, 22.60535
1130.495, 23.66625
1130.977, 22.72351
1131.459, 21.36741
1131.941, 20.87881
1132.423, 20.88866
1132.905, 20.56282
1133.387, 19.94213
1133.870, 19.66107
1134.352, 19.71348
1134.834, 20.00875
1135.316, 20.52440
1135.798, 21.01188
1136.280, 21.33753
1136.762, 21.54495
1137.244, 21.66355
1137.727, 21.73566
1138.209, 21.88387
1138.691, 22.10004
1139.173, 22.45705
1139.655, 22.88135
1140.137, 22.78575
1140.619, 22.03137
1141.101, 21.56200
1141.583, 22.24097
1142.066, 23.31175
1142.548, 23.76714
1143.030, 23.68413
1143.512, 22.93247
1143.994, 21.83551
1144.476, 21.15383
1144.958, 21.04000
1145.440, 21.42868
1145.922, 22.32675
1146.405, 23.10286
1146.887, 23.06043
1147.369, 22.68591
1147.851, 22.49767
1148.333, 22.36453
1148.815, 22.09087
1149.297, 21.68440
1149.779, 21.11179
1150.262, 20.42103
1150.744, 20.14098
1151.226, 20.73354
1151.708, 21.56104
1152.190, 22.65220
1152.672, 23.36491
1153.154, 22.90059
1153.636, 21.85607
1154.119, 21.02948
1154.601, 20.51575
1155.083, 20.09920
1155.565, 19.66328
1156.047, 19.51987
1156.529, 19.80893
1157.011, 20.36235
1157.493, 21.43551
1157.975, 22.43779
1158.458, 22.95674
1158.940, 23.00572
1159.422, 22.51922
1159.904, 21.42632
1160.386, 20.84395
1160.868, 20.90515
1161.350, 21.43561
1161.832, 23.34389
1162.314, 24.49837
1162.797, 23.48002
1163.279, 21.82247
1163.761, 21.19711
1164.243, 21.33666
1164.725, 20.92163
1165.207, 20.80303
1165.689, 21.02747
1166.171, 20.46738
1166.654, 21.25130
1167.136, 20.87418
1167.618, 20.42821
1168.100, 20.64572
1168.582, 21.19632
1169.064, 21.58760
1169.546, 21.78460
1170.028, 21.32887
1170.510, 20.19740
1170.993, 19.30355
1171.475, 18.73890
1171.957, 18.76995
1172.439, 19.52141
1172.921, 20.08641
1173.403, 19.57967
1173.885, 18.60525
1174.367, 18.33541
1174.849, 18.61305
1175.332, 18.99275
1175.814, 19.42602
1176.296, 19.82876
1176.778, 20.17137
1177.260, 20.46051
1177.742, 20.69650
1178.224, 20.57096
1178.706, 19.33990
1179.189, 18.09460
1179.671, 18.74054
1180.153, 19.94795
1180.635, 19.59451
1181.117, 18.18161
1181.599, 17.01183
1182.081, 16.45383
1182.563, 16.56962
1183.046, 17.59779
1183.528, 18.60087
1184.010, 19.22473
1184.492, 19.40395
1184.974, 18.61532
1185.456, 17.75549
1185.938, 17.97463
1186.420, 18.82993
1186.902, 19.14627
1187.385, 18.72344
1187.867, 17.99757
1188.349, 16.35642
1188.831, 15.46800
1189.313, 16.37875
1189.795, 17.21964
1190.277, 16.92624
1190.759, 16.27340
1191.241, 16.02765
1191.724, 16.07609
1192.206, 15.93176
1192.688, 15.41941
1193.170, 15.48773
1193.652, 16.30503
1194.134, 17.29386
1194.616, 18.59961
1195.098, 19.07667
1195.581, 17.84044
1196.063, 16.21431
1196.545, 16.07449
1197.027, 17.03915
1197.509, 17.44399
1197.991, 17.32856
1198.473, 17.26706
1198.955, 17.29932
1199.438, 17.50193
1199.920, 17.86193
1200.402, 17.84543
1200.884, 17.05255
1201.366, 16.20625
1201.848, 16.50050
1202.330, 15.88957
1202.812, 16.87624
1203.294, 16.07109
1203.776, 16.49268
1204.259, 17.78018
1204.741, 18.34711
1205.223, 17.82543
1205.705, 17.23686
1206.187, 17.13016
1206.669, 17.19943
1207.151, 17.26970
1207.633, 17.39262
1208.116, 17.76315
1208.598, 18.09000
1209.080, 17.89562
1209.562, 17.40053
1210.044, 17.33620
1210.526, 17.08509
1211.008, 16.66913
1211.490, 16.90104
1211.973, 16.21746
1212.455, 16.37700
1212.937, 16.88307
1213.419, 17.88698
1213.901, 18.74810
1214.383, 18.77439
1214.865, 18.15558
1215.347, 17.47468
1215.829, 16.64758
1216.312, 16.41576
1216.794, 16.94541
1217.276, 17.21512
1217.758, 17.00739
1218.240, 16.73900
1218.722, 16.56661
1219.204, 16.82165
1219.686, 18.05309
1220.168, 17.82092
1220.651, 18.09727
1221.133, 18.19899
1221.615, 17.66874
1222.097, 17.70569
1222.579, 16.84185
1223.061, 15.11832
1223.543, 14.53528
1224.025, 16.03196
1224.508, 17.70666
1224.990, 18.09744
1225.472, 17.61253
1225.954, 15.64993
1226.436, 13.90290
1226.918, 14.96728
1227.400, 17.31815
1227.882, 18.23349
1228.365, 17.60393
1228.847, 17.05477
1229.329, 17.03100
1229.811, 17.11856
1230.293, 17.23719
1230.775, 17.40042
1231.257, 17.81290
1231.739, 18.05324
1232.221, 17.65482
1232.703, 17.07020
1233.186, 16.84531
1233.668, 16.95802
1234.150, 17.27175
1234.632, 17.81009
1235.114, 18.54375
1235.596, 19.65088
1236.078, 19.95675
1236.560, 19.04843
1237.043, 18.32975
1237.525, 18.63771
1238.007, 19.37328
1238.489, 19.86214
1238.971, 20.02086
1239.453, 19.39316
1239.935, 18.28931
1240.417, 17.73356
1240.900, 17.70686
1241.382, 17.97877
1241.864, 18.41328
1242.346, 18.69117
1242.828, 18.65281
1243.310, 18.56408
1243.792, 18.75716
1244.274, 18.84207
1244.756, 18.35890
1245.239, 17.75862
1245.721, 17.48041
1246.203, 17.38395
1246.685, 17.18462
1247.167, 16.89522
1247.649, 16.69394
1248.131, 16.41378
1248.613, 16.87881
1249.095, 19.18975
1249.578, 20.71953
1250.060, 20.84353
1250.542, 20.31811
1251.024, 19.09133
1251.506, 18.10483
1251.988, 18.61891
1252.470, 20.19656
1252.952, 21.20869
1253.435, 21.65616
1253.917, 21.54184
1254.399, 20.88353
1254.881, 20.09061
1255.363, 19.27414
1255.845, 18.76911
1256.327, 18.73183
1256.809, 19.12436
1257.292, 20.10492
1257.774, 21.02707
1258.256, 20.79593
1258.738, 20.10595
1259.220, 19.85376
1259.702, 19.93126
1260.184, 20.17315
1260.666, 20.44741
1261.148, 20.44276
1261.630, 20.07099
1262.113, 19.95733
1262.595, 20.77626
1263.077, 21.21406
1263.559, 20.37298
1264.041, 19.71688
1264.523, 20.13756
1265.005, 20.89060
1265.487, 21.37032
1265.970, 21.67484
1266.452, 22.09583
1266.934, 22.64737
1267.416, 22.31833
1267.898, 20.90552
1268.380, 20.28516
1268.862, 20.69072
1269.344, 20.73464
1269.827, 19.95813
1270.309, 19.55143
1270.791, 20.43420
1271.273, 21.62987
1271.755, 21.60809
1272.237, 21.06414
1272.719, 21.36560
1273.201, 22.02883
1273.683, 22.23615
1274.166, 22.03468
1274.648, 21.61361
1275.130, 21.11228
1275.612, 20.88827
1276.094, 21.10935
1276.576, 21.46220
1277.058, 22.06447
1277.540, 22.43923
1278.022, 22.09270
1278.505, 21.79729
1278.987, 22.28446
1279.469, 22.92692
1279.951, 23.04753
1280.433, 22.68491
1280.915, 21.80073
1281.397, 20.11138
1281.879, 20.69496
1282.362, 23.95585
1282.844, 24.36256
1283.326, 20.97205
1283.808, 18.64062
1284.290, 19.39129
1284.772, 20.91092
1285.254, 21.33963
1285.736, 20.68338
##END=



