##NAMES=Levyne-Ca
##RRUFFID=R070270
##IDEAL CHEMISTRY=Ca_3_(Si_12_Al_6_)O_36_&#183;18H_2_O
##LOCALITY=Beech Creek Quarry, Mount Vernon, Grant County, Oregon, USA
##OWNER=RRUFF
##SOURCE=Michael Scott
##DESCRIPTION=Clear, colorless hexagonal tabular
##STATUS=The identification of this mineral has been confirmed only by single crystal X-ray diffraction.
##URL=rruff.info/R070270
148.6976, 4102.011
149.1797, 4176.312
149.6618, 4249.930
150.1439, 4311.842
150.6261, 4349.382
151.1082, 4385.874
151.5903, 4426.529
152.0724, 4472.089
152.5545, 4520.308
153.0366, 4572.923
153.5188, 4627.813
154.0009, 4680.585
154.4830, 4743.809
154.9651, 4795.523
155.4472, 4824.974
155.9293, 4811.022
156.4115, 4803.982
156.8936, 4817.401
157.3757, 4846.414
157.8578, 4874.197
158.3399, 4900.177
158.8221, 4920.883
159.3042, 4934.273
159.7863, 4930.572
160.2684, 4928.545
160.7505, 4937.569
161.2326, 4955.880
161.7148, 4969.174
162.1969, 4965.356
162.6790, 4955.966
163.1611, 4952.192
163.6432, 4958.214
164.1253, 4970.310
164.6075, 4990.920
165.0896, 5020.289
165.5717, 5043.111
166.0538, 5042.754
166.5359, 5031.868
167.0180, 5028.546
167.5002, 5048.002
167.9823, 5072.974
168.4644, 5090.587
168.9465, 5099.375
169.4286, 5104.478
169.9107, 5111.321
170.3929, 5117.293
170.8750, 5117.047
171.3571, 5099.961
171.8392, 5078.673
172.3213, 5068.080
172.8034, 5072.499
173.2856, 5079.859
173.7677, 5077.750
174.2498, 5068.777
174.7319, 5061.927
175.2140, 5068.557
175.6961, 5079.402
176.1783, 5079.469
176.6604, 5063.645
177.1425, 5040.614
177.6246, 5020.018
178.1067, 5001.606
178.5888, 4982.345
179.0710, 4958.558
179.5531, 4932.607
180.0352, 4910.160
180.5173, 4893.225
180.9994, 4879.995
181.4815, 4868.466
181.9637, 4858.516
182.4458, 4849.530
182.9279, 4839.859
183.4100, 4830.346
183.8921, 4824.447
184.3742, 4826.429
184.8564, 4831.205
185.3385, 4824.575
185.8206, 4805.599
186.3027, 4785.954
186.7848, 4779.037
187.2669, 4783.221
187.7491, 4786.000
188.2312, 4784.949
188.7133, 4779.232
189.1954, 4762.822
189.6775, 4733.811
190.1596, 4703.086
190.6418, 4683.281
191.1239, 4674.358
191.6060, 4669.871
192.0881, 4671.909
192.5702, 4678.599
193.0524, 4670.307
193.5345, 4643.000
194.0166, 4611.265
194.4987, 4601.203
194.9808, 4614.425
195.4629, 4625.027
195.9451, 4618.098
196.4272, 4593.995
196.9093, 4576.126
197.3914, 4565.920
197.8735, 4560.857
198.3556, 4557.584
198.8378, 4556.722
199.3199, 4553.851
199.8020, 4544.527
200.2841, 4528.012
200.7662, 4518.078
201.2483, 4517.555
201.7305, 4522.175
202.2126, 4521.353
202.6947, 4514.202
203.1768, 4504.917
203.6589, 4495.375
204.1410, 4485.434
204.6232, 4476.719
205.1053, 4469.056
205.5874, 4462.853
206.0695, 4459.830
206.5516, 4460.701
207.0337, 4462.880
207.5159, 4465.302
207.9980, 4468.532
208.4801, 4469.101
208.9622, 4466.335
209.4443, 4460.588
209.9264, 4453.278
210.4086, 4443.867
210.8907, 4433.939
211.3728, 4423.393
211.8549, 4409.677
212.3370, 4404.367
212.8191, 4412.078
213.3013, 4430.664
213.7834, 4442.523
214.2655, 4446.293
214.7476, 4445.519
215.2297, 4442.188
215.7118, 4434.180
216.1940, 4429.780
216.6761, 4432.437
217.1582, 4441.575
217.6403, 4442.948
218.1224, 4432.551
218.6045, 4419.728
219.0867, 4413.944
219.5688, 4418.531
220.0509, 4422.452
220.5330, 4423.572
221.0151, 4421.880
221.4972, 4418.574
221.9794, 4412.651
222.4615, 4406.201
222.9436, 4401.494
223.4257, 4399.385
223.9078, 4397.011
224.3899, 4392.157
224.8721, 4383.902
225.3542, 4385.390
225.8363, 4402.636
226.3184, 4423.933
226.8005, 4435.492
227.2827, 4433.822
227.7648, 4428.555
228.2469, 4419.564
228.7290, 4404.955
229.2111, 4402.785
229.6932, 4421.836
230.1754, 4446.234
230.6575, 4453.846
231.1396, 4433.191
231.6217, 4415.978
232.1038, 4411.762
232.5859, 4423.309
233.0681, 4433.755
233.5502, 4446.172
234.0323, 4455.292
234.5144, 4452.345
234.9965, 4430.037
235.4786, 4407.834
235.9608, 4390.156
236.4429, 4376.152
236.9250, 4371.962
237.4071, 4381.745
237.8892, 4398.827
238.3713, 4413.536
238.8535, 4428.283
239.3356, 4436.445
239.8177, 4433.452
240.2998, 4413.711
240.7819, 4405.008
241.2640, 4412.752
241.7462, 4428.240
242.2283, 4436.559
242.7104, 4435.186
243.1925, 4430.714
243.6746, 4424.138
244.1567, 4413.119
244.6389, 4408.340
245.1210, 4412.249
245.6031, 4420.910
246.0852, 4427.757
246.5673, 4433.309
247.0494, 4436.119
247.5316, 4434.947
248.0137, 4427.864
248.4958, 4422.751
248.9779, 4417.118
249.4600, 4414.923
249.9421, 4425.909
250.4243, 4461.126
250.9064, 4489.879
251.3885, 4499.896
251.8706, 4485.746
252.3527, 4469.104
252.8348, 4443.173
253.3170, 4418.920
253.7991, 4420.613
254.2812, 4462.562
254.7633, 4502.990
255.2454, 4525.760
255.7275, 4526.024
256.2097, 4525.964
256.6918, 4526.769
257.1739, 4526.446
257.6560, 4520.423
258.1381, 4505.480
258.6202, 4491.300
259.1024, 4478.251
259.5845, 4461.442
260.0666, 4469.807
260.5487, 4517.835
261.0308, 4580.001
261.5129, 4608.578
261.9951, 4591.102
262.4772, 4569.127
262.9593, 4558.037
263.4414, 4559.188
263.9235, 4565.074
264.4056, 4577.899
264.8878, 4593.485
265.3699, 4605.160
265.8520, 4612.958
266.3341, 4617.054
266.8162, 4618.084
267.2983, 4616.586
267.7805, 4605.566
268.2626, 4577.090
268.7447, 4548.087
269.2268, 4553.626
269.7089, 4605.094
270.1910, 4650.107
270.6732, 4665.182
271.1553, 4646.243
271.6374, 4636.896
272.1195, 4639.748
272.6016, 4648.363
273.0837, 4652.699
273.5659, 4652.368
274.0480, 4649.827
274.5301, 4643.422
275.0122, 4632.737
275.4943, 4633.809
275.9764, 4650.326
276.4586, 4671.661
276.9407, 4682.025
277.4228, 4680.513
277.9049, 4674.930
278.3870, 4663.889
278.8691, 4648.230
279.3513, 4650.411
279.8334, 4674.883
280.3155, 4705.745
280.7976, 4721.395
281.2798, 4721.189
281.7619, 4717.739
282.2440, 4714.261
282.7261, 4711.060
283.2082, 4711.445
283.6903, 4716.374
284.1725, 4721.373
284.6546, 4719.496
285.1367, 4711.082
285.6188, 4704.524
286.1009, 4702.789
286.5830, 4705.316
287.0652, 4711.161
287.5473, 4721.004
288.0294, 4729.777
288.5115, 4728.332
288.9936, 4718.489
289.4757, 4715.400
289.9579, 4726.925
290.4400, 4748.104
290.9221, 4767.110
291.4042, 4784.106
291.8863, 4796.916
292.3684, 4802.675
292.8506, 4802.094
293.3327, 4797.690
293.8148, 4784.280
294.2969, 4770.926
294.7790, 4780.993
295.2611, 4814.585
295.7433, 4846.097
296.2254, 4847.729
296.7075, 4829.157
297.1896, 4817.687
297.6717, 4823.214
298.1538, 4837.864
298.6360, 4852.085
299.1181, 4865.794
299.6002, 4876.454
300.0823, 4880.224
300.5644, 4879.888
301.0465, 4880.882
301.5287, 4885.500
302.0108, 4890.921
302.4929, 4892.535
302.9750, 4891.296
303.4571, 4892.584
303.9392, 4901.732
304.4214, 4915.081
304.9035, 4928.059
305.3856, 4939.479
305.8677, 4949.952
306.3498, 4961.165
306.8319, 4972.085
307.3141, 4979.258
307.7962, 4970.961
308.2783, 4962.317
308.7604, 4970.743
309.2425, 5007.581
309.7246, 5044.287
310.2068, 5062.662
310.6889, 5066.718
311.1710, 5067.223
311.6531, 5068.499
312.1352, 5068.753
312.6173, 5062.222
313.0995, 5018.746
313.5816, 5050.170
314.0637, 5070.684
314.5458, 5080.874
315.0279, 5049.819
315.5100, 5072.023
315.9922, 5072.885
316.4743, 5072.871
316.9564, 5102.570
317.4385, 5077.515
317.9206, 5106.744
318.4027, 5114.303
318.8849, 5131.781
319.3670, 5127.783
319.8491, 5130.417
320.3312, 5154.534
320.8133, 5166.756
321.2954, 5160.285
321.7776, 5178.394
322.2597, 5152.588
322.7418, 5165.316
323.2239, 5174.871
323.7060, 5177.792
324.1881, 5181.498
324.6703, 5186.097
325.1524, 5191.616
325.6345, 5198.907
326.1166, 5206.611
326.5987, 5213.746
327.0808, 5223.656
327.5630, 5228.982
328.0451, 5226.022
328.5272, 5215.396
329.0093, 5210.869
329.4914, 5217.305
329.9735, 5225.509
330.4557, 5229.027
330.9378, 5221.783
331.4199, 5220.865
331.9020, 5231.338
332.3841, 5249.781
332.8662, 5258.834
333.3484, 5253.719
333.8305, 5246.327
334.3126, 5243.449
334.7947, 5247.311
335.2768, 5249.018
335.7589, 5248.351
336.2411, 5245.162
336.7232, 5237.342
337.2053, 5221.938
337.6874, 5210.713
338.1695, 5211.501
338.6516, 5226.335
339.1338, 5235.778
339.6159, 5239.768
340.0980, 5237.745
340.5801, 5227.422
341.0622, 5207.957
341.5443, 5186.444
342.0265, 5161.252
342.5086, 5134.276
342.9907, 5124.631
343.4728, 5135.635
343.9549, 5151.281
344.4370, 5149.479
344.9192, 5132.239
345.4013, 5118.616
345.8834, 5116.659
346.3655, 5122.860
346.8476, 5130.688
347.3297, 5140.349
347.8119, 5145.473
348.2940, 5133.936
348.7761, 5112.124
349.2582, 5100.665
349.7403, 5113.193
350.2225, 5130.454
350.7046, 5120.300
351.1867, 5086.015
351.6688, 5053.618
352.1509, 5045.754
352.6331, 5050.697
353.1152, 5050.282
353.5973, 5037.803
354.0794, 5024.084
354.5615, 5021.792
355.0436, 5026.854
355.5258, 5026.884
356.0079, 5007.151
356.4900, 4983.800
356.9721, 4971.776
357.4542, 4975.911
357.9363, 4982.773
358.4185, 4985.724
358.9006, 4986.216
359.3827, 4986.766
359.8648, 4992.024
360.3469, 4994.682
360.8290, 4990.336
361.3112, 4977.900
361.7933, 4963.483
362.2754, 4942.802
362.7575, 4923.362
363.2396, 4913.285
363.7217, 4927.301
364.2039, 4938.106
364.6860, 4933.700
365.1681, 4913.717
365.6502, 4906.212
366.1323, 4934.060
366.6144, 4963.418
367.0966, 4970.786
367.5787, 4926.282
368.0608, 4895.504
368.5429, 4886.384
369.0250, 4895.438
369.5071, 4905.152
369.9893, 4916.451
370.4714, 4927.292
370.9535, 4937.520
371.4356, 4950.737
371.9177, 4954.501
372.3998, 4945.919
372.8820, 4929.136
373.3641, 4911.749
373.8462, 4890.756
374.3283, 4877.137
374.8104, 4878.468
375.2925, 4896.764
375.7747, 4905.762
376.2568, 4903.667
376.7389, 4896.002
377.2210, 4889.476
377.7031, 4884.114
378.1852, 4879.284
378.6674, 4872.848
379.1495, 4866.858
379.6316, 4873.543
380.1137, 4894.440
380.5958, 4913.574
381.0779, 4909.395
381.5601, 4887.947
382.0422, 4880.968
382.5243, 4901.521
383.0064, 4932.032
383.4885, 4945.069
383.9706, 4941.753
384.4528, 4929.515
384.9349, 4905.034
385.4170, 4877.004
385.8991, 4859.880
386.3812, 4857.094
386.8633, 4860.670
387.3455, 4867.941
387.8276, 4876.077
388.3097, 4878.649
388.7918, 4862.871
389.2739, 4846.296
389.7560, 4846.114
390.2382, 4865.194
390.7203, 4881.748
391.2024, 4883.881
391.6845, 4877.085
392.1666, 4867.653
392.6487, 4853.309
393.1309, 4840.763
393.6130, 4830.358
394.0951, 4822.679
394.5772, 4824.338
395.0593, 4847.328
395.5414, 4873.666
396.0236, 4891.897
396.5057, 4895.799
396.9878, 4897.093
397.4699, 4892.771
397.9520, 4886.020
398.4341, 4887.058
398.9163, 4905.956
399.3984, 4922.210
399.8805, 4928.226
400.3626, 4921.146
400.8447, 4912.147
401.3268, 4900.786
401.8090, 4887.844
402.2911, 4871.983
402.7732, 4847.560
403.2553, 4836.028
403.7374, 4847.982
404.2195, 4881.511
404.7017, 4900.605
405.1838, 4902.199
405.6659, 4897.661
406.1480, 4898.072
406.6301, 4903.583
407.1122, 4903.257
407.5944, 4892.217
408.0765, 4877.210
408.5586, 4873.688
409.0407, 4881.521
409.5228, 4897.038
410.0049, 4925.037
410.4871, 4958.858
410.9692, 4978.556
411.4513, 4980.221
411.9334, 4975.481
412.4155, 4976.690
412.8976, 4982.244
413.3798, 4987.427
413.8619, 4984.986
414.3440, 4984.083
414.8261, 4997.848
415.3082, 5026.472
415.7903, 5052.342
416.2725, 5065.111
416.7546, 5068.518
417.2367, 5066.698
417.7188, 5054.835
418.2009, 5044.719
418.6830, 5039.729
419.1652, 5040.404
419.6473, 5048.928
420.1294, 5076.851
420.6115, 5104.860
421.0937, 5122.588
421.5758, 5124.912
422.0579, 5124.220
422.5400, 5114.688
423.0221, 5104.605
423.5042, 5107.518
423.9864, 5131.128
424.4685, 5159.562
424.9506, 5192.546
425.4327, 5230.684
425.9148, 5259.536
426.3969, 5275.408
426.8791, 5286.210
427.3612, 5297.305
427.8433, 5306.730
428.3254, 5323.081
428.8075, 5349.977
429.2896, 5383.674
429.7718, 5412.333
430.2539, 5436.611
430.7360, 5453.106
431.2181, 5455.243
431.7002, 5444.436
432.1823, 5440.657
432.6645, 5444.485
433.1466, 5456.777
433.6287, 5480.032
434.1108, 5513.144
434.5929, 5551.298
435.0750, 5593.568
435.5572, 5638.887
436.0393, 5689.199
436.5214, 5743.938
437.0035, 5791.267
437.4856, 5817.082
437.9677, 5830.750
438.4499, 5843.381
438.9320, 5851.452
439.4141, 5869.963
439.8962, 5917.697
440.3783, 5984.817
440.8604, 6047.385
441.3426, 6092.880
441.8247, 6131.470
442.3068, 6167.879
442.7889, 6202.232
443.2710, 6236.368
443.7531, 6264.947
444.2353, 6295.750
444.7174, 6337.888
445.1995, 6405.817
445.6816, 6470.175
446.1637, 6526.607
446.6458, 6575.005
447.1280, 6619.092
447.6101, 6658.847
448.0922, 6694.444
448.5743, 6723.886
449.0564, 6740.971
449.5385, 6769.800
450.0207, 6813.558
450.5028, 6866.786
450.9849, 6922.771
451.4670, 6983.921
451.9491, 7032.664
452.4312, 7056.602
452.9134, 7059.951
453.3955, 7077.419
453.8776, 7110.058
454.3597, 7148.584
454.8418, 7186.892
455.3239, 7224.099
455.8061, 7254.558
456.2882, 7276.006
456.7703, 7292.333
457.2524, 7303.529
457.7345, 7312.563
458.2166, 7332.095
458.6988, 7383.978
459.1809, 7442.988
459.6630, 7480.119
460.1451, 7491.028
460.6272, 7493.161
461.1093, 7493.546
461.5915, 7492.836
462.0736, 7491.825
462.5557, 7479.570
463.0378, 7478.021
463.5199, 7505.183
464.0020, 7555.702
464.4842, 7590.475
464.9663, 7578.120
465.4484, 7564.850
465.9305, 7576.250
466.4126, 7635.239
466.8947, 7680.339
467.3769, 7705.449
467.8590, 7719.250
468.3411, 7735.362
468.8232, 7752.415
469.3053, 7774.545
469.7874, 7803.460
470.2696, 7838.937
470.7517, 7875.463
471.2338, 7910.828
471.7159, 7953.613
472.1980, 8015.118
472.6801, 8095.043
473.1623, 8167.536
473.6444, 8227.939
474.1265, 8282.451
474.6086, 8339.575
475.0907, 8399.528
475.5728, 8463.700
476.0550, 8536.978
476.5371, 8613.794
477.0192, 8683.663
477.5013, 8746.503
477.9834, 8807.204
478.4655, 8872.910
478.9477, 8937.935
479.4298, 8993.673
479.9119, 9032.714
480.3940, 9069.024
480.8761, 9112.842
481.3582, 9159.916
481.8404, 9197.423
482.3225, 9228.387
482.8046, 9242.830
483.2867, 9230.426
483.7688, 9177.451
484.2509, 9142.429
484.7331, 9158.943
485.2152, 9180.776
485.6973, 9163.136
486.1794, 9079.354
486.6615, 9002.832
487.1436, 8953.756
487.6258, 8919.973
488.1079, 8837.888
488.5900, 8693.002
489.0721, 8540.962
489.5542, 8410.209
490.0363, 8300.204
490.5185, 8203.823
491.0006, 8124.872
491.4827, 8048.965
491.9648, 7957.021
492.4470, 7851.668
492.9291, 7748.660
493.4112, 7657.246
493.8933, 7569.971
494.3754, 7474.704
494.8575, 7372.843
495.3397, 7278.924
495.8218, 7207.098
496.3039, 7144.438
496.7860, 7078.330
497.2681, 7005.813
497.7502, 6930.024
498.2324, 6845.407
498.7145, 6760.102
499.1966, 6683.543
499.6787, 6630.548
500.1608, 6575.485
500.6429, 6503.058
501.1251, 6415.486
501.6072, 6350.175
502.0893, 6331.840
502.5714, 6315.792
503.0535, 6279.235
503.5356, 6206.299
504.0178, 6152.349
504.4999, 6126.306
504.9820, 6111.619
505.4641, 6080.851
505.9462, 6030.177
506.4283, 5984.505
506.9105, 5954.591
507.3926, 5934.611
507.8747, 5896.399
508.3568, 5838.458
508.8389, 5787.735
509.3210, 5771.696
509.8032, 5777.657
510.2853, 5768.716
510.7674, 5737.818
511.2495, 5702.494
511.7316, 5683.241
512.2137, 5672.632
512.6959, 5655.906
513.1780, 5612.125
513.6601, 5572.247
514.1422, 5563.085
514.6243, 5579.853
515.1064, 5588.802
515.5886, 5569.237
516.0707, 5542.971
516.5528, 5523.863
517.0349, 5518.760
517.5170, 5509.793
517.9991, 5488.820
518.4813, 5465.671
518.9634, 5453.529
519.4455, 5460.310
519.9276, 5464.493
520.4097, 5461.197
520.8918, 5451.599
521.3740, 5441.089
521.8561, 5427.240
522.3382, 5420.518
522.8203, 5434.822
523.3024, 5467.882
523.7845, 5479.884
524.2667, 5465.484
524.7488, 5442.026
525.2309, 5429.476
525.7130, 5425.350
526.1951, 5420.967
526.6772, 5410.210
527.1594, 5400.591
527.6415, 5403.166
528.1236, 5415.521
528.6057, 5427.155
529.0878, 5433.143
529.5699, 5435.320
530.0521, 5433.251
530.5342, 5424.850
531.0163, 5421.514
531.4984, 5429.962
531.9805, 5443.975
532.4626, 5456.950
532.9448, 5472.570
533.4269, 5481.384
533.9090, 5478.244
534.3911, 5467.083
534.8732, 5463.424
535.3553, 5469.448
535.8375, 5478.947
536.3196, 5489.904
536.8017, 5502.590
537.2838, 5514.736
537.7659, 5527.377
538.2480, 5536.414
538.7302, 5534.660
539.2123, 5523.958
539.6944, 5516.535
540.1765, 5513.881
540.6586, 5517.769
541.1407, 5537.454
541.6229, 5567.581
542.1050, 5589.253
542.5871, 5580.958
543.0692, 5567.126
543.5513, 5570.252
544.0334, 5591.433
544.5156, 5616.665
544.9977, 5646.144
545.4798, 5673.106
545.9619, 5691.359
546.4440, 5690.340
546.9261, 5694.623
547.4083, 5709.952
547.8904, 5732.315
548.3725, 5754.565
548.8546, 5779.112
549.3367, 5799.748
549.8188, 5814.111
550.3010, 5822.744
550.7831, 5832.978
551.2652, 5846.421
551.7473, 5856.102
552.2294, 5850.500
552.7115, 5832.637
553.1937, 5837.339
553.6758, 5871.442
554.1579, 5911.157
554.6400, 5925.911
555.1221, 5922.267
555.6042, 5918.563
556.0864, 5919.296
556.5685, 5924.886
557.0506, 5937.746
557.5327, 5956.344
558.0148, 5974.828
558.4969, 6002.739
558.9791, 6020.326
559.4612, 6012.313
559.9433, 5972.597
560.4254, 5931.696
560.9075, 5881.878
561.3896, 5841.064
561.8718, 5825.376
562.3539, 5860.547
562.8360, 5876.336
563.3181, 5860.669
563.8002, 5825.771
564.2823, 5801.327
564.7645, 5790.269
565.2466, 5777.116
565.7287, 5753.162
566.2108, 5722.003
566.6929, 5704.328
567.1750, 5700.871
567.6572, 5697.428
568.1393, 5679.279
568.6214, 5653.189
569.1035, 5631.719
569.5856, 5615.391
570.0677, 5608.950
570.5499, 5629.009
571.0320, 5658.828
571.5141, 5672.094
571.9962, 5645.207
572.4783, 5613.865
572.9604, 5589.507
573.4426, 5572.188
573.9247, 5560.308
574.4068, 5559.193
574.8889, 5558.625
575.3710, 5555.187
575.8531, 5548.969
576.3353, 5538.709
576.8174, 5520.436
577.2995, 5504.158
577.7816, 5502.053
578.2637, 5516.059
578.7458, 5523.162
579.2280, 5518.903
579.7101, 5508.410
580.1922, 5498.639
580.6743, 5490.004
581.1564, 5484.843
581.6385, 5491.692
582.1207, 5498.643
582.6028, 5484.299
583.0849, 5451.977
583.5670, 5426.614
584.0491, 5424.907
584.5313, 5434.820
585.0134, 5449.627
585.4955, 5472.513
585.9776, 5486.224
586.4597, 5482.322
586.9418, 5468.488
587.4240, 5453.116
587.9061, 5432.791
588.3882, 5416.695
588.8703, 5405.806
589.3524, 5399.773
589.8345, 5398.305
590.3167, 5402.408
590.7988, 5407.315
591.2809, 5411.699
591.7630, 5415.255
592.2451, 5416.060
592.7272, 5414.083
593.2094, 5410.076
593.6915, 5401.125
594.1736, 5391.305
594.6557, 5390.377
595.1378, 5402.396
595.6199, 5412.733
596.1021, 5408.419
596.5842, 5396.016
597.0663, 5384.835
597.5485, 5371.505
598.0306, 5366.902
598.5127, 5383.956
598.9948, 5415.215
599.4769, 5428.260
599.9590, 5406.838
600.4412, 5384.769
600.9233, 5373.777
601.4054, 5374.766
601.8875, 5372.152
602.3696, 5366.422
602.8517, 5355.872
603.3339, 5332.725
603.8160, 5298.991
604.2981, 5289.154
604.7802, 5312.360
605.2623, 5341.570
605.7444, 5334.114
606.2266, 5303.950
606.7087, 5289.249
607.1908, 5316.915
607.6729, 5351.704
608.1550, 5369.176
608.6371, 5371.237
609.1193, 5364.693
609.6014, 5340.003
610.0835, 5317.795
610.5656, 5308.793
611.0477, 5314.996
611.5298, 5324.383
612.0120, 5343.350
612.4941, 5358.447
612.9762, 5358.952
613.4583, 5339.216
613.9404, 5324.566
614.4225, 5314.853
614.9047, 5312.660
615.3868, 5330.159
615.8689, 5364.737
616.3510, 5377.555
616.8331, 5346.894
617.3152, 5302.384
617.7974, 5292.334
618.2795, 5309.200
618.7616, 5322.968
619.2437, 5310.772
619.7258, 5293.927
620.2079, 5288.133
620.6901, 5294.284
621.1722, 5303.413
621.6543, 5323.087
622.1364, 5337.267
622.6185, 5333.469
623.1006, 5297.936
623.5828, 5273.759
624.0649, 5262.344
624.5470, 5260.999
625.0291, 5269.947
625.5112, 5292.933
625.9933, 5304.800
626.4755, 5297.321
626.9576, 5281.187
627.4397, 5279.367
627.9218, 5290.225
628.4039, 5301.273
628.8860, 5307.367
629.3682, 5309.592
629.8503, 5308.267
630.3324, 5303.809
630.8145, 5299.198
631.2966, 5293.654
631.7787, 5290.379
632.2609, 5293.290
632.7430, 5305.801
633.2251, 5312.848
633.7072, 5305.393
634.1893, 5294.996
634.6714, 5291.412
635.1536, 5298.453
635.6357, 5303.997
636.1178, 5307.088
636.5999, 5308.336
637.0820, 5309.971
637.5641, 5312.204
638.0463, 5307.916
638.5284, 5289.323
639.0105, 5267.536
639.4926, 5268.668
639.9747, 5288.962
640.4568, 5306.520
640.9390, 5300.235
641.4211, 5290.362
641.9032, 5301.459
642.3853, 5335.123
642.8674, 5356.047
643.3495, 5342.742
643.8317, 5316.645
644.3138, 5290.835
644.7959, 5257.142
645.2780, 5244.271
645.7601, 5264.357
646.2422, 5294.590
646.7244, 5307.376
647.2065, 5298.933
647.6886, 5291.900
648.1707, 5290.106
648.6528, 5291.862
649.1349, 5295.002
649.6171, 5299.163
650.0992, 5301.907
650.5813, 5302.209
651.0634, 5300.404
651.5455, 5293.631
652.0276, 5283.665
652.5098, 5280.400
652.9919, 5295.795
653.4740, 5314.333
653.9561, 5327.847
654.4382, 5336.000
654.9203, 5335.924
655.4025, 5322.577
655.8846, 5304.768
656.3667, 5286.792
656.8488, 5264.648
657.3309, 5255.338
657.8130, 5261.967
658.2952, 5276.765
658.7773, 5237.146
659.2594, 5274.100
659.7415, 5294.690
660.2236, 5299.795
660.7057, 5243.033
661.1879, 5266.158
661.6700, 5257.269
662.1521, 5247.066
662.6342, 5281.435
663.1163, 5233.671
663.5984, 5267.333
664.0806, 5268.492
664.5627, 5284.526
665.0448, 5268.348
665.5269, 5308.526
666.0090, 5305.992
666.4911, 5263.708
666.9733, 5243.685
667.4554, 5254.054
667.9375, 5270.560
668.4196, 5273.301
668.9017, 5262.675
669.3839, 5251.248
669.8660, 5239.789
670.3481, 5229.472
670.8302, 5219.713
671.3123, 5212.335
671.7944, 5212.052
672.2766, 5225.050
672.7587, 5237.821
673.2408, 5240.444
673.7229, 5236.664
674.2050, 5233.888
674.6871, 5230.327
675.1693, 5232.292
675.6514, 5247.854
676.1335, 5272.221
676.6156, 5277.967
677.0977, 5255.729
677.5798, 5236.400
678.0620, 5237.163
678.5441, 5254.813
679.0262, 5254.654
679.5083, 5235.488
679.9904, 5218.172
680.4725, 5225.711
680.9547, 5244.580
681.4368, 5248.698
681.9189, 5233.430
682.4010, 5218.976
682.8831, 5225.996
683.3652, 5237.314
683.8474, 5234.524
684.3295, 5195.777
684.8116, 5171.060
685.2937, 5180.453
685.7758, 5201.968
686.2579, 5205.179
686.7401, 5178.729
687.2222, 5166.438
687.7043, 5181.039
688.1864, 5209.673
688.6685, 5219.615
689.1506, 5212.073
689.6328, 5206.726
690.1149, 5217.636
690.5970, 5232.430
691.0791, 5228.128
691.5612, 5208.970
692.0433, 5196.636
692.5255, 5213.292
693.0076, 5231.838
693.4897, 5233.452
693.9718, 5215.129
694.4539, 5199.687
694.9360, 5189.576
695.4182, 5183.763
695.9003, 5182.421
696.3824, 5186.904
696.8645, 5189.930
697.3466, 5190.821
697.8287, 5192.033
698.3109, 5196.730
698.7930, 5204.271
699.2751, 5211.194
699.7572, 5216.680
700.2393, 5222.013
700.7214, 5233.481
701.2036, 5244.663
701.6857, 5244.561
702.1678, 5213.888
702.6499, 5189.224
703.1320, 5190.567
703.6141, 5207.825
704.0963, 5215.291
704.5784, 5204.000
705.0605, 5194.471
705.5426, 5191.122
706.0247, 5192.860
706.5068, 5196.449
706.9890, 5202.694
707.4711, 5204.166
707.9532, 5189.315
708.4353, 5168.560
708.9174, 5174.002
709.3995, 5203.084
709.8817, 5230.819
710.3638, 5239.868
710.8459, 5239.882
711.3280, 5239.454
711.8101, 5240.074
712.2922, 5235.118
712.7744, 5217.953
713.2565, 5197.987
713.7386, 5180.310
714.2207, 5160.668
714.7028, 5155.880
715.1849, 5170.888
715.6671, 5192.102
716.1492, 5203.326
716.6313, 5205.648
717.1134, 5216.375
717.5955, 5242.642
718.0776, 5264.144
718.5598, 5246.640
719.0419, 5207.260
719.5240, 5179.463
720.0061, 5183.789
720.4882, 5191.521
720.9703, 5185.427
721.4525, 5173.378
721.9346, 5173.368
722.4167, 5200.955
722.8988, 5223.658
723.3809, 5235.166
723.8630, 5237.358
724.3452, 5236.388
724.8273, 5231.540
725.3094, 5228.842
725.7915, 5234.573
726.2736, 5243.266
726.7557, 5237.125
727.2379, 5218.310
727.7200, 5203.830
728.2021, 5207.980
728.6842, 5218.798
729.1663, 5226.284
729.6484, 5229.417
730.1306, 5235.306
730.6127, 5253.430
731.0948, 5268.504
731.5769, 5271.427
732.0590, 5258.428
732.5411, 5249.160
733.0233, 5244.402
733.5054, 5241.628
733.9875, 5236.233
734.4696, 5229.647
734.9517, 5235.360
735.4338, 5257.029
735.9160, 5277.988
736.3981, 5283.495
736.8802, 5276.670
737.3623, 5260.097
737.8444, 5224.153
738.3266, 5198.645
738.8087, 5197.212
739.2908, 5212.091
739.7729, 5233.377
740.2551, 5274.025
740.7372, 5295.371
741.2193, 5286.572
741.7014, 5261.552
742.1835, 5250.497
742.6656, 5253.637
743.1478, 5253.225
743.6299, 5239.434
744.1120, 5224.154
744.5941, 5227.030
745.0762, 5244.416
745.5583, 5265.105
746.0405, 5288.634
746.5226, 5309.064
747.0047, 5325.885
747.4868, 5337.717
747.9689, 5336.105
748.4510, 5310.786
748.9332, 5283.776
749.4153, 5258.590
749.8974, 5236.369
750.3795, 5231.428
750.8616, 5245.505
751.3438, 5263.167
751.8259, 5275.721
752.3080, 5284.456
752.7901, 5291.122
753.2722, 5296.033
753.7543, 5304.207
754.2365, 5327.028
754.7186, 5348.965
755.2007, 5356.350
755.6828, 5345.641
756.1649, 5332.824
756.6470, 5312.839
757.1292, 5298.194
757.6113, 5297.742
758.0934, 5315.231
758.5755, 5331.226
759.0576, 5346.898
759.5397, 5357.575
760.0219, 5356.525
760.5040, 5346.466
760.9861, 5334.120
761.4682, 5319.248
761.9503, 5309.940
762.4324, 5312.135
762.9146, 5323.733
763.3967, 5343.422
763.8788, 5385.682
764.3609, 5411.738
764.8430, 5404.088
765.3251, 5383.191
765.8073, 5371.124
766.2894, 5369.438
766.7715, 5370.455
767.2536, 5372.959
767.7357, 5378.113
768.2178, 5389.743
768.7000, 5406.256
769.1821, 5421.742
769.6642, 5439.305
770.1463, 5447.241
770.6284, 5422.242
771.1105, 5382.074
771.5927, 5361.077
772.0748, 5388.426
772.5569, 5414.719
773.0390, 5428.289
773.5211, 5432.735
774.0032, 5436.434
774.4854, 5439.402
774.9675, 5440.974
775.4496, 5438.639
775.9317, 5436.800
776.4138, 5452.543
776.8959, 5481.437
777.3781, 5500.150
777.8602, 5490.820
778.3423, 5470.593
778.8244, 5448.081
779.3065, 5425.679
779.7886, 5412.375
780.2708, 5419.778
780.7529, 5427.512
781.2350, 5427.975
781.7171, 5422.253
782.1992, 5421.156
782.6813, 5425.992
783.1635, 5430.256
783.6456, 5429.568
784.1277, 5425.911
784.6098, 5426.510
785.0919, 5430.913
785.5740, 5434.623
786.0562, 5436.173
786.5383, 5434.772
787.0204, 5428.257
787.5025, 5416.575
787.9846, 5407.092
788.4667, 5402.231
788.9489, 5399.431
789.4310, 5397.993
789.9131, 5398.021
790.3952, 5397.923
790.8773, 5397.916
791.3594, 5396.765
791.8416, 5393.317
792.3237, 5388.051
792.8058, 5380.141
793.2879, 5369.643
793.7700, 5364.717
794.2521, 5381.693
794.7343, 5399.433
795.2164, 5395.917
795.6985, 5360.021
796.1806, 5343.604
796.6627, 5365.684
797.1448, 5392.847
797.6270, 5403.685
798.1091, 5396.185
798.5912, 5387.280
799.0733, 5376.290
799.5554, 5367.822
800.0375, 5368.566
800.5197, 5374.458
801.0018, 5379.235
801.4839, 5382.637
801.9660, 5379.355
802.4481, 5353.663
802.9302, 5327.612
803.4124, 5321.619
803.8945, 5354.039
804.3766, 5370.725
804.8587, 5362.420
805.3408, 5350.581
805.8229, 5359.871
806.3051, 5390.032
806.7872, 5396.520
807.2693, 5372.046
807.7514, 5345.319
808.2335, 5351.170
808.7156, 5372.159
809.1978, 5380.912
809.6799, 5368.174
810.1620, 5355.117
810.6441, 5353.038
811.1262, 5353.323
811.6083, 5347.216
812.0905, 5330.073
812.5726, 5315.683
813.0547, 5302.104
813.5368, 5295.789
814.0189, 5310.995
814.5010, 5342.735
814.9832, 5360.000
815.4653, 5355.563
815.9474, 5346.814
816.4295, 5352.357
816.9116, 5361.996
817.3937, 5362.037
817.8759, 5341.007
818.3580, 5326.354
818.8401, 5325.869
819.3222, 5332.914
819.8043, 5344.589
820.2864, 5365.287
820.7686, 5367.528
821.2507, 5344.562
821.7328, 5315.770
822.2149, 5304.432
822.6970, 5307.408
823.1791, 5320.216
823.6613, 5347.604
824.1434, 5364.925
824.6255, 5337.236
825.1076, 5298.814
825.5897, 5288.211
826.0718, 5350.287
826.5540, 5385.020
827.0361, 5383.671
827.5182, 5365.227
828.0003, 5347.345
828.4824, 5330.302
828.9645, 5330.550
829.4467, 5354.679
829.9288, 5379.167
830.4109, 5373.053
830.8930, 5350.921
831.3751, 5335.687
831.8572, 5337.368
832.3394, 5337.194
832.8215, 5322.077
833.3036, 5305.502
833.7857, 5303.545
834.2678, 5325.044
834.7499, 5334.106
835.2321, 5325.183
835.7142, 5311.256
836.1963, 5306.907
836.6784, 5311.151
837.1605, 5323.913
837.6426, 5348.741
838.1248, 5365.167
838.6069, 5344.819
839.0890, 5313.275
839.5711, 5300.130
840.0532, 5329.402
840.5353, 5343.591
841.0175, 5331.501
841.4996, 5311.438
841.9817, 5299.682
842.4638, 5296.015
842.9459, 5306.546
843.4280, 5334.187
843.9102, 5363.852
844.3923, 5382.965
844.8744, 5391.720
845.3565, 5387.018
845.8386, 5362.630
846.3207, 5346.323
846.8029, 5363.629
847.2850, 5384.629
847.7671, 5381.344
848.2492, 5338.020
848.7313, 5312.548
849.2134, 5307.195
849.6956, 5314.454
850.1777, 5332.920
850.6598, 5358.142
851.1419, 5375.054
851.6240, 5381.896
852.1061, 5380.331
852.5883, 5362.759
853.0704, 5342.903
853.5525, 5334.322
854.0346, 5344.340
854.5167, 5349.229
854.9988, 5344.186
855.4810, 5338.231
855.9631, 5338.587
856.4452, 5345.400
856.9273, 5348.051
857.4094, 5345.959
857.8915, 5344.199
858.3737, 5344.617
858.8558, 5349.309
859.3379, 5365.163
859.8200, 5394.184
860.3021, 5412.873
860.7842, 5399.760
861.2664, 5384.341
861.7485, 5384.317
862.2306, 5401.807
862.7127, 5412.772
863.1948, 5416.199
863.6769, 5417.952
864.1591, 5424.620
864.6412, 5432.194
865.1233, 5429.543
865.6054, 5417.066
866.0875, 5404.746
866.5696, 5397.073
867.0518, 5392.573
867.5339, 5390.958
868.0160, 5392.340
868.4981, 5393.369
868.9802, 5392.855
869.4623, 5394.489
869.9445, 5400.755
870.4266, 5410.536
870.9087, 5419.187
871.3908, 5426.753
871.8729, 5432.650
872.3550, 5436.748
872.8372, 5438.966
873.3193, 5439.609
873.8014, 5438.458
874.2835, 5434.254
874.7656, 5418.419
875.2477, 5409.625
875.7299, 5413.510
876.2120, 5427.802
876.6941, 5446.833
877.1762, 5470.522
877.6583, 5487.693
878.1404, 5491.963
878.6226, 5488.469
879.1047, 5479.730
879.5869, 5468.690
880.0690, 5462.686
880.5511, 5468.373
881.0332, 5475.140
881.5153, 5483.113
881.9974, 5489.153
882.4796, 5484.512
882.9617, 5466.115
883.4438, 5454.012
883.9259, 5452.341
884.4080, 5460.410
884.8901, 5486.371
885.3723, 5520.661
885.8544, 5540.601
886.3365, 5533.084
886.8186, 5518.084
887.3007, 5494.790
887.7828, 5473.272
888.2650, 5468.208
888.7471, 5486.707
889.2292, 5503.532
889.7113, 5517.934
890.1934, 5527.283
890.6755, 5526.417
891.1577, 5517.780
891.6398, 5507.448
892.1219, 5495.306
892.6040, 5488.606
893.0861, 5498.912
893.5682, 5513.318
894.0504, 5518.380
894.5325, 5503.776
895.0146, 5503.153
895.4967, 5522.957
895.9788, 5544.795
896.4609, 5551.589
896.9431, 5546.017
897.4252, 5543.526
897.9073, 5544.924
898.3894, 5550.028
898.8715, 5567.310
899.3536, 5582.143
899.8358, 5578.294
900.3179, 5552.228
900.8000, 5536.467
901.2821, 5537.555
901.7642, 5544.496
902.2463, 5554.736
902.7285, 5567.009
903.2106, 5568.938
903.6927, 5561.219
904.1748, 5561.761
904.6569, 5596.836
905.1390, 5634.135
905.6212, 5634.011
906.1033, 5605.221
906.5854, 5588.283
907.0675, 5608.279
907.5496, 5625.032
908.0317, 5628.728
908.5139, 5622.816
908.9960, 5614.146
909.4781, 5602.731
909.9602, 5603.148
910.4423, 5624.705
910.9244, 5653.624
911.4066, 5682.374
911.8887, 5704.613
912.3708, 5708.884
912.8529, 5670.417
913.3350, 5639.744
913.8171, 5623.927
914.2993, 5621.497
914.7814, 5636.818
915.2635, 5672.483
915.7456, 5688.756
916.2277, 5676.892
916.7098, 5658.271
917.1920, 5655.931
917.6741, 5663.632
918.1562, 5671.455
918.6383, 5675.001
919.1204, 5687.104
919.6025, 5734.317
920.0847, 5772.404
920.5668, 5765.173
921.0489, 5701.856
921.5310, 5672.824
922.0131, 5681.078
922.4952, 5698.817
922.9774, 5706.775
923.4595, 5708.412
923.9416, 5707.649
924.4237, 5704.967
924.9058, 5702.935
925.3879, 5701.997
925.8701, 5702.541
926.3522, 5704.092
926.8343, 5706.976
927.3164, 5714.696
927.7985, 5727.941
928.2806, 5739.976
928.7628, 5747.146
929.2449, 5751.712
929.7270, 5760.945
930.2091, 5770.660
930.6912, 5769.762
931.1733, 5729.997
931.6555, 5706.887
932.1376, 5731.523
932.6197, 5776.927
933.1018, 5797.490
933.5839, 5789.673
934.0660, 5785.159
934.5482, 5790.639
935.0303, 5798.096
935.5124, 5795.148
935.9945, 5787.475
936.4766, 5785.532
936.9587, 5794.034
937.4409, 5801.891
937.9230, 5799.578
938.4051, 5800.061
938.8872, 5816.190
939.3693, 5853.691
939.8514, 5872.059
940.3336, 5869.277
940.8157, 5860.598
941.2978, 5855.438
941.7799, 5853.943
942.2620, 5858.915
942.7441, 5869.745
943.2263, 5875.531
943.7084, 5867.489
944.1905, 5857.920
944.6726, 5850.301
945.1547, 5845.204
945.6368, 5845.066
946.1190, 5849.626
946.6011, 5864.905
947.0832, 5903.532
947.5653, 5943.415
948.0474, 5953.164
948.5295, 5941.389
949.0117, 5928.121
949.4938, 5921.140
949.9759, 5911.670
950.4580, 5891.445
950.9401, 5872.741
951.4222, 5877.632
951.9044, 5906.591
952.3865, 5930.518
952.8686, 5944.721
953.3507, 5953.348
953.8328, 5960.783
954.3149, 5965.289
954.7971, 5963.098
955.2792, 5950.189
955.7613, 5943.594
956.2434, 5947.238
956.7255, 5956.077
957.2076, 5969.440
957.6898, 5987.036
958.1719, 5997.306
958.6540, 6000.340
959.1361, 5997.062
959.6182, 5982.640
960.1003, 5966.506
960.5825, 5955.641
961.0646, 5950.419
961.5467, 5951.407
962.0288, 5965.297
962.5109, 5974.323
962.9930, 5969.667
963.4752, 5961.389
963.9573, 5979.737
964.4394, 6019.835
964.9215, 6053.295
965.4036, 6072.771
965.8857, 6078.491
966.3679, 6061.068
966.8500, 6034.170
967.3321, 6015.534
967.8142, 6009.813
968.2963, 6008.801
968.7784, 6012.235
969.2606, 6020.870
969.7427, 6041.177
970.2248, 6067.474
970.7069, 6073.938
971.1890, 6058.940
971.6711, 6051.706
972.1533, 6084.091
972.6354, 6120.172
973.1175, 6133.199
973.5996, 6122.851
974.0817, 6119.742
974.5638, 6125.960
975.0460, 6131.928
975.5281, 6132.994
976.0102, 6131.975
976.4923, 6135.106
976.9744, 6141.274
977.4565, 6147.216
977.9387, 6151.289
978.4208, 6155.144
978.9029, 6159.454
979.3850, 6163.803
979.8671, 6167.234
980.3492, 6169.135
980.8314, 6172.593
981.3135, 6176.953
981.7956, 6187.567
982.2777, 6223.325
982.7598, 6263.333
983.2419, 6272.797
983.7241, 6242.301
984.2062, 6218.625
984.6883, 6219.253
985.1704, 6226.522
985.6525, 6232.979
986.1346, 6239.132
986.6168, 6252.188
987.0989, 6271.865
987.5810, 6289.369
988.0631, 6303.472
988.5452, 6309.890
989.0273, 6296.632
989.5095, 6272.679
989.9916, 6261.391
990.4737, 6278.080
990.9558, 6290.513
991.4379, 6293.107
991.9200, 6292.462
992.4022, 6299.198
992.8843, 6311.736
993.3664, 6324.319
993.8485, 6336.321
994.3306, 6344.801
994.8127, 6348.027
995.2949, 6346.581
995.7770, 6335.577
996.2591, 6309.807
996.7412, 6320.705
997.2233, 6382.025
997.7054, 6429.381
998.1876, 6404.891
998.6697, 6346.527
999.1518, 6342.632
999.6339, 6381.691
1000.116, 6417.197
1000.598, 6430.288
1001.080, 6434.128
1001.562, 6430.455
1002.044, 6421.974
1002.527, 6409.467
1003.009, 6391.703
1003.491, 6391.772
1003.973, 6417.227
1004.455, 6447.076
1004.937, 6458.423
1005.419, 6459.940
1005.901, 6462.260
1006.384, 6468.060
1006.866, 6470.893
1007.348, 6467.971
1007.830, 6465.193
1008.312, 6465.745
1008.794, 6469.274
1009.276, 6473.198
1009.758, 6477.837
1010.240, 6485.859
1010.723, 6506.401
1011.205, 6523.344
1011.687, 6523.603
1012.169, 6512.505
1012.651, 6504.927
1013.133, 6501.223
1013.615, 6500.208
1014.097, 6500.384
1014.580, 6506.757
1015.062, 6537.202
1015.544, 6575.688
1016.026, 6587.089
1016.508, 6559.272
1016.990, 6537.882
1017.472, 6546.809
1017.954, 6562.640
1018.436, 6572.333
1018.919, 6576.158
1019.401, 6581.458
1019.883, 6588.235
1020.365, 6596.181
1020.847, 6605.336
1021.329, 6615.392
1021.811, 6630.343
1022.293, 6645.628
1022.776, 6649.774
1023.258, 6625.462
1023.740, 6616.598
1024.222, 6633.416
1024.704, 6657.080
1025.186, 6658.189
1025.668, 6644.180
1026.150, 6641.124
1026.632, 6653.208
1027.115, 6668.173
1027.597, 6686.531
1028.079, 6698.301
1028.561, 6691.329
1029.043, 6667.226
1029.525, 6664.860
1030.007, 6686.899
1030.489, 6709.385
1030.972, 6725.165
1031.454, 6730.940
1031.936, 6711.383
1032.418, 6679.792
1032.900, 6664.879
1033.382, 6684.674
1033.864, 6711.726
1034.346, 6755.072
1034.828, 6788.377
1035.311, 6765.930
1035.793, 6700.626
1036.275, 6690.676
1036.757, 6744.200
1037.239, 6785.845
1037.721, 6737.662
1038.203, 6679.594
1038.685, 6672.638
1039.167, 6712.998
1039.650, 6738.290
1040.132, 6744.911
1040.614, 6751.310
1041.096, 6763.655
1041.578, 6778.632
1042.060, 6791.815
1042.542, 6803.273
1043.024, 6813.793
1043.507, 6827.400
1043.989, 6831.729
1044.471, 6820.167
1044.953, 6804.171
1045.435, 6790.079
1045.917, 6778.401
1046.399, 6778.831
1046.881, 6790.859
1047.364, 6800.336
1047.846, 6791.451
1048.328, 6782.512
1048.810, 6786.745
1049.292, 6802.191
1049.774, 6817.419
1050.256, 6833.054
1050.738, 6846.378
1051.220, 6857.655
1051.703, 6864.216
1052.185, 6856.439
1052.667, 6843.044
1053.149, 6839.538
1053.631, 6850.879
1054.113, 6863.143
1054.595, 6878.728
1055.077, 6886.716
1055.559, 6873.938
1056.042, 6847.292
1056.524, 6864.221
1057.006, 6918.406
1057.488, 6958.155
1057.970, 6937.075
1058.452, 6911.529
1058.934, 6925.464
1059.416, 6956.454
1059.899, 6957.420
1060.381, 6909.046
1060.863, 6902.890
1061.345, 6955.402
1061.827, 7012.094
1062.309, 7005.428
1062.791, 6972.771
1063.273, 6971.463
1063.755, 7005.870
1064.238, 7039.511
1064.720, 7066.232
1065.202, 7085.640
1065.684, 7095.212
1066.166, 7098.762
1066.648, 7110.113
1067.130, 7125.777
1067.612, 7128.047
1068.094, 7102.143
1068.577, 7083.684
1069.059, 7099.978
1069.541, 7130.314
1070.023, 7154.788
1070.505, 7172.408
1070.987, 7186.650
1071.469, 7196.852
1071.951, 7211.704
1072.434, 7250.417
1072.916, 7287.683
1073.398, 7286.499
1073.880, 7257.436
1074.362, 7238.894
1074.844, 7244.810
1075.326, 7251.201
1075.808, 7253.743
1076.291, 7258.408
1076.773, 7277.155
1077.255, 7304.599
1077.737, 7327.300
1078.219, 7343.539
1078.701, 7346.830
1079.183, 7315.194
1079.665, 7288.445
1080.147, 7285.444
1080.630, 7303.894
1081.112, 7336.169
1081.594, 7381.414
1082.076, 7412.465
1082.558, 7414.170
1083.040, 7407.338
1083.522, 7409.784
1084.004, 7415.359
1084.486, 7414.640
1084.969, 7399.579
1085.451, 7401.498
1085.933, 7426.227
1086.415, 7445.944
1086.897, 7426.224
1087.379, 7393.853
1087.861, 7403.604
1088.343, 7445.559
1088.826, 7473.805
1089.308, 7460.227
1089.790, 7444.735
1090.272, 7427.958
1090.754, 7420.683
1091.236, 7451.639
1091.718, 7509.228
1092.200, 7536.936
1092.682, 7524.579
1093.165, 7506.307
1093.647, 7501.702
1094.129, 7499.399
1094.611, 7487.093
1095.093, 7468.796
1095.575, 7481.444
1096.057, 7526.734
1096.539, 7560.695
1097.022, 7564.626
1097.504, 7554.375
1097.986, 7543.807
1098.468, 7529.955
1098.950, 7506.176
1099.432, 7455.998
1099.914, 7442.578
1100.396, 7476.803
1100.879, 7513.107
1101.361, 7511.672
1101.843, 7492.862
1102.325, 7504.195
1102.807, 7535.176
1103.289, 7545.304
1103.771, 7492.359
1104.253, 7453.910
1104.735, 7444.379
1105.218, 7452.224
1105.700, 7468.209
1106.182, 7488.613
1106.664, 7491.229
1107.146, 7473.360
1107.628, 7459.185
1108.110, 7464.717
1108.592, 7477.198
1109.074, 7496.716
1109.557, 7516.908
1110.039, 7505.969
1110.521, 7463.306
1111.003, 7428.920
1111.485, 7415.087
1111.967, 7412.203
1112.449, 7421.059
1112.931, 7430.503
1113.414, 7424.099
1113.896, 7392.863
1114.378, 7392.478
1114.860, 7432.426
1115.342, 7461.421
1115.824, 7441.215
1116.306, 7400.532
1116.788, 7383.181
1117.271, 7381.564
1117.753, 7378.518
1118.235, 7361.677
1118.717, 7354.307
1119.199, 7358.390
1119.681, 7370.711
1120.163, 7395.345
1120.645, 7424.595
1121.127, 7435.300
1121.609, 7427.370
1122.092, 7410.352
1122.574, 7381.993
1123.056, 7353.360
1123.538, 7324.100
1124.020, 7299.684
1124.502, 7291.687
1124.984, 7299.145
1125.466, 7317.720
1125.949, 7348.470
1126.431, 7371.660
1126.913, 7376.297
1127.395, 7365.312
1127.877, 7330.216
1128.359, 7277.511
1128.841, 7262.155
1129.323, 7286.442
1129.806, 7306.877
1130.288, 7306.860
1130.770, 7298.376
1131.252, 7287.608
1131.734, 7278.486
1132.216, 7277.001
1132.698, 7285.977
1133.180, 7294.924
1133.662, 7304.694
1134.145, 7310.590
1134.627, 7308.838
1135.109, 7301.928
1135.591, 7290.750
1136.073, 7277.758
1136.555, 7269.462
1137.037, 7277.959
1137.519, 7274.868
1138.001, 7256.255
1138.484, 7230.728
1138.966, 7200.844
1139.448, 7172.781
1139.930, 7164.864
1140.412, 7176.225
1140.894, 7190.624
1141.376, 7206.583
1141.858, 7218.169
1142.341, 7224.691
1142.823, 7225.664
1143.305, 7216.326
1143.787, 7200.066
1144.269, 7192.900
1144.751, 7198.154
1145.233, 7205.088
1145.715, 7212.548
1146.198, 7214.598
1146.680, 7206.604
1147.162, 7191.179
1147.644, 7180.333
1148.126, 7173.877
1148.608, 7169.988
1149.090, 7168.903
1149.572, 7167.729
1150.054, 7163.693
1150.536, 7158.949
1151.019, 7155.611
1151.501, 7153.853
1151.983, 7151.209
1152.465, 7147.563
1152.947, 7145.673
1153.429, 7150.713
1153.911, 7154.024
1154.393, 7143.803
1154.876, 7127.206
1155.358, 7117.071
1155.840, 7116.530
1156.322, 7115.107
1156.804, 7112.318
1157.286, 7110.260
1157.768, 7110.554
1158.250, 7112.598
1158.733, 7115.750
1159.215, 7119.993
1159.697, 7126.158
1160.179, 7141.208
1160.661, 7141.968
1161.143, 7122.509
1161.625, 7097.361
1162.107, 7081.563
1162.589, 7072.090
1163.072, 7060.126
1163.554, 7046.274
1164.036, 7052.406
1164.518, 7110.835
1165.000, 7141.873
1165.482, 7117.681
1165.964, 7071.063
1166.446, 7059.496
1166.928, 7072.299
1167.411, 7088.686
1167.893, 7106.599
1168.375, 7114.368
1168.857, 7101.240
1169.339, 7085.517
1169.821, 7072.741
1170.303, 7063.198
1170.785, 7061.470
1171.268, 7063.787
1171.750, 7055.699
1172.232, 7024.995
1172.714, 7003.741
1173.196, 7013.184
1173.678, 7028.696
1174.160, 7038.678
1174.642, 7042.374
1175.125, 7024.324
1175.607, 6990.869
1176.089, 6978.236
1176.571, 7030.581
1177.053, 7071.375
1177.535, 7058.714
1178.017, 7024.432
1178.499, 6992.802
1178.981, 6963.730
1179.464, 6952.205
1179.946, 6957.261
1180.428, 6963.327
1180.910, 6959.975
1181.392, 6955.671
1181.874, 6951.831
1182.356, 6951.581
1182.838, 6963.437
1183.320, 6988.434
1183.803, 6993.761
1184.285, 6976.344
1184.767, 6956.870
1185.249, 6945.844
1185.731, 6942.782
1186.213, 6958.297
1186.695, 6979.943
1187.177, 6966.196
1187.660, 6912.727
1188.142, 6897.651
1188.624, 6938.753
1189.106, 6978.509
1189.588, 6955.623
1190.070, 6919.058
1190.552, 6911.316
1191.034, 6929.130
1191.516, 6932.825
1191.999, 6920.036
1192.481, 6917.212
1192.963, 6933.027
1193.445, 6953.093
1193.927, 6972.246
1194.409, 6982.138
1194.891, 6969.374
1195.373, 6932.913
1195.855, 6905.165
1196.338, 6885.498
1196.820, 6879.750
1197.302, 6894.972
1197.784, 6915.187
1198.266, 6926.362
1198.748, 6930.326
1199.230, 6926.336
1199.712, 6910.990
1200.195, 6914.482
1200.677, 6940.345
1201.159, 6960.440
1201.641, 6960.246
1202.123, 6945.997
1202.605, 6903.466
1203.087, 6859.491
1203.569, 6863.938
1204.052, 6954.885
1204.534, 6983.748
1205.016, 6940.631
1205.498, 6896.001
1205.980, 6904.249
1206.462, 6932.388
1206.944, 6951.077
1207.426, 6958.573
1207.908, 6947.753
1208.391, 6905.400
1208.873, 6884.683
1209.355, 6889.707
1209.837, 6905.250
1210.319, 6925.335
1210.801, 6943.406
1211.283, 6950.975
1211.765, 6949.687
1212.247, 6945.032
1212.730, 6935.404
1213.212, 6929.817
1213.694, 6929.217
1214.176, 6932.845
1214.658, 6946.340
1215.140, 6959.106
1215.622, 6950.132
1216.104, 6926.289
1216.587, 6936.644
1217.069, 7006.131
1217.551, 7022.729
1218.033, 6955.707
1218.515, 6886.619
1218.997, 6927.801
1219.479, 7002.467
1219.961, 7018.982
1220.443, 6974.363
1220.926, 6949.574
1221.408, 6953.850
1221.890, 6953.240
1222.372, 6937.590
1222.854, 6922.616
1223.336, 6933.342
1223.818, 6951.346
1224.300, 6950.293
1224.782, 6926.792
1225.265, 6932.470
1225.747, 6975.742
1226.229, 7008.558
1226.711, 7015.870
1227.193, 7007.766
1227.675, 6988.229
1228.157, 6965.051
1228.639, 6945.757
1229.122, 6930.719
1229.604, 6930.553
1230.086, 6946.902
1230.568, 6968.531
1231.050, 6996.409
1231.532, 7016.539
1232.014, 7001.337
1232.496, 6975.348
1232.979, 6970.676
1233.461, 6992.126
1233.943, 7012.996
1234.425, 7034.539
1234.907, 7040.386
1235.389, 7014.980
1235.871, 6983.165
1236.353, 6961.616
1236.835, 6952.365
1237.318, 6962.755
1237.800, 6996.826
1238.282, 7011.184
1238.764, 7004.901
1239.246, 6995.599
1239.728, 6989.449
1240.210, 6988.821
1240.692, 6994.627
1241.175, 7008.324
1241.657, 7034.660
1242.139, 7079.222
1242.621, 7098.001
1243.103, 7090.992
1243.585, 7073.347
1244.067, 7040.294
1244.549, 7014.921
1245.031, 7022.750
1245.514, 7042.254
1245.996, 7038.996
1246.478, 7008.851
1246.960, 7012.711
1247.442, 7049.847
1247.924, 7085.535
1248.406, 7106.556
1248.888, 7109.305
1249.370, 7076.854
1249.853, 7033.495
1250.335, 7008.558
1250.817, 7002.023
1251.299, 7012.772
1251.781, 7039.290
1252.263, 7060.896
1252.745, 7056.018
1253.227, 7053.885
1253.710, 7071.215
1254.192, 7095.340
1254.674, 7112.850
1255.156, 7123.475
1255.638, 7119.550
1256.120, 7102.818
1256.602, 7097.600
1257.084, 7147.458
1257.567, 7169.917
1258.049, 7125.829
1258.531, 7060.670
1259.013, 7036.491
1259.495, 7044.983
1259.977, 7059.738
1260.459, 7077.819
1260.941, 7093.546
1261.423, 7105.831
1261.906, 7112.251
1262.388, 7110.243
1262.870, 7105.920
1263.352, 7107.189
1263.834, 7113.199
1264.316, 7121.766
1264.798, 7132.798
1265.280, 7149.084
1265.762, 7190.837
1266.245, 7201.165
1266.727, 7157.946
1267.209, 7107.684
1267.691, 7121.474
1268.173, 7168.224
1268.655, 7198.444
1269.137, 7208.366
1269.619, 7215.248
1270.102, 7223.297
1270.584, 7223.954
1271.066, 7213.771
1271.548, 7201.303
1272.030, 7198.206
1272.512, 7198.616
1272.994, 7192.346
1273.476, 7180.530
1273.958, 7187.653
1274.441, 7221.257
1274.923, 7236.376
1275.405, 7219.541
1275.887, 7198.015
1276.369, 7202.650
1276.851, 7214.394
1277.333, 7215.963
1277.815, 7207.535
1278.297, 7193.479
1278.780, 7172.943
1279.262, 7169.979
1279.744, 7192.918
1280.226, 7216.826
1280.708, 7216.884
1281.190, 7214.760
1281.672, 7225.670
1282.154, 7247.457
1282.637, 7281.203
1283.119, 7322.858
1283.601, 7326.135
1284.083, 7275.000
1284.565, 7233.025
1285.047, 7254.439
1285.529, 7277.063
1286.011, 7266.992
1286.494, 7238.604
1286.976, 7229.099
1287.458, 7236.385
1287.940, 7260.266
1288.422, 7305.212
1288.904, 7327.708
1289.386, 7291.940
1289.868, 7255.978
1290.350, 7236.360
1290.833, 7230.416
1291.315, 7240.331
1291.797, 7257.791
1292.279, 7263.904
1292.761, 7252.774
1293.243, 7254.501
1293.725, 7278.209
1294.207, 7298.604
##END=



