##NAMES=Levyne-Ca
##RRUFFID=R080128
##IDEAL CHEMISTRY=Ca_3_(Si_12_Al_6_)O_36_&#183;18H_2_O
##LOCALITY=Dallas, Oregon, USA
##OWNER=RRUFF
##SOURCE=Michael Scott
##DESCRIPTION=Thin clear colorless tabular hexagonal crystals coated by chatoyant erionite or offretite on volcanic matrix
##STATUS=The identification of this mineral has been confirmed only by single crystal X-ray diffraction.
##URL=rruff.info/R080128
147.5358, 2551.721
148.0179, 2617.965
148.5001, 2648.151
148.9822, 2667.467
149.4643, 2697.009
149.9464, 2737.276
150.4285, 2769.495
150.9106, 2775.744
151.3928, 2757.437
151.8749, 2742.632
152.3570, 2741.599
152.8391, 2739.389
153.3212, 2719.578
153.8033, 2680.601
154.2855, 2638.607
154.7676, 2606.637
155.2497, 2582.323
155.7318, 2555.844
156.2139, 2519.065
156.6960, 2482.645
157.1782, 2460.101
157.6603, 2453.356
158.1424, 2451.759
158.6245, 2446.790
159.1066, 2440.723
159.5887, 2439.840
160.0709, 2450.710
160.5530, 2465.815
161.0351, 2473.545
161.5172, 2472.021
161.9993, 2469.077
162.4814, 2470.097
162.9636, 2473.675
163.4457, 2477.609
163.9278, 2482.162
164.4099, 2486.318
164.8920, 2487.193
165.3741, 2482.957
165.8563, 2480.641
166.3384, 2487.803
166.8205, 2499.560
167.3026, 2507.368
167.7847, 2503.988
168.2668, 2495.693
168.7490, 2498.691
169.2311, 2520.582
169.7132, 2536.221
170.1953, 2527.500
170.6774, 2505.118
171.1595, 2485.673
171.6417, 2479.855
172.1238, 2480.535
172.6059, 2467.273
173.0880, 2429.871
173.5701, 2399.266
174.0522, 2394.844
174.5344, 2403.876
175.0165, 2408.271
175.4986, 2398.026
175.9807, 2378.221
176.4628, 2362.610
176.9449, 2352.616
177.4271, 2344.509
177.9092, 2339.263
178.3913, 2334.195
178.8734, 2324.419
179.3555, 2304.656
179.8376, 2281.190
180.3197, 2274.604
180.8019, 2298.493
181.2840, 2315.206
181.7661, 2310.302
182.2482, 2293.442
182.7303, 2275.528
183.2124, 2260.910
183.6946, 2250.044
184.1767, 2245.383
184.6588, 2253.080
185.1409, 2256.118
185.6230, 2246.367
186.1051, 2231.569
186.5873, 2221.073
187.0694, 2219.800
187.5515, 2223.661
188.0336, 2221.608
188.5157, 2210.732
188.9978, 2198.494
189.4800, 2185.253
189.9621, 2172.343
190.4442, 2160.574
190.9263, 2150.271
191.4084, 2142.178
191.8905, 2138.354
192.3727, 2140.703
192.8548, 2144.292
193.3369, 2153.845
193.8190, 2161.524
194.3011, 2157.054
194.7832, 2136.122
195.2654, 2108.673
195.7475, 2097.957
196.2296, 2118.332
196.7117, 2128.354
197.1938, 2115.699
197.6759, 2096.021
198.1581, 2082.808
198.6402, 2080.571
199.1223, 2084.433
199.6044, 2085.173
200.0865, 2079.787
200.5686, 2077.382
201.0508, 2081.236
201.5329, 2086.280
202.0150, 2088.243
202.4971, 2086.078
202.9792, 2082.331
203.4613, 2081.042
203.9435, 2082.957
204.4256, 2085.842
204.9077, 2091.873
205.3898, 2097.140
205.8719, 2099.409
206.3540, 2098.063
206.8362, 2093.418
207.3183, 2084.424
207.8004, 2066.376
208.2825, 2056.576
208.7646, 2063.496
209.2467, 2071.169
209.7289, 2068.230
210.2110, 2054.679
210.6931, 2040.366
211.1752, 2038.095
211.6573, 2053.138
212.1395, 2060.790
212.6216, 2053.290
213.1037, 2045.527
213.5858, 2046.707
214.0679, 2055.507
214.5500, 2063.074
215.0322, 2058.939
215.5143, 2039.747
215.9964, 2031.532
216.4785, 2045.584
216.9606, 2059.949
217.4427, 2067.991
217.9249, 2069.297
218.4070, 2065.170
218.8891, 2054.930
219.3712, 2038.118
219.8533, 2031.947
220.3354, 2045.881
220.8176, 2061.927
221.2997, 2079.418
221.7818, 2095.310
222.2639, 2104.381
222.7460, 2101.900
223.2281, 2089.272
223.7103, 2081.853
224.1924, 2082.945
224.6745, 2086.232
225.1566, 2093.469
225.6387, 2101.475
226.1208, 2105.725
226.6030, 2103.413
227.0851, 2095.802
227.5672, 2087.739
228.0493, 2073.986
228.5314, 2067.471
229.0135, 2077.117
229.4957, 2092.197
229.9778, 2099.687
230.4599, 2093.513
230.9420, 2079.545
231.4241, 2073.073
231.9062, 2083.142
232.3884, 2084.831
232.8705, 2066.577
233.3526, 2044.432
233.8347, 2033.139
234.3168, 2037.418
234.7989, 2049.505
235.2811, 2056.648
235.7632, 2058.293
236.2453, 2055.919
236.7274, 2045.187
237.2095, 2034.084
237.6916, 2028.543
238.1738, 2029.401
238.6559, 2032.402
239.1380, 2032.323
239.6201, 2028.369
240.1022, 2024.206
240.5843, 2019.533
241.0665, 2015.029
241.5486, 2009.726
242.0307, 2004.379
242.5128, 2001.957
242.9949, 2008.586
243.4770, 2026.123
243.9592, 2029.905
244.4413, 2001.004
244.9234, 1975.752
245.4055, 1971.174
245.8876, 1981.883
246.3697, 1992.286
246.8519, 1991.704
247.3340, 1980.932
247.8161, 1966.400
248.2982, 1939.915
248.7803, 1921.127
249.2624, 1921.418
249.7446, 1932.279
250.2267, 1939.950
250.7088, 1936.694
251.1909, 1925.916
251.6730, 1917.024
252.1551, 1909.739
252.6373, 1905.091
253.1194, 1904.453
253.6015, 1905.841
254.0836, 1907.625
254.5657, 1909.531
255.0478, 1910.424
255.5300, 1908.083
256.0121, 1901.700
256.4942, 1895.146
256.9763, 1888.398
257.4584, 1882.564
257.9406, 1878.578
258.4227, 1876.669
258.9048, 1876.102
259.3869, 1877.423
259.8690, 1880.872
260.3511, 1880.385
260.8333, 1872.184
261.3154, 1861.761
261.7975, 1852.799
262.2796, 1845.458
262.7617, 1838.582
263.2438, 1830.916
263.7260, 1822.800
264.2081, 1816.647
264.6902, 1814.206
265.1723, 1811.421
265.6544, 1802.779
266.1365, 1790.708
266.6187, 1783.759
267.1008, 1791.706
267.5829, 1806.466
268.0650, 1809.863
268.5471, 1798.894
269.0292, 1785.029
269.5114, 1775.352
269.9935, 1768.251
270.4756, 1760.979
270.9577, 1750.245
271.4398, 1741.178
271.9219, 1741.194
272.4041, 1750.573
272.8862, 1759.558
273.3683, 1762.718
273.8504, 1762.693
274.3325, 1765.672
274.8146, 1776.167
275.2968, 1781.934
275.7789, 1769.569
276.2610, 1744.011
276.7431, 1725.411
277.2252, 1721.051
277.7073, 1726.891
278.1895, 1738.644
278.6716, 1759.143
279.1537, 1772.143
279.6358, 1766.019
280.1179, 1749.834
280.6000, 1738.724
281.0822, 1736.021
281.5643, 1738.406
282.0464, 1743.600
282.5285, 1752.052
283.0106, 1757.234
283.4927, 1757.222
283.9749, 1754.375
284.4570, 1750.986
284.9391, 1747.162
285.4212, 1740.985
285.9033, 1729.805
286.3854, 1713.928
286.8676, 1703.927
287.3497, 1699.803
287.8318, 1700.878
288.3139, 1710.308
288.7960, 1725.028
289.2781, 1737.358
289.7603, 1742.983
290.2424, 1743.131
290.7245, 1742.687
291.2066, 1738.425
291.6887, 1737.545
292.1708, 1747.138
292.6530, 1758.575
293.1351, 1759.490
293.6172, 1745.728
294.0993, 1725.316
294.5814, 1712.586
295.0635, 1712.657
295.5457, 1711.189
296.0278, 1703.909
296.5099, 1698.255
296.9920, 1700.815
297.4741, 1711.448
297.9562, 1724.399
298.4384, 1734.119
298.9205, 1740.544
299.4026, 1744.043
299.8847, 1744.968
300.3668, 1742.744
300.8489, 1732.372
301.3310, 1718.695
301.8131, 1712.141
302.2953, 1720.809
302.7774, 1740.771
303.2595, 1751.736
303.7416, 1748.527
304.2237, 1743.240
304.7058, 1736.219
305.1880, 1729.601
305.6701, 1725.664
306.1522, 1725.278
306.6343, 1727.330
307.1164, 1730.370
307.5985, 1734.753
308.0807, 1738.753
308.5628, 1740.668
309.0449, 1743.100
309.5270, 1748.914
310.0091, 1757.873
310.4912, 1765.230
310.9734, 1764.952
311.4555, 1758.042
311.9376, 1756.116
312.4197, 1763.275
312.9018, 1770.784
313.3839, 1772.251
313.8661, 1769.706
314.3482, 1768.443
314.8303, 1772.163
315.3124, 1778.043
315.7945, 1780.109
316.2766, 1777.314
316.7588, 1776.869
317.2409, 1784.100
317.7230, 1795.789
318.2051, 1807.245
318.6872, 1820.112
319.1693, 1828.722
319.6515, 1825.925
320.1336, 1814.226
320.6157, 1803.952
321.0978, 1796.996
321.5799, 1795.594
322.0620, 1806.355
322.5442, 1831.620
323.0263, 1851.599
323.5084, 1857.528
323.9905, 1856.483
324.4726, 1857.362
324.9547, 1861.670
325.4369, 1866.524
325.9190, 1868.487
326.4011, 1867.124
326.8832, 1871.016
327.3653, 1885.733
327.8474, 1900.410
328.3296, 1908.194
328.8117, 1910.676
329.2938, 1913.927
329.7759, 1921.972
330.2580, 1932.791
330.7401, 1936.947
331.2223, 1924.672
331.7044, 1917.853
332.1865, 1926.150
332.6686, 1937.614
333.1507, 1936.657
333.6328, 1919.423
334.1150, 1898.271
334.5971, 1892.475
335.0792, 1909.819
335.5613, 1921.687
336.0434, 1925.046
336.5255, 1926.310
337.0077, 1929.032
337.4898, 1932.688
337.9719, 1934.661
338.4540, 1933.141
338.9361, 1928.109
339.4182, 1918.829
339.9004, 1900.657
340.3825, 1885.247
340.8646, 1878.161
341.3467, 1874.629
341.8288, 1867.165
342.3109, 1851.750
342.7931, 1837.124
343.2752, 1839.304
343.7573, 1861.445
344.2394, 1878.022
344.7215, 1881.745
345.2036, 1878.272
345.6858, 1870.561
346.1679, 1858.995
346.6500, 1848.004
347.1321, 1842.207
347.6142, 1839.103
348.0963, 1830.454
348.5785, 1813.402
349.0606, 1797.142
349.5427, 1789.384
350.0248, 1788.288
350.5069, 1789.133
350.9890, 1793.863
351.4712, 1798.059
351.9533, 1796.902
352.4354, 1791.469
352.9175, 1788.091
353.3996, 1791.025
353.8817, 1796.377
354.3639, 1792.792
354.8460, 1775.508
355.3281, 1761.399
355.8102, 1758.385
356.2923, 1758.631
356.7744, 1751.562
357.2566, 1735.304
357.7387, 1717.800
358.2208, 1707.937
358.7029, 1707.014
359.1850, 1707.036
359.6671, 1710.445
360.1493, 1712.267
360.6314, 1708.253
361.1135, 1700.975
361.5956, 1697.502
362.0777, 1702.856
362.5598, 1712.068
363.0420, 1705.243
363.5241, 1661.043
364.0062, 1635.751
364.4883, 1651.146
364.9704, 1676.468
365.4525, 1684.907
365.9347, 1671.320
366.4168, 1651.205
366.8989, 1643.035
367.3810, 1647.816
367.8631, 1646.165
368.3452, 1631.027
368.8274, 1616.888
369.3095, 1610.358
369.7916, 1610.316
370.2737, 1613.857
370.7558, 1620.006
371.2379, 1628.632
371.7201, 1641.954
372.2022, 1661.122
372.6843, 1673.314
373.1664, 1668.335
373.6485, 1655.905
374.1306, 1652.397
374.6128, 1661.803
375.0949, 1667.439
375.5770, 1655.263
376.0591, 1634.105
376.5412, 1622.936
377.0233, 1626.461
377.5055, 1633.196
377.9876, 1630.118
378.4697, 1615.825
378.9518, 1610.846
379.4339, 1623.312
379.9160, 1638.069
380.3982, 1649.127
380.8803, 1655.202
381.3624, 1653.387
381.8445, 1641.407
382.3266, 1623.036
382.8087, 1609.402
383.2909, 1598.426
383.7730, 1596.113
384.2551, 1610.189
384.7372, 1627.869
385.2193, 1639.332
385.7014, 1642.788
386.1836, 1641.799
386.6657, 1639.157
387.1478, 1634.630
387.6299, 1633.302
388.1120, 1639.954
388.5941, 1644.234
389.0763, 1641.797
389.5584, 1635.115
390.0405, 1628.187
390.5226, 1622.704
391.0047, 1617.554
391.4868, 1610.767
391.9690, 1602.203
392.4511, 1593.269
392.9332, 1581.545
393.4153, 1572.396
393.8974, 1571.526
394.3795, 1578.886
394.8617, 1587.277
395.3438, 1595.343
395.8259, 1601.463
396.3080, 1601.499
396.7901, 1594.731
397.2722, 1588.313
397.7544, 1587.447
398.2365, 1591.222
398.7186, 1593.811
399.2007, 1594.574
399.6828, 1594.884
400.1649, 1596.749
400.6471, 1598.166
401.1292, 1593.992
401.6113, 1582.463
402.0934, 1570.710
402.5755, 1569.890
403.0576, 1585.639
403.5398, 1595.288
404.0219, 1599.500
404.5040, 1598.054
404.9861, 1583.371
405.4682, 1562.765
405.9503, 1554.191
406.4325, 1570.748
406.9146, 1603.700
407.3967, 1621.847
407.8788, 1620.558
408.3609, 1613.380
408.8430, 1594.198
409.3252, 1576.340
409.8073, 1572.683
410.2894, 1584.396
410.7715, 1598.129
411.2536, 1601.966
411.7357, 1597.794
412.2179, 1594.250
412.7000, 1590.309
413.1821, 1590.819
413.6642, 1601.431
414.1463, 1618.815
414.6284, 1637.363
415.1106, 1661.647
415.5927, 1680.093
416.0748, 1679.164
416.5569, 1664.891
417.0390, 1656.222
417.5211, 1660.005
418.0033, 1670.333
418.4854, 1679.465
418.9675, 1688.526
419.4496, 1691.543
419.9317, 1681.418
420.4138, 1670.789
420.8960, 1667.998
421.3781, 1672.398
421.8602, 1679.272
422.3423, 1685.570
422.8244, 1692.084
423.3065, 1702.641
423.7887, 1724.341
424.2708, 1738.755
424.7529, 1738.084
425.2350, 1734.054
425.7171, 1736.198
426.1992, 1745.798
426.6814, 1757.694
427.1635, 1768.145
427.6456, 1777.088
428.1277, 1780.849
428.6098, 1772.262
429.0919, 1772.480
429.5741, 1801.485
430.0562, 1843.612
430.5383, 1875.577
431.0204, 1890.019
431.5025, 1897.411
431.9846, 1904.906
432.4668, 1912.296
432.9489, 1917.423
433.4310, 1918.214
433.9131, 1921.929
434.3952, 1938.856
434.8773, 1970.552
435.3595, 1998.845
435.8416, 2020.661
436.3237, 2040.648
436.8058, 2059.435
437.2879, 2078.754
437.7701, 2103.384
438.2522, 2136.147
438.7343, 2173.097
439.2164, 2203.644
439.6985, 2221.484
440.1806, 2244.051
440.6628, 2272.104
441.1449, 2304.197
441.6270, 2341.573
442.1091, 2382.569
442.5912, 2422.546
443.0733, 2457.239
443.5555, 2488.273
444.0376, 2520.550
444.5197, 2551.469
445.0018, 2591.060
445.4839, 2652.314
445.9660, 2720.012
446.4482, 2779.235
446.9303, 2827.129
447.4124, 2872.914
447.8945, 2921.822
448.3766, 2972.720
448.8587, 3025.263
449.3409, 3080.262
449.8230, 3127.232
450.3051, 3154.147
450.7872, 3164.228
451.2693, 3189.832
451.7514, 3243.273
452.2336, 3296.570
452.7157, 3335.958
453.1978, 3371.263
453.6799, 3420.926
454.1620, 3488.749
454.6441, 3554.420
455.1263, 3589.525
455.6084, 3587.075
456.0905, 3593.488
456.5726, 3619.876
457.0547, 3643.957
457.5368, 3656.064
458.0190, 3662.106
458.5011, 3673.188
458.9832, 3695.104
459.4653, 3718.279
459.9474, 3726.659
460.4295, 3719.918
460.9117, 3719.049
461.3938, 3731.006
461.8759, 3745.935
462.3580, 3755.955
462.8401, 3761.544
463.3222, 3764.579
463.8044, 3762.166
464.2865, 3760.100
464.7686, 3764.388
465.2507, 3773.773
465.7328, 3783.985
466.2149, 3793.928
466.6971, 3800.948
467.1792, 3799.011
467.6613, 3779.219
468.1434, 3769.501
468.6255, 3774.753
469.1076, 3785.572
469.5898, 3798.458
470.0719, 3811.884
470.5540, 3824.394
471.0361, 3835.534
471.5182, 3844.101
472.0003, 3843.342
472.4825, 3823.269
472.9646, 3821.267
473.4467, 3865.482
473.9288, 3916.116
474.4109, 3947.424
474.8930, 3958.982
475.3752, 3966.988
475.8573, 3973.777
476.3394, 3985.599
476.8215, 4018.185
477.3036, 4071.987
477.7857, 4122.397
478.2679, 4157.988
478.7500, 4181.649
479.2321, 4199.041
479.7142, 4206.189
480.1963, 4217.598
480.6784, 4247.643
481.1606, 4275.321
481.6427, 4275.791
482.1248, 4251.952
482.6069, 4229.078
483.0890, 4226.324
483.5711, 4239.977
484.0533, 4250.693
484.5354, 4268.937
485.0175, 4265.545
485.4996, 4227.361
485.9817, 4175.324
486.4638, 4124.646
486.9460, 4077.406
487.4281, 4029.372
487.9102, 3977.758
488.3923, 3922.732
488.8744, 3864.549
489.3565, 3803.134
489.8387, 3739.704
490.3208, 3676.070
490.8029, 3610.127
491.2850, 3537.768
491.7671, 3455.912
492.2492, 3376.343
492.7314, 3304.164
493.2135, 3236.385
493.6956, 3169.958
494.1777, 3104.740
494.6598, 3042.314
495.1419, 2985.224
495.6241, 2931.232
496.1062, 2863.531
496.5883, 2763.816
497.0704, 2676.595
497.5525, 2607.374
498.0346, 2550.514
498.5168, 2503.437
498.9989, 2464.724
499.4810, 2431.591
499.9631, 2406.033
500.4452, 2384.011
500.9273, 2348.397
501.4095, 2295.401
501.8916, 2244.660
502.3737, 2206.093
502.8558, 2173.776
503.3379, 2137.103
503.8200, 2093.569
504.3022, 2056.199
504.7843, 2036.955
505.2664, 2022.490
505.7485, 1996.505
506.2306, 1958.823
506.7127, 1919.672
507.1949, 1884.867
507.6770, 1855.076
508.1591, 1833.708
508.6412, 1827.796
509.1233, 1820.236
509.6054, 1808.714
510.0876, 1796.371
510.5697, 1785.553
511.0518, 1776.287
511.5339, 1767.329
512.0161, 1758.331
512.4982, 1748.672
512.9803, 1735.699
513.4624, 1718.668
513.9445, 1703.533
514.4266, 1694.134
514.9088, 1686.117
515.3909, 1673.094
515.8730, 1654.529
516.3551, 1637.860
516.8372, 1624.172
517.3193, 1614.160
517.8015, 1610.473
518.2836, 1611.473
518.7657, 1610.984
519.2478, 1605.735
519.7299, 1597.061
520.2120, 1587.753
520.6942, 1574.718
521.1763, 1567.124
521.6584, 1572.115
522.1405, 1575.248
522.6226, 1564.863
523.1047, 1546.171
523.5869, 1533.595
524.0690, 1535.623
524.5511, 1545.297
525.0332, 1551.190
525.5153, 1553.344
525.9974, 1559.049
526.4796, 1573.016
526.9617, 1586.199
527.4438, 1586.680
527.9259, 1576.161
528.4080, 1568.537
528.8901, 1568.015
529.3723, 1568.638
529.8544, 1567.081
530.3365, 1564.080
530.8186, 1560.765
531.3007, 1557.585
531.7828, 1555.837
532.2650, 1558.239
532.7471, 1566.514
533.2292, 1568.009
533.7113, 1551.090
534.1934, 1540.885
534.6755, 1552.240
535.1577, 1571.924
535.6398, 1580.156
536.1219, 1570.197
536.6040, 1559.115
537.0861, 1563.718
537.5682, 1579.996
538.0504, 1595.692
538.5325, 1609.468
539.0146, 1621.536
539.4967, 1631.826
539.9788, 1640.401
540.4609, 1647.498
540.9431, 1651.563
541.4252, 1656.535
541.9073, 1661.542
542.3894, 1668.866
542.8715, 1683.527
543.3536, 1703.957
543.8358, 1720.647
544.3179, 1724.671
544.8000, 1720.208
545.2821, 1726.889
545.7642, 1750.060
546.2463, 1769.629
546.7285, 1775.201
547.2106, 1779.237
547.6926, 1793.343
548.1747, 1816.728
548.6569, 1836.352
549.1390, 1841.197
549.6211, 1843.082
550.1032, 1856.927
550.5853, 1880.010
551.0674, 1899.761
551.5496, 1911.511
552.0317, 1916.494
552.5138, 1915.385
552.9959, 1902.687
553.4780, 1902.950
553.9601, 1927.310
554.4423, 1950.779
554.9244, 1964.888
555.4065, 1971.018
555.8886, 1971.448
556.3707, 1966.891
556.8528, 1960.495
557.3350, 1956.384
557.8171, 1954.087
558.2992, 1949.891
558.7813, 1943.577
559.2634, 1935.161
559.7455, 1926.461
560.2277, 1915.073
560.7098, 1894.376
561.1919, 1857.216
561.6740, 1823.121
562.1561, 1797.462
562.6382, 1778.336
563.1204, 1768.760
563.6025, 1765.331
564.0846, 1752.896
564.5667, 1718.198
565.0488, 1669.398
565.5309, 1640.053
566.0131, 1640.558
566.4952, 1634.256
566.9773, 1606.885
567.4594, 1577.109
567.9415, 1557.156
568.4236, 1545.615
568.9058, 1533.342
569.3879, 1515.427
569.8700, 1495.967
570.3521, 1478.158
570.8342, 1462.107
571.3163, 1449.144
571.7985, 1440.031
572.2806, 1430.390
572.7627, 1414.402
573.2448, 1390.872
573.7269, 1371.827
574.2090, 1361.336
574.6912, 1349.988
575.1733, 1332.359
575.6554, 1314.281
576.1375, 1302.717
576.6196, 1298.963
577.1017, 1298.174
577.5839, 1297.658
578.0660, 1296.565
578.5481, 1291.780
579.0302, 1283.064
579.5123, 1272.215
579.9944, 1258.836
580.4766, 1244.884
580.9587, 1234.226
581.4408, 1226.839
581.9229, 1221.633
582.4050, 1222.979
582.8871, 1222.450
583.3693, 1212.109
583.8514, 1195.742
584.3335, 1181.373
584.8156, 1172.744
585.2977, 1168.849
585.7798, 1169.383
586.2620, 1174.956
586.7441, 1177.535
587.2262, 1175.007
587.7083, 1172.334
588.1904, 1173.645
588.6725, 1176.326
589.1547, 1176.261
589.6368, 1173.163
590.1189, 1166.601
590.6010, 1152.472
591.0831, 1136.852
591.5652, 1127.626
592.0474, 1125.103
592.5295, 1125.861
593.0116, 1128.083
593.4937, 1130.762
593.9758, 1130.597
594.4579, 1126.210
594.9401, 1122.259
595.4222, 1119.580
595.9043, 1117.021
596.3864, 1113.375
596.8685, 1109.422
597.3506, 1107.476
597.8328, 1109.772
598.3149, 1111.643
598.7970, 1106.514
599.2791, 1097.862
599.7612, 1096.023
600.2433, 1103.007
600.7255, 1110.084
601.2076, 1109.722
601.6897, 1102.869
602.1718, 1097.245
602.6539, 1092.489
603.1360, 1089.606
603.6182, 1091.794
604.1003, 1093.398
604.5824, 1088.037
605.0645, 1077.573
605.5466, 1070.987
606.0287, 1075.799
606.5109, 1084.012
606.9930, 1082.199
607.4751, 1071.784
607.9572, 1064.840
608.4393, 1065.207
608.9214, 1066.157
609.4036, 1060.232
609.8857, 1047.389
610.3678, 1038.991
610.8499, 1033.903
611.3320, 1034.212
611.8141, 1046.855
612.2963, 1061.096
612.7784, 1065.447
613.2605, 1059.372
613.7426, 1050.547
614.2247, 1043.428
614.7068, 1038.764
615.1890, 1040.307
615.6711, 1048.521
616.1532, 1052.136
616.6353, 1046.731
617.1174, 1037.655
617.5995, 1029.807
618.0817, 1023.205
618.5638, 1019.894
619.0459, 1022.254
619.5280, 1025.260
620.0101, 1026.331
620.4922, 1027.286
620.9744, 1031.357
621.4565, 1038.590
621.9386, 1045.036
622.4207, 1046.715
622.9028, 1044.956
623.3849, 1045.653
623.8671, 1049.764
624.3492, 1050.375
624.8313, 1043.371
625.3134, 1034.293
625.7955, 1029.006
626.2776, 1027.279
626.7598, 1029.309
627.2419, 1039.682
627.7240, 1048.902
628.2061, 1051.958
628.6882, 1050.875
629.1703, 1048.045
629.6525, 1044.411
630.1346, 1040.896
630.6167, 1038.071
631.0988, 1036.203
631.5809, 1038.003
632.0630, 1045.721
632.5452, 1048.005
633.0273, 1038.192
633.5094, 1024.536
633.9915, 1015.245
634.4736, 1010.200
634.9557, 1008.754
635.4379, 1015.886
635.9200, 1021.271
636.4021, 1013.192
636.8842, 1001.749
637.3663, 1006.013
637.8484, 1028.704
638.3306, 1052.125
638.8127, 1058.062
639.2948, 1049.456
639.7769, 1044.539
640.2590, 1045.073
640.7411, 1042.808
641.2233, 1033.265
641.7054, 1022.022
642.1875, 1013.734
642.6696, 1008.428
643.1517, 1007.439
643.6339, 1015.336
644.1160, 1023.026
644.5981, 1026.132
645.0802, 1025.566
645.5623, 1020.922
646.0444, 1013.183
646.5266, 1008.144
647.0087, 1012.067
647.4908, 1022.669
647.9729, 1029.719
648.4550, 1033.436
648.9371, 1032.147
649.4193, 1022.263
649.9014, 1010.610
650.3835, 1002.594
650.8656, 998.1935
651.3477, 997.7599
651.8298, 1008.196
652.3120, 1014.830
652.7941, 1007.097
653.2762, 993.2661
653.7583, 983.4489
654.2404, 979.7196
654.7225, 980.0938
655.2047, 983.6642
655.6868, 989.1725
656.1689, 993.2869
656.6510, 996.6804
657.1331, 993.2938
657.6152, 975.6783
658.0974, 959.8771
658.5795, 965.3026
659.0616, 986.3787
659.5437, 997.9687
660.0258, 987.5517
660.5079, 980.1539
660.9901, 990.1268
661.4722, 1003.570
661.9543, 1004.656
662.4364, 993.6514
662.9185, 981.4839
663.4006, 975.4302
663.8828, 972.5439
664.3649, 963.8295
664.8470, 948.7554
665.3291, 947.9806
665.8112, 971.7054
666.2933, 993.3171
666.7755, 990.8681
667.2576, 969.7337
667.7397, 954.6918
668.2218, 946.6235
668.7039, 943.1463
669.1860, 947.9319
669.6682, 953.7646
670.1503, 955.7975
670.6324, 953.7998
671.1145, 948.1091
671.5966, 938.3085
672.0787, 929.1171
672.5609, 927.7828
673.0430, 933.3824
673.5251, 941.0109
674.0072, 951.6356
674.4893, 955.1847
674.9714, 942.7858
675.4536, 921.4923
675.9357, 909.8663
676.4178, 912.3412
676.8999, 914.8532
677.3820, 917.0969
677.8641, 919.2711
678.3463, 918.7827
678.8284, 919.1597
679.3105, 928.3131
679.7926, 948.7135
680.2747, 967.1627
680.7568, 969.1608
681.2390, 960.4077
681.7211, 954.2630
682.2032, 951.1341
682.6853, 946.6252
683.1674, 938.3856
683.6495, 929.3735
684.1317, 924.2703
684.6138, 923.8971
685.0959, 923.1760
685.5780, 920.9474
686.0601, 919.7650
686.5422, 921.6722
687.0244, 924.0569
687.5065, 922.9528
687.9886, 918.4631
688.4707, 916.8207
688.9528, 924.0671
689.4349, 934.0415
689.9171, 941.6730
690.3992, 946.1713
690.8813, 943.0206
691.3634, 931.3047
691.8455, 922.2305
692.3276, 929.3142
692.8098, 949.0220
693.2919, 947.4819
693.7740, 909.3443
694.2561, 884.0765
694.7382, 891.1108
695.2203, 904.6046
695.7025, 906.8603
696.1846, 900.4448
696.6667, 896.3093
697.1488, 896.4049
697.6309, 900.4496
698.1130, 915.1916
698.5952, 929.8820
699.0773, 928.5125
699.5594, 912.3817
700.0415, 894.7509
700.5236, 883.2402
701.0057, 877.6622
701.4879, 879.2753
701.9700, 888.5550
702.4521, 894.8323
702.9342, 896.3362
703.4163, 897.1182
703.8984, 901.2181
704.3806, 905.5178
704.8627, 900.9921
705.3448, 880.9292
705.8269, 871.8025
706.3090, 889.3129
706.7911, 906.6214
707.2733, 903.1851
707.7554, 889.9294
708.2375, 889.0649
708.7196, 906.5778
709.2017, 922.9007
709.6838, 915.0081
710.1660, 892.9356
710.6481, 881.8084
711.1302, 881.5876
711.6123, 886.2834
712.0944, 894.7808
712.5765, 903.1110
713.0587, 905.8963
713.5408, 902.7600
714.0229, 902.1219
714.5050, 905.2586
714.9871, 909.2422
715.4692, 916.3306
715.9514, 921.9633
716.4335, 923.3752
716.9156, 920.0519
717.3977, 910.6274
717.8798, 886.1804
718.3619, 867.5382
718.8441, 880.7292
719.3262, 907.3043
719.8083, 913.0839
720.2904, 896.1415
720.7725, 878.8354
721.2546, 876.1055
721.7368, 883.1320
722.2189, 889.3120
722.7010, 894.9597
723.1831, 897.1438
723.6652, 893.6433
724.1473, 890.6293
724.6295, 892.5332
725.1116, 896.8581
725.5937, 898.7963
726.0758, 898.4839
726.5579, 895.1487
727.0400, 881.4732
727.5222, 872.0034
728.0043, 881.4194
728.4864, 898.6515
728.9685, 904.2211
729.4506, 893.6728
729.9327, 880.9318
730.4149, 880.2802
730.8970, 885.7032
731.3791, 881.0380
731.8612, 867.9120
732.3433, 863.0771
732.8254, 872.3382
733.3076, 885.0915
733.7897, 890.8676
734.2718, 890.0296
734.7539, 887.3992
735.2360, 880.1442
735.7181, 875.8594
736.2003, 877.7570
736.6824, 880.5471
737.1645, 882.0892
737.6466, 881.8260
738.1287, 878.0423
738.6108, 867.3458
739.0930, 860.2800
739.5751, 864.1422
740.0572, 873.8736
740.5393, 887.9597
741.0214, 902.5852
741.5035, 906.1709
741.9857, 893.1447
742.4678, 877.1022
742.9499, 880.4231
743.4320, 901.1202
743.9141, 910.7584
744.3962, 907.7283
744.8784, 899.9756
745.3605, 887.6448
745.8426, 876.2939
746.3247, 873.7303
746.8068, 880.8073
747.2889, 889.3419
747.7711, 907.2559
748.2532, 916.4276
748.7353, 908.1663
749.2174, 892.7249
749.6995, 875.0317
750.1816, 858.4064
750.6638, 850.7560
751.1459, 858.6138
751.6280, 871.4752
752.1101, 882.2839
752.5922, 890.2930
753.0743, 893.4804
753.5565, 891.9962
754.0386, 887.5875
754.5207, 880.9781
755.0028, 874.2673
755.4849, 871.7741
755.9670, 873.9023
756.4492, 876.8079
756.9313, 881.0290
757.4134, 884.3099
757.8955, 883.7809
758.3776, 883.2100
758.8597, 891.2108
759.3419, 909.6320
759.8240, 916.6277
760.3061, 899.6484
760.7882, 883.8845
761.2703, 878.9769
761.7524, 879.9088
762.2346, 881.3350
762.7167, 882.6664
763.1988, 886.2280
763.6809, 894.7805
764.1630, 903.5395
764.6451, 906.6995
765.1273, 905.8251
765.6094, 902.5588
766.0915, 898.1043
766.5736, 901.5040
767.0557, 919.7480
767.5378, 942.7294
768.0200, 946.9967
768.5021, 928.9057
768.9842, 914.0527
769.4663, 903.9919
769.9484, 894.3281
770.4305, 877.8268
770.9127, 864.4288
771.3948, 872.0297
771.8769, 902.7653
772.3590, 924.1379
772.8411, 931.9763
773.3232, 930.2839
773.8054, 909.3620
774.2875, 887.1057
774.7696, 886.0525
775.2517, 903.8645
775.7338, 917.8842
776.2159, 914.4881
776.6981, 904.8253
777.1802, 901.0845
777.6623, 900.6921
778.1444, 896.2477
778.6265, 887.8533
779.1086, 883.9828
779.5908, 889.7855
780.0729, 899.9917
780.5550, 905.6742
781.0371, 906.9178
781.5192, 900.2676
782.0013, 878.4691
782.4835, 869.0945
782.9656, 892.8470
783.4477, 924.3936
783.9298, 928.9842
784.4119, 906.0035
784.8940, 888.5211
785.3762, 879.2663
785.8583, 873.9337
786.3404, 871.5619
786.8225, 872.4973
787.3046, 879.8671
787.7867, 890.9326
788.2689, 897.2177
788.7510, 894.0610
789.2331, 888.9833
789.7152, 890.4968
790.1973, 893.0920
790.6794, 885.1459
791.1616, 869.0992
791.6437, 857.7880
792.1258, 856.6786
792.6079, 862.9369
793.0900, 875.3841
793.5721, 892.5372
794.0543, 897.5576
794.5364, 887.9272
795.0185, 882.4551
795.5006, 887.7185
795.9827, 896.3587
796.4648, 901.9050
796.9470, 904.4694
797.4291, 905.0802
797.9112, 901.1984
798.3933, 899.0031
798.8754, 898.2672
799.3575, 899.7743
799.8397, 907.5250
800.3218, 916.8186
800.8039, 917.2031
801.2860, 904.3945
801.7681, 896.3357
802.2502, 907.4858
802.7324, 922.5099
803.2145, 928.3327
803.6966, 927.2556
804.1787, 924.2747
804.6608, 921.0358
805.1429, 918.1708
805.6251, 917.1907
806.1072, 915.6014
806.5893, 906.3109
807.0714, 890.5958
807.5535, 877.9313
808.0356, 869.8368
808.5178, 866.8443
808.9999, 870.6466
809.4820, 876.9057
809.9641, 873.6751
810.4462, 856.5106
810.9283, 846.1705
811.4105, 845.0438
811.8926, 846.8897
812.3747, 854.1136
812.8568, 859.9337
813.3389, 855.0838
813.8210, 839.5831
814.3032, 825.9329
814.7853, 815.0773
815.2674, 807.4886
815.7495, 806.2136
816.2316, 806.0341
816.7137, 800.2461
817.1959, 791.2407
817.6780, 788.5463
818.1601, 797.9601
818.6422, 805.8053
819.1243, 797.8002
819.6064, 782.2752
820.0886, 769.7471
820.5707, 761.5941
821.0528, 760.3850
821.5349, 766.7275
822.0170, 775.1523
822.4991, 780.8456
822.9813, 782.9834
823.4634, 775.8762
823.9455, 758.7754
824.4276, 746.6571
824.9097, 742.3668
825.3918, 745.1741
825.8740, 757.1509
826.3561, 773.8522
826.8382, 779.6742
827.3203, 768.2466
827.8024, 760.6096
828.2845, 757.4921
828.7667, 757.3776
829.2488, 760.6237
829.7309, 765.9663
830.2130, 774.7397
830.6951, 786.7782
831.1772, 788.4848
831.6594, 767.8996
832.1415, 747.0021
832.6236, 732.9902
833.1057, 724.9222
833.5878, 721.9919
834.0699, 723.8017
834.5521, 731.1497
835.0342, 745.7142
835.5163, 758.3572
835.9984, 759.7267
836.4805, 754.1766
836.9626, 746.0699
837.4448, 737.5324
837.9269, 735.3730
838.4090, 741.5284
838.8911, 748.7920
839.3732, 749.7391
839.8553, 745.5679
840.3375, 739.9370
840.8196, 732.7897
841.3017, 726.5364
841.7838, 720.9650
842.2659, 719.9791
842.7480, 727.6769
843.2302, 739.9188
843.7123, 746.3990
844.1944, 746.2939
844.6765, 742.9117
845.1586, 732.9343
845.6407, 724.6334
846.1229, 720.8127
846.6050, 719.9211
847.0871, 721.9263
847.5692, 726.3265
848.0513, 727.6506
848.5334, 719.6926
849.0156, 715.9820
849.4977, 727.5846
849.9798, 738.1780
850.4619, 731.7270
850.9440, 714.9338
851.4261, 704.2666
851.9083, 704.9980
852.3904, 707.5470
852.8725, 706.9716
853.3546, 703.9075
853.8367, 696.0446
854.3188, 687.1171
854.8010, 686.3914
855.2831, 694.1840
855.7652, 699.7639
856.2473, 694.3195
856.7294, 684.9987
857.2115, 685.4536
857.6937, 693.2656
858.1758, 698.0441
858.6579, 698.7612
859.1400, 696.3011
859.6221, 690.6648
860.1042, 684.8599
860.5864, 682.9921
861.0685, 685.0320
861.5506, 690.1691
862.0327, 699.2605
862.5148, 708.4553
862.9969, 718.2686
863.4791, 725.4995
863.9612, 727.1508
864.4433, 724.3812
864.9254, 721.3071
865.4075, 717.7202
865.8896, 714.2401
866.3718, 708.5103
866.8539, 705.6648
867.3360, 708.4857
867.8181, 714.4792
868.3002, 723.4811
868.7823, 734.4886
869.2645, 737.4368
869.7466, 720.9074
870.2287, 707.3589
870.7108, 709.5550
871.1929, 714.9147
871.6750, 709.1549
872.1572, 697.7506
872.6393, 696.9393
873.1214, 712.5836
873.6035, 727.6583
874.0856, 728.6628
874.5677, 723.7200
875.0499, 720.3431
875.5320, 718.6644
876.0141, 718.7297
876.4962, 720.2393
876.9783, 721.8391
877.4604, 722.5793
877.9426, 723.0701
878.4247, 726.4169
878.9068, 730.3350
879.3889, 714.4521
879.8710, 724.2164
880.3531, 729.2739
880.8353, 729.8773
881.3174, 712.6879
881.7995, 718.4746
882.2816, 715.0535
882.7637, 711.2549
883.2458, 720.2754
883.7280, 705.6736
884.2101, 714.4909
884.6922, 713.9598
885.1743, 717.7072
885.6564, 712.1899
886.1385, 709.5342
886.6207, 716.1458
887.1028, 717.6263
887.5849, 711.0424
888.0670, 715.0617
888.5491, 700.1366
889.0313, 701.8352
889.5134, 710.7066
889.9955, 704.5887
890.4776, 708.7774
890.9597, 709.0407
891.4418, 691.4649
891.9240, 704.9129
892.4061, 706.1771
892.8882, 711.7779
893.3703, 715.1805
893.8524, 719.3092
894.3345, 724.0123
894.8167, 722.8356
895.2988, 705.8234
895.7809, 691.2672
896.2630, 691.6226
896.7451, 697.2178
897.2272, 698.7709
897.7094, 696.4890
898.1915, 694.4736
898.6736, 694.2173
899.1557, 691.7778
899.6378, 679.1824
900.1199, 666.5182
900.6021, 667.5302
901.0842, 677.8099
901.5663, 690.6256
902.0484, 702.7762
902.5305, 706.7603
903.0126, 696.8397
903.4948, 683.1018
903.9769, 682.0267
904.4590, 688.9534
904.9411, 689.1938
905.4232, 682.7672
905.9053, 672.9568
906.3875, 660.9789
906.8696, 657.5081
907.3517, 675.0695
907.8338, 705.3179
908.3159, 721.5856
908.7980, 723.8035
909.2802, 719.8011
909.7623, 709.4192
910.2444, 699.7083
910.7265, 693.8906
911.2086, 691.2349
911.6907, 691.3508
912.1729, 694.1583
912.6550, 692.6335
913.1371, 683.3854
913.6192, 681.0193
914.1013, 690.9619
914.5834, 702.7808
915.0656, 710.1754
915.5477, 714.3942
916.0298, 718.1432
916.5119, 720.9590
916.9940, 725.2477
917.4761, 738.8386
917.9583, 742.7764
918.4404, 721.7148
918.9225, 698.8591
919.4046, 696.8222
919.8867, 708.6804
920.3688, 706.9370
920.8510, 678.0148
921.3331, 661.1669
921.8152, 669.5790
922.2973, 682.4444
922.7794, 694.2007
923.2615, 702.6085
923.7437, 703.3704
924.2258, 697.7876
924.7079, 695.8903
925.1900, 704.0479
925.6721, 710.7960
926.1542, 713.8743
926.6364, 711.4536
927.1185, 695.7762
927.6006, 676.0875
928.0827, 669.9199
928.5648, 679.8915
929.0469, 687.8683
929.5291, 680.6585
930.0112, 671.3591
930.4933, 668.5139
930.9754, 670.0475
931.4575, 674.7639
931.9396, 681.3070
932.4218, 687.5264
932.9039, 692.6399
933.3860, 695.9137
933.8681, 696.1662
934.3502, 694.6624
934.8323, 693.0570
935.3145, 690.9326
935.7966, 686.1857
936.2787, 679.6719
936.7608, 675.8931
937.2429, 677.2428
937.7250, 682.3069
938.2072, 693.0941
938.6893, 704.8295
939.1714, 703.7714
939.6535, 693.4104
940.1356, 688.2822
940.6177, 691.4195
941.0999, 697.2274
941.5820, 702.0246
942.0641, 705.8109
942.5462, 709.2619
943.0283, 711.8016
943.5104, 708.7703
943.9926, 700.6517
944.4747, 696.6714
944.9568, 699.7539
945.4389, 704.4478
945.9210, 706.0797
946.4031, 705.1621
946.8853, 702.8049
947.3674, 699.0091
947.8495, 694.1697
948.3316, 687.8204
948.8137, 687.0684
949.2958, 695.5632
949.7780, 706.0799
950.2601, 710.3954
950.7422, 709.7999
951.2243, 712.2958
951.7064, 719.5811
952.1885, 716.5955
952.6707, 697.0518
953.1528, 687.1187
953.6349, 703.2971
954.1170, 725.7269
954.5991, 726.1641
955.0812, 706.0018
955.5634, 696.8391
956.0455, 702.8866
956.5276, 707.1794
957.0097, 707.7370
957.4918, 706.2861
957.9739, 703.8867
958.4561, 699.6848
958.9382, 690.4055
959.4203, 674.7295
959.9024, 673.5004
960.3845, 698.4043
960.8666, 713.9032
961.3488, 706.9953
961.8309, 700.4514
962.3130, 711.6797
962.7951, 730.7448
963.2772, 737.7690
963.7593, 730.4200
964.2415, 723.4735
964.7236, 716.2609
965.2057, 710.4237
965.6878, 705.8619
966.1699, 703.1017
966.6520, 703.8970
967.1342, 706.4095
967.6163, 706.3769
968.0984, 703.1422
968.5805, 699.6178
969.0626, 691.1870
969.5447, 688.8406
970.0269, 701.7762
970.5090, 715.9337
970.9911, 719.9642
971.4732, 716.7948
971.9553, 714.2498
972.4374, 711.7466
972.9196, 714.5643
973.4017, 730.9197
973.8838, 743.1658
974.3659, 743.0792
974.8480, 737.9457
975.3301, 734.6158
975.8123, 731.8080
976.2944, 722.8550
976.7765, 701.7322
977.2586, 691.2019
977.7407, 705.3948
978.2228, 720.2200
978.7050, 725.0242
979.1871, 725.5064
979.6692, 726.8633
980.1513, 729.3641
980.6334, 731.9131
981.1155, 734.2401
981.5977, 736.7051
982.0798, 738.8630
982.5619, 741.8268
983.0440, 751.2696
983.5261, 758.1472
984.0082, 746.3513
984.4904, 722.3103
984.9725, 714.4205
985.4546, 737.1385
985.9367, 755.4047
986.4188, 751.1307
986.9009, 745.0826
987.3831, 752.7705
987.8652, 763.1600
988.3473, 759.3488
988.8294, 744.6031
989.3115, 739.4658
989.7936, 754.0711
990.2758, 766.9346
990.7579, 766.7204
991.2400, 764.6805
991.7221, 768.4320
992.2042, 774.2811
992.6863, 778.0262
993.1685, 779.0358
993.6506, 777.6478
994.1327, 773.3427
994.6148, 768.5196
995.0969, 763.3272
995.5790, 758.9565
996.0612, 755.3188
996.5433, 753.5856
997.0254, 756.9605
997.5075, 763.9133
997.9896, 766.5085
998.4717, 758.9946
998.9539, 756.1273
999.4360, 770.8232
999.9181, 786.0221
1000.400, 789.7009
1000.882, 786.7977
1001.364, 782.3986
1001.847, 778.2114
1002.329, 776.9621
1002.811, 780.8782
1003.293, 783.7396
1003.775, 781.6890
1004.257, 778.6090
1004.739, 777.6542
1005.221, 776.9349
1005.703, 775.2939
1006.186, 771.5476
1006.668, 760.3325
1007.150, 733.5850
1007.632, 720.9193
1008.114, 750.7910
1008.596, 782.6216
1009.078, 788.5123
1009.560, 782.2260
1010.043, 781.2685
1010.525, 785.7462
1011.007, 786.2053
1011.489, 778.1118
1011.971, 771.9622
1012.453, 771.8636
1012.935, 775.4909
1013.417, 787.9974
1013.899, 798.6693
1014.382, 789.0848
1014.864, 766.7458
1015.346, 760.9845
1015.828, 783.9338
1016.310, 805.7743
1016.792, 818.4168
1017.274, 823.0355
1017.756, 814.8163
1018.239, 803.2175
1018.721, 798.5162
1019.203, 798.8589
1019.685, 795.4211
1020.167, 784.9080
1020.649, 777.1014
1021.131, 775.7539
1021.613, 777.0725
1022.095, 778.9754
1022.578, 782.9970
1023.060, 793.9706
1023.542, 807.6408
1024.024, 813.3079
1024.506, 808.2165
1024.988, 800.3199
1025.470, 783.7234
1025.952, 775.0959
1026.435, 786.2889
1026.917, 802.7808
1027.399, 814.7231
1027.881, 822.3251
1028.363, 828.7926
1028.845, 835.2632
1029.327, 833.8777
1029.809, 813.0446
1030.292, 798.3049
1030.774, 801.6332
1031.256, 808.0233
1031.738, 805.5079
1032.220, 799.6207
1032.702, 801.8994
1033.184, 813.9404
1033.666, 822.7344
1034.148, 828.1978
1034.630, 828.5068
1035.113, 817.1663
1035.595, 807.3207
1036.077, 806.1642
1036.559, 810.9960
1037.041, 821.5698
1037.523, 838.3859
1038.005, 839.2006
1038.487, 802.4438
1038.970, 784.6302
1039.452, 805.2008
1039.934, 823.9861
1040.416, 820.0779
1040.898, 808.3298
1041.380, 806.7114
1041.862, 814.1602
1042.344, 819.1617
1042.826, 824.1771
1043.309, 820.6127
1043.791, 801.9335
1044.273, 786.4071
1044.755, 781.9482
1045.237, 781.3149
1045.719, 775.9712
1046.201, 768.4147
1046.683, 770.9323
1047.166, 787.6899
1047.648, 801.4686
1048.130, 815.0173
1048.612, 815.1307
1049.094, 791.8595
1049.576, 769.3410
1050.058, 768.5349
1050.540, 782.8725
1051.022, 795.8190
1051.505, 807.8423
1051.987, 813.5552
1052.469, 812.5792
1052.951, 806.6490
1053.433, 795.2930
1053.915, 782.6681
1054.397, 769.8912
1054.879, 762.9672
1055.361, 776.8792
1055.844, 808.4830
1056.326, 817.9840
1056.808, 805.5458
1057.290, 798.0828
1057.772, 800.2474
1058.254, 799.9532
1058.736, 790.2637
1059.218, 782.6055
1059.701, 795.0085
1060.183, 819.1548
1060.665, 824.5067
1061.147, 815.1248
1061.629, 813.3039
1062.111, 820.8589
1062.593, 830.1312
1063.075, 837.9754
1063.557, 843.6649
1064.040, 846.7565
1064.522, 846.5626
1065.004, 838.6204
1065.486, 827.5198
1065.968, 824.8475
1066.450, 829.7787
1066.932, 836.6682
1067.414, 843.7437
1067.896, 851.4609
1068.379, 860.4805
1068.861, 868.8372
1069.343, 873.5045
1069.825, 876.7354
1070.307, 884.8862
1070.789, 892.7805
1071.271, 885.9945
1071.753, 867.1956
1072.236, 856.2126
1072.718, 862.2338
1073.200, 875.3159
1073.682, 897.3660
1074.164, 913.6786
1074.646, 905.7729
1075.128, 889.5450
1075.610, 884.2769
1076.093, 888.4056
1076.575, 889.9901
1077.057, 885.5690
1077.539, 888.8563
1078.021, 917.7927
1078.503, 939.8593
1078.985, 933.0312
1079.467, 920.8950
1079.949, 924.8661
1080.432, 934.7841
1080.914, 929.0303
1081.396, 906.4962
1081.878, 894.2230
1082.360, 907.7945
1082.842, 915.3633
1083.324, 902.2431
1083.806, 894.0416
1084.288, 907.6247
1084.771, 927.9180
1085.253, 939.6317
1085.735, 943.6215
1086.217, 943.9526
1086.699, 937.4814
1087.181, 936.3133
1087.663, 946.7412
1088.145, 948.9822
1088.628, 933.1111
1089.110, 916.6832
1089.592, 912.4996
1090.074, 916.5763
1090.556, 921.1644
1091.038, 926.4677
1091.520, 925.3728
1092.002, 916.3491
1092.484, 911.8452
1092.967, 915.0145
1093.449, 912.7992
1093.931, 896.3751
1094.413, 884.4595
1094.895, 904.5751
1095.377, 944.2296
1095.859, 954.4482
1096.341, 939.5436
1096.823, 934.2410
1097.306, 939.8483
1097.788, 937.8232
1098.270, 922.6467
1098.752, 905.3001
1099.234, 893.6171
1099.716, 888.4387
1100.198, 896.0591
1100.680, 908.4366
1101.163, 902.7902
1101.645, 889.4839
1102.127, 904.0135
1102.609, 942.7258
1103.091, 960.3577
1103.573, 934.3980
1104.055, 906.4919
1104.537, 916.7276
1105.020, 934.4966
1105.502, 931.6619
1105.984, 919.9792
1106.466, 910.9340
1106.948, 906.6211
1107.430, 910.3795
1107.912, 921.8828
1108.394, 926.4741
1108.876, 911.6982
1109.359, 898.7939
1109.841, 893.1966
1110.323, 894.6262
1110.805, 911.4109
1111.287, 929.3057
1111.769, 928.7093
1112.251, 912.6470
1112.733, 902.1763
1113.215, 902.6546
1113.698, 899.9211
1114.180, 890.4755
1114.662, 882.7611
1115.144, 879.2449
1115.626, 876.9536
1116.108, 873.2245
1116.590, 870.2455
1117.072, 873.4875
1117.555, 883.0187
1118.037, 880.8863
1118.519, 864.2333
1119.001, 851.7490
1119.483, 845.6104
1119.965, 844.1790
1120.447, 847.2609
1120.929, 851.3433
1121.411, 852.4978
1121.894, 852.6913
1122.376, 859.5104
1122.858, 870.1961
1123.340, 867.0358
1123.822, 852.9515
1124.304, 848.3162
1124.786, 856.7408
1125.268, 867.1020
1125.750, 873.2914
1126.233, 875.2737
1126.715, 870.8147
1127.197, 863.8965
1127.679, 859.6948
1128.161, 857.0809
1128.643, 854.2831
1129.125, 851.3021
1129.607, 849.0459
1130.090, 847.6027
1130.572, 845.4562
1131.054, 841.8681
1131.536, 837.3227
1132.018, 827.0796
1132.500, 821.4514
1132.982, 831.9847
1133.464, 847.8737
1133.947, 858.8132
1134.429, 863.0627
1134.911, 857.5537
1135.393, 836.7927
1135.875, 823.9822
1136.357, 827.5391
1136.839, 829.2373
1137.321, 820.5620
1137.803, 818.3088
1138.286, 839.9772
1138.768, 863.4221
1139.250, 851.7275
1139.732, 810.7014
1140.214, 798.0353
1140.696, 818.7651
1141.178, 828.0108
1141.660, 821.9893
1142.142, 814.4940
1142.625, 809.8569
1143.107, 805.8813
1143.589, 800.7647
1144.071, 795.8402
1144.553, 793.9043
1145.035, 793.8721
1145.517, 791.4734
1145.999, 788.2892
1146.482, 791.6809
1146.964, 799.7745
1147.446, 800.1445
1147.928, 788.7289
1148.410, 777.5390
1148.892, 773.8522
1149.374, 776.7263
1149.856, 793.9834
1150.339, 809.2593
1150.821, 802.2870
1151.303, 784.5839
1151.785, 773.2712
1152.267, 769.6269
1152.749, 767.2999
1153.231, 765.4998
1153.713, 762.0738
1154.195, 753.6097
1154.677, 747.4731
1155.160, 750.5092
1155.642, 751.1154
1156.124, 733.9642
1156.606, 717.1260
1157.088, 732.3804
1157.570, 775.1047
1158.052, 788.7430
1158.534, 766.0607
1159.017, 745.8946
1159.499, 728.9605
1159.981, 723.9682
1160.463, 735.3101
1160.945, 743.4258
1161.427, 733.1521
1161.909, 716.5370
1162.391, 715.4590
1162.874, 724.1069
1163.356, 721.3013
1163.838, 711.5024
1164.320, 710.5606
1164.802, 717.4623
1165.284, 720.0726
1165.766, 714.8474
1166.248, 708.4192
1166.730, 704.8795
1167.213, 702.4222
1167.695, 700.6660
1168.177, 698.1796
1168.659, 688.3545
1169.141, 680.9633
1169.623, 693.5596
1170.105, 718.4677
1170.587, 730.2886
1171.069, 722.9809
1171.552, 716.1584
1172.034, 711.7474
1172.516, 710.2830
1172.998, 718.3460
1173.480, 719.8611
1173.962, 705.7505
1174.444, 684.6522
1174.926, 662.4445
1175.409, 642.9668
1175.891, 643.1217
1176.373, 665.3680
1176.855, 668.5449
1177.337, 651.9693
1177.819, 650.6815
1178.301, 670.7243
1178.783, 686.7807
1179.266, 686.5389
1179.748, 678.2269
1180.230, 668.0818
1180.712, 659.6844
1181.194, 662.1553
1181.676, 668.3309
1182.158, 663.0469
1182.640, 652.6956
1183.122, 657.4000
1183.604, 673.3231
1184.087, 669.3117
1184.569, 629.9320
1185.051, 602.3260
1185.533, 618.3002
1186.015, 636.5521
1186.497, 644.3471
1186.979, 643.4454
1187.461, 626.1328
1187.944, 607.0109
1188.426, 608.2378
1188.908, 626.3470
1189.390, 640.1988
1189.872, 650.8105
1190.354, 652.9991
1190.836, 645.0811
1191.318, 635.6893
1191.801, 626.2775
1192.283, 618.4989
1192.765, 613.2413
1193.247, 610.8954
1193.729, 612.7628
1194.211, 616.6149
1194.693, 616.4210
1195.175, 614.0057
1195.657, 614.0579
1196.140, 616.3588
1196.622, 621.4974
1197.104, 627.4689
1197.586, 624.9041
1198.068, 608.6595
1198.550, 594.3048
1199.032, 589.5610
1199.514, 592.1453
1199.996, 608.6723
1200.479, 623.8173
1200.961, 623.3844
1201.443, 615.2590
1201.925, 610.0434
1202.407, 608.6884
1202.889, 612.5908
1203.371, 625.6202
1203.853, 631.5596
1204.336, 630.0394
1204.818, 621.0097
1205.300, 601.6719
1205.782, 587.4359
1206.264, 586.6691
1206.746, 594.1697
1207.228, 604.7856
1207.710, 617.2057
1208.193, 632.5200
1208.675, 645.4739
1209.157, 634.4393
1209.639, 608.5968
1210.121, 596.6177
1210.603, 600.9947
1211.085, 606.8048
1211.567, 608.1031
1212.049, 611.8920
1212.531, 632.6633
1213.014, 643.2555
1213.496, 615.6573
1213.978, 587.9777
1214.460, 589.4482
1214.942, 604.1683
1215.424, 616.4677
1215.906, 623.1861
1216.388, 614.9597
1216.871, 587.5494
1217.353, 571.9948
1217.835, 571.0571
1218.317, 569.4210
1218.799, 564.0828
1219.281, 565.1343
1219.763, 577.1340
1220.245, 593.2111
1220.728, 608.9554
1221.210, 617.6619
1221.692, 598.6191
1222.174, 569.3440
1222.656, 568.1741
1223.138, 584.2477
1223.620, 596.1848
1224.102, 602.0507
1224.584, 608.8833
1225.067, 617.4662
1225.549, 614.3271
1226.031, 583.8353
1226.513, 560.3612
1226.995, 556.5557
1227.477, 560.6274
1227.959, 573.0786
1228.441, 585.4991
1228.923, 591.0181
1229.406, 593.6277
1229.888, 601.8605
1230.370, 614.0652
1230.852, 608.6646
1231.334, 584.5342
1231.816, 570.3536
1232.298, 567.8901
1232.780, 578.9257
1233.263, 602.2562
1233.745, 620.7166
1234.227, 624.7274
1234.709, 617.5577
1235.191, 594.7471
1235.673, 571.7043
1236.155, 563.2409
1236.637, 565.7155
1237.120, 583.1301
1237.602, 603.7773
1238.084, 610.9877
1238.566, 604.6217
1239.048, 591.2238
1239.530, 566.9196
1240.012, 557.3174
1240.494, 570.7005
1240.976, 585.3304
1241.458, 602.1613
1241.941, 610.7547
1242.423, 605.7782
1242.905, 594.7119
##END=



