##NAMES=Libethenite
##RRUFFID=R050147
##IDEAL CHEMISTRY=Cu^2+^_2_PO_4_(OH)
##LOCALITY=Los Azules mine, Copiapo, Chile
##OWNER=RRUFF
##SOURCE=Jim McGlasson
##DESCRIPTION=Dark green prismatic crystals, associated with smaller lighter green pseudomalachite
##STATUS=The identification of this mineral is confirmed by single-crystal X-ray diffraction and chemical analysis.
##URL=rruff.info/R050147
##MEASURED CHEMISTRY=Cu_2.00_(P_1.00_O_4_)((OH)_0.89_F_0.11_)_Î£=1_
93.46680, 76.39665
93.94891, 75.67204
94.43103, 75.92706
94.91315, 76.75745
95.39526, 76.99400
95.87738, 76.09532
96.35950, 74.35887
96.84161, 72.76704
97.32373, 71.94109
97.80585, 71.30960
98.28796, 70.28441
98.77008, 68.68225
99.25220, 66.98683
99.73431, 65.85743
100.2164, 65.41460
100.6985, 65.02903
101.1807, 64.69509
101.6628, 64.47295
102.1449, 64.46478
102.6270, 64.77779
103.1091, 65.28981
103.5912, 65.24526
104.0734, 63.68959
104.5555, 62.47270
105.0376, 62.15288
105.5197, 62.45108
106.0018, 62.76898
106.4839, 62.60746
106.9661, 61.89908
107.4482, 61.06745
107.9303, 59.76263
108.4124, 58.60126
108.8945, 58.08374
109.3766, 58.22923
109.8588, 58.49638
110.3409, 58.17120
110.8230, 57.14037
111.3051, 56.35295
111.7872, 56.11687
112.2693, 56.15210
112.7515, 55.99006
113.2336, 55.43302
113.7157, 54.83353
114.1978, 54.63899
114.6799, 54.83899
115.1620, 55.09680
115.6442, 55.29619
116.1263, 55.42996
116.6084, 55.29606
117.0905, 54.46679
117.5726, 53.60733
118.0547, 53.19205
118.5369, 53.31081
119.0190, 53.65809
119.5011, 53.80243
119.9832, 53.61327
120.4653, 53.52889
120.9474, 53.57905
121.4296, 53.75637
121.9117, 54.18889
122.3938, 54.93433
122.8759, 55.74504
123.3580, 55.80931
123.8401, 54.07772
124.3223, 52.64279
124.8044, 51.56735
125.2865, 50.92307
125.7686, 50.90387
126.2507, 51.71568
126.7328, 53.24934
127.2150, 53.91000
127.6971, 53.19180
128.1792, 52.32940
128.6613, 51.70889
129.1434, 51.36946
129.6255, 51.36446
130.1077, 51.89728
130.5898, 52.88006
131.0719, 53.41761
131.5540, 53.29926
132.0361, 52.81467
132.5182, 52.15987
133.0004, 51.28226
133.4825, 50.53551
133.9646, 50.32050
134.4467, 50.46073
134.9288, 50.62720
135.4109, 50.72669
135.8931, 50.75123
136.3752, 50.66086
136.8573, 50.37689
137.3394, 50.07224
137.8215, 49.85078
138.3036, 49.69361
138.7858, 49.53930
139.2679, 49.24671
139.7500, 48.75179
140.2321, 48.64254
140.7142, 49.41934
141.1963, 50.19468
141.6785, 50.63787
142.1606, 50.71077
142.6427, 50.55246
143.1248, 50.31304
143.6069, 49.92334
144.0890, 49.61148
144.5712, 49.26912
145.0533, 49.05393
145.5354, 49.13407
146.0175, 49.53847
146.4996, 50.09201
146.9817, 50.48905
147.4639, 50.69918
147.9460, 50.77242
148.4281, 50.56809
148.9102, 50.26823
149.3923, 50.14748
149.8744, 50.34255
150.3566, 50.65478
150.8387, 50.55379
151.3208, 49.84321
151.8029, 49.29865
152.2850, 49.33569
152.7671, 49.79824
153.2493, 50.17574
153.7314, 50.22907
154.2135, 50.10575
154.6956, 50.09118
155.1777, 50.20889
155.6598, 50.38006
156.1420, 50.61157
156.6241, 50.91499
157.1062, 51.03712
157.5883, 50.63979
158.0704, 50.10843
158.5525, 49.76035
159.0347, 49.67057
159.5168, 49.79250
159.9989, 50.11375
160.4810, 50.76789
160.9631, 51.28418
161.4452, 51.53334
161.9274, 51.60321
162.4095, 51.54676
162.8916, 51.37672
163.3737, 51.13067
163.8558, 50.93249
164.3379, 50.81604
164.8201, 50.70839
165.3022, 50.60569
165.7843, 50.50179
166.2664, 50.38039
166.7485, 50.22602
167.2306, 50.05264
167.7128, 49.97791
168.1949, 50.09642
168.6770, 50.21220
169.1591, 50.26321
169.6412, 50.27796
170.1233, 50.33384
170.6055, 50.49807
171.0876, 50.76423
171.5697, 50.86633
172.0518, 50.77930
172.5339, 50.59263
173.0160, 50.22463
173.4982, 49.74156
173.9803, 49.42701
174.4624, 49.55384
174.9445, 50.10980
175.4266, 50.49583
175.9087, 50.61321
176.3909, 50.63128
176.8730, 50.63865
177.3551, 50.63762
177.8372, 50.74364
178.3193, 51.26831
178.8014, 51.99677
179.2836, 52.25371
179.7657, 51.42574
180.2478, 50.20492
180.7299, 49.72932
181.2120, 50.29094
181.6941, 50.84887
182.1763, 50.54424
182.6584, 49.73707
183.1405, 49.06634
183.6226, 48.91372
184.1047, 49.12325
184.5868, 49.17574
185.0690, 48.99615
185.5511, 48.75655
186.0332, 48.59703
186.5153, 48.44920
186.9974, 48.16276
187.4795, 47.54029
187.9617, 46.62664
188.4438, 46.10411
188.9259, 46.54211
189.4080, 46.79782
189.8901, 46.34200
190.3722, 45.40243
190.8544, 44.50452
191.3365, 44.07988
191.8186, 44.15292
192.3007, 44.33445
192.7828, 44.90072
193.2649, 45.31921
193.7471, 45.36898
194.2292, 45.09473
194.7113, 44.65345
195.1934, 44.15865
195.6755, 43.55516
196.1576, 43.26651
196.6398, 43.47911
197.1219, 43.76226
197.6040, 43.95687
198.0861, 44.03275
198.5682, 43.99717
199.0503, 43.84646
199.5325, 43.55604
200.0146, 43.26528
200.4967, 42.95690
200.9788, 42.66003
201.4609, 42.40300
201.9430, 42.18499
202.4252, 41.97462
202.9073, 41.74772
203.3894, 41.50196
203.8715, 41.20954
204.3536, 40.56216
204.8357, 40.03900
205.3179, 40.25069
205.8000, 41.30716
206.2821, 42.45737
206.7642, 43.01205
207.2463, 43.03370
207.7284, 42.81007
208.2106, 42.15535
208.6927, 41.37209
209.1748, 40.87182
209.6569, 40.70860
210.1390, 40.75963
210.6211, 41.10413
211.1033, 41.60823
211.5854, 41.91079
212.0675, 41.75007
212.5496, 41.31086
213.0317, 40.99823
213.5138, 40.84082
213.9960, 40.79190
214.4781, 40.89223
214.9602, 41.06947
215.4423, 41.17391
215.9244, 41.15394
216.4065, 41.00221
216.8886, 40.62329
217.3708, 39.66605
217.8529, 39.04124
218.3350, 39.39162
218.8171, 40.30978
219.2992, 41.02446
219.7813, 40.99432
220.2635, 40.33848
220.7456, 39.85002
221.2277, 39.48895
221.7098, 39.38828
222.1919, 39.83848
222.6740, 40.54190
223.1562, 40.98192
223.6383, 40.74673
224.1204, 39.90694
224.6025, 39.33752
225.0846, 39.30755
225.5667, 39.29952
226.0489, 39.16608
226.5310, 38.97087
227.0131, 38.83305
227.4952, 38.82761
227.9773, 38.95421
228.4594, 39.22570
228.9416, 40.03093
229.4237, 40.57845
229.9058, 40.56173
230.3879, 40.15475
230.8700, 39.65289
231.3521, 39.22889
231.8343, 38.89579
232.3164, 38.88903
232.7985, 39.56136
233.2806, 40.15264
233.7627, 40.51221
234.2448, 40.64079
234.7270, 40.52966
235.2091, 40.13359
235.6912, 39.51198
236.1733, 39.25523
236.6554, 39.52496
237.1375, 39.90119
237.6197, 40.32652
238.1018, 40.76245
238.5839, 41.17231
239.0660, 41.56105
239.5481, 41.88246
240.0302, 41.87434
240.5124, 41.24780
240.9945, 40.67672
241.4766, 40.48537
241.9587, 40.54228
242.4408, 40.46351
242.9229, 39.96774
243.4051, 39.28442
243.8872, 39.18701
244.3693, 40.04087
244.8514, 40.85823
245.3335, 41.16091
245.8156, 41.07768
246.2978, 40.97744
246.7799, 40.97328
247.2620, 41.10648
247.7441, 41.51925
248.2262, 42.47570
248.7083, 43.10742
249.1905, 42.71525
249.6726, 41.57031
250.1547, 40.65898
250.6368, 40.36335
251.1189, 40.45200
251.6010, 40.49309
252.0832, 40.44112
252.5653, 40.53959
253.0474, 41.12280
253.5295, 42.03722
254.0116, 42.57201
254.4937, 42.35287
254.9759, 41.88135
255.4580, 41.81736
255.9401, 42.17922
256.4222, 42.42588
256.9043, 42.09983
257.3864, 41.32359
257.8686, 40.69478
258.3507, 40.19492
258.8328, 40.08323
259.3149, 40.76812
259.7970, 42.13484
260.2791, 43.20353
260.7613, 43.09212
261.2434, 42.03970
261.7255, 41.42645
262.2076, 41.62774
262.6897, 42.01546
263.1718, 42.23059
263.6540, 42.27763
264.1361, 42.18267
264.6182, 41.80580
265.1003, 41.23806
265.5824, 41.04428
266.0645, 41.40811
266.5467, 41.93235
267.0288, 42.58668
267.5109, 43.23337
267.9930, 43.55512
268.4751, 43.18798
268.9572, 42.33749
269.4394, 41.98118
269.9215, 42.47646
270.4036, 42.95087
270.8857, 42.99957
271.3678, 42.81818
271.8499, 42.72462
272.3321, 42.92183
272.8142, 43.30143
273.2963, 43.47913
273.7784, 43.35231
274.2605, 43.17880
274.7426, 42.88733
275.2248, 42.64531
275.7069, 42.66586
276.1890, 43.05748
276.6711, 43.72771
277.1532, 44.49870
277.6353, 45.66180
278.1175, 46.34914
278.5996, 46.23086
279.0817, 45.73439
279.5638, 45.21276
280.0459, 44.79467
280.5280, 44.48827
281.0102, 44.29808
281.4923, 44.19654
281.9744, 44.29421
282.4565, 44.70895
282.9386, 45.22341
283.4207, 45.72076
283.9029, 46.15486
284.3850, 46.47822
284.8671, 46.63866
285.3492, 46.69077
285.8313, 46.41430
286.3134, 45.33708
286.7956, 44.32218
287.2777, 44.04032
287.7598, 44.49011
288.2419, 45.05366
288.7240, 44.92340
289.2061, 43.76095
289.6883, 43.16051
290.1704, 43.83583
290.6525, 44.40309
291.1346, 44.00775
291.6167, 42.81413
292.0988, 41.66426
292.5810, 41.39062
293.0631, 42.10120
293.5452, 42.53245
294.0273, 42.52777
294.5094, 42.40516
294.9915, 42.22165
295.4737, 42.00116
295.9558, 41.76888
296.4379, 41.54930
296.9200, 41.33564
297.4021, 41.03193
297.8842, 40.32400
298.3664, 39.86354
298.8485, 40.04266
299.3306, 40.50945
299.8127, 40.68402
300.2948, 40.21969
300.7769, 39.32444
301.2591, 38.85254
301.7412, 39.41619
302.2233, 39.68626
302.7054, 39.39004
303.1875, 38.80396
303.6696, 38.20246
304.1518, 37.70200
304.6339, 37.28988
305.1160, 36.92778
305.5981, 36.54714
306.0802, 36.34620
306.5623, 36.45306
307.0445, 36.64976
307.5266, 36.78724
308.0087, 36.81787
308.4908, 36.75304
308.9729, 36.61471
309.4550, 36.43578
309.9372, 36.07663
310.4193, 35.23748
310.9014, 34.48147
311.3835, 34.18868
311.8656, 34.35458
312.3477, 34.72869
312.8299, 35.08369
313.3120, 35.44587
313.7941, 35.61671
314.2762, 35.66982
314.7583, 35.49733
315.2404, 34.78755
315.7226, 33.78833
316.2047, 33.09231
316.6868, 33.17627
317.1689, 33.97959
317.6510, 34.54718
318.1331, 34.84000
318.6153, 34.94216
319.0974, 34.75761
319.5795, 34.41162
320.0616, 34.08919
320.5437, 33.88883
321.0258, 33.75957
321.5080, 33.52568
321.9901, 32.98421
322.4722, 32.59875
322.9543, 32.47699
323.4364, 32.48069
323.9185, 32.48620
324.4007, 32.44882
324.8828, 32.38177
325.3649, 32.29803
325.8470, 32.11753
326.3291, 32.08622
326.8112, 32.40380
327.2934, 32.70480
327.7755, 32.66951
328.2576, 32.30173
328.7397, 31.89558
329.2218, 31.77087
329.7039, 31.96906
330.1861, 32.26568
330.6682, 32.89440
331.1503, 33.38964
331.6324, 33.49691
332.1145, 33.29212
332.5966, 32.99469
333.0788, 32.75508
333.5609, 32.57630
334.0430, 32.51406
334.5251, 32.99700
335.0072, 33.12630
335.4893, 32.32149
335.9715, 31.14944
336.4536, 30.49738
336.9357, 30.83734
337.4178, 31.76247
337.8999, 32.02052
338.3820, 31.00471
338.8642, 30.19059
339.3463, 29.66744
339.8284, 29.38998
340.3105, 29.33764
340.7926, 29.49588
341.2747, 29.82736
341.7568, 30.31734
342.2390, 31.11681
342.7211, 31.68709
343.2032, 32.07038
343.6853, 32.22437
344.1674, 32.00471
344.6495, 31.48883
345.1317, 30.94833
345.6138, 30.62350
346.0959, 30.51905
346.5780, 30.54976
347.0601, 30.96219
347.5422, 31.27250
348.0244, 31.21968
348.5065, 30.98319
348.9886, 30.91356
349.4707, 31.25097
349.9528, 31.86629
350.4349, 32.23947
350.9171, 32.34080
351.3992, 32.21474
351.8813, 31.67043
352.3634, 31.03049
352.8455, 30.61665
353.3276, 30.53886
353.8098, 30.67955
354.2919, 30.87511
354.7740, 31.16947
355.2561, 31.38216
355.7382, 31.58983
356.2203, 31.64104
356.7025, 31.31880
357.1846, 30.67545
357.6667, 30.06586
358.1488, 29.91357
358.6309, 30.24560
359.1130, 30.29327
359.5952, 29.59415
360.0773, 29.13444
360.5594, 29.53203
361.0415, 30.45343
361.5236, 31.19853
362.0057, 31.31527
362.4879, 31.00303
362.9700, 30.90935
363.4521, 31.21812
363.9342, 31.33292
364.4163, 30.75518
364.8984, 30.02221
365.3806, 29.70293
365.8627, 29.98612
366.3448, 30.58484
366.8269, 31.33653
367.3090, 32.33192
367.7911, 32.62794
368.2733, 31.30224
368.7554, 29.76210
369.2375, 28.93003
369.7196, 28.85410
370.2017, 29.28238
370.6838, 30.43954
371.1660, 32.06451
371.6481, 32.81226
372.1302, 32.24056
372.6123, 31.38787
373.0944, 30.87374
373.5765, 30.61869
374.0587, 30.45998
374.5408, 30.30645
375.0229, 30.23782
375.5050, 30.49417
375.9871, 31.14110
376.4692, 31.52334
376.9514, 31.06405
377.4335, 30.26688
377.9156, 29.90878
378.3977, 30.20200
378.8798, 30.54837
379.3619, 30.38764
379.8441, 29.87437
380.3262, 29.76927
380.8083, 30.50635
381.2904, 31.33379
381.7725, 31.14468
382.2546, 29.98299
382.7368, 29.07485
383.2189, 28.97906
383.7010, 29.29168
384.1831, 29.45099
384.6652, 29.38969
385.1473, 29.33354
385.6295, 29.56931
386.1116, 29.98556
386.5937, 29.93280
387.0758, 28.79850
387.5579, 27.73142
388.0400, 27.54704
388.5222, 28.03948
389.0043, 28.51801
389.4864, 28.69490
389.9685, 28.60879
390.4506, 28.31110
390.9327, 27.72474
391.4149, 27.14527
391.8970, 26.45951
392.3791, 25.88823
392.8612, 25.76889
393.3433, 26.16012
393.8254, 26.74022
394.3076, 27.16739
394.7897, 27.42898
395.2718, 27.53460
395.7539, 27.31743
396.2360, 27.11041
396.7181, 27.11255
397.2003, 27.28579
397.6824, 27.52569
398.1645, 27.79913
398.6466, 28.03434
399.1287, 27.85843
399.6108, 26.44281
400.0930, 25.62712
400.5751, 26.11836
401.0572, 27.05842
401.5393, 27.51307
402.0214, 27.20563
402.5035, 26.53285
402.9857, 26.06149
403.4678, 25.82985
403.9499, 25.70332
404.4320, 25.68618
404.9141, 25.75286
405.3962, 25.93520
405.8784, 26.19638
406.3605, 26.45584
406.8426, 26.65902
407.3247, 26.80562
407.8068, 26.89330
408.2889, 27.01644
408.7711, 26.92151
409.2532, 26.25953
409.7353, 25.50552
410.2174, 25.23587
410.6995, 25.65328
411.1816, 26.32775
411.6638, 26.64497
412.1459, 26.54763
412.6280, 26.39503
413.1101, 26.14694
413.5922, 25.92846
414.0743, 25.79731
414.5565, 25.75680
415.0386, 25.79721
415.5207, 25.97637
416.0028, 26.23422
416.4849, 26.33450
416.9670, 26.21946
417.4492, 26.09076
417.9313, 26.12712
418.4134, 26.19022
418.8955, 26.06151
419.3776, 25.60038
419.8597, 25.14440
420.3419, 25.03947
420.8240, 25.25522
421.3061, 25.52704
421.7882, 25.83719
422.2703, 26.09698
422.7524, 26.21591
423.2346, 26.20323
423.7167, 26.06333
424.1988, 25.65726
424.6809, 25.18890
425.1630, 24.94544
425.6451, 24.95561
426.1273, 25.05052
426.6094, 25.08677
427.0915, 25.11238
427.5736, 25.34287
428.0557, 26.32131
428.5378, 26.92128
429.0200, 26.21587
429.5021, 24.81445
429.9842, 24.01831
430.4663, 24.32171
430.9484, 25.18818
431.4305, 25.75167
431.9127, 25.85958
432.3948, 26.00797
432.8769, 26.38978
433.3590, 26.66714
433.8411, 26.46213
434.3232, 25.87117
434.8054, 25.38543
435.2875, 25.41417
435.7696, 25.88869
436.2517, 26.08372
436.7338, 25.76864
437.2159, 25.43213
437.6981, 25.01816
438.1802, 24.67405
438.6623, 24.64803
439.1444, 24.99382
439.6265, 25.38942
440.1086, 25.24536
440.5908, 24.21988
441.0729, 23.78532
441.5550, 24.66835
442.0371, 25.47979
442.5192, 25.50363
443.0013, 24.95102
443.4835, 24.44867
443.9656, 24.39083
444.4477, 24.67460
444.9298, 25.00947
445.4119, 25.44981
445.8940, 25.80485
446.3762, 26.10760
446.8583, 26.24619
447.3404, 25.97700
447.8225, 25.24225
448.3046, 24.62036
448.7867, 24.74133
449.2689, 25.45874
449.7510, 25.99605
450.2331, 26.27307
450.7152, 26.31181
451.1973, 25.90576
451.6794, 25.25725
452.1616, 24.92252
452.6437, 25.38268
453.1258, 25.95246
453.6079, 25.86182
454.0900, 25.22148
454.5721, 24.78039
455.0543, 24.91976
455.5364, 25.35049
456.0185, 25.44790
456.5006, 25.09873
456.9827, 24.92381
457.4648, 25.22698
457.9470, 25.68124
458.4291, 25.91476
458.9112, 25.89716
459.3933, 25.86865
459.8754, 26.03574
460.3575, 26.39175
460.8397, 26.67180
461.3218, 26.94705
461.8039, 27.07940
462.2860, 26.97936
462.7681, 26.73380
463.2502, 26.40964
463.7324, 26.04143
464.2145, 25.73117
464.6966, 25.67377
465.1787, 26.02295
465.6608, 26.15802
466.1429, 25.95563
466.6251, 25.67217
467.1072, 25.33201
467.5893, 25.00315
468.0714, 24.81395
468.5535, 24.86614
469.0356, 25.07063
469.5178, 25.17572
469.9999, 25.17224
470.4820, 25.09209
470.9641, 24.82050
471.4462, 24.55539
471.9283, 24.44144
472.4105, 24.49669
472.8926, 24.65835
473.3747, 24.95761
473.8568, 25.33504
474.3389, 25.58054
474.8210, 25.69702
475.3032, 25.63156
475.7853, 25.19828
476.2674, 24.57688
476.7495, 24.12023
477.2316, 23.92519
477.7137, 23.84232
478.1959, 23.79842
478.6780, 23.78725
479.1601, 23.78261
479.6422, 23.77024
480.1243, 23.78852
480.6064, 23.88654
481.0886, 24.07067
481.5707, 24.31429
482.0528, 24.70886
482.5349, 25.08220
483.0170, 25.39877
483.4991, 25.60287
483.9813, 25.50122
484.4634, 24.94587
484.9455, 24.16924
485.4276, 23.86769
485.9097, 24.47828
486.3918, 24.94941
486.8740, 25.36775
487.3561, 25.57580
487.8382, 25.32345
488.3203, 24.69384
488.8024, 24.09554
489.2845, 23.88967
489.7667, 24.03226
490.2488, 24.07077
490.7309, 23.94678
491.2130, 23.81042
491.6951, 23.75358
492.1772, 23.68157
492.6594, 23.43154
493.1415, 22.96244
493.6236, 22.57153
494.1057, 22.61836
494.5878, 23.05101
495.0699, 23.43475
495.5521, 23.73573
496.0342, 23.95799
496.5163, 24.14739
496.9984, 24.26298
497.4805, 24.16284
497.9626, 23.56606
498.4448, 23.02654
498.9269, 23.15179
499.4090, 23.74838
499.8911, 24.09697
500.3732, 23.91730
500.8553, 23.51085
501.3375, 23.30139
501.8196, 23.33051
502.3017, 23.34684
502.7838, 23.25402
503.2659, 23.21376
503.7480, 23.38905
504.2302, 23.71655
504.7123, 24.04972
505.1944, 24.32777
505.6765, 24.45356
506.1586, 24.09475
506.6407, 22.44923
507.1228, 21.64344
507.6049, 22.39677
508.0871, 23.39732
508.5692, 23.70954
509.0513, 23.36413
509.5334, 22.98135
510.0155, 23.04931
510.4977, 23.47323
510.9798, 23.80626
511.4619, 24.07207
511.9440, 24.19214
512.4261, 24.09551
512.9083, 23.87208
513.3904, 23.49418
513.8725, 22.95706
514.3546, 22.63675
514.8367, 23.03820
515.3188, 23.86032
515.8010, 24.22294
516.2831, 23.99405
516.7652, 23.55315
517.2473, 22.96092
517.7294, 22.38594
518.2115, 22.35368
518.6937, 23.38251
519.1758, 24.21408
519.6579, 23.99403
520.1400, 23.29572
520.6221, 23.17675
521.1042, 23.87287
521.5864, 24.58552
522.0685, 24.39017
522.5506, 23.15512
523.0327, 22.40851
523.5148, 22.22295
523.9969, 22.34797
524.4791, 23.13608
524.9612, 24.03590
525.4433, 24.15789
525.9254, 23.22471
526.4075, 21.99280
526.8896, 21.65760
527.3718, 22.42657
527.8539, 23.01456
528.3360, 23.47205
528.8181, 23.64394
529.3002, 23.20918
529.7823, 22.49683
530.2645, 22.13604
530.7466, 22.45603
531.2287, 23.01646
531.7108, 23.27505
532.1929, 23.24786
532.6750, 23.14860
533.1572, 22.93862
533.6393, 22.82009
534.1214, 23.20047
534.6035, 23.96817
535.0856, 24.32697
535.5677, 23.68407
536.0499, 22.95215
536.5320, 22.88950
537.0141, 23.31945
537.4962, 23.65426
537.9783, 23.64668
538.4604, 23.43282
538.9426, 23.23632
539.4247, 23.01567
539.9068, 22.93118
540.3889, 22.95243
540.8710, 23.12555
541.3531, 23.68793
541.8353, 24.40864
542.3174, 24.73668
542.7995, 24.33798
543.2816, 23.62006
543.7637, 23.58307
544.2458, 24.53135
544.7280, 25.14250
545.2101, 25.02300
545.6922, 24.69582
546.1743, 24.25094
546.6564, 23.80921
547.1385, 23.73399
547.6207, 24.51399
548.1028, 25.48273
548.5849, 25.43851
549.0670, 24.42963
549.5491, 23.82127
550.0313, 24.25085
550.5134, 25.07373
550.9955, 25.32204
551.4776, 24.99575
551.9597, 24.63763
552.4418, 24.22226
552.9240, 23.91416
553.4061, 23.94020
553.8882, 24.19884
554.3703, 24.37504
554.8524, 24.31150
555.3345, 24.05519
555.8167, 23.67264
556.2988, 22.79104
556.7809, 22.54694
557.2630, 23.54713
557.7451, 24.53518
558.2272, 24.69351
558.7094, 24.26400
559.1915, 24.01007
559.6736, 24.40842
560.1557, 25.09303
560.6378, 25.29867
561.1199, 24.97039
561.6021, 24.48339
562.0842, 23.67957
562.5663, 22.99955
563.0484, 22.75690
563.5305, 22.92927
564.0126, 23.37683
564.4948, 24.36220
564.9769, 25.36677
565.4590, 25.80659
565.9411, 25.77195
566.4232, 25.70708
566.9053, 25.79770
567.3875, 25.86379
567.8696, 25.56691
568.3517, 24.66739
568.8338, 24.26217
569.3159, 24.96514
569.7980, 25.56095
570.2802, 25.18473
570.7623, 24.25165
571.2444, 23.68279
571.7265, 23.90592
572.2086, 24.50063
572.6907, 24.64378
573.1729, 24.12398
573.6550, 24.02625
574.1371, 24.96138
574.6192, 25.72715
575.1013, 25.65876
575.5834, 25.04693
576.0656, 24.48297
576.5477, 24.15841
577.0298, 24.02814
577.5119, 24.12097
577.9940, 24.39029
578.4761, 24.58994
578.9583, 24.65901
579.4404, 24.66891
579.9225, 24.67315
580.4046, 24.67375
580.8867, 24.69586
581.3688, 24.87316
581.8510, 24.92575
582.3331, 24.61677
582.8152, 24.14791
583.2973, 23.84090
583.7794, 23.77752
584.2615, 23.75857
584.7437, 23.52880
585.2258, 23.06514
585.7079, 22.80368
586.1900, 22.86348
586.6721, 22.98553
587.1542, 23.19095
587.6363, 23.38032
588.1184, 23.35947
588.6005, 23.09966
589.0826, 22.98791
589.5648, 23.68613
590.0469, 24.84612
590.5290, 25.02919
591.0111, 23.96775
591.4932, 22.86923
591.9753, 22.32585
592.4575, 22.26102
592.9396, 22.46490
593.4217, 23.10872
593.9038, 23.57192
594.3859, 23.58353
594.8680, 23.36752
595.3502, 23.00969
595.8323, 22.61362
596.3144, 22.53111
596.7965, 23.05052
597.2786, 23.95658
597.7607, 24.46732
598.2429, 24.49435
598.7250, 24.26509
599.2071, 23.42596
599.6892, 22.68757
600.1713, 22.65526
600.6534, 23.14218
601.1356, 23.43453
601.6177, 22.99969
602.0998, 22.32051
602.5819, 22.34977
603.0640, 23.08781
603.5461, 23.55250
604.0283, 23.42143
604.5104, 23.02825
604.9925, 22.56516
605.4746, 22.06618
605.9567, 22.05574
606.4388, 23.24558
606.9210, 24.29941
607.4031, 24.17233
607.8852, 23.40731
608.3673, 23.10460
608.8494, 23.59492
609.3315, 24.35148
609.8137, 24.70630
610.2958, 24.62032
610.7779, 24.53940
611.2600, 24.44363
611.7421, 24.37912
612.2242, 24.39310
612.7064, 24.42513
613.1885, 24.35709
613.6706, 24.17412
614.1527, 24.10082
614.6348, 24.50318
615.1169, 25.16172
615.5991, 25.32573
616.0812, 24.89733
616.5633, 24.51476
617.0454, 24.56622
617.5275, 24.83402
618.0096, 24.82012
618.4918, 24.46101
618.9739, 24.07714
619.4560, 23.51499
619.9381, 23.12248
620.4202, 23.42044
620.9023, 24.16855
621.3845, 24.55028
621.8666, 24.09993
622.3487, 23.24318
622.8308, 22.93433
623.3129, 23.32931
623.7950, 23.78379
624.2772, 24.43615
624.7593, 24.96872
625.2414, 25.26251
625.7235, 25.32700
626.2056, 25.14115
626.6877, 24.60495
627.1699, 24.09178
627.6520, 24.00693
628.1341, 24.24298
628.6162, 24.49960
629.0983, 24.74124
629.5804, 24.83930
630.0626, 24.58989
630.5447, 24.08801
631.0268, 24.08429
631.5089, 25.13660
631.9910, 25.86068
632.4731, 25.94349
632.9553, 25.67414
633.4374, 25.18937
633.9195, 24.59502
634.4016, 24.07517
634.8837, 23.74376
635.3658, 23.62331
635.8480, 23.90607
636.3301, 24.78115
636.8122, 25.22733
637.2943, 24.69747
637.7764, 24.00744
638.2585, 23.81578
638.7407, 24.03960
639.2228, 24.28295
639.7049, 24.46017
640.1870, 24.58158
640.6691, 24.65481
641.1512, 24.67788
641.6334, 24.61575
642.1155, 24.46140
642.5976, 24.33947
643.0797, 24.40656
643.5618, 24.66234
644.0439, 24.73323
644.5261, 24.37537
645.0082, 24.13346
645.4903, 24.17384
645.9724, 24.30256
646.4545, 24.39517
646.9366, 24.40808
647.4188, 24.26220
647.9009, 23.66924
648.3830, 23.00564
648.8651, 23.35934
649.3472, 24.76276
649.8293, 25.65694
650.3115, 25.37333
650.7936, 24.60197
651.2757, 24.15907
651.7578, 24.04273
652.2399, 24.14388
652.7220, 24.86685
653.2042, 25.36734
653.6863, 24.98793
654.1684, 24.19385
654.6505, 23.71248
655.1326, 23.74050
655.6147, 23.98553
656.0969, 24.16144
656.5790, 24.26522
657.0611, 24.19715
657.5432, 23.75458
658.0253, 23.57053
658.5074, 24.32363
658.9896, 25.14277
659.4717, 25.09711
659.9538, 24.16189
660.4359, 23.48915
660.9180, 23.97019
661.4001, 24.66922
661.8823, 24.48432
662.3644, 23.63501
662.8465, 22.95995
663.3286, 22.76972
663.8107, 22.91895
664.2928, 23.23761
664.7750, 23.76554
665.2571, 24.20078
665.7392, 24.64835
666.2213, 24.87625
666.7034, 24.67164
667.1855, 24.30540
667.6677, 24.04583
668.1498, 23.95038
668.6319, 23.95959
669.1140, 24.03646
669.5961, 24.18077
670.0782, 24.48211
670.5604, 24.94050
671.0425, 25.09620
671.5246, 24.64832
672.0067, 24.02732
672.4888, 23.96323
672.9709, 24.66590
673.4531, 24.79167
673.9352, 23.61399
674.4173, 22.61911
674.8994, 22.42827
675.3815, 22.84912
675.8636, 23.79552
676.3458, 25.13728
676.8279, 26.25524
677.3100, 26.44997
677.7921, 25.83301
678.2742, 25.07409
678.7563, 24.09037
679.2385, 23.24868
679.7206, 22.55322
680.2027, 22.18945
680.6848, 22.44351
681.1669, 23.31977
681.6490, 24.21301
682.1312, 25.32401
682.6133, 26.06892
683.0954, 25.69585
683.5775, 24.74167
684.0596, 24.35968
684.5417, 24.86982
685.0239, 25.47971
685.5060, 25.19702
685.9881, 24.06781
686.4702, 23.61027
686.9523, 24.27288
687.4344, 24.74479
687.9166, 24.36146
688.3987, 23.82985
688.8808, 23.72610
689.3629, 24.06796
689.8450, 24.52942
690.3271, 25.25096
690.8093, 25.80018
691.2914, 25.55656
691.7735, 24.79591
692.2556, 24.29578
692.7377, 24.29023
693.2198, 24.47807
693.7020, 24.51742
694.1841, 24.41082
694.6662, 24.53977
695.1483, 25.31491
695.6304, 25.71328
696.1125, 25.29897
696.5947, 24.67162
697.0768, 24.23749
697.5589, 24.05267
698.0410, 24.07326
698.5231, 24.33486
699.0052, 24.72786
699.4874, 25.21076
699.9695, 25.72501
700.4516, 26.06938
700.9337, 26.20395
701.4158, 25.98693
701.8979, 25.13964
702.3801, 23.74047
702.8622, 23.11242
703.3443, 23.89046
703.8264, 24.62408
704.3085, 25.39767
704.7906, 25.91040
705.2728, 25.68573
705.7549, 24.96189
706.2370, 24.60877
706.7191, 25.28216
707.2012, 26.18569
707.6833, 26.05462
708.1655, 25.09242
708.6476, 24.40621
709.1297, 24.19666
709.6118, 24.33448
710.0939, 24.85111
710.5760, 25.61724
711.0582, 25.91607
711.5403, 25.21807
712.0224, 24.83549
712.5045, 25.12175
712.9866, 25.52893
713.4688, 25.71445
713.9509, 25.68905
714.4330, 25.55593
714.9151, 25.34676
715.3972, 25.16387
715.8793, 25.13486
716.3615, 25.25192
716.8436, 25.50126
717.3257, 25.90897
717.8078, 26.29226
718.2899, 26.55176
718.7720, 26.69985
719.2542, 26.77285
719.7363, 26.81049
720.2184, 26.68457
720.7005, 26.16259
721.1826, 25.68998
721.6647, 25.59624
722.1469, 25.72633
722.6290, 25.72756
723.1111, 25.47860
723.5932, 25.27019
724.0753, 25.60586
724.5574, 26.31322
725.0396, 26.32360
725.5217, 25.47469
726.0038, 24.95101
726.4859, 25.39701
726.9680, 26.28957
727.4501, 26.80927
727.9323, 26.92138
728.4144, 26.90943
728.8965, 26.69790
729.3786, 26.46636
729.8607, 26.23002
730.3428, 26.05252
730.8250, 26.07669
731.3071, 26.29206
731.7892, 26.44213
732.2713, 26.25278
732.7534, 25.85675
733.2355, 25.60516
733.7177, 25.49529
734.1998, 25.61385
734.6819, 26.05746
735.1640, 26.59510
735.6461, 27.02749
736.1282, 27.34676
736.6104, 27.51041
737.0925, 27.58821
737.5746, 27.42313
738.0567, 26.74971
738.5388, 25.97906
739.0209, 25.37752
739.5031, 25.03703
739.9852, 25.09131
740.4673, 25.70476
740.9494, 26.48016
741.4315, 26.67920
741.9136, 26.36096
742.3958, 26.22120
742.8779, 26.39310
743.3600, 26.59711
743.8421, 26.61669
744.3242, 26.53594
744.8063, 26.65174
745.2885, 27.07911
745.7706, 27.44404
746.2527, 27.85285
746.7348, 28.06031
747.2169, 27.74532
747.6990, 27.16468
748.1812, 26.79714
748.6633, 26.81172
749.1454, 26.94102
749.6275, 26.91729
750.1096, 26.77908
750.5917, 26.62294
751.0739, 26.44754
751.5560, 26.39072
752.0381, 26.52256
752.5202, 26.77875
753.0023, 27.12319
753.4844, 27.62500
753.9666, 27.73948
754.4487, 27.07238
754.9308, 26.53924
755.4129, 26.50240
755.8950, 26.65235
756.3771, 26.59693
756.8593, 26.35499
757.3414, 26.33837
757.8235, 26.93746
758.3056, 27.74216
758.7877, 28.15423
759.2698, 28.22941
759.7520, 28.18599
760.2341, 28.05976
760.7162, 27.94333
761.1983, 27.90390
761.6804, 27.94043
762.1625, 28.05938
762.6447, 28.53382
763.1268, 28.63190
763.6089, 27.82220
764.0910, 27.16914
764.5731, 27.44854
765.0552, 28.24338
765.5374, 28.72664
766.0195, 28.63423
766.5016, 28.29779
766.9837, 27.76724
767.4658, 27.25068
767.9479, 27.13488
768.4301, 27.39316
768.9122, 27.77143
769.3943, 28.17529
769.8764, 28.48005
770.3585, 28.45156
770.8406, 28.03408
771.3228, 27.88734
771.8049, 28.29467
772.2870, 28.52232
772.7691, 28.05413
773.2512, 27.56514
773.7333, 27.75743
774.2155, 28.56731
774.6976, 29.23172
775.1797, 29.34271
775.6618, 29.34563
776.1439, 29.64019
776.6260, 29.99991
777.1082, 29.99329
777.5903, 29.60412
778.0724, 29.22610
778.5545, 29.15457
779.0366, 29.24806
779.5187, 29.05705
780.0009, 28.47009
780.4830, 28.35096
780.9651, 29.11814
781.4472, 29.75017
781.9293, 29.39435
782.4114, 28.58017
782.8936, 28.38707
783.3757, 29.08133
783.8578, 29.51111
784.3399, 29.10886
784.8220, 28.63626
785.3041, 28.58003
785.7863, 28.82970
786.2684, 29.22680
786.7505, 29.68406
787.2326, 29.95605
787.7147, 29.68138
788.1968, 29.08599
788.6790, 28.91720
789.1611, 29.18168
789.6432, 29.55727
790.1253, 30.04178
790.6074, 30.35337
791.0895, 30.13292
791.5717, 29.44588
792.0538, 29.06668
792.5359, 29.33837
793.0180, 29.41488
793.5001, 28.98309
793.9822, 28.55014
794.4644, 28.42229
794.9465, 28.57215
795.4286, 28.91864
795.9107, 29.47363
796.3928, 29.92550
796.8749, 29.94439
797.3571, 29.69306
797.8392, 29.40907
798.3213, 29.13644
798.8034, 29.02374
799.2855, 29.13620
799.7676, 29.41576
800.2498, 29.82746
800.7319, 30.39529
801.2140, 30.59190
801.6961, 30.14276
802.1782, 29.81799
802.6603, 29.90777
803.1425, 30.12653
803.6246, 30.36173
804.1067, 30.56012
804.5888, 30.49264
805.0709, 29.71155
805.5530, 29.20049
806.0352, 29.80109
806.5173, 30.74566
806.9994, 31.10566
807.4815, 30.90174
807.9636, 30.67151
808.4457, 30.70538
808.9279, 30.57126
809.4100, 30.79772
809.8921, 30.58897
810.3742, 30.56466
810.8563, 30.75343
811.3384, 31.09784
811.8206, 31.75515
812.3027, 32.29746
812.7848, 31.93430
813.2669, 30.44157
813.7490, 29.66931
814.2311, 30.26336
814.7133, 30.74216
815.1954, 30.47776
815.6775, 30.09471
816.1596, 30.28827
816.6417, 30.95958
817.1238, 31.44415
817.6060, 31.35843
818.0881, 31.08986
818.5702, 31.01379
819.0523, 31.06185
819.5344, 31.09363
820.0165, 31.09234
820.4987, 31.05842
820.9808, 30.97958
821.4629, 30.95457
821.9450, 31.22512
822.4271, 31.88546
822.9092, 32.14129
823.3914, 31.80788
823.8735, 31.41967
824.3556, 30.95230
824.8377, 30.67633
825.3198, 31.08979
825.8019, 32.11336
826.2841, 32.60445
826.7662, 31.87464
827.2483, 31.13591
827.7304, 30.73495
828.2125, 30.69486
828.6946, 31.31586
829.1768, 32.33448
829.6589, 32.92626
830.1410, 32.62415
830.6231, 31.88417
831.1052, 31.13155
831.5873, 30.45649
832.0695, 30.35781
832.5516, 30.87424
833.0337, 31.22296
833.5158, 31.00911
833.9979, 30.58413
834.4800, 30.46779
834.9622, 30.68845
835.4443, 30.91068
835.9264, 31.16146
836.4085, 31.37030
836.8906, 31.48562
837.3727, 31.58854
837.8549, 31.77764
838.3370, 32.01377
838.8191, 32.14272
839.3012, 32.08509
839.7833, 31.98733
840.2654, 31.94178
840.7476, 31.88972
841.2297, 31.74493
841.7118, 31.53384
842.1939, 31.30201
842.6760, 31.07498
843.1581, 31.01357
843.6403, 31.51155
844.1224, 32.37569
844.6045, 32.45901
845.0866, 31.70163
845.5687, 31.19795
846.0508, 31.36420
846.5330, 31.62240
847.0151, 31.28035
847.4972, 31.62933
847.9793, 32.00859
848.4614, 31.83049
848.9435, 32.70346
849.4257, 32.57033
849.9078, 32.09650
850.3899, 31.52709
850.8720, 30.92254
851.3541, 30.25557
851.8362, 29.46686
852.3184, 29.08668
852.8005, 29.72915
853.2826, 30.63037
853.7647, 31.16490
854.2468, 31.35275
854.7289, 31.24280
855.2111, 30.88663
855.6932, 30.45461
856.1753, 30.03391
856.6574, 29.74817
857.1395, 30.08921
857.6216, 31.05215
858.1038, 31.53230
858.5859, 31.27333
859.0680, 30.96737
859.5501, 31.08699
860.0322, 31.41664
860.5143, 31.41816
860.9965, 30.88125
861.4786, 30.66463
861.9607, 31.35563
862.4428, 31.63284
862.9249, 30.56515
863.4070, 29.27706
863.8892, 29.00733
864.3713, 29.72419
864.8534, 30.39185
865.3355, 30.63882
865.8176, 30.69177
866.2997, 30.63361
866.7819, 30.50534
867.2640, 30.28707
867.7461, 30.04434
868.2282, 29.98292
868.7103, 30.20382
869.1924, 30.55299
869.6746, 30.93015
870.1567, 31.27043
870.6388, 31.21536
871.1209, 30.75448
871.6030, 30.08035
872.0851, 29.16441
872.5673, 28.41202
873.0494, 28.35616
873.5315, 28.87634
874.0136, 28.75104
874.4957, 27.18358
874.9778, 26.44152
875.4600, 27.58258
875.9421, 28.69688
876.4242, 28.67589
876.9063, 28.09271
877.3884, 28.02225
877.8705, 28.70946
878.3527, 29.18007
878.8348, 28.92615
879.3169, 28.52750
879.7990, 28.33547
880.2811, 28.26205
880.7632, 28.17208
881.2454, 28.03651
881.7275, 27.85460
882.2096, 27.58134
882.6917, 27.38631
883.1738, 27.59359
883.6559, 28.08264
884.1381, 28.53947
884.6202, 28.90859
885.1023, 28.87337
885.5844, 28.22772
886.0665, 27.43928
886.5486, 27.26403
887.0308, 27.71820
887.5129, 27.96144
887.9950, 28.02333
888.4771, 27.77406
888.9592, 26.96041
889.4413, 26.08858
889.9235, 25.47504
890.4056, 25.14944
890.8877, 25.25823
891.3698, 26.22816
891.8519, 26.80021
892.3340, 26.49299
892.8162, 26.05465
893.2983, 25.87449
893.7804, 25.84979
894.2625, 25.79410
894.7446, 25.67266
895.2267, 25.57186
895.7089, 25.58829
896.1910, 25.60333
896.6731, 25.49769
897.1552, 25.30927
897.6373, 25.06360
898.1194, 24.79569
898.6016, 24.64524
899.0837, 24.70236
899.5658, 24.78176
900.0479, 24.50076
900.5300, 23.93121
901.0121, 23.67898
901.4943, 23.76901
901.9764, 24.02001
902.4585, 24.39682
902.9406, 24.82569
903.4227, 25.23742
903.9048, 25.63177
904.3870, 26.01643
904.8691, 26.60439
905.3512, 26.74512
905.8333, 25.99290
906.3154, 25.23365
906.7975, 24.91287
907.2797, 24.84409
907.7618, 24.80569
908.2439, 24.80383
908.7260, 24.56075
909.2081, 23.61231
909.6902, 22.87619
910.1724, 22.89805
910.6545, 23.29295
911.1366, 23.79772
911.6187, 24.26364
912.1008, 24.42655
912.5829, 24.11901
913.0651, 23.69524
913.5472, 23.50310
914.0293, 23.39939
914.5114, 23.06660
914.9935, 22.59319
915.4756, 22.40793
915.9578, 22.62634
916.4398, 22.81309
916.9219, 22.49500
917.4041, 21.86788
917.8862, 21.54024
918.3683, 21.51336
918.8504, 21.73605
919.3325, 22.27546
919.8146, 22.63247
920.2968, 22.41856
920.7789, 22.03089
921.2610, 22.26067
921.7431, 23.25423
922.2252, 23.96215
922.7073, 24.49925
923.1895, 24.56376
923.6716, 23.44625
924.1537, 22.38678
924.6358, 22.57268
925.1179, 23.56795
925.6000, 23.86604
926.0822, 22.93484
926.5643, 22.15653
927.0464, 21.75710
927.5285, 21.73014
928.0106, 22.34441
928.4927, 23.18974
928.9749, 23.71684
929.4570, 23.84542
929.9391, 23.82662
930.4212, 23.75334
930.9033, 23.66123
931.3854, 23.63114
931.8676, 23.57887
932.3497, 23.25164
932.8318, 22.75524
933.3139, 22.58688
933.7960, 22.95467
934.2781, 23.43917
934.7603, 23.55806
935.2424, 23.39038
935.7245, 23.12288
936.2066, 22.77730
936.6887, 22.61916
937.1708, 22.70911
937.6530, 22.97660
938.1351, 23.42809
938.6172, 23.88842
939.0993, 23.87580
939.5814, 23.27622
940.0635, 22.81349
940.5457, 22.43814
941.0278, 22.34237
941.5099, 22.81068
941.9920, 23.30783
942.4741, 23.18206
942.9562, 22.52271
943.4384, 22.23584
943.9205, 22.89303
944.4026, 23.03357
944.8847, 21.94416
945.3668, 21.03419
945.8489, 21.14712
946.3311, 21.77890
946.8132, 22.20521
947.2953, 22.34655
947.7774, 22.60738
948.2595, 23.41418
948.7416, 24.02436
949.2238, 23.74057
949.7059, 23.31813
950.1880, 23.68693
950.6701, 24.58027
951.1522, 25.11036
951.6343, 24.95727
952.1165, 24.58448
952.5986, 24.14129
953.0807, 23.87310
953.5628, 24.32210
954.0449, 25.16735
954.5270, 25.63398
955.0092, 25.61005
955.4913, 25.41699
955.9734, 25.23959
956.4555, 25.14842
956.9376, 25.40441
957.4197, 25.87345
957.9019, 25.65060
958.3840, 24.73996
958.8661, 24.45995
959.3482, 25.28266
959.8303, 26.28726
960.3124, 26.60872
960.7946, 26.39599
961.2767, 26.17276
961.7588, 25.86432
962.2409, 25.99601
962.7230, 26.85348
963.2051, 27.44775
963.6873, 27.14842
964.1694, 26.63732
964.6515, 26.93558
965.1336, 28.04179
965.6157, 28.35479
966.0978, 27.01629
966.5800, 26.23035
967.0621, 26.59048
967.5442, 27.06259
968.0263, 27.10876
968.5084, 26.93762
968.9905, 26.93890
969.4727, 27.16883
969.9548, 27.18591
970.4369, 26.80630
970.9190, 26.31189
971.4011, 25.68439
971.8832, 25.09467
972.3654, 24.69414
972.8475, 24.45551
973.3296, 24.29088
973.8117, 24.18151
974.2938, 24.07038
974.7759, 23.94208
975.2581, 23.78027
975.7402, 23.52180
976.2223, 23.24585
976.7044, 22.98074
977.1865, 22.80782
977.6686, 23.05518
978.1508, 23.96503
978.6329, 24.77771
979.1150, 24.50118
979.5971, 23.65856
980.0792, 23.08529
980.5613, 22.81079
981.0435, 22.90750
981.5256, 23.32721
982.0077, 23.55003
982.4898, 23.13401
982.9719, 23.37095
983.4540, 22.49547
983.9362, 23.01166
984.4183, 22.95048
984.9004, 22.27271
985.3825, 21.81240
985.8646, 21.87188
986.3467, 22.16073
986.8289, 22.41556
987.3110, 22.62271
987.7931, 22.74697
988.2752, 22.80231
988.7573, 22.59525
989.2394, 21.98256
989.7216, 21.62771
990.2037, 21.94319
990.6858, 22.40442
991.1679, 22.27965
991.6500, 21.62043
992.1321, 21.43025
992.6143, 21.92385
993.0964, 22.42042
993.5785, 23.08953
994.0606, 23.41251
994.5427, 22.94344
995.0248, 22.08468
995.5070, 21.32768
995.9891, 20.64440
996.4712, 20.50325
996.9533, 21.62670
997.4354, 22.27215
997.9175, 21.65400
998.3997, 21.02107
998.8818, 21.29220
999.3639, 21.99125
999.8460, 22.24378
1000.328, 21.92166
1000.810, 21.57318
1001.292, 21.20101
1001.774, 20.99517
1002.257, 21.05621
1002.739, 21.29299
1003.221, 21.81805
1003.703, 22.40656
1004.185, 22.51647
1004.667, 21.98138
1005.149, 21.60183
1005.631, 21.98648
1006.114, 22.43340
1006.596, 22.45976
1007.078, 22.26728
1007.560, 22.00190
1008.042, 21.77441
1008.524, 21.83736
1009.006, 22.30478
1009.488, 22.68303
1009.970, 22.55587
1010.453, 22.15930
1010.935, 21.46747
1011.417, 20.82341
1011.899, 21.04312
1012.381, 21.98760
1012.863, 22.61493
1013.345, 22.38937
1013.827, 21.88646
1014.310, 21.65259
1014.792, 21.63256
1015.274, 21.81498
1015.756, 22.10925
1016.238, 22.24234
1016.720, 22.17820
1017.202, 22.11098
1017.684, 22.17055
1018.166, 22.14676
1018.649, 21.45059
1019.131, 21.76719
1019.613, 20.66043
1020.095, 21.91428
1020.577, 22.75694
1021.059, 22.85371
1021.541, 22.47005
1022.023, 21.72912
1022.505, 20.96776
1022.988, 20.89404
1023.470, 21.44596
1023.952, 21.94809
1024.434, 22.40491
1024.916, 22.19558
1025.398, 21.07177
1025.880, 20.13360
1026.362, 20.27162
1026.845, 21.01111
1027.327, 21.19898
1027.809, 20.78126
1028.291, 20.60932
1028.773, 20.71369
1029.255, 20.91448
1029.737, 21.20494
1030.219, 21.42376
1030.702, 21.40686
1031.184, 21.26204
1031.666, 21.31892
1032.148, 21.28480
1032.630, 21.18604
1033.112, 21.34169
1033.594, 21.08895
1034.076, 21.16585
1034.558, 21.28663
1035.041, 21.17344
1035.523, 20.94851
1036.005, 21.00468
1036.487, 21.44745
1036.969, 21.81742
1037.451, 22.32658
1037.933, 22.31711
1038.415, 21.07649
1038.897, 19.96311
1039.380, 20.39757
1039.862, 21.76864
1040.344, 21.96923
1040.826, 20.24717
1041.308, 19.60007
1041.790, 21.26795
1042.272, 22.21982
1042.754, 20.90062
1043.237, 19.33722
1043.719, 19.19124
1044.201, 20.04428
1044.683, 20.74366
1045.165, 21.37387
1045.647, 21.52625
1046.129, 20.66398
1046.611, 20.01651
1047.094, 20.22498
1047.576, 20.48020
1048.058, 19.90987
1048.540, 18.91046
1049.022, 18.61991
1049.504, 19.31525
1049.986, 19.96588
1050.468, 20.63090
1050.950, 20.97982
1051.432, 20.68372
1051.915, 20.23603
1052.397, 20.00846
1052.879, 19.95120
1053.361, 19.83073
1053.843, 19.53940
1054.325, 19.62780
1054.807, 20.86011
1055.289, 21.65067
1055.772, 21.00277
1056.254, 20.06629
1056.736, 19.79431
1057.218, 19.97728
1057.700, 19.95984
1058.182, 19.58743
1058.664, 19.46650
1059.146, 20.10068
1059.629, 20.58154
1060.111, 20.44721
1060.593, 20.10315
1061.075, 19.73638
1061.557, 19.47366
1062.039, 19.60780
1062.521, 20.21255
1063.003, 20.51743
1063.485, 19.87893
1063.968, 19.38897
1064.450, 19.64290
1064.932, 20.11898
1065.414, 20.62872
1065.896, 20.93416
1066.378, 20.50078
1066.860, 19.27161
1067.342, 18.45490
1067.824, 18.74750
1068.307, 19.23590
1068.789, 19.64915
1069.271, 19.97769
1069.753, 20.27241
1070.235, 20.45373
1070.717, 20.32484
1071.199, 19.88982
1071.681, 19.54321
1072.164, 19.45980
1072.646, 19.46592
1073.128, 19.66637
1073.610, 19.74356
1074.092, 19.24388
1074.574, 18.55640
1075.056, 18.34265
1075.538, 18.62787
1076.021, 18.84093
1076.503, 18.70557
1076.985, 18.57704
1077.467, 18.63887
1077.949, 18.75489
1078.431, 18.85417
1078.913, 18.92483
1079.395, 18.99052
1079.877, 19.02817
1080.359, 18.92325
1080.842, 18.57940
1081.324, 18.25066
1081.806, 18.04275
1082.288, 17.90443
1082.770, 17.72239
1083.252, 17.64095
1083.734, 17.96743
1084.216, 18.56729
1084.698, 18.86084
1085.181, 18.57678
1085.663, 18.43638
1086.145, 19.00459
1086.627, 19.53864
1087.109, 19.53610
1087.591, 19.30517
1088.073, 19.10742
1088.555, 19.00063
1089.038, 19.09287
1089.520, 19.46034
1090.002, 19.51940
1090.484, 18.46202
1090.966, 17.74094
1091.448, 18.54329
1091.930, 19.63751
1092.412, 19.89893
1092.895, 19.54763
1093.377, 19.20096
1093.859, 18.98368
1094.341, 18.83640
1094.823, 18.89242
1095.305, 18.80474
1095.787, 18.12158
1096.269, 17.54513
1096.751, 17.91574
1097.234, 18.61312
1097.716, 18.46376
1098.198, 17.40895
1098.680, 16.73142
1099.162, 16.81548
1099.644, 17.31732
1100.126, 18.85013
1100.608, 19.97780
1101.090, 19.31260
1101.573, 18.07033
1102.055, 17.94448
1102.537, 18.82255
1103.019, 19.12558
1103.501, 18.07414
1103.983, 17.49400
1104.465, 18.16331
1104.947, 18.95813
1105.430, 19.59768
1105.912, 19.92752
1106.394, 19.66903
1106.876, 19.00192
1107.358, 18.49051
1107.840, 18.23547
1108.322, 18.02898
1108.804, 17.60645
1109.286, 17.54004
1109.769, 18.53783
1110.251, 19.44119
1110.733, 19.21411
1111.215, 18.32381
1111.697, 17.66998
1112.179, 17.28164
1112.661, 17.37375
1113.143, 18.58408
1113.625, 19.35678
1114.108, 19.19248
1114.590, 18.84907
1115.072, 18.68277
1115.554, 18.60059
1116.036, 18.41682
1116.518, 18.14139
1117.000, 18.15781
1117.482, 18.86294
1117.965, 19.13064
1118.447, 18.56539
1118.929, 18.10209
1119.411, 18.14198
1119.893, 18.36022
1120.375, 18.41649
1120.857, 18.37946
1121.339, 18.59953
1121.822, 19.39664
1122.304, 19.35857
1122.786, 17.82881
1123.268, 17.04223
1123.750, 18.01020
1124.232, 19.01495
1124.714, 18.69717
1125.196, 17.64423
1125.678, 17.09423
1126.161, 17.06608
1126.643, 17.34093
1127.125, 18.04836
1127.607, 18.53232
1128.089, 18.69954
1128.571, 18.52386
1129.053, 17.84691
1129.535, 17.24679
1130.017, 17.60488
1130.500, 18.71850
1130.982, 19.32801
1131.464, 19.42962
1131.946, 18.85998
1132.428, 17.50837
1132.910, 16.73169
1133.392, 17.08110
1133.874, 17.78141
1134.357, 18.15234
1134.839, 18.24914
1135.321, 18.13436
1135.803, 17.84286
1136.285, 17.74548
1136.767, 17.83691
1137.249, 17.91399
1137.731, 17.93006
1138.214, 17.94125
1138.696, 17.98321
1139.178, 18.02883
1139.660, 18.03315
1140.142, 18.01331
1140.624, 18.00222
1141.106, 18.01294
1141.588, 18.11618
1142.070, 18.29875
1142.552, 18.46388
1143.035, 18.56929
1143.517, 18.59422
1143.999, 18.51519
1144.481, 18.35635
1144.963, 18.15424
1145.445, 17.89851
1145.927, 17.45739
1146.409, 16.97219
1146.892, 16.85341
1147.374, 17.12677
1147.856, 17.36838
1148.338, 17.32061
1148.820, 17.29106
1149.302, 17.72305
1149.784, 18.14680
1150.266, 17.77328
1150.749, 17.25237
1151.231, 17.92710
1151.713, 19.31899
1152.195, 19.52725
1152.677, 17.95930
1153.159, 16.67723
1153.641, 17.08442
1154.123, 17.70929
1154.605, 17.81582
1155.088, 17.69924
1155.570, 17.47164
1156.052, 17.27964
1156.534, 17.37227
1157.016, 17.72952
1157.498, 17.95462
1157.980, 17.83669
1158.462, 17.80894
1158.944, 18.12924
1159.427, 18.37160
1159.909, 18.43761
1160.391, 18.26119
1160.873, 17.45768
1161.355, 16.40670
1161.837, 16.28014
1162.319, 17.39681
1162.801, 18.26636
1163.284, 19.09235
1163.766, 19.28381
1164.248, 18.15575
1164.730, 17.29209
1165.212, 17.74604
1165.694, 18.65966
1166.176, 18.86735
1166.658, 18.43838
1167.141, 17.95068
1167.623, 17.26370
1168.105, 17.19714
1168.587, 18.01137
1169.069, 18.50279
1169.551, 18.21518
1170.033, 17.80927
1170.515, 17.80157
1170.997, 18.05123
1171.479, 18.27990
1171.962, 18.48697
1172.444, 18.73377
1172.926, 19.00493
1173.408, 18.82298
1173.890, 18.14570
1174.372, 17.78227
1174.854, 18.10737
1175.336, 18.67509
1175.819, 19.09305
1176.301, 19.27657
1176.783, 18.87025
1177.265, 18.15383
1177.747, 17.89677
1178.229, 18.01170
1178.711, 17.93907
1179.193, 17.63583
1179.676, 17.72848
1180.158, 18.63207
1180.640, 19.47253
1181.122, 19.27667
1181.604, 18.71941
1182.086, 18.46816
1182.568, 18.38205
1183.050, 18.22378
1183.532, 18.03784
1184.015, 17.99206
1184.497, 18.12642
1184.979, 18.36884
1185.461, 18.87986
1185.943, 19.16763
1186.425, 18.84188
1186.907, 18.40438
1187.389, 18.09317
1187.871, 17.92480
1188.354, 18.00980
1188.836, 18.23305
1189.318, 18.12564
1189.800, 18.31718
1190.282, 18.67694
1190.764, 18.43871
1191.246, 19.23854
1191.728, 19.14117
1192.211, 18.78515
1192.693, 18.29711
1193.175, 17.96469
1193.657, 18.29578
1194.139, 19.17852
1194.621, 19.51954
1195.103, 19.11209
1195.585, 19.09561
1196.068, 19.62240
1196.550, 20.01271
1197.032, 20.06476
1197.514, 19.91891
1197.996, 19.64135
1198.478, 19.38611
1198.960, 19.50380
1199.442, 19.86712
1199.924, 19.78944
1200.406, 19.32366
1200.889, 18.67378
1201.371, 17.93969
1201.853, 17.61602
1202.335, 17.84986
1202.817, 18.08356
1203.299, 17.79440
1203.781, 17.57508
1204.263, 18.57704
1204.746, 19.87532
1205.228, 19.94618
1205.710, 19.29907
1206.192, 18.88493
1206.674, 18.82558
1207.156, 18.96655
1207.638, 19.25343
1208.120, 19.36077
1208.603, 18.97870
1209.085, 18.53274
1209.567, 18.10753
1210.049, 17.85228
1210.531, 18.07806
1211.013, 18.41895
1211.495, 18.26508
1211.977, 17.73090
1212.459, 17.62640
1212.942, 18.27722
1213.424, 18.70191
1213.906, 18.69214
1214.388, 18.64663
1214.870, 18.58423
1215.352, 18.59289
1215.834, 18.83463
1216.316, 19.02088
1216.798, 18.66754
1217.281, 17.89074
1217.763, 17.56519
1218.245, 17.72293
1218.727, 18.08760
1219.209, 18.66266
1219.691, 19.27541
1220.173, 19.89010
1220.655, 20.14922
1221.138, 19.78350
1221.620, 19.21533
1222.102, 19.06629
1222.584, 19.16579
1223.066, 19.09099
1223.548, 18.87774
1224.030, 18.58507
1224.512, 18.24978
1224.995, 17.83597
1225.477, 17.41945
1225.959, 17.54310
1226.441, 18.69484
1226.923, 19.67712
1227.405, 19.25409
1227.887, 18.54899
1228.369, 18.41220
1228.851, 18.58112
1229.333, 18.92158
1229.816, 19.22324
1230.298, 19.00261
1230.780, 18.22711
1231.262, 17.89248
1231.744, 18.67579
1232.226, 19.18982
1232.708, 19.06506
1233.190, 18.88731
1233.673, 18.77667
1234.155, 18.78650
1234.637, 19.03046
1235.119, 19.35906
1235.601, 19.42844
1236.083, 19.58540
1236.565, 19.29696
1237.047, 19.66126
1237.530, 19.82592
1238.012, 19.74526
1238.494, 19.27580
1238.976, 18.34034
1239.458, 17.66227
1239.940, 17.84272
1240.422, 18.48541
1240.904, 19.06753
1241.386, 19.54745
1241.869, 19.83012
1242.351, 19.93090
1242.833, 19.85132
1243.315, 19.63261
1243.797, 19.33560
1244.279, 19.00564
1244.761, 18.81791
1245.243, 18.90754
1245.725, 19.06296
1246.208, 19.25938
1246.690, 19.34383
1247.172, 19.01071
1247.654, 18.67944
1248.136, 18.84917
1248.618, 19.34781
1249.100, 19.78814
1249.582, 20.14617
1250.065, 20.15182
1250.547, 19.51587
1251.029, 19.03934
1251.511, 18.70255
1251.993, 18.66404
1252.475, 19.09520
1252.957, 19.55564
1253.439, 19.70115
1253.922, 19.67224
1254.404, 19.77578
1254.886, 19.94229
1255.368, 19.51776
1255.850, 19.52773
1256.332, 19.51281
1256.814, 19.09237
1257.296, 19.42472
1257.778, 19.20924
1258.260, 18.95529
1258.743, 18.97794
1259.225, 19.18696
1259.707, 19.72741
1260.189, 20.15841
1260.671, 19.75856
1261.153, 20.01599
1261.635, 19.19813
1262.117, 19.62046
1262.600, 19.55292
1263.082, 18.97621
1263.564, 18.84255
1264.046, 19.73301
1264.528, 20.22196
1265.010, 19.51278
1265.492, 19.10752
1265.974, 19.74153
1266.457, 20.39634
1266.939, 20.52195
1267.421, 20.27136
1267.903, 19.72883
1268.385, 19.04656
1268.867, 19.17303
1269.349, 20.16134
1269.831, 20.99084
1270.313, 21.62152
1270.796, 21.52819
1271.278, 20.64421
1271.760, 19.80385
1272.242, 19.43271
1272.724, 19.19837
1273.206, 18.68673
1273.688, 18.27492
1274.170, 18.65740
1274.652, 19.32487
1275.135, 19.59992
1275.617, 19.63219
1276.099, 19.78300
1276.581, 20.01664
1277.063, 20.03002
1277.545, 19.73557
1278.027, 19.42802
1278.509, 19.10572
1278.992, 18.91994
1279.474, 19.02032
1279.956, 19.11434
1280.438, 19.02813
1280.920, 18.94684
1281.402, 19.00919
1281.884, 19.20993
1282.366, 19.59879
1282.849, 19.56293
1283.331, 20.17906
1283.813, 19.67048
1284.295, 19.40071
1284.777, 19.44385
1285.259, 19.86710
1285.741, 20.63098
1286.223, 21.10091
1286.705, 20.88466
1287.188, 19.98072
##END=



