##NAMES=Libethenite
##RRUFFID=R050147
##IDEAL CHEMISTRY=Cu^2+^_2_PO_4_(OH)
##LOCALITY=Los Azules mine, Copiapo, Chile
##OWNER=RRUFF
##SOURCE=Jim McGlasson
##DESCRIPTION=Dark green prismatic crystals, associated with smaller lighter green pseudomalachite
##STATUS=The identification of this mineral is confirmed by single-crystal X-ray diffraction and chemical analysis.
##URL=rruff.info/R050147
##MEASURED CHEMISTRY=Cu_2.00_(P_1.00_O_4_)((OH)_0.89_F_0.11_)_Î£=1_
93.74609, 37.66109
94.22821, 36.01083
94.71033, 36.89043
95.19244, 39.85320
95.67456, 43.29163
96.15668, 46.70263
96.63879, 50.12321
97.12091, 53.63935
97.60303, 57.21926
98.08514, 61.10038
98.56726, 65.49734
99.04938, 70.42448
99.53149, 75.96096
100.0136, 81.99767
100.4957, 88.49501
100.9778, 96.17036
101.4600, 105.2598
101.9421, 115.2785
102.4242, 124.8688
102.9063, 134.0508
103.3884, 142.9478
103.8705, 151.3894
104.3527, 159.1661
104.8348, 167.4619
105.3169, 176.7114
105.7990, 186.6768
106.2811, 196.3015
106.7632, 205.3826
107.2454, 214.2462
107.7275, 222.9118
108.2096, 230.5687
108.6917, 239.3379
109.1738, 249.5555
109.6559, 261.3779
110.1381, 274.0512
110.6202, 287.8710
111.1023, 302.5290
111.5844, 317.7350
112.0665, 333.8126
112.5486, 350.3159
113.0308, 367.2780
113.5129, 384.9782
113.9950, 402.7020
114.4771, 420.4814
114.9592, 438.1369
115.4413, 455.6711
115.9235, 473.3956
116.4056, 490.6703
116.8877, 506.7997
117.3698, 521.4235
117.8519, 536.2204
118.3340, 552.1234
118.8162, 568.6833
119.2983, 584.7577
119.7804, 599.7677
120.2625, 614.3906
120.7446, 628.9466
121.2267, 643.2076
121.7089, 658.0420
122.1910, 674.3046
122.6731, 691.7518
123.1552, 709.2462
123.6373, 726.0834
124.1194, 742.4962
124.6016, 759.0012
125.0837, 774.3702
125.5658, 790.5792
126.0479, 809.8923
126.5300, 832.2322
127.0121, 855.8544
127.4943, 879.2833
127.9764, 902.7725
128.4585, 927.5934
128.9406, 954.3877
129.4227, 982.5757
129.9048, 1011.515
130.3869, 1041.410
130.8691, 1070.421
131.3512, 1095.451
131.8333, 1113.490
132.3154, 1126.404
132.7975, 1141.104
133.2796, 1158.246
133.7618, 1173.488
134.2439, 1186.746
134.7260, 1198.731
135.2081, 1210.195
135.6902, 1221.237
136.1723, 1231.958
136.6545, 1242.419
137.1366, 1252.603
137.6187, 1262.841
138.1008, 1273.564
138.5829, 1284.021
139.0650, 1292.469
139.5472, 1298.541
140.0293, 1303.939
140.5114, 1309.663
140.9935, 1315.792
141.4756, 1321.689
141.9577, 1327.071
142.4399, 1332.189
142.9220, 1338.227
143.4041, 1345.358
143.8862, 1353.100
144.3683, 1361.059
144.8504, 1368.489
145.3326, 1377.820
145.8147, 1390.051
146.2968, 1405.123
146.7789, 1417.969
147.2610, 1428.573
147.7431, 1437.240
148.2253, 1444.440
148.7074, 1451.041
149.1895, 1455.001
149.6716, 1455.261
150.1537, 1451.383
150.6358, 1448.116
151.1180, 1446.276
151.6001, 1444.659
152.0822, 1442.036
152.5643, 1437.172
153.0464, 1432.465
153.5285, 1429.018
154.0107, 1427.912
154.4928, 1423.817
154.9749, 1414.411
155.4570, 1402.411
155.9391, 1391.281
156.4212, 1385.114
156.9034, 1376.572
157.3855, 1362.495
157.8676, 1340.728
158.3497, 1319.748
158.8318, 1301.387
159.3139, 1284.690
159.7961, 1267.866
160.2782, 1250.197
160.7603, 1232.518
161.2424, 1215.022
161.7245, 1197.181
162.2066, 1180.774
162.6888, 1166.893
163.1709, 1154.866
163.6530, 1143.228
164.1351, 1131.908
164.6172, 1120.439
165.0993, 1108.454
165.5815, 1095.548
166.0636, 1082.588
166.5457, 1069.833
167.0278, 1057.225
167.5099, 1044.622
167.9921, 1032.231
168.4742, 1019.672
168.9563, 1006.508
169.4384, 991.9018
169.9205, 977.5779
170.4026, 964.3939
170.8848, 952.3481
171.3669, 941.7015
171.8490, 932.7134
172.3311, 925.1937
172.8132, 918.7682
173.2953, 912.0774
173.7775, 907.7496
174.2596, 909.4452
174.7417, 916.4949
175.2238, 924.1218
175.7059, 927.9181
176.1880, 930.1028
176.6702, 934.2234
177.1523, 942.0883
177.6344, 952.0040
178.1165, 961.7768
178.5986, 971.5400
179.0807, 982.3235
179.5629, 995.5867
180.0450, 1010.685
180.5271, 1025.869
181.0092, 1040.591
181.4913, 1055.177
181.9734, 1069.709
182.4556, 1084.145
182.9377, 1099.278
183.4198, 1116.508
183.9019, 1135.386
184.3840, 1153.927
184.8661, 1171.263
185.3483, 1187.822
185.8304, 1205.712
186.3125, 1225.107
186.7946, 1243.600
187.2767, 1258.300
187.7588, 1269.704
188.2409, 1279.807
188.7231, 1289.346
189.2052, 1298.304
189.6873, 1306.641
190.1694, 1314.409
190.6515, 1321.817
191.1336, 1329.747
191.6158, 1338.069
192.0979, 1344.642
192.5800, 1348.481
193.0621, 1349.767
193.5442, 1350.032
194.0263, 1349.533
194.5085, 1347.214
194.9906, 1341.910
195.4727, 1333.661
195.9548, 1322.082
196.4369, 1306.794
196.9190, 1287.869
197.4012, 1265.998
197.8833, 1240.586
198.3654, 1213.568
198.8475, 1188.976
199.3296, 1166.883
199.8117, 1144.995
200.2939, 1121.651
200.7760, 1096.886
201.2581, 1074.784
201.7402, 1055.869
202.2223, 1039.101
202.7044, 1022.652
203.1866, 1006.578
203.6687, 991.3820
204.1508, 977.4385
204.6329, 964.8271
205.1150, 952.5637
205.5971, 940.4375
206.0793, 928.9149
206.5614, 918.9647
207.0435, 910.8847
207.5256, 903.5833
208.0077, 896.4037
208.4898, 889.1116
208.9720, 883.4302
209.4541, 879.5127
209.9362, 877.0653
210.4183, 875.6965
210.9004, 875.7189
211.3825, 875.8943
211.8647, 875.5400
212.3468, 874.3786
212.8289, 873.7122
213.3110, 872.9859
213.7931, 873.1595
214.2752, 876.7207
214.7574, 884.7339
215.2395, 893.6237
215.7216, 901.7368
216.2037, 908.4108
216.6858, 916.4669
217.1679, 925.9349
217.6501, 936.7725
218.1322, 949.0522
218.6143, 962.6522
219.0964, 977.6578
219.5785, 994.1196
220.0606, 1013.083
220.5428, 1030.798
221.0249, 1046.746
221.5070, 1061.601
221.9891, 1076.524
222.4712, 1091.805
222.9533, 1106.918
223.4355, 1122.109
223.9176, 1139.880
224.3997, 1151.213
224.8818, 1155.646
225.3639, 1153.956
225.8460, 1147.811
226.3282, 1136.918
226.8103, 1122.107
227.2924, 1103.845
227.7745, 1081.223
228.2566, 1056.819
228.7387, 1030.548
229.2209, 1002.488
229.7030, 973.3087
230.1851, 941.6451
230.6672, 910.5575
231.1493, 881.1832
231.6314, 853.6512
232.1136, 827.4173
232.5957, 802.2232
233.0778, 778.3653
233.5599, 757.2491
234.0420, 740.0469
234.5241, 723.7054
235.0063, 706.8766
235.4884, 688.7029
235.9705, 673.0892
236.4526, 660.5231
236.9347, 650.1705
237.4168, 640.2592
237.8990, 630.8890
238.3811, 621.7896
238.8632, 612.7128
239.3453, 602.9746
239.8274, 595.3869
240.3095, 590.8342
240.7917, 587.9197
241.2738, 583.9449
241.7559, 578.1268
242.2380, 572.5446
242.7201, 567.8435
243.2022, 563.8792
243.6844, 561.4362
244.1665, 561.4392
244.6486, 562.4124
245.1307, 561.6915
245.6128, 558.2689
246.0949, 554.8383
246.5771, 552.1922
247.0592, 550.3792
247.5413, 549.3215
248.0234, 550.0237
248.5055, 550.7912
248.9876, 548.8532
249.4697, 542.9800
249.9519, 536.6265
250.4340, 530.8525
250.9161, 525.8951
251.3982, 520.1574
251.8803, 513.1331
252.3624, 505.7875
252.8446, 499.6937
253.3267, 495.5189
253.8088, 491.1777
254.2909, 485.8434
254.7730, 479.1992
255.2551, 474.0228
255.7373, 470.8131
256.2194, 468.5626
256.7015, 466.1024
257.1836, 463.1820
257.6657, 460.5033
258.1479, 457.8635
258.6300, 455.1494
259.1121, 454.8598
259.5942, 458.1229
260.0763, 462.4985
260.5584, 465.3393
261.0406, 465.8656
261.5227, 466.7690
262.0048, 468.7051
262.4869, 471.6386
262.9690, 474.6747
263.4511, 477.9791
263.9333, 481.1241
264.4154, 483.5224
264.8975, 484.7412
265.3796, 486.6653
265.8617, 489.9431
266.3438, 494.3755
266.8260, 498.0569
267.3081, 500.7466
267.7902, 503.0983
268.2723, 505.6086
268.7544, 508.4081
269.2365, 511.0103
269.7187, 513.2753
270.2008, 515.2931
270.6829, 517.4398
271.1650, 519.7247
271.6471, 522.1055
272.1292, 524.2177
272.6114, 525.7548
273.0935, 528.7075
273.5756, 533.4682
274.0577, 539.7020
274.5398, 546.3839
275.0219, 553.3885
275.5041, 561.0883
275.9862, 569.8748
276.4683, 579.8565
276.9504, 589.9844
277.4325, 600.3275
277.9146, 610.6058
278.3968, 619.9124
278.8788, 627.9998
279.3610, 636.2475
279.8431, 645.7953
280.3252, 656.6579
280.8073, 666.0817
281.2894, 673.3451
281.7715, 680.0258
282.2537, 689.1612
282.7358, 700.8943
283.2179, 713.7590
283.7000, 727.5632
284.1821, 742.2880
284.6642, 755.6599
285.1464, 767.2231
285.6285, 778.6185
286.1106, 791.8440
286.5927, 806.8832
287.0748, 824.4257
287.5569, 845.5598
288.0391, 869.8730
288.5212, 893.6885
289.0033, 916.9130
289.4854, 940.5042
289.9675, 965.2036
290.4496, 991.2007
290.9318, 1019.169
291.4139, 1049.724
291.8960, 1082.743
292.3781, 1117.323
292.8602, 1153.829
293.3423, 1191.238
293.8245, 1229.085
294.3066, 1267.393
294.7887, 1306.647
295.2708, 1348.054
295.7529, 1389.457
296.2350, 1426.863
296.7172, 1460.076
297.1993, 1488.217
297.6814, 1512.135
298.1635, 1530.827
298.6456, 1541.189
299.1277, 1542.691
299.6099, 1535.457
300.0920, 1518.742
300.5741, 1492.873
301.0562, 1461.376
301.5383, 1425.271
302.0204, 1385.085
302.5026, 1341.953
302.9847, 1294.693
303.4668, 1246.601
303.9489, 1199.529
304.4310, 1154.378
304.9131, 1110.991
305.3953, 1069.742
305.8774, 1030.482
306.3595, 993.5450
306.8416, 958.9758
307.3237, 926.9686
307.8058, 899.5115
308.2880, 875.1636
308.7701, 850.8004
309.2522, 823.5735
309.7343, 796.1071
310.2164, 771.0043
310.6985, 748.4162
311.1807, 726.5952
311.6628, 704.4857
312.1449, 682.1388
312.6270, 660.3316
313.1091, 638.6467
313.5912, 617.9705
314.0734, 598.7675
314.5555, 581.1404
315.0376, 564.2943
315.5197, 547.6497
316.0018, 531.5186
316.4839, 516.6503
316.9661, 503.3179
317.4482, 491.0361
317.9303, 479.8415
318.4124, 469.6713
318.8945, 459.8072
319.3766, 449.5216
319.8588, 439.7527
320.3409, 431.3656
320.8230, 425.8952
321.3051, 419.9243
321.7872, 411.7595
322.2693, 402.2570
322.7515, 394.0346
323.2336, 388.9940
323.7157, 384.4222
324.1978, 378.8272
324.6799, 370.9161
325.1620, 364.3236
325.6442, 360.3997
326.1263, 357.9910
326.6084, 355.0526
327.0905, 350.5502
327.5726, 346.2530
328.0547, 342.7716
328.5369, 340.4912
329.0190, 337.9301
329.5011, 334.8005
329.9832, 331.5223
330.4653, 328.5765
330.9474, 326.0796
331.4296, 323.7818
331.9117, 321.7383
332.3938, 319.9856
332.8759, 317.9251
333.3580, 315.1409
333.8401, 312.4193
334.3223, 310.4716
334.8044, 309.7658
335.2865, 308.8539
335.7686, 307.5308
336.2507, 305.8481
336.7328, 304.1331
337.2150, 302.2509
337.6971, 300.5370
338.1792, 299.2541
338.6613, 298.5901
339.1434, 297.5833
339.6255, 295.9956
340.1077, 294.1790
340.5898, 292.9507
341.0719, 292.4522
341.5540, 292.0411
342.0361, 291.4056
342.5182, 290.5318
343.0004, 289.8228
343.4825, 289.3193
343.9646, 288.9145
344.4467, 288.5117
344.9288, 288.1212
345.4109, 287.5883
345.8931, 286.6500
346.3752, 285.5287
346.8573, 285.2787
347.3394, 285.9622
347.8215, 286.9659
348.3036, 287.8457
348.7858, 288.5702
349.2679, 288.9232
349.7500, 288.5843
350.2321, 288.1172
350.7142, 288.9225
351.1964, 290.8373
351.6785, 292.3213
352.1606, 291.4235
352.6427, 289.4099
353.1248, 288.8998
353.6069, 290.6364
354.0891, 293.0345
354.5712, 294.4960
355.0533, 295.2310
355.5354, 295.8542
356.0175, 296.4985
356.4996, 297.2988
356.9818, 298.6122
357.4639, 300.5593
357.9460, 302.1453
358.4281, 302.1039
358.9102, 301.3691
359.3923, 301.3004
359.8745, 302.8411
360.3566, 304.8913
360.8387, 306.8398
361.3208, 308.6888
361.8029, 310.5663
362.2850, 312.2345
362.7672, 314.1073
363.2493, 316.5642
363.7314, 320.6638
364.2135, 324.2055
364.6956, 326.0580
365.1777, 326.7271
365.6599, 327.7476
366.1420, 329.3541
366.6241, 331.5192
367.1062, 334.3015
367.5883, 338.0908
368.0704, 341.6647
368.5526, 344.9052
369.0347, 347.8394
369.5168, 350.5643
369.9989, 352.7993
370.4810, 355.1195
370.9631, 357.8633
371.4453, 361.1964
371.9274, 363.5982
372.4095, 364.5760
372.8916, 365.0064
373.3737, 365.6071
373.8558, 366.3639
374.3380, 367.3299
374.8201, 368.5758
375.3022, 370.0569
375.7843, 371.4995
376.2664, 372.9552
376.7485, 374.3058
377.2307, 375.3147
377.7128, 375.8115
378.1949, 377.1696
378.6770, 379.6817
379.1591, 382.7862
379.6412, 385.1656
380.1234, 386.7076
380.6055, 388.8653
381.0876, 392.5939
381.5697, 397.6003
382.0518, 401.9672
382.5339, 405.5790
383.0161, 409.0067
383.4982, 412.7507
383.9803, 416.8096
384.4624, 421.0521
384.9445, 425.6487
385.4266, 430.1907
385.9088, 434.2878
386.3909, 437.8589
386.8730, 440.3537
387.3551, 441.3464
387.8372, 441.0149
388.3193, 439.9018
388.8015, 438.4203
389.2836, 435.1879
389.7657, 428.6786
390.2478, 419.3929
390.7299, 408.6353
391.2120, 396.1483
391.6942, 383.0354
392.1763, 370.1326
392.6584, 357.6051
393.1405, 345.4917
393.6226, 333.7282
394.1047, 322.4176
394.5869, 311.8277
395.0690, 302.3526
395.5511, 293.2850
396.0332, 284.1387
396.5153, 275.0792
396.9974, 267.0034
397.4796, 260.6470
397.9617, 254.9682
398.4438, 249.3900
398.9259, 243.5613
399.4080, 238.3401
399.8901, 233.8294
400.3723, 229.9630
400.8544, 226.6754
401.3365, 224.6113
401.8186, 222.3315
402.3007, 219.3397
402.7828, 215.4976
403.2649, 212.1548
403.7470, 209.3485
404.2292, 206.9900
404.7113, 205.1029
405.1934, 203.8699
405.6755, 202.4963
406.1576, 200.7543
406.6397, 198.8376
407.1219, 197.5258
407.6040, 196.9292
408.0861, 196.5002
408.5682, 196.1776
409.0503, 195.9504
409.5324, 194.5593
410.0146, 191.6713
410.4967, 188.4133
410.9788, 186.4639
411.4609, 185.7234
411.9430, 185.0620
412.4251, 183.9634
412.9073, 182.6922
413.3894, 181.7736
413.8715, 181.2033
414.3536, 180.8566
414.8357, 180.8626
415.3178, 180.9805
415.8000, 180.7358
416.2821, 179.9300
416.7642, 178.9103
417.2463, 177.9211
417.7284, 176.9677
418.2105, 176.0932
418.6927, 175.1858
419.1748, 174.4463
419.6569, 174.0812
420.1390, 174.1458
420.6211, 174.2379
421.1032, 174.1460
421.5854, 173.9925
422.0675, 173.9095
422.5496, 173.7209
423.0317, 173.8269
423.5138, 174.7597
423.9959, 176.2808
424.4781, 176.9538
424.9602, 175.2861
425.4423, 173.6736
425.9244, 173.3202
426.4065, 175.1011
426.8886, 176.5069
427.3708, 177.0946
427.8529, 177.5016
428.3350, 178.8648
428.8171, 182.1249
429.2992, 184.5708
429.7813, 185.1398
430.2635, 183.9163
430.7456, 184.0213
431.2277, 185.9224
431.7098, 188.1355
432.1919, 189.3246
432.6740, 189.3763
433.1562, 189.8845
433.6383, 191.1704
434.1204, 192.8243
434.6025, 193.8845
435.0846, 194.3707
435.5667, 195.1409
436.0489, 196.8804
436.5310, 199.2666
437.0131, 201.2563
437.4952, 202.8208
437.9773, 204.2778
438.4594, 205.8388
438.9416, 207.5276
439.4237, 209.4353
439.9058, 211.8781
440.3879, 214.1997
440.8700, 215.5008
441.3521, 216.0905
441.8343, 217.0540
442.3164, 219.2475
442.7985, 221.8811
443.2806, 224.3004
443.7627, 226.2856
444.2448, 228.5648
444.7270, 231.8699
445.2091, 235.4619
445.6912, 238.4491
446.1733, 240.2312
446.6554, 241.7831
447.1375, 243.4059
447.6197, 245.0701
448.1018, 246.3031
448.5839, 246.2486
449.0660, 246.4392
449.5481, 247.6861
450.0302, 250.9895
450.5124, 253.2747
450.9945, 254.1733
451.4766, 254.2917
451.9587, 254.6840
452.4408, 255.6850
452.9229, 256.0116
453.4051, 255.1463
453.8872, 253.2516
454.3693, 251.4876
454.8514, 249.8011
455.3335, 248.4643
455.8156, 248.1007
456.2978, 248.5201
456.7799, 247.8226
457.2620, 245.5683
457.7441, 242.5824
458.2262, 239.8819
458.7083, 237.4595
459.1905, 235.1697
459.6726, 233.2055
460.1547, 231.2336
460.6368, 228.6922
461.1189, 225.5750
461.6010, 222.4489
462.0832, 219.9774
462.5653, 217.6047
463.0474, 214.6747
463.5295, 210.5891
464.0116, 206.6146
464.4937, 203.4151
464.9759, 200.8089
465.4580, 198.5263
465.9401, 196.8542
466.4222, 195.1567
466.9043, 193.1436
467.3864, 190.7425
467.8686, 188.4458
468.3507, 186.0879
468.8328, 183.9936
469.3149, 182.4102
469.7970, 181.6138
470.2791, 180.8877
470.7613, 180.3154
471.2434, 179.7522
471.7255, 178.7844
472.2076, 177.2983
472.6897, 175.6651
473.1718, 173.7877
473.6540, 171.6750
474.1361, 170.7434
474.6182, 171.2581
475.1003, 171.9944
475.5824, 171.6109
476.0645, 170.2256
476.5467, 168.9060
477.0288, 167.8397
477.5109, 166.9688
477.9930, 166.3084
478.4751, 165.8034
478.9572, 165.1882
479.4394, 164.2598
479.9215, 163.1552
480.4036, 162.0625
480.8857, 160.9865
481.3678, 159.8514
481.8499, 158.3430
482.3321, 156.8434
482.8142, 155.8122
483.2963, 155.6749
483.7784, 155.6131
484.2605, 155.3301
484.7426, 154.8860
485.2248, 154.4304
485.7069, 153.9040
486.1890, 153.4654
486.6711, 153.2613
487.1532, 153.4197
487.6353, 153.1884
488.1175, 152.3325
488.5996, 151.3002
489.0817, 150.4286
489.5638, 149.7248
490.0459, 149.2017
490.5280, 148.9298
491.0102, 148.7971
491.4923, 148.4830
491.9744, 147.9362
492.4565, 147.4595
492.9386, 147.3038
493.4207, 147.3660
493.9029, 146.7881
494.3850, 145.4851
494.8671, 144.3392
495.3492, 144.3931
495.8313, 145.2679
496.3134, 145.9001
496.7956, 146.0699
497.2777, 145.9262
497.7598, 145.5263
498.2419, 144.9307
498.7240, 144.3010
499.2061, 143.5133
499.6883, 142.8659
500.1704, 142.7144
500.6525, 143.0527
501.1346, 143.1839
501.6167, 142.4832
502.0988, 141.6801
502.5810, 141.3215
503.0631, 141.8330
503.5452, 142.2622
504.0273, 142.4378
504.5094, 142.4668
504.9915, 142.5414
505.4737, 142.8423
505.9558, 142.9137
506.4379, 142.6089
506.9200, 141.9438
507.4021, 141.1782
507.8842, 140.1909
508.3664, 139.3633
508.8485, 139.0154
509.3306, 139.1577
509.8127, 139.2350
510.2948, 139.1847
510.7769, 139.1321
511.2591, 139.3565
511.7412, 139.7855
512.2233, 139.9850
512.7054, 139.5638
513.1875, 139.0254
513.6696, 139.4000
514.1517, 140.4758
514.6339, 141.0801
515.1160, 139.7178
515.5981, 137.9664
516.0802, 137.4785
516.5623, 138.7327
517.0444, 139.8324
517.5266, 139.8448
518.0087, 139.2628
518.4908, 138.6238
518.9729, 137.5369
519.4550, 136.9763
519.9371, 137.5087
520.4193, 138.8316
520.9014, 139.5999
521.3835, 139.3816
521.8656, 139.1810
522.3477, 139.4668
522.8298, 140.3758
523.3120, 140.5871
523.7941, 139.8802
524.2762, 138.9211
524.7583, 138.1633
525.2404, 137.5882
525.7225, 137.9201
526.2047, 139.5881
526.6868, 141.5996
527.1689, 141.9506
527.6510, 140.8895
528.1331, 140.0125
528.6152, 140.3364
529.0974, 141.1798
529.5795, 141.5089
530.0616, 141.3676
530.5437, 141.3295
531.0258, 141.7097
531.5079, 142.4109
531.9901, 143.4154
532.4722, 144.8815
532.9543, 146.2083
533.4364, 146.9730
533.9185, 147.5282
534.4006, 148.3670
534.8828, 149.7216
535.3649, 151.2173
535.8470, 152.8885
536.3291, 154.6801
536.8112, 156.0730
537.2933, 156.4678
537.7755, 157.3969
538.2576, 159.6791
538.7397, 163.5275
539.2218, 167.1534
539.7039, 170.4210
540.1860, 173.7107
540.6682, 177.3596
541.1503, 181.3377
541.6324, 185.5532
542.1145, 190.0006
542.5966, 194.5904
543.0787, 199.2860
543.5609, 204.0324
544.0430, 208.6214
544.5251, 212.4820
545.0072, 216.4366
545.4893, 221.2592
545.9714, 226.9413
546.4536, 233.0952
546.9357, 239.5359
547.4178, 246.3508
547.8999, 253.5240
548.3820, 260.7520
548.8641, 269.0359
549.3463, 279.0458
549.8284, 290.0523
550.3105, 301.1063
550.7926, 312.0035
551.2747, 323.1970
551.7568, 335.1523
552.2390, 347.5566
552.7211, 359.2739
553.2032, 370.1967
553.6853, 380.7847
554.1674, 391.6261
554.6495, 402.5961
555.1317, 412.1042
555.6138, 420.1550
556.0959, 425.5610
556.5780, 427.1883
557.0601, 425.2207
557.5422, 419.9276
558.0244, 411.0078
558.5065, 399.7317
558.9886, 386.7492
559.4707, 372.4179
559.9528, 357.7770
560.4349, 341.9012
560.9171, 326.8929
561.3992, 314.0011
561.8813, 303.0232
562.3634, 292.8465
562.8455, 282.6405
563.3276, 273.4953
563.8098, 265.9211
564.2919, 260.1798
564.7740, 255.2185
565.2561, 250.9649
565.7382, 247.5631
566.2203, 245.1636
566.7025, 243.8763
567.1846, 243.1350
567.6667, 242.8962
568.1488, 243.0971
568.6309, 243.7008
569.1130, 244.6991
569.5952, 245.7578
570.0773, 246.6288
570.5594, 247.5257
571.0415, 248.8086
571.5236, 250.4982
572.0057, 252.6817
572.4879, 255.5155
572.9700, 258.8538
573.4521, 262.6859
573.9342, 267.1693
574.4163, 271.4543
574.8984, 274.6216
575.3806, 277.6283
575.8627, 281.4891
576.3448, 287.2555
576.8269, 292.7963
577.3090, 297.9423
577.7911, 302.7012
578.2733, 307.2681
578.7554, 311.7320
579.2375, 315.6386
579.7196, 318.6440
580.2017, 320.9054
580.6838, 323.7442
581.1660, 327.2526
581.6481, 330.7085
582.1302, 333.9121
582.6123, 336.6684
583.0944, 338.0243
583.5765, 337.8815
584.0587, 336.7933
584.5408, 334.9915
585.0229, 332.6916
585.5050, 330.2372
585.9871, 327.6108
586.4692, 325.0446
586.9514, 322.7643
587.4335, 320.6117
587.9156, 318.3063
588.3977, 315.8936
588.8798, 313.1798
589.3619, 310.0552
589.8441, 306.5091
590.3262, 302.7661
590.8083, 298.5591
591.2904, 294.5551
591.7725, 291.2798
592.2546, 289.0185
592.7368, 285.7316
593.2189, 281.2596
593.7010, 276.1732
594.1831, 270.9344
594.6652, 265.6451
595.1473, 260.4181
595.6295, 255.3366
596.1116, 250.1987
596.5937, 244.6348
597.0758, 238.7878
597.5579, 232.9891
598.0400, 227.2222
598.5222, 221.8500
599.0043, 217.3662
599.4864, 213.6134
599.9685, 209.7962
600.4506, 205.5385
600.9327, 201.2588
601.4149, 197.0795
601.8970, 192.9565
602.3791, 189.3530
602.8612, 186.4000
603.3433, 183.7957
603.8254, 181.2893
604.3076, 178.7229
604.7897, 176.8385
605.2718, 175.7734
605.7539, 175.2114
606.2360, 174.7879
606.7181, 174.4792
607.2003, 174.0219
607.6824, 173.1187
608.1645, 172.2820
608.6466, 172.3587
609.1287, 173.2272
609.6108, 174.4236
610.0930, 175.7039
610.5751, 177.1921
611.0572, 178.9714
611.5393, 181.0422
612.0214, 183.4478
612.5035, 186.7798
612.9857, 190.0429
613.4678, 192.5641
613.9499, 193.5830
614.4320, 195.4506
614.9141, 198.5368
615.3962, 202.1545
615.8784, 205.4687
616.3605, 208.2666
616.8426, 211.9720
617.3247, 217.0088
617.8068, 222.7215
618.2889, 227.5152
618.7711, 231.5452
619.2532, 235.9212
619.7353, 241.3022
620.2174, 247.1955
620.6995, 252.9321
621.1816, 258.5811
621.6638, 264.2934
622.1459, 270.3219
622.6280, 276.4643
623.1101, 282.7445
623.5922, 289.2104
624.0743, 295.1414
624.5565, 301.1129
625.0386, 305.9419
625.5207, 308.7401
626.0028, 308.7668
626.4849, 308.5304
626.9670, 308.5830
627.4492, 307.7609
627.9313, 304.3431
628.4134, 298.1096
628.8955, 291.1743
629.3776, 283.8713
629.8597, 276.3290
630.3419, 268.7594
630.8240, 261.1066
631.3061, 253.1064
631.7882, 244.0103
632.2703, 234.9149
632.7524, 226.9314
633.2346, 220.0447
633.7167, 213.7530
634.1988, 207.7871
634.6809, 202.4652
635.1630, 198.1108
635.6451, 194.8779
636.1273, 191.7667
636.6094, 188.3341
637.0915, 185.3007
637.5736, 183.1935
638.0557, 182.2175
638.5378, 181.5146
639.0200, 181.1078
639.5021, 180.8840
639.9842, 180.7043
640.4663, 180.5704
640.9484, 180.4745
641.4305, 180.3295
641.9127, 180.3885
642.3948, 181.2893
642.8769, 182.7127
643.3590, 183.8022
643.8411, 184.1201
644.3232, 183.9864
644.8054, 183.5107
645.2875, 182.7447
645.7696, 181.8806
646.2517, 181.5047
646.7338, 180.5728
647.2159, 178.4252
647.6981, 174.9364
648.1802, 171.7838
648.6623, 169.1556
649.1444, 166.5188
649.6265, 163.5686
650.1086, 160.2913
650.5908, 156.3508
651.0729, 151.5092
651.5550, 146.8168
652.0371, 143.6277
652.5192, 141.5276
653.0013, 139.4582
653.4835, 137.2022
653.9656, 134.8185
654.4477, 132.0227
654.9298, 129.2332
655.4119, 127.1141
655.8940, 126.8295
656.3762, 126.3081
656.8583, 124.7423
657.3404, 122.3595
657.8225, 119.9512
658.3046, 117.0929
658.7867, 114.9113
659.2689, 113.9402
659.7510, 114.0262
660.2331, 113.6329
660.7152, 112.6955
661.1973, 111.6005
661.6794, 110.5344
662.1616, 109.5053
662.6437, 108.5585
663.1258, 107.6972
663.6079, 106.8557
664.0900, 105.9246
664.5721, 105.0116
665.0543, 104.2619
665.5364, 103.7554
666.0185, 103.2197
666.5006, 102.4278
666.9827, 101.6013
667.4648, 100.9703
667.9470, 100.6552
668.4291, 100.4305
668.9112, 100.2827
669.3933, 100.2233
669.8754, 100.3371
670.3575, 100.7024
670.8397, 100.8109
671.3218, 100.4637
671.8039, 99.85026
672.2860, 99.42385
672.7681, 99.15941
673.2502, 98.85053
673.7324, 98.33011
674.2145, 97.74480
674.6966, 97.26221
675.1787, 96.86868
675.6608, 96.49097
676.1429, 96.13457
676.6251, 95.75526
677.1072, 95.30497
677.5893, 94.75762
678.0714, 94.27234
678.5535, 93.64718
679.0356, 93.30888
679.5178, 93.67215
679.9999, 95.01121
680.4820, 95.62911
680.9641, 95.44634
681.4462, 94.80231
681.9283, 93.93867
682.4105, 92.90102
682.8926, 91.78273
683.3747, 90.44761
683.8568, 89.55244
684.3389, 90.08817
684.8210, 91.37535
685.3032, 92.36227
685.7853, 92.70397
686.2674, 92.64968
686.7495, 91.81240
687.2316, 90.67093
687.7137, 90.37801
688.1959, 91.86010
688.6780, 92.78365
689.1601, 92.49146
689.6422, 91.32117
690.1243, 90.61834
690.6064, 90.41854
691.0886, 90.35976
691.5707, 90.28400
692.0528, 90.22118
692.5349, 90.22384
693.0170, 90.29850
693.4991, 90.48999
693.9813, 91.14717
694.4634, 91.72625
694.9455, 91.57455
695.4276, 90.61832
695.9097, 89.87344
696.3918, 89.89420
696.8740, 90.06982
697.3561, 89.97652
697.8382, 89.40652
698.3203, 89.26271
698.8024, 89.80110
699.2845, 90.36763
699.7667, 90.23817
700.2488, 89.41958
700.7309, 88.81703
701.2130, 88.54591
701.6951, 88.43405
702.1772, 88.20206
702.6594, 87.97734
703.1415, 88.09686
703.6236, 88.90538
704.1057, 89.58700
704.5878, 89.66045
705.0699, 89.25728
705.5521, 88.58873
706.0342, 86.90568
706.5163, 85.94807
706.9984, 86.35055
707.4805, 87.57411
707.9626, 88.29350
708.4448, 88.43103
708.9269, 88.29491
709.4090, 87.85780
709.8911, 87.29012
710.3732, 87.20691
710.8553, 87.55560
711.3374, 87.79473
711.8195, 87.42920
712.3016, 86.90614
712.7838, 86.68444
713.2659, 86.76734
713.7480, 87.07542
714.2301, 87.89974
714.7122, 88.66382
715.1943, 89.03468
715.6765, 88.92965
716.1586, 88.85567
716.6407, 88.84731
717.1228, 88.82549
717.6049, 88.74239
718.0870, 88.59364
718.5692, 88.36657
719.0513, 88.02237
719.5334, 87.82938
720.0155, 88.15656
720.4976, 88.80334
720.9797, 89.32897
721.4619, 89.65285
721.9440, 89.94680
722.4261, 90.34059
722.9082, 90.75903
723.3903, 91.14758
723.8724, 91.66797
724.3546, 91.84252
724.8367, 91.22396
725.3188, 90.45303
725.8009, 90.25306
726.2830, 90.79131
726.7651, 91.36605
727.2473, 91.93227
727.7294, 92.43743
728.2115, 92.84946
728.6936, 93.14514
729.1757, 93.09022
729.6578, 92.20605
730.1400, 91.59269
730.6221, 92.94392
731.1042, 95.38745
731.5863, 97.07811
732.0684, 96.56210
732.5505, 95.97189
733.0327, 96.06657
733.5148, 96.69962
733.9969, 97.20830
734.4790, 97.51539
734.9611, 97.84045
735.4432, 98.23972
735.9254, 98.70618
736.4075, 99.26102
736.8896, 99.90320
737.3717, 100.4294
737.8538, 100.4010
738.3359, 100.3381
738.8181, 101.3368
739.3002, 103.1867
739.7823, 104.6126
740.2644, 104.4858
740.7465, 104.0868
741.2286, 104.2998
741.7108, 105.2326
742.1929, 105.5691
742.6750, 104.8557
743.1571, 104.0385
743.6392, 103.4418
744.1213, 103.0508
744.6035, 103.5153
745.0856, 104.9491
745.5677, 106.5124
746.0498, 107.5366
746.5319, 108.1604
747.0140, 108.6619
747.4962, 109.0690
747.9783, 109.2655
748.4604, 108.7048
748.9425, 108.1900
749.4246, 108.5514
749.9067, 110.3240
750.3889, 111.6801
750.8710, 112.3290
751.3531, 112.5512
751.8352, 112.4142
752.3173, 111.6958
752.7994, 111.7015
753.2816, 112.6139
753.7637, 113.8647
754.2458, 115.0033
754.7279, 115.9611
755.2100, 116.4841
755.6921, 116.4223
756.1743, 116.3317
756.6564, 116.5485
757.1385, 117.0495
757.6206, 117.8178
758.1027, 119.1187
758.5848, 120.2948
759.0670, 121.3940
759.5491, 122.2487
760.0312, 122.5336
760.5133, 121.9390
760.9954, 121.9858
761.4775, 123.0517
761.9597, 124.4949
762.4418, 125.2587
762.9239, 125.4840
763.4060, 125.7155
763.8881, 126.1080
764.3702, 126.5877
764.8524, 127.3517
765.3345, 128.0944
765.8166, 128.2798
766.2987, 127.1064
766.7808, 126.1014
767.2629, 125.8432
767.7451, 125.9117
768.2272, 125.4230
768.7093, 124.1701
769.1914, 123.1085
769.6735, 122.5660
770.1556, 122.2195
770.6378, 121.4025
771.1199, 120.1506
771.6020, 118.6303
772.0841, 116.7359
772.5662, 114.7919
773.0483, 112.8936
773.5305, 111.1736
774.0126, 109.9704
774.4947, 110.0174
774.9768, 109.9122
775.4589, 109.1469
775.9410, 107.9066
776.4232, 106.8733
776.9053, 106.1136
777.3874, 105.2754
777.8695, 104.1243
778.3516, 102.8821
778.8337, 102.1295
779.3159, 101.8413
779.7980, 101.8714
780.2801, 102.5323
780.7622, 103.1647
781.2443, 103.1114
781.7264, 102.5077
782.2086, 101.9354
782.6907, 101.5753
783.1728, 101.2666
783.6549, 100.9154
784.1370, 100.5589
784.6191, 100.4594
785.1013, 100.6839
785.5834, 100.8771
786.0655, 100.8037
786.5476, 100.6123
787.0297, 100.7973
787.5118, 101.3085
787.9940, 101.7882
788.4761, 102.0764
788.9582, 102.2199
789.4403, 102.0244
789.9224, 101.5949
790.4045, 101.7348
790.8867, 103.1868
791.3688, 104.6751
791.8509, 105.8747
792.3330, 106.7736
792.8151, 106.8878
793.2972, 106.0486
793.7794, 105.4476
794.2615, 105.8868
794.7436, 107.0075
795.2257, 108.0333
795.7078, 108.9601
796.1899, 109.6713
796.6721, 109.8405
797.1542, 110.0010
797.6363, 110.4387
798.1184, 111.1801
798.6005, 112.3063
799.0826, 114.1378
799.5648, 115.9193
800.0469, 117.3391
800.5290, 118.4362
801.0111, 119.7254
801.4932, 121.2213
801.9753, 122.6299
802.4575, 123.5826
802.9396, 124.4104
803.4217, 125.7033
803.9038, 127.4208
804.3859, 129.2224
804.8680, 130.9210
805.3502, 132.6510
805.8323, 134.5311
806.3144, 136.5590
806.7965, 138.5062
807.2786, 140.2392
807.7607, 142.1113
808.2429, 144.4060
808.7250, 146.9868
809.2071, 148.9371
809.6892, 150.2764
810.1713, 151.5241
810.6534, 152.8450
811.1356, 154.3512
811.6177, 156.4977
812.0998, 159.1167
812.5819, 161.0001
813.0640, 161.0913
813.5461, 160.9203
814.0283, 161.2037
814.5104, 161.8951
814.9925, 162.2715
815.4746, 162.3104
815.9567, 162.1130
816.4388, 161.6154
816.9210, 160.9452
817.4031, 160.7633
817.8852, 160.9329
818.3673, 160.4972
818.8494, 158.3713
819.3315, 155.8301
819.8137, 153.9899
820.2958, 152.7154
820.7779, 150.8466
821.2600, 147.4271
821.7421, 144.1577
822.2242, 141.6550
822.7064, 139.7486
823.1885, 137.4762
823.6706, 134.8114
824.1527, 132.4370
824.6348, 131.0078
825.1169, 129.8978
825.5991, 127.8359
826.0812, 125.0829
826.5633, 122.4929
827.0454, 120.4386
827.5275, 118.7022
828.0096, 117.2491
828.4918, 116.0501
828.9739, 114.8477
829.4560, 113.6828
829.9381, 112.4115
830.4202, 110.8678
830.9023, 109.2734
831.3845, 108.4045
831.8666, 108.1710
832.3487, 107.8343
832.8308, 106.9037
833.3129, 105.8473
833.7950, 104.9589
834.2772, 104.2956
834.7593, 104.0058
835.2414, 105.0033
835.7235, 105.3049
836.2056, 104.1797
836.6877, 102.1841
837.1699, 100.7506
837.6520, 99.93100
838.1341, 99.40401
838.6162, 99.16863
839.0983, 99.02376
839.5804, 98.42251
840.0626, 97.62297
840.5447, 97.31243
841.0268, 98.22605
841.5089, 99.14656
841.9910, 99.51567
842.4731, 99.49852
842.9553, 99.37794
843.4374, 98.93204
843.9195, 98.92883
844.4016, 99.65742
844.8837, 100.6155
845.3658, 100.7598
845.8480, 100.2564
846.3301, 100.1505
846.8122, 100.8021
847.2943, 101.6564
847.7764, 102.3427
848.2585, 102.8429
848.7407, 103.1047
849.2228, 102.6521
849.7049, 102.6912
850.1870, 103.6181
850.6691, 104.8849
851.1512, 105.9645
851.6334, 106.8656
852.1155, 107.4647
852.5976, 107.7117
853.0797, 107.7824
853.5618, 107.5379
854.0439, 107.3520
854.5261, 108.1199
855.0082, 110.3241
855.4903, 112.0536
855.9724, 112.1930
856.4545, 111.5801
856.9366, 110.8812
857.4188, 109.9999
857.9009, 109.4726
858.3830, 109.3710
858.8651, 109.4601
859.3472, 109.5374
859.8293, 109.6357
860.3115, 110.0136
860.7936, 110.6905
861.2757, 111.0690
861.7578, 110.5315
862.2399, 109.6459
862.7220, 108.7664
863.2042, 107.9030
863.6863, 107.4266
864.1684, 107.5019
864.6505, 107.7413
865.1326, 107.9851
865.6147, 108.2317
866.0969, 108.5067
866.5790, 108.8108
867.0611, 108.9125
867.5432, 108.4418
868.0253, 107.8288
868.5074, 107.7390
868.9896, 108.0411
869.4717, 107.9191
869.9538, 106.2404
870.4359, 105.0236
870.9180, 105.0806
871.4001, 106.1583
871.8823, 107.0823
872.3644, 107.8385
872.8465, 108.5672
873.3286, 109.4420
873.8107, 110.2012
874.2928, 110.3089
874.7750, 109.9065
875.2571, 109.4002
875.7392, 108.3533
876.2213, 107.9004
876.7034, 109.0533
877.1855, 111.0248
877.6677, 112.1066
878.1498, 112.0891
878.6319, 111.6711
879.1140, 110.7323
879.5961, 109.8789
880.0782, 110.4096
880.5604, 111.8840
881.0425, 112.7676
881.5246, 112.3931
882.0067, 112.0854
882.4888, 112.9309
882.9709, 114.2695
883.4531, 115.3407
883.9352, 115.6773
884.4173, 116.4436
884.8994, 117.8652
885.3815, 119.3590
885.8636, 120.3825
886.3458, 120.9581
886.8279, 121.0376
887.3100, 120.5808
887.7921, 120.3272
888.2742, 121.1637
888.7563, 122.3311
889.2385, 122.9361
889.7206, 122.7314
890.2027, 123.2635
890.6848, 125.3621
891.1669, 127.4106
891.6490, 128.5880
892.1312, 128.9563
892.6133, 129.1746
893.0954, 129.2410
893.5775, 129.5630
894.0596, 130.7193
894.5417, 132.0557
895.0239, 132.9044
895.5060, 133.2974
895.9881, 133.4652
896.4702, 132.9401
896.9523, 132.8590
897.4344, 133.6975
897.9166, 135.1678
898.3987, 136.2489
898.8808, 136.9333
899.3629, 137.6004
899.8450, 138.4098
900.3271, 139.2182
900.8093, 139.7267
901.2914, 140.1080
901.7735, 140.7182
902.2556, 141.8348
902.7377, 142.9977
903.2198, 144.2137
903.7020, 145.3306
904.1841, 146.1688
904.6662, 146.6963
905.1483, 147.0228
905.6304, 147.0939
906.1125, 147.2299
906.5947, 147.8657
907.0768, 148.8105
907.5589, 149.7565
908.0410, 150.6702
908.5231, 151.4216
909.0052, 151.6448
909.4874, 151.9186
909.9695, 152.6550
910.4516, 153.8920
910.9337, 155.3198
911.4158, 157.0518
911.8979, 158.4407
912.3801, 158.8220
912.8622, 158.6182
913.3443, 158.6631
913.8264, 158.9651
914.3085, 159.4771
914.7906, 160.4224
915.2728, 161.3310
915.7549, 162.0101
916.2370, 162.4622
916.7191, 162.6529
917.2012, 162.4614
917.6833, 162.4418
918.1655, 162.7119
918.6476, 163.3100
919.1297, 164.5896
919.6118, 166.2626
920.0939, 167.5045
920.5760, 167.6189
921.0582, 167.8550
921.5403, 169.1829
922.0224, 170.7980
922.5045, 171.5583
922.9866, 170.9679
923.4688, 170.9419
923.9509, 171.7005
924.4330, 172.7052
924.9151, 173.2629
925.3972, 173.5906
925.8793, 174.2023
926.3615, 175.1723
926.8436, 176.2908
927.3257, 177.9600
927.8078, 179.3429
928.2899, 179.5067
928.7720, 178.3479
929.2542, 178.3758
929.7363, 179.9331
930.2184, 181.5443
930.7005, 182.4594
931.1826, 182.8539
931.6647, 182.9667
932.1469, 182.9058
932.6290, 183.1291
933.1111, 184.0224
933.5932, 185.0937
934.0753, 186.3335
934.5574, 187.5628
935.0396, 188.2586
935.5217, 188.1865
936.0038, 188.3647
936.4859, 189.0108
936.9680, 189.9224
937.4501, 190.9575
937.9323, 191.9956
938.4144, 192.6638
938.8965, 192.7283
939.3786, 192.9138
939.8607, 193.9871
940.3428, 195.0611
940.8250, 195.1684
941.3071, 193.7683
941.7892, 193.7477
942.2713, 195.2840
942.7534, 197.4854
943.2355, 200.1487
943.7177, 202.8144
944.1998, 204.2992
944.6819, 204.7386
945.1640, 205.6032
945.6461, 207.5673
946.1282, 210.1884
946.6104, 213.4522
947.0925, 217.2047
947.5746, 220.9900
948.0567, 224.8103
948.5388, 228.5810
949.0209, 232.0722
949.5031, 235.8515
949.9852, 240.8237
950.4673, 246.7968
950.9494, 253.2708
951.4315, 260.0441
951.9136, 267.4512
952.3958, 276.0197
952.8779, 285.0045
953.3600, 293.4806
953.8421, 301.1505
954.3242, 310.5873
954.8063, 321.9179
955.2885, 334.3684
955.7706, 346.9015
956.2527, 360.2542
956.7348, 375.5684
957.2169, 392.9126
957.6990, 411.1338
958.1811, 428.9644
958.6632, 448.7128
959.1453, 471.6558
959.6274, 497.3954
960.1096, 523.4266
960.5917, 549.8690
961.0738, 579.1007
961.5559, 612.8044
962.0380, 649.2790
962.5201, 687.4510
963.0023, 727.1588
963.4844, 768.7957
963.9665, 813.4384
964.4486, 858.7135
964.9307, 904.0908
965.4128, 950.9016
965.8950, 1000.107
966.3771, 1051.515
966.8592, 1105.709
967.3413, 1162.294
967.8234, 1221.511
968.3055, 1282.632
968.7877, 1346.409
969.2698, 1412.658
969.7519, 1481.416
970.2340, 1553.874
970.7161, 1632.722
971.1982, 1710.913
971.6804, 1787.187
972.1625, 1860.468
972.6446, 1931.764
973.1267, 1999.499
973.6088, 2057.976
974.0909, 2106.748
974.5731, 2142.753
975.0552, 2167.060
975.5373, 2176.340
976.0194, 2166.127
976.5015, 2135.739
976.9836, 2088.271
977.4658, 2023.229
977.9479, 1945.385
978.4300, 1857.334
978.9121, 1762.737
979.3942, 1666.633
979.8763, 1569.984
980.3585, 1475.833
980.8406, 1384.259
981.3227, 1298.861
981.8048, 1220.599
982.2869, 1149.569
982.7690, 1084.134
983.2512, 1024.329
983.7333, 969.9609
984.2154, 921.2616
984.6975, 877.5736
985.1796, 837.7110
985.6617, 801.3523
986.1439, 768.6449
986.6260, 739.6642
987.1081, 714.5834
987.5902, 694.1852
988.0723, 676.3798
988.5544, 658.7181
989.0366, 641.2600
989.5187, 627.1940
990.0008, 616.7908
990.4829, 608.8558
990.9650, 602.9403
991.4471, 598.4627
991.9293, 594.4628
992.4114, 590.9547
992.8935, 590.7484
993.3756, 595.1104
993.8577, 600.1910
994.3398, 604.4896
994.8220, 608.6758
995.3041, 614.0544
995.7862, 620.7351
996.2683, 629.3406
996.7504, 640.1048
997.2325, 652.6654
997.7147, 667.3588
998.1968, 683.4996
998.6789, 700.3217
999.1610, 717.6203
999.6431, 736.1670
1000.125, 755.5349
1000.607, 776.8130
1001.089, 800.8971
1001.572, 827.1839
1002.054, 854.5992
1002.536, 882.9382
1003.018, 913.3289
1003.500, 946.7233
1003.982, 980.9008
1004.464, 1014.564
1004.946, 1048.403
1005.429, 1083.915
1005.911, 1121.262
1006.393, 1157.289
1006.875, 1191.170
1007.357, 1224.386
1007.839, 1261.139
1008.321, 1297.622
1008.803, 1329.749
1009.285, 1355.316
1009.768, 1378.551
1010.250, 1399.107
1010.732, 1418.645
1011.214, 1437.594
1011.696, 1456.534
1012.178, 1476.721
1012.660, 1498.008
1013.142, 1520.100
1013.625, 1542.526
1014.107, 1565.836
1014.589, 1588.882
1015.071, 1613.280
1015.553, 1642.870
1016.035, 1679.028
1016.517, 1712.395
1016.999, 1741.388
1017.481, 1766.609
1017.964, 1789.609
1018.446, 1808.427
1018.928, 1821.371
1019.410, 1828.780
1019.892, 1826.109
1020.374, 1813.947
1020.856, 1789.600
1021.338, 1750.075
1021.820, 1696.875
1022.303, 1639.349
1022.785, 1577.244
1023.267, 1510.189
1023.749, 1434.816
1024.231, 1358.006
1024.713, 1282.678
1025.195, 1209.538
1025.677, 1139.316
1026.160, 1072.001
1026.642, 1009.061
1027.124, 950.6147
1027.606, 896.5531
1028.088, 846.4985
1028.570, 800.9883
1029.052, 760.3362
1029.534, 724.8103
1030.016, 692.4052
1030.499, 663.1493
1030.981, 636.1885
1031.463, 610.8443
1031.945, 587.2693
1032.427, 565.9257
1032.909, 546.9591
1033.391, 530.0774
1033.873, 515.5412
1034.356, 502.5841
1034.838, 490.3497
1035.320, 479.2010
1035.802, 469.7961
1036.284, 462.4562
1036.766, 456.0494
1037.248, 450.8116
1037.730, 445.9077
1038.213, 440.3340
1038.695, 434.8347
1039.177, 431.6713
1039.659, 430.4752
1040.141, 429.7828
1040.623, 428.8472
1041.105, 428.4022
1041.587, 428.5237
1042.069, 429.3413
1042.552, 431.1368
1043.034, 433.9061
1043.516, 437.5407
1043.998, 442.1663
1044.480, 446.7863
1044.962, 450.3056
1045.444, 453.6542
1045.926, 457.7211
1046.408, 462.6589
1046.891, 467.8427
1047.373, 473.4804
1047.855, 478.8374
1048.337, 484.0151
1048.819, 488.3077
1049.301, 489.5719
1049.783, 488.7907
1050.265, 488.5606
1050.748, 491.0474
1051.230, 491.6363
1051.712, 487.6899
1052.194, 481.9826
1052.676, 476.7158
1053.158, 471.9683
1053.640, 464.2574
1054.122, 453.6024
1054.604, 443.2715
1055.087, 435.7884
1055.569, 429.3052
1056.051, 422.7633
1056.533, 415.9045
1057.015, 407.8501
1057.497, 397.5161
1057.979, 388.8969
1058.461, 382.8061
1058.943, 377.9203
1059.426, 372.5270
1059.908, 367.1039
1060.390, 362.2930
1060.872, 358.1588
1061.354, 355.2708
1061.836, 355.0164
1062.318, 354.8063
1062.800, 353.2296
1063.283, 353.8032
1063.765, 351.3507
1064.247, 354.0173
1064.729, 356.0756
1065.211, 356.0200
1065.693, 356.0788
1066.175, 358.4611
1066.657, 361.5880
1067.140, 363.6858
1067.622, 364.6742
1068.104, 364.8857
1068.586, 364.4344
1069.068, 362.6433
1069.550, 358.5180
1070.032, 353.0477
1070.514, 347.9630
1070.996, 342.9053
1071.479, 336.5509
1071.961, 328.0215
1072.443, 318.6413
1072.925, 308.2588
1073.407, 297.5150
1073.889, 287.0468
1074.371, 276.9154
1074.853, 266.2861
1075.335, 255.1548
1075.818, 244.9823
1076.300, 237.1635
1076.782, 230.2625
1077.264, 223.8110
1077.746, 217.5753
1078.228, 210.8258
1078.710, 203.4901
1079.192, 197.2698
1079.675, 192.8816
1080.157, 189.3595
1080.639, 185.9256
1081.121, 182.5570
1081.603, 179.2636
1082.085, 176.0031
1082.567, 172.7598
1083.049, 169.4129
1083.531, 166.4213
1084.014, 163.9404
1084.496, 162.0303
1084.978, 161.2592
1085.460, 161.1693
1085.942, 160.4458
1086.424, 157.8474
1086.906, 155.5130
1087.388, 153.7613
1087.870, 152.5246
1088.353, 151.8555
1088.835, 151.7018
1089.317, 151.6406
1089.799, 151.6348
1090.281, 151.4016
1090.763, 150.5690
1091.245, 149.6272
1091.727, 148.8191
1092.209, 148.1415
1092.692, 147.5461
1093.174, 147.0080
1093.656, 146.7181
1094.138, 146.7267
1094.620, 146.9114
1095.102, 147.1658
1095.584, 147.5056
1096.066, 148.0025
1096.549, 148.6790
1097.031, 149.1784
1097.513, 149.4304
1097.995, 149.6333
1098.477, 149.8649
1098.959, 150.0880
1099.441, 150.2049
1099.923, 150.2557
1100.406, 150.3407
1100.888, 150.5276
1101.370, 150.6616
1101.852, 150.7009
1102.334, 150.6777
1102.816, 150.5502
1103.298, 150.3583
1103.780, 150.5118
1104.262, 150.9509
1104.745, 151.2551
1105.227, 150.9315
1105.709, 150.7132
1106.191, 151.1861
1106.673, 151.8799
1107.155, 152.1267
1107.637, 151.8861
1108.119, 151.4229
1108.601, 150.7207
1109.084, 150.1788
1109.566, 150.3982
1110.048, 150.7008
1110.530, 150.0825
1111.012, 148.8889
1111.494, 148.9715
1111.976, 150.7304
1112.458, 152.8695
1112.941, 155.4081
1113.423, 157.5677
1113.905, 157.9400
1114.387, 157.4601
1114.869, 157.6835
1115.351, 158.8552
1115.833, 159.8258
1116.315, 160.0021
1116.797, 160.5324
1117.280, 161.9233
1117.762, 163.7887
1118.244, 165.3681
1118.726, 166.6237
1119.208, 167.4671
1119.690, 167.7588
1120.172, 167.9682
1120.654, 168.2137
1121.136, 168.5184
1121.619, 168.9620
1122.101, 169.5014
1122.583, 169.7332
1123.065, 169.6568
1123.547, 169.2768
1124.029, 168.6074
1124.511, 167.6153
1124.993, 165.8636
1125.476, 164.0021
1125.958, 163.0351
1126.440, 163.3327
1126.922, 162.2156
1127.404, 159.5736
1127.886, 156.7814
1128.368, 155.0352
1128.850, 153.4487
1129.333, 150.8327
1129.815, 149.3836
1130.297, 145.7182
1130.779, 145.5590
1131.261, 144.4466
1131.743, 141.9343
1132.225, 139.1026
1132.707, 137.0108
1133.189, 135.3869
1133.672, 133.7936
1134.154, 132.2157
1134.636, 130.8584
1135.118, 130.1201
1135.600, 128.8904
1136.082, 126.6546
1136.564, 124.3230
1137.046, 123.4992
1137.528, 123.6757
1138.011, 123.9829
1138.493, 124.3847
1138.975, 123.5903
1139.457, 119.4215
1139.939, 116.0052
1140.421, 115.1920
1140.903, 115.9630
1141.385, 115.2552
1141.868, 113.3932
1142.350, 111.5807
1142.832, 110.1027
1143.314, 109.0031
1143.796, 108.8363
1144.278, 108.5872
1144.760, 107.5902
1145.242, 105.8829
1145.724, 103.7293
1146.207, 101.2405
1146.689, 99.43049
1147.171, 99.21274
1147.653, 99.16769
1148.135, 98.61327
1148.617, 97.57011
1149.099, 95.99587
1149.581, 93.74254
1150.063, 92.06200
1150.546, 90.96964
1151.028, 90.04163
1151.510, 89.10517
1151.992, 88.14024
1152.474, 87.11286
1152.956, 86.04891
1153.438, 84.99545
1153.920, 83.87789
1154.403, 83.06212
1154.885, 82.59138
1155.367, 82.27232
1155.849, 81.99937
1156.331, 81.74825
1156.813, 81.52690
1157.295, 81.31025
1157.777, 80.98319
1158.260, 80.50159
1158.742, 80.00743
1159.224, 79.51657
1159.706, 79.04401
1160.188, 78.62373
1160.670, 78.22706
1161.152, 77.75142
1161.634, 77.20910
1162.116, 76.91867
1162.599, 76.99944
1163.081, 77.24862
1163.563, 77.76118
1164.045, 78.14338
1164.527, 77.44298
1165.009, 76.25150
1165.491, 75.83494
1165.973, 76.47743
1166.455, 76.78242
1166.938, 76.05800
1167.420, 75.46156
1167.902, 75.40305
1168.384, 75.67377
1168.866, 75.80074
1169.348, 75.85953
1169.830, 76.09339
1170.312, 76.64278
1170.795, 77.03038
1171.277, 76.99809
1171.759, 76.85593
1172.241, 76.65208
1172.723, 76.48101
1173.205, 76.91335
1173.687, 77.71535
1174.169, 78.00924
1174.651, 77.20702
1175.134, 76.47667
1175.616, 76.27121
1176.098, 76.31530
1176.580, 76.52190
1177.062, 76.84670
1177.544, 76.94438
1178.026, 76.83264
1178.508, 76.59660
1178.990, 75.89011
1179.473, 75.60030
1179.955, 76.66243
1180.437, 77.89240
1180.919, 78.20142
1181.401, 77.59680
1181.883, 76.86819
1182.365, 76.05103
1182.847, 75.51092
1183.330, 75.93678
1183.812, 76.15688
1184.294, 75.03262
1184.776, 73.69216
1185.258, 73.68702
1185.740, 75.06342
1186.222, 75.72029
1186.704, 75.58341
1187.187, 75.25197
1187.669, 75.16146
1188.151, 74.96994
1188.633, 74.28751
1189.115, 73.43407
1189.597, 73.00212
1190.079, 73.01063
1190.561, 72.99988
1191.043, 72.92903
1191.526, 72.78603
1192.008, 72.42052
1192.490, 72.11413
1192.972, 72.18693
1193.454, 72.45020
1193.936, 72.36543
1194.418, 71.89947
1194.900, 71.63523
1195.382, 71.68298
1195.865, 71.65136
1196.347, 71.01978
1196.829, 70.34560
1197.311, 70.12474
1197.793, 70.24100
1198.275, 70.15867
1198.757, 69.86061
1199.239, 69.56002
1199.722, 69.25597
1200.204, 69.24885
1200.686, 70.30721
1201.168, 71.37529
1201.650, 71.38277
1202.132, 70.48301
1202.614, 69.97562
1203.096, 69.89249
1203.578, 69.74375
1204.061, 69.40050
1204.543, 68.97331
1205.025, 68.11149
1205.507, 67.54601
1205.989, 68.37907
1206.471, 70.47193
1206.953, 71.23690
1207.435, 70.59709
1207.917, 70.03137
1208.400, 70.02361
1208.882, 70.22602
1209.364, 70.56296
1209.846, 70.76608
1210.328, 70.34284
1210.810, 70.51837
1211.292, 70.63059
1211.774, 70.14638
1212.257, 70.68928
1212.739, 70.20813
1213.221, 69.48050
1213.703, 69.11180
1214.185, 68.97289
1214.667, 68.95965
1215.149, 69.06609
1215.631, 69.15634
1216.114, 69.24474
1216.596, 68.86691
1217.078, 67.51610
1217.560, 66.17635
1218.042, 65.84252
1218.524, 65.88568
1219.006, 65.42082
1219.488, 64.30447
1219.970, 64.60271
1220.453, 66.35588
1220.935, 67.55868
1221.417, 66.81016
1221.899, 65.71214
1222.381, 65.47605
1222.863, 65.64469
1223.345, 65.70712
1223.827, 65.67728
1224.309, 65.10950
1224.792, 64.00471
1225.274, 63.16000
1225.756, 63.26140
1226.238, 63.45647
1226.720, 63.07133
1227.202, 62.48113
1227.684, 62.17944
1228.166, 62.21181
1228.649, 62.08146
1229.131, 61.79459
1229.613, 61.48304
1230.095, 61.26862
1230.577, 61.00528
1231.059, 60.57447
1231.541, 60.05854
1232.023, 59.50397
1232.505, 58.89425
1232.988, 58.71910
1233.470, 58.94783
1233.952, 59.11613
1234.434, 58.67101
1234.916, 58.40058
1235.398, 59.02638
1235.880, 59.85580
1236.362, 60.16829
1236.844, 59.96815
1237.327, 59.25352
1237.809, 58.10059
1238.291, 57.24249
1238.773, 57.55623
1239.255, 57.74048
1239.737, 56.92421
1240.219, 55.92764
1240.701, 55.74776
1241.184, 56.24038
1241.666, 55.96779
1242.148, 54.99452
1242.630, 54.30067
1243.112, 54.74878
1243.594, 55.14193
1244.076, 55.00481
1244.558, 54.74822
1245.041, 54.80267
1245.523, 55.13623
1246.005, 55.80121
1246.487, 56.68481
1246.969, 57.10133
1247.451, 56.05534
1247.933, 55.45122
1248.415, 55.82022
1248.897, 56.56843
1249.380, 57.13171
1249.862, 57.50362
1250.344, 57.51146
1250.826, 57.24204
1251.308, 57.18552
1251.790, 57.74735
1252.272, 58.23826
1252.754, 58.52714
1253.236, 58.77351
1253.719, 59.22875
1254.201, 59.73717
1254.683, 60.05172
1255.165, 60.13845
1255.647, 59.89190
1256.129, 58.61003
1256.611, 58.27476
1257.093, 59.31920
1257.576, 60.67549
1258.058, 61.16475
1258.540, 61.25885
1259.022, 61.66721
1259.504, 62.32914
1259.986, 62.78824
1260.468, 62.95669
1260.950, 63.00480
1261.432, 62.91700
1261.915, 62.87512
1262.397, 63.28111
1262.879, 63.65320
1263.361, 63.25758
1263.843, 62.34455
1264.325, 61.94096
1264.807, 62.18590
1265.289, 62.48047
1265.771, 62.76712
1266.254, 63.07505
1266.736, 63.65300
1267.218, 64.05324
1267.700, 63.73433
1268.182, 62.95567
1268.664, 62.51255
1269.146, 62.44122
1269.628, 62.08051
1270.111, 61.35596
1270.593, 60.91543
1271.075, 61.54632
1271.557, 62.28777
1272.039, 62.70854
1272.521, 62.74602
1273.003, 62.08030
1273.485, 60.80332
1273.968, 60.07475
1274.450, 59.96577
1274.932, 59.93671
1275.414, 59.73302
1275.896, 59.43829
1276.378, 58.92428
1276.860, 58.50937
1277.342, 58.85216
1277.824, 59.67089
1278.307, 59.79667
1278.789, 59.21442
1279.271, 58.57111
1279.753, 58.11340
1280.235, 57.64353
1280.717, 56.97380
1281.199, 56.56494
1281.681, 57.35191
1282.163, 58.64550
1282.646, 58.80383
1283.128, 57.98149
1283.610, 57.56340
1284.092, 58.30974
1284.574, 58.67070
1285.056, 58.42962
1285.538, 57.97851
1286.020, 57.47635
1286.503, 57.16386
1286.985, 57.45939
1287.467, 58.22445
1287.949, 58.98038
1288.431, 59.82949
1288.913, 60.02072
1289.395, 59.41362
1289.877, 58.84186
1290.359, 59.39131
1290.842, 59.93359
1291.324, 59.06359
1291.806, 59.53595
1292.288, 59.66894
1292.770, 59.25521
1293.252, 59.93995
1293.734, 59.52462
1294.216, 58.95659
1294.698, 58.74348
1295.181, 58.69578
1295.663, 58.79111
1296.145, 58.94786
1296.627, 59.16545
1297.109, 59.39333
1297.591, 59.14970
1298.073, 58.47654
1298.555, 57.77752
1299.038, 56.83868
1299.520, 56.54247
1300.002, 57.24628
1300.484, 58.29285
1300.966, 59.32515
1301.448, 60.05948
1301.930, 59.48329
1302.412, 57.95362
1302.895, 56.80875
1303.377, 56.46887
1303.859, 56.75550
1304.341, 57.94664
1304.823, 58.73522
1305.305, 58.21816
##END=



