##NAMES=Libethenite
##RRUFFID=R050613
##IDEAL CHEMISTRY=Cu^2+^_2_PO_4_(OH)
##LOCALITY=Libethen, Banskobystricky, Slovakia
##OWNER=RRUFF
##SOURCE=University of Arizona Mineral Museum
##DESCRIPTION=Dark green wedge-shaped prismatic crystals
##STATUS=The identification of this mineral has been confirmed by X-ray diffraction and chemical analysis
##URL=rruff.info/R050613
##MEASURED CHEMISTRY=(Cu_0.98_Zn_0.02_)_2_(P_1.00_O_4_)((OH)_0.94_F_0.06_)
92.06543, 62.26687
92.54755, 62.01180
93.02966, 62.24970
93.51178, 63.02388
93.99390, 63.08500
94.47601, 62.16457
94.95813, 60.58845
95.44025, 58.87561
95.92236, 57.39914
96.40448, 56.14216
96.88660, 55.23276
97.36871, 54.89063
97.85082, 54.69356
98.33294, 54.48629
98.81506, 54.21763
99.29717, 53.56871
99.77929, 52.25788
100.2614, 50.37754
100.7435, 48.56336
101.2256, 46.82565
101.7078, 45.24078
102.1899, 44.02251
102.6720, 43.21888
103.1541, 42.80754
103.6362, 42.79782
104.1183, 43.17657
104.6005, 43.49651
105.0826, 43.35057
105.5647, 42.68581
106.0468, 41.97981
106.5289, 41.37679
107.0110, 40.71658
107.4931, 39.84027
107.9753, 38.70376
108.4574, 37.48528
108.9395, 36.51095
109.4216, 35.72698
109.9037, 35.33638
110.3858, 35.52957
110.8680, 36.01014
111.3501, 36.51889
111.8322, 36.92490
112.3143, 37.20825
112.7964, 37.22546
113.2785, 36.98055
113.7607, 36.50219
114.2428, 35.56002
114.7249, 34.34375
115.2070, 33.32401
115.6891, 32.88762
116.1712, 33.03358
116.6534, 33.02729
117.1355, 32.86019
117.6176, 32.55997
118.0997, 32.02943
118.5818, 31.23874
119.0639, 30.57911
119.5461, 30.50648
120.0282, 30.87731
120.5103, 31.34520
120.9924, 31.86411
121.4745, 32.40740
121.9566, 32.95219
122.4388, 33.61393
122.9209, 34.06297
123.4030, 34.09705
123.8851, 33.77346
124.3672, 33.28526
124.8493, 32.64343
125.3315, 31.80952
125.8136, 31.35833
126.2957, 31.72089
126.7778, 32.20855
127.2599, 32.60690
127.7420, 32.86337
128.2242, 33.00385
128.7063, 33.04479
129.1884, 32.91697
129.6705, 32.82811
130.1526, 32.97084
130.6347, 33.03860
131.1169, 32.74960
131.5990, 32.02385
132.0811, 31.05164
132.5632, 30.25137
133.0453, 29.76744
133.5274, 29.28636
134.0096, 28.68744
134.4917, 28.10394
134.9738, 27.77710
135.4559, 27.85814
135.9380, 28.18185
136.4201, 28.16998
136.9023, 27.60458
137.3844, 27.06910
137.8665, 26.83681
138.3486, 26.85849
138.8307, 26.92149
139.3128, 26.95074
139.7950, 26.92139
140.2771, 26.79644
140.7592, 26.51258
141.2413, 26.19454
141.7234, 25.95278
142.2055, 25.78762
142.6877, 25.70370
143.1698, 25.81039
143.6519, 25.97334
144.1340, 26.02911
144.6161, 25.88138
145.0982, 25.60529
145.5803, 25.40045
146.0625, 25.31657
146.5446, 25.22792
147.0267, 25.05554
147.5088, 24.85236
147.9909, 24.69312
148.4730, 24.61789
148.9552, 24.62809
149.4373, 24.74829
149.9194, 25.22237
150.4015, 25.58653
150.8836, 25.70113
151.3657, 25.60039
151.8479, 25.38104
152.3300, 25.10759
152.8121, 24.73828
153.2942, 24.58125
153.7763, 24.81604
154.2584, 25.05852
154.7406, 25.11830
155.2227, 24.98319
155.7048, 24.75293
156.1869, 24.52433
156.6690, 24.28866
157.1511, 24.11023
157.6333, 24.03111
158.1154, 23.98412
158.5975, 23.87418
159.0796, 23.67695
159.5617, 23.52988
160.0438, 23.69538
160.5260, 24.19992
161.0081, 24.53199
161.4902, 24.49105
161.9723, 24.21401
162.4544, 23.92256
162.9365, 23.63213
163.4187, 23.41488
163.9008, 23.38710
164.3829, 23.53902
164.8650, 23.67225
165.3471, 23.61555
165.8292, 23.41094
166.3113, 23.35358
166.7935, 23.64734
167.2756, 23.97406
167.7577, 24.06192
168.2398, 23.90702
168.7219, 23.72536
169.2040, 23.72340
169.6862, 23.92170
170.1683, 24.15812
170.6504, 24.57942
171.1325, 24.91373
171.6146, 24.98333
172.0967, 24.76013
172.5789, 24.37329
173.0610, 23.95587
173.5431, 23.35751
174.0252, 23.10348
174.5073, 23.45815
174.9894, 23.95874
175.4716, 24.25208
175.9537, 24.23022
176.4358, 24.05610
176.9179, 24.06936
177.4000, 24.57499
177.8821, 24.84396
178.3643, 24.66362
178.8464, 24.33312
179.3285, 24.18215
179.8106, 24.34553
180.2927, 24.67454
180.7748, 24.75932
181.2570, 24.32765
181.7391, 23.99093
182.2212, 23.93056
182.7033, 23.98523
183.1854, 23.87801
183.6675, 23.45291
184.1497, 22.85281
184.6318, 22.55155
185.1139, 22.67979
185.5960, 22.82158
186.0781, 22.84355
186.5602, 22.76902
187.0423, 22.64856
187.5245, 22.46872
188.0066, 22.29575
188.4887, 22.28428
188.9708, 22.54075
189.4529, 22.77033
189.9350, 22.77649
190.4172, 22.57318
190.8993, 22.30081
191.3814, 21.92642
191.8635, 21.57630
192.3456, 21.45971
192.8277, 21.71766
193.3099, 21.97070
193.7920, 21.76066
194.2741, 21.01266
194.7562, 20.35732
195.2383, 20.06488
195.7204, 19.99247
196.2026, 20.09869
196.6847, 20.41941
197.1668, 20.77202
197.6489, 20.85244
198.1310, 20.55834
198.6131, 20.28019
199.0953, 20.10226
199.5774, 20.00061
200.0595, 20.00073
200.5416, 20.12679
201.0237, 20.26867
201.5058, 20.13715
201.9880, 19.43264
202.4701, 19.00487
202.9522, 19.19628
203.4343, 19.61319
203.9164, 19.84979
204.3985, 19.71840
204.8807, 19.35787
205.3628, 19.18686
205.8449, 19.36388
206.3270, 19.54388
206.8091, 19.72305
207.2912, 19.87262
207.7733, 19.95127
208.2555, 19.93600
208.7376, 19.85889
209.2197, 19.83936
209.7018, 20.00476
210.1839, 20.08466
210.6660, 20.02526
211.1482, 19.86914
211.6303, 19.64243
212.1124, 19.34567
212.5945, 19.03646
213.0766, 18.96001
213.5587, 19.34922
214.0409, 19.67543
214.5230, 19.78926
215.0051, 19.77350
215.4872, 19.79973
215.9693, 19.97358
216.4514, 20.21687
216.9336, 20.21298
217.4157, 19.80025
217.8978, 19.41284
218.3799, 19.22368
218.8620, 19.17035
219.3441, 19.08203
219.8263, 18.85439
220.3084, 18.56873
220.7905, 18.45053
221.2726, 18.59444
221.7547, 18.72058
222.2368, 18.67051
222.7190, 18.47948
223.2011, 18.27541
223.6832, 18.06285
224.1653, 17.92153
224.6474, 17.99292
225.1295, 18.36891
225.6117, 18.73464
226.0938, 18.85544
226.5759, 18.75781
227.0580, 18.66633
227.5401, 18.69462
228.0222, 18.74107
228.5043, 18.64908
228.9865, 18.36701
229.4686, 18.12643
229.9507, 18.20647
230.4328, 18.60341
230.9149, 18.82821
231.3970, 18.52023
231.8792, 18.13195
232.3613, 18.10246
232.8434, 18.50553
233.3255, 18.94818
233.8076, 18.99022
234.2897, 18.58724
234.7719, 18.30676
235.2540, 18.42689
235.7361, 18.61278
236.2182, 18.65285
236.7003, 18.51898
237.1824, 18.32977
237.6646, 18.17483
238.1467, 18.03244
238.6288, 18.04722
239.1109, 18.49325
239.5930, 18.92495
240.0751, 19.05506
240.5573, 18.87318
241.0394, 18.63230
241.5215, 18.68063
242.0036, 19.15136
242.4857, 19.36308
242.9678, 18.99367
243.4500, 18.58642
243.9321, 18.40278
244.4142, 18.46836
244.8963, 18.65378
245.3784, 18.84240
245.8605, 19.07137
246.3427, 19.15936
246.8248, 18.97457
247.3069, 18.76988
247.7890, 18.66972
248.2711, 18.67664
248.7532, 18.71526
249.2354, 18.70208
249.7175, 18.61469
250.1996, 18.57378
250.6817, 18.62199
251.1638, 18.67297
251.6459, 18.68265
252.1281, 18.65416
252.6102, 18.61427
253.0923, 18.57866
253.5744, 18.52934
254.0565, 18.60670
254.5386, 18.96264
255.0208, 19.28268
255.5029, 19.42386
255.9850, 19.39611
256.4671, 19.28432
256.9492, 19.15184
257.4313, 18.99365
257.9135, 18.87993
258.3956, 18.89139
258.8777, 18.86066
259.3598, 18.63953
259.8419, 18.29777
260.3240, 18.04804
260.8062, 18.05971
261.2883, 18.33188
261.7704, 18.58473
262.2525, 18.95679
262.7346, 19.18317
263.2167, 19.05705
263.6989, 18.68344
264.1810, 18.35398
264.6631, 18.26779
265.1452, 18.38638
265.6273, 18.36075
266.1094, 17.93303
266.5916, 17.66366
267.0737, 17.89254
267.5558, 18.44259
268.0379, 18.90167
268.5200, 19.05037
269.0021, 18.93438
269.4843, 18.73643
269.9664, 18.32228
270.4485, 18.00388
270.9306, 17.92857
271.4127, 18.01979
271.8948, 18.13173
272.3770, 18.21573
272.8591, 18.25426
273.3412, 18.17957
273.8233, 17.92401
274.3054, 17.72017
274.7875, 17.59231
275.2697, 17.56928
275.7518, 17.76145
276.2339, 18.26103
276.7160, 18.85109
277.1981, 19.06821
277.6802, 18.85819
278.1623, 18.68723
278.6444, 18.75510
279.1266, 18.93144
279.6087, 18.97220
280.0908, 18.79100
280.5729, 18.55563
281.0550, 18.51801
281.5371, 18.67444
282.0193, 18.81157
282.5014, 18.90918
282.9835, 18.94531
283.4656, 18.81923
283.9477, 18.47256
284.4298, 18.20077
284.9120, 18.46572
285.3941, 19.17763
285.8762, 19.62916
286.3583, 19.43771
286.8404, 19.01966
287.3225, 18.92953
287.8047, 19.24956
288.2868, 19.57689
288.7689, 19.54511
289.2510, 19.24604
289.7331, 19.00763
290.2152, 18.92282
290.6974, 18.89729
291.1795, 18.84221
291.6616, 18.75545
292.1437, 18.65439
292.6258, 18.51711
293.1079, 18.38157
293.5901, 18.32941
294.0722, 18.37745
294.5543, 18.50164
295.0364, 18.77744
295.5185, 19.18780
296.0006, 19.38794
296.4828, 19.11156
296.9649, 18.57922
297.4470, 18.19983
297.9291, 18.01671
298.4112, 17.91339
298.8933, 17.81524
299.3755, 17.72782
299.8576, 17.69856
300.3397, 17.80582
300.8218, 17.90704
301.3039, 17.79745
301.7860, 17.44987
302.2682, 17.10520
302.7503, 16.88836
303.2324, 16.77937
303.7145, 16.71491
304.1966, 16.70603
304.6787, 16.69658
305.1609, 16.61020
305.6430, 16.45704
306.1251, 16.33290
306.6072, 16.35454
307.0893, 16.42512
307.5714, 16.27843
308.0536, 15.79124
308.5357, 15.35203
309.0178, 15.39094
309.4999, 15.75430
309.9820, 16.05073
310.4641, 16.08692
310.9463, 16.00978
311.4284, 16.08698
311.9105, 16.37369
312.3926, 16.32611
312.8747, 16.66950
313.3568, 16.87338
313.8390, 16.94526
314.3211, 16.48973
314.8032, 16.71523
315.2853, 16.66780
315.7674, 16.47781
316.2495, 16.21436
316.7317, 16.02238
317.2138, 15.89549
317.6959, 15.82130
318.1780, 15.81032
318.6601, 15.82290
319.1422, 15.85659
319.6243, 15.90127
320.1064, 15.87722
320.5886, 15.72228
321.0707, 15.52876
321.5528, 15.43774
322.0349, 15.46119
322.5170, 15.42099
322.9991, 15.13083
323.4813, 14.69931
323.9634, 14.44806
324.4455, 14.47759
324.9276, 14.60857
325.4097, 14.69486
325.8918, 14.73953
326.3740, 14.72814
326.8561, 14.59457
327.3382, 14.42237
327.8203, 14.37186
328.3024, 14.48235
328.7845, 14.56914
329.2667, 14.41712
329.7488, 14.13397
330.2309, 13.99254
330.7130, 14.15018
331.1951, 14.39558
331.6772, 14.53105
332.1594, 14.55758
332.6415, 14.53373
333.1236, 14.45876
333.6057, 14.36638
334.0878, 14.33177
334.5699, 14.39534
335.0521, 14.44685
335.5342, 14.37438
336.0163, 14.21667
336.4984, 14.16269
336.9805, 14.33992
337.4626, 14.56080
337.9448, 14.48531
338.4269, 14.06089
338.9090, 13.75004
339.3911, 13.85953
339.8732, 14.18473
340.3553, 14.31892
340.8375, 14.15551
341.3196, 13.90286
341.8017, 13.76771
342.2838, 13.74067
342.7659, 13.78533
343.2480, 14.00870
343.7302, 14.23663
344.2123, 14.23134
344.6944, 13.97938
345.1765, 13.74597
345.6586, 13.72614
346.1407, 13.90392
346.6229, 14.07752
347.1050, 14.33446
347.5871, 14.50620
348.0692, 14.39296
348.5513, 14.07906
349.0334, 13.92120
349.5156, 14.16690
349.9977, 14.59957
350.4798, 14.58698
350.9619, 13.86951
351.4440, 13.31381
351.9261, 13.28983
352.4083, 13.58534
352.8904, 13.89125
353.3725, 14.12656
353.8546, 14.26302
354.3367, 14.23045
354.8188, 13.97566
355.3010, 13.78022
355.7831, 13.67025
356.2652, 13.62923
356.7473, 13.65379
357.2294, 13.73983
357.7115, 13.86829
358.1937, 14.04366
358.6758, 14.26762
359.1579, 14.35840
359.6400, 14.22437
360.1221, 14.06118
360.6042, 13.91272
361.0863, 13.80829
361.5685, 13.81780
362.0506, 13.99111
362.5327, 14.28816
363.0148, 14.54634
363.4969, 14.78396
363.9790, 14.96317
364.4612, 15.06772
364.9433, 15.11534
365.4254, 15.09316
365.9075, 15.00183
366.3896, 14.92697
366.8717, 15.01871
367.3539, 15.41853
367.8360, 15.66031
368.3181, 15.60542
368.8002, 15.51038
369.2823, 15.57848
369.7644, 15.79753
370.2466, 16.00035
370.7287, 16.03506
371.2108, 15.89360
371.6929, 15.70788
372.1750, 15.32394
372.6571, 15.06173
373.1393, 15.09512
373.6214, 15.30371
374.1035, 15.48431
374.5856, 15.52577
375.0677, 15.45696
375.5498, 15.36451
376.0320, 15.17813
376.5141, 15.07860
376.9962, 15.17090
377.4783, 15.29675
377.9604, 15.32079
378.4425, 15.20933
378.9247, 15.01769
379.4068, 14.78844
379.8889, 14.46314
380.3710, 14.30934
380.8531, 14.59517
381.3352, 14.81183
381.8174, 14.66819
382.2995, 14.24627
382.7816, 13.83150
383.2637, 13.64485
383.7458, 13.65184
384.2279, 13.61518
384.7101, 13.48264
385.1922, 13.38750
385.6743, 13.43592
386.1564, 13.51496
386.6385, 13.44896
387.1206, 13.14399
387.6028, 12.80905
388.0849, 12.85978
388.5670, 13.42885
389.0491, 13.74423
389.5312, 13.33321
390.0133, 12.81507
390.4955, 12.61341
390.9776, 12.74796
391.4597, 12.92489
391.9418, 12.87730
392.4239, 12.65760
392.9060, 12.59734
393.3882, 12.81013
393.8703, 13.02295
394.3524, 13.01173
394.8345, 12.87043
395.3166, 12.80511
395.7987, 12.95349
396.2809, 13.16665
396.7630, 13.23671
397.2451, 13.15737
397.7272, 13.03468
398.2093, 12.87170
398.6914, 12.71928
399.1736, 12.67441
399.6557, 12.78929
400.1378, 12.84843
400.6199, 12.63077
401.1020, 12.25696
401.5841, 12.07478
402.0662, 12.19710
402.5483, 12.42637
403.0305, 12.54444
403.5126, 12.55951
403.9947, 12.55455
404.4768, 12.57568
404.9589, 12.56199
405.4410, 12.41546
405.9232, 12.15020
406.4053, 11.91407
406.8874, 11.78906
407.3695, 11.77930
407.8516, 11.88696
408.3337, 12.33760
408.8159, 12.62897
409.2980, 12.43111
409.7801, 12.01557
410.2622, 11.85557
410.7443, 12.11795
411.2264, 12.54647
411.7086, 12.73088
412.1907, 12.54916
412.6728, 12.40257
413.1549, 12.26177
413.6370, 12.17721
414.1191, 12.17953
414.6013, 12.27038
415.0834, 12.45513
415.5655, 12.75840
416.0476, 13.16543
416.5297, 13.39691
417.0118, 13.33962
417.4940, 13.22715
417.9761, 13.03527
418.4582, 12.83136
418.9403, 12.71135
419.4224, 12.70846
419.9045, 12.74778
420.3867, 12.69663
420.8688, 12.52702
421.3509, 12.34033
421.8330, 12.02582
422.3151, 11.79385
422.7972, 11.83539
423.2794, 12.08731
423.7615, 12.29286
424.2436, 12.19853
424.7257, 11.87610
425.2078, 11.84169
425.6899, 12.31312
426.1721, 12.69156
426.6542, 12.67245
427.1363, 12.48947
427.6184, 12.44578
428.1005, 12.66265
428.5826, 12.90229
429.0648, 12.80842
429.5469, 12.37384
430.0290, 12.12182
430.5111, 12.29975
430.9932, 12.54897
431.4753, 12.51089
431.9575, 12.22407
432.4396, 12.00657
432.9217, 12.07056
433.4038, 12.27926
433.8859, 12.39141
434.3680, 12.38484
434.8502, 12.38302
435.3323, 12.46054
435.8144, 12.60269
436.2965, 12.76688
436.7786, 13.03219
437.2607, 13.19783
437.7429, 13.14053
438.2250, 12.90361
438.7071, 12.51672
439.1892, 11.94906
439.6713, 11.45043
440.1534, 11.42851
440.6356, 12.03319
441.1177, 12.43784
441.5998, 12.46237
442.0819, 12.38152
442.5640, 12.40094
443.0461, 12.50422
443.5282, 12.53778
444.0103, 12.38117
444.4925, 12.08841
444.9746, 11.96672
445.4567, 12.26552
445.9388, 12.42764
446.4209, 12.27777
446.9030, 12.02406
447.3852, 11.88201
447.8673, 11.90425
448.3494, 11.98357
448.8315, 11.97893
449.3136, 11.86446
449.7957, 11.79605
450.2779, 11.71628
450.7600, 11.74253
451.2421, 12.05832
451.7242, 12.49552
452.2063, 12.72178
452.6884, 12.52288
453.1706, 12.09679
453.6527, 11.91671
454.1348, 12.05067
454.6169, 12.21793
455.0990, 12.39474
455.5811, 12.55085
456.0633, 12.67069
456.5454, 12.75046
457.0275, 12.78039
457.5096, 12.72343
457.9917, 12.60785
458.4738, 12.52277
458.9560, 12.45856
459.4381, 12.46953
459.9202, 12.72320
460.4023, 13.05917
460.8844, 13.14447
461.3665, 12.73693
461.8487, 12.33187
462.3308, 12.39357
462.8129, 12.78392
463.2950, 12.99910
463.7771, 12.84894
464.2592, 12.54507
464.7414, 12.37345
465.2235, 12.34101
465.7056, 12.36947
466.1877, 12.53166
466.6698, 12.69021
467.1519, 12.72562
467.6341, 12.64936
468.1162, 12.54429
468.5983, 12.45995
469.0804, 12.39402
469.5625, 12.33904
470.0446, 12.39299
470.5268, 12.33083
471.0089, 11.99902
471.4910, 11.62263
471.9731, 11.41555
472.4552, 11.41514
472.9373, 11.51778
473.4195, 11.61655
473.9016, 11.70932
474.3837, 11.82601
474.8658, 12.06038
475.3479, 12.20935
475.8300, 12.15473
476.3122, 11.99918
476.7943, 11.89960
477.2764, 11.92796
477.7585, 11.98557
478.2406, 11.87685
478.7227, 11.56695
479.2049, 11.42253
479.6870, 11.67411
480.1691, 11.94093
480.6512, 11.91091
481.1333, 11.63812
481.6154, 11.39864
482.0976, 11.32967
482.5797, 11.37017
483.0618, 11.41203
483.5439, 11.45221
484.0260, 11.60175
484.5081, 12.01728
484.9902, 12.50305
485.4724, 12.62485
485.9545, 12.25011
486.4366, 11.93064
486.9187, 11.90866
487.4008, 12.02554
487.8829, 12.08518
488.3651, 12.05409
488.8472, 11.96271
489.3293, 11.82007
489.8114, 11.62647
490.2935, 11.54570
490.7756, 11.70785
491.2578, 11.80974
491.7399, 11.70436
492.2220, 11.51214
492.7041, 11.41282
493.1862, 11.46176
493.6683, 11.54555
494.1505, 11.48438
494.6326, 11.22005
495.1147, 11.04268
495.5968, 11.01924
496.0789, 11.02100
496.5610, 10.96769
497.0432, 10.91004
497.5253, 10.97344
498.0074, 11.25391
498.4895, 11.59318
498.9716, 11.66115
499.4537, 11.40573
499.9359, 11.21097
500.4180, 11.21377
500.9001, 11.26556
501.3822, 11.22172
501.8643, 11.09404
502.3464, 11.02122
502.8286, 11.15811
503.3107, 11.34831
503.7928, 11.28257
504.2749, 10.95273
504.7570, 10.77328
505.2391, 11.03401
505.7213, 11.54283
506.2034, 11.77235
506.6855, 11.59868
507.1676, 11.47479
507.6497, 11.64884
508.1318, 11.86603
508.6140, 11.77638
509.0961, 11.36571
509.5782, 10.95723
510.0603, 10.84400
510.5424, 11.00748
511.0245, 11.07097
511.5067, 10.88507
511.9888, 10.77992
512.4709, 10.86542
512.9530, 11.03112
513.4351, 11.16430
513.9172, 11.23266
514.3994, 11.26522
514.8815, 11.30697
515.3636, 11.36466
515.8457, 11.33976
516.3278, 11.18458
516.8099, 11.00609
517.2921, 10.79792
517.7742, 10.61135
518.2563, 10.54277
518.7384, 10.65204
519.2205, 10.79039
519.7026, 10.81223
520.1848, 10.46578
520.6669, 10.79044
521.1490, 10.97559
521.6311, 11.02873
522.1132, 10.55448
522.5953, 10.76125
523.0775, 10.69509
523.5596, 10.61775
524.0417, 10.92036
524.5238, 10.52282
525.0059, 10.81941
525.4880, 10.83891
525.9702, 10.98524
526.4523, 10.85695
526.9344, 10.81348
527.4165, 11.04471
527.8986, 11.12383
528.3807, 10.96393
528.8629, 11.11832
529.3450, 10.71118
529.8271, 10.79678
530.3092, 11.09498
530.7913, 10.94889
531.2734, 11.10829
531.7556, 11.06342
532.2377, 11.21995
532.7198, 11.27730
533.2019, 11.06376
533.6840, 10.88220
534.1661, 10.95120
534.6483, 11.22248
535.1304, 11.45430
535.6125, 11.51029
536.0946, 11.44216
536.5767, 11.31498
537.0588, 11.12410
537.5410, 10.97200
538.0231, 10.90326
538.5052, 10.89177
538.9873, 10.90286
539.4694, 10.94037
539.9515, 10.96832
540.4337, 10.98989
540.9158, 10.98862
541.3979, 10.93206
541.8800, 10.83051
542.3621, 10.73408
542.8442, 10.66962
543.3264, 10.64096
543.8085, 10.66227
544.2906, 10.79649
544.7726, 10.89386
545.2548, 10.91108
545.7369, 10.92305
546.2190, 11.00763
546.7011, 11.14630
547.1832, 11.24906
547.6653, 11.24200
548.1475, 11.15002
548.6296, 11.05185
549.1117, 10.89900
549.5938, 10.86762
550.0759, 11.11866
550.5580, 11.44193
551.0402, 11.75660
551.5223, 12.03610
552.0044, 12.10034
552.4865, 11.51869
552.9686, 10.77365
553.4507, 10.91703
553.9329, 11.49543
554.4150, 11.67706
554.8971, 11.71918
555.3792, 11.62929
555.8613, 11.01201
556.3434, 11.32292
556.8256, 11.31279
557.3077, 11.46441
557.7898, 11.65631
558.2719, 11.79852
558.7540, 11.87520
559.2361, 11.88234
559.7183, 11.81244
560.2004, 11.68138
560.6825, 11.55292
561.1646, 11.43230
561.6467, 11.30671
562.1288, 11.11179
562.6110, 10.96041
563.0931, 10.95655
563.5752, 11.08367
564.0573, 11.22802
564.5394, 11.32192
565.0215, 11.37058
565.5037, 11.37022
565.9858, 11.30774
566.4679, 11.27991
566.9500, 11.30890
567.4321, 11.40558
567.9142, 11.64530
568.3964, 12.05441
568.8785, 12.23986
569.3606, 11.85056
569.8427, 11.32462
570.3248, 11.11550
570.8069, 11.20358
571.2891, 11.35239
571.7712, 11.44363
572.2533, 11.48532
572.7354, 11.49463
573.2175, 11.44457
573.6996, 11.40865
574.1818, 11.35520
574.6639, 11.34250
575.1460, 11.44590
575.6281, 11.62087
576.1102, 11.75768
576.5923, 11.79465
577.0745, 11.74734
577.5566, 11.60582
578.0387, 11.32272
578.5208, 11.21762
579.0029, 11.52679
579.4850, 11.85002
579.9672, 11.86569
580.4493, 11.62964
580.9314, 11.39171
581.4135, 11.22724
581.8956, 11.11269
582.3777, 11.02496
582.8599, 10.96687
583.3420, 10.94999
583.8241, 10.98015
584.3062, 11.04827
584.7883, 11.16045
585.2704, 11.35068
585.7526, 11.39790
586.2347, 11.15063
586.7168, 10.93223
587.1989, 10.92239
587.6810, 11.02172
588.1631, 11.04821
588.6453, 10.93848
589.1274, 10.80492
589.6095, 10.82338
590.0916, 11.01503
590.5737, 11.16141
591.0558, 11.24307
591.5380, 11.30319
592.0201, 11.37932
592.5022, 11.44336
592.9843, 11.44357
593.4664, 11.35342
593.9485, 11.25182
594.4307, 11.22777
594.9128, 11.23379
595.3949, 11.13639
595.8770, 10.91058
596.3591, 10.68341
596.8412, 10.53665
597.3234, 10.47161
597.8055, 10.50547
598.2876, 10.66263
598.7697, 10.86893
599.2518, 11.25738
599.7339, 11.59700
600.2161, 11.60657
600.6982, 11.30890
601.1803, 10.99480
601.6624, 10.90255
602.1445, 10.97855
602.6266, 10.95994
603.1088, 10.76803
603.5909, 10.68771
604.0730, 10.92861
604.5551, 11.20936
605.0372, 11.32901
605.5193, 11.28562
606.0015, 11.17992
606.4836, 10.96137
606.9657, 10.76849
607.4478, 10.86546
607.9299, 11.18777
608.4120, 11.30378
608.8942, 10.99463
609.3763, 10.56641
609.8584, 10.51986
610.3405, 11.03698
610.8226, 11.25891
611.3047, 10.99100
611.7869, 10.47467
612.2690, 10.91922
612.7511, 11.22427
613.2332, 11.39732
613.7153, 11.04294
614.1974, 11.36961
614.6796, 11.42337
615.1617, 11.08631
615.6438, 10.90537
616.1259, 10.94420
616.6080, 10.99533
617.0901, 10.93584
617.5723, 10.82757
618.0544, 10.75488
618.5365, 10.73130
619.0186, 10.74367
619.5007, 10.80432
619.9828, 10.88828
620.4650, 10.94609
620.9471, 10.97640
621.4292, 11.03685
621.9113, 11.17641
622.3934, 11.36348
622.8755, 11.47474
623.3577, 11.47189
623.8398, 11.44251
624.3219, 11.37078
624.8040, 11.28845
625.2861, 11.21117
625.7682, 11.14229
626.2504, 11.07783
626.7325, 11.01045
627.2145, 10.96087
627.6967, 10.98683
628.1788, 11.09337
628.6609, 11.14610
629.1430, 11.07777
629.6251, 11.01414
630.1072, 11.13843
630.5894, 11.37928
631.0715, 11.45969
631.5536, 11.14863
632.0357, 10.87648
632.5178, 10.96091
632.9999, 11.19091
633.4821, 11.19640
633.9642, 10.91432
634.4463, 10.58883
634.9284, 10.44005
635.4105, 10.46482
635.8926, 10.64056
636.3748, 11.16937
636.8569, 11.52142
637.3390, 11.53794
637.8211, 11.41340
638.3032, 11.26901
638.7853, 11.13081
639.2675, 11.01458
639.7496, 10.90904
640.2317, 10.84519
640.7138, 10.89119
641.1959, 11.03984
641.6780, 11.22873
642.1602, 11.48697
642.6423, 11.64167
643.1244, 11.38673
643.6065, 10.60127
644.0886, 10.22292
644.5707, 10.61810
645.0529, 11.01136
645.5350, 11.02978
646.0171, 10.87143
646.4992, 10.84774
646.9813, 11.03647
647.4634, 11.26534
647.9456, 11.34237
648.4277, 11.28100
648.9098, 11.23755
649.3919, 11.20772
649.8740, 11.21126
650.3561, 11.36472
650.8383, 11.48384
651.3204, 11.28073
651.8025, 10.71793
652.2846, 10.34430
652.7667, 10.55076
653.2488, 10.90440
653.7310, 10.96702
654.2131, 10.79982
654.6952, 10.66061
655.1773, 10.65535
655.6594, 10.75881
656.1415, 10.96245
656.6237, 11.33701
657.1058, 11.47831
657.5879, 11.06196
658.0700, 10.76583
658.5521, 10.89143
659.0342, 11.18338
659.5164, 11.30356
659.9985, 11.17338
660.4806, 11.00962
660.9627, 11.02036
661.4448, 11.11936
661.9269, 11.03759
662.4091, 10.76100
662.8912, 10.69896
663.3733, 10.95887
663.8554, 11.27671
664.3375, 11.45504
664.8196, 11.50137
665.3018, 11.02030
665.7839, 11.22025
666.2660, 11.14728
666.7481, 11.06312
667.2302, 11.35892
667.7123, 11.08670
668.1945, 10.89918
668.6766, 10.70283
669.1587, 10.69958
669.6408, 10.87294
670.1229, 10.95674
670.6050, 10.91276
671.0872, 10.87368
671.5693, 10.93175
672.0514, 11.01946
672.5335, 11.01742
673.0156, 10.90595
673.4977, 10.79521
673.9799, 10.70434
674.4620, 10.63822
674.9441, 10.60737
675.4262, 10.60454
675.9083, 10.61942
676.3904, 10.64757
676.8726, 10.66289
677.3547, 10.62064
677.8368, 10.51383
678.3189, 10.38595
678.8010, 10.13854
679.2831, 10.01741
679.7653, 10.20912
680.2474, 10.52571
680.7295, 10.73906
681.2116, 10.80842
681.6937, 10.84282
682.1758, 10.91992
682.6580, 10.98533
683.1401, 10.94679
683.6222, 10.82134
684.1043, 10.70062
684.5864, 10.62107
685.0685, 10.60718
685.5507, 10.72679
686.0328, 11.06726
686.5149, 11.19010
686.9970, 10.81615
687.4791, 10.53609
687.9612, 10.59312
688.4434, 10.80658
688.9255, 10.98051
689.4076, 11.06503
689.8897, 11.03236
690.3718, 10.51593
690.8539, 10.84431
691.3361, 11.03319
691.8182, 11.09005
692.3003, 10.61953
692.7824, 10.83002
693.2645, 10.76759
693.7466, 10.69397
694.2288, 11.00031
694.7109, 10.60649
695.1930, 10.90681
695.6751, 10.93004
696.1572, 11.08009
696.6393, 10.95553
697.1215, 11.16483
697.6036, 11.14814
698.0857, 11.05205
698.5678, 11.02168
699.0499, 11.04038
699.5320, 11.10190
700.0142, 11.21441
700.4963, 11.13508
700.9784, 10.67577
701.4605, 10.16163
701.9426, 10.07120
702.4247, 10.47807
702.9069, 10.75589
703.3890, 10.87570
703.8711, 10.89002
704.3532, 10.75522
704.8353, 10.55907
705.3174, 10.36830
705.7996, 10.21802
706.2817, 10.17421
706.7638, 10.32456
707.2459, 10.60988
707.7280, 10.87326
708.2101, 11.12593
708.6923, 11.21954
709.1743, 11.01353
709.6564, 10.78570
710.1385, 10.93466
710.6207, 11.41056
711.1028, 11.56651
711.5849, 11.02923
712.0670, 10.55830
712.5491, 10.47447
713.0313, 10.59053
713.5134, 10.73526
713.9955, 10.85588
714.4776, 10.90786
714.9597, 10.83640
715.4418, 10.71435
715.9240, 10.77261
716.4061, 11.04284
716.8882, 11.19943
717.3703, 11.10841
717.8524, 11.00570
718.3345, 11.16264
718.8167, 11.47560
719.2988, 11.57509
719.7809, 11.28624
720.2630, 11.00308
720.7451, 10.81968
721.2272, 10.73202
721.7094, 10.77585
722.1915, 10.91764
722.6736, 11.04977
723.1557, 11.10710
723.6378, 11.12520
724.1199, 11.17759
724.6021, 11.26863
725.0842, 11.35011
725.5663, 11.44432
726.0484, 11.47456
726.5305, 11.37341
727.0126, 11.17961
727.4948, 10.95427
727.9769, 10.64995
728.4590, 10.46447
728.9411, 10.47385
729.4232, 10.60977
729.9053, 10.97622
730.3875, 11.40705
730.8696, 11.45798
731.3517, 10.94869
731.8338, 10.32056
732.3159, 10.22993
732.7980, 10.67624
733.2802, 11.03470
733.7623, 11.30126
734.2444, 11.49453
734.7265, 11.65810
735.2086, 11.72111
735.6907, 11.52606
736.1729, 11.04241
736.6550, 10.74737
737.1371, 10.90554
737.6192, 11.10536
738.1013, 11.05599
738.5834, 10.89876
739.0656, 10.92435
739.5477, 11.17330
740.0298, 11.35905
740.5119, 11.15750
740.9940, 10.69556
741.4761, 10.53006
741.9583, 10.71179
742.4404, 10.90694
742.9225, 11.04972
743.4046, 11.15102
743.8867, 11.19850
744.3688, 11.20531
744.8510, 11.24852
745.3331, 11.42876
745.8152, 11.52771
746.2973, 11.41352
746.7794, 11.22461
747.2615, 11.05602
747.7437, 10.94863
748.2258, 10.98328
748.7079, 11.23515
749.1900, 11.53468
749.6721, 11.50502
750.1542, 11.15453
750.6364, 11.03055
751.1185, 11.25732
751.6006, 11.51464
752.0827, 11.60739
752.5648, 11.58730
753.0469, 11.60855
753.5291, 11.72811
754.0112, 11.73657
754.4933, 11.47873
754.9754, 11.22755
755.4575, 11.15297
755.9396, 11.20610
756.4218, 11.30821
756.9039, 11.42648
757.3860, 11.49251
757.8681, 11.35918
758.3502, 11.11629
758.8323, 11.13425
759.3145, 11.42810
759.7966, 11.63630
760.2787, 11.60009
760.7608, 11.48494
761.2429, 11.52936
761.7250, 11.76521
762.2072, 11.76930
762.6893, 11.23301
763.1714, 10.88022
763.6535, 10.99263
764.1356, 11.27968
764.6177, 11.55382
765.0999, 11.74892
765.5820, 11.77220
766.0641, 11.50844
766.5462, 11.16553
767.0283, 10.99641
767.5104, 10.97901
767.9926, 11.07730
768.4747, 11.28911
768.9568, 11.41379
769.4389, 11.26944
769.9210, 10.98383
770.4031, 11.00028
770.8853, 11.61959
771.3674, 11.95140
771.8495, 11.75547
772.3316, 11.54409
772.8137, 11.56887
773.2958, 11.70177
773.7780, 11.71600
774.2601, 11.55299
774.7422, 11.41653
775.2243, 11.48026
775.7064, 11.61307
776.1885, 11.63622
776.6707, 11.57595
777.1528, 11.56778
777.6349, 11.65870
778.1170, 11.73290
778.5991, 11.63507
779.0812, 11.37817
779.5634, 11.22771
780.0455, 11.16832
780.5276, 11.25700
781.0097, 11.72642
781.4918, 12.14976
781.9739, 12.08926
782.4561, 11.67772
782.9382, 11.48812
783.4203, 11.79956
783.9024, 12.13192
784.3845, 12.29515
784.8666, 12.33244
785.3488, 12.24289
785.8309, 12.06954
786.3130, 11.94710
786.7951, 11.95591
787.2772, 11.97868
787.7593, 11.76563
788.2415, 11.32675
788.7236, 11.07554
789.2057, 11.07217
789.6878, 11.11046
790.1699, 11.12019
790.6520, 11.08972
791.1342, 10.96934
791.6162, 10.72241
792.0983, 10.61016
792.5804, 10.77147
793.0626, 10.92420
793.5447, 10.87150
794.0268, 10.80121
794.5089, 11.01212
794.9910, 11.47971
795.4731, 11.82147
795.9553, 11.72753
796.4374, 11.45006
796.9195, 11.36687
797.4016, 11.43927
797.8837, 11.50503
798.3658, 11.53491
798.8480, 11.53138
799.3301, 11.48434
799.8122, 11.42150
800.2943, 11.43044
800.7764, 11.48720
801.2585, 11.66708
801.7407, 12.23813
802.2228, 12.64100
802.7049, 12.57211
803.1870, 12.24348
803.6691, 11.90870
804.1512, 11.60553
804.6334, 11.44760
805.1155, 11.65523
805.5976, 11.89447
806.0797, 11.73500
806.5618, 11.38797
807.0439, 11.38539
807.5261, 11.83650
808.0082, 12.31517
808.4903, 12.41824
808.9724, 12.23258
809.4545, 12.06864
809.9366, 11.92310
810.4188, 11.80979
810.9009, 11.70396
811.3830, 11.68788
811.8651, 11.86995
812.3472, 12.18833
812.8293, 12.43040
813.3115, 12.65776
813.7936, 12.68034
814.2757, 12.27486
814.7578, 11.85131
815.2399, 11.60881
815.7220, 11.54597
816.2042, 11.65123
816.6863, 11.91207
817.1684, 12.23066
817.6505, 12.61496
818.1326, 12.95461
818.6147, 13.00302
819.0969, 12.80257
819.5790, 12.55876
820.0611, 12.32415
820.5432, 12.18086
821.0253, 12.22464
821.5074, 12.42228
821.9896, 12.55528
822.4717, 12.61914
822.9538, 12.63028
823.4359, 12.57795
823.9180, 12.48460
824.4001, 12.31030
824.8823, 12.11852
825.3644, 12.02811
825.8465, 12.06069
826.3286, 12.18058
826.8107, 12.50051
827.2928, 12.78940
827.7750, 12.82092
828.2571, 12.68574
828.7392, 12.55529
829.2213, 12.48820
829.7034, 12.48896
830.1855, 12.58701
830.6677, 12.73744
831.1498, 12.82426
831.6319, 12.84685
832.1140, 12.75874
832.5961, 12.50948
833.0782, 12.33611
833.5604, 12.47213
834.0425, 12.82262
834.5246, 12.98254
835.0067, 12.86566
835.4888, 12.69773
835.9709, 12.32788
836.4531, 12.07635
836.9352, 12.19860
837.4173, 12.47519
837.8994, 12.56204
838.3815, 12.39229
838.8636, 12.23816
839.3458, 12.29291
839.8279, 12.37252
840.3100, 12.26743
840.7921, 12.07306
841.2742, 11.99487
841.7563, 12.06597
842.2385, 12.16912
842.7206, 12.21902
843.2027, 11.97795
843.6848, 12.27097
844.1669, 12.42448
844.6490, 12.44597
845.1312, 11.94007
845.6133, 12.11520
846.0954, 12.01740
846.5775, 11.90841
847.0596, 12.17939
847.5417, 11.75020
848.0239, 12.01515
848.5060, 12.03051
848.9881, 12.19094
849.4702, 12.60044
849.9523, 12.98806
850.4344, 13.04689
850.9166, 12.78003
851.3987, 12.43390
851.8808, 11.99559
852.3629, 11.69587
852.8450, 11.87570
853.3271, 12.24958
853.8093, 12.32529
854.2914, 12.10108
854.7735, 11.88035
855.2556, 11.82903
855.7377, 11.89328
856.2198, 12.02355
856.7020, 12.21361
857.1841, 12.27280
857.6662, 12.16504
858.1483, 12.11154
858.6304, 12.21180
859.1125, 12.37100
859.5947, 12.50485
860.0768, 12.61345
860.5589, 12.57438
861.0410, 12.25723
861.5231, 11.98134
862.0052, 11.75745
862.4874, 11.60786
862.9695, 11.60714
863.4516, 11.68004
863.9337, 11.64558
864.4158, 11.42667
864.8979, 11.25571
865.3801, 11.32085
865.8622, 11.47019
866.3443, 11.53676
866.8264, 11.55085
867.3085, 11.62885
867.7906, 11.79221
868.2728, 11.91918
868.7549, 11.89470
869.2370, 11.75025
869.7191, 11.52367
870.2012, 11.21746
870.6833, 11.07826
871.1655, 11.14972
871.6476, 11.40380
872.1297, 11.90639
872.6118, 12.48145
873.0939, 12.66638
873.5760, 12.29943
874.0581, 12.02137
874.5402, 11.89418
875.0223, 11.78548
875.5045, 11.61904
875.9866, 11.48239
876.4687, 11.47382
876.9508, 11.58916
877.4329, 11.73399
877.9150, 11.98248
878.3972, 12.11609
878.8793, 11.95360
879.3614, 11.65930
879.8435, 11.36382
880.3256, 11.11268
880.8077, 10.94967
881.2899, 10.89454
881.7720, 10.94018
882.2541, 11.18311
882.7362, 11.50021
883.2183, 11.46745
883.7004, 11.11719
884.1826, 10.83182
884.6647, 10.72839
885.1468, 10.74643
885.6289, 10.84434
886.1110, 10.99990
886.5931, 11.09282
887.0753, 11.11134
887.5574, 11.09953
888.0395, 11.03585
888.5216, 10.98034
889.0037, 10.99602
889.4858, 11.02725
889.9680, 10.96482
890.4501, 10.78239
890.9322, 10.66223
891.4143, 10.63028
891.8964, 10.66443
892.3785, 10.88739
892.8607, 11.08097
893.3428, 10.93700
893.8249, 10.52884
894.3070, 10.24945
894.7891, 10.32320
895.2712, 10.44998
895.7534, 10.34440
896.2355, 10.12743
896.7176, 9.947992
897.1997, 9.836761
897.6818, 9.860853
898.1639, 10.03983
898.6461, 10.24160
899.1282, 10.32189
899.6103, 10.29629
900.0924, 10.21033
900.5745, 10.05915
901.0566, 9.949701
901.5388, 9.886365
902.0209, 9.953375
902.5030, 10.27353
902.9851, 10.70844
903.4672, 10.85372
903.9493, 10.58205
904.4315, 10.38106
904.9136, 10.31645
905.3957, 10.23791
905.8778, 10.07723
906.3599, 9.898610
906.8420, 9.768886
907.3242, 9.686242
907.8063, 9.599524
908.2884, 9.370819
908.7705, 9.308311
909.2526, 9.752385
909.7347, 10.22466
910.2169, 10.25157
910.6990, 9.970545
911.1811, 9.763929
911.6632, 9.760804
912.1453, 9.788828
912.6274, 9.626268
913.1096, 9.458566
913.5917, 9.659316
914.0738, 10.08331
914.5559, 10.27526
915.0380, 10.16253
915.5201, 10.05270
916.0023, 10.18058
916.4844, 10.38827
916.9665, 10.29271
917.4486, 9.897236
917.9307, 9.633089
918.4128, 9.524328
918.8950, 9.534530
919.3771, 9.695848
919.8592, 9.861447
920.3413, 9.832523
920.8234, 9.615051
921.3055, 9.485785
921.7877, 9.476988
922.2698, 9.499175
922.7519, 9.466683
923.2340, 9.544011
923.7161, 10.00506
924.1982, 10.57009
924.6804, 10.68673
925.1625, 10.21885
925.6446, 9.855848
926.1267, 9.818887
926.6088, 9.865126
927.0909, 9.905716
927.5731, 9.943361
928.0552, 10.01323
928.5373, 10.09227
929.0194, 10.07664
929.5015, 9.879258
929.9836, 9.722381
930.4658, 9.875274
930.9479, 10.13483
931.4300, 10.19113
931.9121, 10.09112
932.3942, 10.05455
932.8763, 10.13804
933.3585, 10.16891
933.8406, 9.964289
934.3227, 9.629574
934.8048, 9.426239
935.2869, 9.341467
935.7690, 9.227619
936.2512, 9.058903
936.7333, 9.052732
937.2154, 9.367890
937.6975, 9.758416
938.1796, 9.780694
938.6617, 9.408954
939.1439, 9.271282
939.6260, 9.452067
940.1081, 9.641989
940.5902, 9.818631
941.0723, 9.922560
941.5544, 9.913206
942.0366, 9.794702
942.5187, 9.541606
943.0008, 8.926923
943.4829, 8.727530
943.9650, 9.437524
944.4471, 10.00894
944.9293, 9.848729
945.4114, 9.495191
945.8935, 9.589347
946.3756, 10.08957
946.8577, 10.41042
947.3398, 10.29223
947.8220, 10.10783
948.3041, 10.04804
948.7862, 9.988660
949.2683, 9.736341
949.7504, 9.422372
950.2325, 9.350307
950.7147, 9.579455
951.1968, 9.806330
951.6789, 9.797574
952.1610, 9.678897
952.6431, 9.499515
953.1252, 9.365346
953.6074, 9.578868
954.0895, 10.10339
954.5716, 10.59967
955.0537, 10.90041
955.5358, 11.00202
956.0179, 10.80020
956.5000, 10.39755
956.9821, 10.28169
957.4642, 10.44309
957.9464, 10.69004
958.4285, 10.99174
958.9106, 11.18323
959.3927, 11.10329
959.8748, 10.90436
960.3569, 11.03540
960.8391, 11.60421
961.3212, 11.88762
961.8033, 11.78019
962.2854, 11.69224
962.7675, 11.80401
963.2496, 11.92549
963.7318, 11.83298
964.2139, 11.56637
964.6960, 11.42643
965.1781, 11.43932
965.6602, 11.53908
966.1423, 11.81402
966.6245, 12.06867
967.1066, 12.26573
967.5887, 12.37498
968.0708, 12.33261
968.5529, 12.14408
969.0350, 11.97003
969.5172, 11.78955
969.9993, 11.70118
970.4814, 11.84236
970.9635, 11.99007
971.4456, 11.93329
971.9277, 11.76433
972.4099, 11.69087
972.8920, 11.76160
973.3741, 11.80968
973.8562, 11.70196
974.3383, 11.57752
974.8204, 11.59350
975.3026, 11.63395
975.7847, 11.52493
976.2668, 11.28177
976.7489, 10.99896
977.2310, 10.71605
977.7131, 10.53150
978.1953, 10.61266
978.6774, 10.81692
979.1595, 10.96266
979.6416, 11.01496
980.1237, 10.82311
980.6058, 10.39568
981.0880, 9.987753
981.5701, 9.756008
982.0522, 9.694182
982.5343, 9.870867
983.0164, 10.22469
983.4985, 10.40569
983.9807, 10.41032
984.4628, 10.37916
984.9449, 10.34830
985.4270, 10.37201
985.9091, 10.51707
986.3912, 10.71036
986.8734, 10.73396
987.3555, 10.57888
987.8376, 10.26436
988.3197, 9.680247
988.8018, 9.424847
989.2839, 9.864899
989.7661, 10.40042
990.2482, 10.31380
990.7303, 9.730011
991.2124, 9.604026
991.6945, 10.30589
992.1766, 10.57169
992.6588, 9.971425
993.1409, 9.500636
993.6230, 9.708899
994.1051, 10.18736
994.5872, 10.44761
995.0693, 10.49063
995.5515, 10.40400
996.0336, 9.932502
996.5157, 9.710292
996.9978, 10.09172
997.4799, 10.43572
997.9620, 10.23406
998.4442, 9.860486
998.9263, 9.960337
999.4084, 10.59438
999.8905, 10.99962
1000.373, 10.92436
1000.855, 10.12012
1001.337, 10.38873
1001.819, 10.51783
1002.301, 10.51491
1002.783, 9.984602
1003.265, 10.13531
1003.747, 10.01311
1004.230, 9.879602
1004.712, 10.55644
1005.194, 10.62855
1005.676, 10.49745
1006.158, 10.31745
1006.640, 10.23759
1007.122, 10.27295
1007.604, 10.43472
1008.086, 10.72578
1008.569, 10.96608
1009.051, 11.00834
1009.533, 10.93647
1010.015, 10.74478
1010.497, 10.54930
1010.979, 10.62627
1011.461, 10.91339
1011.943, 11.04323
1012.426, 10.84375
1012.908, 10.55467
1013.390, 10.44008
1013.872, 10.40382
1014.354, 10.23264
1014.836, 9.992370
1015.318, 9.911946
1015.800, 9.999181
1016.282, 10.01885
1016.765, 9.831610
1017.247, 9.620370
1017.729, 9.669741
1018.211, 9.904758
1018.693, 10.09382
1019.175, 10.22662
1019.657, 10.22671
1020.139, 10.08303
1020.622, 9.916561
1021.104, 9.805730
1021.586, 9.722854
1022.068, 9.602766
1022.550, 9.456041
1023.032, 9.395544
1023.514, 9.421927
1023.996, 9.535480
1024.478, 9.753991
1024.961, 9.864961
1025.443, 9.695065
1025.925, 9.374820
1026.407, 9.172904
1026.889, 9.087612
1027.371, 9.234735
1027.853, 9.699724
1028.335, 9.871508
1028.818, 9.524687
1029.300, 9.080476
1029.782, 8.843996
1030.264, 8.776991
1030.746, 8.785524
1031.228, 8.866534
1031.710, 9.078798
1032.192, 9.551052
1032.674, 9.752543
1033.156, 9.420267
1033.639, 9.016892
1034.121, 8.918093
1034.603, 9.024744
1035.085, 9.044728
1035.567, 8.940455
1036.049, 8.886703
1036.531, 8.849833
1037.013, 8.941458
1037.496, 9.346907
1037.978, 9.685502
1038.460, 9.572385
1038.942, 9.171558
1039.424, 9.001495
1039.906, 9.152781
1040.388, 9.262002
1040.870, 9.252285
1041.353, 9.311657
1041.835, 9.607004
1042.317, 9.875890
1042.799, 9.904336
1043.281, 9.746653
1043.763, 9.540684
1044.245, 9.226678
1044.727, 9.052457
1045.209, 9.113491
1045.692, 9.201691
1046.174, 9.330344
1046.656, 9.404799
1047.138, 9.320745
1047.620, 9.127405
1048.102, 8.951135
1048.584, 8.787816
1049.066, 8.697463
1049.548, 8.709532
1050.031, 8.768158
1050.513, 8.875654
1050.995, 9.004329
1051.477, 9.199661
1051.959, 9.386995
1052.441, 9.367379
1052.923, 9.063372
1053.405, 8.809764
1053.888, 8.612945
1054.370, 8.560165
1054.852, 8.859509
1055.334, 9.160059
1055.816, 9.086045
1056.298, 8.798954
1056.780, 8.733371
1057.262, 9.001917
1057.745, 9.197512
1058.227, 9.139948
1058.709, 9.072941
1059.191, 9.187048
1059.673, 9.253057
1060.155, 8.965744
1060.637, 8.505284
1061.119, 8.286626
1061.601, 8.402227
1062.083, 8.562244
1062.566, 8.741556
1063.048, 8.849973
1063.530, 8.756846
1064.012, 8.658407
1064.494, 8.755711
1064.976, 8.967977
1065.458, 9.099441
1065.940, 9.111831
1066.423, 9.168082
1066.905, 9.502376
1067.387, 9.671795
1067.869, 9.385589
1068.351, 8.931281
1068.833, 8.382688
1069.315, 7.919634
1069.797, 7.869319
1070.280, 8.267543
1070.762, 8.646482
1071.244, 8.900117
1071.726, 8.977676
1072.208, 8.707884
1072.690, 8.395825
1073.172, 8.279366
1073.654, 8.301052
1074.136, 8.345978
1074.619, 8.389967
1075.101, 8.438387
1075.583, 8.481805
1076.065, 8.549667
1076.547, 8.719988
1077.029, 8.856431
1077.511, 8.850522
1077.993, 8.741477
1078.475, 8.523211
1078.958, 8.250547
1079.440, 8.197083
1079.922, 8.606559
1080.404, 8.925150
1080.886, 8.822424
1081.368, 8.606268
1081.850, 8.360210
1082.332, 8.223128
1082.814, 8.499931
1083.297, 9.069151
1083.779, 9.303640
1084.261, 8.895400
1084.743, 8.471056
1085.225, 8.240118
1085.707, 8.172453
1086.189, 8.425406
1086.671, 8.703069
1087.154, 8.556882
1087.636, 8.128667
1088.118, 8.020720
1088.600, 8.478232
1089.082, 8.839325
1089.564, 8.763197
1090.046, 8.598587
1090.528, 8.482752
1091.010, 8.420954
1091.493, 8.462939
1091.975, 8.545620
1092.457, 8.510881
1092.939, 8.312734
1093.421, 8.138441
1093.903, 7.985898
1094.385, 7.963949
1094.867, 8.265002
1095.349, 8.586549
1095.832, 8.682782
1096.314, 8.606540
1096.796, 8.438711
1097.278, 8.200187
1097.760, 8.117483
1098.242, 8.446229
1098.724, 8.682097
1099.206, 8.548285
1099.689, 8.383008
1100.171, 8.422379
1100.653, 8.576270
1101.135, 8.748380
1101.617, 8.905070
1102.099, 8.885786
1102.581, 8.473794
1103.063, 8.191858
1103.546, 8.282108
1104.028, 8.392156
1104.510, 8.261074
1104.992, 8.106869
1105.474, 8.275180
1105.956, 8.672388
1106.438, 8.780125
1106.920, 8.387490
1107.402, 8.045876
1107.885, 7.876139
1108.367, 7.724669
1108.849, 7.400512
1109.331, 7.188413
1109.813, 7.433973
1110.295, 7.977331
1110.777, 8.396108
1111.259, 8.706194
1111.741, 8.709761
1112.224, 7.878824
1112.706, 7.464258
1113.188, 8.206729
1113.670, 8.944807
1114.152, 8.860583
1114.634, 8.311152
1115.116, 7.864581
1115.598, 7.505137
1116.081, 7.461614
1116.563, 7.989922
1117.045, 8.396971
1117.527, 8.636240
1118.009, 8.716234
1118.491, 8.531156
1118.973, 8.294922
1119.455, 8.313554
1119.938, 8.543777
1120.420, 8.560139
1120.902, 8.199183
1121.384, 8.042378
1121.866, 8.210474
1122.348, 8.356693
1122.830, 8.371405
1123.312, 8.304195
1123.794, 8.166933
1124.276, 8.009154
1124.759, 8.006391
1125.241, 8.208377
1125.723, 8.274660
1126.205, 8.177526
1126.687, 8.036299
1127.169, 7.846314
1127.651, 7.734930
1128.133, 7.804753
1128.616, 7.965144
1129.098, 8.055785
1129.580, 8.080066
1130.062, 8.086654
1130.544, 8.066931
1131.026, 8.179611
1131.508, 8.474890
1131.990, 8.571956
1132.473, 8.263721
1132.955, 7.882649
1133.437, 7.825986
1133.919, 8.001206
1134.401, 8.114982
1134.883, 8.168334
1135.365, 8.126614
1135.847, 7.999757
1136.329, 8.022451
1136.812, 8.262450
1137.294, 8.439411
1137.776, 8.325590
1138.258, 8.057221
1138.740, 7.761779
1139.222, 7.536872
1139.704, 7.902296
1140.186, 8.651220
1140.668, 8.821768
1141.151, 8.323701
1141.633, 7.796294
1142.115, 7.562051
1142.597, 7.557588
1143.079, 7.839871
1143.561, 8.189944
1144.043, 8.208686
1144.525, 8.034861
1145.008, 7.904100
1145.490, 7.855433
1145.972, 7.915418
1146.454, 8.078694
1146.936, 8.242874
1147.418, 8.344214
1147.900, 8.404478
1148.382, 8.488653
1148.865, 8.505650
1149.347, 8.282831
1149.829, 7.947058
1150.311, 7.701594
1150.793, 7.579748
1151.275, 7.526741
1151.757, 7.509149
1152.239, 7.622817
1152.721, 8.136514
1153.203, 8.546161
1153.686, 8.440239
1154.168, 8.132281
1154.650, 7.840900
1155.132, 7.654609
1155.614, 7.748753
1156.096, 8.158745
1156.578, 8.387830
1157.060, 8.127275
1157.543, 7.909254
1158.025, 7.907624
1158.507, 7.958063
1158.989, 8.007450
1159.471, 8.024946
1159.953, 7.901181
1160.435, 7.686044
1160.917, 7.751822
1161.400, 8.402218
1161.882, 8.719922
1162.364, 8.433489
1162.846, 8.224836
1163.328, 8.361718
1163.810, 8.492910
1164.292, 8.277584
1164.774, 7.956861
1165.256, 8.091785
1165.739, 8.728261
1166.221, 8.989245
1166.703, 8.798662
1167.185, 8.477383
1167.667, 7.985143
1168.149, 7.655490
1168.631, 7.641871
1169.113, 7.871451
1169.595, 8.323174
1170.078, 8.862823
1170.560, 8.999055
1171.042, 8.740566
1171.524, 8.344025
1172.006, 7.831214
1172.488, 7.553078
1172.970, 7.597311
1173.452, 7.834680
1173.934, 8.201918
1174.417, 8.499793
1174.899, 8.356799
1175.381, 7.968207
1175.863, 7.896617
1176.345, 8.017197
1176.827, 7.893689
1177.309, 7.573019
1177.791, 7.509404
1178.274, 7.830501
1178.756, 8.148874
1179.238, 8.138812
1179.720, 8.090359
1180.202, 8.401552
1180.684, 8.784436
1181.166, 8.893646
1181.648, 8.801569
1182.130, 8.634774
1182.613, 8.431713
1183.095, 8.187652
1183.577, 7.882267
1184.059, 7.715933
1184.541, 7.885851
1185.023, 8.105634
1185.505, 8.244516
1185.987, 8.344046
1186.469, 8.484698
1186.952, 8.592726
1187.434, 8.502958
1187.916, 8.218446
1188.398, 8.015462
1188.880, 7.939216
1189.362, 7.942123
1189.844, 8.148022
1190.326, 8.258323
1190.809, 8.003343
1191.291, 7.816219
1191.773, 8.192899
1192.255, 8.805820
1192.737, 8.822030
1193.219, 8.159426
1193.701, 7.826075
1194.183, 7.914961
1194.666, 7.980354
1195.148, 7.948326
1195.630, 7.965055
1196.112, 8.121505
1196.594, 8.226973
1197.076, 8.030277
1197.558, 7.713165
1198.040, 7.915553
1198.522, 8.538153
1199.005, 8.647433
1199.487, 8.284408
1199.969, 8.060244
1200.451, 8.093076
1200.933, 8.106725
1201.415, 7.947543
1201.897, 7.836441
1202.379, 8.138551
1202.861, 8.515121
1203.344, 8.282990
1203.826, 7.823537
1204.308, 7.904293
1204.790, 8.317502
1205.272, 8.336598
1205.754, 7.890028
1206.236, 7.634377
1206.718, 7.956460
1207.201, 8.274471
1207.683, 8.187011
1208.165, 8.025625
1208.647, 7.989961
1209.129, 8.013780
1209.611, 8.002092
1210.093, 7.995005
1210.575, 8.126695
1211.057, 8.420051
1211.540, 8.589377
1212.022, 8.578054
1212.504, 8.465375
1212.986, 8.057233
1213.468, 7.826537
1213.950, 8.030970
1214.432, 8.368223
1214.914, 8.615037
1215.396, 8.753780
1215.879, 8.723642
1216.361, 8.511923
1216.843, 8.261840
1217.325, 7.934937
1217.807, 7.863649
1218.289, 8.122027
1218.771, 8.440225
1219.253, 8.715057
1219.736, 8.776102
1220.218, 8.395998
1220.700, 7.826605
1221.182, 7.598847
1221.664, 7.648379
1222.146, 7.840630
1222.628, 8.108561
1223.110, 8.252516
1223.593, 8.259597
1224.075, 8.250176
1224.557, 8.278431
1225.039, 8.342996
1225.521, 8.490110
1226.003, 8.611192
1226.485, 8.631601
1226.967, 8.554358
1227.449, 8.214305
1227.932, 7.876180
1228.414, 8.063255
1228.896, 8.671507
1229.378, 8.971333
1229.860, 8.720334
1230.342, 8.418669
1230.824, 8.019928
1231.306, 7.810373
1231.788, 8.054124
1232.271, 8.304275
1232.753, 8.284322
1233.235, 8.142744
1233.717, 8.052715
1234.199, 8.017278
1234.681, 8.072103
1235.163, 8.257182
1235.645, 8.345428
1236.128, 8.333569
1236.610, 8.194022
1237.092, 7.903254
1237.574, 7.655390
1238.056, 7.566161
1238.538, 7.572553
1239.020, 7.579098
1239.502, 7.635186
1239.984, 7.937906
1240.467, 8.374419
1240.949, 8.614475
1241.431, 8.686022
1241.913, 8.767934
1242.395, 8.887612
1242.877, 8.931405
1243.359, 8.833779
1243.841, 8.750172
1244.323, 8.944901
1244.806, 9.016414
1245.288, 8.366510
1245.770, 7.737676
1246.252, 7.954289
1246.734, 8.619500
1247.216, 9.100459
1247.698, 9.322996
1248.180, 9.374422
1248.662, 9.167774
1249.145, 9.039477
1249.627, 9.191542
1250.109, 9.101026
1250.591, 8.477833
1251.073, 7.920499
1251.555, 7.756291
1252.037, 7.877747
1252.519, 8.192178
1253.002, 8.619175
1253.484, 8.754298
1253.966, 8.605725
1254.448, 8.487295
1254.930, 8.419465
1255.412, 8.526071
1255.894, 8.808949
1256.376, 9.018566
1256.859, 9.020758
1257.341, 8.887647
1257.823, 8.682390
1258.305, 8.398911
1258.787, 7.832850
1259.269, 7.344193
1259.751, 7.556252
1260.233, 8.141355
1260.715, 8.506576
1261.198, 8.598639
1261.680, 8.669659
1262.162, 8.809832
1262.644, 8.799748
1263.126, 8.414288
1263.608, 8.096696
1264.090, 7.927034
1264.572, 7.920694
1265.054, 8.192643
1265.537, 8.526481
1266.019, 8.744855
1266.501, 8.816140
1266.983, 8.579222
1267.465, 7.977555
1267.947, 7.743892
1268.429, 7.919791
1268.911, 7.940194
1269.394, 7.716196
1269.876, 7.579619
1270.358, 7.667938
1270.840, 7.961082
1271.322, 8.503083
1271.804, 8.991037
1272.286, 8.826413
1272.768, 8.395608
1273.250, 8.347350
1273.733, 8.534114
1274.215, 8.763594
1274.697, 8.921334
1275.179, 8.764620
1275.661, 8.271412
1276.143, 7.911282
1276.625, 7.927534
1277.107, 7.982315
1277.589, 7.927960
1278.072, 7.936653
1278.554, 8.158461
1279.036, 8.398272
1279.518, 8.513000
1280.000, 8.538603
1280.482, 8.525492
1280.964, 8.478223
1281.446, 8.428490
1281.929, 8.354818
1282.411, 8.529020
1282.893, 8.990250
1283.375, 9.048964
1283.857, 8.541792
1284.339, 8.062053
1284.821, 7.954652
1285.303, 8.031933
1285.786, 8.117688
1286.268, 8.210729
##END=



