##NAMES=Liebigite
##RRUFFID=R050662
##IDEAL CHEMISTRY=Ca_2_(U^6+^O_2_)(CO_3_)_3_&#183;11H_2_O
##LOCALITY=Schwartzwaelder mine, Jefferson County, Colorado, USA
##OWNER=RRUFF
##SOURCE=University of Arizona Mineral Museum
##DESCRIPTION=Yellowish-green flaky aggregate
##STATUS=The identification of this mineral has been confirmed by X-ray diffraction and chemical analysis
##URL=rruff.info/R050662
##MEASURED CHEMISTRY=Ca_2.00_(U_1.00_O_2_)(CO_3_)_3_Â·11H_2_O ; C not measured but estimated by stoichiometry
89.78156, 0.0000000E+00
90.26367, 23.92183
90.74579, 23.90940
91.22791, 23.91298
91.71002, 23.93147
92.19214, 23.95566
92.67426, 24.03758
93.15638, 24.12739
93.63850, 24.08437
94.12061, 23.75873
94.60273, 23.29599
95.08485, 23.00621
95.56696, 22.88992
96.04908, 22.96035
96.53120, 23.42129
97.01331, 24.23406
97.49543, 24.77581
97.97755, 24.59698
98.45966, 23.75179
98.94178, 23.26893
99.42390, 23.24536
99.90602, 23.45504
100.3881, 23.41578
100.8703, 23.02677
101.3524, 22.74897
101.8345, 22.91271
102.3166, 23.69190
102.7987, 24.13965
103.2808, 24.08795
103.7630, 23.66049
104.2451, 23.38233
104.7272, 23.21771
105.2093, 23.24663
105.6914, 23.56813
106.1735, 24.49250
106.6557, 25.16182
107.1378, 25.31570
107.6199, 24.92880
108.1020, 24.95180
108.5841, 25.60901
109.0662, 26.56026
109.5484, 27.50800
110.0305, 28.15467
110.5126, 29.10304
110.9947, 30.53700
111.4768, 32.59088
111.9590, 34.57305
112.4411, 36.11041
112.9232, 37.63268
113.4053, 39.64630
113.8874, 42.23160
114.3695, 45.34458
114.8517, 48.92739
115.3338, 52.90877
115.8159, 57.50875
116.2980, 63.02822
116.7801, 69.27083
117.2622, 75.74596
117.7444, 81.75246
118.2265, 88.29236
118.7086, 96.02381
119.1907, 105.4207
119.6728, 115.6703
120.1549, 126.2491
120.6371, 137.2772
121.1192, 149.2938
121.6013, 162.6632
122.0834, 177.0566
122.5655, 192.1040
123.0476, 208.2920
123.5298, 224.5660
124.0119, 239.8702
124.4940, 254.2578
124.9761, 268.5402
125.4582, 283.3420
125.9404, 298.4017
126.4225, 313.0815
126.9046, 327.5263
127.3867, 341.3199
127.8688, 353.0818
128.3509, 362.5644
128.8331, 372.4298
129.3152, 385.7445
129.7973, 402.1540
130.2794, 419.4933
130.7615, 436.4294
131.2436, 453.4741
131.7258, 472.2521
132.2079, 492.9727
132.6900, 514.9913
133.1721, 537.5087
133.6542, 560.4294
134.1364, 583.8075
134.6185, 608.2722
135.1006, 633.8536
135.5827, 658.3912
136.0648, 681.8289
136.5469, 704.2873
137.0291, 726.1281
137.5112, 747.2537
137.9933, 767.5755
138.4754, 787.5192
138.9575, 807.1338
139.4396, 824.8884
139.9218, 840.0340
140.4039, 853.1154
140.8860, 866.6772
141.3681, 881.2185
141.8502, 895.1924
142.3323, 906.5441
142.8145, 913.6979
143.2966, 922.7347
143.7787, 934.9318
144.2608, 950.3380
144.7429, 965.2126
145.2250, 979.6884
145.7072, 993.6895
146.1893, 1007.120
146.6714, 1019.210
147.1535, 1031.863
147.6356, 1045.618
148.1178, 1060.695
148.5999, 1075.059
149.0820, 1088.592
149.5641, 1101.404
150.0462, 1113.477
150.5283, 1124.390
151.0105, 1134.833
151.4926, 1134.739
151.9747, 1133.105
152.4568, 1131.096
152.9389, 1129.097
153.4210, 1126.729
153.9032, 1123.398
154.3853, 1117.954
154.8674, 1112.595
155.3495, 1108.079
155.8316, 1104.727
156.3137, 1101.398
156.7959, 1098.324
157.2780, 1095.110
157.7601, 1091.032
158.2422, 1085.107
158.7243, 1078.828
159.2065, 1072.740
159.6886, 1066.456
160.1707, 1061.118
160.6528, 1057.790
161.1349, 1055.715
161.6170, 1052.921
162.0992, 1048.492
162.5813, 1043.237
163.0634, 1037.641
163.5455, 1031.501
164.0276, 1025.448
164.5097, 1019.823
164.9919, 1014.536
165.4740, 1009.248
165.9561, 1003.827
166.4382, 998.3351
166.9203, 992.7508
167.4024, 986.8821
167.8846, 981.1281
168.3667, 975.7031
168.8488, 970.5776
169.3309, 965.5618
169.8130, 960.5223
170.2952, 955.4973
170.7773, 950.6031
171.2594, 945.7747
171.7415, 941.0967
172.2236, 936.4882
172.7057, 931.9550
173.1879, 927.7554
173.6700, 924.2526
174.1521, 921.1754
174.6342, 918.0605
175.1163, 914.5842
175.5984, 910.9912
176.0806, 907.5792
176.5627, 904.3259
177.0448, 901.2448
177.5269, 898.7122
178.0090, 896.4080
178.4911, 893.4909
178.9733, 889.4780
179.4554, 884.7296
179.9375, 879.6260
180.4196, 874.1981
180.9017, 868.7091
181.3838, 863.4612
181.8660, 858.4446
182.3481, 853.3988
182.8302, 848.4198
183.3123, 843.3702
183.7944, 838.0300
184.2766, 832.4042
184.7587, 826.2755
185.2408, 818.7127
185.7229, 810.0676
186.2050, 802.0255
186.6871, 795.8707
187.1693, 791.0472
187.6514, 785.9052
188.1335, 780.2405
188.6156, 774.4138
189.0977, 768.9050
189.5798, 763.7018
190.0620, 758.3322
190.5441, 752.0540
191.0262, 745.1199
191.5083, 739.5001
191.9904, 735.4684
192.4725, 732.1302
192.9547, 727.9098
193.4368, 722.7457
193.9189, 717.5712
194.4010, 712.8557
194.8831, 708.5878
195.3652, 704.5374
195.8474, 700.7018
196.3295, 697.0698
196.8116, 693.6194
197.2937, 690.3650
197.7758, 687.2737
198.2579, 684.5855
198.7401, 682.3221
199.2222, 679.1602
199.7043, 674.6377
200.1864, 669.6279
200.6685, 666.2960
201.1507, 664.9411
201.6328, 663.9131
202.1149, 662.2989
202.5970, 660.0651
203.0791, 657.5049
203.5612, 654.5511
204.0434, 651.3862
204.5255, 648.4909
205.0076, 645.8488
205.4897, 643.5457
205.9718, 641.6920
206.4539, 640.3500
206.9361, 639.1251
207.4182, 638.0149
207.9003, 636.9949
208.3824, 635.8568
208.8645, 634.4363
209.3466, 633.3307
209.8288, 632.9499
210.3109, 633.4264
210.7930, 634.0572
211.2751, 634.8066
211.7572, 635.6583
212.2393, 636.6142
212.7215, 637.7313
213.2036, 638.7976
213.6857, 639.4998
214.1678, 639.4602
214.6499, 640.4056
215.1320, 642.8232
215.6142, 646.3175
216.0963, 649.0834
216.5784, 650.8308
217.0605, 652.3777
217.5426, 654.1680
218.0247, 656.0864
218.5069, 658.5546
218.9890, 661.7656
219.4711, 665.5652
219.9532, 669.2308
220.4353, 672.6295
220.9175, 676.1732
221.3996, 680.2551
221.8817, 685.1571
222.3638, 689.7607
222.8459, 693.7870
223.3280, 697.4362
223.8102, 701.3479
224.2923, 705.4788
224.7744, 710.0240
225.2565, 715.1270
225.7386, 720.9811
226.2207, 726.8683
226.7029, 732.6693
227.1850, 738.4431
227.6671, 744.2333
228.1492, 750.0579
228.6313, 755.8691
229.1134, 761.6462
229.5956, 767.5675
230.0777, 773.1436
230.5598, 778.1955
231.0419, 782.8807
231.5240, 788.1547
232.0062, 794.5900
232.4883, 800.8570
232.9704, 806.1320
233.4525, 810.0452
233.9346, 813.7854
234.4167, 817.4362
234.8989, 820.9659
235.3810, 824.2699
235.8631, 827.7151
236.3452, 830.4881
236.8273, 832.0947
237.3094, 832.1018
237.7916, 831.8836
238.2737, 831.7678
238.7558, 831.4844
239.2379, 829.8554
239.7200, 826.3093
240.2021, 822.1701
240.6843, 818.0339
241.1664, 813.7121
241.6485, 809.8700
242.1306, 806.9747
242.6127, 804.5754
243.0948, 800.9894
243.5770, 795.6716
244.0591, 789.9399
244.5412, 784.5574
245.0233, 779.8450
245.5054, 774.7236
245.9876, 769.0279
246.4697, 762.9521
246.9518, 756.9606
247.4339, 751.3142
247.9160, 745.3342
248.3981, 738.6402
248.8803, 730.6111
249.3624, 723.2924
249.8445, 717.1506
250.3266, 711.6125
250.8087, 705.1182
251.2908, 697.6135
251.7730, 689.2968
252.2551, 680.1984
252.7372, 669.7270
253.2193, 659.8209
253.7014, 650.7794
254.1835, 642.2447
254.6657, 633.5019
255.1478, 624.4506
255.6299, 615.3444
256.1120, 606.1392
256.5941, 596.7853
257.0763, 587.7087
257.5584, 578.8671
258.0405, 570.2382
258.5226, 561.8830
259.0047, 553.6592
259.4868, 545.8670
259.9690, 538.7499
260.4511, 532.4666
260.9332, 526.1464
261.4153, 519.6624
261.8974, 513.1738
262.3795, 507.0287
262.8617, 501.1685
263.3438, 495.6685
263.8259, 490.6131
264.3080, 486.1407
264.7901, 481.1570
265.2722, 475.2894
265.7544, 469.3488
266.2365, 464.7394
266.7186, 461.9037
267.2007, 459.0670
267.6828, 455.6691
268.1649, 451.6187
268.6471, 447.8634
269.1292, 444.3380
269.6113, 441.1033
270.0934, 438.1904
270.5755, 435.5316
271.0576, 433.3872
271.5398, 432.0479
272.0219, 431.4635
272.5040, 430.0738
272.9861, 427.5635
273.4682, 424.9681
273.9503, 423.4657
274.4325, 423.2608
274.9146, 423.0618
275.3967, 422.6056
275.8788, 421.8977
276.3610, 420.9308
276.8431, 419.6062
277.3252, 418.3511
277.8073, 417.5791
278.2894, 417.3187
278.7715, 417.2501
279.2537, 417.3447
279.7358, 417.5810
280.2179, 417.9360
280.7000, 418.4754
281.1821, 418.8594
281.6642, 418.6909
282.1464, 417.9669
282.6285, 417.4441
283.1106, 417.2306
283.5927, 417.3033
284.0748, 417.7601
284.5569, 418.6620
285.0391, 419.3632
285.5212, 419.2160
286.0033, 418.3073
286.4854, 417.7939
286.9675, 417.9686
287.4496, 418.3641
287.9318, 417.9797
288.4139, 416.7977
288.8960, 415.4858
289.3781, 414.3560
289.8602, 413.4041
290.3423, 412.6560
290.8245, 412.1834
291.3066, 411.7488
291.7887, 410.9554
292.2708, 409.8339
292.7529, 408.6641
293.2350, 407.6414
293.7172, 406.6964
294.1993, 405.6302
294.6814, 404.4120
295.1635, 403.1428
295.6456, 401.9026
296.1277, 400.7058
296.6099, 399.6394
297.0920, 398.8734
297.5741, 398.2501
298.0562, 397.4061
298.5383, 396.3199
299.0204, 395.3107
299.5026, 394.7494
299.9847, 394.5290
300.4668, 394.3474
300.9489, 394.0473
301.4311, 393.7489
301.9132, 393.7647
302.3953, 394.0771
302.8774, 394.1745
303.3595, 393.2943
303.8416, 391.9682
304.3238, 391.1407
304.8059, 391.4957
305.2880, 392.1225
305.7701, 391.9866
306.2522, 391.2081
306.7343, 390.5314
307.2165, 390.4910
307.6986, 390.8150
308.1807, 391.2641
308.6628, 392.1764
309.1449, 392.5438
309.6270, 390.8819
310.1092, 387.8515
310.5913, 385.6379
311.0734, 386.0733
311.5555, 387.4992
312.0376, 388.5626
312.5197, 389.0792
313.0019, 389.0517
313.4840, 388.0723
313.9661, 386.5612
314.4482, 385.3703
314.9303, 385.1428
315.4124, 385.1525
315.8946, 384.9469
316.3767, 384.4220
316.8588, 383.9580
317.3409, 383.7960
317.8230, 383.7667
318.3051, 383.6465
318.7873, 383.4058
319.2694, 383.0288
319.7515, 382.4479
320.2336, 381.6431
320.7157, 380.9078
321.1978, 380.1406
321.6800, 379.5668
322.1621, 379.3936
322.6442, 380.3384
323.1263, 380.9857
323.6084, 381.0722
324.0905, 380.5914
324.5727, 379.5796
325.0548, 377.3668
325.5369, 375.0690
326.0190, 373.3669
326.5012, 373.1813
326.9833, 372.5822
327.4654, 371.2256
327.9475, 369.2967
328.4296, 367.5526
328.9117, 366.0937
329.3939, 364.7323
329.8760, 363.3558
330.3581, 361.7198
330.8402, 360.5296
331.3223, 360.1739
331.8044, 360.1405
332.2866, 359.3515
332.7687, 357.3262
333.2508, 355.2391
333.7329, 353.4108
334.2150, 351.8417
334.6971, 350.5132
335.1793, 349.5342
335.6614, 348.6761
336.1435, 347.6468
336.6256, 346.3746
337.1077, 345.1168
337.5898, 343.9532
338.0720, 342.8755
338.5541, 341.8638
339.0362, 340.8427
339.5183, 340.0615
340.0004, 339.9750
340.4825, 340.7737
340.9647, 340.8970
341.4468, 339.8958
341.9289, 338.1443
342.4110, 336.8229
342.8931, 335.9784
343.3752, 335.3017
343.8574, 334.5834
344.3395, 333.8228
344.8216, 333.2172
345.3037, 332.8255
345.7858, 332.4960
346.2679, 332.0047
346.7501, 331.3437
347.2322, 330.5239
347.7143, 329.3619
348.1964, 328.0246
348.6785, 327.0941
349.1607, 326.6235
349.6428, 326.3041
350.1249, 325.6842
350.6070, 324.9029
351.0891, 324.4019
351.5713, 325.0015
352.0534, 325.6862
352.5355, 324.5029
353.0176, 321.5447
353.4997, 318.7936
353.9818, 318.1748
354.4640, 318.7031
354.9461, 318.8433
355.4282, 317.9605
355.9103, 316.7937
356.3924, 315.9066
356.8745, 315.2672
357.3567, 314.7632
357.8388, 314.4581
358.3209, 314.1861
358.8030, 313.7633
359.2851, 313.0718
359.7672, 312.4736
360.2494, 312.1634
360.7315, 312.0805
361.2136, 312.1161
361.6957, 312.4872
362.1778, 312.7534
362.6599, 312.5740
363.1421, 311.8365
363.6242, 311.3466
364.1063, 311.6607
364.5884, 312.2093
365.0705, 312.4071
365.5526, 311.6659
366.0348, 311.0502
366.5169, 310.9057
366.9990, 311.1980
367.4811, 311.2932
367.9632, 310.9860
368.4453, 310.5629
368.9275, 310.1839
369.4096, 309.7632
369.8917, 309.5164
370.3738, 309.6307
370.8559, 309.9152
371.3380, 309.8065
371.8202, 308.9259
372.3023, 308.1665
372.7844, 307.9284
373.2665, 308.3944
373.7487, 308.6362
374.2308, 308.5942
374.7129, 308.3910
375.1950, 308.1517
375.6771, 307.8192
376.1592, 307.6415
376.6414, 307.7075
377.1235, 307.9986
377.6056, 308.3658
378.0877, 308.8736
378.5698, 309.2652
379.0519, 309.1769
379.5341, 308.6055
380.0162, 308.4099
380.4983, 308.8402
380.9804, 309.6020
381.4625, 310.1055
381.9446, 310.3568
382.4268, 310.2774
382.9089, 309.5020
383.3910, 308.3309
383.8731, 307.8414
384.3552, 308.2261
384.8373, 308.7695
385.3195, 308.4185
385.8016, 307.5018
386.2837, 306.9886
386.7658, 307.5670
387.2479, 308.6618
387.7300, 309.6883
388.2122, 310.6304
388.6943, 311.3169
389.1764, 311.6093
389.6585, 311.5721
390.1406, 311.2368
390.6227, 310.3711
391.1049, 309.5598
391.5870, 309.2427
392.0691, 309.3068
392.5512, 309.4124
393.0333, 309.4227
393.5154, 309.4120
393.9976, 309.4106
394.4797, 309.4001
394.9618, 309.4796
395.4439, 309.7158
395.9260, 310.0508
396.4081, 310.4064
396.8903, 310.6595
397.3724, 311.0441
397.8545, 311.7705
398.3366, 312.8656
398.8188, 313.5864
399.3009, 313.6609
399.7830, 313.4912
400.2651, 313.3200
400.7472, 313.0714
401.2293, 312.9317
401.7115, 312.9073
402.1936, 312.9946
402.6757, 313.2119
403.1578, 313.6791
403.6399, 314.0665
404.1220, 314.2048
404.6042, 314.0390
405.0863, 313.9286
405.5684, 313.8539
406.0505, 313.8651
406.5326, 314.0319
407.0147, 314.3627
407.4969, 314.8355
407.9790, 315.5941
408.4611, 316.4642
408.9432, 316.6201
409.4253, 316.0040
409.9074, 315.2833
410.3896, 314.8852
410.8717, 314.8021
411.3538, 315.0558
411.8359, 315.7305
412.3180, 316.5305
412.8001, 317.0434
413.2823, 317.3114
413.7644, 317.5442
414.2465, 317.8566
414.7286, 318.1896
415.2107, 318.4265
415.6928, 318.5533
416.1750, 318.7684
416.6571, 319.4199
417.1392, 320.1910
417.6213, 320.6721
418.1034, 320.5775
418.5855, 320.3082
419.0677, 319.9169
419.5498, 319.4923
420.0319, 319.3820
420.5140, 320.0821
420.9961, 320.8872
421.4782, 321.3170
421.9604, 321.0855
422.4425, 321.0721
422.9246, 321.8023
423.4067, 322.7630
423.8889, 323.2588
424.3710, 322.6200
424.8531, 322.1170
425.3352, 322.0282
425.8173, 322.3515
426.2994, 322.8008
426.7816, 323.5512
427.2637, 324.2464
427.7458, 324.5965
428.2279, 324.3058
428.7100, 324.4099
429.1921, 325.0462
429.6743, 326.0628
430.1564, 327.2391
430.6385, 328.7563
431.1206, 329.7275
431.6027, 329.6007
432.0848, 328.4311
432.5670, 327.4878
433.0491, 326.7430
433.5312, 326.3360
434.0133, 326.5509
434.4954, 327.3025
434.9775, 328.0075
435.4597, 328.5089
435.9418, 328.9110
436.4239, 329.4186
436.9060, 330.0026
437.3881, 330.4983
437.8702, 330.7560
438.3524, 330.8734
438.8345, 330.9535
439.3166, 330.9872
439.7987, 331.1022
440.2808, 331.4593
440.7629, 331.9512
441.2451, 332.4087
441.7272, 332.6827
442.2093, 332.9737
442.6914, 333.5267
443.1735, 334.2645
443.6556, 334.6762
444.1378, 334.0540
444.6199, 333.4052
445.1020, 333.4190
445.5841, 334.6512
446.0662, 335.6631
446.5483, 336.2390
447.0305, 336.4937
447.5126, 336.6031
447.9947, 336.2659
448.4768, 336.1648
448.9590, 336.5576
449.4411, 337.4568
449.9232, 338.0247
450.4053, 338.0416
450.8874, 338.0417
451.3695, 338.4881
451.8517, 339.5474
452.3338, 340.2650
452.8159, 340.4258
453.2980, 340.3368
453.7801, 340.6765
454.2622, 341.4707
454.7444, 342.2469
455.2265, 342.7950
455.7086, 343.1506
456.1907, 343.4559
456.6728, 343.7221
457.1549, 343.8601
457.6371, 343.5832
458.1192, 343.1239
458.6013, 343.0941
459.0834, 343.8198
459.5655, 344.7004
460.0476, 345.0133
460.5298, 344.9319
461.0119, 344.9532
461.4940, 345.5441
461.9761, 346.2022
462.4582, 346.5214
462.9403, 346.4557
463.4225, 346.2880
463.9046, 345.9888
464.3867, 345.7235
464.8688, 345.6555
465.3509, 345.9521
465.8330, 346.3023
466.3152, 346.6934
466.7973, 347.1015
467.2794, 347.4360
467.7615, 347.4890
468.2436, 347.6768
468.7257, 348.2365
469.2079, 349.3463
469.6900, 349.9349
470.1721, 349.7131
470.6542, 349.2763
471.1363, 349.2166
471.6184, 349.5554
472.1006, 350.2320
472.5827, 351.4009
473.0648, 352.7994
473.5469, 353.5229
474.0291, 353.5156
474.5112, 353.5054
474.9933, 354.0316
475.4754, 354.9333
475.9575, 355.4671
476.4396, 355.5767
476.9218, 355.5629
477.4039, 355.7018
477.8860, 355.9612
478.3681, 356.2608
478.8502, 356.5343
479.3323, 356.8832
479.8145, 357.5599
480.2966, 358.4409
480.7787, 359.0553
481.2608, 358.9666
481.7429, 358.6700
482.2250, 358.5172
482.7072, 358.5800
483.1893, 358.5918
483.6714, 358.4058
484.1535, 358.1494
484.6356, 357.9525
485.1177, 357.7880
485.5999, 357.7458
486.0820, 357.9603
486.5641, 358.3382
487.0462, 358.5104
487.5283, 358.2575
488.0104, 358.1063
488.4926, 358.3078
488.9747, 358.9408
489.4568, 359.4172
489.9389, 359.6949
490.4210, 359.8860
490.9031, 360.1442
491.3853, 360.4842
491.8674, 360.5950
492.3495, 360.2801
492.8316, 359.8519
493.3137, 360.1194
493.7958, 361.0182
494.2780, 361.8483
494.7601, 361.8775
495.2422, 361.6343
495.7243, 362.3344
496.2064, 364.0807
496.6885, 365.6743
497.1707, 366.1438
497.6528, 365.8956
498.1349, 365.4337
498.6170, 364.5034
499.0992, 363.9724
499.5813, 364.7938
500.0634, 366.3904
500.5455, 367.3540
501.0276, 366.5225
501.5097, 365.5954
501.9919, 365.2642
502.4740, 365.6511
502.9561, 366.1225
503.4382, 366.9376
503.9203, 367.6083
504.4024, 367.7605
504.8846, 367.0214
505.3667, 366.5410
505.8488, 366.4615
506.3309, 366.6347
506.8130, 366.7115
507.2951, 366.6361
507.7773, 366.7304
508.2594, 367.2284
508.7415, 368.0128
509.2236, 368.3745
509.7057, 368.2869
510.1878, 368.1270
510.6700, 368.2137
511.1521, 368.4787
511.6342, 368.7171
512.1163, 368.8894
512.5984, 369.0525
513.0806, 369.2188
513.5627, 369.4203
514.0448, 369.7245
514.5269, 370.4116
515.0090, 371.0008
515.4911, 370.9059
515.9733, 370.2796
516.4554, 370.1534
516.9375, 371.8822
517.4196, 373.5252
517.9017, 373.7516
518.3839, 371.5023
518.8660, 370.0609
519.3481, 370.3657
519.8302, 371.3810
520.3123, 372.0261
520.7944, 372.1065
521.2766, 372.1946
521.7587, 372.4299
522.2408, 372.7365
522.7229, 372.7999
523.2050, 372.5880
523.6871, 372.2794
524.1693, 371.8069
524.6514, 371.2318
525.1335, 371.2870
525.6156, 372.0319
526.0977, 373.0449
526.5798, 374.2823
527.0620, 375.4816
527.5441, 375.7154
528.0262, 374.3961
528.5083, 372.7983
528.9904, 372.2515
529.4725, 372.4966
529.9547, 372.9215
530.4368, 373.1666
530.9189, 373.5290
531.4010, 374.3268
531.8831, 375.5586
532.3652, 376.5352
532.8474, 376.9579
533.3295, 377.1194
533.8116, 377.2009
534.2937, 377.1550
534.7758, 377.1486
535.2579, 377.3002
535.7401, 377.4438
536.2222, 377.3171
536.7043, 376.7894
537.1864, 376.2924
537.6685, 375.8410
538.1506, 375.5067
538.6328, 375.7606
539.1149, 376.7220
539.5970, 377.5711
540.0791, 377.6449
540.5612, 377.1436
541.0433, 377.0604
541.5255, 377.4682
542.0076, 377.9044
542.4897, 377.7564
542.9718, 377.3195
543.4539, 377.1911
543.9360, 377.5805
544.4182, 378.2314
544.9003, 379.1583
545.3824, 380.1870
545.8645, 380.9352
546.3466, 381.1213
546.8287, 381.1006
547.3109, 380.9083
547.7930, 380.5474
548.2751, 380.4549
548.7572, 381.1367
549.2393, 381.7608
549.7214, 381.8109
550.2036, 380.7052
550.6857, 380.4099
551.1678, 381.2950
551.6499, 382.6238
552.1320, 383.4016
552.6141, 383.5987
553.0963, 383.4740
553.5784, 382.9934
554.0605, 382.3165
554.5426, 381.8157
555.0247, 381.4913
555.5068, 381.3356
555.9890, 381.3875
556.4711, 381.5909
556.9532, 381.9679
557.4353, 382.5135
557.9174, 382.8033
558.3995, 382.0150
558.8817, 381.0170
559.3638, 380.8680
559.8459, 382.3650
560.3281, 383.6046
560.8102, 383.5630
561.2923, 382.8328
561.7744, 382.3429
562.2565, 382.3833
562.7386, 382.5555
563.2208, 382.8378
563.7029, 383.2046
564.1850, 383.5214
564.6671, 383.9313
565.1492, 384.0322
565.6313, 383.3958
566.1135, 381.9060
566.5956, 381.3896
567.0777, 381.9658
567.5598, 383.1086
568.0419, 384.8077
568.5240, 386.7643
569.0062, 387.3203
569.4883, 385.7485
569.9704, 383.6189
570.4525, 382.9995
570.9346, 383.4259
571.4167, 383.7245
571.8989, 382.9644
572.3810, 382.2128
572.8631, 382.3922
573.3452, 383.3537
573.8273, 384.0441
574.3094, 383.9819
574.7916, 383.6076
575.2737, 383.0712
575.7558, 382.2132
576.2379, 381.7674
576.7200, 381.9132
577.2021, 382.3379
577.6843, 382.8296
578.1664, 383.5124
578.6485, 383.8355
579.1306, 383.6283
579.6127, 383.1559
580.0948, 383.0337
580.5770, 383.2624
581.0591, 383.2246
581.5412, 382.4212
582.0233, 381.3342
582.5054, 381.1590
582.9875, 381.7896
583.4697, 382.4084
583.9518, 382.3685
584.4339, 382.0757
584.9160, 381.9871
585.3981, 382.1785
585.8802, 382.3481
586.3624, 382.3826
586.8445, 382.3092
587.3266, 382.1519
587.8087, 381.7726
588.2908, 381.4977
588.7729, 381.3976
589.2551, 381.4158
589.7372, 381.4930
590.2193, 381.7879
590.7014, 381.8018
591.1835, 381.2977
591.6656, 380.4130
592.1478, 379.8279
592.6299, 379.5359
593.1120, 379.5948
593.5941, 380.3257
594.0762, 381.4589
594.5583, 381.9177
595.0405, 381.6440
595.5226, 381.2391
596.0047, 381.2772
596.4868, 381.5064
596.9689, 381.5351
597.4510, 381.1922
597.9332, 380.8737
598.4153, 381.1246
598.8974, 381.4720
599.3795, 381.2141
599.8616, 379.0511
600.3438, 377.4980
600.8259, 377.6813
601.3080, 379.0736
601.7901, 379.5399
602.2722, 378.4201
602.7543, 377.4747
603.2365, 377.4693
603.7186, 378.3741
604.2007, 378.6958
604.6828, 378.3289
605.1649, 377.8264
605.6470, 377.2472
606.1292, 376.8337
606.6113, 378.1750
607.0934, 381.8041
607.5755, 384.8635
608.0576, 383.4659
608.5398, 379.6407
609.0219, 376.8955
609.5040, 377.0597
609.9861, 377.5488
610.4683, 376.8375
610.9504, 375.4251
611.4325, 374.3691
611.9146, 374.0621
612.3967, 374.0567
612.8788, 374.4837
613.3610, 375.2621
613.8431, 375.3269
614.3252, 374.2273
614.8073, 373.1817
615.2894, 372.8482
615.7715, 373.2741
616.2537, 373.5541
616.7358, 373.6829
617.2179, 373.6638
617.7000, 373.3534
618.1821, 372.8691
618.6642, 372.6603
619.1464, 372.8246
619.6285, 373.1559
620.1106, 373.6072
620.5927, 374.0483
621.0748, 374.2587
621.5569, 374.0406
622.0391, 373.6899
622.5212, 373.1776
623.0033, 372.6197
623.4854, 372.3638
623.9675, 372.7999
624.4496, 373.2245
624.9318, 373.4891
625.4139, 373.5975
625.8960, 373.4376
626.3781, 372.8985
626.8602, 372.3655
627.3423, 372.0474
627.8245, 371.9437
628.3066, 372.1019
628.7887, 372.5657
629.2708, 372.9972
629.7529, 373.0866
630.2350, 372.8659
630.7172, 372.3091
631.1993, 371.1989
631.6814, 370.3263
632.1635, 370.5748
632.6456, 371.4330
633.1277, 372.0909
633.6099, 372.1554
634.0920, 372.1045
634.5741, 372.1798
635.0562, 372.2780
635.5383, 371.9879
636.0204, 370.9937
636.5026, 370.0598
636.9847, 369.3424
637.4668, 368.8637
637.9489, 369.0271
638.4310, 370.0382
638.9131, 370.7957
639.3953, 370.2296
639.8774, 368.7141
640.3595, 368.0414
640.8416, 368.3233
641.3237, 368.8729
641.8058, 369.0862
642.2880, 369.1439
642.7701, 369.3168
643.2522, 369.7379
643.7343, 370.0736
644.2164, 370.2470
644.6985, 370.2042
645.1807, 369.8731
645.6628, 368.7610
646.1449, 367.9413
646.6270, 367.5679
647.1091, 367.5685
647.5912, 367.8712
648.0734, 368.7368
648.5555, 369.1435
649.0376, 368.5407
649.5197, 367.2593
650.0018, 366.8800
650.4839, 367.3898
650.9661, 367.9827
651.4482, 368.0972
651.9303, 367.9713
652.4124, 368.1002
652.8945, 368.4960
653.3766, 368.7014
653.8588, 368.2783
654.3409, 367.6211
654.8230, 367.0044
655.3051, 366.3836
655.7872, 366.0885
656.2693, 366.3568
656.7515, 366.8955
657.2336, 367.4446
657.7158, 368.1209
658.1979, 368.5222
658.6800, 368.5375
659.1621, 368.3422
659.6442, 368.1982
660.1263, 368.0998
660.6085, 368.1436
661.0906, 368.4199
661.5727, 368.7726
662.0548, 369.0116
662.5369, 369.1110
663.0190, 368.9765
663.5012, 368.3062
663.9833, 367.5865
664.4654, 367.1749
664.9475, 367.0725
665.4296, 367.1241
665.9117, 367.5115
666.3939, 367.8573
666.8760, 367.9323
667.3581, 367.6816
667.8402, 367.5958
668.3223, 367.7697
668.8044, 367.9664
669.2866, 367.9855
669.7687, 367.8156
670.2508, 367.7282
670.7329, 367.7445
671.2150, 367.7880
671.6971, 367.8383
672.1793, 367.8389
672.6614, 367.6100
673.1435, 366.9982
673.6256, 366.4224
674.1077, 366.1310
674.5898, 366.1086
675.0720, 366.3338
675.5541, 367.2483
676.0362, 367.9102
676.5183, 367.9964
677.0004, 367.6424
677.4825, 367.1847
677.9647, 366.4133
678.4468, 366.0012
678.9289, 366.3299
679.4110, 367.1530
679.8931, 367.1419
680.3752, 366.2435
680.8574, 365.4262
681.3395, 365.3052
681.8216, 365.6367
682.3037, 366.0411
682.7858, 366.4901
683.2679, 366.6914
683.7501, 366.3809
684.2322, 365.7808
684.7143, 364.8776
685.1964, 363.5275
685.6785, 362.8522
686.1606, 363.7809
686.6428, 365.0556
687.1249, 365.7856
687.6070, 365.7864
688.0891, 365.6120
688.5712, 365.1606
689.0533, 364.7087
689.5355, 364.6354
690.0176, 364.9272
690.4997, 365.2419
690.9818, 365.5801
691.4639, 365.7553
691.9460, 365.4178
692.4282, 364.7249
692.9103, 364.0118
693.3924, 363.2209
693.8745, 362.6586
694.3566, 362.5952
694.8387, 362.8924
695.3209, 363.2289
695.8030, 363.7570
696.2851, 364.0422
696.7672, 363.9369
697.2493, 363.5008
697.7314, 363.0314
698.2136, 362.4936
698.6957, 362.0386
699.1778, 361.7882
699.6599, 361.6720
700.1420, 361.3834
700.6241, 360.9279
701.1063, 360.3879
701.5884, 359.7558
702.0705, 359.1102
702.5526, 358.5165
703.0347, 357.9821
703.5168, 357.5912
703.9990, 357.2313
704.4811, 357.1436
704.9632, 357.5533
705.4453, 358.7150
705.9274, 359.7737
706.4095, 361.0556
706.8917, 361.8578
707.3738, 361.3995
707.8560, 359.5338
708.3381, 357.7944
708.8202, 356.2215
709.3023, 355.0461
709.7844, 354.5476
710.2665, 354.6859
710.7487, 355.4511
711.2308, 357.1056
711.7129, 358.6955
712.1950, 359.4264
712.6771, 359.6244
713.1592, 359.7821
713.6414, 359.7880
714.1235, 360.0671
714.6056, 360.7398
715.0877, 361.7454
715.5698, 363.0029
716.0519, 364.5992
716.5341, 366.2089
717.0162, 367.7609
717.4983, 369.2514
717.9804, 370.5536
718.4625, 371.6971
718.9446, 372.9609
719.4268, 374.4987
719.9089, 376.2161
720.3910, 377.9861
720.8731, 379.8252
721.3552, 381.8778
721.8373, 384.4359
722.3195, 387.0151
722.8016, 389.2501
723.2837, 391.0977
723.7658, 393.3047
724.2479, 396.0475
724.7300, 398.9185
725.2122, 401.6599
725.6943, 404.2660
726.1764, 407.2817
726.6585, 410.7704
727.1406, 414.5117
727.6227, 418.5465
728.1049, 422.7245
728.5870, 426.4999
729.0691, 429.8175
729.5512, 433.2577
730.0333, 437.0449
730.5154, 441.2828
730.9976, 446.0116
731.4797, 451.3556
731.9618, 456.9104
732.4439, 462.6808
732.9260, 468.5723
733.4081, 474.6641
733.8903, 481.1403
734.3724, 486.9786
734.8545, 491.8073
735.3366, 496.6327
735.8187, 502.7815
736.3008, 510.0511
736.7830, 517.6163
737.2651, 525.4483
737.7472, 533.0865
738.2293, 539.5648
738.7114, 545.6195
739.1935, 552.3110
739.6757, 560.3241
740.1578, 568.5612
740.6399, 576.8772
741.1220, 585.1607
741.6041, 593.3093
742.0862, 601.0767
742.5684, 609.3034
743.0505, 618.2667
743.5326, 627.6882
744.0147, 637.3817
744.4968, 647.1683
744.9789, 655.7430
745.4611, 662.3146
745.9432, 667.8236
746.4253, 673.1832
746.9074, 678.4993
747.3895, 683.9881
747.8716, 690.8375
748.3538, 696.8010
748.8359, 700.4020
749.3180, 702.1658
749.8001, 704.7798
750.2822, 708.7894
750.7643, 712.8568
751.2465, 716.4929
751.7286, 719.8718
752.2107, 723.5612
752.6928, 727.5717
753.1749, 732.0857
753.6570, 737.6314
754.1392, 743.5104
754.6213, 749.2020
755.1034, 754.4560
755.5855, 757.6036
756.0676, 757.4515
756.5498, 755.2089
757.0319, 751.9110
757.5140, 747.6140
757.9962, 739.9437
758.4783, 729.3161
758.9604, 714.8615
759.4425, 695.7373
759.9246, 672.1552
760.4067, 645.6329
760.8889, 616.0550
761.3710, 585.6622
761.8531, 555.5998
762.3352, 526.0524
762.8173, 496.8430
763.2994, 468.1567
763.7816, 441.7120
764.2637, 418.7551
764.7458, 398.5991
765.2279, 381.2498
765.7100, 366.7014
766.1921, 353.7106
766.6743, 342.0992
767.1564, 332.0106
767.6385, 323.7587
768.1206, 317.4274
768.6027, 311.4511
769.0848, 305.7527
769.5670, 300.7165
770.0491, 296.7558
770.5312, 293.6256
771.0133, 290.8895
771.4954, 288.5021
771.9775, 286.3911
772.4597, 284.4812
772.9418, 282.8467
773.4239, 281.5287
773.9060, 280.5506
774.3881, 279.9125
774.8702, 279.9634
775.3524, 279.9484
775.8345, 279.0761
776.3166, 277.2337
776.7987, 275.9700
777.2808, 275.4259
777.7629, 275.2824
778.2451, 275.2155
778.7272, 275.2991
779.2093, 275.7534
779.6914, 276.7086
780.1735, 277.6127
780.6556, 278.0770
781.1378, 278.3495
781.6199, 278.6568
782.1020, 278.8688
782.5841, 279.4061
783.0662, 280.3481
783.5483, 281.5254
784.0305, 282.7366
784.5126, 283.9864
784.9947, 285.4492
785.4768, 287.1871
785.9589, 288.9228
786.4410, 290.0401
786.9232, 290.9853
787.4053, 292.6587
787.8874, 295.5296
788.3695, 298.4853
788.8516, 301.0738
789.3337, 303.4569
789.8159, 305.8497
790.2980, 308.1332
790.7801, 310.6340
791.2622, 313.3257
791.7443, 316.2681
792.2264, 319.4400
792.7086, 322.8792
793.1907, 326.5477
793.6728, 330.4480
794.1549, 334.6779
794.6370, 339.3476
795.1191, 344.4840
795.6013, 350.1522
796.0834, 356.3556
796.5655, 363.0990
797.0476, 370.0435
797.5297, 377.7885
798.0118, 387.0515
798.4940, 398.4445
798.9761, 409.9522
799.4582, 421.0146
799.9403, 432.8971
800.4224, 447.6105
800.9045, 464.9748
801.3867, 484.1395
801.8688, 504.7577
802.3509, 527.5470
802.8330, 552.4976
803.3151, 580.1591
803.7972, 610.8349
804.2794, 643.9484
804.7615, 681.3929
805.2436, 724.1751
805.7258, 771.6337
806.2079, 822.9777
806.6900, 877.3160
807.1721, 939.5871
807.6542, 1010.261
808.1364, 1087.309
808.6185, 1169.160
809.1006, 1254.930
809.5827, 1342.183
810.0648, 1430.590
810.5469, 1519.602
811.0291, 1608.865
811.5112, 1698.268
811.9933, 1788.789
812.4754, 1878.807
812.9575, 1972.850
813.4396, 2071.672
813.9218, 2174.165
814.4039, 2277.964
814.8860, 2383.905
815.3681, 2491.222
815.8502, 2600.421
816.3323, 2711.159
816.8145, 2824.593
817.2966, 2938.574
817.7787, 3051.925
818.2608, 3165.770
818.7429, 3275.485
819.2250, 3382.522
819.7072, 3482.370
820.1893, 3571.375
820.6714, 3660.846
821.1535, 3716.613
821.6356, 3741.423
822.1177, 3727.324
822.5999, 3664.516
823.0820, 3554.449
823.5641, 3403.381
824.0462, 3209.388
824.5283, 2991.181
825.0104, 2752.985
825.4926, 2508.250
825.9747, 2273.941
826.4568, 2051.231
826.9389, 1846.126
827.4210, 1658.578
827.9031, 1489.337
828.3853, 1337.849
828.8674, 1206.200
829.3495, 1088.760
829.8316, 986.9508
830.3137, 896.8681
830.7958, 818.3082
831.2780, 750.2553
831.7601, 690.8915
832.2422, 640.6697
832.7243, 596.5435
833.2064, 558.4619
833.6885, 525.0692
834.1707, 495.5358
834.6528, 470.2133
835.1349, 447.8240
835.6170, 428.7401
836.0991, 412.0253
836.5812, 397.6895
837.0634, 385.6030
837.5455, 373.7914
838.0276, 362.0949
838.5097, 351.3794
838.9918, 342.2159
839.4739, 334.2352
839.9561, 327.2439
840.4382, 321.1436
840.9203, 315.3834
841.4024, 309.7391
841.8845, 304.4440
842.3666, 299.5570
842.8488, 295.0763
843.3309, 290.9034
843.8130, 287.0807
844.2951, 283.3440
844.7772, 279.6174
845.2593, 275.8315
845.7415, 271.7922
846.2236, 267.5514
846.7057, 263.4647
847.1878, 259.6788
847.6699, 256.1532
848.1520, 253.0528
848.6342, 250.2865
849.1163, 247.0197
849.5984, 242.6802
850.0805, 239.0371
850.5626, 236.9095
851.0447, 235.7919
851.5269, 234.0464
852.0090, 231.7491
852.4911, 229.5281
852.9732, 227.7231
853.4553, 226.1253
853.9374, 224.6654
854.4196, 223.2472
854.9017, 221.6290
855.3839, 219.4853
855.8660, 217.4673
856.3481, 215.6546
856.8302, 214.0632
857.3123, 212.7724
857.7944, 211.7970
858.2766, 210.7973
858.7587, 209.6724
859.2408, 208.4989
859.7229, 207.2727
860.2050, 206.1064
860.6871, 205.2906
861.1693, 205.3441
861.6514, 205.0931
862.1335, 203.6887
862.6156, 201.9245
863.0977, 200.9326
863.5798, 201.1105
864.0620, 200.8443
864.5441, 199.8637
865.0262, 198.7329
865.5083, 198.1940
865.9904, 198.0784
866.4725, 197.8405
866.9547, 197.3513
867.4368, 196.9013
867.9189, 196.8195
868.4010, 196.7927
868.8831, 196.5042
869.3652, 195.7438
869.8474, 195.1404
870.3295, 194.7417
870.8116, 194.4315
871.2937, 194.1521
871.7758, 193.8973
872.2579, 193.6402
872.7401, 193.3794
873.2222, 192.9550
873.7043, 191.8744
874.1864, 190.8113
874.6685, 190.5771
875.1506, 191.2390
875.6328, 191.6676
876.1149, 191.4966
876.5970, 191.1166
877.0791, 190.5694
877.5612, 189.8984
878.0433, 189.6102
878.5255, 189.7192
879.0076, 189.8437
879.4897, 189.7857
879.9718, 189.6030
880.4539, 189.2714
880.9360, 188.8673
881.4182, 188.6538
881.9003, 189.1346
882.3824, 189.3852
882.8645, 188.8319
883.3466, 187.8572
883.8287, 187.4693
884.3109, 187.7740
884.7930, 188.0772
885.2751, 188.2502
885.7572, 188.2286
886.2393, 187.6398
886.7214, 186.7804
887.2036, 186.4257
887.6857, 187.2485
888.1678, 187.9416
888.6499, 187.8465
889.1320, 187.3269
889.6141, 186.8542
890.0963, 186.4146
890.5784, 186.1441
891.0605, 186.1246
891.5426, 186.0979
892.0247, 185.6589
892.5068, 184.9699
892.9890, 184.5077
893.4711, 184.3516
893.9532, 184.3513
894.4353, 184.7509
894.9174, 185.0268
895.3995, 184.6197
895.8817, 183.2072
896.3638, 182.4321
896.8459, 182.5175
897.3280, 182.7852
897.8101, 182.8360
898.2922, 182.7048
898.7744, 182.6022
899.2565, 182.5172
899.7386, 182.3512
900.2207, 181.8618
900.7028, 181.4143
901.1849, 181.4290
901.6671, 181.8080
902.1492, 181.7698
902.6313, 181.1158
903.1134, 180.2597
903.5955, 179.2253
904.0776, 178.1173
904.5598, 177.2478
905.0419, 176.5852
905.5240, 175.8266
906.0062, 174.7748
906.4883, 173.7276
906.9704, 172.9249
907.4525, 172.3192
907.9346, 171.8235
908.4167, 171.6564
908.8989, 171.2500
909.3810, 170.4339
909.8631, 169.5238
910.3452, 168.9840
910.8273, 168.7769
911.3094, 168.2841
911.7916, 167.3894
912.2737, 166.5480
912.7558, 166.2900
913.2379, 166.2494
913.7200, 165.9718
914.2021, 165.2920
914.6843, 164.9577
915.1664, 165.4603
915.6485, 165.8495
916.1306, 165.5370
916.6127, 164.5797
917.0948, 163.9123
917.5770, 163.5339
918.0591, 163.4027
918.5412, 163.6905
919.0233, 164.0599
919.5054, 164.0453
919.9875, 163.7667
920.4697, 163.7584
920.9518, 164.1945
921.4339, 164.9317
921.9160, 166.1165
922.3981, 167.4737
922.8802, 168.2957
923.3624, 168.5866
923.8445, 168.7157
924.3266, 168.7887
924.8087, 168.7357
925.2908, 168.6817
925.7729, 168.3835
926.2551, 167.4318
926.7372, 165.0563
927.2193, 163.2215
927.7014, 162.1829
928.1835, 161.6672
928.6656, 161.6002
929.1478, 161.9838
929.6299, 161.9471
930.1120, 161.4323
930.5941, 160.8301
931.0762, 160.4141
931.5583, 160.1293
932.0405, 159.8777
932.5226, 159.6577
933.0047, 159.6588
933.4868, 160.2686
933.9689, 160.6670
934.4510, 160.4498
934.9332, 159.7912
935.4153, 159.6670
935.8974, 160.0471
936.3795, 160.3397
936.8616, 160.1846
937.3438, 159.9145
937.8259, 159.8535
938.3080, 159.9291
938.7901, 159.9990
939.2722, 160.0556
939.7543, 160.0607
940.2365, 160.0094
940.7186, 159.9102
941.2007, 159.7516
941.6828, 159.5435
942.1649, 159.4194
942.6470, 159.4139
943.1292, 159.3589
943.6113, 158.9079
944.0934, 158.4546
944.5755, 158.4543
945.0576, 159.0806
945.5397, 159.5041
946.0219, 159.7086
946.5040, 159.6347
946.9861, 159.1879
947.4682, 158.4263
947.9503, 157.5789
948.4324, 156.6957
948.9146, 156.2462
949.3967, 157.0642
949.8788, 157.9028
950.3609, 157.5412
950.8430, 156.4515
951.3251, 156.1265
951.8073, 157.3870
952.2894, 158.0271
952.7715, 157.5304
953.2536, 156.5891
953.7357, 156.3763
954.2179, 156.7216
954.7000, 156.9637
955.1821, 156.9717
955.6642, 156.8212
956.1464, 156.4008
956.6285, 155.9528
957.1106, 155.6972
957.5927, 155.6748
958.0748, 155.7681
958.5569, 156.0848
959.0391, 156.2197
959.5212, 155.6870
960.0033, 154.8017
960.4854, 154.5901
960.9675, 154.9453
961.4496, 155.2628
961.9318, 155.1910
962.4139, 155.0302
962.8960, 154.9772
963.3781, 154.9428
963.8602, 154.6255
964.3423, 153.9055
964.8245, 153.4858
965.3066, 153.6133
965.7887, 153.8189
966.2708, 153.2010
966.7529, 152.2230
967.2350, 151.8678
967.7172, 152.5752
968.1993, 153.1096
968.6814, 152.7679
969.1635, 152.2861
969.6456, 152.2115
970.1277, 152.5956
970.6099, 152.6342
971.0920, 152.2948
971.5741, 152.0154
972.0562, 152.2225
972.5383, 152.5797
973.0204, 152.6421
973.5026, 152.4651
973.9847, 152.3183
974.4668, 152.4399
974.9489, 152.3853
975.4310, 151.9319
975.9131, 151.3552
976.3953, 151.2164
976.8774, 151.4960
977.3595, 151.9783
977.8416, 152.7104
978.3237, 153.2148
978.8058, 152.8060
979.2880, 152.0720
979.7701, 151.6556
980.2522, 151.7618
980.7343, 151.8842
981.2164, 152.1043
981.6985, 152.1458
982.1807, 151.6167
982.6628, 150.7661
983.1449, 150.9576
983.6270, 152.0013
984.1091, 152.7176
984.5912, 152.1518
985.0734, 151.3536
985.5555, 150.7385
986.0376, 150.3603
986.5197, 150.3223
987.0018, 150.7938
987.4839, 151.0042
987.9661, 150.7708
988.4482, 150.4316
988.9303, 150.5774
989.4124, 150.9171
989.8945, 150.8233
990.3766, 150.1096
990.8588, 149.5024
991.3409, 149.2795
991.8230, 149.2883
992.3051, 149.4763
992.7872, 149.8321
993.2693, 150.1075
993.7515, 150.2993
994.2336, 150.4735
994.7157, 150.3406
995.1978, 150.4985
995.6799, 152.4498
996.1620, 155.1759
996.6442, 156.2861
997.1263, 153.4006
997.6084, 151.2242
998.0905, 150.3004
998.5726, 150.1172
999.0547, 150.1441
999.5369, 150.3483
1000.019, 150.5445
1000.501, 150.7151
1000.983, 150.8055
1001.465, 150.8154
1001.947, 150.7011
1002.430, 150.3209
1002.912, 149.6738
1003.394, 149.4501
1003.876, 149.8079
1004.358, 150.0706
1004.840, 149.9424
1005.322, 149.6101
1005.804, 149.4338
1006.287, 149.3504
1006.769, 149.1906
1007.251, 148.7333
1007.733, 148.4393
1008.215, 148.6434
1008.697, 148.9320
1009.179, 148.8734
1009.661, 148.4087
1010.143, 148.3152
1010.626, 148.6362
1011.108, 149.0513
1011.590, 149.4565
1012.072, 149.7146
1012.554, 149.5230
1013.036, 148.9699
1013.518, 148.8078
1014.000, 149.4645
1014.483, 149.9683
1014.965, 150.0613
1015.447, 149.9174
1015.929, 149.8693
1016.411, 149.8931
1016.893, 149.8980
1017.375, 149.8546
1017.857, 149.8129
1018.339, 149.7816
1018.822, 149.7811
1019.304, 149.8155
1019.786, 149.8711
1020.268, 150.1368
1020.750, 150.6863
1021.232, 150.9644
1021.714, 150.3347
1022.196, 149.3867
1022.679, 149.0366
1023.161, 149.1424
1023.643, 149.3061
1024.125, 149.3584
1024.607, 149.5217
1025.089, 149.9285
1025.571, 150.3541
1026.053, 150.4335
1026.535, 150.2163
1027.018, 150.1111
1027.500, 150.1736
1027.982, 150.2286
1028.464, 150.1631
1028.946, 150.0202
1029.428, 149.7268
1029.910, 149.3003
1030.392, 149.3772
1030.875, 150.1589
1031.357, 150.7064
1031.839, 150.6465
1032.321, 150.2334
1032.803, 149.6826
1033.285, 149.1651
1033.767, 149.0936
1034.249, 149.9126
1034.731, 150.5391
1035.214, 150.5441
1035.696, 150.4304
1036.178, 150.5427
1036.660, 150.8794
1037.142, 151.4656
1037.624, 152.2708
1038.106, 152.7436
1038.588, 152.2090
1039.071, 151.4734
1039.553, 151.0689
1040.035, 150.9716
1040.517, 151.0215
1040.999, 151.2558
1041.481, 151.4956
1041.963, 151.7193
1042.445, 151.9348
1042.927, 152.1031
1043.410, 152.2888
1043.892, 152.6600
1044.374, 153.2657
1044.856, 153.7891
1045.338, 154.0066
1045.820, 154.2273
1046.302, 154.5864
1046.784, 155.0548
1047.266, 155.4910
1047.749, 155.8992
1048.231, 156.2992
1048.713, 156.6717
1049.195, 157.0780
1049.677, 157.5761
1050.159, 158.1387
1050.641, 158.7259
1051.123, 159.2837
1051.606, 160.0215
1052.088, 160.9785
1052.570, 161.9865
1053.052, 162.7902
1053.534, 163.6351
1054.016, 165.0131
1054.498, 166.8736
1054.980, 168.9238
1055.463, 171.1118
1055.945, 173.4008
1056.427, 175.6309
1056.909, 178.0510
1057.391, 181.0481
1057.873, 184.6021
1058.355, 188.6640
1058.837, 193.2711
1059.319, 197.9098
1059.802, 201.4873
1060.284, 205.3830
1060.766, 210.8678
1061.248, 217.8722
1061.730, 224.4477
1062.212, 230.3806
1062.694, 237.0888
1063.176, 245.2863
1063.658, 254.0645
1064.141, 261.8588
1064.623, 269.4617
1065.105, 278.2933
1065.587, 289.0926
1066.069, 300.1634
1066.551, 311.4652
1067.033, 322.7633
1067.515, 333.9891
1067.998, 345.1449
1068.480, 355.8131
1068.962, 366.0006
1069.444, 375.5603
1069.926, 384.7032
1070.408, 392.7837
1070.890, 399.1895
1071.372, 404.2641
1071.854, 408.1774
1072.337, 410.7573
1072.819, 413.4225
1073.301, 416.2003
1073.783, 419.9322
1074.265, 425.1471
1074.747, 431.8539
1075.229, 440.7347
1075.711, 451.5519
1076.193, 461.4086
1076.676, 470.6841
1077.158, 477.4822
1077.640, 481.0596
1078.122, 482.2255
1078.604, 481.2432
1079.086, 479.1716
1079.568, 477.9399
1080.051, 477.5898
1080.533, 479.7079
1081.015, 484.3563
1081.497, 492.3008
1081.979, 503.7603
1082.461, 518.8236
1082.943, 538.8499
1083.425, 563.8425
1083.907, 592.6516
1084.390, 626.1134
1084.872, 661.3688
1085.354, 699.5164
1085.836, 736.6263
1086.318, 770.0197
1086.800, 802.0733
1087.282, 820.6702
1087.764, 825.9246
1088.246, 815.1351
1088.729, 782.4363
1089.211, 735.1850
1089.693, 676.5602
1090.175, 609.8769
1090.657, 546.4034
1091.139, 486.1605
1091.621, 432.6875
1092.103, 386.6013
1092.586, 347.1961
1093.068, 314.0578
1093.550, 286.8571
1094.032, 264.5853
1094.514, 247.1326
1094.996, 232.5655
1095.478, 221.0737
1095.960, 211.5829
1096.443, 203.7908
1096.925, 197.5529
1097.407, 192.3437
1097.889, 188.1234
1098.371, 184.8566
1098.853, 182.6965
1099.335, 180.7709
1099.817, 178.6959
1100.299, 176.3941
1100.781, 173.6194
1101.264, 170.3240
1101.746, 167.9619
1102.228, 166.5748
1102.710, 165.3956
1103.192, 164.0373
1103.674, 162.7298
1104.156, 161.8921
1104.638, 161.2588
1105.121, 160.3640
1105.603, 158.7995
1106.085, 157.6895
1106.567, 157.1440
1107.049, 156.7405
1107.531, 156.1239
1108.013, 155.4148
1108.495, 154.7625
1108.978, 154.2043
1109.460, 153.8537
1109.942, 154.0530
1110.424, 154.0375
1110.906, 153.6238
1111.388, 153.0144
1111.870, 152.4326
1112.352, 151.8807
1112.834, 151.3759
1113.317, 150.9143
1113.799, 150.4929
1114.281, 149.9589
1114.763, 149.6353
1115.245, 149.8146
1115.727, 150.2642
1116.209, 150.4448
1116.691, 150.3606
1117.173, 150.0017
1117.656, 149.3146
1118.138, 148.6575
1118.620, 148.3262
1119.102, 148.1694
1119.584, 148.1317
1120.066, 148.1929
1120.548, 147.9688
1121.030, 147.3850
1121.513, 147.0653
1121.995, 147.3682
1122.477, 147.7744
1122.959, 147.6126
1123.441, 147.1584
1123.923, 146.8071
1124.405, 146.7036
1124.887, 146.4510
1125.370, 145.9408
1125.852, 145.5704
1126.334, 145.6299
1126.816, 145.9474
1127.298, 146.3069
1127.780, 146.6185
1128.262, 146.6604
1128.744, 145.9640
1129.226, 145.5875
1129.709, 145.7667
1130.191, 146.0578
1130.673, 146.0874
1131.155, 145.9059
1131.637, 145.6116
1132.119, 145.2589
1132.601, 145.1357
1133.083, 145.6806
1133.566, 146.1169
1134.048, 146.1454
1134.530, 145.9698
1135.012, 145.8559
1135.494, 145.7911
1135.976, 145.6157
1136.458, 145.3165
1136.940, 144.9622
1137.422, 144.3173
1137.905, 143.9144
1138.387, 144.4007
1138.869, 145.3088
1139.351, 145.3641
1139.833, 144.5195
1140.315, 144.0159
1140.797, 144.0993
1141.279, 144.3730
1141.761, 144.6397
1142.244, 144.8169
1142.726, 144.7842
1143.208, 144.5564
1143.690, 144.3960
1144.172, 144.2767
1144.654, 144.4484
1145.136, 145.1194
1145.618, 145.7173
1146.101, 145.2792
1146.583, 144.4875
1147.065, 144.2077
1147.547, 144.7054
1148.029, 145.0691
1148.511, 145.3175
1148.993, 145.2934
1149.475, 144.8013
1149.958, 144.1812
1150.440, 143.9691
1150.922, 144.0457
1151.404, 144.2292
1151.886, 144.6772
1152.368, 144.6712
1152.850, 143.9915
1153.332, 143.2730
1153.814, 142.8430
1154.297, 142.6958
1154.779, 142.9771
1155.261, 143.5295
1155.743, 143.8995
1156.225, 143.7891
1156.707, 143.6601
1157.189, 143.5022
1157.671, 143.4488
1158.153, 143.6955
1158.636, 144.1408
1159.118, 144.4010
1159.600, 144.4740
1160.082, 144.3943
1160.564, 143.9144
1161.046, 143.6341
1161.528, 143.7909
1162.010, 144.1319
1162.493, 144.5117
1162.975, 144.8575
1163.457, 144.4273
1163.939, 143.2832
1164.421, 142.6301
1164.903, 143.8639
1165.385, 144.9604
1165.867, 144.8808
1166.349, 144.1995
1166.832, 143.7463
1167.314, 143.5170
1167.796, 143.6150
1168.278, 144.0562
1168.760, 144.3432
1169.242, 143.9035
1169.724, 143.4190
1170.206, 142.9373
1170.688, 142.1607
1171.171, 143.2725
1171.653, 143.9230
1172.135, 144.1370
1172.617, 142.6073
1173.099, 143.3292
1173.581, 143.1488
1174.063, 142.9314
1174.545, 143.9702
1175.028, 142.6943
1175.510, 143.7132
1175.992, 143.8160
1176.474, 144.3381
1176.956, 143.9523
1177.438, 143.8469
1177.920, 144.6497
1178.402, 143.0442
1178.885, 143.2880
1179.367, 144.3851
1179.849, 144.9507
1180.331, 144.9620
1180.813, 144.7052
1181.295, 144.1950
1181.777, 143.6757
1182.259, 143.2240
1182.741, 143.0148
1183.224, 143.3861
1183.706, 144.4383
1184.188, 145.0049
1184.670, 145.0422
1185.152, 144.9262
1185.634, 144.7597
1186.116, 144.6304
1186.598, 144.6989
1187.081, 144.8369
1187.563, 144.8577
1188.045, 144.6976
1188.527, 144.5567
1189.009, 144.3961
1189.491, 144.5008
1189.973, 145.2562
1190.455, 146.0836
1190.938, 146.2515
1191.420, 146.0032
1191.902, 145.7089
1192.384, 145.3715
1192.866, 145.1794
1193.348, 145.1568
1193.830, 145.1693
1194.312, 145.1275
1194.794, 145.0735
1195.276, 145.0251
1195.759, 145.0137
1196.241, 145.1121
1196.723, 145.4014
1197.205, 145.6220
1197.687, 145.7551
1198.169, 145.8877
1198.651, 146.1045
1199.133, 146.3450
1199.616, 146.5445
1200.098, 146.6979
1200.580, 146.7949
1201.062, 146.8642
1201.544, 146.7898
1202.026, 146.5385
1202.508, 146.2569
1202.990, 145.9961
1203.473, 145.8362
1203.955, 145.6690
1204.437, 145.5399
1204.919, 146.6008
1205.401, 147.2004
1205.883, 147.3636
1206.365, 145.7831
1206.847, 146.4542
1207.329, 146.2229
1207.812, 145.9547
1208.294, 146.9427
1208.776, 145.6158
1209.258, 145.6094
1209.740, 145.3447
1210.222, 145.2008
1210.704, 145.2058
1211.186, 145.3257
1211.668, 145.5656
1212.151, 145.8729
1212.633, 146.2164
1213.115, 146.5748
1213.597, 146.8340
1214.079, 146.9815
1214.561, 147.0404
1215.043, 146.9896
1215.525, 146.9526
1216.008, 147.1074
1216.490, 147.3195
1216.972, 147.3688
1217.454, 147.2937
1217.936, 147.4614
1218.418, 147.9969
1218.900, 148.3917
1219.382, 148.5591
1219.865, 148.5885
1220.347, 148.4901
1220.829, 148.3729
1221.311, 148.3291
1221.793, 148.3826
1222.275, 148.6467
1222.757, 149.2558
1223.239, 149.4890
1223.721, 149.1519
1224.203, 148.6792
1224.686, 148.5372
1225.168, 148.5143
1225.650, 148.3741
1226.132, 148.1192
1226.614, 147.9721
1227.096, 147.9460
1227.578, 147.9493
1228.061, 147.9474
1228.543, 148.0416
1229.025, 148.5102
1229.507, 148.9935
1229.989, 149.0732
1230.471, 148.7801
1230.953, 148.6726
1231.435, 148.7663
1231.917, 148.8872
1232.400, 148.9878
1232.882, 149.1446
1233.364, 149.5169
1233.846, 149.9120
1234.328, 150.2635
1234.810, 150.5040
1235.292, 150.0971
1235.774, 148.9972
1236.256, 148.4581
1236.739, 148.8805
1237.221, 149.4220
1237.703, 149.3359
1238.185, 149.1023
1238.667, 149.1171
1239.149, 149.3311
1239.631, 149.5376
1240.113, 149.7299
1240.596, 149.7862
1241.078, 149.6656
1241.560, 149.4615
1242.042, 148.9666
1242.524, 148.6944
1243.006, 149.1526
1243.488, 150.0658
1243.970, 150.2810
1244.453, 149.9128
1244.935, 149.9237
1245.417, 150.5974
1245.899, 151.3412
1246.381, 152.0061
1246.863, 152.3978
1247.345, 152.3991
1247.827, 152.1017
1248.309, 151.7742
1248.792, 151.4125
1249.274, 150.8925
1249.756, 150.1021
1250.238, 149.7310
1250.720, 150.4960
1251.202, 151.3416
1251.684, 151.9086
1252.166, 152.1806
1252.648, 151.8919
1253.131, 151.2895
1253.613, 151.1678
1254.095, 151.7790
1254.577, 152.2766
1255.059, 152.4001
1255.541, 152.3226
1256.023, 151.9817
1256.505, 151.6319
1256.988, 151.8797
1257.470, 152.5047
1257.952, 153.1296
1258.434, 153.7441
1258.916, 153.8219
1259.398, 153.0679
1259.880, 152.3225
1260.362, 151.7897
1260.844, 151.5600
1261.327, 151.9759
1261.809, 152.7033
1262.291, 153.2464
1262.773, 153.5125
1263.255, 153.7522
1263.737, 154.0182
1264.219, 154.0996
1264.701, 153.8558
1265.183, 153.5948
1265.666, 153.6836
1266.148, 153.9883
1266.630, 154.4284
1267.112, 154.9896
1267.594, 155.2854
1268.076, 155.2922
1268.558, 155.2019
1269.040, 155.0398
1269.523, 154.9140
1270.005, 154.8661
1270.487, 154.9528
1270.969, 155.4017
1271.451, 156.0766
1271.933, 156.0743
1272.415, 155.4093
1272.897, 154.9842
1273.380, 155.0235
1273.862, 155.3163
1274.344, 156.0613
1274.826, 156.6480
1275.308, 156.6321
1275.790, 156.1999
1276.272, 155.8371
1276.754, 155.5871
1277.236, 155.8325
1277.719, 156.7410
1278.201, 157.2673
1278.683, 156.4123
1279.165, 155.5779
1279.647, 155.3122
1280.129, 155.4200
1280.611, 155.5258
1281.093, 155.6428
1281.576, 155.8391
1282.058, 156.1343
1282.540, 156.3133
1283.022, 156.2280
1283.504, 156.1642
1283.986, 156.2041
1284.468, 156.2740
1284.950, 156.2194
1285.432, 156.1360
1285.915, 156.1566
1286.397, 156.3010
1286.879, 156.6338
1287.361, 157.2339
1287.843, 157.7464
1288.325, 158.1160
1288.807, 158.2672
1289.289, 157.7716
1289.771, 157.2657
1290.254, 157.6510
1290.736, 158.7619
1291.218, 159.1066
1291.700, 158.5932
1292.182, 158.1297
1292.664, 157.8497
1293.146, 157.8207
1293.628, 158.3979
1294.111, 158.9561
1294.593, 159.0181
1295.075, 158.7503
1295.557, 158.3331
1296.039, 157.8193
1296.521, 157.9040
1297.003, 158.6713
1297.485, 159.3934
1297.968, 159.5304
1298.450, 159.6033
1298.932, 159.7981
1299.414, 160.0532
1299.896, 160.3121
1300.378, 160.5481
1300.860, 160.6390
1301.342, 160.5881
1301.824, 160.5214
##END=



