##NAMES=Liebigite
##RRUFFID=R050662
##IDEAL CHEMISTRY=Ca_2_(U^6+^O_2_)(CO_3_)_3_&#183;11H_2_O
##LOCALITY=Schwartzwaelder mine, Jefferson County, Colorado, USA
##OWNER=RRUFF
##SOURCE=University of Arizona Mineral Museum
##DESCRIPTION=Yellowish-green flaky aggregate
##STATUS=The identification of this mineral has been confirmed by X-ray diffraction and chemical analysis
##URL=rruff.info/R050662
##MEASURED CHEMISTRY=Ca_2.00_(U_1.00_O_2_)(CO_3_)_3_Â·11H_2_O ; C not measured but estimated by stoichiometry
92.02539, 204.9870
92.50751, 205.0514
92.98962, 206.5667
93.47174, 207.1253
93.95386, 207.7594
94.43597, 207.9965
94.91809, 208.1235
95.40021, 208.0934
95.88232, 206.7843
96.36444, 203.0810
96.84656, 199.6855
97.32867, 197.5474
97.81078, 196.3072
98.29290, 195.3185
98.77502, 193.9827
99.25713, 191.9991
99.73925, 189.8527
100.2214, 187.0661
100.7035, 184.6123
101.1856, 183.0147
101.6677, 182.2297
102.1498, 181.7764
102.6320, 181.0440
103.1141, 179.6513
103.5962, 178.9980
104.0783, 179.5972
104.5604, 180.6924
105.0425, 181.4987
105.5247, 181.7977
106.0068, 181.6847
106.4889, 181.1876
106.9710, 180.2596
107.4531, 179.3193
107.9352, 178.4901
108.4173, 177.7734
108.8995, 177.1918
109.3816, 176.7586
109.8637, 176.4702
110.3458, 176.2962
110.8279, 176.2250
111.3100, 176.2892
111.7922, 176.5646
112.2743, 177.1157
112.7564, 177.6663
113.2385, 178.2548
113.7206, 178.7592
114.2027, 179.0625
114.6849, 179.1068
115.1670, 178.9259
115.6491, 178.6242
116.1312, 177.9024
116.6133, 177.4134
117.0954, 177.4135
117.5776, 177.6905
118.0597, 177.9419
118.5418, 177.9681
119.0239, 177.7667
119.5060, 177.3552
119.9881, 176.4530
120.4703, 175.6395
120.9524, 175.3004
121.4345, 175.3446
121.9166, 175.2882
122.3987, 174.6423
122.8808, 173.2820
123.3630, 172.1436
123.8451, 171.4475
124.3272, 170.8571
124.8093, 170.0056
125.2914, 168.7973
125.7735, 167.5448
126.2557, 166.5755
126.7378, 165.8417
127.2199, 165.3223
127.7020, 165.1669
128.1841, 165.2493
128.6662, 165.1433
129.1483, 164.6251
129.6305, 164.0975
130.1126, 163.7903
130.5947, 163.7126
131.0768, 163.8897
131.5589, 164.5010
132.0410, 165.6430
132.5232, 166.4295
133.0053, 166.2576
133.4874, 166.0340
133.9695, 166.2251
134.4516, 166.9200
134.9337, 167.8892
135.4159, 168.7785
135.8980, 169.4520
136.3801, 170.3267
136.8622, 171.5314
137.3443, 172.8530
137.8264, 174.1147
138.3086, 175.2495
138.7907, 176.3045
139.2728, 177.3839
139.7549, 178.7612
140.2370, 179.8457
140.7191, 180.3862
141.2013, 180.6419
141.6834, 180.9923
142.1655, 181.6358
142.6476, 182.5172
143.1297, 183.3765
143.6118, 184.3720
144.0939, 185.1971
144.5761, 185.7123
145.0582, 185.9427
145.5403, 186.0017
146.0224, 185.9251
146.5045, 185.7156
146.9866, 185.4308
147.4688, 184.9850
147.9509, 184.5376
148.4330, 184.3382
148.9151, 184.4570
149.3972, 184.3779
149.8793, 183.6085
150.3615, 182.4778
150.8436, 181.3410
151.3257, 180.3169
151.8078, 179.3699
152.2899, 178.4301
152.7720, 177.4587
153.2542, 176.5548
153.7363, 175.7375
154.2184, 174.9984
154.7005, 174.3239
155.1826, 173.7279
155.6647, 173.1977
156.1469, 172.6147
156.6290, 171.9219
157.1111, 171.2289
157.5932, 170.5661
158.0753, 169.9250
158.5574, 169.2868
159.0396, 168.6299
159.5217, 167.9460
160.0038, 167.3216
160.4859, 166.7940
160.9680, 166.2818
161.4501, 165.7967
161.9323, 165.3127
162.4144, 164.7507
162.8965, 164.0175
163.3786, 163.0378
163.8607, 162.2010
164.3428, 161.8598
164.8250, 161.4163
165.3071, 160.3237
165.7892, 158.5217
166.2713, 156.5439
166.7534, 155.0281
167.2355, 154.0461
167.7177, 153.0560
168.1998, 152.0256
168.6819, 150.9444
169.1640, 149.7754
169.6461, 148.4894
170.1282, 147.2011
170.6104, 146.0662
171.0925, 145.0665
171.5746, 144.1113
172.0567, 143.0645
172.5388, 142.0261
173.0209, 141.3378
173.5031, 141.2535
173.9852, 141.2768
174.4673, 140.9512
174.9494, 140.3062
175.4315, 139.6032
175.9136, 139.0913
176.3958, 138.7566
176.8779, 138.1851
177.3600, 136.9728
177.8421, 135.7985
178.3242, 135.0769
178.8063, 134.8075
179.2885, 134.7189
179.7706, 134.5795
180.2527, 134.4148
180.7348, 134.0763
181.2169, 133.4469
181.6990, 132.7254
182.1812, 131.9930
182.6633, 131.2688
183.1454, 130.5513
183.6275, 129.8268
184.1096, 129.0520
184.5917, 128.3720
185.0738, 127.8418
185.5560, 127.3503
186.0381, 126.8844
186.5202, 126.4175
187.0023, 125.8471
187.4844, 124.9879
187.9665, 123.4895
188.4487, 122.2519
188.9308, 121.4352
189.4129, 120.7950
189.8950, 120.0896
190.3771, 119.2440
190.8592, 118.3796
191.3414, 117.7522
191.8235, 117.5429
192.3056, 117.2313
192.7877, 116.6770
193.2698, 116.0165
193.7519, 115.4449
194.2341, 115.0431
194.7162, 114.7085
195.1983, 114.2124
195.6804, 113.5228
196.1625, 112.8418
196.6446, 112.2452
197.1268, 111.6997
197.6089, 111.1212
198.0910, 110.4669
198.5731, 109.7915
199.0552, 109.1666
199.5373, 108.5780
200.0195, 108.0654
200.5016, 107.6321
200.9837, 107.2836
201.4658, 107.0890
201.9479, 107.2593
202.4300, 107.3880
202.9122, 106.9608
203.3943, 105.9084
203.8764, 104.8815
204.3585, 104.4577
204.8406, 104.6318
205.3227, 104.7552
205.8048, 104.5889
206.2870, 104.3848
206.7691, 104.3443
207.2512, 104.4877
207.7333, 104.6577
208.2154, 104.6724
208.6975, 104.4997
209.1797, 104.3623
209.6618, 104.2298
210.1439, 104.1914
210.6260, 104.3800
211.1081, 104.7916
211.5902, 105.2121
212.0724, 105.3145
212.5545, 104.9269
213.0366, 104.7455
213.5187, 104.8720
214.0008, 105.1582
214.4829, 105.5868
214.9651, 106.1240
215.4472, 106.6633
215.9293, 107.0242
216.4114, 107.0387
216.8935, 107.2281
217.3756, 107.6347
217.8578, 108.1521
218.3399, 108.7601
218.8220, 109.4303
219.3041, 110.0874
219.7862, 110.6030
220.2683, 110.8602
220.7505, 111.1974
221.2326, 111.6401
221.7147, 112.1380
222.1968, 112.6307
222.6789, 113.1116
223.1610, 113.6526
223.6432, 114.3707
224.1253, 115.4073
224.6074, 116.3363
225.0895, 117.1471
225.5716, 117.8604
226.0537, 118.4170
226.5358, 118.8166
227.0180, 119.2529
227.5001, 120.0344
227.9822, 121.3235
228.4643, 122.4358
228.9464, 123.1569
229.4285, 123.7611
229.9107, 124.5503
230.3928, 125.5948
230.8749, 126.7143
231.3570, 127.6616
231.8391, 128.4188
232.3212, 129.2110
232.8034, 130.1780
233.2855, 131.1559
233.7676, 131.9611
234.2497, 132.5675
234.7318, 132.9623
235.2139, 132.9969
235.6961, 132.7232
236.1782, 132.5703
236.6603, 132.7279
237.1424, 133.0460
237.6245, 133.3671
238.1066, 133.7370
238.5888, 133.8864
239.0709, 133.4858
239.5530, 132.6543
240.0351, 131.6399
240.5172, 130.2730
240.9993, 128.8237
241.4815, 127.9224
241.9636, 127.8243
242.4457, 127.6898
242.9278, 126.7678
243.4099, 125.3534
243.8920, 124.0351
244.3742, 123.1412
244.8563, 122.5015
245.3384, 121.7545
245.8205, 120.9298
246.3026, 119.9207
246.7847, 118.4572
247.2668, 116.8159
247.7490, 115.4785
248.2311, 114.8470
248.7132, 114.5730
249.1953, 113.7280
249.6774, 112.0255
250.1595, 110.3238
250.6417, 109.0116
251.1238, 107.9107
251.6059, 106.8127
252.0880, 105.6341
252.5701, 104.3877
253.0522, 103.1014
253.5344, 101.8298
254.0165, 100.4092
254.4986, 98.66302
254.9807, 96.81795
255.4628, 95.09417
255.9449, 93.59036
256.4271, 92.27621
256.9092, 91.09178
257.3913, 90.12589
257.8734, 89.13249
258.3555, 88.09521
258.8376, 86.99888
259.3198, 85.76070
259.8019, 84.34875
260.2840, 82.93315
260.7661, 81.89999
261.2482, 81.49471
261.7303, 81.01941
262.2125, 80.40597
262.6946, 79.68811
263.1767, 78.87074
263.6588, 77.95779
264.1409, 77.00578
264.6230, 76.10847
265.1052, 75.29862
265.5873, 74.48029
266.0694, 73.57136
266.5515, 72.70417
267.0336, 71.99841
267.5157, 71.47319
267.9979, 71.03914
268.4800, 70.56483
268.9621, 70.01522
269.4442, 69.50668
269.9263, 69.03024
270.4084, 68.59261
270.8906, 68.23011
271.3727, 67.93142
271.8548, 67.62550
272.3369, 67.21716
272.8190, 66.65936
273.3011, 66.16597
273.7833, 65.64361
274.2654, 65.24635
274.7475, 65.15288
275.2296, 65.30962
275.7117, 65.46517
276.1938, 65.35956
276.6760, 64.93529
277.1581, 64.59826
277.6402, 64.43000
278.1223, 64.25199
278.6044, 63.89117
279.0865, 63.42190
279.5686, 63.10683
280.0508, 63.18530
280.5329, 63.66919
281.0150, 63.94425
281.4971, 63.89491
281.9792, 63.80067
282.4613, 63.79515
282.9435, 63.82974
283.4256, 63.75881
283.9077, 63.47217
284.3898, 63.00450
284.8719, 62.68892
285.3540, 62.50319
285.8362, 62.46172
286.3183, 62.72694
286.8004, 63.12472
287.2825, 63.32285
287.7646, 63.13181
288.2467, 62.68126
288.7289, 62.42469
289.2110, 62.65282
289.6931, 62.70411
290.1752, 62.26468
290.6573, 61.64412
291.1394, 61.34968
291.6216, 61.59568
292.1037, 62.05564
292.5858, 62.03333
293.0679, 61.20538
293.5500, 60.52124
294.0321, 60.09337
294.5143, 59.84518
294.9964, 59.71454
295.4785, 59.68331
295.9606, 59.72318
296.4427, 59.82111
296.9248, 60.05680
297.4070, 60.07415
297.8891, 59.64101
298.3712, 59.11546
298.8533, 58.83357
299.3354, 58.83942
299.8175, 58.93015
300.2997, 58.90796
300.7818, 58.75057
301.2639, 58.59470
301.7460, 58.45725
302.2281, 58.30927
302.7102, 58.09361
303.1924, 57.82731
303.6745, 57.62201
304.1566, 57.57436
304.6387, 57.67894
305.1208, 57.74607
305.6029, 57.77845
306.0851, 57.77587
306.5672, 57.68242
307.0493, 57.54194
307.5314, 57.52362
308.0135, 57.77652
308.4956, 58.18019
308.9778, 58.19491
309.4599, 57.47346
309.9420, 56.86718
310.4241, 56.77511
310.9062, 56.97766
311.3883, 57.03313
311.8705, 56.74192
312.3526, 56.27187
312.8347, 55.99340
313.3168, 55.91797
313.7989, 55.95570
314.2810, 56.15330
314.7632, 56.43316
315.2453, 56.73613
315.7274, 57.05239
316.2095, 57.27907
316.6916, 57.24585
317.1737, 56.88223
317.6559, 56.56200
318.1380, 56.17898
318.6201, 55.93195
319.1022, 56.14893
319.5843, 56.83528
320.0664, 57.45941
320.5485, 57.47815
321.0306, 56.82732
321.5128, 56.43068
321.9949, 56.55350
322.4770, 56.69743
322.9591, 56.48516
323.4412, 55.97285
323.9233, 55.50060
324.4055, 55.29759
324.8876, 55.33180
325.3697, 55.35289
325.8518, 55.39170
326.3339, 55.38763
326.8160, 55.28237
327.2982, 55.11813
327.7803, 55.01221
328.2624, 55.04198
328.7445, 55.10430
329.2266, 54.89245
329.7087, 54.20305
330.1909, 53.64648
330.6730, 53.40775
331.1551, 53.33963
331.6372, 53.27805
332.1193, 53.17657
332.6014, 53.01830
333.0836, 52.76073
333.5657, 52.33923
334.0478, 52.01897
334.5299, 51.88023
335.0120, 51.80040
335.4941, 51.68571
335.9763, 51.52379
336.4584, 51.35084
336.9405, 51.22021
337.4226, 51.14214
337.9047, 50.87948
338.3868, 50.14011
338.8690, 49.50685
339.3511, 49.37107
339.8332, 49.61381
340.3153, 49.84655
340.7974, 49.82813
341.2795, 49.59169
341.7617, 49.33766
342.2438, 48.84710
342.7259, 48.59556
343.2080, 48.96011
343.6901, 49.56586
344.1722, 49.83411
344.6544, 49.52238
345.1365, 48.84599
345.6186, 48.24145
346.1007, 47.64437
346.5828, 47.24482
347.0649, 47.19634
347.5471, 47.26052
348.0292, 47.22355
348.5113, 47.04874
348.9934, 46.85043
349.4755, 46.78382
349.9576, 46.92596
350.4398, 46.86075
350.9219, 46.34704
351.4040, 45.87646
351.8861, 45.73188
352.3682, 45.86917
352.8503, 46.09528
353.3325, 46.28009
353.8146, 46.41857
354.2967, 46.42721
354.7788, 46.25850
355.2609, 46.01548
355.7430, 45.63289
356.2252, 45.21107
356.7073, 44.87679
357.1894, 44.69111
357.6715, 44.63121
358.1536, 44.64430
358.6357, 44.81183
359.1179, 44.93026
359.5999, 45.03922
360.0821, 45.07267
360.5642, 44.95013
361.0463, 44.66941
361.5284, 44.32066
362.0105, 43.98964
362.4926, 43.62880
362.9748, 43.48145
363.4569, 43.83889
363.9390, 44.12487
364.4211, 43.96173
364.9032, 43.49532
365.3853, 43.17688
365.8675, 43.39708
366.3496, 44.07042
366.8317, 44.36635
367.3138, 43.96805
367.7959, 43.56940
368.2780, 43.24686
368.7602, 43.03603
369.2423, 42.99336
369.7244, 43.14808
370.2065, 43.41450
370.6886, 43.61525
371.1707, 43.69186
371.6529, 43.85274
372.1350, 44.44216
372.6171, 44.89826
373.0992, 44.67140
373.5813, 43.77227
374.0634, 42.87435
374.5456, 42.82207
375.0277, 43.67559
375.5098, 44.03892
375.9919, 43.45320
376.4740, 42.81801
376.9561, 42.54751
377.4383, 42.55116
377.9204, 42.59362
378.4025, 42.54123
378.8846, 42.43438
379.3667, 42.39186
379.8488, 42.43988
380.3310, 42.48467
380.8131, 42.45941
381.2952, 42.42432
381.7773, 42.44598
382.2594, 42.54682
382.7415, 42.68061
383.2237, 42.82876
383.7058, 42.99101
384.1879, 43.05775
384.6700, 43.00708
385.1521, 42.83409
385.6342, 42.44821
386.1164, 41.88009
386.5985, 41.49912
387.0806, 41.66976
387.5627, 42.16210
388.0448, 42.40539
388.5269, 42.29981
389.0091, 42.12802
389.4912, 42.09574
389.9733, 42.15266
390.4554, 42.19475
390.9375, 42.22782
391.4196, 42.21422
391.9018, 42.06752
392.3839, 41.80870
392.8660, 41.64935
393.3481, 41.73023
393.8302, 41.91911
394.3123, 41.94911
394.7945, 41.78182
395.2766, 41.60194
395.7587, 41.47923
396.2408, 41.39137
396.7229, 41.27892
397.2050, 41.11901
397.6872, 41.02016
398.1693, 41.14716
398.6514, 41.52845
399.1335, 41.74093
399.6156, 41.69602
400.0977, 41.53511
400.5798, 41.26051
401.0620, 40.93159
401.5441, 40.77558
402.0262, 40.97042
402.5083, 41.42018
402.9904, 41.63174
403.4725, 41.43067
403.9547, 41.24689
404.4368, 41.13154
404.9189, 41.08828
405.4010, 41.15556
405.8831, 41.33820
406.3652, 41.53859
406.8474, 41.61284
407.3295, 41.52448
407.8116, 41.40125
408.2937, 41.20733
408.7758, 41.01509
409.2579, 40.82987
409.7401, 40.67748
410.2222, 40.61962
410.7043, 40.71328
411.1864, 40.93645
411.6685, 41.09734
412.1506, 41.17660
412.6328, 41.20946
413.1149, 41.15923
413.5970, 41.08512
414.0791, 41.06915
414.5612, 41.13548
415.0433, 41.20594
415.5255, 41.12452
416.0076, 40.79888
416.4897, 40.64166
416.9718, 40.93866
417.4539, 41.18731
417.9360, 41.07361
418.4182, 40.67774
418.9003, 40.32944
419.3824, 40.28753
419.8645, 40.48095
420.3466, 40.57416
420.8287, 40.47892
421.3109, 40.46869
421.7930, 40.82517
422.2751, 41.24918
422.7572, 41.35340
423.2393, 40.98188
423.7214, 40.51615
424.2036, 40.36991
424.6857, 40.53315
425.1678, 40.75514
425.6499, 41.10447
426.1320, 41.33270
426.6141, 41.13942
427.0963, 40.58282
427.5784, 40.11390
428.0605, 39.95815
428.5426, 39.98943
429.0247, 40.03199
429.5068, 40.07786
429.9890, 40.12432
430.4711, 40.15158
430.9532, 40.18540
431.4353, 40.30159
431.9174, 40.60460
432.3995, 40.83526
432.8817, 40.83440
433.3638, 40.66999
433.8459, 40.45500
434.3280, 40.21172
434.8101, 40.01031
435.2922, 39.95629
435.7744, 40.08442
436.2565, 40.24014
436.7386, 40.47614
437.2207, 40.69189
437.7028, 40.84344
438.1849, 40.91443
438.6671, 40.85256
439.1492, 40.59883
439.6313, 40.20845
440.1134, 40.01347
440.5955, 40.13360
441.0776, 40.30692
441.5598, 40.56889
442.0418, 40.83943
442.5240, 41.05890
443.0061, 41.20260
443.4882, 41.24596
443.9703, 41.13590
444.4524, 40.82603
444.9345, 40.58053
445.4167, 40.40148
445.8988, 40.28735
446.3809, 40.30090
446.8630, 40.37468
447.3451, 40.36718
447.8272, 40.17467
448.3094, 39.91010
448.7915, 39.89602
449.2736, 40.25863
449.7557, 40.50945
450.2378, 40.34370
450.7199, 40.14708
451.2021, 40.26471
451.6842, 40.71154
452.1663, 41.10499
452.6484, 41.04698
453.1305, 40.65948
453.6126, 40.51810
454.0948, 40.76145
454.5769, 41.00439
455.0590, 40.97633
455.5411, 40.76942
456.0232, 40.51298
456.5053, 40.17658
456.9875, 39.88136
457.4696, 39.73680
457.9517, 39.72455
458.4338, 39.75994
458.9159, 39.81858
459.3980, 39.90734
459.8802, 40.04740
460.3623, 40.24117
460.8444, 40.43538
461.3265, 40.68024
461.8086, 40.87983
462.2907, 40.91808
462.7729, 40.80984
463.2550, 40.68804
463.7371, 40.64861
464.2192, 40.66655
464.7013, 40.59370
465.1834, 40.20441
465.6656, 40.01666
466.1477, 40.30807
466.6298, 40.73407
467.1119, 40.90926
467.5940, 40.75260
468.0761, 40.46057
468.5583, 40.26160
469.0404, 40.16692
469.5225, 40.08459
470.0046, 39.98993
470.4867, 39.93439
470.9688, 39.94245
471.4510, 39.99927
471.9331, 40.08664
472.4152, 40.19874
472.8973, 40.31835
473.3794, 40.41956
473.8615, 40.50866
474.3437, 40.55108
474.8258, 40.50285
475.3079, 40.43373
475.7900, 40.38857
476.2721, 40.36460
476.7542, 40.33030
477.2364, 40.25603
477.7185, 40.16042
478.2006, 40.08738
478.6827, 40.04111
479.1648, 39.99162
479.6469, 39.88069
480.1291, 39.78084
480.6112, 39.85725
481.0933, 40.23699
481.5754, 40.45625
482.0575, 40.08612
482.5396, 39.44048
483.0217, 39.07328
483.5038, 39.09271
483.9860, 38.68713
484.4681, 39.55679
484.9502, 40.04947
485.4323, 40.18544
485.9144, 38.89626
486.3965, 39.44736
486.8787, 39.26096
487.3608, 39.04432
487.8429, 39.85442
488.3250, 38.77253
488.8071, 39.56635
489.2892, 39.61142
489.7714, 39.99917
490.2535, 39.64488
490.7356, 39.51978
491.2177, 40.13697
491.6998, 40.34314
492.1819, 39.90343
492.6641, 39.30666
493.1462, 38.94789
493.6283, 38.60349
494.1104, 38.60185
494.5925, 39.08433
495.0746, 39.52528
495.5568, 39.84024
496.0389, 40.04057
496.5210, 40.12147
497.0031, 40.08507
497.4852, 39.94898
497.9673, 39.67509
498.4495, 39.31462
498.9316, 38.96854
499.4137, 38.60355
499.8958, 38.43610
500.3779, 38.74664
500.8600, 39.29059
501.3422, 39.54376
501.8243, 39.35616
502.3064, 39.14927
502.7885, 39.16700
503.2706, 39.29863
503.7527, 39.32879
504.2349, 39.20970
504.7170, 39.07666
505.1991, 39.07714
505.6812, 39.22247
506.1633, 39.24797
506.6454, 39.04951
507.1276, 38.86129
507.6097, 38.75793
508.0918, 38.72357
508.5739, 38.74674
509.0560, 38.81968
509.5381, 38.89565
510.0203, 38.89206
510.5024, 38.77274
510.9845, 38.69812
511.4666, 38.65852
511.9487, 38.67388
512.4308, 38.79154
512.9130, 38.96610
513.3951, 39.12529
513.8772, 39.24549
514.3593, 39.29341
514.8414, 39.15160
515.3235, 38.77428
515.8057, 38.56481
516.2878, 38.76117
516.7699, 39.00857
517.2520, 38.99232
517.7341, 38.74153
518.2162, 38.48860
518.6984, 38.30452
519.1805, 38.18536
519.6626, 38.13935
520.1447, 38.16249
520.6268, 38.20598
521.1089, 38.24532
521.5911, 38.29294
522.0732, 38.39598
522.5553, 38.61385
523.0374, 38.71296
523.5195, 38.56048
524.0016, 38.33886
524.4838, 38.17669
524.9659, 38.09793
525.4480, 38.12116
525.9301, 38.28023
526.4122, 38.52490
526.8943, 38.25053
527.3765, 38.58818
527.8586, 38.76092
528.3407, 38.77759
528.8228, 38.17076
529.3049, 38.36906
529.7870, 38.24469
530.2692, 38.10709
530.7513, 38.41870
531.2334, 37.90256
531.7155, 38.20704
532.1976, 38.18396
532.6797, 38.31078
533.1619, 38.11296
533.6440, 38.18093
534.1261, 38.23138
534.6082, 38.18099
535.0903, 38.13721
535.5724, 38.21080
536.0546, 38.33270
536.5367, 38.31142
537.0188, 38.10849
537.5009, 37.98356
537.9830, 38.18158
538.4651, 38.62032
538.9473, 38.83065
539.4294, 38.67354
539.9115, 38.48659
540.3936, 38.33633
540.8757, 38.21980
541.3578, 38.12930
541.8400, 38.06508
542.3221, 38.04350
542.8042, 38.09126
543.2863, 38.21035
543.7684, 38.27350
544.2505, 38.17686
544.7326, 38.15033
545.2147, 38.34626
545.6968, 38.57932
546.1790, 38.63851
546.6611, 38.47450
547.1432, 38.20977
547.6253, 37.92196
548.1074, 37.62360
548.5895, 37.49548
549.0717, 37.62005
549.5538, 37.75244
550.0359, 37.69327
550.5180, 37.56227
551.0001, 37.56158
551.4822, 37.79755
551.9644, 37.98452
552.4465, 37.85815
552.9286, 37.57184
553.4107, 37.44136
553.8928, 37.52885
554.3749, 37.73643
554.8571, 38.02678
555.3392, 38.39016
555.8213, 38.47385
556.3034, 37.96914
556.7855, 37.60360
557.2676, 37.67035
557.7498, 37.92543
558.2319, 38.08064
558.7140, 38.06826
559.1961, 38.00209
559.6782, 38.00609
560.1603, 38.08113
560.6425, 38.15012
561.1246, 38.27549
561.6067, 38.29530
562.0888, 38.04263
562.5709, 37.72923
563.0530, 37.62859
563.5352, 37.81322
564.0173, 38.01274
564.4994, 37.93343
564.9815, 37.68096
565.4636, 37.66703
565.9457, 37.99642
566.4279, 38.19568
566.9100, 37.93339
567.3921, 38.40899
567.8742, 38.71966
568.3563, 38.87426
568.8384, 38.40534
569.3206, 38.17632
569.8027, 37.88982
570.2848, 37.77109
570.7669, 37.88192
571.2490, 38.02599
571.7311, 38.02068
572.2133, 37.89171
572.6954, 37.93115
573.1775, 38.46696
573.6596, 38.71123
574.1417, 38.30917
574.6238, 37.75940
575.1060, 37.48372
575.5881, 37.53252
576.0702, 37.70573
576.5523, 37.89126
577.0344, 38.06384
577.5165, 38.09964
577.9987, 37.95644
578.4808, 37.86496
578.9629, 37.96699
579.4450, 38.14525
579.9271, 38.23530
580.4092, 38.22620
580.8914, 38.18928
581.3735, 38.11828
581.8556, 38.05363
582.3377, 38.09182
582.8198, 38.20246
583.3019, 38.18003
583.7841, 37.87974
584.2662, 37.43153
584.7483, 37.18984
585.2304, 37.21337
585.7125, 37.36587
586.1946, 37.86563
586.6768, 38.29467
587.1589, 38.32603
587.6410, 38.06261
588.1231, 37.81037
588.6052, 37.73297
589.0873, 37.80812
589.5695, 38.06720
590.0516, 38.56962
590.5337, 38.81070
591.0158, 38.55781
591.4979, 38.17044
591.9800, 37.91797
592.4622, 37.78315
592.9443, 37.70160
593.4264, 37.59939
593.9085, 37.59300
594.3906, 37.90081
594.8727, 38.38425
595.3549, 38.63116
595.8370, 38.50065
596.3191, 38.23478
596.8012, 38.13106
597.2833, 38.22240
597.7654, 38.24274
598.2476, 38.15875
598.7297, 38.05398
599.2118, 37.89803
599.6939, 37.76005
600.1760, 37.76815
600.6581, 37.94274
601.1403, 38.10109
601.6224, 37.97040
602.1045, 37.57067
602.5866, 37.39396
603.0687, 37.49271
603.5508, 37.70190
604.0330, 38.04107
604.5151, 38.40371
604.9972, 38.65533
605.4793, 38.78092
605.9614, 38.80494
606.4435, 38.69436
606.9257, 38.51196
607.4078, 38.32211
607.8899, 38.13969
608.3720, 38.01324
608.8541, 37.98393
609.3362, 38.01653
609.8184, 37.99560
610.3005, 37.78544
610.7826, 37.73183
611.2647, 37.98440
611.7468, 38.25689
612.2289, 38.37465
612.7111, 38.35357
613.1932, 38.28888
613.6753, 38.23368
614.1574, 38.16606
614.6395, 38.01909
615.1216, 37.78012
615.6038, 37.62150
616.0859, 37.57886
616.5680, 37.61853
617.0501, 37.73289
617.5322, 37.90685
618.0143, 38.09597
618.4965, 38.35376
618.9786, 38.55433
619.4607, 38.57975
619.9428, 38.50507
620.4249, 38.48281
620.9070, 38.54617
621.3892, 38.59209
621.8713, 38.50434
622.3534, 38.28569
622.8355, 38.16107
623.3176, 38.23243
623.7997, 38.26934
624.2819, 38.17597
624.7640, 38.07519
625.2461, 38.09098
625.7282, 38.22922
626.2103, 38.39273
626.6924, 38.56134
627.1745, 38.68267
627.6566, 38.57368
628.1387, 38.21313
628.6208, 37.91166
629.1030, 37.76641
629.5851, 37.75583
630.0672, 37.89431
630.5493, 38.18953
631.0314, 38.43255
631.5135, 38.62904
631.9957, 38.73099
632.4778, 38.61334
632.9599, 38.39439
633.4420, 38.32770
633.9241, 38.50532
634.4063, 38.77602
634.8884, 38.91990
635.3705, 38.91490
635.8526, 38.97405
636.3347, 39.15291
636.8168, 39.31806
637.2990, 39.46282
637.7811, 39.55142
638.2632, 39.51755
638.7453, 39.34175
639.2274, 39.16172
639.7095, 39.07719
640.1917, 39.05043
640.6738, 39.00992
641.1559, 38.95263
641.6380, 38.91594
642.1201, 38.91752
642.6022, 38.95681
643.0844, 39.03804
643.5665, 39.21017
644.0486, 39.31960
644.5307, 39.32904
645.0128, 39.31236
645.4949, 39.32331
645.9771, 39.33693
646.4592, 39.27427
646.9413, 39.09688
647.4234, 38.92651
647.9055, 38.95346
648.3876, 39.17390
648.8698, 39.42607
649.3519, 39.77252
649.8340, 39.97340
650.3161, 39.75875
650.7982, 39.32516
651.2803, 39.06178
651.7625, 39.01560
652.2446, 39.08549
652.7267, 39.36284
653.2088, 39.65520
653.6909, 39.69222
654.1730, 39.51073
654.6552, 39.39953
655.1373, 39.54679
655.6194, 39.82011
656.1015, 39.86094
656.5836, 39.55231
657.0657, 39.31370
657.5479, 39.13620
658.0300, 39.06638
658.5121, 39.19050
658.9942, 39.42903
659.4763, 39.61721
659.9584, 39.68064
660.4406, 39.74943
660.9227, 40.02049
661.4048, 40.37849
661.8869, 40.47851
662.3690, 40.26527
662.8511, 40.05716
663.3333, 40.09436
663.8154, 40.30357
664.2975, 40.37700
664.7796, 40.20940
665.2617, 40.05125
665.7438, 39.88886
666.2260, 39.75327
666.7081, 39.65333
667.1902, 39.59862
667.6723, 39.62616
668.1544, 39.77407
668.6365, 39.92645
669.1187, 39.84869
669.6008, 39.55650
670.0829, 39.41484
670.5650, 39.49323
671.0471, 39.68067
671.5292, 39.94919
672.0114, 40.26124
672.4935, 40.48174
672.9756, 40.57925
673.4577, 40.63603
673.9398, 40.63507
674.4219, 40.63092
674.9041, 40.71522
675.3862, 40.85640
675.8683, 40.91211
676.3504, 40.78776
676.8325, 40.55817
677.3146, 40.38100
677.7968, 40.24274
678.2789, 40.23059
678.7610, 40.43827
679.2431, 40.66780
679.7252, 40.77649
680.2073, 40.82498
680.6895, 40.93559
681.1716, 41.13910
681.6537, 41.39179
682.1358, 41.83092
682.6179, 42.22628
683.1000, 42.13726
683.5822, 41.59614
684.0643, 41.11278
684.5464, 41.01960
685.0285, 41.20209
685.5106, 41.35255
685.9927, 41.53001
686.4749, 41.53595
686.9570, 41.07312
687.4391, 40.72793
687.9212, 40.87481
688.4033, 41.29514
688.8854, 41.57032
689.3676, 41.54923
689.8497, 41.44517
690.3318, 41.37162
690.8139, 41.36164
691.2960, 41.58286
691.7781, 42.03472
692.2603, 42.26503
692.7424, 41.94670
693.2245, 41.32105
693.7066, 41.02785
694.1887, 41.30287
694.6708, 41.44094
695.1530, 41.36240
695.6351, 41.23904
696.1172, 41.11914
696.5993, 41.02112
697.0814, 40.95930
697.5635, 40.93786
698.0457, 40.96616
698.5278, 41.11004
699.0099, 41.31007
699.4920, 41.32514
699.9741, 41.12275
700.4562, 41.03739
700.9384, 41.30952
701.4205, 41.72282
701.9026, 41.81056
702.3847, 41.43410
702.8668, 41.09132
703.3489, 40.64762
703.8311, 40.38503
704.3132, 40.54529
704.7953, 40.94430
705.2774, 41.36763
705.7595, 41.72546
706.2416, 41.86395
706.7238, 41.42575
707.2059, 40.60017
707.6880, 40.25806
708.1701, 40.45913
708.6522, 40.81226
709.1343, 41.25348
709.6164, 41.64734
710.0985, 41.73119
710.5806, 41.44614
711.0627, 41.30180
711.5449, 41.49475
712.0270, 41.65771
712.5091, 41.53617
712.9912, 41.31176
713.4733, 41.26567
713.9554, 41.45075
714.4376, 41.67532
714.9197, 41.75648
715.4018, 41.73026
715.8839, 41.72409
716.3660, 41.73166
716.8481, 41.79945
717.3303, 41.91461
717.8124, 42.13279
718.2945, 42.59561
718.7766, 43.27674
719.2587, 43.79914
719.7408, 44.09387
720.2230, 44.26661
720.7051, 44.23921
721.1872, 44.17973
721.6693, 44.27859
722.1514, 44.55920
722.6335, 44.94809
723.1157, 45.41846
723.5978, 45.90723
724.0799, 46.21761
724.5620, 46.33073
725.0441, 46.46063
725.5262, 46.58534
726.0084, 46.84773
726.4905, 47.46693
726.9726, 48.33540
727.4547, 49.00932
727.9368, 49.35786
728.4189, 49.68549
728.9011, 50.05540
729.3832, 50.46474
729.8653, 50.89524
730.3474, 51.35818
730.8295, 51.88758
731.3116, 52.50232
731.7938, 53.19170
732.2759, 53.98171
732.7580, 54.87400
733.2401, 55.61616
733.7222, 56.10139
734.2043, 56.66928
734.6865, 57.59318
735.1686, 58.69842
735.6507, 59.60428
736.1328, 60.26748
736.6149, 60.86943
737.0970, 61.29723
737.5792, 61.81773
738.0613, 62.65960
738.5434, 63.72778
739.0255, 64.83971
739.5076, 65.93444
739.9897, 67.00133
740.4719, 68.01205
740.9540, 68.97930
741.4361, 70.03928
741.9182, 71.22322
742.4003, 72.31001
742.8824, 73.16035
743.3646, 73.93547
743.8467, 74.87222
744.3288, 75.97395
744.8109, 76.98328
745.2930, 77.94530
745.7751, 78.73463
746.2573, 79.15837
746.7394, 79.46195
747.2215, 79.95246
747.7036, 80.65134
748.1857, 81.36336
748.6678, 81.94709
749.1500, 82.43443
749.6321, 82.92023
750.1142, 83.40515
750.5963, 83.67171
751.0784, 83.58590
751.5605, 83.54366
752.0427, 83.89473
752.5248, 84.56783
753.0069, 85.15874
753.4890, 85.46419
753.9711, 86.00693
754.4532, 87.15038
754.9354, 88.29251
755.4175, 89.12159
755.8996, 89.57581
756.3817, 89.60879
756.8638, 89.18880
757.3459, 88.50725
757.8281, 87.95752
758.3102, 87.34616
758.7923, 85.84740
759.2744, 83.37910
759.7565, 80.65108
760.2386, 77.98132
760.7208, 75.27106
761.2029, 72.33867
761.6850, 69.12808
762.1671, 65.88775
762.6492, 62.56804
763.1313, 59.29565
763.6135, 55.92289
764.0956, 52.73533
764.5777, 50.08256
765.0598, 47.97719
765.5419, 46.03690
766.0240, 43.91381
766.5062, 41.90558
766.9883, 40.48009
767.4704, 39.54632
767.9525, 38.78871
768.4346, 38.13139
768.9167, 37.56189
769.3989, 37.08307
769.8810, 36.67775
770.3631, 36.26434
770.8452, 35.82524
771.3273, 35.40686
771.8094, 34.98381
772.2916, 34.60848
772.7737, 34.30889
773.2558, 34.08167
773.7379, 33.92778
774.2200, 33.86374
774.7021, 33.80388
775.1843, 33.68432
775.6664, 33.54090
776.1485, 33.43813
776.6306, 33.36209
777.1127, 33.22229
777.5948, 32.97533
778.0770, 32.71778
778.5591, 32.58011
779.0412, 32.55994
779.5233, 32.73211
780.0054, 33.25769
780.4875, 33.63516
780.9697, 33.59012
781.4518, 33.40699
781.9339, 33.36455
782.4160, 33.45341
782.8981, 33.50966
783.3802, 33.35580
783.8624, 33.31834
784.3445, 33.67445
784.8266, 34.18316
785.3087, 34.55643
785.7908, 34.75307
786.2729, 34.83903
786.7551, 34.83804
787.2372, 34.83122
787.7193, 34.99976
788.2014, 35.34098
788.6835, 35.67781
789.1656, 35.98773
789.6478, 36.30122
790.1299, 36.61910
790.6120, 36.96065
791.0941, 37.37455
791.5762, 37.88633
792.0583, 38.39352
792.5404, 38.94563
793.0225, 39.43225
793.5046, 39.73653
793.9868, 39.97785
794.4689, 40.31717
794.9510, 40.78627
795.4331, 41.30667
795.9152, 41.77092
796.3973, 42.28413
796.8795, 43.05514
797.3616, 44.04344
797.8437, 44.99566
798.3258, 45.84562
798.8079, 46.79803
799.2900, 48.03584
799.7722, 49.53207
800.2543, 51.08401
800.7364, 52.62262
801.2185, 54.36764
801.7006, 56.38831
802.1827, 58.56720
802.6649, 60.73462
803.1470, 63.04604
803.6291, 65.75030
804.1112, 68.87985
804.5933, 72.44443
805.0754, 76.31982
805.5576, 80.70368
806.0397, 85.94686
806.5218, 91.82427
807.0039, 97.84171
807.4860, 103.8103
807.9681, 110.0714
808.4503, 117.0456
808.9324, 124.5970
809.4145, 131.8615
809.8966, 138.7819
810.3787, 145.9312
810.8608, 153.3257
811.3430, 161.1572
811.8251, 169.6827
812.3072, 178.8269
812.7893, 188.0280
813.2714, 196.7431
813.7535, 206.2588
814.2357, 216.7654
814.7178, 228.0820
815.1999, 240.1542
815.6820, 252.8284
816.1641, 265.8419
816.6462, 279.0532
817.1284, 292.7326
817.6105, 307.0481
818.0926, 321.8739
818.5747, 337.1504
819.0568, 352.7714
819.5389, 368.5893
820.0211, 384.6671
820.5032, 399.3049
820.9853, 410.7740
821.4674, 419.0280
821.9495, 423.3933
822.4316, 424.8704
822.9138, 420.3024
823.3959, 407.9601
823.8780, 390.3883
824.3601, 367.8338
824.8422, 341.6643
825.3243, 315.2581
825.8065, 288.9114
826.2886, 263.2376
826.7707, 237.4137
827.2528, 213.1012
827.7349, 191.9206
828.2170, 173.5231
828.6992, 157.0108
829.1813, 141.9673
829.6634, 128.4101
830.1455, 116.3863
830.6276, 105.8239
831.1097, 96.49502
831.5919, 88.44335
832.0740, 81.64375
832.5561, 76.21867
833.0382, 71.62107
833.5203, 67.31369
834.0024, 63.35317
834.4846, 60.00068
834.9667, 57.52386
835.4488, 55.27043
835.9309, 53.36677
836.4130, 51.51836
836.8951, 49.41545
837.3773, 47.29680
837.8594, 45.58712
838.3415, 44.39780
838.8236, 43.44863
839.3057, 42.65983
839.7878, 41.98421
840.2700, 41.40865
840.7521, 40.90141
841.2342, 40.44302
841.7163, 40.00901
842.1984, 39.45894
842.6805, 38.61684
843.1627, 37.63823
843.6448, 37.04972
844.1269, 36.86823
844.6090, 36.55619
845.0911, 35.99318
845.5732, 35.40511
846.0554, 34.96114
846.5375, 34.59941
847.0196, 34.12767
847.5017, 33.37786
847.9838, 32.91423
848.4659, 32.98919
848.9481, 33.04473
849.4302, 32.80925
849.9123, 32.47063
850.3944, 32.30121
850.8765, 32.31376
851.3586, 32.22694
851.8408, 31.80193
852.3229, 31.31611
852.8050, 30.99223
853.2871, 30.77316
853.7692, 30.59476
854.2513, 30.42700
854.7335, 30.18533
855.2156, 29.80877
855.6977, 29.40146
856.1798, 29.16795
856.6619, 29.10286
857.1440, 29.06345
857.6262, 29.05084
858.1083, 29.02696
858.5904, 28.98008
859.0725, 28.90452
859.5546, 28.77023
860.0367, 28.56192
860.5189, 28.48226
861.0010, 28.77218
861.4831, 28.85856
861.9652, 28.41178
862.4473, 27.93757
862.9294, 27.82362
863.4116, 28.00540
863.8937, 28.25460
864.3758, 28.56521
864.8579, 28.71592
865.3400, 28.41916
865.8221, 27.99938
866.3043, 27.85793
866.7864, 27.91155
867.2685, 27.84269
867.7506, 27.55878
868.2327, 27.31353
868.7148, 27.42790
869.1970, 27.75226
869.6791, 27.74508
870.1612, 27.40581
870.6433, 27.12627
871.1254, 26.98403
871.6075, 26.93395
872.0897, 26.97142
872.5718, 27.05126
873.0539, 27.01265
873.5360, 26.70862
874.0181, 26.62364
874.5002, 26.99320
874.9823, 27.31248
875.4644, 27.42205
875.9465, 27.39449
876.4286, 27.29239
876.9108, 27.12830
877.3929, 26.96537
877.8750, 26.73380
878.3571, 26.61560
878.8392, 26.83638
879.3214, 27.14739
879.8035, 27.28731
880.2856, 27.22572
880.7677, 26.96561
881.2498, 26.48667
881.7319, 26.05871
882.2141, 26.10074
882.6962, 26.45063
883.1783, 26.60213
883.6604, 26.55508
884.1425, 26.56705
884.6246, 26.74121
885.1068, 26.86608
885.5889, 26.67339
886.0710, 26.22871
886.5531, 26.07846
887.0352, 26.35953
887.5173, 26.53215
887.9995, 26.47003
888.4816, 26.37089
888.9637, 26.41727
889.4458, 26.49068
889.9279, 25.94330
890.4100, 26.26252
890.8922, 26.41679
891.3743, 26.41501
891.8564, 25.78974
892.3385, 25.96958
892.8206, 25.82677
893.3027, 25.67073
893.7849, 25.96387
894.2670, 26.01469
894.7491, 25.89155
895.2312, 25.72911
895.7133, 25.89507
896.1954, 26.16709
896.6776, 26.13285
897.1597, 25.83567
897.6418, 25.60289
898.1239, 25.57570
898.6060, 25.63665
899.0881, 25.64382
899.5703, 25.61185
900.0524, 25.66747
900.5345, 25.82596
901.0166, 25.70433
901.4987, 25.12099
901.9808, 24.61630
902.4630, 24.68166
902.9451, 25.11930
903.4272, 25.21758
903.9093, 24.74506
904.3914, 24.47427
904.8735, 24.64225
905.3557, 24.71533
905.8378, 24.35741
906.3199, 23.91148
906.8020, 23.81818
907.2841, 24.06861
907.7662, 24.15061
908.2484, 23.73237
908.7305, 23.39226
909.2126, 23.42853
909.6947, 23.59399
910.1768, 23.68814
910.6589, 23.70508
911.1411, 23.68514
911.6232, 23.64120
912.1053, 23.63989
912.5874, 23.83195
913.0695, 24.04385
913.5516, 23.93143
914.0338, 23.60874
914.5159, 23.48122
914.9980, 23.62171
915.4801, 23.70003
915.9622, 23.43187
916.4443, 23.01261
916.9265, 22.96422
917.4086, 23.28487
917.8907, 23.33631
918.3728, 22.99786
918.8549, 22.86577
919.3370, 23.29705
919.8192, 23.86716
920.3013, 23.96050
920.7834, 23.56084
921.2655, 23.38823
921.7476, 23.67461
922.2297, 23.78674
922.7119, 23.49530
923.1940, 23.14702
923.6761, 22.88641
924.1582, 22.72431
924.6403, 22.70225
925.1224, 22.86925
925.6046, 22.96613
926.0867, 22.87362
926.5688, 22.75799
927.0509, 22.62417
927.5330, 22.56888
928.0151, 22.80835
928.4973, 23.25856
928.9794, 23.48676
929.4615, 23.20669
929.9436, 22.85315
930.4257, 22.79702
930.9078, 22.90848
931.3900, 23.05600
931.8721, 23.19039
932.3542, 23.19776
932.8363, 23.04919
933.3184, 22.87217
933.8005, 22.78464
934.2827, 22.77220
934.7648, 22.82344
935.2469, 22.92690
935.7290, 22.93288
936.2111, 22.80819
936.6932, 22.83713
937.1754, 23.23863
937.6575, 23.71218
938.1396, 23.66196
938.6217, 23.02781
939.1038, 22.62397
939.5859, 22.48966
940.0681, 22.49011
940.5502, 22.69028
941.0323, 22.87799
941.5144, 22.84694
941.9965, 22.65412
942.4786, 22.54238
942.9608, 22.55559
943.4429, 22.55444
943.9250, 22.42093
944.4071, 22.40435
944.8892, 22.76962
945.3713, 23.19879
945.8535, 23.31113
946.3356, 23.10596
946.8177, 22.87328
947.2998, 22.66238
947.7819, 22.50913
948.2640, 22.45011
948.7462, 22.44225
949.2283, 22.46585
949.7104, 22.50281
950.1925, 22.51960
950.6746, 22.50916
951.1567, 22.51659
951.6389, 22.60404
952.1210, 22.70448
952.6031, 22.74153
953.0852, 22.72260
953.5673, 22.61884
954.0494, 22.46108
954.5316, 22.40260
955.0137, 22.52652
955.4958, 22.76955
955.9779, 23.20679
956.4600, 23.70093
956.9421, 23.36629
957.4242, 22.24424
957.9063, 21.61676
958.3884, 21.83974
958.8705, 22.30713
959.3527, 22.56002
959.8348, 22.63450
960.3169, 22.62119
960.7990, 22.51116
961.2811, 22.34219
961.7632, 22.05825
962.2454, 21.88208
962.7275, 21.94871
963.2096, 22.08388
963.6917, 22.08662
964.1738, 21.97425
964.6559, 21.94083
965.1381, 22.07130
965.6202, 22.14363
966.1023, 22.06495
966.5844, 22.02694
967.0665, 22.23181
967.5486, 22.46069
968.0308, 22.34882
968.5129, 21.88161
968.9950, 21.61197
969.4771, 21.86996
969.9592, 22.05637
970.4413, 21.84198
970.9235, 21.59219
971.4056, 21.64007
971.8877, 21.87372
972.3698, 22.03318
972.8519, 22.04909
973.3340, 21.99961
973.8162, 21.89784
974.2983, 21.78033
974.7804, 21.65405
975.2625, 21.54453
975.7446, 21.49947
976.2267, 21.50712
976.7089, 21.51265
977.1910, 21.49089
977.6731, 21.45495
978.1552, 21.38842
978.6373, 21.33424
979.1194, 21.35499
979.6016, 21.45421
980.0837, 21.70221
980.5658, 22.07562
981.0479, 22.29370
981.5300, 22.15406
982.0121, 21.83590
982.4943, 21.63150
982.9764, 21.52995
983.4585, 21.48460
983.9406, 21.49121
984.4227, 21.48203
984.9048, 21.43458
985.3870, 21.38007
985.8691, 21.34266
986.3512, 21.32803
986.8333, 21.37394
987.3154, 21.49880
987.7975, 21.49550
988.2797, 21.28481
988.7618, 21.25370
989.2439, 21.66207
989.7260, 22.07779
990.2081, 21.93050
990.6902, 21.31291
991.1724, 21.13044
991.6545, 21.65410
992.1366, 21.98477
992.6187, 22.02891
993.1008, 21.92846
993.5829, 21.64051
994.0651, 21.31793
994.5472, 21.18743
995.0293, 21.25239
995.5114, 21.29793
995.9935, 21.32719
996.4756, 21.32771
996.9578, 21.19722
997.4399, 21.14315
997.9220, 21.42697
998.4041, 21.79617
998.8862, 21.79806
999.3683, 21.37574
999.8505, 21.07826
1000.333, 21.11611
1000.815, 21.20283
1001.297, 21.29132
1001.779, 21.33610
1002.261, 21.28063
1002.743, 21.15986
1003.225, 21.03165
1003.707, 20.90983
1004.190, 20.83938
1004.672, 20.82440
1005.154, 20.88870
1005.636, 21.13247
1006.118, 21.40623
1006.600, 21.54785
1007.082, 21.55559
1007.564, 21.45592
1008.046, 21.25573
1008.529, 21.12484
1009.011, 21.27646
1009.493, 21.49368
1009.975, 21.50822
1010.457, 21.42687
1010.939, 21.46035
1011.421, 21.60692
1011.903, 21.74652
1012.385, 21.82395
1012.868, 21.77002
1013.350, 21.35305
1013.832, 20.84067
1014.314, 20.79446
1014.796, 21.07617
1015.278, 21.25616
1015.760, 21.27064
1016.242, 21.32246
1016.725, 21.53881
1017.207, 21.74880
1017.689, 21.68616
1018.171, 21.41326
1018.653, 21.07397
1019.135, 20.71107
1019.617, 20.65265
1020.099, 20.95747
1020.581, 21.21879
1021.064, 21.14777
1021.546, 20.93207
1022.028, 20.94813
1022.510, 21.16718
1022.992, 21.22524
1023.474, 21.11709
1023.956, 21.05014
1024.438, 21.07816
1024.921, 21.14837
1025.403, 21.23138
1025.885, 21.30153
1026.367, 21.28931
1026.849, 21.18849
1027.331, 21.10125
1027.813, 21.02318
1028.295, 20.98208
1028.777, 20.98613
1029.260, 21.02772
1029.742, 21.10415
1030.224, 21.20954
1030.706, 21.34593
1031.188, 21.55571
1031.670, 21.55053
1032.152, 21.24674
1032.634, 20.97101
1033.116, 20.81378
1033.599, 20.70643
1034.081, 20.56276
1034.563, 20.44254
1035.045, 20.55774
1035.527, 21.03333
1036.009, 21.30156
1036.491, 21.23940
1036.973, 21.20690
1037.456, 21.33137
1037.938, 21.48161
1038.420, 21.54509
1038.902, 21.54810
1039.384, 21.58876
1039.866, 21.72585
1040.348, 21.73363
1040.830, 21.54836
1041.313, 21.32413
1041.795, 20.92282
1042.277, 20.65736
1042.759, 20.93752
1043.241, 21.55021
1043.723, 21.79604
1044.205, 21.46436
1044.687, 21.33197
1045.169, 21.71506
1045.651, 21.92624
1046.134, 21.52906
1046.616, 21.09954
1047.098, 21.19164
1047.580, 21.62897
1048.062, 21.84834
1048.544, 21.72807
1049.026, 21.65088
1049.508, 21.72924
1049.991, 21.77567
1050.473, 21.65632
1050.955, 21.54285
1051.437, 21.63318
1051.919, 21.83975
1052.401, 21.89535
1052.883, 21.71364
1053.365, 21.60452
1053.848, 21.56187
1054.330, 21.69427
1054.812, 22.25321
1055.294, 22.82156
1055.776, 22.93244
1056.258, 22.78387
1056.740, 22.93035
1057.222, 23.51922
1057.704, 24.06858
1058.187, 24.43725
1058.669, 24.74673
1059.151, 24.97493
1059.633, 25.22734
1060.115, 25.59275
1060.597, 26.05600
1061.079, 26.58079
1061.561, 27.16683
1062.043, 27.73723
1062.526, 28.20751
1063.008, 28.73442
1063.490, 29.41471
1063.972, 30.16279
1064.454, 30.87943
1064.936, 31.60870
1065.418, 32.45214
1065.900, 33.43439
1066.383, 34.48708
1066.865, 35.71490
1067.347, 36.83938
1067.829, 37.63346
1068.311, 38.35818
1068.793, 39.20715
1069.275, 40.16505
1069.757, 41.17332
1070.240, 42.21968
1070.722, 43.31747
1071.204, 44.70329
1071.686, 45.83886
1072.168, 46.40725
1072.650, 46.69005
1073.132, 46.74410
1073.614, 46.76729
1074.096, 47.03654
1074.578, 47.59429
1075.061, 48.31587
1075.543, 49.25748
1076.025, 50.18523
1076.507, 51.18339
1076.989, 51.92916
1077.471, 52.13233
1077.953, 51.93091
1078.435, 51.43281
1078.918, 50.73888
1079.400, 50.23146
1079.882, 50.12099
1080.364, 50.07388
1080.846, 49.51867
1081.328, 49.39695
1081.810, 50.56166
1082.292, 52.48478
1082.774, 54.42747
1083.257, 56.35347
1083.739, 58.61668
1084.221, 61.22063
1084.703, 64.55054
1085.185, 69.28076
1085.667, 74.23066
1086.149, 78.97554
1086.631, 83.24660
1087.114, 87.15346
1087.596, 90.35599
1088.078, 92.00849
1088.560, 91.93546
1089.042, 89.95663
1089.524, 85.39756
1090.006, 79.60584
1090.488, 72.60647
1090.970, 65.36597
1091.453, 58.65526
1091.935, 52.55126
1092.417, 47.06704
1092.899, 42.15810
1093.381, 38.09221
1093.863, 35.25390
1094.345, 32.90941
1094.827, 30.78857
1095.309, 28.99530
1095.792, 27.69613
1096.274, 26.77291
1096.756, 26.03534
1097.238, 25.45027
1097.720, 24.87616
1098.202, 24.20678
1098.684, 23.62900
1099.166, 23.21285
1099.649, 22.89628
1100.131, 22.69398
1100.613, 22.53132
1101.095, 22.29096
1101.577, 21.97039
1102.059, 21.68968
1102.541, 21.45496
1103.023, 21.30078
1103.505, 21.27416
1103.988, 21.28417
1104.470, 21.30464
1104.952, 21.31953
1105.434, 21.31765
1105.916, 21.29663
1106.398, 21.24782
1106.880, 21.14698
1107.362, 21.07299
1107.844, 21.02032
1108.327, 21.01869
1108.809, 21.20069
1109.291, 21.33451
1109.773, 21.11841
1110.255, 20.69575
1110.737, 20.52989
1111.219, 20.76133
1111.701, 20.82141
1112.184, 20.46809
1112.666, 20.22286
1113.148, 20.34356
1113.630, 20.45911
1114.112, 20.27833
1114.594, 19.94630
1115.076, 19.71014
1115.558, 19.56662
1116.041, 19.56183
1116.523, 19.82147
1117.005, 20.00571
1117.487, 20.07529
1117.969, 20.07066
1118.451, 19.98172
1118.933, 19.85378
1119.415, 19.72393
1119.897, 19.60094
1120.380, 19.59162
1120.862, 19.80502
1121.344, 19.84104
1121.826, 19.53469
1122.308, 19.39247
1122.790, 19.68855
1123.272, 20.03651
1123.754, 20.02890
1124.236, 19.81138
1124.719, 19.92627
1125.201, 20.51380
1125.683, 20.65477
1126.165, 20.21287
1126.647, 19.85053
1127.129, 19.74188
1127.611, 19.68518
1128.093, 19.53586
1128.576, 19.37191
1129.058, 19.34932
1129.540, 19.46004
1130.022, 19.53716
1130.504, 19.58410
1130.986, 19.54032
1131.468, 19.39023
1131.950, 19.19446
1132.432, 18.96342
1132.915, 18.83910
1133.397, 19.03797
1133.879, 19.42268
1134.361, 19.47390
1134.843, 19.22228
1135.325, 18.97840
1135.807, 18.77776
1136.289, 18.86502
1136.771, 19.30955
1137.254, 19.59266
1137.736, 19.24966
1138.218, 18.71153
1138.700, 18.86914
1139.182, 19.46287
1139.664, 19.57404
1140.146, 19.30252
1140.628, 19.22181
1141.111, 19.39562
1141.593, 19.38632
1142.075, 18.95739
1142.557, 18.52829
1143.039, 18.62599
1143.521, 18.98829
1144.003, 19.30484
1144.485, 19.49319
1144.968, 19.19746
1145.450, 18.62269
1145.932, 18.53381
1146.414, 19.12137
1146.896, 19.72588
1147.378, 19.91290
1147.860, 19.87005
1148.342, 19.68009
1148.824, 19.44262
1149.307, 19.24264
1149.789, 19.09836
1150.271, 19.04416
1150.753, 19.06495
1151.235, 19.09249
1151.717, 19.10879
1152.199, 19.08082
1152.681, 18.86293
1153.163, 18.74270
1153.646, 19.08700
1154.128, 19.48274
1154.610, 19.36024
1155.092, 18.96591
1155.574, 19.02666
1156.056, 19.69832
1156.538, 20.06151
1157.020, 19.56933
1157.503, 19.14011
1157.985, 19.09434
1158.467, 19.12159
1158.949, 18.97383
1159.431, 18.82688
1159.913, 19.04616
1160.395, 19.55374
1160.877, 19.60507
1161.359, 18.70951
1161.842, 18.26827
1162.324, 18.62666
1162.806, 18.93225
1163.288, 18.94779
1163.770, 18.84896
1164.252, 18.72048
1164.734, 18.60304
1165.216, 18.59454
1165.698, 18.70404
1166.181, 18.79351
1166.663, 18.82507
1167.145, 19.01777
1167.627, 19.50078
1168.109, 19.74295
1168.591, 19.41033
1169.073, 19.02106
1169.555, 19.21150
1170.037, 19.78823
1170.520, 20.05292
1171.002, 20.00821
1171.484, 19.70972
1171.966, 19.17216
1172.448, 18.78846
1172.930, 18.66297
1173.412, 18.71393
1173.894, 18.90172
1174.377, 19.09189
1174.859, 19.01150
1175.341, 18.80873
1175.823, 18.96051
1176.305, 19.32829
1176.787, 19.49912
1177.269, 19.45126
1177.751, 19.32629
1178.234, 19.18805
1178.716, 19.10546
1179.198, 19.13388
1179.680, 19.23667
1180.162, 19.48052
1180.644, 19.68811
1181.126, 19.59399
1181.608, 19.31526
1182.090, 19.05556
1182.573, 18.84979
1183.055, 18.63055
1183.537, 18.34953
1184.019, 18.23208
1184.501, 18.53348
1184.983, 18.85934
1185.465, 19.00048
1185.947, 19.06112
1186.429, 19.12474
1186.912, 19.18281
1187.394, 19.18094
1187.876, 19.12139
1188.358, 19.15348
1188.840, 19.45316
1189.322, 19.60250
1189.804, 19.45853
1190.286, 19.28799
1190.769, 19.13071
1191.251, 19.04289
1191.733, 19.12189
1192.215, 19.28268
1192.697, 19.29317
1193.179, 19.12902
1193.661, 19.02600
1194.143, 18.99940
1194.625, 18.98024
1195.108, 18.96198
1195.590, 18.93301
1196.072, 18.88349
1196.554, 18.84109
1197.036, 18.84137
1197.518, 18.86690
1198.000, 18.84641
1198.482, 18.79307
1198.964, 18.85103
1199.447, 19.00631
1199.929, 19.09543
1200.411, 19.08307
1200.893, 19.01365
1201.375, 18.90994
1201.857, 18.83855
1202.339, 18.93901
1202.821, 19.06336
1203.304, 18.89047
1203.786, 18.61191
1204.268, 18.58776
1204.750, 18.75997
1205.232, 18.90952
1205.714, 18.97851
1206.196, 19.02073
1206.678, 19.08903
1207.161, 19.05441
1207.643, 18.66110
1208.125, 18.33865
1208.607, 18.50299
1209.089, 18.79499
1209.571, 18.76843
1210.053, 18.56591
1210.535, 18.65306
1211.017, 19.12121
1211.500, 19.33973
1211.982, 18.99458
1212.464, 18.73915
1212.946, 18.68877
1213.428, 18.70367
1213.910, 18.75133
1214.392, 18.82719
1214.874, 18.98109
1215.356, 19.12365
1215.839, 18.92640
1216.321, 18.30983
1216.803, 18.18966
1217.285, 18.67774
1217.767, 18.88032
1218.249, 18.61593
1218.731, 18.37720
1219.213, 18.40225
1219.696, 18.51591
1220.178, 18.52935
1220.660, 18.48620
1221.142, 18.47656
1221.624, 18.49849
1222.106, 18.55679
1222.588, 18.63920
1223.070, 18.73608
1223.552, 18.81987
1224.035, 18.75220
1224.517, 18.46731
1224.999, 18.22798
1225.481, 18.29348
1225.963, 18.46070
1226.445, 18.57251
1226.927, 18.66470
1227.409, 18.81109
1227.891, 18.94553
1228.374, 18.93721
1228.856, 18.79776
1229.338, 18.67319
1229.820, 18.58735
1230.302, 18.56199
1230.784, 18.63956
1231.266, 18.72678
1231.748, 18.82074
1232.231, 18.88657
1232.713, 18.90118
1233.195, 18.87810
1233.677, 18.82798
1234.159, 18.75616
1234.641, 18.70425
1235.123, 18.66202
1235.605, 18.69625
1236.088, 18.82126
1236.570, 18.97127
1237.052, 19.14401
1237.534, 19.17111
1238.016, 18.92305
1238.498, 18.64357
1238.980, 18.70660
1239.462, 18.96831
1239.944, 19.06084
1240.427, 19.02008
1240.909, 18.93592
1241.391, 18.82428
1241.873, 18.64811
1242.355, 18.44065
1242.837, 18.44210
1243.319, 18.82011
1243.801, 19.13391
1244.283, 18.93335
1244.766, 18.68054
1245.248, 18.74685
1245.730, 18.91841
1246.212, 19.00269
1246.694, 19.01688
1247.176, 18.99628
1247.658, 18.95812
1248.140, 19.00576
1248.622, 19.29651
1249.105, 19.36765
1249.587, 19.03092
1250.069, 18.72947
1250.551, 18.49337
1251.033, 18.45971
1251.515, 18.82203
1251.997, 19.24431
1252.479, 19.19503
1252.962, 18.77240
1253.444, 18.52832
1253.926, 18.45914
1254.408, 18.41057
1254.890, 18.37632
1255.372, 18.41261
1255.854, 18.52704
1256.336, 18.65668
1256.818, 18.76589
1257.301, 18.83280
1257.783, 18.80874
1258.265, 18.75662
1258.747, 18.77830
1259.229, 18.81352
1259.711, 18.71869
1260.193, 18.60032
1260.675, 18.70248
1261.157, 19.00476
1261.640, 19.26245
1262.122, 19.42679
1262.604, 19.41445
1263.086, 19.03204
1263.568, 18.70571
1264.050, 18.50907
1264.532, 18.48360
1265.014, 18.78145
1265.497, 19.13949
1265.979, 19.25959
1266.461, 19.18137
1266.943, 19.04682
1267.425, 18.82897
1267.907, 18.79960
1268.389, 18.98957
1268.871, 18.98052
1269.354, 18.69347
1269.836, 18.57059
1270.318, 18.81659
1270.800, 19.04176
1271.282, 18.83352
1271.764, 18.48512
1272.246, 18.49663
1272.728, 18.67586
1273.210, 18.66665
1273.693, 18.57320
1274.175, 18.62925
1274.657, 18.81583
1275.139, 18.99140
1275.621, 19.11321
1276.103, 19.15343
1276.585, 19.04214
1277.067, 18.94555
1277.549, 18.90113
1278.032, 18.90489
1278.514, 19.01077
1278.996, 19.10868
1279.478, 19.07145
1279.960, 18.98738
1280.442, 19.05416
1280.924, 19.26171
1281.406, 19.24312
1281.889, 18.94730
1282.371, 18.84024
1282.853, 18.96332
1283.335, 19.13854
1283.817, 19.31448
1284.299, 19.31535
1284.781, 19.01427
1285.263, 18.71221
1285.745, 18.71537
1286.228, 19.02460
##END=



