##NAMES=Likasite
##RRUFFID=R090009
##IDEAL CHEMISTRY=Cu^2+^_3_N^5+^O_3_(OH)_5_&#183;2H_2_O
##LOCALITY=Likasi Mine, Jadotville, Katanga, Zaire
##OWNER=RRUFF
##SOURCE=William W. Pinch
##DESCRIPTION=Electric blue acicular crystals in a vug on cuprite matrix.
##STATUS=The identification of this mineral has been confirmed by single-crystal X-ray diffraction.
##URL=rruff.info/R090009
90.92609, 0.0000000E+00
91.40820, 14.25639
91.89032, 15.19965
92.37244, 14.67640
92.85455, 12.93217
93.33667, 11.43466
93.81879, 11.48264
94.30090, 12.64828
94.78302, 13.64712
95.26514, 14.17856
95.74725, 14.39285
96.22937, 14.59828
96.71149, 14.79745
97.19360, 14.93789
97.67572, 15.04530
98.15784, 15.11423
98.63995, 14.85994
99.12207, 14.05023
99.60419, 12.78570
100.0863, 11.72855
100.5684, 10.65084
101.0505, 10.24143
101.5327, 11.88532
102.0148, 16.45707
102.4969, 20.07714
102.9790, 21.10623
103.4611, 18.83757
103.9432, 17.86274
104.4253, 18.54646
104.9075, 20.33721
105.3896, 22.09070
105.8717, 23.49283
106.3538, 25.31062
106.8359, 27.98030
107.3180, 32.53714
107.8002, 36.07808
108.2823, 37.85971
108.7644, 38.48116
109.2465, 40.22592
109.7286, 42.54160
110.2107, 46.36928
110.6929, 52.16740
111.1750, 62.26678
111.6571, 71.69299
112.1392, 78.92783
112.6213, 84.50408
113.1034, 92.64921
113.5856, 106.2949
114.0677, 121.6698
114.5498, 135.9586
115.0319, 147.2641
115.5140, 158.8094
115.9961, 172.1109
116.4783, 187.1409
116.9604, 200.7238
117.4425, 211.7458
117.9246, 220.8414
118.4067, 228.6518
118.8888, 234.7196
119.3710, 240.1733
119.8531, 245.7281
120.3352, 251.4635
120.8173, 256.7490
121.2994, 259.4880
121.7815, 261.5504
122.2637, 266.2118
122.7458, 276.9488
123.2279, 290.0519
123.7100, 301.9400
124.1921, 312.1022
124.6742, 321.6093
125.1564, 330.8432
125.6385, 340.0770
126.1206, 350.2214
126.6027, 361.1857
127.0848, 373.4362
127.5669, 388.0992
128.0491, 405.9948
128.5312, 424.9987
129.0133, 442.3643
129.4954, 458.0409
129.9775, 473.0168
130.4596, 488.3409
130.9418, 503.5297
131.4239, 516.9860
131.9060, 527.6201
132.3881, 537.1180
132.8702, 549.8345
133.3523, 566.0738
133.8345, 582.2531
134.3166, 595.8649
134.7987, 606.9861
135.2808, 615.0795
135.7629, 619.3801
136.2450, 620.7217
136.7272, 623.5541
137.2093, 628.5561
137.6914, 633.0248
138.1735, 634.0057
138.6556, 631.0483
139.1377, 626.8854
139.6199, 622.2296
140.1020, 617.1183
140.5841, 610.1219
141.0662, 600.7039
141.5483, 590.2372
142.0304, 580.0354
142.5126, 569.3006
142.9947, 560.6647
143.4768, 554.3144
143.9589, 550.1848
144.4410, 542.9008
144.9231, 530.1914
145.4053, 515.8712
145.8874, 505.8364
146.3695, 503.5396
146.8516, 500.6134
147.3337, 494.2254
147.8158, 481.8415
148.2980, 472.3766
148.7801, 467.3543
149.2622, 464.8664
149.7443, 461.2016
150.2264, 453.7606
150.7085, 447.4042
151.1907, 443.9711
151.6728, 445.8380
152.1549, 446.3978
152.6370, 444.8994
153.1191, 441.9867
153.6012, 439.2740
154.0834, 436.1721
154.5655, 433.8118
155.0476, 432.7135
155.5297, 434.4945
156.0118, 435.4228
156.4939, 434.2204
156.9761, 431.5929
157.4582, 429.9384
157.9403, 430.7468
158.4224, 432.0474
158.9045, 432.6835
159.3866, 431.6924
159.8688, 430.8676
160.3509, 431.2343
160.8330, 432.4026
161.3151, 432.5271
161.7972, 430.8260
162.2793, 427.9216
162.7615, 424.3014
163.2436, 421.2149
163.7257, 416.4085
164.2078, 406.8831
164.6899, 393.5770
165.1720, 383.2210
165.6541, 381.4659
166.1363, 383.3026
166.6184, 383.7914
167.1005, 380.4120
167.5826, 375.8690
168.0647, 371.4525
168.5468, 367.1801
169.0290, 363.2468
169.5111, 360.0700
169.9932, 357.2322
170.4753, 354.1697
170.9574, 350.2614
171.4395, 346.3406
171.9217, 343.7150
172.4038, 342.3759
172.8859, 339.8543
173.3680, 332.9973
173.8501, 323.7873
174.3322, 315.5862
174.8144, 310.4610
175.2965, 306.7323
175.7786, 302.5629
176.2607, 297.8684
176.7428, 293.1409
177.2249, 288.9048
177.7071, 285.0048
178.1892, 280.9559
178.6713, 275.7159
179.1534, 270.4203
179.6355, 267.3651
180.1176, 266.7995
180.5998, 266.5327
181.0819, 263.9406
181.5640, 259.5977
182.0461, 255.4601
182.5282, 251.9382
183.0103, 249.3383
183.4925, 249.0419
183.9746, 251.5155
184.4567, 254.1937
184.9388, 253.7204
185.4209, 250.4796
185.9030, 246.8065
186.3852, 244.1547
186.8673, 242.0274
187.3494, 238.0453
187.8315, 231.6031
188.3136, 225.1523
188.7957, 222.3455
189.2779, 222.9719
189.7600, 223.8116
190.2421, 223.0031
190.7242, 220.9091
191.2063, 219.6093
191.6884, 219.2867
192.1706, 219.5473
192.6527, 220.1638
193.1348, 221.1489
193.6169, 221.3339
194.0990, 219.5290
194.5811, 215.9329
195.0633, 213.7012
195.5454, 213.3145
196.0275, 213.6488
196.5096, 212.4949
196.9917, 209.7104
197.4738, 207.0125
197.9560, 205.3773
198.4381, 204.8131
198.9202, 204.0427
199.4023, 202.8622
199.8844, 201.6842
200.3665, 201.7506
200.8487, 203.4108
201.3308, 204.2703
201.8129, 202.1853
202.2950, 196.7152
202.7771, 194.5039
203.2592, 196.7995
203.7414, 201.3391
204.2235, 203.0233
204.7056, 201.1712
205.1877, 199.0434
205.6698, 198.4050
206.1519, 199.5514
206.6341, 200.2081
207.1162, 200.1937
207.5983, 199.7354
208.0804, 199.3604
208.5625, 199.1524
209.0446, 198.7802
209.5268, 197.8574
210.0089, 196.0541
210.4910, 195.3201
210.9731, 195.9169
211.4552, 197.4686
211.9373, 199.4055
212.4195, 202.3378
212.9016, 204.1255
213.3837, 203.0054
213.8658, 197.3350
214.3479, 195.0464
214.8300, 197.4684
215.3121, 202.6565
215.7943, 205.8672
216.2764, 206.5299
216.7585, 206.3560
217.2406, 205.9612
217.7227, 205.1554
218.2048, 204.7570
218.6870, 204.8801
219.1691, 205.3537
219.6512, 205.6980
220.1333, 205.5654
220.6154, 205.9497
221.0975, 207.5880
221.5797, 211.4588
222.0618, 213.4886
222.5439, 212.5195
223.0260, 210.2582
223.5081, 211.0250
223.9902, 217.3360
224.4724, 222.2750
224.9545, 222.1841
225.4366, 213.9493
225.9187, 209.9328
226.4008, 211.9679
226.8829, 217.3313
227.3651, 220.1310
227.8472, 219.0781
228.3293, 217.6538
228.8114, 217.3284
229.2935, 218.7905
229.7757, 219.2042
230.2578, 218.2886
230.7399, 216.4559
231.2220, 214.4337
231.7041, 212.0804
232.1862, 209.7770
232.6684, 207.6545
233.1505, 205.7360
233.6326, 203.9405
234.1147, 202.4110
234.5968, 200.9231
235.0789, 199.0194
235.5611, 196.1973
236.0432, 193.8071
236.5253, 192.6314
237.0074, 193.5955
237.4895, 192.2475
237.9716, 187.0139
238.4538, 180.4312
238.9359, 176.7300
239.4180, 177.4400
239.9001, 178.4972
240.3822, 178.7340
240.8643, 178.0256
241.3465, 177.0465
241.8286, 175.6257
242.3107, 174.0537
242.7928, 172.7426
243.2749, 171.7724
243.7570, 170.9351
244.2392, 170.3099
244.7213, 170.0408
245.2034, 168.9834
245.6855, 166.5273
246.1676, 163.7840
246.6497, 162.2369
247.1319, 162.6309
247.6140, 162.8622
248.0961, 162.3272
248.5782, 160.9015
249.0603, 159.9107
249.5424, 159.6474
250.0246, 159.5348
250.5067, 158.9541
250.9888, 157.8601
251.4709, 156.3261
251.9530, 153.8897
252.4351, 150.4022
252.9173, 149.2815
253.3994, 151.9315
253.8815, 155.3022
254.3636, 156.3230
254.8457, 153.9248
255.3278, 151.4309
255.8100, 149.0219
256.2921, 146.7409
256.7742, 146.7366
257.2563, 150.5407
257.7384, 154.5600
258.2205, 155.3941
258.7026, 151.3842
259.1848, 148.4092
259.6669, 147.6299
260.1490, 148.7753
260.6311, 149.5755
261.1132, 149.9416
261.5953, 150.1141
262.0775, 150.2167
262.5596, 150.1590
263.0417, 150.3743
263.5238, 151.2430
264.0059, 152.4306
264.4880, 152.0849
264.9702, 149.4029
265.4523, 146.7474
265.9344, 145.7221
266.4165, 146.7661
266.8986, 147.8720
267.3807, 149.1194
267.8629, 150.2430
268.3450, 150.3028
268.8271, 149.0105
269.3092, 147.3678
269.7913, 145.8653
270.2734, 144.5441
270.7556, 143.1179
271.2377, 141.2702
271.7198, 139.5476
272.2019, 139.4451
272.6840, 141.4253
273.1661, 143.4475
273.6483, 144.6634
274.1304, 145.0694
274.6125, 144.4476
275.0946, 142.2221
275.5767, 139.7303
276.0588, 139.7476
276.5410, 142.8114
277.0231, 145.5580
277.5052, 146.1831
277.9873, 144.6358
278.4694, 144.4209
278.9515, 145.9331
279.4337, 147.9272
279.9158, 148.4983
280.3979, 147.4969
280.8800, 146.6279
281.3621, 146.6930
281.8442, 147.5379
282.3264, 147.4419
282.8085, 146.1069
283.2906, 144.8677
283.7727, 145.6826
284.2548, 148.5799
284.7369, 150.8275
285.2191, 151.4538
285.7012, 150.8392
286.1833, 150.5657
286.6654, 150.6835
287.1475, 150.8110
287.6296, 150.4373
288.1118, 149.6339
288.5939, 149.1961
289.0760, 149.4347
289.5581, 150.0551
290.0402, 150.2113
290.5223, 149.8821
291.0045, 149.7289
291.4866, 150.6600
291.9687, 152.3441
292.4508, 153.0650
292.9329, 152.1884
293.4150, 150.7363
293.8972, 150.4392
294.3793, 151.2375
294.8614, 152.4325
295.3435, 153.8076
295.8256, 155.2266
296.3077, 156.3495
296.7899, 157.1808
297.2720, 157.5463
297.7541, 156.6000
298.2362, 154.7287
298.7183, 153.6580
299.2004, 155.3109
299.6826, 158.2101
300.1647, 159.2635
300.6468, 157.9542
301.1289, 156.5957
301.6110, 157.8947
302.0931, 161.0719
302.5753, 164.1166
303.0574, 166.7971
303.5395, 168.4941
304.0216, 167.7369
304.5037, 164.4409
304.9858, 161.1631
305.4680, 159.6911
305.9501, 159.7387
306.4322, 160.8358
306.9143, 163.7007
307.3964, 166.8861
307.8785, 169.0372
308.3607, 170.2280
308.8428, 171.2588
309.3249, 172.9813
309.8070, 174.7276
310.2891, 175.5948
310.7712, 174.3774
311.2534, 173.4507
311.7355, 175.1747
312.2176, 178.8109
312.6997, 181.5619
313.1818, 180.7421
313.6639, 179.0591
314.1461, 178.9218
314.6282, 181.8068
315.1103, 184.1225
315.5924, 183.3241
316.0745, 180.6662
316.5566, 178.7494
317.0388, 178.8979
317.5209, 179.9091
318.0030, 181.4211
318.4851, 183.7335
318.9672, 185.1018
319.4493, 183.9637
319.9315, 181.7932
320.4136, 180.5300
320.8957, 181.8484
321.3778, 183.1556
321.8599, 183.6810
322.3420, 183.3806
322.8242, 182.2158
323.3063, 178.8313
323.7884, 175.2224
324.2705, 173.1295
324.7526, 173.5847
325.2347, 174.7683
325.7169, 177.2000
326.1990, 180.6509
326.6811, 182.0844
327.1632, 179.2727
327.6453, 175.7626
328.1274, 173.5205
328.6096, 173.8918
329.0917, 173.9037
329.5738, 173.1836
330.0559, 172.0278
330.5380, 171.3651
331.0201, 171.1379
331.5023, 171.4735
331.9844, 172.6395
332.4665, 175.5647
332.9486, 176.8949
333.4307, 175.5116
333.9128, 173.1079
334.3950, 172.7993
334.8771, 176.0526
335.3592, 178.6342
335.8413, 179.0684
336.3234, 177.1243
336.8055, 175.4012
337.2877, 173.9308
337.7698, 172.6603
338.2519, 171.4958
338.7340, 170.4084
339.2161, 169.6151
339.6982, 169.3383
340.1803, 169.4200
340.6624, 168.7430
341.1446, 167.0499
341.6267, 165.4267
342.1088, 164.6507
342.5909, 164.7404
343.0730, 165.3992
343.5551, 166.8414
344.0373, 168.5259
344.5194, 169.2313
345.0015, 168.9507
345.4836, 167.9562
345.9657, 165.7567
346.4478, 162.7540
346.9300, 161.4614
347.4121, 162.3511
347.8942, 163.7352
348.3763, 162.7318
348.8584, 159.8614
349.3405, 158.1559
349.8227, 159.7090
350.3048, 163.2130
350.7869, 166.0553
351.2690, 168.2231
351.7511, 169.9945
352.2332, 171.4749
352.7154, 172.7310
353.1975, 173.8526
353.6796, 174.4965
354.1617, 175.4009
354.6438, 177.5914
355.1259, 180.8899
355.6081, 184.3355
356.0902, 187.7925
356.5723, 190.8884
357.0544, 193.0319
357.5365, 193.5997
358.0186, 194.3467
358.5008, 196.5100
358.9829, 199.7371
359.4650, 203.2728
359.9471, 207.6667
360.4292, 211.6107
360.9113, 213.5793
361.3935, 212.9296
361.8756, 213.9647
362.3577, 220.6083
362.8398, 229.1175
363.3219, 235.2380
363.8040, 235.1747
364.2862, 235.1174
364.7683, 237.4494
365.2504, 242.0753
365.7325, 245.8913
366.2146, 247.2413
366.6967, 248.2911
367.1789, 250.3865
367.6610, 255.5067
368.1431, 259.4985
368.6252, 261.6570
369.1073, 262.4413
369.5894, 263.2918
370.0716, 263.8517
370.5537, 264.8544
371.0358, 266.7341
371.5179, 270.0696
372.0000, 272.5641
372.4821, 274.3665
372.9643, 275.2038
373.4464, 274.6171
373.9285, 272.2542
374.4106, 269.1651
374.8927, 265.3029
375.3748, 260.7000
375.8570, 257.0385
376.3391, 254.8542
376.8212, 252.4192
377.3033, 247.8229
377.7854, 240.6564
378.2675, 234.6465
378.7497, 230.5462
379.2318, 227.6067
379.7139, 223.8179
380.1960, 219.1632
380.6781, 214.2640
381.1602, 209.5776
381.6424, 205.0298
382.1245, 199.9022
382.6066, 193.9055
383.0887, 188.2351
383.5708, 184.6787
384.0529, 182.8798
384.5351, 180.9424
385.0172, 177.9594
385.4993, 174.4723
385.9814, 171.2144
386.4635, 168.2144
386.9456, 165.4990
387.4278, 163.1385
387.9099, 161.1066
388.3920, 159.3604
388.8741, 157.9939
389.3562, 156.7498
389.8383, 155.6775
390.3205, 154.5718
390.8026, 152.8837
391.2847, 148.7361
391.7668, 144.9200
392.2489, 144.2023
392.7310, 147.6485
393.2132, 150.2280
393.6953, 148.4640
394.1774, 144.7680
394.6595, 142.0352
395.1416, 141.7950
395.6237, 142.0705
396.1059, 142.5058
396.5880, 143.0316
397.0701, 142.9316
397.5522, 141.3475
398.0343, 139.5752
398.5164, 138.3822
398.9986, 138.2395
399.4807, 138.1555
399.9628, 138.1227
400.4449, 138.1271
400.9270, 138.1669
401.4091, 138.6104
401.8913, 138.5925
402.3734, 137.5120
402.8555, 134.8990
403.3376, 134.1065
403.8197, 136.2831
404.3018, 138.9362
404.7840, 139.1079
405.2661, 135.9010
405.7482, 133.3374
406.2303, 132.3180
406.7124, 132.4776
407.1945, 132.1615
407.6767, 131.2383
408.1588, 130.4803
408.6409, 130.6550
409.1230, 131.6664
409.6051, 132.0128
410.0872, 131.4678
410.5694, 130.5567
411.0515, 129.9978
411.5336, 129.7624
412.0157, 129.6952
412.4978, 130.0053
412.9799, 130.3595
413.4621, 129.9544
413.9442, 128.8039
414.4263, 127.6047
414.9084, 126.9406
415.3905, 126.5963
415.8727, 126.2318
416.3548, 125.8188
416.8369, 125.2583
417.3190, 124.4347
417.8011, 123.3970
418.2832, 122.2569
418.7654, 120.4556
419.2475, 119.0061
419.7296, 118.8422
420.2117, 120.2714
420.6938, 121.5845
421.1759, 121.7975
421.6581, 121.6680
422.1402, 122.0027
422.6223, 123.5580
423.1044, 124.9951
423.5865, 126.0860
424.0686, 126.8108
424.5508, 127.1015
425.0329, 126.4032
425.5150, 125.7058
425.9971, 125.4799
426.4792, 126.0715
426.9613, 126.3978
427.4435, 126.1832
427.9256, 125.8568
428.4077, 126.1655
428.8898, 127.4750
429.3719, 128.5823
429.8540, 128.9284
430.3362, 128.6305
430.8183, 129.6123
431.3004, 132.1584
431.7825, 135.1610
432.2646, 137.9890
432.7467, 140.6378
433.2289, 142.0761
433.7110, 141.6167
434.1931, 140.7956
434.6752, 142.8735
435.1573, 147.5930
435.6394, 152.1455
436.1216, 154.6083
436.6036, 155.9598
437.0858, 158.5772
437.5679, 162.5509
438.0500, 166.3679
438.5321, 168.5392
439.0142, 169.6786
439.4963, 170.8054
439.9785, 172.1793
440.4606, 173.7049
440.9427, 174.9914
441.4248, 176.3044
441.9069, 178.4231
442.3890, 182.9618
442.8712, 187.5499
443.3533, 190.4330
443.8354, 191.0442
444.3175, 191.8604
444.7996, 193.2327
445.2817, 195.4037
445.7639, 198.6399
446.2460, 204.8728
446.7281, 210.1267
447.2102, 213.0132
447.6923, 213.9402
448.1744, 215.8413
448.6566, 220.4313
449.1387, 224.1794
449.6208, 225.0738
450.1029, 221.2313
450.5850, 220.4851
451.0671, 224.3348
451.5493, 229.7410
452.0314, 232.2841
452.5135, 231.3885
452.9956, 230.0313
453.4777, 228.9499
453.9598, 228.0301
454.4420, 226.9162
454.9241, 225.6837
455.4062, 223.6722
455.8883, 220.0253
456.3704, 215.0943
456.8525, 210.3696
457.3347, 206.0103
457.8168, 202.2193
458.2989, 199.7349
458.7810, 198.1520
459.2631, 196.3570
459.7452, 193.4528
460.2274, 190.2990
460.7095, 188.1847
461.1916, 186.9033
461.6737, 185.0814
462.1558, 180.3656
462.6379, 175.5090
463.1201, 173.2075
463.6022, 174.8279
464.0843, 176.9641
464.5664, 178.8002
465.0485, 180.1569
465.5306, 180.7484
466.0128, 179.0575
466.4949, 178.0296
466.9770, 179.1788
467.4591, 182.6343
467.9412, 184.3918
468.4233, 182.8072
468.9055, 180.8841
469.3876, 180.3486
469.8697, 181.8067
470.3518, 183.3046
470.8339, 184.6450
471.3160, 186.1340
471.7982, 188.7238
472.2803, 192.9984
472.7624, 195.8920
473.2445, 195.3375
473.7266, 192.3744
474.2087, 193.9720
474.6909, 200.5909
475.1730, 207.7159
475.6551, 210.9602
476.1372, 211.2750
476.6193, 212.6629
477.1014, 215.8013
477.5836, 219.8198
478.0657, 223.9703
478.5478, 228.1787
479.0299, 232.1550
479.5120, 235.0336
479.9941, 238.1643
480.4763, 243.1301
480.9584, 249.7792
481.4405, 256.2955
481.9226, 262.1378
482.4047, 267.1732
482.8868, 271.0590
483.3690, 272.5948
483.8511, 275.2677
484.3332, 281.2864
484.8153, 288.7985
485.2974, 294.9122
485.7795, 297.0864
486.2617, 300.0111
486.7438, 304.9789
487.2259, 311.9698
487.7080, 318.5343
488.1901, 324.9443
488.6722, 330.6530
489.1544, 335.2767
489.6365, 338.4677
490.1186, 341.8301
490.6007, 345.6105
491.0828, 349.2911
491.5649, 351.9590
492.0471, 353.5417
492.5292, 355.2827
493.0113, 357.7797
493.4934, 360.5848
493.9755, 362.2233
494.4576, 362.7437
494.9398, 363.6098
495.4219, 365.9493
495.9040, 369.3624
496.3861, 373.1476
496.8682, 377.3387
497.3503, 381.4986
497.8325, 385.1442
498.3146, 388.5776
498.7967, 392.3460
499.2788, 396.0425
499.7609, 400.6724
500.2430, 407.2352
500.7252, 415.3026
501.2073, 423.1394
501.6894, 429.2372
502.1715, 435.7018
502.6536, 443.9816
503.1357, 455.4889
503.6179, 464.8857
504.1000, 470.1144
504.5821, 474.4614
505.0642, 481.2743
505.5463, 491.6702
506.0284, 502.0916
506.5106, 512.3004
506.9927, 522.0194
507.4748, 530.2628
507.9569, 536.8889
508.4390, 542.6780
508.9211, 547.7446
509.4033, 552.1871
509.8854, 557.1046
510.3675, 562.6156
510.8496, 567.5785
511.3317, 570.4730
511.8138, 571.9243
512.2960, 573.6659
512.7781, 576.4366
513.2602, 578.9773
513.7423, 580.2405
514.2244, 580.2676
514.7065, 579.1537
515.1887, 575.7770
515.6708, 572.1910
516.1529, 570.2687
516.6350, 569.9686
517.1171, 568.4546
517.5992, 563.4371
518.0814, 557.7610
518.5635, 553.2678
519.0456, 550.4921
519.5277, 548.4242
520.0098, 547.7676
520.4919, 547.4764
520.9741, 545.9923
521.4562, 542.9779
521.9383, 539.4163
522.4204, 535.1974
522.9025, 530.5532
523.3846, 527.4142
523.8668, 526.3511
524.3489, 524.4420
524.8310, 518.9332
525.3131, 510.3937
525.7952, 504.8348
526.2773, 503.0820
526.7595, 500.7753
527.2416, 492.4955
527.7237, 479.8004
528.2058, 466.3551
528.6879, 452.9712
529.1700, 439.9438
529.6522, 427.7330
530.1343, 416.2417
530.6164, 404.7887
531.0985, 393.7703
531.5806, 382.2423
532.0627, 369.4041
532.5449, 355.1599
533.0270, 341.3669
533.5091, 327.8963
533.9912, 315.5524
534.4733, 305.1332
534.9554, 299.0384
535.4376, 291.2643
535.9197, 280.8226
536.4018, 269.2275
536.8839, 259.4120
537.3660, 251.6778
537.8481, 244.7431
538.3303, 238.4638
538.8124, 232.6619
539.2945, 226.2031
539.7766, 219.0398
540.2587, 211.6364
540.7408, 203.8660
541.2230, 196.0266
541.7051, 189.5882
542.1872, 184.7194
542.6693, 180.7020
543.1514, 177.2617
543.6335, 174.0734
544.1157, 170.4248
544.5978, 165.9350
545.0799, 161.1690
545.5620, 156.0218
546.0441, 150.9107
546.5262, 146.8683
547.0084, 145.2134
547.4905, 143.8737
547.9726, 141.8839
548.4547, 139.1344
548.9368, 136.6215
549.4189, 134.6843
549.9011, 132.7963
550.3832, 130.6054
550.8653, 127.7381
551.3474, 125.4920
551.8295, 124.1715
552.3116, 123.1624
552.7938, 121.4351
553.2759, 118.8737
553.7580, 116.7621
554.2401, 115.6200
554.7222, 114.9921
555.2043, 113.5486
555.6865, 111.3956
556.1686, 109.5648
556.6507, 109.0501
557.1328, 109.1220
557.6149, 108.6914
558.0970, 107.6980
558.5792, 106.4557
559.0613, 105.0028
559.5434, 103.5144
560.0255, 102.1638
560.5076, 101.0050
560.9897, 99.99277
561.4719, 98.84318
561.9540, 97.88213
562.4361, 97.66380
562.9182, 99.60975
563.4003, 100.7542
563.8824, 100.4078
564.3646, 98.74872
564.8467, 96.91352
565.3288, 94.64046
565.8109, 92.71906
566.2930, 91.36623
566.7751, 90.56728
567.2573, 91.62855
567.7394, 95.09060
568.2215, 97.96698
568.7036, 96.01388
569.1857, 90.65859
569.6678, 87.30692
570.1500, 87.50920
570.6321, 89.07706
571.1142, 90.21419
571.5963, 90.80196
572.0784, 90.57372
572.5605, 88.44839
573.0427, 86.31712
573.5248, 85.44078
574.0069, 85.66502
574.4890, 85.77901
574.9711, 85.66362
575.4532, 85.14233
575.9354, 83.73778
576.4175, 80.55159
576.8996, 79.78902
577.3817, 83.26466
577.8638, 87.38997
578.3459, 88.82283
578.8281, 86.82870
579.3102, 85.02132
579.7923, 83.80340
580.2744, 82.92783
580.7565, 81.81046
581.2386, 80.49355
581.7208, 79.76019
582.2029, 80.15886
582.6850, 81.14455
583.1671, 81.74593
583.6492, 82.02433
584.1313, 82.34261
584.6134, 83.29626
585.0955, 84.18025
585.5776, 84.29658
586.0598, 83.53268
586.5419, 82.44419
587.0240, 80.76938
587.5061, 79.14816
587.9882, 78.11404
588.4703, 78.10848
588.9525, 78.19775
589.4346, 78.18894
589.9167, 78.30748
590.3988, 78.95253
590.8809, 80.27042
591.3630, 81.81329
591.8452, 83.89233
592.3273, 85.98357
592.8094, 85.65477
593.2915, 82.75566
593.7736, 79.81123
594.2557, 78.25725
594.7379, 77.77401
595.2200, 77.61331
595.7021, 77.75937
596.1842, 77.90810
596.6663, 77.74171
597.1484, 77.47202
597.6306, 77.34189
598.1127, 77.39233
598.5948, 77.62101
599.0769, 78.22501
599.5590, 78.94016
600.0411, 79.43599
600.5233, 79.36874
601.0054, 79.40009
601.4875, 79.85099
601.9696, 80.47396
602.4517, 80.41269
602.9338, 79.15308
603.4160, 78.36116
603.8981, 78.98135
604.3802, 80.75154
604.8623, 80.60741
605.3444, 78.29855
605.8265, 76.06205
606.3087, 75.83286
606.7908, 76.99376
607.2729, 77.91984
607.7550, 78.48736
608.2371, 78.65367
608.7192, 78.12185
609.2014, 77.25555
609.6835, 76.57112
610.1656, 76.42778
610.6477, 76.15363
611.1298, 74.98256
611.6119, 73.56150
612.0941, 73.02464
612.5762, 74.62813
613.0583, 75.98167
613.5404, 76.50451
614.0225, 76.34772
614.5046, 76.36592
614.9868, 76.60024
615.4689, 76.92287
615.9510, 77.39629
616.4331, 77.98820
616.9152, 78.11267
617.3973, 77.77631
617.8795, 76.93480
618.3616, 74.68185
618.8437, 71.98105
619.3258, 71.64939
619.8079, 74.51271
620.2900, 77.36832
620.7722, 77.00975
621.2543, 75.04286
621.7364, 73.73975
622.2185, 74.47840
622.7006, 75.15196
623.1827, 74.90104
623.6649, 74.09130
624.1470, 73.60646
624.6291, 74.23923
625.1112, 74.29718
625.5933, 72.98093
626.0754, 70.62530
626.5576, 70.00726
627.0397, 71.68862
627.5218, 73.26621
628.0039, 73.22408
628.4860, 71.77998
628.9681, 70.87395
629.4503, 70.54024
629.9324, 70.29076
630.4145, 69.27918
630.8966, 68.15551
631.3787, 68.24136
631.8608, 70.03828
632.3430, 71.89097
632.8251, 73.16737
633.3072, 73.67422
633.7893, 73.19577
634.2714, 70.02522
634.7535, 67.78089
635.2357, 67.68584
635.7178, 68.95506
636.1999, 69.75960
636.6820, 69.57411
637.1641, 69.96681
637.6462, 71.83342
638.1284, 74.59974
638.6105, 74.80740
639.0926, 72.20243
639.5747, 69.44965
640.0568, 68.18240
640.5389, 67.97575
641.0211, 67.56184
641.5032, 66.93475
641.9853, 66.67529
642.4674, 67.65506
642.9495, 69.04039
643.4316, 69.97647
643.9138, 70.33686
644.3959, 70.12555
644.8780, 68.66856
645.3601, 66.96342
645.8422, 66.02308
646.3243, 66.06403
646.8065, 66.85920
647.2886, 69.20415
647.7707, 71.85964
648.2528, 72.31047
648.7349, 69.83001
649.2170, 68.25439
649.6992, 68.82599
650.1813, 70.64478
650.6634, 71.58272
651.1455, 71.65160
651.6276, 71.05696
652.1097, 69.25651
652.5919, 67.20582
653.0740, 66.04240
653.5561, 65.75949
654.0382, 66.10160
654.5203, 67.34223
655.0024, 68.85369
655.4846, 70.52721
655.9667, 72.65026
656.4488, 73.30600
656.9309, 70.39597
657.4130, 67.38041
657.8951, 66.75665
658.3773, 69.76573
658.8594, 71.49650
659.3415, 71.56050
659.8236, 70.74029
660.3057, 69.59041
660.7878, 68.25009
661.2700, 68.39581
661.7521, 70.95464
662.2342, 73.95058
662.7163, 74.59685
663.1984, 73.59094
663.6805, 72.69961
664.1627, 72.78081
664.6448, 73.16775
665.1269, 73.47350
665.6090, 73.76241
666.0911, 74.28059
666.5732, 75.58418
667.0554, 76.62096
667.5375, 77.07349
668.0196, 76.94302
668.5017, 76.38513
668.9838, 75.16789
669.4659, 74.06001
669.9481, 73.41878
670.4302, 73.25507
670.9123, 73.91475
671.3944, 75.48531
671.8765, 76.97212
672.3586, 77.35014
672.8408, 77.01595
673.3229, 76.54685
673.8050, 75.94467
674.2871, 75.67311
674.7692, 76.34702
675.2513, 77.38751
675.7335, 78.15750
676.2156, 78.13599
676.6977, 78.28507
677.1798, 78.76842
677.6619, 79.47130
678.1440, 80.32510
678.6262, 81.60703
679.1083, 82.24608
679.5904, 81.80976
680.0725, 80.79976
680.5546, 80.44493
681.0367, 80.72374
681.5189, 81.20095
682.0010, 81.68645
682.4831, 82.24413
682.9652, 82.89662
683.4473, 83.67915
683.9294, 84.81742
684.4116, 87.03206
684.8937, 89.14021
685.3758, 90.53822
685.8579, 91.16570
686.3400, 90.97298
686.8221, 89.03029
687.3043, 87.05984
687.7864, 85.73619
688.2685, 84.99232
688.7506, 85.40559
689.2327, 87.25533
689.7148, 89.53919
690.1970, 91.09099
690.6791, 92.15288
691.1612, 94.53496
691.6433, 98.69039
692.1254, 102.5869
692.6075, 103.7615
693.0897, 103.4317
693.5718, 103.4981
694.0539, 104.4573
694.5360, 105.9509
695.0181, 108.2034
695.5002, 110.7938
695.9824, 113.1064
696.4645, 114.4771
696.9466, 116.4066
697.4287, 119.4806
697.9108, 123.0424
698.3929, 125.0635
698.8751, 125.1127
699.3572, 126.4002
699.8393, 130.4437
700.3214, 136.0587
700.8035, 140.4199
701.2856, 143.7070
701.7678, 146.9648
702.2499, 151.3158
702.7320, 155.5487
703.2141, 158.0381
703.6962, 159.0837
704.1783, 161.0473
704.6605, 165.8262
705.1426, 170.8506
705.6247, 174.4764
706.1068, 176.3520
706.5889, 180.1138
707.0710, 186.5540
707.5532, 193.4471
708.0353, 199.4493
708.5174, 204.5598
708.9995, 209.4631
709.4816, 214.1156
709.9637, 219.1636
710.4459, 225.8598
710.9280, 233.2785
711.4101, 239.7360
711.8922, 245.1168
712.3743, 248.9650
712.8564, 250.7148
713.3386, 250.9082
713.8207, 250.2056
714.3028, 250.7959
714.7849, 247.3302
715.2670, 238.5470
715.7491, 226.2872
716.2313, 212.0343
716.7134, 194.9813
717.1955, 179.5710
717.6776, 165.9991
718.1597, 155.2165
718.6418, 150.1743
719.1240, 149.8463
719.6061, 149.3145
720.0882, 146.9690
720.5703, 143.3573
721.0524, 138.3721
721.5345, 132.5762
722.0167, 127.3197
722.4988, 123.4432
722.9809, 119.8604
723.4630, 115.7771
723.9451, 111.5844
724.4272, 109.2001
724.9094, 109.4650
725.3915, 109.9687
725.8736, 109.9018
726.3557, 109.3808
726.8378, 108.9301
727.3199, 108.5424
727.8021, 108.5210
728.2842, 109.1349
728.7663, 110.2021
729.2484, 111.6468
729.7305, 113.3854
730.2126, 114.7508
730.6948, 115.0178
731.1769, 115.0412
731.6590, 115.3373
732.1411, 115.9670
732.6232, 116.8420
733.1053, 118.4740
733.5875, 119.7455
734.0696, 119.5641
734.5517, 117.4558
735.0338, 117.8745
735.5159, 121.2596
735.9980, 125.2464
736.4802, 127.8214
736.9623, 129.1879
737.4444, 129.6371
737.9265, 129.1015
738.4086, 128.6236
738.8907, 128.7733
739.3729, 129.5219
739.8550, 130.8791
740.3371, 133.1416
740.8192, 135.4371
741.3013, 138.3650
741.7834, 140.7629
742.2656, 141.2005
742.7477, 138.7923
743.2298, 137.4470
743.7119, 137.6108
744.1940, 138.8406
744.6761, 141.0237
745.1583, 143.8631
745.6404, 145.8201
746.1225, 146.3116
746.6046, 146.2088
747.0867, 146.0409
747.5688, 145.9227
748.0510, 146.0490
748.5331, 146.6978
749.0152, 147.3597
749.4973, 148.1397
749.9794, 148.7931
750.4615, 148.6560
750.9437, 146.9785
751.4258, 146.5212
751.9079, 148.4075
752.3900, 151.3846
752.8721, 151.9173
753.3542, 150.3096
753.8364, 149.5577
754.3185, 151.7347
754.8006, 154.5945
755.2827, 155.4450
755.7648, 154.7691
756.2469, 153.9297
756.7291, 153.1628
757.2112, 152.6944
757.6933, 152.8976
758.1754, 153.5730
758.6575, 153.4629
759.1396, 151.6610
759.6218, 151.0092
760.1039, 153.2677
760.5860, 157.3175
761.0681, 157.5243
761.5502, 154.0015
762.0323, 150.9384
762.5145, 151.7922
762.9966, 153.9342
763.4787, 153.4823
763.9608, 150.8175
764.4429, 148.6257
764.9250, 148.6808
765.4072, 149.1020
765.8893, 149.0341
766.3714, 148.4093
766.8535, 147.3694
767.3356, 145.6531
767.8177, 143.9851
768.2999, 142.8590
768.7820, 142.1772
769.2641, 140.7382
769.7462, 138.5192
770.2283, 136.5359
770.7104, 135.6219
771.1926, 135.3582
771.6747, 135.2888
772.1568, 135.3697
772.6389, 135.3347
773.1210, 134.7727
773.6031, 134.2810
774.0853, 134.4398
774.5674, 135.5439
775.0495, 135.5520
775.5316, 134.0361
776.0137, 132.1719
776.4958, 130.6514
776.9780, 129.4628
777.4601, 128.4061
777.9422, 127.4932
778.4243, 126.4151
778.9064, 124.5244
779.3885, 122.4813
779.8707, 121.2845
780.3528, 121.1162
780.8349, 120.8211
781.3170, 119.6643
781.7991, 118.3484
782.2812, 117.4218
782.7633, 117.0826
783.2454, 116.4390
783.7275, 115.4096
784.2097, 114.2576
784.6918, 113.0775
785.1739, 111.9207
785.6560, 111.4589
786.1381, 111.8251
786.6202, 111.7637
787.1024, 109.6121
787.5845, 106.5928
788.0666, 104.2037
788.5487, 102.6715
789.0308, 101.7493
789.5129, 101.7989
789.9951, 102.1039
790.4772, 102.1252
790.9593, 101.8492
791.4414, 101.2130
791.9235, 99.99904
792.4056, 98.90108
792.8878, 98.62368
793.3699, 99.06654
793.8520, 99.80596
794.3341, 100.8547
794.8162, 101.7122
795.2983, 101.8503
795.7805, 101.6298
796.2626, 101.4967
796.7447, 101.6650
797.2268, 101.5027
797.7089, 100.3341
798.1910, 99.15170
798.6732, 98.77526
799.1553, 99.50578
799.6374, 99.86820
800.1195, 99.76693
800.6016, 99.50834
801.0837, 99.29086
801.5659, 99.17917
802.0480, 99.49117
802.5301, 100.3424
803.0122, 101.0134
803.4943, 100.6885
803.9764, 100.0763
804.4586, 99.86310
804.9407, 100.2201
805.4228, 100.8831
805.9049, 102.0608
806.3870, 103.2691
806.8691, 103.9358
807.3513, 103.8773
807.8334, 105.0942
808.3155, 107.8834
808.7976, 110.9358
809.2797, 112.9397
809.7618, 114.2014
810.2440, 115.1644
810.7261, 115.8289
811.2082, 116.7475
811.6903, 118.8609
812.1724, 120.9806
812.6545, 121.8876
813.1367, 120.4648
813.6188, 120.4593
814.1009, 122.1373
814.5830, 124.7933
815.0651, 128.3120
815.5472, 132.5552
816.0294, 135.3287
816.5115, 136.3919
816.9936, 136.8180
817.4757, 137.1287
817.9578, 137.6015
818.4399, 138.6760
818.9221, 140.5239
819.4042, 142.3155
819.8863, 143.6328
820.3684, 144.9037
820.8505, 146.4788
821.3326, 148.5218
821.8148, 150.2660
822.2969, 151.7604
822.7790, 152.7795
823.2611, 153.2645
823.7432, 153.0995
824.2253, 151.4230
824.7075, 148.1380
825.1896, 145.4170
825.6717, 145.1687
826.1538, 145.9381
826.6359, 146.5806
827.1180, 146.8987
827.6002, 147.3974
828.0823, 148.4940
828.5644, 149.3222
829.0465, 149.2859
829.5286, 148.3664
830.0107, 147.6031
830.4929, 147.0074
830.9750, 146.5375
831.4571, 146.5496
831.9392, 146.5007
832.4213, 145.4370
832.9034, 143.3497
833.3856, 141.0970
833.8677, 138.7786
834.3498, 136.7011
834.8319, 135.2597
835.3140, 134.5068
835.7961, 132.7980
836.2783, 129.7108
836.7604, 126.8094
837.2425, 125.0731
837.7246, 124.2294
838.2067, 123.2893
838.6888, 122.2316
839.1710, 120.9348
839.6531, 119.4869
840.1352, 117.6224
840.6173, 114.8832
841.0994, 111.3675
841.5815, 108.2574
842.0637, 105.9645
842.5458, 103.8152
843.0279, 101.4170
843.5100, 98.96352
843.9921, 97.91975
844.4742, 98.35580
844.9564, 98.68314
845.4385, 98.13799
845.9206, 96.98342
846.4027, 95.53657
846.8848, 93.81215
847.3669, 91.85551
847.8491, 89.29128
848.3312, 86.91515
848.8133, 84.79182
849.2954, 83.09192
849.7775, 82.57585
850.2596, 83.80323
850.7418, 84.41116
851.2239, 83.65234
851.7060, 81.98033
852.1881, 80.14299
852.6702, 78.23114
853.1523, 76.65491
853.6345, 75.26780
854.1166, 74.64053
854.5987, 76.34769
855.0808, 78.87802
855.5629, 79.32103
856.0450, 74.87708
856.5272, 71.68810
857.0093, 70.76511
857.4914, 70.99712
857.9735, 70.66640
858.4556, 69.78626
858.9377, 68.27983
859.4199, 65.81245
859.9020, 63.85565
860.3841, 64.90462
860.8662, 67.23418
861.3483, 68.24572
861.8304, 66.34678
862.3126, 64.73938
862.7947, 64.72642
863.2768, 64.97655
863.7589, 64.06848
864.2410, 61.50878
864.7231, 60.63763
865.2053, 61.94184
865.6874, 63.71765
866.1695, 64.26665
866.6516, 63.90235
867.1337, 63.10522
867.6158, 61.86791
868.0980, 60.89541
868.5801, 60.60556
869.0622, 60.68497
869.5443, 60.93028
870.0264, 61.34674
870.5085, 61.96467
870.9907, 63.12739
871.4728, 63.59471
871.9549, 61.67430
872.4370, 58.23655
872.9191, 57.22331
873.4012, 58.55954
873.8834, 59.78257
874.3655, 58.58858
874.8476, 57.10765
875.3297, 57.35868
875.8118, 59.37564
876.2939, 59.72123
876.7761, 56.40607
877.2582, 54.28429
877.7403, 55.80608
878.2224, 59.89891
878.7045, 60.99081
879.1866, 59.28035
879.6688, 57.25906
880.1509, 56.15127
880.6330, 55.44123
881.1151, 54.73464
881.5972, 54.00752
882.0793, 53.20562
882.5615, 52.02302
883.0436, 51.11946
883.5257, 50.61514
884.0078, 50.46534
884.4899, 50.63835
884.9720, 51.15179
885.4542, 51.70983
885.9363, 52.34489
886.4184, 52.73995
886.9005, 52.15760
887.3826, 51.11730
887.8647, 50.52725
888.3469, 50.76061
888.8290, 51.30803
889.3111, 52.66090
889.7932, 53.84955
890.2753, 53.64492
890.7574, 51.42904
891.2396, 50.92615
891.7217, 52.73476
892.2038, 54.69257
892.6859, 53.95277
893.1680, 51.77067
893.6501, 50.68572
894.1323, 51.10033
894.6144, 51.84280
895.0965, 52.31542
895.5786, 52.90452
896.0607, 54.13142
896.5428, 56.21032
897.0250, 56.91859
897.5071, 55.92213
897.9892, 54.68119
898.4713, 54.19847
898.9534, 54.16850
899.4355, 53.47971
899.9177, 52.28185
900.3998, 51.55699
900.8819, 52.46351
901.3640, 53.48325
901.8461, 53.75885
902.3282, 53.33596
902.8104, 52.73620
903.2925, 51.55929
903.7746, 51.30439
904.2567, 52.82756
904.7388, 55.07956
905.2209, 55.36897
905.7031, 54.14803
906.1852, 53.25716
906.6673, 53.62416
907.1494, 54.17875
907.6315, 54.48325
908.1136, 54.42722
908.5958, 53.78129
909.0779, 51.96179
909.5600, 50.58844
910.0421, 49.67598
910.5242, 49.36817
911.0063, 50.27264
911.4885, 52.05478
911.9706, 52.92285
912.4527, 52.55071
912.9348, 51.87812
913.4169, 51.25551
913.8990, 50.92429
914.3812, 51.17820
914.8633, 52.21511
915.3454, 53.18235
915.8275, 54.23388
916.3096, 54.88306
916.7917, 54.57902
917.2739, 53.55597
917.7560, 53.52832
918.2381, 54.41783
918.7202, 55.27618
919.2023, 55.80117
919.6844, 55.78292
920.1666, 54.47798
920.6487, 52.29722
921.1308, 51.43494
921.6129, 53.24759
922.0950, 54.60582
922.5771, 54.68745
923.0593, 53.95276
923.5414, 53.34594
924.0235, 52.90712
924.5056, 52.94081
924.9877, 53.78807
925.4698, 54.63610
925.9520, 54.88193
926.4341, 54.65096
926.9162, 54.11108
927.3983, 52.29347
927.8804, 51.80584
928.3625, 53.23466
928.8447, 55.16830
929.3268, 56.19565
929.8089, 56.39381
930.2910, 56.47266
930.7731, 56.49820
931.2552, 56.15017
931.7374, 54.82383
932.2195, 53.25605
932.7016, 51.85921
933.1837, 50.64615
933.6658, 50.53600
934.1479, 51.97597
934.6301, 53.82871
935.1122, 55.93072
935.5943, 57.98884
936.0764, 58.42140
936.5585, 57.43774
937.0406, 56.57521
937.5228, 56.88764
938.0049, 57.40925
938.4870, 57.79936
938.9691, 57.81717
939.4512, 56.81160
939.9333, 53.61845
940.4155, 51.27664
940.8976, 50.09548
941.3797, 49.96909
941.8618, 51.32420
942.3439, 53.75203
942.8260, 55.19025
943.3082, 55.21188
943.7903, 54.59135
944.2724, 53.02083
944.7545, 51.66908
945.2366, 51.76172
945.7188, 54.05074
946.2009, 55.79089
946.6830, 56.99139
947.1651, 57.65258
947.6472, 57.52158
948.1293, 56.84080
948.6115, 56.64174
949.0936, 56.87733
949.5757, 57.15850
950.0578, 56.86614
950.5399, 56.91208
951.0220, 58.09789
951.5042, 60.14823
951.9863, 61.84686
952.4684, 63.27750
952.9505, 64.08044
953.4326, 64.14605
953.9147, 63.59424
954.3969, 61.78654
954.8790, 59.55276
955.3611, 59.52277
955.8432, 63.52687
956.3253, 66.87218
956.8074, 66.54237
957.2896, 64.70236
957.7717, 63.41356
958.2538, 62.76955
958.7359, 62.44506
959.2180, 62.35246
959.7001, 62.94813
960.1823, 65.27328
960.6644, 68.33962
961.1465, 70.18210
961.6286, 70.77740
962.1107, 70.50438
962.5928, 68.17962
963.0750, 66.44859
963.5571, 66.47089
964.0392, 67.97133
964.5213, 70.61704
965.0034, 74.77757
965.4855, 76.34081
965.9677, 73.02579
966.4498, 68.71595
966.9319, 69.19184
967.4140, 72.50581
967.8961, 75.22294
968.3782, 75.89735
968.8604, 76.86361
969.3425, 79.69218
969.8246, 81.97997
970.3067, 81.03198
970.7888, 76.66208
971.2709, 75.39387
971.7531, 77.56057
972.2352, 80.19920
972.7173, 81.11569
973.1994, 81.17106
973.6815, 81.05131
974.1636, 80.82906
974.6458, 80.68124
975.1279, 80.38061
975.6100, 80.62797
976.0921, 82.04673
976.5742, 83.83185
977.0563, 83.38130
977.5385, 81.05982
978.0206, 79.04207
978.5027, 77.85957
978.9848, 77.65777
979.4669, 79.59952
979.9490, 82.12104
980.4311, 83.15721
980.9132, 81.82864
981.3953, 80.41965
981.8774, 78.78511
982.3596, 77.44203
982.8417, 76.91991
983.3238, 77.06730
983.8059, 77.44623
984.2880, 78.04099
984.7701, 78.95756
985.2523, 81.80929
985.7344, 83.50854
986.2165, 81.25764
986.6986, 76.27801
987.1807, 73.49717
987.6628, 73.12041
988.1450, 74.04656
988.6271, 76.46401
989.1092, 78.98936
989.5913, 79.74957
990.0734, 79.08395
990.5555, 77.42149
991.0377, 73.82965
991.5198, 71.56059
992.0019, 72.39113
992.4840, 73.87965
992.9661, 74.32652
993.4482, 73.70966
993.9304, 72.53772
994.4125, 70.78594
994.8946, 69.41514
995.3767, 69.28504
995.8588, 69.69405
996.3409, 70.32438
996.8231, 71.00296
997.3052, 70.86320
997.7873, 69.19548
998.2694, 67.72487
998.7515, 66.65356
999.2336, 66.19475
999.7158, 67.38931
1000.198, 69.66250
1000.680, 70.69439
1001.162, 69.45741
1001.644, 68.29907
1002.126, 69.23158
1002.608, 70.58357
1003.091, 70.65453
1003.573, 69.01666
1004.055, 68.67259
1004.537, 69.95512
1005.019, 70.92216
1005.501, 69.59755
1005.983, 67.43936
1006.465, 67.48544
1006.948, 69.06004
1007.430, 69.53600
1007.912, 65.72447
1008.394, 63.40029
1008.876, 64.92590
1009.358, 68.07823
1009.840, 68.73636
1010.322, 66.98615
1010.804, 65.67416
1011.287, 65.19511
1011.769, 65.65106
1012.251, 68.31713
1012.733, 71.21642
1013.215, 72.13640
1013.697, 70.37257
1014.179, 69.24602
1014.661, 68.95863
1015.143, 69.14512
1015.626, 69.79234
1016.108, 70.70287
1016.590, 71.36146
1017.072, 71.76308
1017.554, 71.91085
1018.036, 71.50099
1018.518, 71.18959
1019.000, 71.00436
1019.483, 71.21761
1019.965, 72.19334
1020.447, 74.01653
1020.929, 76.41993
1021.411, 79.56631
1021.893, 82.12794
1022.375, 82.22335
1022.857, 81.33396
1023.339, 81.21169
1023.822, 81.99874
1024.304, 83.21653
1024.786, 84.89166
1025.268, 86.80049
1025.750, 88.92619
1026.232, 91.19079
1026.714, 93.39281
1027.196, 95.52711
1027.679, 97.47231
1028.161, 98.84456
1028.643, 100.8088
1029.125, 104.6688
1029.607, 109.2274
1030.089, 113.1993
1030.571, 116.4405
1031.053, 119.2828
1031.536, 121.4983
1032.018, 124.5165
1032.500, 129.2031
1032.982, 135.4490
1033.464, 142.8884
1033.946, 151.6363
1034.428, 162.4371
1034.910, 174.4476
1035.392, 190.1200
1035.875, 208.5036
1036.357, 231.7548
1036.839, 262.9964
1037.321, 302.3464
1037.803, 349.3498
1038.285, 404.9762
1038.767, 463.3359
1039.249, 523.8529
1039.731, 581.9568
1040.214, 633.3041
1040.696, 676.8533
1041.178, 721.2273
1041.660, 764.8318
1042.142, 813.9597
1042.624, 870.5537
1043.106, 935.8594
1043.588, 1009.971
1044.071, 1096.832
1044.553, 1205.443
1045.035, 1343.677
1045.517, 1499.782
1045.999, 1675.751
1046.481, 1864.169
1046.963, 2055.717
1047.445, 2251.077
1047.927, 2461.912
1048.410, 2688.548
1048.892, 2874.048
1049.374, 3031.706
1049.856, 3085.803
1050.338, 2960.322
1050.820, 2672.877
1051.302, 2330.815
1051.784, 1907.005
1052.266, 1527.740
1052.749, 1216.030
1053.231, 963.8889
1053.713, 769.9989
1054.195, 625.5768
1054.677, 514.6046
1055.159, 438.5055
1055.641, 376.3762
1056.123, 325.4048
1056.606, 284.3412
1057.088, 254.4852
1057.570, 234.1640
1058.052, 215.5769
1058.534, 198.7685
1059.016, 183.5520
1059.498, 169.9229
1059.980, 157.8063
1060.463, 147.3475
1060.945, 138.3515
1061.427, 130.5300
1061.909, 124.2625
1062.391, 117.5102
1062.873, 109.9662
1063.355, 103.7126
1063.837, 101.8538
1064.319, 101.6350
1064.802, 99.12569
1065.284, 94.55636
1065.766, 90.36951
1066.248, 86.57433
1066.730, 84.34504
1067.212, 84.61270
1067.694, 85.61805
1068.176, 83.89795
1068.658, 80.08992
1069.141, 76.31010
1069.623, 72.80485
1070.105, 70.60328
1070.587, 71.96741
1071.069, 73.37032
1071.551, 72.10253
1072.033, 68.44403
1072.515, 66.37704
1072.998, 65.97777
1073.480, 65.79780
1073.962, 65.22607
1074.444, 64.57847
1074.926, 64.22325
1075.408, 64.01556
1075.890, 63.72976
1076.372, 63.15823
1076.854, 62.88502
1077.337, 63.04519
1077.819, 63.14327
1078.301, 62.68160
1078.783, 61.88255
1079.265, 61.25989
1079.747, 60.80032
1080.229, 60.36030
1080.711, 60.30703
1081.193, 59.65308
1081.676, 57.71439
1082.158, 55.47111
1082.640, 54.83015
1083.122, 55.58529
1083.604, 55.78010
1084.086, 55.14162
1084.568, 53.91511
1085.050, 51.12497
1085.532, 48.78545
1086.015, 48.76225
1086.497, 50.81034
1086.979, 52.70428
1087.461, 54.61889
1087.943, 55.09986
1088.425, 53.32371
1088.907, 50.67663
1089.389, 48.25558
1089.872, 46.42422
1090.354, 45.90157
1090.836, 47.69419
1091.318, 48.23491
1091.800, 46.77525
1092.282, 45.31459
1092.764, 45.53310
1093.246, 46.53310
1093.729, 44.94339
1094.211, 41.58779
1094.693, 39.57688
1095.175, 41.93470
1095.657, 43.59679
1096.139, 42.26413
1096.621, 40.39912
1097.103, 41.06538
1097.585, 44.10414
1098.068, 45.48492
1098.550, 45.00197
1099.032, 43.98663
1099.514, 43.19952
1099.996, 42.37938
1100.478, 41.13116
1100.960, 39.69212
1101.442, 38.86364
1101.924, 38.62800
1102.407, 39.20428
1102.889, 40.79542
1103.371, 42.53227
1103.853, 43.63422
1104.335, 44.22242
1104.817, 44.35621
1105.299, 43.99471
1105.781, 43.79369
1106.264, 44.16809
1106.746, 43.77641
1107.228, 41.75793
1107.710, 39.12934
1108.192, 37.82456
1108.674, 37.54730
1109.156, 37.70878
1109.638, 38.59504
1110.120, 38.71587
1110.603, 36.74597
1111.085, 35.05954
1111.567, 35.49448
1112.049, 37.61140
1112.531, 38.15163
1113.013, 37.32250
1113.495, 36.49772
1113.977, 35.66879
1114.459, 35.84487
1114.942, 38.89003
1115.424, 42.44421
1115.906, 43.17733
1116.388, 40.75325
1116.870, 39.29990
1117.352, 39.05950
1117.834, 38.95614
1118.316, 38.43896
1118.799, 37.44594
1119.281, 34.98564
1119.763, 31.90959
1120.245, 31.94962
1120.727, 36.54025
1121.209, 39.05886
1121.691, 38.13553
1122.173, 35.97776
1122.656, 34.41801
1123.138, 33.65591
1123.620, 34.52994
1124.102, 37.20071
1124.584, 38.04704
1125.066, 35.64021
1125.548, 33.65954
1126.030, 33.37580
1126.512, 33.98307
1126.995, 33.92007
1127.477, 33.46361
1127.959, 33.35238
1128.441, 33.99339
1128.923, 34.11126
1129.405, 32.88911
1129.887, 31.51647
1130.369, 30.40988
1130.851, 29.66506
1131.334, 29.88552
1131.816, 30.90301
1132.298, 31.95069
1132.780, 32.88564
1133.262, 33.48885
1133.744, 33.88072
1134.226, 33.70277
1134.708, 32.36525
1135.191, 29.73856
1135.673, 28.16057
1136.155, 27.62153
1136.637, 28.07992
1137.119, 30.82665
1137.601, 33.24043
1138.083, 33.08890
1138.565, 31.35430
1139.047, 30.33340
1139.530, 30.32173
1140.012, 29.18022
1140.494, 26.56521
1140.976, 24.52368
1141.458, 25.90176
1141.940, 28.02313
1142.422, 27.70718
1142.904, 25.43303
1143.386, 24.78779
1143.869, 26.56681
1144.351, 28.18122
1144.833, 29.29607
1145.315, 29.70219
1145.797, 28.56779
1146.279, 26.82574
1146.761, 25.74213
1147.243, 25.47762
1147.726, 25.75486
1148.208, 27.15176
1148.690, 27.62209
1149.172, 26.04829
1149.654, 24.00810
1150.136, 25.36635
1150.618, 28.33614
1151.100, 28.80770
1151.583, 24.93491
1152.065, 22.93948
1152.547, 26.20846
1153.029, 29.04087
1153.511, 28.50257
1153.993, 25.75677
1154.475, 24.47284
1154.957, 24.31495
1155.439, 24.11298
1155.922, 23.09090
1156.404, 22.72408
1156.886, 24.48096
1157.368, 26.21820
1157.850, 26.47328
1158.332, 25.40398
1158.814, 24.15407
1159.296, 22.86640
1159.778, 22.47175
1160.261, 24.69747
1160.743, 26.48856
1161.225, 25.58990
1161.707, 24.05688
1162.189, 24.25721
1162.671, 26.25525
1163.153, 26.80000
1163.635, 25.86482
1164.118, 25.15112
1164.600, 26.20107
1165.082, 27.44188
1165.564, 28.19504
1166.046, 28.31325
1166.528, 27.42771
1167.010, 25.37574
1167.492, 23.87197
1167.974, 23.06585
1168.457, 22.61439
1168.939, 22.27000
1169.421, 22.11786
1169.903, 22.39635
1170.385, 22.94280
1170.867, 22.91887
1171.349, 22.07380
1171.831, 22.48053
1172.313, 24.77715
1172.796, 26.60872
1173.278, 24.85758
1173.760, 21.94912
1174.242, 19.92053
1174.724, 19.06284
1175.206, 19.58311
1175.688, 21.98343
1176.170, 23.34584
1176.653, 22.64809
1177.135, 21.46334
1177.617, 22.01222
1178.099, 21.25868
1178.581, 23.01052
1179.063, 21.32740
1179.545, 20.85672
1180.027, 21.95818
1180.510, 23.24770
1180.992, 24.28273
1181.474, 25.11595
1181.956, 26.16300
1182.438, 26.93589
1182.920, 26.41128
1183.402, 23.70606
1183.884, 22.74537
1184.366, 24.36926
1184.849, 25.69316
1185.331, 25.09529
1185.813, 23.58722
1186.295, 22.77995
1186.777, 22.53776
1187.259, 22.65939
1187.741, 23.38501
1188.223, 23.82052
1188.705, 23.95265
1189.188, 23.71146
1189.670, 22.60438
1190.152, 21.37448
1190.634, 22.04666
1191.116, 23.83595
1191.598, 24.85142
1192.080, 23.71333
1192.562, 22.92325
1193.045, 22.60895
1193.527, 22.68041
1194.009, 23.52723
1194.491, 24.52924
1194.973, 23.63711
1195.455, 21.54101
1195.937, 20.59506
1196.419, 23.13786
1196.901, 24.62563
1197.384, 24.18400
1197.866, 23.33551
1198.348, 23.91996
1198.830, 25.10920
1199.312, 24.57817
1199.794, 22.62009
1200.276, 21.08722
1200.758, 21.23831
1201.240, 21.04777
1201.723, 19.88750
1202.205, 18.86522
1202.687, 19.55794
1203.169, 21.36685
1203.651, 23.20085
1204.133, 24.85071
1204.615, 25.44981
1205.097, 23.47001
1205.580, 22.08519
1206.062, 22.08265
1206.544, 22.58947
1207.026, 22.16800
1207.508, 21.30009
1207.990, 21.29281
1208.472, 22.23511
1208.954, 23.14382
1209.437, 23.84897
1209.919, 24.16965
1210.401, 23.90969
1210.883, 23.48812
1211.365, 23.83351
1211.847, 24.51950
1212.329, 24.44873
1212.811, 23.45147
1213.293, 22.48718
1213.776, 21.35050
1214.258, 21.13423
1214.740, 22.55294
1215.222, 24.47065
1215.704, 24.38634
1216.186, 23.14733
1216.668, 22.86375
1217.150, 24.02183
1217.632, 24.63360
1218.115, 23.89363
1218.597, 22.88297
1219.079, 21.85635
1219.561, 20.87993
1220.043, 19.74765
1220.525, 18.81804
1221.007, 19.07225
1221.489, 20.97013
1221.972, 22.39970
1222.454, 22.65320
1222.936, 22.86597
1223.418, 23.57990
1223.900, 24.38657
1224.382, 24.49691
1224.864, 24.00986
1225.346, 23.00040
1225.828, 21.23907
1226.311, 20.04122
1226.793, 19.70503
1227.275, 19.66896
1227.757, 19.71336
1228.239, 19.86562
1228.721, 20.12869
1229.203, 20.55875
1229.685, 21.33296
1230.167, 22.72143
1230.650, 23.70431
1231.132, 24.28119
1231.614, 24.28195
1232.096, 23.47148
1232.578, 22.19394
1233.060, 20.69125
1233.542, 19.34431
1234.024, 18.93847
1234.507, 19.95737
1234.989, 21.41491
1235.471, 23.71909
1235.953, 24.97012
1236.435, 23.34864
1236.917, 20.79154
1237.399, 20.59599
1237.881, 21.82778
1238.364, 22.90430
1238.846, 23.96195
1239.328, 23.14951
1239.810, 19.71862
1240.292, 17.48161
1240.774, 19.76889
1241.256, 23.60288
1241.738, 25.12691
1242.220, 25.19199
1242.703, 25.46211
1243.185, 26.99576
1243.667, 25.71819
1244.149, 21.01032
1244.631, 17.29393
1245.113, 18.43535
1245.595, 21.17311
1246.077, 22.11799
1246.559, 22.05497
1247.042, 22.45255
1247.524, 23.85922
1248.006, 23.82329
1248.488, 22.20920
1248.970, 20.86795
1249.452, 21.27318
1249.934, 22.22787
1250.416, 23.24563
1250.899, 23.86507
1251.381, 23.25365
1251.863, 21.05014
1252.345, 19.64222
1252.827, 19.04213
1253.309, 19.36984
1253.791, 22.25491
1254.273, 24.44240
1254.755, 23.00215
1255.238, 19.88318
1255.720, 17.56464
1256.202, 15.98464
1256.684, 17.17896
1257.166, 20.96286
1257.648, 23.72088
1258.130, 22.38404
1258.612, 20.43019
1259.094, 19.03096
1259.577, 18.41202
1260.059, 19.14633
1260.541, 21.09421
1261.023, 22.35751
1261.505, 22.96010
1261.987, 23.49430
1262.469, 24.77486
1262.951, 25.34968
1263.434, 24.18863
1263.916, 22.79868
1264.398, 22.97930
1264.880, 24.22872
1265.362, 23.87419
1265.844, 22.26082
1266.326, 21.59660
1266.808, 24.34880
1267.291, 25.92533
1267.773, 25.13230
1268.255, 23.79234
1268.737, 23.97173
1269.219, 24.91398
1269.701, 24.52961
1270.183, 23.11934
1270.665, 22.09359
1271.147, 21.89652
1271.630, 22.31754
1272.112, 23.64212
1272.594, 24.72018
1273.076, 24.05676
1273.558, 22.71505
1274.040, 22.22163
1274.522, 22.48959
1275.004, 23.15757
1275.486, 24.59412
1275.969, 25.25417
1276.451, 25.00041
1276.933, 24.19866
1277.415, 22.63220
1277.897, 21.13770
1278.379, 20.57772
1278.861, 20.83805
1279.343, 21.76048
1279.825, 23.78664
1280.308, 23.79082
1280.790, 21.51129
1281.272, 19.47949
1281.754, 20.20405
1282.236, 21.22539
1282.718, 20.55678
1283.200, 19.12889
1283.682, 18.37549
1284.165, 18.28802
1284.647, 19.42033
1285.129, 21.69691
1285.611, 23.62262
1286.093, 24.09080
1286.575, 24.24307
1287.057, 24.86962
1287.539, 25.20214
1288.021, 24.06351
1288.504, 21.81356
1288.986, 20.22616
1289.468, 19.41927
1289.950, 19.60648
1290.432, 22.13080
1290.914, 23.87465
1291.396, 24.11209
1291.878, 23.71464
1292.360, 23.49896
1292.843, 23.29922
1293.325, 22.35919
1293.807, 21.02950
1294.289, 20.55406
1294.771, 22.28010
1295.253, 23.45513
1295.735, 24.01143
1296.217, 23.87313
1296.700, 22.44378
1297.182, 20.66729
1297.664, 19.60528
1298.146, 19.29165
1298.628, 19.87391
1299.110, 21.63210
1299.592, 23.07754
1300.074, 24.15928
1300.557, 25.05943
1301.039, 26.26767
1301.521, 27.00125
1302.003, 25.91465
1302.485, 24.29924
1302.967, 23.96136
1303.449, 24.91394
##END=



