##NAMES=Lillianite
##RRUFFID=R110141
##IDEAL CHEMISTRY=Pb^2+^_3-2x_Ag^1+^_x_Bi^3+^_2+x_S^2-^_6_
##LOCALITY=Pedro claim, King County, Washington, USA
##OWNER=RRUFF
##SOURCE=Rob Lavinsky
##DESCRIPTION=Elongated prismatic silver gray metallic crystal, with severe exterior corrosion associated with aikinite, galena, neyite, and gustavite
##STATUS=The identification of this mineral is confirmed by single-crystal X-ray diffraction and chemical analysis.
##URL=rruff.info/R110141
##MEASURED CHEMISTRY=Pb_1.82_Ag_0.62_Cu_0.04_(Bi_2.66_Sb_0.01_)_âˆ‘=2.67_S_6_
154.1316, 31.01836
154.6137, 33.42262
155.0958, 36.16805
155.5779, 38.47193
156.0601, 39.95407
156.5422, 41.73728
157.0243, 44.23883
157.5064, 47.12646
157.9885, 49.75668
158.4706, 51.41661
158.9528, 53.20855
159.4349, 55.61212
159.9170, 58.66412
160.3991, 62.39796
160.8812, 66.87889
161.3633, 72.05630
161.8455, 77.79729
162.3276, 85.04004
162.8097, 92.19503
163.2918, 98.36229
163.7739, 102.7631
164.2560, 106.8399
164.7382, 111.1092
165.2203, 115.5383
165.7024, 120.0021
166.1845, 124.6718
166.6666, 129.2649
167.1487, 133.4764
167.6309, 137.2189
168.1130, 140.6301
168.5951, 143.8509
169.0772, 146.8468
169.5593, 149.3068
170.0414, 150.1202
170.5236, 150.5695
171.0057, 152.2003
171.4878, 156.5929
171.9699, 161.5584
172.4520, 165.1505
172.9341, 167.4751
173.4163, 169.6405
173.8984, 171.9164
174.3805, 174.6564
174.8626, 178.3500
175.3447, 183.3512
175.8268, 189.3556
176.3090, 196.3670
176.7911, 204.3338
177.2732, 212.3776
177.7553, 219.2924
178.2374, 224.6930
178.7195, 228.7404
179.2017, 230.6038
179.6838, 231.6004
180.1659, 233.6508
180.6480, 236.8096
181.1301, 240.5632
181.6122, 245.1509
182.0944, 250.1571
182.5765, 254.0694
183.0586, 255.7218
183.5407, 255.9541
184.0228, 256.4372
184.5049, 257.1483
184.9871, 258.3958
185.4692, 261.0953
185.9513, 264.9317
186.4334, 268.0541
186.9155, 269.3493
187.3976, 269.2445
187.8798, 269.0886
188.3619, 268.8924
188.8440, 268.7788
189.3261, 269.0090
189.8082, 269.5538
190.2903, 270.0319
190.7725, 269.8557
191.2546, 269.2845
191.7367, 270.1028
192.2188, 272.7137
192.7009, 275.8726
193.1830, 277.2948
193.6652, 276.9731
194.1473, 276.6475
194.6294, 277.4313
195.1115, 279.2104
195.5936, 280.4781
196.0757, 281.0263
196.5579, 281.2451
197.0400, 281.9762
197.5221, 283.2820
198.0042, 284.4298
198.4863, 284.6563
198.9684, 283.9370
199.4506, 284.5597
199.9327, 287.0884
200.4148, 290.4958
200.8969, 292.4642
201.3790, 292.8329
201.8611, 292.7704
202.3433, 292.9032
202.8254, 293.2501
203.3075, 293.5928
203.7896, 293.9404
204.2717, 294.2487
204.7538, 294.3824
205.2360, 294.3090
205.7181, 294.1645
206.2002, 293.8243
206.6823, 293.1142
207.1644, 293.4847
207.6465, 295.6529
208.1287, 298.6366
208.6108, 299.2569
209.0929, 296.7757
209.5750, 293.9662
210.0571, 292.7001
210.5392, 293.4056
211.0214, 293.5068
211.5035, 292.4619
211.9856, 290.7755
212.4677, 290.2897
212.9498, 291.4280
213.4319, 292.8315
213.9140, 293.7767
214.3962, 294.2996
214.8783, 294.2258
215.3604, 293.3615
215.8425, 291.9171
216.3246, 290.7726
216.8067, 290.0073
217.2889, 289.3612
217.7710, 288.6329
218.2531, 287.7000
218.7352, 287.0602
219.2173, 286.9118
219.6994, 287.0767
220.1816, 286.6501
220.6637, 285.2069
221.1458, 283.8780
221.6279, 283.5589
222.1100, 284.9635
222.5921, 285.4098
223.0743, 284.2801
223.5564, 282.0140
224.0385, 280.6326
224.5206, 280.4284
225.0027, 280.6928
225.4848, 281.1573
225.9670, 282.2770
226.4491, 282.4445
226.9312, 281.1222
227.4133, 278.7235
227.8954, 277.1811
228.3775, 276.7850
228.8597, 276.8624
229.3418, 277.1294
229.8239, 277.9401
230.3060, 278.0555
230.7881, 276.9751
231.2702, 275.0705
231.7524, 274.3455
232.2345, 275.8664
232.7166, 277.0564
233.1987, 276.1645
233.6808, 271.6873
234.1629, 268.4821
234.6451, 267.1978
235.1272, 267.4236
235.6093, 267.3297
236.0914, 266.6934
236.5735, 266.0443
237.0556, 265.7294
237.5378, 266.0837
238.0199, 266.0245
238.5020, 265.2785
238.9841, 264.0770
239.4662, 263.4337
239.9483, 263.8231
240.4305, 264.1378
240.9126, 263.7467
241.3947, 262.2418
241.8768, 260.9460
242.3589, 259.9666
242.8410, 259.2390
243.3232, 258.4951
243.8053, 257.6168
244.2874, 256.8870
244.7695, 256.4682
245.2516, 256.4719
245.7337, 256.5297
246.2159, 256.7267
246.6980, 256.9497
247.1801, 256.8562
247.6622, 256.4412
248.1443, 255.7074
248.6264, 254.5967
249.1086, 252.8209
249.5907, 251.3036
250.0728, 249.8892
250.5549, 248.7900
251.0370, 248.7496
251.5191, 250.6725
252.0013, 252.2301
252.4834, 252.2860
252.9655, 250.1088
253.4476, 248.3588
253.9297, 247.1298
254.4118, 246.2925
254.8940, 245.5557
255.3761, 244.9816
255.8582, 244.3934
256.3403, 243.7257
256.8224, 242.9774
257.3046, 242.1127
257.7867, 240.9800
258.2688, 239.8268
258.7509, 239.2657
259.2330, 239.7561
259.7151, 239.8946
260.1973, 238.9049
260.6794, 236.3173
261.1615, 234.9184
261.6436, 235.3595
262.1257, 236.4433
262.6078, 236.0069
263.0900, 233.4079
263.5721, 230.8489
264.0542, 229.1442
264.5363, 228.4159
265.0184, 227.6542
265.5005, 226.8874
265.9827, 226.0513
266.4648, 225.0483
266.9469, 223.8997
267.4290, 222.5287
267.9111, 220.7370
268.3932, 218.4669
268.8754, 216.8924
269.3575, 216.1813
269.8396, 215.8974
270.3217, 215.6025
270.8038, 215.3789
271.2859, 214.8003
271.7681, 213.6512
272.2502, 211.9585
272.7323, 210.3642
273.2144, 208.8253
273.6965, 207.5256
274.1786, 206.8192
274.6608, 206.8617
275.1429, 206.6134
275.6250, 205.7697
276.1071, 204.4096
276.5892, 203.0749
277.0714, 201.8122
277.5535, 200.5028
278.0356, 198.8946
278.5177, 196.9116
278.9998, 195.4853
279.4819, 195.1087
279.9641, 195.3703
280.4462, 194.4005
280.9283, 192.0154
281.4104, 189.1682
281.8925, 186.5385
282.3746, 184.1300
282.8568, 181.7340
283.3389, 179.2285
283.8210, 176.7895
284.3031, 175.0652
284.7852, 174.1411
285.2673, 173.1907
285.7495, 171.5424
286.2316, 169.2538
286.7137, 167.0437
287.1958, 165.0118
287.6779, 163.0905
288.1600, 161.1693
288.6422, 159.2478
289.1243, 157.2594
289.6064, 155.1138
290.0885, 152.8533
290.5706, 150.8519
291.0527, 149.2036
291.5349, 147.6632
292.0170, 145.7539
292.4991, 143.5288
292.9812, 141.4152
293.4633, 139.7567
293.9454, 138.4150
294.4276, 136.9159
294.9097, 135.1966
295.3918, 133.5542
295.8739, 132.4881
296.3560, 131.8940
296.8381, 131.2236
297.3203, 130.2032
297.8024, 128.9436
298.2845, 127.6528
298.7666, 126.3321
299.2487, 124.9577
299.7308, 123.3960
300.2130, 121.7256
300.6951, 120.1957
301.1772, 118.8857
301.6593, 117.7839
302.1414, 116.9937
302.6235, 116.5110
303.1057, 115.8930
303.5878, 114.5506
304.0699, 112.8364
304.5520, 111.4477
305.0341, 110.8804
305.5162, 110.4893
305.9984, 109.5873
306.4805, 108.2292
306.9626, 106.7280
307.4447, 104.8197
307.9268, 103.0518
308.4089, 102.3017
308.8911, 103.4684
309.3732, 104.6629
309.8553, 104.1431
310.3374, 102.3243
310.8195, 100.5906
311.3016, 99.69088
311.7838, 99.26466
312.2659, 99.06232
312.7480, 99.20265
313.2301, 99.16248
313.7122, 98.55411
314.1943, 97.53629
314.6765, 96.45523
315.1586, 95.09101
315.6407, 93.97710
316.1228, 93.54402
316.6049, 94.00594
317.0870, 94.47912
317.5692, 94.74914
318.0513, 94.75431
318.5334, 94.40320
319.0155, 93.56107
319.4976, 92.44895
319.9797, 91.03112
320.4619, 89.26460
320.9440, 87.73744
321.4261, 86.58621
321.9082, 85.78262
322.3903, 85.30696
322.8724, 85.32853
323.3546, 85.49975
323.8367, 85.95210
324.3188, 86.65116
324.8009, 86.79991
325.2830, 85.50555
325.7651, 84.09280
326.2473, 83.42245
326.7294, 84.58873
327.2115, 85.33139
327.6936, 85.40596
328.1757, 84.87834
328.6578, 84.07922
329.1400, 82.29884
329.6221, 80.84926
330.1042, 80.34362
330.5863, 81.89687
331.0684, 82.52852
331.5505, 81.66673
332.0327, 79.98567
332.5148, 78.99375
332.9969, 79.06144
333.4790, 79.32592
333.9611, 79.57935
334.4432, 79.92958
334.9254, 79.79091
335.4075, 78.97681
335.8896, 77.82975
336.3717, 76.71976
336.8538, 75.42828
337.3359, 74.76112
337.8180, 75.20882
338.3001, 76.74084
338.7823, 77.41148
339.2644, 77.02271
339.7465, 76.15886
340.2286, 75.23460
340.7107, 74.17399
341.1928, 73.59509
341.6750, 73.76723
342.1571, 74.47071
342.6392, 74.88095
343.1213, 74.99482
343.6034, 74.85913
344.0855, 74.35255
344.5677, 73.50497
345.0498, 72.92805
345.5319, 72.65532
346.0140, 72.75799
346.4961, 73.76039
346.9782, 75.60474
347.4604, 76.87948
347.9425, 76.28022
348.4246, 74.37696
348.9067, 73.41239
349.3888, 73.65652
349.8709, 74.07922
350.3531, 73.23260
350.8352, 71.44186
351.3173, 69.92046
351.7994, 69.09002
352.2815, 68.87785
352.7636, 69.45444
353.2458, 70.81633
353.7279, 71.95927
354.2100, 71.78054
354.6921, 70.83958
355.1742, 70.10013
355.6563, 69.87024
356.1385, 69.94199
356.6206, 70.27684
357.1027, 70.80605
357.5848, 71.18133
358.0669, 71.15954
358.5490, 70.90794
359.0312, 70.55437
359.5133, 70.04784
359.9954, 69.61309
360.4775, 69.50200
360.9596, 69.55684
361.4417, 69.44499
361.9239, 68.93202
362.4060, 68.29373
362.8881, 67.59525
363.3702, 66.77650
363.8523, 66.26767
364.3344, 66.51089
364.8166, 67.03234
365.2987, 67.29344
365.7808, 66.76498
366.2629, 66.36112
366.7450, 66.41486
367.2271, 66.92745
367.7093, 67.29323
368.1914, 67.51645
368.6735, 67.52414
369.1556, 67.25881
369.6377, 65.97428
370.1198, 65.37124
370.6020, 65.96692
371.0841, 67.35369
371.5662, 68.04584
372.0483, 67.68476
372.5304, 67.05296
373.0125, 66.36436
373.4947, 65.35838
373.9768, 65.14574
374.4589, 66.19779
374.9410, 67.66326
375.4231, 68.09449
375.9052, 67.14127
376.3874, 66.13697
376.8695, 65.40175
377.3516, 64.93298
377.8337, 65.00799
378.3158, 65.84207
378.7979, 66.63263
379.2801, 66.35702
379.7622, 64.94208
380.2443, 64.10617
380.7264, 64.40675
381.2085, 65.30176
381.6906, 65.23274
382.1728, 64.18327
382.6549, 63.06744
383.1370, 62.48131
383.6191, 62.34119
384.1012, 62.40746
384.5833, 62.71489
385.0655, 63.01619
385.5476, 62.70776
386.0297, 62.03022
386.5118, 61.88099
386.9939, 63.40275
387.4760, 65.42298
387.9582, 66.13777
388.4403, 65.50826
388.9224, 64.52261
389.4045, 63.97762
389.8866, 63.59327
390.3687, 62.93361
390.8509, 61.37381
391.3330, 60.03053
391.8151, 59.81959
392.2972, 60.54301
392.7793, 61.37956
393.2614, 62.43197
393.7436, 63.11982
394.2257, 62.84429
394.7078, 60.86721
395.1899, 59.49047
395.6720, 60.16008
396.1541, 61.83512
396.6363, 62.84258
397.1184, 61.96368
397.6005, 61.10952
398.0826, 61.09911
398.5647, 62.13252
399.0468, 62.60938
399.5290, 61.67363
400.0111, 60.51590
400.4932, 60.10017
400.9753, 61.19144
401.4574, 62.01269
401.9395, 62.45216
402.4217, 62.51234
402.9038, 62.12672
403.3859, 60.95181
403.8680, 59.83508
404.3501, 59.15857
404.8322, 58.95644
405.3144, 59.17086
405.7965, 60.01920
406.2786, 61.02237
406.7607, 61.32697
407.2428, 60.79666
407.7249, 60.31550
408.2071, 60.23006
408.6892, 60.45613
409.1713, 60.38252
409.6534, 59.94276
410.1355, 59.58968
410.6176, 60.07767
411.0998, 61.16715
411.5819, 61.29050
412.0640, 59.79019
412.5461, 57.78693
413.0282, 57.08158
413.5103, 57.53844
413.9925, 58.31958
414.4746, 59.47205
414.9567, 60.46858
415.4388, 60.13850
415.9209, 58.22209
416.4030, 56.51929
416.8852, 56.86901
417.3673, 58.37603
417.8494, 59.57550
418.3315, 59.76787
418.8136, 59.59161
419.2957, 59.34611
419.7779, 59.05345
420.2600, 58.82019
420.7421, 58.71018
421.2242, 58.67181
421.7063, 58.67846
422.1884, 58.76373
422.6706, 58.82062
423.1527, 58.86141
423.6348, 58.85271
424.1169, 58.73342
424.5990, 58.45135
425.0811, 58.09668
425.5633, 57.56424
426.0454, 56.74998
426.5275, 56.51450
427.0096, 57.40306
427.4917, 58.43554
427.9738, 58.77089
428.4560, 58.00422
428.9381, 57.38803
429.4202, 57.09858
429.9023, 57.05084
430.3844, 56.94676
430.8665, 56.77546
431.3487, 56.57997
431.8308, 56.24685
432.3129, 55.73973
432.7950, 56.02021
433.2771, 57.36835
433.7592, 58.77716
434.2414, 58.76338
434.7235, 57.44665
435.2056, 56.27549
435.6877, 55.80736
436.1698, 55.70461
436.6519, 55.06153
437.1341, 53.92794
437.6162, 53.15986
438.0983, 53.75507
438.5804, 55.04933
439.0625, 55.88169
439.5446, 55.99897
440.0268, 55.84765
440.5089, 55.61761
440.9910, 55.41810
441.4731, 55.47344
441.9552, 56.28584
442.4373, 57.06768
442.9195, 57.12958
443.4016, 56.48114
443.8837, 56.16458
444.3658, 57.18007
444.8479, 58.38230
445.3300, 58.85042
445.8122, 57.71862
446.2943, 56.74681
446.7764, 56.27809
447.2585, 56.17891
447.7406, 56.10935
448.2227, 56.19676
448.7049, 56.15770
449.1870, 55.82667
449.6691, 55.10018
450.1512, 54.72488
450.6333, 54.77461
451.1154, 55.09888
451.5976, 55.68260
452.0797, 56.76885
452.5618, 57.24811
453.0439, 56.77174
453.5260, 55.67290
454.0081, 54.89945
454.4903, 54.45800
454.9724, 54.29219
455.4545, 54.42849
455.9366, 54.83523
456.4187, 55.42355
456.9008, 56.26118
457.3830, 56.86283
457.8651, 56.26070
458.3472, 54.87226
458.8293, 54.11745
459.3114, 54.80750
459.7935, 55.98394
460.2757, 56.61184
460.7578, 56.70547
461.2399, 56.36816
461.7220, 55.17017
462.2041, 53.84136
462.6862, 53.14787
463.1684, 53.31474
463.6505, 53.59723
464.1326, 53.42014
464.6147, 53.19284
465.0968, 53.44752
465.5789, 55.53339
466.0611, 56.90873
466.5432, 56.17179
467.0253, 53.58762
467.5074, 52.21567
467.9895, 53.89827
468.4716, 55.66805
468.9538, 56.06025
469.4359, 54.24334
469.9180, 52.86003
470.4001, 51.95560
470.8822, 51.43983
471.3643, 51.21362
471.8465, 51.36428
472.3286, 51.55273
472.8107, 51.70989
473.2928, 51.83274
473.7749, 51.88409
474.2570, 51.83821
474.7392, 51.85422
475.2213, 52.21305
475.7034, 52.81404
476.1855, 52.85303
476.6676, 52.11396
477.1497, 51.25648
477.6319, 51.34746
478.1140, 52.10294
478.5961, 52.59734
479.0782, 52.34252
479.5603, 51.67050
480.0424, 50.66955
480.5246, 49.43100
481.0067, 48.72231
481.4888, 49.58852
481.9709, 50.88177
482.4530, 51.53978
482.9352, 51.11759
483.4173, 50.65390
483.8994, 50.56948
484.3815, 50.69718
484.8636, 50.78328
485.3457, 50.80479
485.8279, 50.74315
486.3100, 50.50414
486.7921, 50.09096
487.2742, 49.93315
487.7563, 50.21912
488.2384, 50.56947
488.7206, 50.78553
489.2027, 50.86334
489.6848, 50.76916
490.1669, 50.31931
490.6490, 49.89698
491.1311, 50.31011
491.6133, 51.74302
492.0954, 52.69167
492.5775, 52.54103
493.0596, 51.59095
493.5417, 50.96900
494.0238, 50.68182
494.5060, 50.39733
494.9881, 49.61887
495.4702, 48.66958
495.9523, 48.50642
496.4344, 49.42159
496.9165, 50.35022
497.3987, 49.97507
497.8808, 48.87522
498.3629, 48.15000
498.8450, 48.60368
499.3271, 49.28564
499.8092, 49.57258
500.2914, 49.53514
500.7735, 49.55748
501.2556, 49.86483
501.7377, 50.22558
502.2198, 50.55523
502.7019, 50.98346
503.1841, 51.02305
503.6662, 50.23100
504.1483, 49.17832
504.6304, 48.56608
505.1125, 48.93132
505.5946, 48.84697
506.0768, 47.81061
506.5589, 46.12425
507.0410, 45.35561
507.5231, 45.74022
508.0052, 46.37636
508.4873, 46.89415
508.9695, 47.28731
509.4516, 47.34132
509.9337, 46.98443
510.4158, 46.58185
510.8979, 46.64247
511.3800, 47.05133
511.8622, 47.24251
512.3443, 46.88221
512.8264, 46.50748
513.3085, 47.11558
513.7906, 48.40306
514.2728, 49.28093
514.7549, 48.88746
515.2370, 47.98263
515.7191, 47.07630
516.2012, 46.19323
516.6833, 45.63784
517.1655, 46.01604
517.6476, 46.52946
518.1297, 46.48478
518.6118, 44.84615
519.0939, 43.75496
519.5760, 44.05252
520.0582, 45.09706
520.5403, 45.30450
521.0224, 43.61764
521.5045, 42.60345
521.9866, 43.37333
522.4688, 45.92345
522.9509, 46.67844
523.4330, 45.03481
523.9151, 43.01444
524.3972, 42.19365
524.8793, 42.60208
525.3615, 43.05317
525.8436, 43.47181
526.3257, 43.82729
526.8078, 44.12898
527.2899, 44.34629
527.7720, 44.30359
528.2542, 43.67274
528.7363, 42.94827
529.2184, 42.87178
529.7005, 43.34587
530.1826, 43.83538
530.6647, 44.23785
531.1469, 44.37505
531.6290, 43.95321
532.1111, 42.76821
532.5932, 41.85513
533.0753, 41.84529
533.5574, 42.21481
534.0396, 42.42029
534.5217, 42.24617
535.0038, 42.04696
535.4859, 41.83780
535.9680, 41.63721
536.4501, 41.48193
536.9323, 41.26806
537.4144, 41.28334
537.8965, 41.73244
538.3786, 42.63073
538.8607, 43.21825
539.3428, 43.48673
539.8250, 43.45330
540.3071, 42.96981
540.7892, 42.10691
541.2713, 41.48870
541.7534, 41.22874
542.2355, 41.19794
542.7177, 41.39808
543.1998, 41.71119
543.6819, 41.75440
544.1640, 41.07724
544.6461, 40.24503
545.1282, 39.66756
545.6104, 39.36478
546.0925, 39.42277
546.5746, 40.31300
547.0567, 41.27757
547.5388, 41.77477
548.0209, 41.57922
548.5031, 41.41695
548.9852, 41.55315
549.4673, 41.74016
549.9494, 41.71734
550.4315, 41.41167
550.9136, 40.97863
551.3958, 40.23610
551.8779, 39.42340
552.3600, 39.39536
552.8421, 40.43303
553.3242, 41.26501
553.8063, 41.27326
554.2885, 40.57230
554.7706, 40.06035
555.2527, 39.74848
555.7348, 39.50910
556.2169, 39.03087
556.6990, 38.54663
557.1812, 38.83278
557.6633, 40.23752
558.1454, 41.54030
558.6275, 41.24200
559.1096, 40.06427
559.5917, 39.27229
560.0739, 39.89698
560.5560, 40.54661
561.0381, 40.53302
561.5202, 39.95222
562.0023, 39.25742
562.4844, 37.90844
562.9666, 37.03058
563.4487, 37.44966
563.9308, 39.65667
564.4129, 40.61753
564.8950, 39.52237
565.3771, 38.06561
565.8593, 37.77372
566.3414, 39.05619
566.8235, 39.69907
567.3056, 39.34417
567.7877, 38.48808
568.2698, 37.97746
568.7520, 37.79722
569.2341, 37.77913
569.7162, 37.99574
570.1983, 38.24177
570.6804, 38.05210
571.1625, 37.48938
571.6447, 36.98324
572.1268, 36.85917
572.6089, 36.90125
573.0910, 36.91572
573.5731, 36.87921
574.0552, 36.82508
574.5374, 36.62612
575.0195, 36.48728
575.5016, 36.59851
575.9837, 37.57712
576.4658, 38.08020
576.9479, 37.65369
577.4301, 36.75552
577.9122, 36.28132
578.3943, 36.37592
578.8764, 36.62386
579.3585, 37.06459
579.8406, 37.59424
580.3228, 37.37235
580.8049, 36.30117
581.2870, 35.11413
581.7691, 34.08636
582.2512, 33.31615
582.7333, 33.26220
583.2155, 33.99210
583.6975, 35.04144
584.1796, 36.53994
584.6617, 37.94548
585.1439, 38.27006
585.6260, 36.70881
586.1081, 34.98521
586.5902, 33.95692
587.0723, 33.52954
587.5544, 33.53056
588.0366, 34.22272
588.5187, 35.00883
589.0008, 35.97075
589.4829, 37.03522
589.9650, 37.11649
590.4471, 35.18929
590.9293, 33.61633
591.4114, 33.82357
591.8935, 36.25318
592.3756, 37.08008
592.8577, 35.85444
593.3398, 34.23945
593.8220, 34.12027
594.3041, 35.28870
594.7862, 36.10942
595.2683, 36.25139
595.7504, 36.04632
596.2325, 35.84776
596.7147, 35.64605
597.1968, 35.41941
597.6789, 35.17900
598.1610, 34.89149
598.6431, 34.43892
599.1252, 33.88658
599.6074, 33.52452
600.0895, 33.58359
600.5716, 33.74434
601.0537, 33.84685
601.5358, 33.84841
602.0179, 33.94670
602.5001, 34.20003
602.9822, 34.49507
603.4643, 34.77381
603.9464, 35.07803
604.4285, 35.21976
604.9106, 35.20296
605.3928, 34.99645
605.8749, 34.39953
606.3570, 33.45781
606.8391, 32.80914
607.3212, 32.71557
607.8033, 32.92683
608.2855, 33.09765
608.7676, 33.24868
609.2497, 33.46325
609.7318, 33.85190
610.2139, 34.27238
610.6960, 34.68153
611.1782, 35.06593
611.6603, 35.20371
612.1424, 34.75327
612.6245, 34.22532
613.1066, 33.95418
613.5887, 34.13298
614.0709, 34.15554
614.5530, 33.81371
615.0351, 33.50450
615.5172, 33.75413
615.9993, 34.78773
616.4814, 35.32324
616.9636, 35.05238
617.4457, 34.38850
617.9278, 34.25326
618.4099, 34.56359
618.8920, 34.45688
619.3741, 33.08895
619.8563, 31.45005
620.3384, 31.17323
620.8205, 32.03623
621.3026, 32.92841
621.7847, 33.31831
622.2668, 33.41528
622.7490, 33.24539
623.2311, 32.77222
623.7132, 32.55505
624.1953, 33.12308
624.6774, 33.73872
625.1595, 33.85995
625.6417, 33.03401
626.1238, 32.60454
626.6059, 32.70285
627.0880, 33.05838
627.5701, 33.37638
628.0522, 33.67472
628.5344, 33.73748
629.0165, 33.44411
629.4986, 33.00360
629.9807, 32.86248
630.4628, 32.96273
630.9449, 32.99617
631.4271, 32.59468
631.9092, 32.18670
632.3913, 32.40814
632.8734, 33.13925
633.3555, 33.61495
633.8376, 33.06548
634.3198, 32.44991
634.8019, 32.50037
635.2840, 33.53118
635.7661, 33.90599
636.2482, 32.73763
636.7303, 31.46539
637.2125, 31.10173
637.6946, 31.98886
638.1767, 32.84969
638.6588, 33.72643
639.1409, 34.41135
639.6230, 34.51242
640.1052, 34.06527
640.5873, 33.53263
641.0694, 32.91509
641.5515, 32.47777
642.0336, 32.89587
642.5157, 33.86843
642.9979, 34.52226
643.4800, 34.11738
643.9621, 33.49108
644.4442, 33.30378
644.9263, 33.46133
645.4084, 33.35727
645.8906, 32.05848
646.3727, 31.10159
646.8548, 31.50275
647.3369, 33.55588
647.8190, 34.63811
648.3011, 34.53039
648.7833, 33.76509
649.2654, 32.47289
649.7475, 30.53148
650.2296, 29.55131
650.7117, 29.76510
651.1938, 30.36342
651.6760, 30.30336
652.1581, 29.79937
652.6402, 29.53588
653.1223, 29.77342
653.6044, 30.13060
654.0865, 30.17457
654.5687, 30.10296
655.0508, 30.29420
655.5329, 31.34141
656.0150, 32.21488
656.4971, 32.47144
656.9792, 32.20214
657.4614, 31.90246
657.9435, 31.31690
658.4256, 31.10280
658.9077, 31.60890
659.3898, 32.79258
659.8719, 33.63418
660.3541, 34.13675
660.8362, 34.28281
661.3183, 33.80473
661.8004, 32.92855
662.2825, 32.65627
662.7646, 33.07926
663.2468, 33.45268
663.7289, 32.90628
664.2110, 31.99851
664.6931, 31.47717
665.1752, 31.61724
665.6573, 31.85704
666.1395, 32.12422
666.6216, 32.28816
667.1037, 32.18800
667.5858, 31.18570
668.0679, 30.75223
668.5500, 31.40469
669.0322, 32.51099
669.5143, 32.52101
669.9964, 31.13845
670.4785, 30.14684
670.9606, 30.26202
671.4427, 31.01489
671.9249, 30.95317
672.4070, 30.19827
672.8891, 29.73526
673.3712, 30.37693
673.8533, 31.49026
674.3354, 32.61625
674.8176, 33.67198
675.2997, 34.01163
675.7818, 32.54567
676.2639, 30.84063
676.7460, 29.86454
677.2281, 29.90363
677.7103, 30.05686
678.1924, 30.31820
678.6745, 30.64486
679.1566, 31.12168
679.6387, 31.92455
680.1208, 31.85318
680.6030, 30.54646
681.0851, 29.14849
681.5672, 29.30289
682.0493, 30.65908
682.5314, 31.72672
683.0135, 32.11320
683.4957, 32.15258
683.9778, 32.19670
684.4599, 32.13892
684.9420, 31.78179
685.4241, 30.49376
685.9063, 29.47958
686.3884, 29.21944
686.8705, 29.59493
687.3526, 30.18925
687.8347, 31.25017
688.3168, 32.13368
688.7990, 32.67667
689.2811, 32.90094
689.7632, 32.81573
690.2453, 32.36835
690.7274, 31.97903
691.2095, 31.96529
691.6917, 32.19461
692.1738, 32.22712
692.6559, 32.06995
693.1380, 31.99766
693.6201, 32.46116
694.1022, 32.95747
694.5844, 32.92591
695.0665, 32.20889
695.5486, 31.54837
696.0307, 31.16293
696.5128, 30.95926
696.9949, 30.85015
697.4771, 30.73614
697.9592, 30.96664
698.4413, 31.81221
698.9234, 32.65193
699.4055, 32.61805
699.8876, 31.69315
700.3698, 30.89543
700.8519, 30.40185
701.3340, 30.11045
701.8161, 29.88970
702.2982, 29.76125
702.7803, 29.78412
703.2625, 30.05579
703.7446, 30.39450
704.2267, 30.78300
704.7088, 31.14252
705.1909, 31.29467
705.6730, 31.11091
706.1552, 30.78993
706.6373, 30.23109
707.1194, 29.55314
707.6015, 29.34967
708.0836, 29.75434
708.5657, 30.23272
709.0479, 30.56425
709.5300, 30.79531
710.0121, 31.28368
710.4942, 32.00303
710.9763, 32.30771
711.4584, 31.24097
711.9406, 29.79361
712.4227, 29.37820
712.9048, 30.02947
713.3869, 30.45798
713.8690, 29.46105
714.3511, 28.45221
714.8333, 28.48483
715.3154, 30.18992
715.7975, 31.23966
716.2796, 31.46893
716.7617, 31.24394
717.2438, 30.69032
717.7260, 29.73545
718.2081, 29.37506
718.6902, 29.77000
719.1723, 30.35227
719.6544, 30.31329
720.1365, 29.94465
720.6187, 30.11051
721.1008, 31.27609
721.5829, 32.16892
722.0650, 31.23978
722.5471, 29.66123
723.0292, 28.98913
723.5114, 30.78805
723.9935, 32.16793
724.4756, 32.85240
724.9577, 32.80947
725.4398, 31.66208
725.9219, 28.64242
726.4041, 27.00904
726.8862, 27.83879
727.3683, 30.07291
727.8504, 31.28463
728.3325, 31.56354
728.8146, 31.47947
729.2968, 31.15553
729.7789, 30.70677
730.2610, 30.11176
730.7431, 29.47528
731.2252, 29.14464
731.7073, 29.66176
732.1895, 30.13687
732.6716, 30.15753
733.1537, 29.73418
733.6358, 29.28652
734.1179, 28.58007
734.6000, 28.26543
735.0822, 28.83236
735.5643, 30.13062
736.0464, 30.56741
736.5285, 30.11365
737.0106, 29.38927
737.4927, 28.52490
737.9749, 27.79853
738.4570, 27.88378
738.9391, 28.78123
739.4212, 29.51653
739.9033, 29.19018
740.3854, 28.71742
740.8676, 28.87238
741.3497, 30.04465
741.8318, 30.58052
742.3139, 29.95116
742.7960, 29.16269
743.2781, 28.91477
743.7603, 29.29780
744.2424, 29.58497
744.7245, 29.75240
745.2066, 29.85092
745.6887, 29.80941
746.1708, 29.75113
746.6530, 30.12983
747.1351, 31.15414
747.6172, 31.91013
748.0993, 31.42005
748.5814, 30.42480
749.0635, 29.75779
749.5457, 29.75981
750.0278, 29.84931
750.5099, 30.03256
750.9920, 30.21221
751.4741, 30.28584
751.9562, 30.26068
752.4384, 30.02760
752.9205, 29.45096
753.4026, 28.92011
753.8847, 29.26981
754.3668, 30.25621
754.8489, 30.87875
755.3311, 30.66382
755.8132, 30.30141
756.2953, 30.63791
756.7774, 31.20691
757.2595, 31.18370
757.7416, 29.55520
758.2238, 28.19227
758.7059, 27.34397
759.1880, 27.06766
759.6701, 27.74326
760.1522, 29.96055
760.6343, 31.14777
761.1165, 30.30252
761.5986, 28.40141
762.0807, 27.80762
762.5628, 28.36328
763.0449, 29.15678
763.5270, 30.01885
764.0092, 30.70125
764.4913, 30.92396
764.9734, 30.76982
765.4555, 30.50317
765.9376, 30.25990
766.4197, 29.87547
766.9019, 29.05917
767.3840, 28.00123
767.8661, 27.67887
768.3482, 28.34096
768.8303, 28.99272
769.3124, 29.10909
769.7946, 28.95617
770.2767, 29.80572
770.7588, 31.50260
771.2409, 32.59927
771.7230, 31.61499
772.2051, 30.03011
772.6873, 29.29108
773.1694, 29.33994
773.6515, 29.43831
774.1336, 29.37863
774.6157, 29.25974
775.0978, 29.14237
775.5800, 29.02416
776.0621, 28.69763
776.5442, 27.98657
777.0263, 27.57250
777.5084, 28.00883
777.9905, 29.07325
778.4727, 29.70754
778.9548, 29.92825
779.4369, 30.03349
779.9190, 30.32376
780.4011, 30.54331
780.8832, 30.42071
781.3654, 29.94064
781.8475, 29.34346
782.3296, 28.11242
782.8117, 27.34637
783.2938, 27.76618
783.7759, 29.54562
784.2581, 30.40659
784.7402, 30.07858
785.2223, 29.66222
785.7044, 30.20800
786.1865, 31.32181
786.6686, 31.27401
787.1508, 30.02850
787.6329, 28.72239
788.1150, 28.09733
788.5971, 27.87321
789.0792, 27.92081
789.5613, 28.27866
790.0435, 28.33450
790.5256, 27.33678
791.0077, 26.53948
791.4898, 26.70017
791.9719, 28.00969
792.4540, 28.94322
792.9362, 29.47251
793.4183, 29.67652
793.9004, 29.41645
794.3825, 28.89032
794.8646, 28.68375
795.3467, 28.83932
795.8289, 29.09086
796.3110, 29.46693
796.7931, 29.70585
797.2752, 29.52248
797.7573, 28.76365
798.2394, 28.11355
798.7216, 27.60074
799.2037, 27.26530
799.6858, 27.14430
800.1679, 27.24732
800.6500, 27.55674
801.1321, 28.11761
801.6143, 28.62957
802.0964, 28.67447
802.5785, 28.51783
803.0606, 28.82610
803.5427, 29.72054
804.0248, 30.24427
804.5070, 29.26667
804.9891, 28.08819
805.4712, 27.76840
805.9533, 28.79730
806.4354, 29.49562
806.9175, 29.74817
807.3997, 29.82317
807.8818, 29.99375
808.3639, 30.24688
808.8460, 29.89977
809.3281, 28.88232
809.8102, 27.85090
810.2924, 27.23405
810.7745, 27.04032
811.2566, 27.48417
811.7387, 28.68665
812.2208, 29.50210
812.7029, 29.14464
813.1851, 28.46457
813.6672, 28.00813
814.1493, 27.77376
814.6314, 27.85674
815.1135, 28.35046
815.5956, 28.92698
816.0778, 29.46367
816.5599, 29.88129
817.0420, 29.57975
817.5241, 28.50788
818.0062, 27.68188
818.4883, 28.37299
818.9705, 29.39462
819.4526, 29.41888
819.9347, 28.09284
820.4168, 27.27678
820.8989, 27.70377
821.3810, 28.43662
821.8632, 29.16012
822.3453, 29.95181
822.8274, 29.70923
823.3095, 28.22946
823.7916, 26.98378
824.2737, 27.71870
824.7559, 29.36843
825.2380, 29.50414
825.7201, 28.03559
826.2022, 26.86121
826.6843, 27.42833
827.1664, 28.45560
827.6486, 29.16888
828.1307, 29.49048
828.6128, 29.43345
829.0949, 28.73082
829.5770, 28.11472
830.0591, 28.01186
830.5413, 28.38103
831.0234, 28.83243
831.5055, 29.36239
831.9876, 29.71072
832.4697, 29.52015
832.9518, 29.16197
833.4340, 29.14787
833.9161, 29.46116
834.3982, 29.45967
834.8803, 28.40233
835.3624, 27.49735
835.8445, 27.31087
836.3267, 27.80990
836.8088, 28.28373
837.2909, 28.76889
837.7730, 29.04317
838.2551, 28.81616
838.7372, 28.34015
839.2194, 28.26169
839.7015, 28.53733
840.1836, 28.91519
840.6657, 29.57343
841.1478, 29.99954
841.6299, 29.68423
842.1121, 28.72541
842.5942, 28.11215
843.0763, 28.01979
843.5584, 28.05411
844.0405, 28.11407
844.5226, 28.19950
845.0048, 28.28501
845.4869, 28.37683
845.9690, 28.58101
846.4511, 29.21276
846.9332, 29.75999
847.4153, 29.40963
847.8975, 28.49824
848.3796, 27.97753
848.8617, 28.62042
849.3438, 29.19073
849.8259, 29.23346
850.3080, 28.98693
850.7902, 29.15866
851.2723, 29.87659
851.7544, 30.20761
852.2365, 29.79340
852.7186, 28.99966
853.2007, 28.27603
853.6829, 27.70219
854.1650, 27.49155
854.6471, 27.90839
855.1292, 28.46897
855.6113, 29.25952
856.0934, 29.95829
856.5756, 29.92467
857.0577, 28.52989
857.5398, 27.70643
858.0219, 27.77773
858.5040, 28.30856
858.9861, 28.73439
859.4683, 29.02991
859.9504, 28.98151
860.4325, 28.43529
860.9146, 27.88107
861.3967, 27.89597
861.8788, 28.11394
862.3610, 28.06391
862.8431, 27.34047
863.3252, 26.88427
863.8073, 26.85083
864.2894, 27.02197
864.7715, 27.18450
865.2537, 27.33193
865.7358, 27.73199
866.2179, 28.48895
866.7000, 28.95124
867.1821, 28.01652
867.6642, 26.55503
868.1464, 25.83394
868.6285, 26.08579
869.1106, 26.74291
869.5927, 28.26276
870.0748, 29.54926
870.5569, 29.76205
871.0391, 28.65728
871.5212, 28.25515
872.0033, 28.73174
872.4854, 29.21453
872.9675, 28.85088
873.4496, 28.04424
873.9318, 27.83390
874.4139, 28.20571
874.8960, 28.57868
875.3781, 28.74603
875.8602, 28.68946
876.3423, 28.17947
876.8245, 27.24537
877.3066, 27.03996
877.7887, 27.88753
878.2708, 28.74905
878.7529, 29.30984
879.2350, 29.52726
879.7172, 28.93426
880.1993, 27.71099
880.6814, 26.97061
881.1635, 27.80277
881.6456, 28.90808
882.1277, 29.40587
882.6099, 29.39791
883.0920, 29.20134
883.5741, 28.44284
884.0562, 28.14849
884.5383, 28.69544
885.0204, 29.61341
885.5026, 29.80297
885.9847, 29.31435
886.4668, 28.94328
886.9489, 29.01913
887.4310, 29.06017
887.9131, 28.30404
888.3953, 27.23784
888.8774, 26.59124
889.3595, 26.73335
889.8416, 27.07887
890.3237, 27.73458
890.8058, 28.39096
891.2880, 28.70266
891.7701, 28.63888
892.2522, 28.62092
892.7343, 28.69951
893.2164, 28.73181
893.6985, 28.43208
894.1807, 28.04874
894.6628, 28.05213
895.1449, 28.61071
895.6270, 28.82019
896.1091, 27.73536
896.5912, 26.75148
897.0734, 26.79881
897.5555, 27.99801
898.0376, 28.74228
898.5197, 29.00609
899.0018, 28.93998
899.4839, 28.31484
899.9661, 27.56424
900.4482, 27.62580
900.9303, 28.39803
901.4124, 29.12307
901.8945, 29.43665
902.3766, 29.61527
902.8588, 29.84867
903.3409, 30.07319
903.8230, 29.91734
904.3051, 29.25223
904.7872, 28.70602
905.2693, 28.49271
905.7515, 28.50346
906.2336, 28.54615
906.7157, 28.62552
907.1978, 28.75634
907.6799, 28.96210
908.1620, 29.19761
908.6442, 29.52504
909.1263, 29.84161
909.6084, 29.98009
910.0905, 29.88445
910.5726, 29.76944
911.0547, 29.67317
911.5369, 29.51474
912.0190, 28.94709
912.5011, 28.24062
912.9832, 28.37726
913.4653, 29.70408
913.9474, 30.65268
914.4296, 29.68757
914.9117, 28.27508
915.3938, 27.72559
915.8759, 28.38224
916.3580, 28.77081
916.8401, 28.84575
917.3223, 28.76377
917.8044, 28.49203
918.2865, 28.15191
918.7686, 28.27500
919.2507, 28.81719
919.7328, 29.33753
920.2150, 29.55506
920.6971, 29.66909
921.1792, 29.85060
921.6613, 30.06423
922.1434, 30.01815
922.6255, 29.55416
923.1077, 29.20291
923.5898, 29.15752
924.0719, 29.27419
924.5540, 29.16509
925.0361, 28.90497
925.5182, 28.81890
926.0004, 29.18343
926.4825, 29.49516
926.9646, 29.34770
927.4467, 28.97907
927.9288, 28.75091
928.4109, 28.74064
928.8931, 28.72880
929.3752, 28.62335
929.8573, 28.68353
930.3394, 29.54904
930.8215, 30.84786
931.3036, 31.10358
931.7858, 30.08304
932.2679, 28.99158
932.7500, 28.47254
933.2321, 28.36138
933.7142, 28.60880
934.1964, 29.26685
934.6785, 29.79782
935.1606, 30.19663
935.6427, 30.47497
936.1248, 30.66668
936.6069, 30.73130
937.0891, 30.54687
937.5712, 30.11047
938.0533, 29.41210
938.5354, 27.80735
939.0175, 26.57826
939.4996, 26.74876
939.9818, 27.87348
940.4639, 28.60880
940.9460, 28.68867
941.4281, 28.98887
941.9102, 29.77881
942.3923, 30.62076
942.8745, 30.71491
943.3566, 30.27693
943.8387, 29.94778
944.3208, 29.93978
944.8029, 29.85044
945.2850, 29.21218
945.7672, 28.53680
946.2493, 28.34646
946.7314, 28.79153
947.2135, 29.14971
947.6956, 29.44401
948.1777, 29.57386
948.6599, 29.39582
949.1420, 29.00873
949.6241, 28.52112
950.1062, 27.98839
950.5883, 27.78364
951.0704, 28.41598
951.5526, 29.12586
952.0347, 29.67575
952.5168, 29.99269
952.9989, 29.64056
953.4810, 28.39173
953.9631, 27.58061
954.4453, 27.69053
954.9274, 28.24540
955.4095, 28.64686
955.8916, 28.86072
956.3737, 28.77985
956.8558, 28.07254
957.3380, 27.63301
957.8201, 28.05011
958.3022, 28.68341
958.7843, 28.88391
959.2664, 28.50806
959.7485, 28.62309
960.2307, 29.33785
960.7128, 29.96179
961.1949, 29.54163
961.6770, 28.82267
962.1591, 29.20360
962.6412, 30.66294
963.1234, 31.24932
963.6055, 28.84500
964.0876, 27.09211
964.5697, 27.63833
965.0518, 29.80210
965.5339, 30.47584
966.0161, 29.65941
966.4982, 28.75325
966.9803, 28.10596
967.4624, 27.91304
967.9445, 28.94103
968.4266, 30.44073
968.9088, 31.15451
969.3909, 29.92410
969.8730, 29.04934
970.3551, 28.70116
970.8372, 28.71477
971.3193, 29.04853
971.8015, 29.64463
972.2836, 29.97513
972.7657, 29.99587
973.2478, 29.82653
973.7299, 29.42921
974.2120, 28.97988
974.6942, 28.56575
975.1763, 28.20265
975.6584, 28.10522
976.1405, 28.31820
976.6226, 28.71690
977.1047, 29.33830
977.5869, 30.04704
978.0690, 30.63540
978.5511, 30.99752
979.0332, 30.71061
979.5153, 28.97204
979.9974, 27.46137
980.4796, 27.15103
980.9617, 27.58976
981.4438, 28.18561
981.9259, 29.17185
982.4080, 29.42416
982.8901, 28.70778
983.3723, 27.96148
983.8544, 28.29824
984.3365, 29.21531
984.8186, 29.86459
985.3007, 30.16536
985.7828, 30.08102
986.2650, 29.11411
986.7471, 28.26291
987.2292, 27.93289
987.7113, 28.07616
988.1934, 28.64946
988.6755, 29.69487
989.1577, 30.11104
989.6398, 29.20481
990.1219, 27.92394
990.6040, 27.31559
991.0861, 27.15781
991.5682, 27.07236
992.0504, 26.73788
992.5325, 26.86195
993.0146, 27.81608
993.4967, 28.79833
993.9788, 29.00186
994.4609, 28.51656
994.9431, 28.02073
995.4252, 27.55199
995.9073, 27.39790
996.3894, 28.21962
996.8715, 29.05450
997.3536, 29.02619
997.8358, 28.19113
998.3179, 27.84666
998.8000, 28.19563
999.2821, 28.56450
999.7642, 28.74036
1000.246, 28.85459
1000.728, 29.38549
1001.211, 30.05691
1001.693, 30.05303
1002.175, 28.67607
1002.657, 27.58826
1003.139, 27.82566
1003.621, 28.46906
1004.103, 28.62934
1004.585, 28.14439
1005.068, 28.22842
1005.550, 28.95110
1006.032, 29.56689
1006.514, 29.26595
1006.996, 28.69491
1007.478, 28.71564
1007.960, 29.24994
1008.442, 29.67395
1008.924, 29.60194
1009.407, 29.71347
1009.889, 30.30745
1010.371, 31.00931
1010.853, 30.95694
1011.335, 30.25698
1011.817, 29.57803
1012.299, 29.02721
1012.781, 28.71466
1013.263, 28.97567
1013.746, 29.35203
1014.228, 29.34136
1014.710, 28.79150
1015.192, 28.52942
1015.674, 28.59842
1016.156, 28.82792
1016.638, 29.30576
1017.120, 29.78243
1017.603, 29.50344
1018.085, 28.70513
1018.567, 28.23172
1019.049, 29.10319
1019.531, 29.55126
1020.013, 28.61096
1020.495, 27.25415
1020.977, 26.97753
1021.459, 27.80988
1021.942, 28.51744
1022.424, 28.96932
1022.906, 29.10044
1023.388, 28.64593
1023.870, 27.98331
1024.352, 27.50136
1024.834, 27.25932
1025.316, 26.88786
1025.799, 26.05167
1026.281, 25.76205
1026.763, 26.69244
1027.245, 28.21238
1027.727, 28.58737
1028.209, 28.13690
1028.691, 27.93503
1029.173, 28.57615
1029.656, 29.27083
1030.138, 29.87309
1030.620, 30.19103
1031.102, 29.95500
1031.584, 28.99077
1032.066, 28.47609
1032.548, 28.45989
1033.030, 28.62258
1033.512, 28.77765
1033.995, 28.91142
1034.477, 29.04241
1034.959, 29.14933
1035.441, 29.10441
1035.923, 28.78742
1036.405, 28.44426
1036.887, 28.09810
1037.369, 27.77809
1037.851, 27.41945
1038.334, 27.11993
1038.816, 27.35909
1039.298, 28.42087
1039.780, 29.21345
1040.262, 28.66864
1040.744, 27.89261
1041.226, 27.80860
1041.708, 28.47054
1042.191, 29.12313
1042.673, 29.84237
1043.155, 29.95775
1043.637, 28.48007
1044.119, 26.73969
1044.601, 26.81897
1045.083, 28.05753
1045.565, 28.93892
1046.047, 28.68440
1046.530, 28.53031
1047.012, 28.64405
1047.494, 28.79954
1047.976, 28.75424
1048.458, 28.52917
1048.940, 28.14006
1049.422, 27.59862
1049.904, 27.28106
1050.386, 27.34118
1050.869, 27.77206
1051.351, 28.97649
1051.833, 30.59255
1052.315, 31.07411
1052.797, 30.27823
1053.279, 29.36880
1053.761, 28.55476
1054.243, 28.00100
1054.726, 28.22902
1055.208, 28.71065
1055.690, 28.60595
1056.172, 27.37278
1056.654, 26.84051
1057.136, 27.57285
1057.618, 28.21885
1058.100, 27.70411
1058.583, 26.49930
1059.065, 26.60824
1059.547, 27.78742
1060.029, 28.91760
1060.511, 29.54565
1060.993, 29.83712
1061.475, 29.75064
1061.957, 29.40617
1062.439, 28.84062
1062.922, 27.96189
1063.404, 27.82560
1063.886, 28.58911
1064.368, 29.37551
1064.850, 29.34773
1065.332, 28.99867
1065.814, 28.77936
1066.296, 28.71947
1066.778, 28.69985
1067.261, 28.69588
1067.743, 28.77905
1068.225, 29.05327
1068.707, 29.27886
1069.189, 28.74072
1069.671, 27.84087
1070.153, 27.60398
1070.635, 28.47002
1071.118, 29.28837
1071.600, 29.61212
1072.082, 29.71608
1072.564, 29.78176
1073.046, 29.78578
1073.528, 29.21544
1074.010, 28.14083
1074.492, 27.51335
1074.974, 28.31263
1075.457, 29.21474
1075.939, 29.07803
1076.421, 28.43487
1076.903, 28.21690
1077.385, 28.65621
1077.867, 28.94675
1078.349, 29.04123
1078.831, 29.03296
1079.313, 29.10855
1079.796, 29.08134
1080.278, 28.49535
1080.760, 27.44493
1081.242, 26.72079
1081.724, 26.45890
1082.206, 26.81582
1082.688, 28.18829
1083.170, 29.74653
1083.652, 29.72517
1084.135, 28.53722
1084.617, 27.75057
1085.099, 27.69275
1085.581, 27.78858
1086.063, 27.55882
1086.545, 27.52753
1087.027, 28.20602
1087.509, 29.45826
1087.992, 29.85009
1088.474, 29.37399
1088.956, 28.65452
1089.438, 27.70862
1089.920, 27.03610
1090.402, 27.21062
1090.884, 27.91725
1091.366, 28.82104
1091.849, 30.34723
1092.331, 30.60278
1092.813, 29.20862
1093.295, 27.82765
1093.777, 27.87967
1094.259, 28.67743
1094.741, 28.93882
1095.223, 28.79710
1095.705, 28.77430
1096.188, 29.39610
1096.670, 29.67017
1097.152, 29.34201
1097.634, 28.74632
1098.116, 28.25942
1098.598, 27.87365
1099.080, 27.52967
1099.562, 27.22252
1100.044, 27.11308
1100.527, 27.63700
1101.009, 28.04108
1101.491, 27.74239
1101.973, 27.03456
1102.455, 26.83848
1102.937, 27.15540
1103.419, 27.76730
1103.901, 28.77556
1104.384, 29.42261
1104.866, 28.33111
1105.348, 26.91789
1105.830, 26.72774
1106.312, 28.09325
1106.794, 29.14917
1107.276, 29.94499
1107.758, 30.19850
1108.240, 29.53465
1108.723, 28.56766
1109.205, 28.20466
1109.687, 28.27594
1110.169, 28.45470
1110.651, 28.70740
1111.133, 28.97393
1111.615, 29.29379
1112.097, 29.55120
1112.579, 29.72399
1113.062, 29.75632
1113.544, 29.25397
1114.026, 28.36273
1114.508, 27.81115
1114.990, 28.06632
1115.472, 28.60635
1115.954, 29.63393
1116.436, 30.54029
1116.919, 30.31597
1117.401, 29.07037
1117.883, 28.43188
1118.365, 28.54345
1118.847, 28.73125
1119.329, 28.49645
1119.811, 28.19178
1120.293, 28.00603
1120.776, 27.94744
1121.258, 28.09553
1121.740, 28.50134
1122.222, 28.53322
1122.704, 27.96013
1123.186, 27.41468
1123.668, 27.86094
1124.150, 28.46948
1124.632, 28.19267
1125.115, 26.79135
1125.597, 26.10743
1126.079, 26.25082
1126.561, 26.88439
1127.043, 28.18443
1127.525, 29.42330
1128.007, 28.92468
1128.489, 27.66890
1128.971, 27.48348
1129.454, 29.60456
1129.936, 30.52276
1130.418, 29.31575
1130.900, 28.07485
1131.382, 28.25522
1131.864, 29.28479
1132.346, 29.42524
1132.828, 28.88064
1133.311, 28.32424
1133.793, 27.85863
1134.275, 27.68273
1134.757, 27.98593
1135.239, 28.41235
1135.721, 28.65523
1136.203, 28.72417
1136.685, 28.74788
1137.167, 28.71729
1137.650, 28.50994
1138.132, 27.84286
1138.614, 27.21174
1139.096, 26.79523
1139.578, 26.60045
1140.060, 26.74327
1140.542, 27.23649
1141.024, 27.37921
1141.506, 27.06530
1141.989, 27.04276
1142.471, 28.49784
1142.953, 29.95778
1143.435, 30.09391
1143.917, 29.18328
1144.399, 28.88583
1144.881, 29.33452
1145.363, 29.48670
1145.846, 29.07496
1146.328, 28.47628
1146.810, 27.93540
1147.292, 27.54206
1147.774, 27.37687
1148.256, 27.46842
1148.738, 27.88266
1149.220, 28.79114
1149.703, 29.37366
1150.185, 29.25936
1150.667, 28.84777
1151.149, 28.68266
1151.631, 28.64355
1152.113, 28.51263
1152.595, 28.16217
1153.077, 28.05954
1153.559, 28.35877
1154.042, 28.58765
1154.524, 28.38627
1155.006, 28.04414
1155.488, 28.34747
1155.970, 29.02422
1156.452, 29.39750
1156.934, 29.05704
1157.416, 28.74196
1157.898, 28.52185
1158.381, 28.39161
1158.863, 28.55840
1159.345, 28.80264
1159.827, 27.75152
1160.309, 25.86312
1160.791, 25.01749
1161.273, 27.52008
1161.755, 29.23269
1162.238, 28.63546
1162.720, 27.39990
1163.202, 27.40518
1163.684, 28.40472
1164.166, 28.77941
1164.648, 28.50318
1165.130, 28.05151
1165.612, 27.19390
1166.094, 26.81705
1166.577, 27.67182
1167.059, 28.97095
1167.541, 29.59612
1168.023, 29.56165
1168.505, 28.72901
1168.987, 27.07546
1169.469, 25.83118
1169.951, 26.22670
1170.433, 26.92482
1170.916, 27.16037
1171.398, 27.07459
1171.880, 26.97536
1172.362, 26.86436
1172.844, 26.96743
1173.326, 27.33960
1173.808, 27.82009
1174.290, 28.50315
1174.773, 29.04554
1175.255, 29.08727
1175.737, 28.72549
1176.219, 28.39670
1176.701, 28.09690
1177.183, 27.86890
1177.665, 27.73164
1178.147, 27.63477
1178.630, 27.62973
1179.112, 27.57183
1179.594, 27.12299
1180.076, 26.28234
1180.558, 26.61196
1181.040, 28.31433
1181.522, 29.12785
1182.004, 27.75042
1182.486, 26.08498
1182.969, 26.26628
1183.451, 27.30195
1183.933, 28.04688
1184.415, 28.36872
1184.897, 28.43355
1185.379, 28.20385
1185.861, 27.94349
1186.343, 27.70152
1186.825, 27.61419
1187.308, 28.00827
1187.790, 28.60627
1188.272, 28.96892
1188.754, 29.01602
1189.236, 28.85580
1189.718, 28.44929
1190.200, 28.04403
1190.682, 27.72183
1191.165, 27.55658
1191.647, 27.86660
1192.129, 28.35678
1192.611, 28.37931
1193.093, 27.24014
1193.575, 27.05146
1194.057, 28.03635
1194.539, 29.17982
1195.021, 29.97601
1195.504, 30.26206
1195.986, 29.27011
1196.468, 27.58729
1196.950, 27.00281
1197.432, 28.62251
1197.914, 29.45345
1198.396, 29.18673
1198.878, 28.58786
1199.360, 28.17355
1199.843, 28.01364
1200.325, 28.32490
1200.807, 29.00608
1201.289, 29.68100
1201.771, 30.68191
1202.253, 30.61110
1202.735, 28.97872
1203.217, 27.33946
1203.700, 27.78368
1204.182, 29.10085
1204.664, 29.58650
1205.146, 29.22809
1205.628, 28.76280
1206.110, 28.14187
1206.592, 27.81593
1207.074, 27.89183
1207.557, 28.16977
1208.039, 28.47406
1208.521, 28.77578
1209.003, 29.02429
1209.485, 29.22051
1209.967, 29.48037
1210.449, 30.10724
1210.931, 30.05048
1211.413, 28.89635
1211.896, 27.49951
1212.378, 26.84208
1212.860, 26.75368
1213.342, 27.15994
1213.824, 28.04698
1214.306, 28.60340
1214.788, 28.59121
1215.270, 28.73159
1215.752, 29.29902
1216.235, 29.88368
1216.717, 29.91699
1217.199, 29.58081
1217.681, 29.01513
1218.163, 28.20057
1218.645, 27.87544
1219.127, 28.15947
1219.609, 28.68344
1220.092, 29.42352
1220.574, 30.14866
1221.056, 30.75538
1221.538, 31.01102
1222.020, 30.33713
1222.502, 28.43927
1222.984, 27.61563
1223.466, 28.34280
1223.948, 28.76823
1224.431, 28.01730
1224.913, 27.04665
1225.395, 27.30770
1225.877, 28.21319
1226.359, 29.01821
1226.841, 29.62342
1227.323, 29.90811
1227.805, 29.88080
1228.287, 29.45037
1228.770, 28.36887
1229.252, 27.25187
1229.734, 27.07370
1230.216, 27.33429
1230.698, 27.28357
1231.180, 27.44320
1231.662, 27.92813
1232.144, 27.84097
1232.627, 28.78546
1233.109, 29.13885
1233.591, 29.13256
1234.073, 28.68326
1234.555, 28.23497
1235.037, 28.54588
1235.519, 29.91339
1236.001, 30.41501
1236.484, 29.95944
1236.966, 29.42440
1237.448, 29.25777
1237.930, 29.19301
1238.412, 28.83631
1238.894, 28.47775
1239.376, 28.57151
1239.858, 29.19525
1240.340, 29.78356
1240.823, 30.34548
1241.305, 30.43449
1241.787, 29.50311
1242.269, 28.43768
1242.751, 27.74268
1243.233, 27.52663
1243.715, 28.08223
1244.197, 29.55755
1244.679, 29.94179
1245.162, 29.25834
1245.644, 28.49543
1246.126, 27.97276
1246.608, 27.82393
1247.090, 28.45788
1247.572, 29.30898
1248.054, 29.80369
1248.536, 29.95783
1249.019, 29.21006
1249.501, 27.68837
1249.983, 26.76419
1250.465, 27.79815
1250.947, 28.87610
1251.429, 28.90587
1251.911, 28.59600
1252.393, 28.70333
1252.875, 29.17256
1253.358, 28.61348
1253.840, 27.23731
1254.322, 26.44020
1254.804, 27.49304
1255.286, 28.55289
1255.768, 29.05240
1256.250, 29.24057
1256.732, 29.15708
1257.214, 28.89893
1257.697, 29.15023
1258.179, 29.80900
1258.661, 30.38720
1259.143, 30.94724
1259.625, 30.95018
1260.107, 30.07105
1260.589, 29.04513
1261.071, 28.36885
1261.554, 28.06813
1262.036, 28.45133
1262.518, 29.30342
1263.000, 29.90987
1263.482, 29.87754
1263.964, 29.74985
1264.446, 29.56346
1264.928, 29.33247
1265.411, 28.87003
1265.893, 28.47937
1266.375, 29.01332
1266.857, 30.09717
1267.339, 30.70231
1267.821, 30.17503
1268.303, 29.82595
1268.785, 29.66120
1269.267, 29.76207
1269.750, 30.61423
1270.232, 31.44426
1270.714, 31.02499
1271.196, 29.83316
1271.678, 28.97949
1272.160, 28.54281
1272.642, 28.56380
1273.124, 29.10057
1273.606, 29.60691
1274.089, 29.82016
1274.571, 29.70155
1275.053, 28.95807
1275.535, 27.95571
1276.017, 27.30996
1276.499, 27.06080
1276.981, 27.00400
1277.463, 27.13434
1277.946, 27.42382
1278.428, 28.03804
1278.910, 28.59914
1279.392, 28.85021
1279.874, 28.92072
1280.356, 28.95187
1280.838, 28.94426
1281.320, 28.91396
1281.802, 28.86817
1282.285, 28.86070
1282.767, 28.77313
1283.249, 28.93842
1283.731, 29.83067
1284.213, 30.63564
1284.695, 30.47732
1285.177, 29.60079
1285.659, 29.17321
1286.141, 29.11670
1286.624, 29.08093
1287.106, 28.82370
1287.588, 28.72371
1288.070, 28.84069
1288.552, 29.07609
1289.034, 29.49450
1289.516, 29.90522
1289.998, 29.67214
1290.481, 30.00304
1290.963, 30.13080
1291.445, 29.91930
1291.927, 30.25141
1292.409, 29.70889
1292.891, 29.24999
1293.373, 29.81164
1293.855, 30.64377
1294.338, 30.81799
1294.820, 30.55404
1295.302, 30.23246
1295.784, 29.84276
1296.266, 29.59467
1296.748, 29.48832
1297.230, 29.52231
1297.712, 29.75137
1298.194, 30.05580
1298.677, 30.63591
1299.159, 31.01677
1299.641, 30.48173
1300.123, 28.98275
1300.605, 28.74322
1301.087, 29.61533
1301.569, 30.25994
1302.051, 29.68415
1302.533, 29.23636
1303.016, 29.35978
##END=



