##NAMES=Linarite
##RRUFFID=R060130
##IDEAL CHEMISTRY=Pb^2+^Cu^2+^S^6+^O_4_(OH)_2_
##LOCALITY=Graham County, Arizona, USA
##OWNER=RRUFF
##SOURCE=University of Arizona Mineral Museum
##DESCRIPTION=Azure-blue fragments in quartz
##STATUS=The identification of this mineral has been confirmed by X-ray diffraction and chemical analysis
##URL=rruff.info/R060130
##MEASURED CHEMISTRY=Pb_1.00_Cu_1.00_(S_1.00_O_4_)(OH)_2_
89.78156, 0.0000000E+00
90.26367, 5.895354
90.74579, 5.765800
91.22791, 5.797376
91.71002, 5.976885
92.19214, 6.191813
92.67426, 6.433281
93.15638, 6.650089
93.63850, 6.692469
94.12061, 6.398368
94.60273, 5.927000
95.08485, 5.644969
95.56696, 5.564690
96.04908, 5.606920
96.53120, 5.732689
97.01331, 5.933801
97.49543, 6.088584
97.97755, 6.135564
98.45966, 6.078826
98.94178, 5.990469
99.42390, 5.853426
99.90602, 5.710555
100.3881, 5.659422
100.8703, 5.729579
101.3524, 5.785403
101.8345, 5.726904
102.3166, 5.499982
102.7987, 5.411725
103.2808, 5.561984
103.7630, 5.864172
104.2451, 5.904221
104.7272, 5.513336
105.2093, 5.083827
105.6914, 4.877698
106.1735, 5.039290
106.6557, 5.181441
107.1378, 5.261602
107.6199, 5.279358
108.1020, 5.262461
108.5841, 5.047629
109.0662, 4.884362
109.5484, 4.993293
110.0305, 5.610364
110.5126, 6.266049
110.9947, 6.923139
111.4768, 7.624178
111.9590, 8.150734
112.4411, 8.291221
112.9232, 8.295817
113.4053, 8.482036
113.8874, 9.064074
114.3695, 9.710142
114.8517, 10.29429
115.3338, 10.78323
115.8159, 11.25418
116.2980, 11.64598
116.7801, 12.03649
117.2622, 12.58875
117.7444, 13.36487
118.2265, 14.32612
118.7086, 15.45722
119.1907, 16.84110
119.6728, 18.28374
120.1549, 19.58413
120.6371, 20.81727
121.1192, 22.29382
121.6013, 24.16315
122.0834, 26.36669
122.5655, 28.83980
123.0476, 31.63988
123.5298, 34.63456
124.0119, 37.66535
124.4940, 40.74444
124.9761, 44.05817
125.4582, 47.89880
125.9404, 52.05595
126.4225, 56.08773
126.9046, 60.32819
127.3867, 64.18417
127.8688, 66.62888
128.3509, 67.61271
128.8331, 67.66724
129.3152, 67.18912
129.7973, 66.20669
130.2794, 64.88647
130.7615, 63.00367
131.2436, 60.79724
131.7258, 59.10164
132.2079, 57.96187
132.6900, 57.29266
133.1721, 57.06116
133.6542, 57.27327
134.1364, 57.63744
134.6185, 57.90304
135.1006, 58.09285
135.5827, 58.74872
136.0648, 59.95972
136.5469, 61.60408
137.0291, 63.48920
137.5112, 65.67376
137.9933, 67.80495
138.4754, 69.65179
138.9575, 71.15002
139.4396, 72.65344
139.9218, 74.15278
140.4039, 75.67984
140.8860, 77.37073
141.3681, 79.22695
141.8502, 81.22788
142.3323, 83.26229
142.8145, 85.22227
143.2966, 87.58151
143.7787, 90.53395
144.2608, 94.09020
144.7429, 97.25682
145.2250, 99.69182
145.7072, 102.0825
146.1893, 105.1332
146.6714, 109.3762
147.1535, 113.4714
147.6356, 117.0394
148.1178, 119.9342
148.5999, 123.1945
149.0820, 126.6754
149.5641, 130.5741
150.0462, 135.0982
150.5283, 140.8605
151.0105, 146.5791
151.4926, 150.5240
151.9747, 153.5645
152.4568, 156.8754
152.9389, 160.6732
153.4210, 164.6807
153.9032, 168.5804
154.3853, 172.3508
154.8674, 175.9403
155.3495, 179.2964
155.8316, 182.3757
156.3137, 185.4224
156.7959, 188.7737
157.2780, 192.1079
157.7601, 194.8010
158.2422, 196.5969
158.7243, 197.8560
159.2065, 198.8032
159.6886, 199.6511
160.1707, 199.8902
160.6528, 199.4083
161.1349, 198.2239
161.6170, 196.3723
162.0992, 193.8347
162.5813, 190.6687
163.0634, 186.9019
163.5455, 182.4449
164.0276, 177.5334
164.5097, 172.1411
164.9919, 166.3416
165.4740, 160.4177
165.9561, 154.2649
166.4382, 148.1720
166.9203, 142.3204
167.4024, 136.7085
167.8846, 131.4065
168.3667, 126.4666
168.8488, 121.8557
169.3309, 117.3755
169.8130, 112.8311
170.2952, 108.3454
170.7773, 104.1300
171.2594, 100.1765
171.7415, 96.52732
172.2236, 93.15046
172.7057, 90.04597
173.1879, 87.26972
173.6700, 85.00229
174.1521, 83.07295
174.6342, 81.18459
175.1163, 79.16683
175.5984, 77.13431
176.0806, 75.21311
176.5627, 73.39204
177.0448, 71.73495
177.5269, 70.40173
178.0090, 69.29075
178.4911, 68.12196
178.9733, 66.69858
179.4554, 65.18574
179.9375, 63.77266
180.4196, 62.46277
180.9017, 61.36578
181.3838, 60.77698
181.8660, 60.55885
182.3481, 60.19673
182.8302, 59.28872
183.3123, 58.08946
183.7944, 57.23968
184.2766, 56.79793
184.7587, 56.44223
185.2408, 55.66425
185.7229, 54.55452
186.2050, 53.62080
186.6871, 53.20631
187.1693, 53.18541
187.6514, 53.14007
188.1335, 53.05650
188.6156, 52.93144
189.0977, 52.76052
189.5798, 52.54336
190.0620, 52.27496
190.5441, 51.95100
191.0262, 51.56966
191.5083, 51.08815
191.9904, 50.44221
192.4725, 49.81714
192.9547, 49.61737
193.4368, 49.85633
193.9189, 50.03138
194.4010, 49.80079
194.8831, 49.19594
195.3652, 48.69289
195.8474, 48.31243
196.3295, 48.06311
196.8116, 48.04371
197.2937, 48.28864
197.7758, 48.44425
198.2579, 48.26056
198.7401, 47.72981
199.2222, 47.23339
199.7043, 46.81939
200.1864, 46.43828
200.6685, 45.94751
201.1507, 45.31953
201.6328, 44.72112
202.1149, 44.32573
202.5970, 44.17787
203.0791, 43.72601
203.5612, 42.80378
204.0434, 41.64837
204.5255, 40.93367
205.0076, 40.73240
205.4897, 40.71904
205.9718, 40.66730
206.4539, 40.52911
206.9361, 40.67101
207.4182, 41.23052
207.9003, 42.04251
208.3824, 42.55207
208.8645, 42.64624
209.3466, 42.73710
209.8288, 43.09219
210.3109, 43.76777
210.7930, 44.46260
211.2751, 45.15601
211.7572, 45.84664
212.2393, 46.56855
212.7215, 47.34229
213.2036, 48.08573
213.6857, 48.75292
214.1678, 49.35263
214.6499, 49.82640
215.1320, 50.07222
215.6142, 50.19892
216.0963, 50.68690
216.5784, 51.61686
217.0605, 52.74360
217.5426, 53.95118
218.0247, 55.28991
218.5069, 56.52240
218.9890, 57.61153
219.4711, 58.57688
219.9532, 59.50828
220.4353, 60.35028
220.9175, 61.26263
221.3996, 62.40416
221.8817, 63.92776
222.3638, 65.23746
222.8459, 66.15378
223.3280, 66.80387
223.8102, 67.78892
224.2923, 69.32063
224.7744, 70.88673
225.2565, 72.15340
225.7386, 73.02914
226.2207, 73.83028
226.7029, 74.63428
227.1850, 75.39220
227.6671, 75.83794
228.1492, 76.04361
228.6313, 75.83728
229.1134, 75.07557
229.5956, 73.53554
230.0777, 71.92311
230.5598, 70.25671
231.0419, 68.54955
231.5240, 66.84319
232.0062, 65.20797
232.4883, 63.48024
232.9704, 61.51879
233.4525, 59.11094
233.9346, 56.95794
234.4167, 55.21236
234.8989, 53.78196
235.3810, 52.22042
235.8631, 50.33899
236.3452, 48.54720
236.8273, 47.09509
237.3094, 46.22129
237.7916, 45.15932
238.2737, 43.73608
238.7558, 42.07990
239.2379, 40.71127
239.7200, 39.72175
240.2021, 38.89378
240.6843, 38.11717
241.1664, 37.42827
241.6485, 36.70921
242.1306, 35.93813
242.6127, 35.13069
243.0948, 34.36490
243.5770, 33.60464
244.0591, 32.93451
244.5412, 32.42138
245.0233, 32.15733
245.5054, 31.83628
245.9876, 31.42417
246.4697, 30.95374
246.9518, 30.51749
247.4339, 30.13880
247.9160, 29.75737
248.3981, 29.33536
248.8803, 28.80795
249.3624, 28.39717
249.8445, 28.17470
250.3266, 28.05299
250.8087, 27.77523
251.2908, 27.23933
251.7730, 26.71457
252.2551, 26.34583
252.7372, 26.23562
253.2193, 25.99157
253.7014, 25.50961
254.1835, 24.94123
254.6657, 24.68138
255.1478, 24.95249
255.6299, 25.13994
256.1120, 24.93712
256.5941, 24.14297
257.0763, 23.61818
257.5584, 23.45126
258.0405, 23.49261
258.5226, 23.44480
259.0047, 23.26471
259.4868, 23.08513
259.9690, 22.97769
260.4511, 22.98503
260.9332, 22.84604
261.4153, 22.45917
261.8974, 22.01295
262.3795, 21.86829
262.8617, 22.17142
263.3438, 22.42050
263.8259, 22.43531
264.3080, 22.18284
264.7901, 21.92291
265.2722, 21.65119
265.7544, 21.37709
266.2365, 21.11495
266.7186, 20.86078
267.2007, 20.63261
267.6828, 20.44081
268.1649, 20.28439
268.6471, 20.13857
269.1292, 19.98928
269.6113, 19.86831
270.0934, 19.81970
270.5755, 19.85546
271.0576, 19.92144
271.5398, 20.03689
272.0219, 20.19730
272.5040, 20.17023
272.9861, 19.88622
273.4682, 19.56634
273.9503, 19.46746
274.4325, 19.63573
274.9146, 19.77614
275.3967, 19.83963
275.8788, 19.82121
276.3610, 19.63545
276.8431, 19.23076
277.3252, 18.82147
277.8073, 18.60208
278.2894, 18.58091
278.7715, 18.66733
279.2537, 18.89676
279.7358, 19.20864
280.2179, 19.35829
280.7000, 19.33929
281.1821, 19.18758
281.6642, 18.84873
282.1464, 18.32063
282.6285, 17.97883
283.1106, 17.92655
283.5927, 18.06294
284.0748, 18.13486
284.5569, 18.14118
285.0391, 18.09089
285.5212, 17.95598
286.0033, 17.74721
286.4854, 17.60538
286.9675, 17.56949
287.4496, 17.57516
287.9318, 17.45713
288.4139, 17.21197
288.8960, 17.03214
289.3781, 17.10263
289.8602, 17.35991
290.3423, 17.47147
290.8245, 17.38987
291.3066, 17.20506
291.7887, 17.03823
292.2708, 16.88867
292.7529, 16.75597
293.2350, 16.64340
293.7172, 16.54811
294.1993, 16.45905
294.6814, 16.37086
295.1635, 16.30881
295.6456, 16.34148
296.1277, 16.44179
296.6099, 16.49326
297.0920, 16.38368
297.5741, 16.20018
298.0562, 16.13006
298.5383, 16.18336
299.0204, 16.25887
299.5026, 16.24920
299.9847, 16.18163
300.4668, 16.12786
300.9489, 16.11248
301.4311, 16.12958
301.9132, 16.18492
302.3953, 16.27741
302.8774, 16.36540
303.3595, 16.39487
303.8416, 16.40017
304.3238, 16.44739
304.8059, 16.60305
305.2880, 16.76357
305.7701, 16.77764
306.2522, 16.67385
306.7343, 16.62590
307.2165, 16.79840
307.6986, 17.07644
308.1807, 17.31415
308.6628, 17.46046
309.1449, 17.58738
309.6270, 17.76012
310.1092, 17.96434
310.5913, 18.14869
311.0734, 18.30505
311.5555, 18.41900
312.0376, 18.44294
312.5197, 18.29904
313.0019, 18.25420
313.4840, 18.56306
313.9661, 19.07731
314.4482, 19.49613
314.9303, 19.68461
315.4124, 19.74333
315.8946, 19.66719
316.3767, 19.39886
316.8588, 19.28867
317.3409, 19.65643
317.8230, 20.22008
318.3051, 20.60633
318.7873, 20.41183
319.2694, 20.27533
319.7515, 20.54728
320.2336, 21.28278
320.7157, 21.86813
321.1978, 21.87063
321.6800, 21.76046
322.1621, 21.96198
322.6442, 23.12069
323.1263, 24.02028
323.6084, 24.18650
324.0905, 23.67761
324.5727, 23.46413
325.0548, 24.08908
325.5369, 24.79340
326.0190, 25.11727
326.5012, 24.49060
326.9833, 24.10672
327.4654, 24.15462
327.9475, 24.54128
328.4296, 24.89171
328.9117, 25.18372
329.3939, 25.45851
329.8760, 25.73075
330.3581, 25.97464
330.8402, 26.26055
331.3223, 26.55153
331.8044, 26.89502
332.2866, 27.41047
332.7687, 28.26567
333.2508, 29.03636
333.7329, 29.56628
334.2150, 29.79089
334.6971, 30.08198
335.1793, 30.42229
335.6614, 30.84913
336.1435, 31.42161
336.6256, 32.19544
337.1077, 32.97595
337.5898, 33.65923
338.0720, 34.26945
338.5541, 35.14712
339.0362, 36.38572
339.5183, 37.70100
340.0004, 38.81177
340.4825, 39.70074
340.9647, 40.57366
341.4468, 41.43618
341.9289, 42.31912
342.4110, 43.41277
342.8931, 44.75323
343.3752, 46.00658
343.8574, 46.86720
344.3395, 47.36824
344.8216, 47.86824
345.3037, 48.32649
345.7858, 48.94888
346.2679, 50.32038
346.7501, 52.39222
347.2322, 54.18768
347.7143, 54.95935
348.1964, 55.03923
348.6785, 55.52300
349.1607, 56.48994
349.6428, 57.67529
350.1249, 58.74956
350.6070, 59.79278
351.0891, 61.09116
351.5713, 62.99016
352.0534, 65.08225
352.5355, 66.70456
353.0176, 67.85675
353.4997, 69.06046
353.9818, 70.86353
354.4640, 72.94310
354.9461, 74.81551
355.4282, 76.21324
355.9103, 77.49831
356.3924, 78.95295
356.8745, 80.56509
357.3567, 82.24729
357.8388, 83.99765
358.3209, 85.78082
358.8030, 87.60091
359.2851, 89.47372
359.7672, 91.30611
360.2494, 93.04968
360.7315, 94.72549
361.2136, 96.34489
361.6957, 98.08821
362.1778, 99.65234
362.6599, 100.9418
363.1421, 101.9688
363.6242, 102.5380
364.1063, 102.5478
364.5884, 102.0855
365.0705, 101.2408
365.5526, 100.0869
366.0348, 98.50246
366.5169, 96.38133
366.9990, 93.74287
367.4811, 90.91830
367.9632, 88.02043
368.4453, 84.87566
368.9275, 81.39075
369.4096, 77.20765
369.8917, 73.20374
370.3738, 69.35561
370.8559, 65.68302
371.3380, 62.30849
371.8202, 59.22383
372.3023, 56.40401
372.7844, 53.90003
373.2665, 51.80747
373.7487, 49.65898
374.2308, 47.33793
374.7129, 45.07917
375.1950, 43.15583
375.6771, 41.57939
376.1592, 40.30607
376.6414, 39.40394
377.1235, 38.82650
377.6056, 38.03413
378.0877, 36.96136
378.5698, 35.86754
379.0519, 34.92784
379.5341, 34.14949
380.0162, 33.57589
380.4983, 33.26881
380.9804, 33.11251
381.4625, 32.83823
381.9446, 32.44598
382.4268, 32.11072
382.9089, 32.01932
383.3910, 32.07591
383.8731, 31.91787
384.3552, 31.47758
384.8373, 31.01921
385.3195, 30.89653
385.8016, 31.01741
386.2837, 31.10851
386.7658, 30.97707
387.2479, 30.78423
387.7300, 30.79775
388.2122, 31.00514
388.6943, 31.11224
389.1764, 30.75561
389.6585, 30.21848
390.1406, 29.87565
390.6227, 29.93794
391.1049, 30.06688
391.5870, 30.05036
392.0691, 29.92244
392.5512, 29.78575
393.0333, 29.69027
393.5154, 29.59911
393.9976, 29.49455
394.4797, 29.38127
394.9618, 29.22943
395.4439, 28.94141
395.9260, 28.63398
396.4081, 28.46304
396.8903, 28.61471
397.3724, 28.75251
397.8545, 28.82936
398.3366, 28.84669
398.8188, 28.67123
399.3009, 28.02450
399.7830, 27.36067
400.2651, 26.97114
400.7472, 27.06080
401.2293, 27.12252
401.7115, 27.16396
402.1936, 27.15838
402.6757, 26.99607
403.1578, 26.53369
403.6399, 26.16189
404.1220, 26.09709
404.6042, 26.42532
405.0863, 26.54874
405.5684, 26.43263
406.0505, 26.16635
406.5326, 25.78634
407.0147, 25.24645
407.4969, 24.95725
407.9790, 25.10845
408.4611, 25.57456
408.9432, 25.85290
409.4253, 25.93147
409.9074, 25.93113
410.3896, 25.92211
410.8717, 25.90887
411.3538, 25.91179
411.8359, 25.93517
412.3180, 25.97222
412.8001, 25.97275
413.2823, 25.96506
413.7644, 26.06268
414.2465, 26.43369
414.7286, 26.89678
415.2107, 27.15814
415.6928, 27.19407
416.1750, 27.32171
416.6571, 27.79204
417.1392, 28.49564
417.6213, 29.30123
418.1034, 30.14537
418.5855, 31.09206
419.0677, 32.24899
419.5498, 33.56100
420.0319, 34.77556
420.5140, 35.70247
420.9961, 36.57869
421.4782, 37.57738
421.9604, 38.81517
422.4425, 39.91720
422.9246, 40.76147
423.4067, 41.42440
423.8889, 42.02134
424.3710, 42.16225
424.8531, 42.65940
425.3352, 43.78047
425.8173, 45.52370
426.2994, 47.19221
426.7816, 48.67076
427.2637, 50.17756
427.7458, 51.84874
428.2279, 53.74238
428.7100, 55.67582
429.1921, 57.47588
429.6743, 59.39500
430.1564, 62.05315
430.6385, 65.61392
431.1206, 69.28389
431.6027, 72.76051
432.0848, 76.07602
432.5670, 79.29175
433.0491, 82.42286
433.5312, 85.43253
434.0133, 88.72427
434.4954, 92.09544
434.9775, 94.23074
435.4597, 94.96660
435.9418, 94.10767
436.4239, 90.91660
436.9060, 85.61063
437.3881, 79.39926
437.8702, 72.39011
438.3524, 65.18993
438.8345, 58.53675
439.3166, 52.45473
439.7987, 47.28358
440.2808, 43.32558
440.7629, 40.43719
441.2451, 38.43174
441.7272, 37.56717
442.2093, 37.26100
442.6914, 37.26893
443.1735, 37.58720
443.6556, 38.22197
444.1378, 39.39399
444.6199, 40.73969
445.1020, 42.03105
445.5841, 43.21798
446.0662, 44.37676
446.5483, 45.60607
447.0305, 46.79519
447.5126, 47.75595
447.9947, 48.18532
448.4768, 48.74139
448.9590, 49.60803
449.4411, 50.78923
449.9232, 51.89237
450.4053, 52.83756
450.8874, 53.83435
451.3695, 54.96476
451.8517, 56.16015
452.3338, 57.85171
452.8159, 60.17125
453.2980, 62.87221
453.7801, 65.48737
454.2622, 67.97934
454.7444, 70.60673
455.2265, 73.44685
455.7086, 76.50980
456.1907, 79.76855
456.6728, 83.27888
457.1549, 86.78064
457.6371, 90.23704
458.1192, 93.55352
458.6013, 96.71773
459.0834, 100.0310
459.5655, 102.5597
460.0476, 103.6628
460.5298, 103.1904
461.0119, 100.6894
461.4940, 95.04184
461.9761, 87.84847
462.4582, 79.95205
462.9403, 71.27253
463.4225, 63.21069
463.9046, 56.12948
464.3867, 50.03965
464.8688, 45.11884
465.3509, 41.93707
465.8330, 39.24591
466.3152, 36.91480
466.7973, 34.92093
467.2794, 33.19820
467.7615, 31.61112
468.2436, 30.40037
468.7257, 29.71898
469.2079, 29.71462
469.6900, 29.58167
470.1721, 29.23788
470.6542, 28.85615
471.1363, 28.61869
471.6184, 28.54915
472.1006, 28.53825
472.5827, 28.59343
473.0648, 28.67866
473.5469, 28.63715
474.0291, 28.44969
474.5112, 28.36224
474.9933, 28.58345
475.4754, 29.03750
475.9575, 29.38445
476.4396, 29.60146
476.9218, 29.79804
477.4039, 30.08146
477.8860, 30.43180
478.3681, 30.80777
478.8502, 31.23969
479.3323, 31.63773
479.8145, 31.85801
480.2966, 31.95471
480.7787, 32.11717
481.2608, 32.46568
481.7429, 32.90236
482.2250, 33.37760
482.7072, 33.89632
483.1893, 34.38745
483.6714, 34.78738
484.1535, 35.16570
484.6356, 35.59258
485.1177, 36.00160
485.5999, 36.55257
486.0820, 37.30692
486.5641, 38.22569
487.0462, 39.20319
487.5283, 40.28130
488.0104, 41.36264
488.4926, 42.38387
488.9747, 43.28811
489.4568, 44.44855
489.9389, 45.87789
490.4210, 47.52460
490.9031, 49.28972
491.3853, 51.17279
491.8674, 53.31422
492.3495, 55.76130
492.8316, 58.43927
493.3137, 61.08247
493.7958, 63.73289
494.2780, 66.77540
494.7601, 70.47215
495.2422, 74.69341
495.7243, 79.20251
496.2064, 84.05736
496.6885, 88.87988
497.1707, 93.43106
497.6528, 97.85632
498.1349, 102.3582
498.6170, 107.0349
499.0992, 111.8034
499.5813, 116.7740
500.0634, 121.8408
500.5455, 126.7953
501.0276, 131.3619
501.5097, 135.9673
501.9919, 140.7837
502.4740, 145.7836
502.9561, 151.0904
503.4382, 156.9869
503.9203, 163.0583
504.4024, 169.0424
504.8846, 174.6291
505.3667, 180.6249
505.8488, 187.1403
506.3309, 194.0063
506.8130, 200.9341
507.2951, 207.9649
507.7773, 214.8135
508.2594, 221.5913
508.7415, 228.0607
509.2236, 233.1995
509.7057, 236.9948
510.1878, 239.6434
510.6700, 241.5730
511.1521, 242.5144
511.6342, 241.7924
512.1163, 239.3957
512.5984, 235.0201
513.0806, 228.0128
513.5627, 218.7984
514.0448, 208.2636
514.5269, 196.0237
515.0090, 183.2292
515.4911, 170.3611
515.9733, 157.4496
516.4554, 145.0534
516.9375, 132.8961
517.4196, 121.5419
517.9017, 111.3465
518.3839, 102.5029
518.8660, 94.40991
519.3481, 87.23434
519.8302, 80.72488
520.3123, 74.75386
520.7944, 69.19817
521.2766, 64.35562
521.7587, 60.41785
522.2408, 57.22349
522.7229, 53.96413
523.2050, 50.54472
523.6871, 47.41323
524.1693, 44.81558
524.6514, 42.76649
525.1335, 40.95497
525.6156, 39.39951
526.0977, 37.92078
526.5798, 36.20474
527.0620, 34.38415
527.5441, 32.91491
528.0262, 32.00982
528.5083, 31.27273
528.9904, 30.24708
529.4725, 29.06429
529.9547, 28.05269
530.4368, 27.48304
530.9189, 27.05900
531.4010, 26.63346
531.8831, 26.19111
532.3652, 25.71716
532.8474, 25.16478
533.3295, 24.60018
533.8116, 24.05819
534.2937, 23.56010
534.7758, 23.06323
535.2579, 22.54235
535.7401, 22.03513
536.2222, 21.61321
536.7043, 21.28864
537.1864, 21.00576
537.6685, 20.75129
538.1506, 20.52866
538.6328, 20.39725
539.1149, 20.38070
539.5970, 20.30036
540.0791, 19.98144
540.5612, 19.48930
541.0433, 19.16747
541.5255, 19.03975
542.0076, 18.96793
542.4897, 18.83934
542.9718, 18.66295
543.4539, 18.44684
543.9360, 18.16190
544.4182, 17.89768
544.9003, 17.75589
545.3824, 17.69054
545.8645, 17.59964
546.3466, 17.40662
546.8287, 17.21021
547.3109, 17.04210
547.7930, 16.90569
548.2751, 16.82921
548.7572, 16.88117
549.2393, 16.94477
549.7214, 16.95516
550.2036, 16.87903
550.6857, 16.83142
551.1678, 16.84507
551.6499, 16.85401
552.1320, 16.75099
552.6141, 16.51501
553.0963, 16.29250
553.5784, 16.08643
554.0605, 15.94203
554.5426, 16.06988
555.0247, 16.44946
555.5068, 16.70734
555.9890, 16.47310
556.4711, 16.01559
556.9532, 15.85217
557.4353, 16.00143
557.9174, 16.14427
558.3995, 16.05252
558.8817, 15.81974
559.3638, 15.52502
559.8459, 15.11068
560.3281, 14.79916
560.8102, 14.74939
561.2923, 14.84605
561.7744, 14.90893
562.2565, 14.91766
562.7386, 14.87440
563.2208, 14.76249
563.7029, 14.59349
564.1850, 14.42522
564.6671, 14.20357
565.1492, 14.08320
565.6313, 14.20328
566.1135, 14.59749
566.5956, 14.73181
567.0777, 14.55767
567.5598, 14.29098
568.0419, 14.13111
568.5240, 14.06985
569.0062, 14.06222
569.4883, 14.10588
569.9704, 14.18486
570.4525, 14.32954
570.9346, 14.49766
571.4167, 14.57478
571.8989, 14.33726
572.3810, 14.13422
572.8631, 14.29060
573.3452, 14.74518
573.8273, 15.08003
574.3094, 15.05615
574.7916, 14.93226
575.2737, 14.82049
575.7558, 14.68985
576.2379, 14.71117
576.7200, 14.95806
577.2021, 15.29715
577.6843, 15.61290
578.1664, 15.87945
578.6485, 16.21040
579.1306, 16.67406
579.6127, 17.14866
580.0948, 17.34571
580.5770, 17.26390
581.0591, 17.25186
581.5412, 17.46683
582.0233, 17.83039
582.5054, 18.19273
582.9875, 18.54912
583.4697, 18.90182
583.9518, 19.28082
584.4339, 19.63634
584.9160, 19.86324
585.3981, 19.92466
585.8802, 20.11414
586.3624, 20.67138
586.8445, 21.37960
587.3266, 22.03806
587.8087, 22.43493
588.2908, 22.99990
588.7729, 23.95693
589.2551, 25.06551
589.7372, 25.89251
590.2193, 26.21115
590.7014, 26.70663
591.1835, 27.59634
591.6656, 28.79161
592.1478, 29.80807
592.6299, 30.61538
593.1120, 31.40211
593.5941, 32.38803
594.0762, 33.45335
594.5583, 34.17604
595.0405, 34.53646
595.5226, 34.58140
596.0047, 34.24490
596.4868, 33.65154
596.9689, 32.92112
597.4510, 31.95165
597.9332, 31.18836
598.4153, 30.98813
598.8974, 31.13381
599.3795, 31.29056
599.8616, 31.12845
600.3438, 31.23937
600.8259, 31.76520
601.3080, 32.67730
601.7901, 33.91559
602.2722, 35.66029
602.7543, 37.40927
603.2365, 38.96332
603.7186, 40.31574
604.2007, 41.81459
604.6828, 43.42789
605.1649, 45.26915
605.6470, 47.57825
606.1292, 50.21009
606.6113, 52.62219
607.0934, 54.67759
607.5755, 56.71232
608.0576, 59.39525
608.5398, 62.20176
609.0219, 64.21072
609.5040, 65.28164
609.9861, 65.31300
610.4683, 63.71529
610.9504, 61.08144
611.4325, 58.65692
611.9146, 56.31908
612.3967, 54.72326
612.8788, 53.93401
613.3610, 53.96235
613.8431, 55.23473
614.3252, 57.94508
614.8073, 61.56734
615.2894, 65.96888
615.7715, 71.14864
616.2537, 76.98051
616.7358, 83.55051
617.2179, 90.27183
617.7000, 96.46518
618.1821, 102.2703
618.6642, 108.0284
619.1464, 113.8968
619.6285, 119.7150
620.1106, 125.1316
620.5927, 130.4353
621.0748, 136.1011
621.5569, 141.8734
622.0391, 148.5713
622.5212, 156.8960
623.0033, 166.5120
623.4854, 176.3915
623.9675, 186.0249
624.4496, 196.2622
624.9318, 207.3640
625.4139, 219.3244
625.8960, 231.8277
626.3781, 244.9290
626.8602, 258.1706
627.3423, 271.2781
627.8245, 284.2550
628.3066, 297.5866
628.7887, 311.5493
629.2708, 324.1550
629.7529, 334.7916
630.2350, 342.3267
630.7172, 344.6737
631.1993, 341.7607
631.6814, 332.4376
632.1635, 313.7110
632.6456, 288.4341
633.1277, 260.8666
633.6099, 228.9267
634.0920, 198.7204
634.5741, 171.0827
635.0562, 146.5689
635.5383, 125.9063
636.0204, 110.0066
636.5026, 96.58751
636.9847, 85.13001
637.4668, 75.65250
637.9489, 67.78910
638.4310, 61.63253
638.9131, 56.37584
639.3953, 51.42815
639.8774, 46.84654
640.3595, 43.03948
640.8416, 40.01554
641.3237, 37.54043
641.8058, 35.74721
642.2880, 34.28899
642.7701, 32.68574
643.2522, 30.68833
643.7343, 28.88775
644.2164, 27.65321
644.6985, 26.74983
645.1807, 25.87643
645.6628, 24.95803
646.1449, 24.07929
646.6270, 23.20238
647.1091, 22.37798
647.5912, 21.79665
648.0734, 21.57206
648.5555, 21.24470
649.0376, 20.58435
649.5197, 19.71372
650.0018, 19.24085
650.4839, 19.15587
650.9661, 19.08838
651.4482, 18.76891
651.9303, 18.31763
652.4124, 17.92074
652.8945, 17.58804
653.3766, 17.32645
653.8588, 17.19755
654.3409, 17.10765
654.8230, 16.98083
655.3051, 16.80699
655.7872, 16.58961
656.2693, 16.26171
656.7515, 15.92834
657.2336, 15.69371
657.7158, 15.60979
658.1979, 15.51963
658.6800, 15.43755
659.1621, 15.31463
659.6442, 15.01817
660.1263, 14.54628
660.6085, 14.16318
661.0906, 13.97080
661.5727, 13.89094
662.0548, 13.84864
662.5369, 13.81183
663.0190, 13.65837
663.5012, 13.24831
663.9833, 12.75508
664.4654, 12.24579
664.9475, 11.74862
665.4296, 11.40655
665.9117, 11.45282
666.3939, 11.50719
666.8760, 11.34925
667.3581, 10.92752
667.8402, 10.62477
668.3223, 10.43547
668.8044, 10.36923
669.2866, 10.51597
669.7687, 10.89587
670.2508, 10.96341
670.7329, 10.64399
671.2150, 10.21237
671.6971, 9.978150
672.1793, 9.872831
672.6614, 9.715557
673.1435, 9.438488
673.6256, 9.163670
674.1077, 8.968390
674.5898, 8.841207
675.0720, 8.766462
675.5541, 8.821108
676.0362, 8.834198
676.5183, 8.694578
677.0004, 8.481152
677.4825, 8.424346
677.9647, 8.656938
678.4468, 8.785870
678.9289, 8.668044
679.4110, 8.365474
679.8931, 8.173382
680.3752, 8.098125
680.8574, 8.045523
681.3395, 7.943458
681.8216, 7.830733
682.3037, 7.817378
682.7858, 7.894852
683.2679, 7.943036
683.7501, 7.839168
684.2322, 7.699494
684.7143, 7.620310
685.1964, 7.621698
685.6785, 7.636177
686.1606, 7.668069
686.6428, 7.691759
687.1249, 7.685921
687.6070, 7.620460
688.0891, 7.604369
688.5712, 7.671009
689.0533, 7.733613
689.5355, 7.648803
690.0176, 7.426040
690.4997, 7.317611
690.9818, 7.394395
691.4639, 7.527837
691.9460, 7.563488
692.4282, 7.520648
692.9103, 7.437193
693.3924, 7.262099
693.8745, 7.127508
694.3566, 7.119309
694.8387, 7.209716
695.3209, 7.333447
695.8030, 7.580530
696.2851, 7.736571
696.7672, 7.717326
697.2493, 7.563362
697.7314, 7.491566
698.2136, 7.527356
698.6957, 7.561683
699.1778, 7.545137
699.6599, 7.488587
700.1420, 7.433977
700.6241, 7.381736
701.1063, 7.344907
701.5884, 7.343062
702.0705, 7.356359
702.5526, 7.358846
703.0347, 7.348739
703.5168, 7.344136
703.9990, 7.374032
704.4811, 7.398491
704.9632, 7.382127
705.4453, 7.289813
705.9274, 7.254918
706.4095, 7.343459
706.8917, 7.415652
707.3738, 7.301391
707.8560, 6.961053
708.3381, 6.850608
708.8202, 7.043227
709.3023, 7.332229
709.7844, 7.482903
710.2665, 7.518987
710.7487, 7.495180
711.2308, 7.389372
711.7129, 7.319026
712.1950, 7.399238
712.6771, 7.568925
713.1592, 7.736405
713.6414, 7.919026
714.1235, 8.042250
714.6056, 8.044649
715.0877, 7.983977
715.5698, 7.990379
716.0519, 8.140028
716.5341, 8.141669
717.0162, 7.864510
717.4983, 7.437026
717.9804, 7.211622
718.4625, 7.182526
718.9446, 7.296678
719.4268, 7.678303
719.9089, 8.085983
720.3910, 8.193034
720.8731, 8.041464
721.3552, 7.814118
721.8373, 7.458851
722.3195, 7.179634
722.8016, 7.115263
723.2837, 7.274955
723.7658, 7.435120
724.2479, 7.601782
724.7300, 7.742740
725.2122, 7.837568
725.6943, 7.885707
726.1764, 7.942189
726.6585, 8.015126
727.1406, 8.047557
727.6227, 7.973647
728.1049, 7.829909
728.5870, 7.671878
729.0691, 7.500967
729.5512, 7.425797
730.0333, 7.629251
730.5154, 7.904343
730.9976, 8.060413
731.4797, 8.057118
731.9618, 7.966942
732.4439, 7.654496
732.9260, 7.366526
733.4081, 7.318544
733.8903, 7.624792
734.3724, 7.772629
734.8545, 7.696954
735.3366, 7.554718
735.8187, 7.568886
736.3008, 7.698456
736.7830, 7.735754
737.2651, 7.605890
737.7472, 7.480290
738.2293, 7.557852
738.7114, 7.742935
739.1935, 7.894157
739.6757, 7.975470
740.1578, 8.005725
740.6399, 7.930499
741.1220, 7.823771
741.6041, 7.828044
742.0862, 8.060882
742.5684, 8.121068
743.0505, 7.863988
743.5326, 7.482163
744.0147, 7.461819
744.4968, 7.772198
744.9789, 8.007648
745.4611, 7.988580
745.9432, 7.858146
746.4253, 7.734617
746.9074, 7.648082
747.3895, 7.679164
747.8716, 8.077706
748.3538, 8.386035
748.8359, 8.317950
749.3180, 7.961014
749.8001, 7.788589
750.2822, 7.931369
750.7643, 8.053486
751.2465, 8.032962
751.7286, 7.913117
752.2107, 7.928639
752.6928, 8.082770
753.1749, 8.201826
753.6570, 8.153492
754.1392, 8.023222
754.6213, 7.918161
755.1034, 7.847409
755.5855, 7.865157
756.0676, 8.142447
756.5498, 8.394784
757.0319, 8.413419
757.5140, 8.179643
757.9962, 8.058100
758.4783, 8.085420
758.9604, 8.201845
759.4425, 8.408483
759.9246, 8.700036
760.4067, 8.937589
760.8889, 9.120470
761.3710, 9.241828
761.8531, 9.289516
762.3352, 9.274499
762.8173, 9.183425
763.2994, 9.021190
763.7816, 8.914678
764.2637, 9.028338
764.7458, 9.167300
765.2279, 9.161424
765.7100, 8.942830
766.1921, 8.850017
766.6743, 8.987850
767.1564, 9.147446
767.6385, 9.185805
768.1206, 9.084255
768.6027, 9.041797
769.0848, 9.063213
769.5670, 9.119516
770.0491, 9.188091
770.5312, 9.271379
771.0133, 9.392735
771.4954, 9.561739
771.9775, 9.682905
772.4597, 9.664603
772.9418, 9.591199
773.4239, 9.526612
773.9060, 9.461460
774.3881, 9.458239
774.8702, 9.546228
775.3524, 9.663668
775.8345, 9.772898
776.3166, 9.878516
776.7987, 9.905600
777.2808, 9.836446
777.7629, 9.755661
778.2451, 9.764101
778.7272, 9.825613
779.2093, 9.867756
779.6914, 9.872530
780.1735, 9.874990
780.6556, 9.904775
781.1378, 9.937593
781.6199, 9.950500
782.1020, 9.944946
782.5841, 9.902562
783.0662, 9.785192
783.5483, 9.673423
784.0305, 9.662969
784.5126, 9.756754
784.9947, 9.871259
785.4768, 10.00619
785.9589, 10.11510
786.4410, 10.13264
786.9232, 10.08759
787.4053, 10.02368
787.8874, 9.931461
788.3695, 9.877456
788.8516, 9.885339
789.3337, 9.951337
789.8159, 10.08134
790.2980, 10.41131
790.7801, 10.54106
791.2622, 10.36775
791.7443, 10.11175
792.2264, 10.08158
792.7086, 10.26278
793.1907, 10.41706
793.6728, 10.50440
794.1549, 10.56515
794.6370, 10.63679
795.1191, 10.71636
795.6013, 10.80277
796.0834, 10.91258
796.5655, 10.99472
797.0476, 11.01298
797.5297, 11.00250
798.0118, 11.00785
798.4940, 11.04082
798.9761, 11.05713
799.4582, 11.03489
799.9403, 11.02849
800.4224, 11.12274
800.9045, 11.30449
801.3867, 11.49601
801.8688, 11.67933
802.3509, 11.87529
802.8330, 12.15723
803.3151, 12.44429
803.7972, 12.61458
804.2794, 12.54709
804.7615, 12.51337
805.2436, 12.55251
805.7258, 12.66374
806.2079, 12.87886
806.6900, 13.26219
807.1721, 13.47519
807.6542, 13.44252
808.1364, 13.34073
808.6185, 13.38843
809.1006, 13.55910
809.5827, 13.79694
810.0648, 14.12497
810.5469, 14.39511
811.0291, 14.47219
811.5112, 14.44077
811.9933, 14.40058
812.4754, 14.38723
812.9575, 14.33500
813.4396, 14.19254
813.9218, 14.05788
814.4039, 14.08524
814.8860, 14.29443
815.3681, 14.31366
815.8502, 14.06661
816.3323, 13.78349
816.8145, 13.81505
817.2966, 13.98057
817.7787, 13.93701
818.2608, 13.54812
818.7429, 13.14770
819.2250, 12.87315
819.7072, 12.67674
820.1893, 12.51793
820.6714, 12.41892
821.1535, 12.29929
821.6356, 12.14634
822.1177, 11.99485
822.5999, 11.89274
823.0820, 11.83097
823.5641, 11.75060
824.0462, 11.64395
824.5283, 11.52124
825.0104, 11.32587
825.4926, 11.15335
825.9747, 11.14207
826.4568, 11.38433
826.9389, 11.55663
827.4210, 11.55661
827.9031, 11.48327
828.3853, 11.38197
828.8674, 11.23080
829.3495, 11.18551
829.8316, 11.27473
830.3137, 11.34984
830.7958, 11.22850
831.2780, 10.99598
831.7601, 10.80479
832.2422, 10.66957
832.7243, 10.66035
833.2064, 11.03237
833.6885, 11.39949
834.1707, 11.41902
834.6528, 10.91992
835.1349, 10.65007
835.6170, 10.70458
836.0991, 10.82738
836.5812, 10.83589
837.0634, 10.74375
837.5455, 10.80246
838.0276, 11.01664
838.5097, 11.16173
838.9918, 10.95278
839.4739, 10.65609
839.9561, 10.58487
840.4382, 10.75598
840.9203, 10.90416
841.4024, 10.90539
841.8845, 10.89945
842.3666, 10.95375
842.8488, 11.06670
843.3309, 11.16570
843.8130, 11.25965
844.2951, 11.29030
844.7772, 11.17967
845.2593, 10.99463
845.7415, 10.87227
846.2236, 10.81267
846.7057, 10.82075
847.1878, 10.96240
847.6699, 11.11419
848.1520, 11.21800
848.6342, 11.27033
849.1163, 11.27370
849.5984, 11.18253
850.0805, 11.13912
850.5626, 11.20917
851.0447, 11.34959
851.5269, 11.41625
852.0090, 11.41619
852.4911, 11.40742
852.9732, 11.41018
853.4553, 11.42431
853.9374, 11.43895
854.4196, 11.46495
854.9017, 11.52957
855.3839, 11.73739
855.8660, 11.86109
856.3481, 11.83609
856.8302, 11.71373
857.3123, 11.58837
857.7944, 11.45413
858.2766, 11.38920
858.7587, 11.42839
859.2408, 11.51088
859.7229, 11.53465
860.2050, 11.53716
860.6871, 11.60065
861.1693, 11.82963
861.6514, 12.00093
862.1335, 11.99037
862.6156, 11.89094
863.0977, 11.82127
863.5798, 11.75908
864.0620, 11.80921
864.5441, 12.02131
865.0262, 12.24962
865.5083, 12.29826
865.9904, 12.21304
866.4725, 12.13098
866.9547, 12.07250
867.4368, 12.03552
867.9189, 12.00076
868.4010, 11.99675
868.8831, 12.06784
869.3652, 12.31076
869.8474, 12.37083
870.3295, 12.14747
870.8116, 11.90224
871.2937, 11.85253
871.7758, 11.98067
872.2579, 12.09331
872.7401, 12.18597
873.2222, 12.24707
873.7043, 12.25224
874.1864, 12.23193
874.6685, 12.23103
875.1506, 12.25330
875.6328, 12.20659
876.1149, 11.97291
876.5970, 11.77114
877.0791, 11.70365
877.5612, 11.75090
878.0433, 11.68954
878.5255, 11.51406
879.0076, 11.37947
879.4897, 11.44177
879.9718, 11.55762
880.4539, 11.48318
880.9360, 11.27957
881.4182, 11.15787
881.9003, 11.33854
882.3824, 11.46791
882.8645, 11.37183
883.3466, 11.14383
883.8287, 11.02331
884.3109, 11.02872
884.7930, 11.02987
885.2751, 10.97972
885.7572, 10.93228
886.2393, 11.01877
886.7214, 11.17828
887.2036, 11.25849
887.6857, 11.17570
888.1678, 11.05681
888.6499, 10.91884
889.1320, 10.79410
889.6141, 10.72493
890.0963, 10.72756
890.5784, 10.76291
891.0605, 10.86656
891.5426, 10.90910
892.0247, 10.63451
892.5068, 10.18029
892.9890, 9.972019
893.4711, 10.08630
893.9532, 10.29454
894.4353, 10.55583
894.9174, 10.76582
895.3995, 10.80547
895.8817, 10.59379
896.3638, 10.56097
896.8459, 10.80297
897.3280, 11.02418
897.8101, 11.02904
898.2922, 10.84951
898.7744, 10.61899
899.2565, 10.34770
899.7386, 10.14685
900.2207, 10.09968
900.7028, 10.13773
901.1849, 10.26399
901.6671, 10.45082
902.1492, 10.52624
902.6313, 10.44340
903.1134, 10.29152
903.5955, 10.02979
904.0776, 9.759249
904.5598, 9.834408
905.0419, 10.20529
905.5240, 10.46472
906.0062, 10.39117
906.4883, 10.26354
906.9704, 10.35958
907.4525, 10.56332
907.9346, 10.68857
908.4167, 10.54013
908.8989, 10.52878
909.3810, 10.74371
909.8631, 11.02995
910.3452, 11.23578
910.8273, 11.35480
911.3094, 11.21655
911.7916, 10.75960
912.2737, 10.38697
912.7558, 10.56486
913.2379, 10.97469
913.7200, 11.28029
914.2021, 11.41514
914.6843, 11.53956
915.1664, 11.72746
915.6485, 11.84904
916.1306, 11.79578
916.6127, 11.58542
917.0948, 11.51344
917.5770, 11.58019
918.0591, 11.76156
918.5412, 12.17214
919.0233, 12.59436
919.5054, 12.78384
919.9875, 12.77492
920.4697, 12.74333
920.9518, 12.75422
921.4339, 12.72009
921.9160, 12.59134
922.3981, 12.42339
922.8802, 12.35786
923.3624, 12.39309
923.8445, 12.45809
924.3266, 12.52296
924.8087, 12.63437
925.2908, 12.90723
925.7729, 13.23877
926.2551, 13.47901
926.7372, 13.53668
927.2193, 13.59080
927.7014, 13.62182
928.1835, 13.70202
928.6656, 13.93081
929.1478, 14.30731
929.6299, 14.56740
930.1120, 14.69031
930.5941, 14.80623
931.0762, 15.05466
931.5583, 15.33649
932.0405, 15.52715
932.5226, 15.61454
933.0047, 15.76887
933.4868, 16.07001
933.9689, 16.39278
934.4510, 16.69319
934.9332, 16.97989
935.4153, 17.24682
935.8974, 17.50273
936.3795, 17.90149
936.8616, 18.65308
937.3438, 19.41813
937.8259, 19.77044
938.3080, 19.89373
938.7901, 20.14660
939.2722, 20.72361
939.7543, 21.30665
940.2365, 21.81559
940.7186, 22.35903
941.2007, 23.11468
941.6828, 24.06090
942.1649, 24.91352
942.6470, 25.62508
943.1292, 26.37808
943.6113, 27.34123
944.0934, 28.42511
944.5755, 29.53894
945.0576, 30.63302
945.5397, 31.97964
946.0219, 33.69493
946.5040, 35.47372
946.9861, 37.05020
947.4682, 38.55959
947.9503, 40.66251
948.4324, 43.34288
948.9146, 46.41509
949.3967, 49.56733
949.8788, 53.25761
950.3609, 57.74170
950.8430, 63.05379
951.3251, 69.20747
951.8073, 76.01150
952.2894, 83.94214
952.7715, 93.01697
953.2536, 103.3293
953.7357, 115.2586
954.2179, 128.5960
954.7000, 142.6762
955.1821, 157.3511
955.6642, 172.1394
956.1464, 186.7330
956.6285, 201.2067
957.1106, 215.7905
957.5927, 230.5414
958.0748, 245.0568
958.5569, 258.8775
959.0391, 273.8704
959.5212, 291.1084
960.0033, 310.4981
960.4854, 331.4541
960.9675, 354.1763
961.4496, 379.1043
961.9318, 407.1601
962.4139, 437.1761
962.8960, 469.2322
963.3781, 502.4893
963.8602, 535.8229
964.3423, 569.8754
964.8245, 600.7762
965.3066, 629.0179
965.7887, 650.7013
966.2708, 662.9244
966.7529, 664.0807
967.2350, 650.2480
967.7172, 619.0316
968.1993, 578.0967
968.6814, 523.0883
969.1635, 464.7800
969.6456, 408.9179
970.1277, 355.4704
970.6099, 308.0465
971.0920, 266.8182
971.5741, 231.1207
972.0562, 201.5883
972.5383, 177.2615
973.0204, 157.4846
973.5026, 141.8107
973.9847, 128.2058
974.4668, 116.5108
974.9489, 106.4082
975.4310, 97.90549
975.9131, 90.71680
976.3953, 84.29726
976.8774, 78.59134
977.3595, 73.51949
977.8416, 69.12101
978.3237, 65.30880
978.8058, 62.17091
979.2880, 59.45717
979.7701, 56.88565
980.2522, 54.40002
980.7343, 52.15248
981.2164, 50.18313
981.6985, 48.32801
982.1807, 46.41600
982.6628, 44.51295
983.1449, 42.92895
983.6270, 41.64132
984.1091, 40.51010
984.5912, 39.45264
985.0734, 38.53200
985.5555, 37.84568
986.0376, 37.31185
986.5197, 36.69066
987.0018, 35.92424
987.4839, 35.27294
987.9661, 34.79768
988.4482, 34.38790
988.9303, 33.91149
989.4124, 33.39240
989.8945, 32.86706
990.3766, 32.33404
990.8588, 31.85324
991.3409, 31.44321
991.8230, 31.10386
992.3051, 30.84004
992.7872, 30.65307
993.2693, 30.47185
993.7515, 30.29644
994.2336, 30.12299
994.7157, 29.98968
995.1978, 29.82035
995.6799, 29.42032
996.1620, 28.91973
996.6442, 28.62675
997.1263, 28.84950
997.6084, 28.98302
998.0905, 28.98706
998.5726, 28.85803
999.0547, 28.51186
999.5369, 28.00003
1000.019, 27.68035
1000.501, 27.60264
1000.983, 27.55446
1001.465, 27.38550
1001.947, 27.17982
1002.430, 27.01647
1002.912, 26.89782
1003.394, 26.67902
1003.876, 26.29102
1004.358, 26.03269
1004.840, 26.07641
1005.322, 26.24221
1005.804, 26.15688
1006.287, 25.90778
1006.769, 25.71064
1007.251, 25.71887
1007.733, 25.67773
1008.215, 25.37171
1008.697, 25.07943
1009.179, 25.09037
1009.661, 25.44217
1010.143, 25.66443
1010.626, 25.74063
1011.108, 25.72972
1011.590, 25.65260
1012.072, 25.53478
1012.554, 25.31961
1013.036, 25.04894
1013.518, 25.04606
1014.000, 25.64736
1014.483, 25.99989
1014.965, 25.82296
1015.447, 25.38696
1015.929, 25.23608
1016.411, 25.30390
1016.893, 25.36587
1017.375, 25.39186
1017.857, 25.30660
1018.339, 24.94000
1018.822, 24.52983
1019.304, 24.30144
1019.786, 24.29226
1020.268, 24.15766
1020.750, 23.87440
1021.232, 23.61267
1021.714, 23.52674
1022.196, 23.49917
1022.679, 23.32891
1023.161, 23.06365
1023.643, 22.84228
1024.125, 22.72552
1024.607, 22.64251
1025.089, 22.58204
1025.571, 22.54616
1026.053, 22.56485
1026.535, 22.62292
1027.018, 22.57558
1027.500, 22.39907
1027.982, 22.24366
1028.464, 22.26242
1028.946, 22.31886
1029.428, 22.28503
1029.910, 22.15796
1030.392, 22.16010
1030.875, 22.35573
1031.357, 22.42937
1031.839, 22.20022
1032.321, 21.89196
1032.803, 21.95948
1033.285, 22.24606
1033.767, 22.41568
1034.249, 22.29557
1034.731, 22.18895
1035.214, 22.16122
1035.696, 22.18022
1036.178, 22.25056
1036.660, 22.37040
1037.142, 22.33184
1037.624, 22.14513
1038.106, 22.07341
1038.588, 22.45496
1039.071, 22.87291
1039.553, 22.97894
1040.035, 22.85798
1040.517, 22.83258
1040.999, 22.94517
1041.481, 23.07544
1041.963, 23.20087
1042.445, 23.35613
1042.927, 23.69543
1043.410, 24.06734
1043.892, 24.10568
1044.374, 23.71778
1044.856, 23.48779
1045.338, 23.84257
1045.820, 24.18177
1046.302, 24.22698
1046.784, 24.04020
1047.266, 23.92829
1047.749, 23.88746
1048.231, 23.89176
1048.713, 23.96720
1049.195, 24.01886
1049.677, 23.95715
1050.159, 23.83281
1050.641, 23.71362
1051.123, 23.61213
1051.606, 23.49960
1052.088, 23.37367
1052.570, 23.24594
1053.052, 23.14700
1053.534, 23.04011
1054.016, 22.83607
1054.498, 22.55364
1054.980, 22.28690
1055.463, 22.10719
1055.945, 21.89676
1056.427, 21.59405
1056.909, 21.28354
1057.391, 21.12133
1057.873, 21.09041
1058.355, 21.05666
1058.837, 21.00015
1059.319, 20.93551
1059.802, 20.85651
1060.284, 20.78976
1060.766, 20.78759
1061.248, 20.84012
1061.730, 20.75747
1062.212, 20.51186
1062.694, 20.27033
1063.176, 20.08128
1063.658, 19.95287
1064.141, 19.92794
1064.623, 19.96104
1065.105, 19.96425
1065.587, 19.83322
1066.069, 19.87363
1066.551, 20.21721
1067.033, 20.56424
1067.515, 20.66907
1067.998, 20.58951
1068.480, 20.63320
1068.962, 20.78101
1069.444, 20.92731
1069.926, 20.97151
1070.408, 21.04694
1070.890, 21.27579
1071.372, 21.54535
1071.854, 21.65671
1072.337, 21.58106
1072.819, 21.66310
1073.301, 21.95721
1073.783, 22.21324
1074.265, 22.13532
1074.747, 21.94522
1075.229, 21.80102
1075.711, 21.73197
1076.193, 21.92087
1076.676, 22.53273
1077.158, 22.98469
1077.640, 23.08266
1078.122, 23.01315
1078.604, 23.08932
1079.086, 23.24729
1079.568, 23.36553
1080.051, 23.43200
1080.533, 23.39738
1081.015, 23.02196
1081.497, 22.78250
1081.979, 23.02078
1082.461, 23.61390
1082.943, 23.69793
1083.425, 23.34452
1083.907, 23.08703
1084.390, 23.26929
1084.872, 23.49113
1085.354, 23.53006
1085.836, 23.44271
1086.318, 23.32128
1086.800, 23.19796
1087.282, 22.85981
1087.764, 22.26385
1088.246, 21.76918
1088.729, 21.77719
1089.211, 21.95671
1089.693, 21.96298
1090.175, 21.80322
1090.657, 21.54678
1091.139, 21.11509
1091.621, 20.76958
1092.103, 20.57056
1092.586, 20.41365
1093.068, 20.09524
1093.550, 19.72656
1094.032, 19.61683
1094.514, 19.80243
1094.996, 19.89255
1095.478, 19.60968
1095.960, 19.31593
1096.443, 19.13311
1096.925, 19.04737
1097.407, 19.05790
1097.889, 19.14214
1098.371, 19.12772
1098.853, 18.94866
1099.335, 18.73508
1099.817, 18.50616
1100.299, 18.33932
1100.781, 18.33990
1101.264, 18.51330
1101.746, 18.51434
1102.228, 18.32694
1102.710, 18.18628
1103.192, 18.25181
1103.674, 18.36672
1104.156, 18.38336
1104.638, 18.31588
1105.121, 18.17980
1105.603, 17.89673
1106.085, 17.71391
1106.567, 17.63955
1107.049, 17.64231
1107.531, 17.74920
1108.013, 17.89169
1108.495, 17.93614
1108.978, 17.89358
1109.460, 17.82067
1109.942, 17.67410
1110.424, 17.58723
1110.906, 17.58440
1111.388, 17.64243
1111.870, 17.75782
1112.352, 17.90968
1112.834, 17.99591
1113.317, 18.01072
1113.799, 18.03996
1114.281, 18.18638
1114.763, 18.30053
1115.245, 18.26230
1115.727, 18.15677
1116.209, 18.20710
1116.691, 18.40985
1117.173, 18.63791
1117.656, 18.86941
1118.138, 19.09432
1118.620, 19.25192
1119.102, 19.43875
1119.584, 19.76682
1120.066, 20.23259
1120.548, 20.64172
1121.030, 20.99029
1121.513, 21.30248
1121.995, 21.56552
1122.477, 21.83974
1122.959, 22.12356
1123.441, 22.50794
1123.923, 23.15922
1124.405, 24.27257
1124.887, 25.12658
1125.370, 25.60447
1125.852, 26.12067
1126.334, 26.92832
1126.816, 27.93320
1127.298, 28.99887
1127.780, 30.09952
1128.262, 31.16327
1128.744, 32.05532
1129.226, 33.08126
1129.709, 34.32302
1130.191, 35.61186
1130.673, 36.78145
1131.155, 37.88277
1131.637, 39.14109
1132.119, 40.55763
1132.601, 42.10780
1133.083, 43.98857
1133.566, 45.74440
1134.048, 47.14116
1134.530, 48.41040
1135.012, 49.90127
1135.494, 51.56688
1135.976, 53.03842
1136.458, 54.28896
1136.940, 55.35313
1137.422, 56.28194
1137.905, 57.00865
1138.387, 57.52135
1138.869, 57.79827
1139.351, 57.76369
1139.833, 57.42076
1140.315, 56.68636
1140.797, 55.55195
1141.279, 53.98764
1141.761, 51.70258
1142.244, 49.16686
1142.726, 46.76616
1143.208, 44.51990
1143.690, 42.03709
1144.172, 39.26543
1144.654, 36.67418
1145.136, 34.47382
1145.618, 32.45337
1146.101, 30.38614
1146.583, 28.38901
1147.065, 26.58160
1147.547, 25.01744
1148.029, 23.59250
1148.511, 22.32175
1148.993, 21.12313
1149.475, 19.91990
1149.958, 18.83097
1150.440, 18.06724
1150.922, 17.54596
1151.404, 17.12768
1151.886, 16.86664
1152.368, 16.47932
1152.850, 15.91648
1153.332, 15.30296
1153.814, 14.69857
1154.297, 14.10891
1154.779, 13.52060
1155.261, 12.95451
1155.743, 12.49441
1156.225, 12.29898
1156.707, 11.99670
1157.189, 11.41324
1157.671, 10.91144
1158.153, 10.87560
1158.636, 11.18050
1159.118, 11.36292
1159.600, 11.41248
1160.082, 11.32455
1160.564, 10.90290
1161.046, 10.59852
1161.528, 10.58382
1162.010, 10.68307
1162.493, 10.71876
1162.975, 10.69306
1163.457, 10.60133
1163.939, 10.45074
1164.421, 10.32582
1164.903, 10.32381
1165.385, 10.30228
1165.867, 10.15255
1166.349, 9.974404
1166.832, 9.964328
1167.314, 10.10385
1167.796, 10.14933
1168.278, 10.07378
1168.760, 9.944994
1169.242, 9.716784
1169.724, 9.542518
1170.206, 9.575482
1170.688, 9.717666
1171.171, 9.715619
1171.653, 9.572051
1172.135, 9.484181
1172.617, 9.499266
1173.099, 9.487285
1173.581, 9.265244
1174.063, 9.039308
1174.545, 8.985473
1175.028, 9.071626
1175.510, 9.162297
1175.992, 9.259342
1176.474, 9.353715
1176.956, 9.472310
1177.438, 9.466928
1177.920, 9.000071
1178.402, 8.491644
1178.885, 8.379319
1179.367, 8.659829
1179.849, 8.872358
1180.331, 9.021935
1180.813, 9.052851
1181.295, 8.907802
1181.777, 8.736313
1182.259, 8.681742
1182.741, 8.694830
1183.224, 8.750845
1183.706, 8.860839
1184.188, 8.794493
1184.670, 8.519730
1185.152, 8.293316
1185.634, 8.231664
1186.116, 8.269595
1186.598, 8.384143
1187.081, 8.528239
1187.563, 8.644154
1188.045, 8.738172
1188.527, 8.724056
1189.009, 8.580205
1189.491, 8.455598
1189.973, 8.415865
1190.455, 8.456607
1190.938, 8.738491
1191.420, 9.037145
1191.902, 8.948783
1192.384, 8.211145
1192.866, 7.674042
1193.348, 7.339841
1193.830, 7.193002
1194.312, 7.295129
1194.794, 7.514856
1195.276, 7.767164
1195.759, 7.989842
1196.241, 8.036839
1196.723, 7.757084
1197.205, 7.621422
1197.687, 7.655995
1198.169, 7.741754
1198.651, 7.852850
1199.133, 7.912306
1199.616, 7.732437
1200.098, 7.425531
1200.580, 7.288417
1201.062, 7.491807
1201.544, 7.554222
1202.026, 7.431742
1202.508, 7.262355
1202.990, 7.135303
1203.473, 7.055026
1203.955, 7.039187
1204.437, 7.075017
1204.919, 7.128878
1205.401, 7.257738
1205.883, 7.219972
1206.365, 6.944602
1206.847, 6.715155
1207.329, 6.875873
1207.812, 7.190793
1208.294, 7.387496
1208.776, 7.469034
1209.258, 7.494974
1209.740, 7.453092
1210.222, 7.414536
1210.704, 7.377543
1211.186, 7.383382
1211.668, 7.460241
1212.151, 7.612997
1212.633, 7.981614
1213.115, 8.473467
1213.597, 8.507169
1214.079, 7.834397
1214.561, 7.369930
1215.043, 7.258886
1215.525, 7.303154
1216.008, 7.388690
1216.490, 7.440925
1216.972, 7.300406
1217.454, 7.010308
1217.936, 6.937333
1218.418, 7.167282
1218.900, 7.371706
1219.382, 7.498220
1219.865, 7.585665
1220.347, 7.728477
1220.829, 7.821120
1221.311, 7.716681
1221.793, 7.425313
1222.275, 7.130105
1222.757, 6.810161
1223.239, 6.616559
1223.721, 6.590067
1224.203, 6.640892
1224.686, 6.792205
1225.168, 6.881300
1225.650, 6.663400
1226.132, 6.165583
1226.614, 5.882309
1227.096, 5.846208
1227.578, 5.883518
1228.061, 5.976344
1228.543, 6.039561
1229.025, 5.943982
1229.507, 5.804312
1229.989, 5.711061
1230.471, 5.678061
1230.953, 5.747789
1231.435, 5.940446
1231.917, 6.060359
1232.400, 6.060396
1232.882, 5.988867
1233.364, 5.818700
1233.846, 5.657079
1234.328, 5.619048
1234.810, 5.684918
1235.292, 5.714824
1235.774, 5.706784
1236.256, 5.700645
1236.739, 5.702316
1237.221, 5.727203
1237.703, 5.842946
1238.185, 5.941185
1238.667, 5.907815
1239.149, 5.778031
1239.631, 5.704570
1240.113, 5.685732
1240.596, 5.625571
1241.078, 5.481766
1241.560, 5.407212
1242.042, 5.572949
1242.524, 5.799097
1243.006, 5.999262
1243.488, 6.149078
1243.970, 6.125931
1244.453, 5.951591
1244.935, 5.794505
1245.417, 5.686088
1245.899, 5.644951
1246.381, 5.754319
1246.863, 5.856236
1247.345, 5.848733
1247.827, 5.776661
1248.309, 5.802870
1248.792, 5.898928
1249.274, 5.929385
1249.756, 5.848117
1250.238, 5.793186
1250.720, 5.873408
1251.202, 5.949181
1251.684, 5.982173
1252.166, 5.953836
1252.648, 5.744429
1253.131, 5.437330
1253.613, 5.298143
1254.095, 5.410316
1254.577, 5.498521
1255.059, 5.467587
1255.541, 5.405650
1256.023, 5.327867
1256.505, 5.256861
1256.988, 5.276772
1257.470, 5.329099
1257.952, 5.268672
1258.434, 5.046852
1258.916, 4.907743
1259.398, 4.918067
1259.880, 4.935469
1260.362, 4.905027
1260.844, 4.873424
1261.327, 4.930497
1261.809, 5.031928
1262.291, 5.137629
1262.773, 5.248643
1263.255, 5.183870
1263.737, 4.865056
1264.219, 4.631248
1264.701, 4.597212
1265.183, 4.673181
1265.666, 4.842281
1266.148, 4.994993
1266.630, 4.951831
1267.112, 4.693816
1267.594, 4.666697
1268.076, 4.915930
1268.558, 5.020851
1269.040, 4.822104
1269.523, 4.589384
1270.005, 4.627204
1270.487, 4.720940
1270.969, 4.629698
1271.451, 4.398423
1271.933, 4.314370
1272.415, 4.376839
1272.897, 4.524698
1273.380, 4.774974
1273.862, 4.914717
1274.344, 4.630447
1274.826, 4.341443
1275.308, 4.351032
1275.790, 4.548894
1276.272, 4.562848
1276.754, 4.425569
1277.236, 4.308002
1277.719, 4.246530
1278.201, 4.203555
1278.683, 4.143831
1279.165, 4.123266
1279.647, 4.173162
1280.129, 4.262218
1280.611, 4.336379
1281.093, 4.394186
1281.576, 4.441898
1282.058, 4.482731
1282.540, 4.457300
1283.022, 4.277689
1283.504, 4.156279
1283.986, 4.171286
1284.468, 4.217368
1284.950, 4.051306
1285.432, 3.843001
1285.915, 3.943012
1286.397, 4.373632
1286.879, 4.549041
1287.361, 4.328495
1287.843, 4.182117
1288.325, 4.226705
1288.807, 4.324820
1289.289, 4.334096
1289.771, 4.301160
1290.254, 4.263469
1290.736, 4.228691
1291.218, 4.236027
1291.700, 4.302473
1292.182, 4.203961
1292.664, 3.879951
1293.146, 3.626579
1293.628, 3.739746
1294.111, 3.969742
1294.593, 4.226118
1295.075, 4.436729
1295.557, 4.415807
1296.039, 4.187292
1296.521, 3.998310
1297.003, 3.879486
1297.485, 3.825145
1297.968, 3.851066
1298.450, 3.926628
1298.932, 4.071162
1299.414, 4.210720
1299.896, 4.204668
1300.378, 4.104285
1300.860, 4.076080
1301.342, 4.122144
1301.824, 4.135527
##END=



