##NAMES=Linarite
##RRUFFID=R120094
##IDEAL CHEMISTRY=Pb^2+^Cu^2+^S^6+^O_4_(OH)_2_
##LOCALITY=Daoping mine, Guangxi, China
##OWNER=RRUFF
##SOURCE=Michael Scott 
##DESCRIPTION=Massive crystalline blebs associated with cerussite, dundasite R060760, and anglesite
##STATUS=The identification of this mineral has been confirmed by single-crystal X-ray diffraction.
##URL=rruff.info/R120094
91.12140, 0.0000000E+00
91.60352, 402.2744
92.08563, 399.4480
92.56775, 399.0403
93.04987, 401.9486
93.53198, 406.2906
94.01410, 407.0283
94.49622, 404.0468
94.97833, 398.7255
95.46045, 392.1249
95.94257, 384.1950
96.42468, 376.9704
96.90680, 369.7019
97.38892, 364.0160
97.87103, 361.3385
98.35315, 360.6205
98.83527, 359.5273
99.31738, 356.5787
99.79950, 351.1132
100.2816, 346.4931
100.7637, 342.5727
101.2458, 339.2875
101.7280, 336.6240
102.2101, 334.5269
102.6922, 332.9664
103.1743, 332.0440
103.6564, 331.6917
104.1385, 331.4701
104.6207, 331.3992
105.1028, 331.3611
105.5849, 330.9842
106.0670, 330.1701
106.5491, 328.7388
107.0313, 326.7007
107.5134, 324.0497
107.9955, 320.7461
108.4776, 316.3356
108.9597, 310.3238
109.4418, 305.3462
109.9240, 302.7343
110.4061, 301.0608
110.8882, 299.3727
111.3703, 297.2939
111.8524, 295.0513
112.3345, 293.2924
112.8167, 292.6352
113.2988, 291.6515
113.7809, 290.0882
114.2630, 288.1068
114.7451, 285.8355
115.2272, 283.3356
115.7094, 280.6228
116.1915, 278.4595
116.6736, 277.3972
117.1557, 276.2285
117.6378, 274.4959
118.1199, 272.2682
118.6021, 269.8407
119.0842, 267.3243
119.5663, 264.7521
120.0484, 263.1055
120.5305, 262.9065
121.0126, 263.2743
121.4948, 263.6260
121.9769, 263.9295
122.4590, 263.8981
122.9411, 263.2448
123.4232, 262.0515
123.9053, 260.2073
124.3875, 257.2042
124.8696, 253.4827
125.3517, 250.3423
125.8338, 248.2500
126.3159, 246.3258
126.7980, 243.9831
127.2802, 241.2537
127.7623, 238.3367
128.2444, 235.2690
128.7265, 232.0282
129.2086, 229.0210
129.6907, 226.5210
130.1729, 224.0902
130.6550, 221.5512
131.1371, 218.8782
131.6192, 216.1533
132.1013, 213.4201
132.5834, 210.2809
133.0656, 207.9678
133.5477, 206.9765
134.0298, 206.3780
134.5119, 205.4267
134.9940, 203.8851
135.4761, 202.0764
135.9583, 200.7486
136.4404, 199.9433
136.9225, 199.6301
137.4046, 200.3697
137.8867, 201.4966
138.3688, 201.9868
138.8510, 201.2948
139.3331, 199.8266
139.8152, 198.9223
140.2973, 198.8890
140.7794, 198.8336
141.2615, 198.2631
141.7437, 197.3019
142.2258, 196.5373
142.7079, 196.4635
143.1900, 196.6851
143.6721, 196.3103
144.1542, 194.8204
144.6364, 193.3137
145.1185, 193.0993
145.6006, 194.4241
146.0827, 195.5353
146.5648, 195.4258
147.0469, 194.6511
147.5291, 193.6080
148.0112, 192.2451
148.4933, 190.8930
148.9754, 190.3959
149.4575, 191.3477
149.9396, 192.1590
150.4218, 192.3923
150.9039, 192.1886
151.3860, 191.7266
151.8681, 191.1042
152.3502, 190.3138
152.8323, 189.3346
153.3145, 188.1931
153.7966, 186.7928
154.2787, 184.9033
154.7608, 182.7223
155.2429, 180.6174
155.7250, 178.8855
156.2072, 177.5692
156.6893, 176.0332
157.1714, 173.9913
157.6535, 172.0271
158.1356, 170.3575
158.6177, 168.9903
159.0999, 167.8284
159.5820, 166.8083
160.0641, 165.9559
160.5462, 165.0592
161.0283, 164.3534
161.5104, 163.4599
161.9926, 161.8905
162.4747, 159.6010
162.9568, 157.3243
163.4389, 155.9268
163.9210, 155.3619
164.4031, 154.8419
164.8853, 154.3329
165.3674, 153.7687
165.8495, 152.9732
166.3316, 151.7957
166.8137, 150.7357
167.2958, 150.4702
167.7780, 150.7900
168.2601, 150.8974
168.7422, 150.1857
169.2243, 148.8942
169.7064, 148.0129
170.1885, 147.8097
170.6707, 147.8624
171.1528, 148.0738
171.6349, 148.3434
172.1170, 148.3005
172.5991, 147.3932
173.0812, 145.5526
173.5634, 144.3327
174.0455, 144.6839
174.5276, 144.9960
175.0097, 144.4767
175.4918, 143.1951
175.9739, 141.7861
176.4561, 141.0527
176.9382, 141.3765
177.4203, 141.0364
177.9024, 139.4757
178.3845, 137.7662
178.8666, 136.4179
179.3488, 135.5255
179.8309, 134.9096
180.3130, 134.3591
180.7951, 133.9222
181.2772, 133.4450
181.7593, 132.9711
182.2415, 132.4389
182.7236, 131.7823
183.2057, 130.9935
183.6878, 130.1356
184.1699, 129.2699
184.6520, 128.1411
185.1342, 127.6178
185.6163, 128.4156
186.0984, 129.5351
186.5805, 129.8882
187.0626, 129.1394
187.5447, 127.7458
188.0269, 126.2823
188.5090, 124.5483
188.9911, 123.4542
189.4732, 123.7535
189.9553, 124.7454
190.4374, 125.1711
190.9196, 124.5705
191.4017, 123.5102
191.8838, 122.8015
192.3659, 122.4570
192.8480, 122.1221
193.3301, 121.5276
193.8123, 120.7846
194.2944, 120.3628
194.7765, 120.6483
195.2586, 120.9550
195.7407, 120.4797
196.2228, 119.2093
196.7050, 117.9712
197.1871, 117.5226
197.6692, 117.8154
198.1513, 117.7457
198.6334, 116.8505
199.1155, 115.7132
199.5977, 114.5690
200.0798, 113.4713
200.5619, 112.6858
201.0440, 112.6515
201.5261, 113.5394
202.0082, 114.0344
202.4904, 113.5853
202.9725, 112.9705
203.4546, 112.5033
203.9367, 112.2475
204.4188, 112.1538
204.9009, 112.2076
205.3831, 112.5018
205.8652, 112.6519
206.3473, 112.4502
206.8294, 112.2571
207.3115, 112.3189
207.7936, 112.6544
208.2758, 113.0790
208.7579, 113.3343
209.2400, 113.3447
209.7221, 113.3347
210.2042, 113.1830
210.6863, 113.0949
211.1685, 113.2778
211.6506, 113.7414
212.1327, 114.2666
212.6148, 114.5387
213.0969, 114.4366
213.5790, 114.2900
214.0612, 114.0154
214.5433, 113.7503
215.0254, 113.6554
215.5075, 113.7536
215.9896, 113.8573
216.4717, 113.6764
216.9539, 112.9839
217.4360, 112.5594
217.9181, 112.7110
218.4002, 112.9882
218.8823, 112.8385
219.3644, 112.1247
219.8466, 111.3593
220.3287, 111.2800
220.8108, 111.9965
221.2929, 112.7485
221.7750, 113.6996
222.2571, 114.5349
222.7393, 114.8048
223.2214, 114.3789
223.7035, 113.6144
224.1856, 112.8217
224.6677, 112.0012
225.1498, 111.3823
225.6320, 111.2599
226.1141, 111.3194
226.5962, 111.0069
227.0783, 110.1614
227.5604, 109.1512
228.0425, 108.2479
228.5247, 107.4542
229.0068, 106.8467
229.4889, 106.5400
229.9710, 106.4388
230.4531, 106.3596
230.9352, 106.3396
231.4174, 106.2206
231.8995, 105.8529
232.3816, 105.2980
232.8637, 104.7081
233.3458, 104.2160
233.8279, 103.7517
234.3101, 103.0098
234.7922, 101.7206
235.2743, 100.6249
235.7564, 100.2950
236.2385, 100.4368
236.7206, 100.4380
237.2028, 99.75687
237.6849, 98.64783
238.1670, 98.23896
238.6491, 98.94276
239.1312, 99.77914
239.6133, 100.5715
240.0955, 101.1786
240.5776, 101.3490
241.0597, 100.8243
241.5418, 99.77106
242.0239, 99.00902
242.5060, 98.70486
242.9882, 98.48820
243.4703, 98.21200
243.9524, 97.94764
244.4345, 97.85177
244.9166, 98.06960
245.3987, 98.46152
245.8809, 98.33794
246.3630, 97.17102
246.8451, 96.14262
247.3272, 95.53608
247.8093, 95.18843
248.2914, 94.91794
248.7736, 94.63749
249.2557, 94.31449
249.7378, 93.81129
250.2199, 92.83592
250.7020, 92.04070
251.1841, 91.53757
251.6663, 91.24865
252.1484, 91.12132
252.6305, 91.13272
253.1126, 91.21786
253.5947, 91.17245
254.0768, 91.01680
254.5590, 90.67606
255.0411, 89.80850
255.5232, 88.88531
256.0053, 88.52921
256.4874, 89.00020
256.9695, 89.88805
257.4517, 90.20137
257.9338, 89.29514
258.4159, 88.53720
258.8980, 87.92228
259.3801, 87.46426
259.8622, 87.23342
260.3444, 87.24721
260.8265, 87.34676
261.3086, 87.23006
261.7907, 86.69291
262.2728, 86.24497
262.7549, 85.91722
263.2371, 85.66686
263.7192, 85.55598
264.2013, 85.58507
264.6834, 85.48941
265.1655, 84.83245
265.6476, 83.25834
266.1298, 81.96876
266.6119, 80.71135
267.0940, 79.89318
267.5761, 80.18602
268.0582, 81.66900
268.5403, 83.34310
269.0225, 84.04136
269.5046, 83.50854
269.9867, 82.93075
270.4688, 82.38017
270.9509, 81.76496
271.4330, 80.86140
271.9152, 79.67817
272.3973, 78.67954
272.8794, 78.33205
273.3615, 78.70934
273.8436, 79.19396
274.3257, 80.19653
274.8079, 81.00978
275.2900, 80.76846
275.7721, 79.52340
276.2542, 78.51313
276.7363, 78.76221
277.2184, 80.16528
277.7006, 81.21522
278.1827, 82.15563
278.6648, 82.53690
279.1469, 81.60456
279.6290, 79.55241
280.1111, 77.88387
280.5933, 77.60873
281.0754, 78.40441
281.5575, 78.90726
282.0396, 79.10870
282.5217, 79.03821
283.0038, 78.48622
283.4860, 77.57798
283.9681, 76.97327
284.4502, 77.01437
284.9323, 77.52876
285.4144, 78.14037
285.8965, 78.99348
286.3787, 79.60551
286.8608, 79.66028
287.3429, 79.24360
287.8250, 78.62188
288.3071, 77.76913
288.7892, 76.90057
289.2714, 76.28935
289.7535, 75.92586
290.2356, 75.78237
290.7177, 75.94571
291.1998, 76.32228
291.6819, 76.68106
292.1641, 76.99438
292.6462, 77.23173
293.1283, 77.43342
293.6104, 77.59291
294.0925, 77.46922
294.5746, 76.64483
295.0568, 75.52573
295.5389, 74.97583
296.0210, 75.21050
296.5031, 75.67032
296.9852, 75.86971
297.4673, 75.90524
297.9495, 76.04929
298.4316, 76.67260
298.9137, 77.34570
299.3958, 77.34653
299.8779, 76.55337
300.3600, 75.59616
300.8422, 74.56445
301.3243, 73.70344
301.8064, 73.57167
302.2885, 74.79571
302.7706, 76.30848
303.2527, 76.80407
303.7349, 76.21661
304.2170, 75.58032
304.6991, 75.40610
305.1812, 75.45060
305.6633, 75.34341
306.1454, 74.94075
306.6276, 74.63505
307.1097, 74.89552
307.5918, 75.68171
308.0739, 76.27568
308.5560, 76.30341
309.0381, 76.15237
309.5203, 76.27651
310.0024, 76.70865
310.4845, 77.19351
310.9666, 77.64648
311.4487, 78.03502
311.9308, 78.15308
312.4130, 77.81395
312.8951, 77.40136
313.3772, 77.20876
313.8593, 77.22761
314.3414, 77.46032
314.8235, 78.10300
315.3057, 78.95296
315.7878, 79.44497
316.2699, 79.40414
316.7520, 79.30919
317.2341, 79.42174
317.7162, 79.73657
318.1984, 80.30479
318.6805, 81.39844
319.1626, 82.63885
319.6447, 83.30128
320.1268, 83.23476
320.6089, 83.35049
321.0911, 84.34325
321.5732, 85.80295
322.0553, 87.22965
322.5374, 88.64195
323.0195, 89.81289
323.5016, 90.26091
323.9838, 89.97930
324.4659, 90.15515
324.9480, 91.67079
325.4301, 93.57070
325.9122, 94.57787
326.3943, 94.47149
326.8765, 94.33732
327.3586, 94.97720
327.8407, 96.28416
328.3228, 97.67793
328.8049, 99.10387
329.2870, 100.4685
329.7692, 101.5819
330.2513, 102.4730
330.7334, 103.5565
331.2155, 105.2153
331.6976, 107.1891
332.1797, 108.7717
332.6619, 109.7078
333.1440, 110.7661
333.6261, 112.7425
334.1082, 115.3324
334.5903, 117.8988
335.0724, 120.4619
335.5546, 122.7769
336.0367, 124.3946
336.5188, 125.2479
337.0009, 126.0323
337.4830, 127.0605
337.9651, 128.3167
338.4473, 129.8041
338.9294, 131.7868
339.4115, 133.5848
339.8936, 134.7107
340.3757, 135.1862
340.8578, 135.0786
341.3400, 134.1873
341.8221, 132.9283
342.3042, 132.0527
342.7863, 131.6881
343.2684, 130.9907
343.7505, 129.3062
344.2327, 126.9916
344.7148, 124.8956
345.1969, 123.2076
345.6790, 121.7392
346.1611, 120.3767
346.6432, 119.0981
347.1254, 117.6921
347.6075, 115.7256
348.0896, 113.7876
348.5717, 112.8000
349.0538, 112.8672
349.5359, 113.0027
350.0181, 112.4401
350.5002, 111.3250
350.9823, 110.4083
351.4644, 109.6899
351.9465, 109.2198
352.4286, 109.0963
352.9108, 109.2755
353.3929, 109.6213
353.8750, 110.2365
354.3571, 110.7972
354.8392, 110.4082
355.3214, 108.5178
355.8035, 107.0498
356.2856, 107.1160
356.7677, 107.9928
357.2498, 108.3639
357.7319, 107.8257
358.2141, 106.8726
358.6962, 106.0913
359.1783, 105.4583
359.6604, 105.1370
360.1425, 105.6261
360.6246, 106.1386
361.1068, 105.9637
361.5889, 105.0318
362.0710, 103.6047
362.5531, 101.7934
363.0352, 99.60538
363.5173, 97.74232
363.9995, 96.26254
364.4816, 95.00272
364.9637, 94.06560
365.4458, 93.30247
365.9279, 92.37857
366.4100, 91.13216
366.8922, 89.58261
367.3743, 87.78291
367.8564, 85.32726
368.3385, 83.20589
368.8206, 81.61655
369.3027, 80.39381
369.7849, 79.39706
370.2670, 78.58237
370.7491, 77.91722
371.2312, 77.39664
371.7133, 77.18473
372.1954, 76.58231
372.6776, 75.25405
373.1597, 73.85176
373.6418, 72.69255
374.1239, 71.82097
374.6060, 71.21748
375.0881, 70.90810
375.5703, 70.87646
376.0524, 70.50419
376.5345, 69.33941
377.0166, 68.35679
377.4987, 67.84191
377.9808, 67.62624
378.4630, 67.42568
378.9451, 67.10839
379.4272, 66.80099
379.9093, 66.84288
380.3914, 67.71274
380.8735, 68.11586
381.3557, 67.90170
381.8378, 67.33823
382.3199, 66.44165
382.8020, 65.31491
383.2841, 64.30820
383.7662, 63.85086
384.2484, 64.02718
384.7305, 64.14979
385.2126, 64.04494
385.6947, 64.05616
386.1768, 64.44908
386.6589, 65.03410
387.1411, 65.41766
387.6232, 65.33111
388.1053, 64.92358
388.5874, 64.78027
389.0695, 65.23388
389.5516, 65.30496
390.0338, 64.36555
390.5159, 63.21767
390.9980, 62.67043
391.4801, 62.94081
391.9622, 63.45581
392.4443, 63.48455
392.9265, 62.96794
393.4086, 62.54508
393.8907, 62.38747
394.3728, 62.25575
394.8549, 61.99398
395.3370, 61.63066
395.8192, 61.29557
396.3013, 61.02940
396.7834, 60.85557
397.2655, 60.87990
397.7476, 61.16754
398.2297, 61.48431
398.7119, 61.87463
399.1940, 62.17102
399.6761, 62.04619
400.1582, 61.21740
400.6403, 60.39633
401.1224, 60.40303
401.6046, 61.18933
402.0867, 61.95349
402.5688, 62.52965
403.0509, 62.89148
403.5330, 62.95437
404.0151, 62.70937
404.4973, 62.57646
404.9794, 62.91824
405.4615, 63.44094
405.9436, 63.57070
406.4257, 63.19935
406.9078, 62.77634
407.3900, 62.64014
407.8721, 62.76974
408.3542, 62.99061
408.8363, 63.58090
409.3184, 64.00026
409.8005, 63.60294
410.2827, 62.67451
410.7648, 62.29313
411.2469, 63.05288
411.7290, 64.38607
412.2111, 64.93203
412.6932, 64.26655
413.1754, 63.99580
413.6575, 64.75429
414.1396, 65.84525
414.6217, 66.51956
415.1038, 66.66093
415.5859, 66.65945
416.0681, 66.90555
416.5502, 67.43320
417.0323, 67.83083
417.5144, 67.79283
417.9965, 67.96008
418.4786, 68.71610
418.9608, 69.85329
419.4429, 70.96424
419.9250, 71.83775
420.4071, 72.56076
420.8892, 73.38884
421.3713, 74.60287
421.8535, 75.47021
422.3356, 75.56875
422.8177, 75.62025
423.2998, 76.19251
423.7819, 77.34517
424.2640, 78.75091
424.7462, 80.07924
425.2283, 81.32299
425.7104, 82.67619
426.1925, 84.31643
426.6746, 85.87392
427.1567, 87.10551
427.6389, 88.21816
428.1210, 89.53188
428.6031, 91.21284
429.0852, 93.12343
429.5673, 94.98745
430.0494, 96.79720
430.5316, 98.59921
431.0137, 100.1938
431.4958, 101.9247
431.9779, 104.1402
432.4600, 106.8156
432.9421, 109.4239
433.4243, 111.8244
433.9064, 113.8798
434.3885, 115.0289
434.8706, 115.2441
435.3527, 114.5525
435.8348, 112.6909
436.3170, 109.9927
436.7991, 106.8567
437.2812, 103.2421
437.7633, 99.42636
438.2454, 95.46748
438.7275, 91.43056
439.2097, 87.91723
439.6918, 85.25391
440.1739, 83.05600
440.6560, 80.67852
441.1381, 78.03600
441.6202, 75.90253
442.1024, 74.64363
442.5845, 73.92635
443.0666, 73.46129
443.5487, 73.19936
444.0308, 73.06331
444.5129, 73.01476
444.9951, 73.04591
445.4772, 73.07140
445.9593, 72.98766
446.4414, 73.01710
446.9235, 73.30369
447.4056, 73.72410
447.8878, 74.06423
448.3699, 74.25465
448.8520, 74.43336
449.3341, 74.76083
449.8162, 75.01431
450.2983, 76.13955
450.7805, 79.14196
451.2626, 81.95277
451.7447, 83.01841
452.2268, 82.94311
452.7089, 83.53749
453.1910, 86.08230
453.6732, 90.06944
454.1553, 93.32231
454.6374, 95.29183
455.1195, 97.44833
455.6016, 100.3955
456.0837, 103.3640
456.5659, 105.6360
457.0480, 107.1232
457.5301, 108.2948
458.0122, 109.9188
458.4943, 111.9682
458.9764, 112.6557
459.4586, 111.5614
459.9407, 109.5646
460.4228, 107.1897
460.9049, 104.3479
461.3870, 100.7598
461.8691, 95.98882
462.3513, 91.00010
462.8334, 87.07387
463.3155, 84.17204
463.7976, 81.27280
464.2797, 77.94490
464.7618, 74.64009
465.2440, 71.84985
465.7261, 69.54755
466.2082, 67.71931
466.6903, 66.61985
467.1724, 65.84322
467.6545, 64.88799
468.1367, 63.72836
468.6188, 62.60006
469.1009, 61.65412
469.5830, 60.87943
470.0651, 60.18808
470.5472, 59.38376
471.0294, 58.89601
471.5115, 58.99235
471.9936, 59.39876
472.4757, 59.86688
472.9578, 60.30427
473.4399, 60.55353
473.9221, 60.39344
474.4042, 59.73043
474.8863, 59.19624
475.3684, 58.71781
475.8505, 58.42138
476.3326, 58.49008
476.8148, 58.74675
477.2969, 58.87098
477.7790, 58.70043
478.2611, 58.42581
478.7432, 58.47081
479.2253, 58.94702
479.7075, 59.42831
480.1896, 59.79806
480.6717, 60.21858
481.1538, 60.92866
481.6359, 61.81700
482.1180, 62.43624
482.6002, 62.32505
483.0823, 61.77599
483.5644, 61.65729
484.0465, 62.08519
484.5286, 62.52406
485.0107, 62.78228
485.4929, 62.89862
485.9750, 62.88267
486.4571, 62.70202
486.9392, 62.55830
487.4213, 62.44611
487.9034, 62.47717
488.3856, 62.95631
488.8677, 63.96819
489.3498, 65.17253
489.8319, 66.35442
490.3140, 67.48913
490.7961, 68.39909
491.2783, 68.81956
491.7604, 69.30560
492.2425, 70.15466
492.7246, 71.24211
493.2067, 72.31083
493.6888, 73.26595
494.1710, 74.26701
494.6531, 75.58302
495.1352, 77.43881
495.6173, 78.88136
496.0994, 79.45610
496.5815, 80.11915
497.0637, 81.31203
497.5458, 82.95647
498.0279, 84.85796
498.5100, 86.94061
498.9921, 89.04752
499.4742, 90.75423
499.9564, 91.78718
500.4385, 93.10999
500.9206, 95.22330
501.4027, 97.38599
501.8848, 98.86339
502.3669, 99.83401
502.8491, 101.3333
503.3312, 104.6254
503.8133, 108.8361
504.2954, 111.4495
504.7775, 112.1823
505.2596, 112.6128
505.7418, 113.4586
506.2239, 114.3953
506.7060, 114.9385
507.1881, 114.9821
507.6702, 114.9729
508.1523, 115.3944
508.6345, 115.8245
509.1166, 115.4673
509.5987, 114.2017
510.0808, 112.6600
510.5629, 111.3768
511.0450, 110.2974
511.5272, 108.7570
512.0093, 106.3935
512.4914, 104.0560
512.9735, 102.3603
513.4556, 100.6774
513.9377, 97.91638
514.4199, 93.89763
514.9020, 89.68206
515.3841, 86.72517
515.8662, 85.29336
516.3483, 83.31631
516.8304, 80.08871
517.3126, 77.06148
517.7947, 74.58778
518.2768, 72.59518
518.7589, 71.02269
519.2410, 69.86465
519.7231, 68.83743
520.2053, 67.51580
520.6874, 65.88171
521.1695, 64.22403
521.6516, 62.39790
522.1337, 60.80409
522.6158, 59.65846
523.0980, 58.92389
523.5801, 58.52284
524.0622, 58.70809
524.5443, 58.94200
525.0264, 58.65393
525.5085, 57.89789
525.9907, 56.93896
526.4728, 55.76054
526.9549, 54.65169
527.4370, 54.13433
527.9191, 54.32957
528.4012, 54.27191
528.8834, 53.55177
529.3655, 52.81966
529.8476, 52.51556
530.3297, 52.58674
530.8118, 52.88934
531.2939, 53.38292
531.7761, 53.82174
532.2582, 53.50922
532.7403, 51.62989
533.2224, 50.51283
533.7045, 50.80211
534.1866, 51.23191
534.6688, 50.99010
535.1509, 50.20097
535.6330, 49.45466
536.1151, 49.10915
536.5972, 49.10228
537.0793, 49.38892
537.5615, 50.13972
538.0436, 50.46058
538.5257, 49.62561
539.0078, 48.61346
539.4899, 48.40465
539.9720, 48.97769
540.4542, 49.35003
540.9363, 48.73093
541.4184, 47.78628
541.9005, 47.55146
542.3826, 48.02731
542.8647, 48.48172
543.3469, 48.52473
543.8290, 48.31384
544.3111, 48.28499
544.7932, 48.65482
545.2753, 48.68161
545.7574, 47.86581
546.2396, 46.94646
546.7217, 46.55949
547.2038, 46.70316
547.6859, 47.06307
548.1680, 47.44489
548.6501, 47.81411
549.1323, 48.01389
549.6144, 47.98001
550.0965, 47.87605
550.5786, 47.59610
551.0607, 47.35697
551.5428, 47.41093
552.0250, 47.70364
552.5071, 47.87460
552.9892, 47.57817
553.4713, 46.99408
553.9534, 46.64969
554.4355, 46.58160
554.9177, 46.57468
555.3998, 46.55561
555.8819, 46.54851
556.3640, 46.61269
556.8461, 46.76938
557.3282, 46.82545
557.8104, 46.70572
558.2925, 46.44632
558.7746, 46.00587
559.2567, 45.42217
559.7388, 44.93563
560.2209, 44.66644
560.7031, 44.62944
561.1852, 44.87273
561.6673, 45.86039
562.1494, 46.47405
562.6315, 46.56029
563.1136, 46.37720
563.5958, 45.92432
564.0779, 45.34871
564.5600, 45.04129
565.0421, 45.32851
565.5242, 45.99474
566.0063, 46.29172
566.4885, 46.07772
566.9706, 45.90520
567.4527, 46.00708
567.9348, 46.11321
568.4169, 45.95222
568.8990, 45.57053
569.3812, 45.35310
569.8633, 45.75286
570.3454, 46.30322
570.8275, 46.19669
571.3096, 45.48440
571.7917, 45.01674
572.2739, 45.25328
572.7560, 45.75214
573.2381, 45.65098
573.7202, 44.71626
574.2023, 44.14088
574.6844, 44.10556
575.1666, 44.39967
575.6487, 45.12856
576.1308, 46.06297
576.6129, 46.66463
577.0950, 46.64380
577.5771, 46.26722
578.0593, 46.13527
578.5414, 46.37344
579.0235, 46.51279
579.5056, 46.12431
579.9877, 46.01897
580.4698, 46.83427
580.9520, 48.21057
581.4341, 49.31141
581.9162, 49.73300
582.3983, 49.78094
582.8804, 49.72582
583.3625, 49.59796
583.8447, 49.80045
584.3268, 50.58659
584.8089, 51.35503
585.2910, 51.27769
585.7731, 50.47764
586.2552, 50.26140
586.7374, 50.94322
587.2195, 52.02364
587.7016, 53.45668
588.1837, 55.05610
588.6658, 56.55708
589.1479, 57.87127
589.6301, 58.98446
590.1122, 59.86433
590.5943, 60.48539
591.0764, 61.10132
591.5585, 61.25112
592.0406, 61.96797
592.5228, 64.16235
593.0049, 66.73645
593.4870, 68.38835
593.9691, 68.79580
594.4512, 68.61732
594.9333, 68.37611
595.4155, 68.06142
595.8976, 67.64750
596.3797, 67.15266
596.8618, 66.45702
597.3439, 65.32801
597.8260, 64.01490
598.3082, 63.16768
598.7903, 63.05908
599.2724, 62.72759
599.7545, 61.49969
600.2366, 60.12138
600.7188, 59.48333
601.2009, 59.56491
601.6830, 59.68107
602.1651, 59.33577
602.6472, 58.74953
603.1293, 58.74702
603.6115, 59.54301
604.0936, 60.55545
604.5757, 61.75729
605.0578, 63.11834
605.5399, 64.76198
606.0220, 66.55951
606.5042, 68.19212
606.9863, 69.50520
607.4684, 70.50794
607.9505, 71.02734
608.4326, 71.08647
608.9147, 71.69408
609.3969, 73.48949
609.8790, 75.22471
610.3611, 75.55851
610.8432, 74.57224
611.3253, 72.91479
611.8074, 70.09891
612.2896, 67.20438
612.7717, 64.50944
613.2538, 62.20194
613.7359, 60.72929
614.2180, 60.16838
614.7001, 59.84154
615.1823, 58.85298
615.6644, 57.12984
616.1465, 56.28389
616.6286, 56.95316
617.1107, 57.65497
617.5928, 58.09334
618.0750, 58.32812
618.5571, 58.25528
619.0392, 57.89326
619.5213, 57.87091
620.0034, 58.91445
620.4855, 60.57453
620.9677, 61.83728
621.4498, 62.64791
621.9319, 63.36456
622.4140, 64.01727
622.8961, 64.83559
623.3782, 66.43161
623.8604, 69.09748
624.3425, 71.50459
624.8246, 73.04978
625.3067, 74.67871
625.7888, 77.33290
626.2709, 80.58386
626.7531, 83.38831
627.2352, 85.21883
627.7173, 86.37907
628.1994, 87.38466
628.6815, 88.26437
629.1636, 88.87418
629.6458, 89.52482
630.1279, 89.44102
630.6100, 88.21179
631.0921, 86.08540
631.5742, 83.40319
632.0563, 80.05955
632.5385, 76.75230
633.0206, 74.21449
633.5027, 72.01675
633.9848, 69.05321
634.4669, 65.19668
634.9490, 61.70760
635.4312, 59.53538
635.9133, 58.43700
636.3954, 57.24031
636.8775, 55.76470
637.3596, 54.44586
637.8417, 53.14943
638.3239, 52.14030
638.8060, 51.86481
639.2881, 52.07411
639.7702, 51.99696
640.2523, 51.13229
640.7344, 49.82924
641.2166, 48.63774
641.6987, 47.53766
642.1808, 46.98131
642.6629, 47.32124
643.1450, 47.79263
643.6271, 47.65807
644.1093, 47.07164
644.5914, 46.56996
645.0735, 46.08466
645.5556, 45.86173
646.0377, 46.30146
646.5198, 46.95618
647.0020, 47.13860
647.4841, 46.74913
647.9662, 46.21855
648.4483, 45.95672
648.9304, 45.88073
649.4125, 45.28996
649.8947, 43.48973
650.3768, 42.50855
650.8589, 43.41946
651.3410, 44.65037
651.8231, 45.08194
652.3052, 44.77479
652.7874, 44.50570
653.2695, 44.71830
653.7516, 45.10760
654.2337, 45.39447
654.7158, 45.55117
655.1979, 45.37078
655.6801, 44.74045
656.1622, 44.08221
656.6443, 43.88691
657.1264, 44.18782
657.6085, 44.32161
658.0906, 44.17097
658.5728, 44.02546
659.0549, 43.88345
659.5370, 43.82178
660.0191, 44.00348
660.5012, 44.39251
660.9833, 44.67548
661.4655, 44.54475
661.9476, 44.14251
662.4297, 43.90969
662.9118, 43.86042
663.3939, 43.87635
663.8760, 43.95178
664.3582, 44.04183
664.8403, 43.99152
665.3224, 43.82353
665.8045, 44.02372
666.2866, 45.16766
666.7687, 46.17708
667.2509, 46.29282
667.7330, 45.92181
668.2151, 45.71366
668.6972, 45.85003
669.1793, 46.18988
669.6614, 46.67284
670.1436, 47.25161
670.6257, 47.17749
671.1078, 45.94457
671.5899, 45.10535
672.0720, 45.23621
672.5541, 45.82793
673.0363, 46.75285
673.5184, 47.90338
674.0005, 48.56671
674.4826, 48.07292
674.9647, 47.25314
675.4468, 46.87687
675.9290, 46.86541
676.4111, 46.98526
676.8932, 47.16613
677.3753, 47.36066
677.8574, 47.51025
678.3395, 47.61238
678.8217, 47.73503
679.3038, 47.78249
679.7859, 47.98153
680.2680, 48.66195
680.7501, 49.31057
681.2322, 49.43113
681.7144, 49.00840
682.1965, 48.40343
682.6786, 47.67761
683.1607, 47.03533
683.6428, 47.02445
684.1249, 47.53367
684.6071, 47.51676
685.0892, 46.54469
685.5713, 45.36068
686.0534, 44.80476
686.5355, 44.91912
687.0176, 45.00315
687.4998, 45.33598
687.9819, 45.29515
688.4640, 44.23374
688.9461, 43.03224
689.4282, 42.62234
689.9103, 43.06737
690.3925, 43.76223
690.8746, 44.30136
691.3567, 44.71978
691.8388, 45.14412
692.3209, 45.58514
692.8030, 45.72714
693.2852, 45.37582
693.7673, 44.91017
694.2494, 44.76555
694.7315, 44.90862
695.2136, 44.81834
695.6957, 44.20219
696.1779, 43.68092
696.6600, 43.59081
697.1421, 43.63337
697.6242, 43.42312
698.1063, 42.95746
698.5884, 42.59309
699.0706, 42.67514
699.5527, 42.92514
700.0348, 42.27905
700.5169, 40.43858
700.9990, 39.72239
701.4811, 41.11255
701.9633, 42.99299
702.4454, 44.30706
702.9275, 45.03230
703.4096, 44.95843
703.8917, 43.20441
704.3738, 41.82160
704.8560, 42.01733
705.3381, 42.83881
705.8202, 43.07105
706.3023, 42.67968
706.7844, 42.49841
707.2665, 43.14498
707.7487, 44.22552
708.2308, 44.59924
708.7129, 44.09088
709.1950, 43.68159
709.6771, 43.41328
710.1592, 43.36567
710.6414, 43.93480
711.1235, 44.70250
711.6056, 44.63978
712.0877, 43.04395
712.5698, 41.87276
713.0519, 42.59682
713.5341, 43.94963
714.0162, 44.34256
714.4983, 43.82820
714.9804, 43.46546
715.4625, 43.88178
715.9446, 44.61641
716.4268, 44.59415
716.9089, 43.53676
717.3910, 42.97973
717.8731, 43.16394
718.3552, 43.58846
718.8373, 44.27291
719.3195, 44.93741
719.8016, 45.07452
720.2837, 44.49609
720.7658, 44.08886
721.2479, 44.49632
721.7300, 45.13108
722.2122, 45.36980
722.6943, 45.25225
723.1764, 45.07297
723.6585, 44.95980
724.1406, 44.84017
724.6227, 44.54310
725.1049, 43.99865
725.5870, 43.98165
726.0691, 45.02984
726.5512, 45.72890
727.0333, 45.22449
727.5154, 44.38126
727.9976, 44.11900
728.4797, 44.50311
728.9618, 44.77901
729.4439, 44.55282
729.9260, 44.14992
730.4081, 43.74766
730.8903, 43.41763
731.3724, 43.33880
731.8545, 43.55298
732.3366, 43.87745
732.8187, 44.12584
733.3008, 44.30521
733.7830, 44.49642
734.2651, 44.65985
734.7472, 44.92286
735.2293, 45.50007
735.7114, 46.03205
736.1935, 46.17640
736.6757, 46.02462
737.1578, 46.02925
737.6399, 46.54198
738.1220, 46.97038
738.6041, 46.77799
739.0862, 46.29974
739.5684, 46.10271
740.0505, 46.23827
740.5326, 46.31129
741.0147, 45.98302
741.4968, 45.53923
741.9789, 46.05362
742.4611, 48.08609
742.9432, 48.94518
743.4253, 47.44109
743.9074, 45.89860
744.3895, 45.78959
744.8716, 46.51072
745.3538, 46.94171
745.8359, 46.81168
746.3180, 46.71392
746.8001, 46.97020
747.2822, 47.34843
747.7643, 47.60304
748.2465, 47.75927
748.7286, 48.04374
749.2107, 48.55900
749.6928, 48.96486
750.1749, 48.60649
750.6570, 47.41978
751.1392, 46.86495
751.6213, 47.18244
752.1034, 47.57837
752.5855, 47.76906
753.0676, 47.86089
753.5497, 47.91869
754.0319, 47.93743
754.5140, 48.19514
754.9961, 48.91028
755.4782, 49.72351
755.9603, 50.86620
756.4424, 51.77924
756.9246, 51.24064
757.4067, 49.25116
757.8888, 47.52407
758.3709, 47.59900
758.8530, 48.97661
759.3351, 50.08589
759.8173, 50.95167
760.2994, 51.27172
760.7815, 50.76208
761.2636, 50.07190
761.7457, 49.64683
762.2278, 49.49897
762.7100, 49.64545
763.1921, 50.48223
763.6742, 51.00015
764.1563, 50.69881
764.6384, 50.20791
765.1205, 50.03643
765.6027, 50.13055
766.0848, 50.18348
766.5669, 50.04842
767.0490, 49.89476
767.5311, 50.04127
768.0132, 50.39332
768.4954, 50.32196
768.9775, 49.71889
769.4596, 49.29446
769.9417, 49.35502
770.4238, 49.84321
770.9059, 50.78368
771.3881, 52.46831
771.8702, 53.36913
772.3523, 52.81979
772.8344, 52.31212
773.3165, 52.58657
773.7986, 53.03604
774.2808, 52.83124
774.7629, 51.95269
775.2450, 51.21536
775.7271, 51.21137
776.2092, 51.61271
776.6913, 52.02045
777.1735, 52.41966
777.6556, 52.70425
778.1377, 52.84435
778.6198, 53.07137
779.1019, 53.63512
779.5840, 54.41425
780.0662, 54.76092
780.5483, 54.37095
781.0304, 54.12408
781.5125, 54.02225
781.9946, 54.12358
782.4767, 54.63577
782.9589, 55.32908
783.4410, 55.77380
783.9231, 55.84530
784.4052, 55.77774
784.8873, 55.70362
785.3694, 55.57367
785.8516, 55.24060
786.3337, 54.78968
786.8158, 54.51826
787.2979, 54.54423
787.7800, 54.72030
788.2621, 54.85250
788.7443, 54.94490
789.2264, 55.11292
789.7085, 55.26833
790.1906, 55.77077
790.6727, 57.03799
791.1548, 58.40128
791.6370, 59.38485
792.1191, 59.95219
792.6012, 59.72707
793.0833, 57.43764
793.5654, 55.86190
794.0475, 56.64708
794.5297, 58.24089
795.0118, 59.09768
795.4939, 59.19613
795.9760, 59.29659
796.4581, 59.83149
796.9402, 60.47465
797.4224, 60.66277
797.9045, 60.48517
798.3866, 60.60551
798.8687, 61.12480
799.3508, 61.46474
799.8329, 61.22205
800.3151, 60.80115
800.7972, 61.00455
801.2793, 62.10584
801.7614, 62.75077
802.2435, 62.85535
802.7256, 62.65742
803.2078, 61.83217
803.6899, 60.99329
804.1720, 60.81901
804.6541, 61.31852
805.1362, 61.95249
805.6183, 62.69332
806.1005, 63.13422
806.5826, 62.45789
807.0647, 61.23797
807.5468, 60.96123
808.0289, 61.77577
808.5110, 62.47253
808.9932, 62.19335
809.4753, 61.21851
809.9574, 60.19179
810.4395, 58.98785
810.9216, 58.30355
811.4037, 58.38195
811.8859, 58.63809
812.3680, 58.83270
812.8501, 59.00861
813.3322, 59.30040
813.8143, 59.77681
814.2964, 59.89123
814.7786, 59.33566
815.2607, 58.57946
815.7428, 57.57804
816.2249, 56.69934
816.7070, 56.64237
817.1891, 57.37610
817.6713, 57.96159
818.1534, 57.59355
818.6355, 56.77342
819.1176, 56.50088
819.5997, 56.70256
820.0818, 56.80798
820.5640, 56.71565
821.0461, 56.53183
821.5282, 56.32031
822.0103, 56.08287
822.4924, 55.82064
822.9745, 55.46656
823.4567, 55.23400
823.9388, 55.26845
824.4209, 55.25625
824.9030, 54.97912
825.3851, 54.64756
825.8672, 54.59732
826.3494, 54.86604
826.8315, 55.00100
827.3136, 54.51567
827.7957, 54.07239
828.2778, 54.36240
828.7599, 55.05623
829.2421, 55.61263
829.7242, 55.89083
830.2063, 55.84470
830.6884, 55.35625
831.1705, 54.75029
831.6526, 54.95956
832.1348, 56.01806
832.6169, 56.76673
833.0990, 57.02491
833.5811, 57.11280
834.0632, 57.21558
834.5453, 57.27132
835.0275, 57.05517
835.5096, 56.20847
835.9917, 56.21065
836.4738, 57.91006
836.9559, 59.46682
837.4380, 60.38976
837.9202, 60.70510
838.4023, 60.35114
838.8844, 59.41039
839.3665, 58.33551
839.8486, 57.40298
840.3307, 56.39281
840.8129, 54.70671
841.2950, 52.89806
841.7771, 52.35070
842.2592, 53.06351
842.7413, 53.59237
843.2234, 52.99587
843.7056, 51.88592
844.1877, 51.53107
844.6698, 51.99593
845.1519, 52.43766
845.6340, 52.84983
846.1161, 53.19243
846.5983, 53.47023
847.0804, 53.65188
847.5625, 53.74836
848.0446, 53.77931
848.5267, 53.40028
849.0089, 52.08580
849.4910, 51.01966
849.9731, 50.46039
850.4552, 50.34072
850.9373, 50.85207
851.4194, 51.74174
851.9016, 52.34296
852.3837, 52.38122
852.8658, 52.00603
853.3479, 50.99598
853.8300, 49.82935
854.3121, 49.49646
854.7943, 49.88595
855.2764, 50.09611
855.7585, 49.73598
856.2406, 49.28015
856.7227, 49.35481
857.2048, 49.92345
857.6870, 50.61020
858.1691, 51.55722
858.6512, 52.01003
859.1333, 51.61560
859.6154, 50.93173
860.0975, 50.35255
860.5797, 49.88972
861.0618, 49.58421
861.5439, 49.50065
862.0260, 49.46219
862.5081, 49.53693
862.9902, 49.56442
863.4724, 49.21918
863.9545, 48.85151
864.4366, 49.16758
864.9187, 50.31491
865.4008, 51.29592
865.8829, 51.40364
866.3651, 51.04353
866.8472, 50.40467
867.3293, 49.72566
867.8114, 49.64116
868.2935, 50.22518
868.7756, 50.90871
869.2578, 51.28488
869.7399, 51.37494
870.2220, 51.13918
870.7041, 50.55279
871.1862, 50.17759
871.6683, 50.07219
872.1505, 50.16393
872.6326, 50.54983
873.1147, 50.95758
873.5968, 50.87968
874.0789, 50.17840
874.5610, 49.73600
875.0432, 49.96169
875.5253, 49.90076
876.0074, 48.83239
876.4895, 47.79737
876.9716, 47.83749
877.4537, 48.72865
877.9359, 49.42028
878.4180, 49.57688
878.9001, 49.44053
879.3822, 49.02046
879.8643, 48.48903
880.3464, 47.87487
880.8286, 47.33734
881.3107, 47.34489
881.7928, 48.02491
882.2749, 48.72612
882.7570, 48.65120
883.2391, 48.09027
883.7213, 48.03955
884.2034, 48.45771
884.6855, 48.62389
885.1676, 48.35640
885.6497, 47.90257
886.1318, 47.40447
886.6140, 46.92503
887.0961, 46.68711
887.5782, 46.76653
888.0603, 46.90869
888.5424, 47.36255
889.0245, 47.53120
889.5067, 46.88644
889.9888, 46.00712
890.4709, 45.50359
890.9530, 45.40232
891.4351, 45.60155
891.9172, 46.53237
892.3994, 47.19682
892.8815, 46.99813
893.3636, 46.48894
893.8457, 46.10450
894.3278, 45.91943
894.8099, 45.92910
895.2921, 46.14133
895.7742, 46.46519
896.2563, 47.00502
896.7384, 47.50038
897.2205, 47.36332
897.7026, 46.73866
898.1848, 46.22330
898.6669, 46.01083
899.1490, 46.08405
899.6311, 46.49778
900.1132, 47.08760
900.5953, 47.17742
901.0775, 46.71984
901.5596, 46.29575
902.0417, 45.97236
902.5238, 45.73542
903.0059, 45.61658
903.4880, 45.53689
903.9702, 45.31220
904.4523, 44.86289
904.9344, 44.59137
905.4165, 44.77677
905.8986, 44.77708
906.3807, 44.00607
906.8629, 43.34310
907.3450, 43.69752
907.8271, 44.87476
908.3092, 45.93894
908.7913, 46.78077
909.2734, 47.22655
909.7556, 46.93467
910.2377, 46.44789
910.7198, 46.27622
911.2019, 46.28407
911.6840, 45.99984
912.1661, 45.34517
912.6483, 44.99864
913.1304, 45.77412
913.6125, 46.98018
914.0946, 47.37241
914.5767, 47.23834
915.0588, 47.69300
915.5410, 48.82825
916.0231, 49.45251
916.5052, 48.76412
916.9873, 47.41531
917.4694, 46.56693
917.9515, 46.21899
918.4337, 46.48811
918.9158, 47.54885
919.3979, 48.40908
919.8800, 48.66586
920.3621, 48.73236
920.8442, 49.10006
921.3264, 49.70431
921.8085, 49.82953
922.2906, 48.67606
922.7727, 48.36077
923.2548, 49.94896
923.7369, 51.29744
924.2191, 51.08955
924.7012, 50.14713
925.1833, 49.72716
925.6654, 49.98901
926.1475, 50.32407
926.6296, 50.65390
927.1118, 50.89383
927.5939, 50.75278
928.0760, 50.67489
928.5581, 51.27451
929.0402, 52.40503
929.5223, 53.44952
930.0045, 54.16515
930.4866, 54.56544
930.9687, 54.34528
931.4508, 54.01295
931.9329, 54.52245
932.4150, 55.62647
932.8972, 56.46128
933.3793, 56.78769
933.8614, 56.83996
934.3435, 56.70732
934.8256, 56.69365
935.3077, 57.84945
935.7899, 60.04379
936.2720, 61.23803
936.7541, 61.12294
937.2362, 61.00440
937.7183, 61.48988
938.2004, 62.40096
938.6826, 63.45856
939.1647, 64.65926
939.6468, 66.37985
940.1289, 69.04637
940.6110, 71.16560
941.0931, 72.11028
941.5753, 72.86744
942.0574, 73.99802
942.5395, 75.49029
943.0216, 77.34083
943.5037, 79.66868
943.9858, 81.97735
944.4680, 83.95025
944.9501, 86.23184
945.4322, 89.10165
945.9143, 92.38241
946.3964, 95.80781
946.8785, 99.45227
947.3607, 103.6726
947.8428, 108.6304
948.3249, 114.1732
948.8070, 120.2380
949.2891, 126.8177
949.7712, 133.7106
950.2534, 141.1537
950.7355, 149.4401
951.2176, 158.6528
951.6997, 168.7969
952.1818, 179.7138
952.6639, 191.6863
953.1461, 205.3728
953.6282, 220.2809
954.1103, 235.0183
954.5924, 249.5568
955.0745, 264.7316
955.5566, 281.0482
956.0388, 298.3752
956.5209, 316.8579
957.0030, 336.3130
957.4851, 355.3393
957.9672, 374.0589
958.4493, 394.9455
958.9315, 418.6349
959.4136, 444.8434
959.8957, 473.6877
960.3778, 504.5549
960.8599, 536.0734
961.3420, 568.3120
961.8242, 600.3604
962.3063, 632.3434
962.7884, 663.7701
963.2705, 695.9640
963.7526, 725.5126
964.2347, 750.1506
964.7169, 769.3989
965.1990, 779.9044
965.6811, 782.2346
966.1632, 774.5861
966.6453, 756.3859
967.1274, 728.9100
967.6096, 689.3574
968.0917, 642.5895
968.5738, 593.0150
969.0559, 541.2524
969.5380, 492.1764
970.0201, 445.6394
970.5023, 403.0989
970.9844, 364.7565
971.4665, 330.6863
971.9486, 301.0465
972.4307, 275.3285
972.9128, 252.5974
973.3950, 232.5816
973.8771, 214.8372
974.3592, 199.2195
974.8413, 185.4015
975.3234, 173.2731
975.8055, 162.5945
976.2877, 153.0813
976.7698, 144.6726
977.2519, 137.4093
977.7340, 131.3178
978.2161, 126.1622
978.6982, 122.1952
979.1804, 118.7494
979.6625, 114.3242
980.1446, 109.3430
980.6267, 105.2997
981.1088, 102.4805
981.5909, 100.1443
982.0731, 97.82117
982.5552, 95.47292
983.0373, 92.85575
983.5194, 90.08235
984.0015, 88.10915
984.4836, 86.95071
984.9658, 85.35540
985.4479, 82.85162
985.9300, 80.56020
986.4121, 79.60425
986.8942, 79.54230
987.3763, 78.71944
987.8585, 76.94935
988.3406, 75.68750
988.8227, 75.17224
989.3048, 74.59244
989.7869, 73.62424
990.2690, 72.41866
990.7512, 70.98797
991.2333, 69.42277
991.7154, 69.00134
992.1975, 70.79450
992.6796, 71.42112
993.1617, 69.77155
993.6439, 68.15606
994.1260, 67.79850
994.6081, 68.01620
995.0902, 67.97781
995.5723, 67.69823
996.0544, 66.78769
996.5366, 64.12562
997.0187, 62.41329
997.5008, 62.97203
997.9829, 63.69423
998.4650, 63.19189
998.9471, 62.01231
999.4293, 61.13927
999.9114, 60.70631
1000.393, 60.43168
1000.876, 60.29281
1001.358, 60.22993
1001.840, 60.22297
1002.322, 60.27918
1002.804, 60.55518
1003.286, 60.86571
1003.768, 60.75853
1004.250, 60.08783
1004.733, 59.43322
1005.215, 59.15919
1005.697, 58.95988
1006.179, 58.45160
1006.661, 57.98276
1007.143, 58.18861
1007.625, 58.87447
1008.107, 59.19013
1008.589, 58.74840
1009.072, 58.32538
1009.554, 58.83177
1010.036, 59.49837
1010.518, 59.31197
1011.000, 58.60686
1011.482, 58.00282
1011.964, 57.64156
1012.446, 57.55237
1012.929, 57.78503
1013.411, 57.95116
1013.893, 57.42389
1014.375, 56.57470
1014.857, 56.09590
1015.339, 55.97757
1015.821, 56.15030
1016.303, 56.56605
1016.785, 57.05456
1017.268, 57.51782
1017.750, 57.88041
1018.232, 58.02553
1018.714, 57.96693
1019.196, 56.26274
1019.678, 57.93629
1020.160, 58.86143
1020.642, 59.07838
1021.125, 56.46600
1021.607, 57.50710
1022.089, 57.08408
1022.571, 56.60103
1023.053, 58.15634
1023.535, 55.95554
1024.017, 57.47852
1024.499, 57.51503
1024.981, 58.23187
1025.464, 57.47546
1025.946, 57.17414
1026.428, 58.34646
1026.910, 58.70281
1027.392, 57.77690
1027.874, 58.53698
1028.356, 56.28472
1028.838, 56.67582
1029.321, 58.20735
1029.803, 57.35551
1030.285, 58.14252
1030.767, 58.30537
1031.249, 55.63163
1031.731, 57.89100
1032.213, 58.01695
1032.695, 55.95237
1033.177, 58.04271
1033.660, 56.28004
1034.142, 55.89271
1034.624, 56.54034
1035.106, 56.10907
1035.588, 57.37883
1036.070, 57.00985
1036.552, 56.49446
1037.034, 56.61802
1037.516, 54.93099
1037.999, 56.60291
1038.481, 55.98041
1038.963, 56.49845
1039.445, 57.27501
1039.927, 56.07209
1040.409, 56.96480
1040.891, 54.60767
1041.373, 54.96981
1041.855, 55.03913
1042.338, 56.84647
1042.820, 54.50519
1043.302, 54.79177
1043.784, 56.19727
1044.266, 56.03715
1044.748, 56.53162
1045.230, 55.08823
1045.712, 55.46531
1046.195, 55.34054
1046.677, 56.94980
1047.159, 57.19017
1047.641, 55.77967
1048.123, 54.37615
1048.605, 56.11021
1049.087, 54.87044
1049.569, 55.23502
1050.052, 53.94257
1050.534, 54.08085
1051.016, 54.19645
1051.498, 55.04543
1051.980, 53.67059
1052.462, 55.18039
1052.944, 55.02295
1053.426, 55.35662
1053.908, 55.63567
1054.391, 53.67733
1054.873, 53.55312
1055.355, 56.05326
1055.837, 54.55114
1056.319, 53.85681
1056.801, 53.73672
1057.283, 56.32673
1057.765, 56.39773
1058.248, 53.45768
1058.730, 55.92826
1059.212, 55.07016
1059.694, 55.20124
1060.176, 54.97142
1060.658, 54.84844
1061.140, 53.36657
1061.622, 53.67546
1062.104, 55.44038
1062.587, 54.72289
1063.069, 55.69222
1063.551, 53.58753
1064.033, 53.30753
1064.515, 53.51186
1064.997, 53.89284
1065.479, 52.86242
1065.961, 54.65458
1066.443, 54.56739
1066.926, 52.85151
1067.408, 52.90241
1067.890, 52.65997
1068.372, 55.47134
1068.854, 54.08407
1069.336, 52.39950
1069.818, 54.04341
1070.300, 54.62046
1070.782, 53.75523
1071.265, 53.65630
1071.747, 52.10347
1072.229, 52.78040
1072.711, 52.69045
1073.193, 53.86404
1073.675, 52.31704
1074.157, 53.90200
1074.639, 52.42797
1075.122, 54.13967
1075.604, 52.60096
1076.086, 53.95779
1076.568, 51.85840
1077.050, 52.26060
1077.532, 52.86109
1078.014, 54.10203
1078.496, 52.88067
1078.979, 54.27346
1079.461, 53.37215
1079.943, 53.05509
1080.425, 52.89923
1080.907, 52.71231
1081.389, 52.12141
1081.871, 51.83162
1082.353, 53.04443
1082.835, 54.93472
1083.318, 55.54192
1083.800, 54.44372
1084.282, 53.54876
1084.764, 53.99276
1085.246, 54.43568
1085.728, 53.90383
1086.210, 53.36537
1086.692, 53.88052
1087.175, 54.92571
1087.657, 55.37117
1088.139, 55.06734
1088.621, 55.04888
1089.103, 56.11677
1089.585, 57.00281
1090.067, 56.91125
1090.549, 56.67759
1091.031, 57.00077
1091.514, 57.57984
1091.996, 57.89496
1092.478, 57.89965
1092.960, 57.89415
1093.442, 57.87324
1093.924, 58.05186
1094.406, 58.70528
1094.888, 59.37537
1095.370, 59.57520
1095.853, 59.73695
1096.335, 60.64526
1096.817, 62.12798
1097.299, 62.98400
1097.781, 62.68104
1098.263, 62.29511
1098.745, 62.03933
1099.227, 61.93637
1099.709, 61.92885
1100.192, 62.13439
1100.674, 62.94196
1101.156, 64.06570
1101.638, 64.49648
1102.120, 63.80399
1102.602, 63.33767
1103.084, 63.37492
1103.566, 63.75966
1104.049, 64.94235
1104.531, 65.98864
1105.013, 65.75526
1105.495, 64.84959
1105.977, 64.91086
1106.459, 66.35323
1106.941, 67.24220
1107.423, 66.70430
1107.906, 66.34856
1108.388, 66.63399
1108.870, 67.19698
1109.352, 68.01952
1109.834, 68.85808
1110.316, 69.35381
1110.798, 69.49220
1111.280, 69.24669
1111.762, 67.56733
1112.245, 67.08790
1112.727, 69.14779
1113.209, 71.30466
1113.691, 72.56913
1114.173, 73.14928
1114.655, 72.92910
1115.137, 72.04296
1115.619, 72.33925
1116.102, 74.98347
1116.584, 76.72991
1117.066, 76.87437
1117.548, 77.09727
1118.030, 77.97335
1118.512, 79.17773
1118.994, 80.53101
1119.476, 81.94248
1119.958, 83.01169
1120.441, 83.51791
1120.923, 84.37866
1121.405, 85.57822
1121.887, 87.19198
1122.369, 89.41151
1122.851, 91.70903
1123.333, 93.63116
1123.815, 95.43359
1124.297, 97.73918
1124.780, 100.6043
1125.262, 103.1671
1125.744, 105.4065
1126.226, 107.2666
1126.708, 108.4750
1127.190, 110.2243
1127.672, 113.2903
1128.154, 116.9438
1128.636, 120.0887
1129.119, 122.8437
1129.601, 126.3915
1130.083, 130.9432
1130.565, 133.9060
1131.047, 134.8049
1131.529, 136.0672
1132.011, 138.6835
1132.493, 141.8035
1132.976, 144.5979
1133.458, 147.1745
1133.940, 149.9192
1134.422, 152.7961
1134.904, 155.2753
1135.386, 157.3384
1135.868, 159.4128
1136.350, 161.5898
1136.833, 162.5924
1137.315, 161.4174
1137.797, 159.2327
1138.279, 158.0149
1138.761, 157.4228
1139.243, 156.3836
1139.725, 154.8967
1140.207, 153.0096
1140.689, 150.7205
1141.172, 147.9204
1141.654, 144.5557
1142.136, 141.0128
1142.618, 137.5682
1143.100, 134.3843
1143.582, 132.2414
1144.064, 130.3568
1144.546, 126.6754
1145.029, 121.7166
1145.511, 117.5537
1145.993, 114.7787
1146.475, 112.7417
1146.957, 111.1863
1147.439, 109.7010
1147.921, 108.0304
1148.403, 106.0719
1148.885, 103.5189
1149.368, 100.6989
1149.850, 98.01798
1150.332, 95.66422
1150.814, 93.94427
1151.296, 93.10972
1151.778, 92.25374
1152.260, 90.81138
1152.742, 89.20122
1153.224, 87.53327
1153.707, 85.97158
1154.189, 84.48176
1154.671, 83.28123
1155.153, 82.97340
1155.635, 83.68904
1156.117, 84.08784
1156.599, 83.42722
1157.081, 82.84605
1157.563, 82.71662
1158.046, 82.75182
1158.528, 83.03098
1159.010, 83.20539
1159.492, 82.68025
1159.974, 81.55070
1160.456, 80.78706
1160.938, 80.57999
1161.420, 80.52149
1161.903, 80.69060
1162.385, 80.87502
1162.867, 81.13013
1163.349, 81.24772
1163.831, 81.03942
1164.313, 80.58241
1164.795, 79.97672
1165.277, 79.10635
1165.760, 79.13523
1166.242, 80.43445
1166.724, 81.46873
1167.206, 82.02457
1167.688, 82.18057
1168.170, 81.87837
1168.652, 81.46313
1169.134, 81.38799
1169.616, 81.57509
1170.099, 81.62019
1170.581, 81.51910
1171.063, 81.77499
1171.545, 82.42343
1172.027, 82.61958
1172.509, 82.09757
1172.991, 81.79072
1173.473, 82.45010
1173.956, 83.49744
1174.438, 84.05132
1174.920, 84.14653
1175.402, 83.62209
1175.884, 82.75107
1176.366, 82.62389
1176.848, 83.24033
1177.330, 83.73107
1177.813, 83.71855
1178.295, 83.35824
1178.777, 82.35283
1179.259, 81.71887
1179.741, 83.59554
1180.223, 86.02544
1180.705, 85.74170
1181.187, 83.85731
1181.669, 83.20781
1182.151, 84.11922
1182.634, 84.79565
1183.116, 84.29253
1183.598, 83.94007
1184.080, 85.03671
1184.562, 85.94061
1185.044, 85.15913
1185.526, 83.95132
1186.008, 83.56760
1186.490, 83.89132
1186.973, 84.39500
1187.455, 85.00145
1187.937, 85.59819
1188.419, 86.29842
1188.901, 86.78875
1189.383, 86.95813
1189.865, 86.96683
1190.347, 86.78642
1190.830, 86.56449
1191.312, 86.35213
1191.794, 86.23075
1192.276, 86.64320
1192.758, 87.84573
1193.240, 88.74925
1193.722, 89.43489
1194.204, 89.50243
1194.687, 88.68060
1195.169, 87.78236
1195.651, 87.28438
1196.133, 87.10779
1196.615, 87.17404
1197.097, 87.42651
1197.579, 87.42490
1198.061, 87.20440
1198.543, 87.51819
1199.026, 88.40004
1199.508, 89.29424
1199.990, 89.99848
1200.472, 90.48048
1200.954, 90.71009
1201.436, 90.69138
1201.918, 90.09386
1202.400, 89.44850
1202.883, 90.30777
1203.365, 91.82484
1203.847, 91.61994
1204.329, 90.01389
1204.811, 89.46580
1205.293, 90.84743
1205.775, 92.38078
1206.257, 93.01920
1206.740, 93.14240
1207.222, 92.54472
1207.704, 92.02320
1208.186, 92.42278
1208.668, 93.31372
1209.150, 94.13250
1209.632, 94.75974
1210.114, 95.07449
1210.596, 94.89865
1211.078, 94.91008
1211.561, 95.47920
1212.043, 95.92698
1212.525, 95.85253
1213.007, 95.80710
1213.489, 96.22108
1213.971, 96.82150
1214.453, 97.16953
1214.935, 97.28353
1215.417, 97.49421
1215.900, 97.75222
1216.382, 98.35586
1216.864, 99.45422
1217.346, 100.3372
1217.828, 100.8298
1218.310, 100.6819
1218.792, 99.53748
1219.274, 98.29605
1219.757, 98.83076
1220.239, 100.6847
1220.721, 101.6921
1221.203, 101.9876
1221.685, 102.0354
1222.167, 102.0236
1222.649, 102.6603
1223.131, 104.1045
1223.614, 105.2443
1224.096, 105.1477
1224.578, 104.6697
1225.060, 104.5298
1225.542, 104.7344
1226.024, 105.4613
1226.506, 106.4366
1226.988, 107.4165
1227.470, 108.2262
1227.953, 108.4512
1228.435, 107.9470
1228.917, 107.6793
1229.399, 108.2338
1229.881, 108.7716
1230.363, 108.8118
1230.845, 108.9959
1231.327, 109.9779
1231.810, 111.1044
1232.292, 111.4709
1232.774, 111.3049
1233.256, 111.5508
1233.738, 112.3547
1234.220, 112.8843
1234.702, 112.8774
1235.184, 113.5433
1235.667, 115.3419
1236.149, 116.8432
1236.631, 117.2422
1237.113, 117.3085
1237.595, 117.9843
1238.077, 119.0094
1238.559, 119.5507
1239.041, 119.7357
1239.523, 120.2764
1240.005, 121.1129
1240.488, 121.7400
1240.970, 122.0925
1241.452, 122.4542
1241.934, 122.9673
1242.416, 123.6777
1242.898, 124.9399
1243.380, 126.0615
1243.862, 125.8990
1244.344, 125.6081
1244.827, 126.7564
1245.309, 128.6095
1245.791, 129.8465
1246.273, 130.3475
1246.755, 130.6167
1247.237, 130.6076
1247.719, 130.9813
1248.201, 132.4401
1248.684, 133.5241
1249.166, 133.1978
1249.648, 133.0955
1250.130, 134.4030
1250.612, 136.1647
1251.094, 137.0046
1251.576, 137.1535
1252.058, 138.2900
1252.541, 140.7428
1253.023, 141.5768
1253.505, 140.5532
1253.987, 139.9312
1254.469, 140.2410
1254.951, 140.6240
1255.433, 140.5601
1255.915, 140.8504
1256.397, 142.8227
1256.880, 145.3132
1257.362, 145.7151
1257.844, 145.1040
1258.326, 145.6957
1258.808, 147.0986
1259.290, 147.9986
1259.772, 148.2272
1260.254, 148.4290
1260.737, 148.8805
1261.219, 149.1779
1261.701, 148.7522
1262.183, 148.5987
1262.665, 149.2364
1263.147, 150.2839
1263.629, 151.6987
1264.111, 153.1942
1264.594, 154.4018
1265.076, 155.3426
1265.558, 156.2525
1266.040, 157.2920
1266.522, 157.6525
1267.004, 157.0969
1267.486, 156.6669
1267.968, 156.5259
1268.450, 156.7071
1268.932, 157.2410
1269.415, 158.0486
1269.897, 159.1414
1270.379, 160.2325
1270.861, 160.4612
1271.343, 160.1751
1271.825, 160.4299
1272.307, 161.1196
1272.789, 161.8955
1273.271, 162.6109
1273.754, 162.9747
1274.236, 162.8955
1274.718, 162.9196
1275.200, 163.7078
1275.682, 164.2487
1276.164, 163.6461
1276.646, 162.9097
1277.128, 162.6624
1277.611, 162.7679
1278.093, 163.0714
1278.575, 163.5486
1279.057, 164.2722
1279.539, 165.3532
1280.021, 165.7762
1280.503, 165.1761
1280.985, 164.8634
1281.468, 165.0522
1281.950, 165.3970
1282.432, 165.7556
1282.914, 166.3329
1283.396, 167.3608
1283.878, 168.4824
1284.360, 169.0612
1284.842, 169.1225
1285.324, 168.7668
##END=



