##NAMES=Linarite
##RRUFFID=R060472
##IDEAL CHEMISTRY=Pb^2+^Cu^2+^S^6+^O_4_(OH)_2_
##LOCALITY=Tiger, Arizona, USA
##OWNER=RRUFF
##SOURCE=Michael Scott
##DESCRIPTION=Blue tabular crystals
##STATUS=The identification of this mineral is confirmed by single-crystal X-ray diffraction and chemical analysis.
##URL=rruff.info/R060472
##MEASURED CHEMISTRY=Pb_1.00_Cu_1.00_(S_1.00_O_4_)(OH)_2_
159.0660, 35.84100
159.5481, 37.63045
160.0302, 38.28377
160.5123, 37.35099
160.9945, 35.74912
161.4766, 35.16222
161.9587, 37.05175
162.4408, 37.73682
162.9229, 36.60905
163.4050, 34.65364
163.8871, 32.48711
164.3693, 30.35637
164.8514, 28.60060
165.3335, 28.11549
165.8156, 29.85912
166.2977, 31.53325
166.7798, 33.51522
167.2620, 35.18794
167.7441, 35.25207
168.2262, 32.83779
168.7083, 29.18749
169.1904, 28.00569
169.6725, 30.50428
170.1547, 32.68537
170.6368, 32.36322
171.1189, 30.28411
171.6010, 29.10807
172.0831, 30.43501
172.5652, 33.09806
173.0474, 34.65566
173.5295, 34.94566
174.0116, 34.45797
174.4937, 33.07092
174.9758, 30.78442
175.4579, 29.23096
175.9401, 29.52305
176.4222, 30.78049
176.9043, 32.17003
177.3864, 33.65393
177.8685, 34.99066
178.3506, 36.16722
178.8328, 37.54578
179.3149, 37.37297
179.7970, 32.66313
180.2791, 27.27332
180.7612, 25.01428
181.2433, 27.59352
181.7255, 32.60950
182.2076, 34.74798
182.6897, 32.04970
183.1718, 29.95828
183.6539, 29.90626
184.1360, 30.81044
184.6181, 31.60637
185.1003, 31.78016
185.5824, 31.50586
186.0645, 31.40625
186.5466, 31.79068
187.0287, 31.96794
187.5108, 32.01908
187.9930, 31.77770
188.4751, 30.67786
188.9572, 28.29758
189.4393, 25.23645
189.9214, 24.98979
190.4035, 31.86402
190.8857, 36.76777
191.3678, 37.04543
191.8499, 34.26294
192.3320, 31.09758
192.8141, 29.06714
193.2962, 28.07841
193.7784, 27.46424
194.2605, 27.41888
194.7426, 27.43849
195.2247, 27.18377
195.7068, 26.82280
196.1889, 26.84583
196.6711, 27.58069
197.1532, 28.96096
197.6353, 30.44782
198.1174, 32.58907
198.5995, 34.34552
199.0816, 34.94695
199.5638, 34.53379
200.0459, 34.08136
200.5280, 34.32741
201.0101, 34.86544
201.4922, 34.59450
201.9743, 33.12770
202.4565, 31.19207
202.9386, 29.13397
203.4207, 26.92974
203.9028, 25.24080
204.3849, 24.37168
204.8670, 24.32766
205.3492, 25.29504
205.8313, 27.88821
206.3134, 30.75562
206.7955, 32.12761
207.2776, 31.74943
207.7597, 31.05231
208.2419, 30.05143
208.7240, 29.30068
209.2061, 29.65401
209.6882, 31.76341
210.1703, 34.31090
210.6524, 34.65788
211.1346, 31.57705
211.6167, 29.48263
212.0988, 30.76612
212.5809, 33.17535
213.0630, 34.53469
213.5451, 33.90608
214.0273, 32.07578
214.5094, 30.77816
214.9915, 30.21761
215.4736, 29.87636
215.9557, 29.32968
216.4378, 29.02824
216.9200, 29.73741
217.4021, 31.84809
217.8842, 34.48077
218.3663, 35.02914
218.8484, 31.32716
219.3305, 28.58550
219.8127, 27.59690
220.2948, 27.70347
220.7769, 28.37859
221.2590, 29.38400
221.7411, 30.49994
222.2232, 31.06989
222.7054, 30.46189
223.1875, 30.02080
223.6696, 29.88245
224.1517, 29.92915
224.6338, 29.98155
225.1159, 29.95743
225.5980, 29.97229
226.0802, 30.37119
226.5623, 31.98217
227.0444, 32.98579
227.5265, 32.97919
228.0086, 32.36737
228.4907, 31.57302
228.9729, 30.75717
229.4550, 30.00333
229.9371, 29.55792
230.4192, 29.53435
230.9013, 29.61265
231.3834, 30.23566
231.8656, 30.82508
232.3477, 30.29599
232.8298, 28.09481
233.3119, 25.16001
233.7940, 23.63774
234.2761, 23.98800
234.7583, 24.24139
235.2404, 23.34742
235.7225, 22.12285
236.2046, 22.37304
236.6867, 25.13277
237.1688, 28.45827
237.6510, 28.33498
238.1331, 24.14298
238.6152, 21.10855
239.0973, 21.74030
239.5794, 24.71990
240.0615, 27.23078
240.5437, 28.45190
241.0258, 29.17266
241.5079, 30.80547
241.9900, 33.41841
242.4721, 34.91041
242.9542, 33.04067
243.4364, 29.35321
243.9185, 28.36038
244.4006, 32.34256
244.8827, 36.54388
245.3648, 35.47078
245.8469, 29.84729
246.3290, 24.69564
246.8112, 22.29967
247.2933, 22.24756
247.7754, 23.58834
248.2575, 27.17880
248.7396, 30.50650
249.2217, 31.50012
249.7039, 30.64286
250.1860, 29.45128
250.6681, 28.64288
251.1502, 28.13375
251.6323, 27.51227
252.1144, 26.40896
252.5966, 25.82817
253.0787, 27.11113
253.5608, 29.33529
254.0429, 30.36254
254.5250, 28.20303
255.0071, 23.86210
255.4893, 21.28379
255.9714, 21.17039
256.4535, 21.85908
256.9356, 22.42691
257.4177, 23.15030
257.8998, 24.67770
258.3820, 27.96229
258.8641, 32.02324
259.3462, 33.06354
259.8283, 28.77231
260.3104, 25.20063
260.7925, 24.53539
261.2747, 25.56961
261.7568, 26.83663
262.2389, 27.71834
262.7210, 28.18831
263.2031, 28.08865
263.6852, 26.88298
264.1674, 26.02876
264.6495, 26.26781
265.1316, 26.81745
265.6137, 26.69107
266.0958, 25.41799
266.5779, 23.68043
267.0601, 23.22179
267.5422, 25.11323
268.0243, 26.37379
268.5064, 26.34950
268.9885, 25.73192
269.4706, 24.88337
269.9528, 23.96945
270.4349, 23.39374
270.9170, 24.13028
271.3991, 27.46109
271.8812, 29.53334
272.3633, 29.95257
272.8455, 29.34248
273.3276, 27.66728
273.8097, 25.12319
274.2918, 22.69428
274.7739, 22.10707
275.2560, 24.97963
275.7382, 26.21472
276.2202, 24.49426
276.7024, 22.47735
277.1845, 22.18473
277.6666, 23.68235
278.1487, 25.23788
278.6308, 24.39286
279.1129, 19.46986
279.5951, 18.12828
280.0772, 23.43797
280.5593, 29.01236
281.0414, 31.71454
281.5235, 31.41791
282.0056, 29.52249
282.4878, 27.15316
282.9699, 24.05116
283.4520, 22.36353
283.9341, 23.43516
284.4162, 24.39428
284.8983, 23.75160
285.3805, 21.95236
285.8626, 20.49281
286.3447, 20.63901
286.8268, 22.34533
287.3089, 22.76540
287.7910, 20.11641
288.2732, 18.19390
288.7553, 18.55117
289.2374, 20.41032
289.7195, 22.28107
290.2016, 23.29552
290.6837, 23.53284
291.1659, 23.40497
291.6480, 22.04614
292.1301, 21.33572
292.6122, 22.21922
293.0943, 23.77731
293.5764, 24.66738
294.0586, 24.26298
294.5407, 23.02599
295.0228, 22.20417
295.5049, 22.32043
295.9870, 22.22850
296.4691, 21.36200
296.9513, 20.49517
297.4334, 20.60748
297.9155, 21.98820
298.3976, 23.94808
298.8797, 25.34056
299.3618, 25.83799
299.8440, 26.30559
300.3261, 27.07352
300.8082, 27.60726
301.2903, 27.37900
301.7724, 26.32987
302.2545, 24.88177
302.7367, 23.44217
303.2188, 21.87439
303.7009, 21.03098
304.1830, 20.92727
304.6651, 21.44330
305.1472, 22.79235
305.6294, 24.80638
306.1115, 26.85781
306.5936, 28.42906
307.0757, 29.50338
307.5578, 30.32362
308.0399, 31.45144
308.5221, 31.84487
309.0042, 30.52773
309.4863, 28.04281
309.9684, 25.84240
310.4505, 24.91683
310.9326, 25.02138
311.4148, 24.46870
311.8969, 22.15875
312.3790, 20.55467
312.8611, 20.72082
313.3432, 21.89320
313.8253, 22.82660
314.3075, 22.94636
314.7896, 22.56227
315.2717, 22.46861
315.7538, 23.08117
316.2359, 23.38161
316.7180, 22.48058
317.2001, 21.58303
317.6823, 22.38765
318.1644, 25.33053
318.6465, 28.87191
319.1286, 30.74959
319.6107, 30.37440
320.0928, 29.38647
320.5750, 26.95845
321.0571, 24.49897
321.5392, 23.30448
322.0213, 23.40208
322.5034, 23.61016
322.9855, 22.63247
323.4677, 20.13729
323.9498, 19.01790
324.4319, 19.85104
324.9140, 21.28271
325.3961, 23.34825
325.8782, 25.54573
326.3604, 26.52458
326.8425, 25.08702
327.3246, 21.59263
327.8067, 20.16702
328.2888, 22.45360
328.7709, 24.62216
329.2531, 25.93333
329.7352, 26.44511
330.2173, 26.31401
330.6994, 25.60790
331.1815, 24.36152
331.6636, 22.64395
332.1458, 18.32428
332.6279, 16.26445
333.1100, 18.10704
333.5921, 21.53932
334.0742, 24.65849
334.5563, 26.81497
335.0385, 27.99494
335.5206, 28.16623
336.0027, 27.26596
336.4848, 25.26500
336.9669, 19.62036
337.4490, 14.94095
337.9312, 15.29439
338.4133, 20.13079
338.8954, 25.15198
339.3775, 26.19761
339.8596, 22.81122
340.3417, 21.20498
340.8239, 22.74863
341.3060, 24.38785
341.7881, 25.34118
342.2702, 25.55434
342.7523, 24.97618
343.2344, 23.49665
343.7166, 21.41858
344.1987, 20.23528
344.6808, 20.60452
345.1629, 21.21213
345.6450, 22.05855
346.1271, 23.04143
346.6093, 24.33232
347.0914, 25.93298
347.5735, 27.20931
348.0556, 26.72107
348.5377, 22.28064
349.0198, 20.10654
349.5020, 21.69300
349.9841, 24.09787
350.4662, 25.36512
350.9483, 25.27948
351.4304, 24.88183
351.9125, 25.53636
352.3947, 27.74785
352.8768, 27.59499
353.3589, 21.51060
353.8410, 16.62247
354.3231, 16.06026
354.8052, 18.66214
355.2874, 21.73993
355.7695, 23.57483
356.2516, 24.28552
356.7337, 24.55757
357.2158, 24.03906
357.6979, 23.53068
358.1800, 23.20470
358.6621, 22.95231
359.1443, 22.52269
359.6264, 21.82165
360.1085, 21.26453
360.5906, 21.64403
361.0727, 23.24569
361.5548, 25.07496
362.0370, 28.28744
362.5191, 30.74421
363.0012, 30.51116
363.4833, 27.75374
363.9654, 24.69864
364.4475, 23.90171
364.9297, 25.57554
365.4118, 25.85158
365.8939, 22.92468
366.3760, 20.55759
366.8581, 20.53519
367.3402, 22.16585
367.8224, 24.03126
368.3045, 25.53552
368.7866, 26.50936
369.2687, 26.26471
369.7508, 24.18339
370.2329, 22.23745
370.7151, 21.22457
371.1972, 20.59793
371.6793, 19.62151
372.1614, 17.99377
372.6435, 16.76046
373.1256, 17.83309
373.6078, 21.47641
374.0899, 23.50465
374.5720, 21.51426
375.0541, 18.95791
375.5362, 18.52283
376.0183, 20.10612
376.5005, 21.83441
376.9826, 22.42032
377.4647, 22.15692
377.9468, 22.12246
378.4289, 22.41410
378.9110, 22.86302
379.3932, 23.99177
379.8753, 25.16316
380.3574, 24.92370
380.8395, 21.75389
381.3216, 17.95783
381.8037, 16.30753
382.2859, 16.82051
382.7680, 18.40518
383.2501, 21.41645
383.7322, 24.69355
384.2143, 26.41845
384.6964, 26.22642
385.1786, 25.62435
385.6607, 25.38650
386.1428, 25.39047
386.6249, 25.47088
387.1070, 25.78763
387.5891, 25.59864
388.0713, 22.94165
388.5534, 18.10861
389.0355, 15.95938
389.5176, 19.81630
389.9997, 25.34750
390.4818, 28.12643
390.9640, 28.01964
391.4461, 27.62587
391.9282, 29.17377
392.4103, 31.78484
392.8924, 31.09443
393.3745, 23.98118
393.8567, 17.28323
394.3388, 13.61781
394.8209, 12.26102
395.3030, 12.20633
395.7851, 13.22059
396.2672, 14.46592
396.7494, 14.28525
397.2315, 11.34966
397.7136, 10.25350
398.1957, 12.35924
398.6778, 15.58916
399.1599, 18.87550
399.6420, 21.77644
400.1241, 23.29858
400.6063, 22.27470
401.0884, 18.57424
401.5705, 16.73288
402.0526, 18.52937
402.5347, 19.93633
403.0168, 18.90989
403.4990, 16.84442
403.9811, 16.46672
404.4632, 19.12478
404.9453, 23.09138
405.4274, 23.91874
405.9095, 17.94970
406.3917, 15.06048
406.8738, 18.06655
407.3559, 22.09360
407.8380, 23.60819
408.3201, 22.28161
408.8022, 20.09592
409.2844, 18.91833
409.7665, 18.79817
410.2486, 19.03519
410.7307, 20.07814
411.2128, 21.00114
411.6949, 21.42250
412.1771, 21.56621
412.6592, 21.87760
413.1413, 22.63806
413.6234, 23.47243
414.1055, 23.48380
414.5876, 22.36984
415.0698, 21.35035
415.5519, 20.87923
416.0340, 20.49331
416.5161, 19.77334
416.9982, 18.70130
417.4803, 17.80044
417.9625, 17.26404
418.4446, 17.18029
418.9267, 18.50170
419.4088, 22.51430
419.8909, 25.68062
420.3730, 25.17202
420.8552, 22.27081
421.3373, 19.38039
421.8194, 16.82679
422.3015, 15.12226
422.7836, 15.44432
423.2657, 17.75981
423.7479, 19.40919
424.2300, 18.95858
424.7121, 17.60598
425.1942, 17.31450
425.6763, 18.27623
426.1584, 19.25919
426.6406, 19.21195
427.1227, 18.99362
427.6048, 20.28119
428.0869, 23.44168
428.5690, 27.08512
429.0511, 30.30334
429.5333, 32.95860
430.0154, 33.98827
430.4975, 31.95845
430.9796, 29.64825
431.4617, 28.16117
431.9438, 27.62430
432.4260, 28.52488
432.9081, 31.29650
433.3902, 34.82101
433.8723, 36.41621
434.3544, 34.86213
434.8365, 33.28320
435.3187, 31.79292
435.8008, 30.30377
436.2829, 28.58234
436.7650, 26.70808
437.2471, 25.15147
437.7292, 24.36843
438.2114, 24.37057
438.6935, 24.58765
439.1756, 25.22891
439.6577, 25.85738
440.1398, 26.77457
440.6219, 27.49123
441.1040, 27.03607
441.5862, 25.01297
442.0683, 22.65143
442.5504, 22.51200
443.0325, 25.72812
443.5146, 27.67658
443.9967, 26.87855
444.4789, 25.62174
444.9610, 25.07152
445.4431, 25.15087
445.9252, 25.12560
446.4073, 24.42090
446.8894, 23.20599
447.3716, 22.06297
447.8537, 20.86945
448.3358, 20.06158
448.8179, 20.43078
449.3000, 21.02414
449.7821, 20.51354
450.2643, 18.31340
450.7464, 16.50099
451.2285, 17.33115
451.7106, 20.26758
452.1927, 22.62380
452.6748, 23.82964
453.1570, 24.40717
453.6391, 24.91599
454.1212, 25.29560
454.6033, 25.00189
455.0854, 22.85462
455.5675, 20.76062
456.0497, 20.68467
456.5318, 22.38633
457.0139, 24.33550
457.4960, 26.01242
457.9781, 27.12332
458.4602, 26.60806
458.9424, 23.33535
459.4245, 21.07397
459.9066, 21.08383
460.3887, 22.08704
460.8708, 23.07566
461.3529, 23.76839
461.8351, 23.85542
462.3172, 22.89998
462.7993, 20.84622
463.2814, 19.69893
463.7635, 20.11217
464.2456, 20.61132
464.7278, 20.92568
465.2099, 21.07400
465.6920, 21.06290
466.1741, 20.90417
466.6562, 20.74743
467.1383, 20.86151
467.6205, 21.33845
468.1026, 21.80532
468.5847, 22.58033
469.0668, 23.04061
469.5489, 22.91626
470.0310, 22.22841
470.5132, 21.01846
470.9953, 19.03663
471.4774, 16.81175
471.9595, 15.87525
472.4416, 16.61141
472.9237, 17.19399
473.4059, 16.26848
473.8880, 15.35363
474.3701, 16.19819
474.8522, 19.05961
475.3343, 21.62331
475.8164, 22.08330
476.2986, 21.15494
476.7807, 20.59937
477.2628, 20.65110
477.7449, 20.88136
478.2270, 21.19616
478.7091, 21.42657
479.1913, 20.94774
479.6734, 18.39122
480.1555, 16.60624
480.6376, 18.02102
481.1197, 21.17298
481.6018, 22.78404
482.0839, 21.72076
482.5660, 19.72158
483.0482, 19.29530
483.5303, 21.19855
484.0124, 21.89324
484.4945, 20.48934
484.9766, 18.79344
485.4587, 17.39917
485.9409, 16.50962
486.4230, 16.51729
486.9051, 17.71202
487.3872, 19.49607
487.8693, 20.05978
488.3514, 18.49569
488.8336, 17.40458
489.3157, 17.01513
489.7978, 17.04681
490.2799, 17.40782
490.7620, 18.03386
491.2441, 18.79848
491.7263, 19.56921
492.2084, 20.39442
492.6905, 21.83187
493.1726, 24.81146
493.6547, 26.14851
494.1368, 21.87914
494.6190, 16.58849
495.1011, 15.69088
495.5832, 20.67735
496.0653, 25.60667
496.5474, 24.80323
497.0295, 20.32597
497.5117, 18.80863
497.9938, 21.78130
498.4759, 25.36486
498.9580, 26.38813
499.4401, 25.25350
499.9222, 24.39963
500.4044, 24.06733
500.8865, 23.94374
501.3686, 23.86475
501.8507, 23.87568
502.3328, 24.14515
502.8149, 24.74196
503.2971, 25.37162
503.7792, 25.60233
504.2613, 25.29771
504.7434, 25.06706
505.2255, 25.39969
505.7076, 25.32144
506.1898, 23.64221
506.6719, 21.27268
507.1540, 20.13959
507.6361, 21.28860
508.1182, 23.83206
508.6003, 25.82679
509.0825, 27.36941
509.5646, 28.10066
510.0467, 28.05557
510.5288, 27.12897
511.0109, 24.35153
511.4930, 20.43016
511.9752, 17.69518
512.4573, 18.08172
512.9394, 20.31956
513.4215, 21.51235
513.9036, 21.53905
514.3857, 21.29597
514.8679, 20.97046
515.3500, 20.64933
515.8321, 20.59068
516.3142, 20.88457
516.7963, 20.64910
517.2784, 19.14364
517.7606, 17.05168
518.2427, 15.23150
518.7248, 13.77273
519.2069, 12.49796
519.6890, 11.05518
520.1711, 9.782447
520.6533, 10.50211
521.1354, 14.92343
521.6175, 18.73071
522.0996, 21.31530
522.5817, 22.89745
523.0638, 23.42858
523.5460, 23.04220
524.0281, 22.31873
524.5102, 21.83165
524.9923, 21.56665
525.4744, 20.85473
525.9565, 18.86857
526.4387, 17.55042
526.9208, 17.60801
527.4029, 18.31874
527.8850, 19.25657
528.3671, 20.23419
528.8492, 20.45670
529.3314, 18.28898
529.8135, 14.14198
530.2956, 12.23864
530.7777, 13.53077
531.2598, 15.59610
531.7419, 17.91135
532.2241, 19.79182
532.7062, 19.77416
533.1883, 16.63332
533.6704, 13.50762
534.1525, 12.43395
534.6346, 12.97726
535.1168, 14.45412
535.5989, 16.82207
536.0810, 18.92474
536.5631, 19.55998
537.0452, 18.64527
537.5273, 17.53526
538.0095, 15.38269
538.4916, 13.98890
538.9737, 15.39099
539.4558, 17.51124
539.9379, 16.31151
540.4200, 10.78685
540.9022, 5.167283
541.3843, 5.997233
541.8664, 14.99965
542.3485, 20.70239
542.8306, 20.91072
543.3127, 19.95701
543.7948, 18.53922
544.2769, 17.00982
544.7590, 15.58578
545.2411, 14.24755
545.7233, 13.69094
546.2054, 15.68027
546.6875, 19.92263
547.1696, 21.59545
547.6517, 18.79183
548.1339, 15.54418
548.6160, 15.91069
549.0981, 18.62232
549.5802, 20.11199
550.0623, 18.39910
550.5444, 16.69595
551.0266, 17.99300
551.5087, 20.78463
551.9908, 21.08022
552.4729, 17.57290
552.9550, 13.44390
553.4371, 12.86815
553.9193, 16.76022
554.4014, 18.64432
554.8835, 16.50913
555.3656, 14.89313
555.8477, 16.39514
556.3298, 19.14860
556.8120, 20.08901
557.2941, 18.15364
557.7762, 15.16705
558.2583, 13.74032
558.7404, 14.08700
559.2225, 14.24168
559.7047, 13.87404
560.1868, 13.69139
560.6689, 13.90492
561.1510, 14.52574
561.6331, 15.63561
562.1152, 17.37922
562.5974, 19.26907
563.0795, 21.33134
563.5616, 23.23223
564.0437, 23.39224
564.5258, 21.15172
565.0079, 18.78774
565.4901, 18.62115
565.9722, 20.51611
566.4543, 21.16812
566.9364, 19.43722
567.4185, 17.77950
567.9006, 17.09622
568.3828, 17.06720
568.8649, 17.16282
569.3470, 17.26376
569.8291, 17.75570
570.3112, 19.27414
570.7933, 21.95789
571.2755, 23.22959
571.7576, 21.94933
572.2397, 20.63081
572.7218, 19.25261
573.2039, 18.45840
573.6860, 19.61702
574.1682, 22.97203
574.6503, 25.57418
575.1324, 23.67764
575.6145, 18.46983
576.0966, 15.28889
576.5787, 14.70272
577.0609, 15.24050
577.5430, 16.62643
578.0251, 18.35406
578.5072, 19.29029
578.9893, 19.43672
579.4714, 18.73685
579.9536, 16.37395
580.4357, 13.56767
580.9178, 11.88642
581.3999, 11.44880
581.8820, 11.26843
582.3641, 10.53617
582.8463, 9.477513
583.3284, 9.473077
583.8105, 12.78049
584.2926, 13.78920
584.7747, 9.108468
585.2568, 4.342150
585.7390, 4.313574
586.2211, 8.686615
586.7032, 13.47168
587.1853, 15.80779
587.6674, 16.53853
588.1495, 18.00692
588.6317, 20.40519
589.1138, 22.39968
589.5959, 23.81307
590.0780, 24.35992
590.5601, 23.32746
591.0422, 20.74876
591.5244, 19.06453
592.0065, 20.04041
592.4886, 21.42879
592.9707, 20.76681
593.4528, 18.66702
593.9349, 17.64515
594.4171, 18.90946
594.8992, 21.02081
595.3813, 21.41135
595.8634, 19.35125
596.3455, 17.69017
596.8276, 15.63768
597.3098, 14.73870
597.7919, 16.55414
598.2740, 19.73165
598.7561, 22.12189
599.2382, 22.85815
599.7203, 22.45324
600.2025, 21.15711
600.6846, 19.01303
601.1667, 17.93727
601.6488, 18.56194
602.1309, 19.38604
602.6130, 19.14927
603.0952, 18.41208
603.5773, 18.33838
604.0594, 19.28982
604.5415, 20.51252
605.0236, 21.62078
605.5057, 22.76090
605.9879, 24.57388
606.4700, 26.99188
606.9521, 28.37486
607.4342, 27.10284
607.9163, 23.67897
608.3984, 21.93503
608.8806, 23.45215
609.3627, 24.54661
609.8448, 24.41444
610.3269, 24.12886
610.8090, 24.84847
611.2911, 26.35913
611.7733, 27.24645
612.2554, 26.21002
612.7375, 24.17826
613.2196, 23.61174
613.7017, 24.72969
614.1838, 24.76429
614.6660, 21.94353
615.1481, 18.84278
615.6302, 18.92771
616.1123, 21.94207
616.5944, 24.20802
617.0765, 24.96368
617.5587, 24.75782
618.0408, 23.00068
618.5229, 20.68350
619.0050, 20.14538
619.4871, 22.17019
619.9692, 25.04088
620.4514, 26.41702
620.9335, 26.07070
621.4156, 25.99780
621.8977, 26.10733
622.3798, 26.63280
622.8619, 28.34164
623.3441, 30.14091
623.8262, 30.58232
624.3083, 29.35593
624.7904, 27.86384
625.2725, 27.28688
625.7546, 27.35798
626.2367, 27.32132
626.7188, 27.11677
627.2009, 27.10218
627.6830, 27.53404
628.1652, 28.21719
628.6473, 28.67754
629.1294, 28.78230
629.6115, 29.11862
630.0936, 30.41877
630.5757, 31.42892
631.0579, 31.19807
631.5400, 29.89740
632.0221, 28.20618
632.5042, 26.48218
632.9863, 24.41180
633.4684, 20.80051
633.9506, 14.66711
634.4327, 12.02618
634.9148, 16.36362
635.3969, 20.21798
635.8790, 18.52906
636.3611, 14.27065
636.8433, 12.89744
637.3254, 16.57561
637.8075, 20.68296
638.2896, 21.85519
638.7717, 21.12110
639.2538, 20.19637
639.7360, 19.35807
640.2181, 18.94372
640.7002, 19.21847
641.1823, 20.07858
641.6644, 21.11667
642.1465, 23.15835
642.6287, 24.18911
643.1108, 23.77555
643.5929, 22.70544
644.0750, 20.83132
644.5571, 18.75499
645.0392, 18.04116
645.5214, 19.90864
646.0035, 22.39896
646.4856, 21.51204
646.9677, 17.26889
647.4498, 15.15308
647.9319, 16.94744
648.4141, 19.33143
648.8962, 19.45679
649.3783, 17.89425
649.8604, 16.76004
650.3425, 15.66097
650.8246, 15.76793
651.3068, 19.37070
651.7889, 23.48083
652.2710, 23.72449
652.7531, 20.04520
653.2352, 16.19254
653.7173, 15.10996
654.1995, 16.17044
654.6816, 16.84185
655.1637, 17.23896
655.6458, 16.96283
656.1279, 15.16783
656.6100, 13.32385
657.0922, 12.02800
657.5743, 11.37864
658.0564, 11.56762
658.5385, 13.04161
659.0206, 14.85246
659.5027, 16.76222
659.9849, 18.27229
660.4670, 17.32454
660.9491, 13.35645
661.4312, 9.590593
661.9133, 8.917688
662.3954, 11.18814
662.8776, 14.22837
663.3597, 20.97950
663.8418, 24.58286
664.3239, 22.29821
664.8060, 18.19184
665.2881, 14.69424
665.7703, 12.47315
666.2524, 12.07637
666.7345, 14.32176
667.2166, 17.86996
667.6987, 20.64371
668.1808, 22.62757
668.6630, 22.99406
669.1451, 21.05346
669.6272, 18.60737
670.1093, 17.28032
670.5914, 17.04519
671.0735, 17.12651
671.5557, 18.04041
672.0378, 18.62221
672.5199, 18.50325
673.0020, 17.85427
673.4841, 16.29779
673.9662, 14.20342
674.4484, 13.26341
674.9305, 15.07111
675.4126, 18.55722
675.8947, 19.98956
676.3768, 18.83433
676.8589, 18.02889
677.3411, 18.69298
677.8232, 19.25658
678.3053, 17.94386
678.7874, 15.40708
679.2695, 14.07166
679.7516, 14.93819
680.2338, 16.56826
680.7159, 19.06304
681.1980, 21.41160
681.6801, 21.61297
682.1622, 19.55950
682.6443, 17.32035
683.1265, 16.61552
683.6086, 17.09102
684.0907, 17.00830
684.5728, 16.12836
685.0549, 15.21343
685.5370, 13.34151
686.0192, 12.38568
686.5013, 14.50517
686.9834, 18.48968
687.4655, 20.73236
687.9476, 19.10456
688.4297, 16.73653
688.9119, 16.76301
689.3940, 18.10430
689.8761, 18.15908
690.3582, 16.48385
690.8403, 14.24346
691.3224, 12.08655
691.8046, 10.30007
692.2867, 10.31473
692.7688, 14.35897
693.2509, 16.60684
693.7330, 15.49259
694.2151, 13.86695
694.6973, 13.38391
695.1794, 13.78654
695.6615, 13.99196
696.1436, 13.35613
696.6257, 12.99623
697.1078, 14.93145
697.5900, 18.21711
698.0721, 19.31213
698.5542, 17.60894
699.0363, 15.20348
699.5184, 13.15706
700.0005, 11.72799
700.4827, 11.89867
700.9648, 15.22687
701.4469, 17.62675
701.9290, 18.99402
702.4111, 19.47158
702.8932, 18.10337
703.3754, 16.10773
703.8575, 16.16349
704.3396, 19.51231
704.8217, 23.25814
705.3038, 23.54352
705.7859, 21.09111
706.2681, 19.18162
706.7502, 18.01327
707.2323, 18.01397
707.7144, 20.06661
708.1965, 22.90933
708.6786, 23.50859
709.1607, 21.09913
709.6428, 18.83591
710.1249, 15.81127
710.6071, 14.08386
711.0892, 16.37394
711.5713, 20.29467
712.0534, 21.39472
712.5355, 18.29898
713.0176, 14.49941
713.4998, 14.05861
713.9819, 16.37899
714.4640, 18.34882
714.9461, 19.94437
715.4282, 21.06208
715.9103, 21.64723
716.3925, 21.72244
716.8746, 21.08986
717.3567, 19.60267
717.8388, 18.76926
718.3209, 19.46877
718.8030, 20.02755
719.2852, 19.32318
719.7673, 18.14843
720.2494, 17.69709
720.7315, 18.18349
721.2136, 18.87552
721.6957, 19.38840
722.1779, 19.44147
722.6600, 17.27892
723.1421, 12.35404
723.6242, 10.18375
724.1063, 13.62648
724.5884, 18.34440
725.0706, 19.44886
725.5527, 17.26002
726.0348, 16.06351
726.5169, 16.76869
726.9990, 17.65130
727.4811, 18.24117
727.9633, 18.65214
728.4454, 19.10119
728.9275, 19.53006
729.4096, 19.58762
729.8917, 18.99324
730.3738, 17.99056
730.8560, 16.84115
731.3381, 15.51640
731.8202, 15.33779
732.3023, 16.90839
732.7844, 18.72110
733.2665, 19.83533
733.7487, 20.28112
734.2308, 20.25847
734.7129, 19.37998
735.1950, 18.77038
735.6771, 18.90990
736.1592, 19.18580
736.6414, 19.11481
737.1235, 18.76920
737.6056, 18.44899
738.0877, 18.28837
738.5698, 18.16557
739.0519, 17.92414
739.5341, 17.56964
740.0162, 16.82784
740.4983, 15.30554
740.9804, 15.41542
741.4625, 19.47024
741.9446, 24.87058
742.4268, 26.45295
742.9089, 23.39230
743.3910, 21.24447
743.8731, 21.19841
744.3552, 21.35452
744.8373, 20.79987
745.3195, 19.87613
745.8016, 19.22876
746.2837, 18.95052
746.7658, 18.40566
747.2479, 16.61962
747.7300, 14.36555
748.2122, 13.93682
748.6943, 15.35882
749.1764, 17.12206
749.6585, 19.02128
750.1406, 20.58641
750.6227, 21.54845
751.1049, 21.85549
751.5870, 20.53351
752.0691, 14.73606
752.5512, 11.27979
753.0333, 13.37350
753.5154, 16.69695
753.9976, 17.59004
754.4797, 16.35255
754.9618, 15.33397
755.4439, 15.76739
755.9260, 16.78227
756.4081, 17.32968
756.8903, 17.48333
757.3724, 17.39923
757.8545, 17.06262
758.3366, 17.22537
758.8187, 18.65018
759.3008, 20.47324
759.7830, 20.42521
760.2651, 17.09179
760.7472, 15.23536
761.2293, 15.05649
761.7114, 16.01864
762.1935, 19.62340
762.6757, 23.44239
763.1578, 23.61259
763.6399, 19.43368
764.1220, 15.63130
764.6041, 16.63997
765.0862, 19.46736
765.5684, 19.47348
766.0505, 17.06078
766.5326, 14.21107
767.0147, 11.46752
767.4968, 9.952398
767.9789, 11.08546
768.4611, 14.75770
768.9432, 18.22945
769.4253, 22.35398
769.9074, 24.79825
770.3895, 24.48257
770.8716, 23.09401
771.3538, 21.06424
771.8359, 18.86520
772.3180, 17.78576
772.8001, 18.87721
773.2822, 19.85829
773.7643, 18.80554
774.2465, 16.86600
774.7286, 15.68585
775.2107, 15.35784
775.6928, 15.27548
776.1749, 15.12308
776.6570, 14.81294
777.1392, 13.95756
777.6213, 12.31468
778.1034, 11.91232
778.5855, 13.12911
779.0676, 14.90030
779.5497, 17.17639
780.0319, 19.51354
780.5140, 21.52271
780.9961, 23.25577
781.4782, 23.87180
781.9603, 22.05673
782.4424, 20.25744
782.9246, 19.96104
783.4067, 20.54746
783.8888, 21.27859
784.3709, 21.86750
784.8530, 22.03641
785.3351, 21.61198
785.8173, 20.54036
786.2994, 18.25596
786.7815, 14.76243
787.2636, 12.37739
787.7457, 11.43503
788.2278, 12.05278
788.7100, 15.03939
789.1921, 19.51295
789.6742, 21.93361
790.1563, 22.04563
790.6384, 20.70321
791.1205, 15.83204
791.6026, 11.64805
792.0847, 10.98480
792.5668, 12.46274
793.0490, 13.47921
793.5311, 13.28468
794.0132, 13.41951
794.4953, 15.60768
794.9774, 18.73698
795.4595, 21.03298
795.9417, 22.46169
796.4238, 22.79969
796.9059, 21.90370
797.3880, 21.13473
797.8701, 22.26029
798.3522, 25.04055
798.8344, 25.25572
799.3165, 20.39919
799.7986, 17.80652
800.2807, 21.62314
800.7628, 25.34542
801.2449, 24.20738
801.7271, 19.92645
802.2092, 17.46574
802.6913, 18.50137
803.1734, 20.14168
803.6555, 21.53759
804.1376, 22.34587
804.6198, 21.36076
805.1019, 19.46632
805.5840, 19.47035
806.0661, 22.54830
806.5482, 26.32693
807.0303, 27.59829
807.5125, 26.61199
807.9946, 25.80824
808.4767, 25.38964
808.9588, 23.68805
809.4409, 18.99228
809.9230, 14.70725
810.4052, 15.30802
810.8873, 20.80800
811.3694, 24.28534
811.8515, 25.49337
812.3336, 25.04968
812.8157, 21.03522
813.2979, 17.09545
813.7800, 16.70103
814.2621, 18.90815
814.7442, 20.47950
815.2263, 19.99816
815.7084, 18.85452
816.1906, 18.00947
816.6727, 17.60873
817.1548, 18.47924
817.6369, 20.35625
818.1190, 20.99791
818.6011, 19.33504
819.0833, 16.72601
819.5654, 15.02876
820.0475, 14.25080
820.5296, 14.37159
821.0117, 16.60302
821.4938, 17.18595
821.9760, 12.62635
822.4581, 8.276634
822.9402, 9.454197
823.4223, 14.93803
823.9044, 18.84903
824.3865, 19.43951
824.8687, 19.26972
825.3508, 18.42605
825.8329, 17.96611
826.3150, 20.03421
826.7971, 23.35166
827.2792, 23.94938
827.7614, 20.03597
828.2435, 15.19176
828.7256, 14.03613
829.2077, 15.62159
829.6898, 16.04153
830.1719, 15.19714
830.6541, 15.92017
831.1362, 19.72778
831.6183, 23.73368
832.1004, 24.40015
832.5825, 21.77893
833.0646, 19.52824
833.5468, 16.82346
834.0289, 15.85571
834.5110, 18.61149
834.9931, 21.45477
835.4752, 21.68214
835.9573, 20.22290
836.4395, 19.80081
836.9216, 21.52459
837.4037, 22.91278
837.8858, 21.55062
838.3679, 20.05782
838.8500, 22.30460
839.3322, 26.63783
839.8143, 28.22835
840.2964, 25.55260
840.7785, 21.73133
841.2606, 20.10662
841.7427, 20.17796
842.2249, 19.92912
842.7070, 19.32270
843.1891, 19.45218
843.6712, 20.84262
844.1533, 22.16143
844.6354, 22.18143
845.1176, 21.18909
845.5997, 20.58845
846.0818, 20.65784
846.5639, 20.68962
847.0460, 20.80475
847.5281, 20.75424
848.0103, 20.46066
848.4924, 19.90947
848.9745, 18.85755
849.4566, 17.26026
849.9387, 16.30089
850.4208, 17.23047
850.9030, 18.48182
851.3851, 18.40853
851.8672, 17.66584
852.3493, 17.77808
852.8314, 18.87095
853.3135, 19.52210
853.7957, 18.51470
854.2778, 16.80127
854.7599, 16.73644
855.2420, 18.27612
855.7241, 19.12872
856.2062, 18.87717
856.6884, 18.79918
857.1705, 19.55095
857.6526, 20.95165
858.1347, 22.93015
858.6168, 26.05976
859.0989, 27.11081
859.5811, 24.57461
860.0632, 21.97228
860.5453, 19.58704
861.0274, 17.84955
861.5095, 17.60993
861.9916, 18.44707
862.4738, 18.46332
862.9559, 16.38811
863.4380, 14.51869
863.9201, 14.28510
864.4022, 15.11233
864.8843, 17.14476
865.3665, 19.59387
865.8486, 20.05421
866.3307, 17.57502
866.8128, 14.48680
867.2949, 13.44088
867.7770, 14.22957
868.2592, 16.77859
868.7413, 21.13946
869.2234, 22.55466
869.7055, 19.04431
870.1876, 15.12181
870.6697, 15.22082
871.1519, 18.47106
871.6340, 19.93347
872.1161, 18.36732
872.5981, 17.39499
873.0803, 17.28538
873.5624, 17.68069
874.0445, 18.75405
874.5266, 20.10177
875.0087, 21.33877
875.4908, 22.44364
875.9730, 22.74163
876.4551, 21.19477
876.9372, 19.64765
877.4193, 19.24801
877.9014, 19.53464
878.3835, 20.06069
878.8657, 20.61014
879.3478, 20.82203
879.8299, 20.42252
880.3120, 19.82483
880.7941, 20.01782
881.2762, 20.44976
881.7584, 18.38176
882.2405, 13.99425
882.7226, 12.70795
883.2047, 17.31686
883.6868, 22.91613
884.1689, 22.30342
884.6511, 15.77835
885.1332, 13.40252
885.6153, 16.86494
886.0974, 19.81928
886.5795, 20.75519
887.0616, 21.21232
887.5438, 22.97550
888.0259, 22.17885
888.5080, 24.82339
888.9901, 20.55861
889.4722, 17.17072
889.9543, 15.36360
890.4365, 14.55538
890.9186, 15.25830
891.4007, 16.35047
891.8828, 16.06621
892.3649, 14.37170
892.8470, 13.33513
893.3292, 14.61735
893.8113, 16.42684
894.2934, 17.28176
894.7755, 17.36459
895.2576, 16.41638
895.7397, 14.86492
896.2219, 14.72185
896.7040, 17.09244
897.1861, 19.92730
897.6682, 19.82034
898.1503, 17.23213
898.6324, 15.91294
899.1146, 15.94696
899.5967, 16.34922
900.0788, 17.02037
900.5609, 17.19109
901.0430, 15.87403
901.5251, 13.44044
902.0073, 12.23349
902.4894, 12.76020
902.9715, 13.45657
903.4536, 13.63799
903.9357, 14.71579
904.4178, 19.83130
904.9000, 24.93698
905.3821, 23.13851
905.8642, 13.46555
906.3463, 6.681016
906.8284, 6.584422
907.3105, 8.471747
907.7927, 11.67032
908.2748, 14.73355
908.7569, 15.91314
909.2390, 15.61134
909.7211, 15.68046
910.2032, 17.01574
910.6854, 18.44095
911.1675, 19.29964
911.6496, 19.31441
912.1317, 17.08998
912.6138, 13.57036
913.0959, 12.30003
913.5781, 14.20882
914.0602, 16.54631
914.5423, 16.65393
915.0244, 15.41172
915.5065, 15.61300
915.9886, 17.27281
916.4708, 18.62360
916.9529, 19.49654
917.4350, 19.77521
917.9171, 19.21978
918.3992, 18.37235
918.8813, 18.28815
919.3635, 19.18653
919.8456, 19.08210
920.3277, 16.70705
920.8098, 15.41749
921.2919, 17.60939
921.7740, 19.59626
922.2562, 17.40863
922.7383, 12.97394
923.2204, 12.48574
923.7025, 18.89095
924.1846, 23.45289
924.6667, 22.28775
925.1489, 20.49633
925.6310, 21.76832
926.1131, 23.99646
926.5952, 23.81934
927.0773, 21.01233
927.5594, 18.23864
928.0416, 16.74964
928.5237, 16.23790
929.0058, 16.87349
929.4879, 18.05894
929.9700, 19.17432
930.4521, 19.93746
930.9343, 19.60235
931.4164, 17.89316
931.8985, 15.89026
932.3806, 14.94818
932.8627, 14.68975
933.3448, 13.30639
933.8270, 11.07510
934.3091, 11.81549
934.7912, 16.54790
935.2733, 20.58547
935.7554, 20.48246
936.2375, 17.75100
936.7197, 15.94017
937.2018, 15.16187
937.6839, 14.74154
938.1660, 14.97747
938.6481, 14.68516
939.1302, 12.42518
939.6124, 10.83079
940.0945, 13.70242
940.5766, 20.24371
941.0587, 22.91639
941.5408, 17.46848
942.0229, 14.82229
942.5051, 17.66686
942.9872, 21.01557
943.4693, 23.05968
943.9514, 23.81324
944.4335, 23.12232
944.9156, 21.04678
945.3978, 19.09499
945.8799, 16.68634
946.3620, 15.85451
946.8441, 18.89202
947.3262, 23.07354
947.8083, 25.94089
948.2905, 27.40872
948.7726, 27.97494
949.2547, 27.80818
949.7368, 27.89812
950.2189, 29.27892
950.7010, 31.24080
951.1832, 32.84123
951.6653, 34.24598
952.1474, 36.20396
952.6295, 38.63689
953.1116, 40.05981
953.5938, 39.37902
954.0759, 38.20108
954.5580, 39.55243
955.0400, 42.86124
955.5222, 45.07920
956.0043, 46.12071
956.4864, 46.70219
956.9685, 47.00504
957.4506, 47.43805
957.9327, 48.38954
958.4149, 49.80574
958.8970, 51.31659
959.3791, 52.72907
959.8612, 55.54502
960.3433, 60.87711
960.8254, 64.80703
961.3076, 64.79620
961.7897, 63.33632
962.2718, 63.82344
962.7539, 66.29831
963.2360, 68.41080
963.7181, 70.11780
964.2003, 71.51105
964.6824, 72.19273
965.1645, 72.99783
965.6466, 74.97554
966.1287, 77.13791
966.6108, 78.18539
967.0930, 78.16218
967.5751, 75.35042
968.0572, 66.78754
968.5393, 58.64103
969.0214, 53.15992
969.5035, 49.33785
969.9857, 46.77091
970.4678, 44.95230
970.9499, 43.11393
971.4320, 41.09271
971.9141, 38.47282
972.3962, 34.32616
972.8784, 30.13853
973.3605, 26.94023
973.8426, 24.75164
974.3247, 23.63131
974.8068, 23.47608
975.2889, 24.12854
975.7711, 25.70604
976.2532, 26.93705
976.7353, 25.62705
977.2174, 23.39076
977.6995, 23.50242
978.1816, 25.42197
978.6638, 27.15878
979.1459, 28.00014
979.6280, 26.87350
980.1101, 22.44496
980.5922, 17.07933
981.0743, 16.83708
981.5565, 13.90668
982.0386, 11.32979
982.5207, 13.14991
983.0028, 9.567388
983.4849, 11.80196
983.9670, 16.76537
984.4492, 21.68762
984.9313, 25.86565
985.4134, 24.93711
985.8955, 17.71591
986.3776, 14.99660
986.8597, 19.31082
987.3419, 22.43739
987.8240, 19.79690
988.3061, 15.05240
988.7882, 13.35476
989.2703, 14.69385
989.7524, 16.26475
990.2346, 18.96530
990.7167, 19.75496
991.1988, 16.26832
991.6809, 13.67578
992.1630, 16.27486
992.6451, 20.89833
993.1273, 21.50520
993.6094, 17.34848
994.0915, 14.69438
994.5736, 13.76136
995.0557, 14.13929
995.5378, 17.13791
996.0200, 20.07936
996.5021, 21.17914
996.9842, 20.92829
997.4663, 20.18775
997.9484, 18.89350
998.4305, 18.46263
998.9127, 20.59264
999.3948, 21.97866
999.8769, 21.18478
1000.359, 19.01758
1000.841, 14.65762
1001.323, 9.852102
1001.805, 9.233230
1002.287, 14.77686
1002.770, 19.48166
1003.252, 18.64053
1003.734, 16.86530
1004.216, 17.81720
1004.698, 19.70822
1005.180, 20.17279
1005.662, 19.06230
1006.144, 17.01982
1006.627, 14.08901
1007.109, 12.00478
1007.591, 12.51035
1008.073, 14.37874
1008.555, 16.60493
1009.037, 18.92492
1009.519, 21.67875
1010.001, 24.31762
1010.483, 24.02626
1010.966, 18.73514
1011.448, 13.20193
1011.930, 14.52238
1012.412, 11.76537
1012.894, 10.96118
1013.376, 13.05481
1013.858, 11.58018
1014.340, 14.64378
1014.823, 17.83608
1015.305, 18.07680
1015.787, 16.75044
1016.269, 15.63845
1016.751, 14.93509
1017.233, 15.86310
1017.715, 18.15955
1018.197, 19.57768
1018.679, 19.48108
1019.162, 18.35729
1019.644, 16.34397
1020.126, 14.50062
1020.608, 15.90410
1021.090, 20.18321
1021.572, 22.02155
1022.054, 21.14208
1022.536, 20.27491
1023.018, 20.27473
1023.501, 20.67842
1023.983, 21.14672
1024.465, 21.55710
1024.947, 21.43733
1025.429, 20.71960
1025.911, 20.52674
1026.393, 21.23461
1026.875, 20.33903
1027.358, 16.37589
1027.840, 12.48979
1028.322, 11.85606
1028.804, 13.72301
1029.286, 15.10552
1029.768, 16.01449
1030.250, 16.45543
1030.732, 16.58700
1031.214, 15.58602
1031.697, 12.08130
1032.179, 9.298444
1032.661, 11.03210
1033.143, 16.17948
1033.625, 19.06709
1034.107, 18.51468
1034.589, 18.74186
1035.071, 20.60117
1035.553, 21.74415
1036.036, 21.22511
1036.518, 19.76179
1037.000, 17.68944
1037.482, 15.24544
1037.964, 13.78455
1038.446, 13.15054
1038.928, 13.85727
1039.410, 17.14939
1039.893, 20.09427
1040.375, 22.38704
1040.857, 23.36939
1041.339, 21.67582
1041.821, 17.90815
1042.303, 15.36463
1042.785, 14.37229
1043.267, 14.05901
1043.750, 15.00518
1044.232, 15.85862
1044.714, 15.91848
1045.196, 15.84472
1045.678, 16.21328
1046.160, 17.01623
1046.642, 18.24405
1047.124, 20.97298
1047.606, 21.68002
1048.089, 17.20235
1048.571, 13.93179
1049.053, 15.77404
1049.535, 18.96634
1050.017, 19.84205
1050.499, 18.67928
1050.981, 17.60888
1051.463, 17.12897
1051.945, 16.31275
1052.428, 13.98312
1052.910, 12.46584
1053.392, 14.56539
1053.874, 16.60913
1054.356, 13.29261
1054.838, 6.623969
1055.320, 4.674037
1055.802, 10.88904
1056.285, 15.46622
1056.767, 13.31419
1057.249, 11.68001
1057.731, 16.38122
1058.213, 21.49564
1058.695, 19.30991
1059.177, 12.35249
1059.659, 10.08283
1060.141, 16.06559
1060.624, 20.09457
1061.106, 16.89056
1061.588, 12.97589
1062.070, 10.37970
1062.552, 9.723558
1063.034, 13.06320
1063.516, 18.49829
1063.998, 20.91305
1064.480, 18.67040
1064.963, 16.80309
1065.445, 18.21603
1065.927, 19.39164
1066.409, 17.63445
1066.891, 15.47246
1067.373, 15.82129
1067.855, 17.75518
1068.337, 18.71843
1068.820, 18.09595
1069.302, 16.58567
1069.784, 12.64992
1070.266, 10.18258
1070.748, 13.04843
1071.230, 16.71327
1071.712, 16.00236
1072.194, 13.04360
1072.677, 13.86573
1073.159, 19.63720
1073.641, 22.61893
1074.123, 16.38153
1074.605, 10.44229
1075.087, 10.31198
1075.569, 11.96185
1076.051, 11.71193
1076.533, 10.61814
1077.016, 11.69197
1077.498, 15.20896
1077.980, 17.27974
1078.462, 15.10402
1078.944, 12.82850
1079.426, 12.69469
1079.908, 13.03294
1080.390, 12.25952
1080.872, 11.13240
1081.354, 11.25899
1081.837, 12.63696
1082.319, 13.31704
1082.801, 12.09651
1083.283, 10.97118
1083.765, 10.42616
1084.247, 10.77746
1084.729, 13.19746
1085.211, 16.08103
1085.694, 17.42766
1086.176, 17.07819
1086.658, 15.75273
1087.140, 13.18080
1087.622, 11.09828
1088.104, 10.21443
1088.586, 10.05259
1089.068, 10.37262
1089.551, 11.20275
1090.033, 13.19304
1090.515, 15.74316
1090.997, 16.79638
1091.479, 15.52496
1091.961, 14.05463
1092.443, 12.70902
1092.925, 11.94673
1093.407, 12.44797
1093.890, 13.29678
1094.372, 13.79178
1094.854, 13.84588
1095.336, 13.22074
1095.818, 11.69819
1096.300, 11.23480
1096.782, 13.79991
1097.264, 15.75320
1097.746, 15.00018
1098.229, 13.71678
1098.711, 13.89795
1099.193, 14.73204
1099.675, 14.12409
1100.157, 11.79044
1100.639, 10.98999
1101.121, 14.37805
1101.603, 16.75475
1102.086, 15.61075
1102.568, 14.23281
1103.050, 14.58033
1103.532, 16.00808
1104.014, 18.21030
1104.496, 20.83194
1104.978, 21.08144
1105.460, 16.83070
1105.943, 12.97832
1106.425, 9.576582
1106.907, 7.566176
1107.389, 7.962400
1107.871, 9.503209
1108.353, 11.59307
1108.835, 13.73355
1109.317, 13.74188
1109.799, 9.648030
1110.281, 7.919470
1110.764, 10.23005
1111.246, 13.34902
1111.728, 17.65518
1112.210, 21.25094
1112.692, 22.72597
1113.174, 22.32888
1113.656, 20.46522
1114.138, 16.60603
1114.621, 13.68289
1115.103, 11.08141
1115.585, 10.54809
1116.067, 14.76555
1116.549, 17.84571
1117.031, 14.86356
1117.513, 9.878654
1117.995, 10.04399
1118.478, 15.45171
1118.960, 17.39542
1119.442, 14.30999
1119.924, 11.25454
1120.406, 7.596339
1120.888, 6.296966
1121.370, 9.469188
1121.852, 14.33922
1122.334, 18.15394
1122.817, 20.75957
1123.299, 20.95716
1123.781, 17.69712
1124.263, 16.72237
1124.745, 19.18169
1125.227, 19.94943
1125.709, 16.75779
1126.191, 13.77568
1126.673, 14.67261
1127.156, 17.83151
1127.638, 19.31064
1128.120, 19.04129
1128.602, 19.05363
1129.084, 19.40556
1129.566, 19.37335
1130.048, 18.76394
1130.530, 18.22434
1131.013, 18.14114
1131.495, 18.24647
1131.977, 18.07517
1132.459, 17.78669
1132.941, 18.71991
1133.423, 20.63974
1133.905, 19.35710
1134.387, 14.64850
1134.870, 11.95726
1135.352, 13.42962
1135.834, 16.75626
1136.316, 20.14545
1136.798, 22.75766
1137.280, 21.93149
1137.762, 23.24203
1138.244, 22.87842
1138.726, 21.10544
1139.208, 20.62303
1139.691, 16.62262
1140.173, 13.21223
1140.655, 13.00444
1141.137, 13.91215
1141.619, 13.16231
1142.101, 11.80152
1142.583, 12.03138
1143.065, 13.01822
1143.548, 12.67967
1144.030, 11.10046
1144.512, 9.492083
1144.994, 8.384128
1145.476, 8.546546
1145.958, 11.32057
1146.440, 14.70758
1146.922, 17.21302
1147.405, 18.74205
1147.887, 18.90974
1148.369, 18.10104
1148.851, 17.03972
1149.333, 15.86913
1149.815, 14.24868
1150.297, 11.64628
1150.779, 9.577944
1151.261, 8.738648
1151.744, 8.966741
1152.226, 10.74628
1152.708, 13.09521
1153.190, 15.32458
1153.672, 17.03698
1154.154, 17.27345
1154.636, 15.51721
1155.118, 14.46749
1155.600, 15.49872
1156.083, 16.56499
1156.565, 17.13540
1157.047, 17.32125
1157.529, 17.01065
1158.011, 16.48397
1158.493, 16.40590
1158.975, 16.77328
1159.457, 16.02851
1159.940, 12.56430
1160.422, 10.45903
1160.904, 10.11923
1161.386, 10.78228
1161.868, 13.21595
1162.350, 15.33706
1162.832, 15.17674
1163.314, 13.23970
1163.796, 10.75634
1164.279, 7.048708
1164.761, 7.017686
1165.243, 12.02742
1165.725, 15.91750
1166.207, 17.41302
1166.689, 18.00861
1167.171, 18.56121
1167.653, 18.64369
1168.135, 17.50735
1168.618, 15.44202
1169.100, 14.02039
1169.582, 13.24444
1170.064, 12.87803
1170.546, 12.90909
1171.028, 14.02652
1171.510, 16.45984
1171.992, 18.43673
1172.474, 18.61170
1172.957, 17.10458
1173.439, 12.63587
1173.921, 7.112899
1174.403, 6.862430
1174.885, 10.50289
1175.367, 13.24660
1175.849, 14.45710
1176.331, 16.01388
1176.814, 18.66993
1177.296, 19.85608
1177.778, 15.47285
1178.260, 10.91673
1178.742, 14.61332
1179.224, 20.40454
1179.706, 18.85764
1180.188, 13.03012
1180.671, 10.40247
1181.153, 11.95764
1181.635, 13.67009
1182.117, 13.69676
1182.599, 14.05489
1183.081, 17.51315
1183.563, 19.63163
1184.045, 15.22086
1184.527, 10.19254
1185.010, 11.22577
1185.492, 16.16673
1185.974, 19.19944
1186.456, 19.45310
1186.938, 19.25330
1187.420, 19.66090
1187.902, 18.59294
1188.384, 13.82190
1188.866, 9.850815
1189.349, 8.595610
1189.831, 9.096233
1190.313, 10.97547
1190.795, 13.68390
1191.277, 14.90673
1191.759, 16.29977
1192.241, 17.59367
1192.723, 17.31836
1193.206, 18.57879
1193.688, 17.21283
1194.170, 15.89723
1194.652, 16.32543
1195.134, 17.13766
1195.616, 16.50592
1196.098, 14.54440
1196.580, 10.55811
1197.063, 11.49653
1197.545, 5.641412
1198.027, 11.74557
1198.509, 16.09546
1198.991, 16.62706
1199.473, 16.15779
1199.955, 16.63607
1200.437, 16.92241
1200.919, 14.61820
1201.401, 11.75270
1201.884, 13.10126
1202.366, 10.44062
1202.848, 14.08883
1203.330, 8.737823
1203.812, 5.587318
1204.294, 6.336762
1204.776, 9.188104
1205.258, 14.48844
1205.741, 18.83797
1206.223, 19.83761
1206.705, 19.25571
1207.187, 17.38481
1207.669, 15.52797
1208.151, 15.80541
1208.633, 17.34590
1209.115, 16.56010
1209.598, 12.02755
1210.080, 10.03046
1210.562, 14.74670
1211.044, 17.25924
1211.526, 13.30859
1212.008, 9.918090
1212.490, 10.71106
1212.972, 13.34320
1213.454, 15.76589
1213.937, 17.49613
1214.419, 15.54185
1214.901, 8.301065
1215.383, 5.941008
1215.865, 9.369732
1216.347, 12.45834
1216.829, 13.87712
1217.311, 14.42021
1217.793, 14.52815
1218.276, 14.06306
1218.758, 12.55559
1219.240, 10.71776
1219.722, 10.79493
1220.204, 12.25938
1220.686, 13.51855
1221.168, 14.31708
1221.650, 14.20611
1222.133, 13.19358
1222.615, 12.00430
1223.097, 11.06404
1223.579, 9.873691
1224.061, 7.459200
1224.543, 5.130592
1225.025, 3.850193
1225.507, 3.668751
1225.990, 4.670620
1226.472, 6.770103
1226.954, 10.83739
1227.436, 16.40231
1227.918, 18.66129
1228.400, 13.53633
1228.882, 10.72926
1229.364, 14.87963
1229.846, 18.60828
1230.328, 19.80179
1230.811, 18.68216
1231.293, 14.08145
1231.775, 8.299124
1232.257, 5.827345
1232.739, 6.639573
1233.221, 6.599519
1233.703, 5.088899
1234.185, 5.803445
1234.668, 9.538167
1235.150, 12.56233
1235.632, 13.67732
1236.114, 13.49184
1236.596, 12.30767
1237.078, 10.98740
1237.560, 10.80553
1238.042, 11.79446
1238.525, 15.47904
1239.007, 20.17237
1239.489, 19.67447
1239.971, 14.79194
1240.453, 10.64990
1240.935, 8.962331
1241.417, 9.322933
1241.899, 11.97572
1242.381, 14.84594
1242.864, 16.87627
1243.346, 17.80717
1243.828, 16.61740
1244.310, 14.87154
1244.792, 14.38651
1245.274, 14.74871
1245.756, 14.77297
1246.238, 14.28160
1246.720, 13.57439
1247.203, 11.54988
1247.685, 11.25200
1248.167, 15.20877
1248.649, 17.21328
1249.131, 14.16764
1249.613, 10.55097
1250.095, 9.660376
1250.577, 10.56414
1251.059, 11.48141
1251.542, 12.45028
1252.024, 14.21720
1252.506, 16.77356
1252.988, 17.98643
1253.470, 17.68219
1253.952, 16.22120
1254.434, 13.83824
1254.916, 11.91855
1255.399, 11.44584
1255.881, 11.85029
1256.363, 12.78365
1256.845, 13.84592
1257.327, 14.63364
1257.809, 15.02149
1258.291, 15.27435
1258.773, 14.82190
1259.255, 11.21700
1259.738, 5.013926
1260.220, 2.897842
1260.702, 9.418751
1261.184, 14.10230
1261.666, 11.77906
1262.148, 9.443857
1262.630, 11.32724
1263.112, 12.55836
1263.594, 7.581079
1264.077, 1.444972
1264.559, 2.364351
1265.041, 9.194385
1265.523, 11.85723
1266.005, 9.339403
1266.487, 8.763184
1266.969, 10.58181
1267.451, 11.79384
1267.934, 11.66989
1268.416, 11.73879
1268.898, 12.88929
1269.380, 14.07577
1269.862, 13.88744
1270.344, 14.77034
1270.826, 13.99058
1271.308, 15.38103
1271.791, 16.19754
1272.273, 16.36091
1272.755, 15.45904
1273.237, 13.95890
1273.719, 13.92309
1274.201, 16.21272
1274.683, 17.15273
1275.165, 13.95178
1275.647, 10.74263
1276.130, 8.274479
1276.612, 7.160478
1277.094, 8.392770
1277.576, 10.65153
1278.058, 13.26797
1278.540, 15.44887
1279.022, 14.51231
1279.504, 10.00403
1279.986, 9.302859
1280.469, 13.18841
1280.951, 15.31994
1281.433, 14.85722
1281.915, 14.33995
1282.397, 14.69016
1282.879, 14.39985
1283.361, 12.15208
1283.843, 9.546276
1284.326, 8.481284
1284.808, 8.960746
##END=



