##NAMES=Lindgrenite
##RRUFFID=R110061
##IDEAL CHEMISTRY=Cu^2+^_3_(Mo^6+^O_4_)_2_(OH)_2_
##LOCALITY=Childs Aldwinkle mine, Copper Creek, Pinal County, Arizona, USA
##OWNER=RRUFF
##SOURCE=Ron Gibbs
##DESCRIPTION=Pale green needles
##STATUS=The identification of this mineral has been confirmed only by single crystal X-ray diffraction.
##URL=rruff.info/R110061
158.4706, 61.25298
158.9528, 66.46741
159.4349, 70.88770
159.9170, 73.79067
160.3991, 77.02406
160.8812, 81.59188
161.3633, 86.93919
161.8455, 91.60910
162.3276, 94.81001
162.8097, 97.32366
163.2918, 99.67549
163.7739, 101.7769
164.2560, 103.9741
164.7382, 106.2341
165.2203, 108.6533
165.7024, 111.6015
166.1845, 115.4676
166.6666, 119.8649
167.1487, 124.3450
167.6309, 127.9813
168.1130, 132.5763
168.5951, 139.5044
169.0772, 148.5346
169.5593, 158.1331
170.0414, 166.7740
170.5236, 175.6935
171.0057, 186.2523
171.4878, 199.6053
171.9699, 214.3804
172.4520, 230.2056
172.9341, 246.9721
173.4163, 262.3661
173.8984, 275.4449
174.3805, 286.0294
174.8626, 293.5152
175.3447, 298.7455
175.8268, 300.4424
176.3090, 296.5586
176.7911, 287.1006
177.2732, 274.5949
177.7553, 258.5382
178.2374, 239.9236
178.7195, 222.2332
179.2017, 206.6163
179.6838, 192.7293
180.1659, 180.4667
180.6480, 169.6916
181.1301, 160.3030
181.6122, 152.1021
182.0944, 145.0273
182.5765, 139.0967
183.0586, 134.3705
183.5407, 130.7247
184.0228, 127.7382
184.5049, 125.4271
184.9871, 123.6677
185.4692, 122.4672
185.9513, 121.7590
186.4334, 121.2833
186.9155, 120.8630
187.3976, 120.5602
187.8798, 120.6044
188.3619, 121.0172
188.8440, 121.6878
189.3261, 122.3987
189.8082, 123.1717
190.2903, 124.2648
190.7725, 125.8320
191.2546, 127.8556
191.7367, 130.2423
192.2188, 133.1466
192.7009, 136.0308
193.1830, 137.9287
193.6652, 138.8398
194.1473, 139.3360
194.6294, 139.6808
195.1115, 139.8694
195.5936, 139.7840
196.0757, 139.3606
196.5579, 138.7636
197.0400, 138.2777
197.5221, 137.9028
198.0042, 137.6267
198.4863, 137.3877
198.9684, 137.1837
199.4506, 137.1996
199.9327, 137.3158
200.4148, 137.8110
200.8969, 139.4449
201.3790, 142.3837
201.8611, 145.6373
202.3433, 148.7169
202.8254, 151.6245
203.3075, 154.3972
203.7896, 157.0508
204.2717, 159.5321
204.7538, 161.5576
205.2360, 162.9814
205.7181, 164.4801
206.2002, 166.6890
206.6823, 169.8537
207.1644, 172.0907
207.6465, 173.1282
208.1287, 173.2114
208.6108, 173.0051
209.0929, 172.4159
209.5750, 171.7892
210.0571, 171.3048
210.5392, 170.9402
211.0214, 170.7547
211.5035, 170.5938
211.9856, 170.6645
212.4677, 171.7834
212.9498, 174.2263
213.4319, 177.1122
213.9140, 179.9828
214.3962, 182.8527
214.8783, 185.7584
215.3604, 188.9647
215.8425, 192.1752
216.3246, 194.1475
216.8067, 195.0025
217.2889, 194.4458
217.7710, 192.1301
218.2531, 187.5654
218.7352, 182.6593
219.2173, 177.5822
219.6994, 172.2125
220.1816, 166.1747
220.6637, 158.9229
221.1458, 151.7696
221.6279, 145.6568
222.1100, 140.8728
222.5921, 136.2134
223.0743, 131.4807
223.5564, 126.7921
224.0385, 122.4177
224.5206, 118.3122
225.0027, 114.7369
225.4848, 111.9264
225.9670, 110.1640
226.4491, 108.5443
226.9312, 107.0106
227.4133, 105.5693
227.8954, 104.1834
228.3775, 102.9339
228.8597, 101.6623
229.3418, 100.2524
229.8239, 98.54543
230.3060, 97.06002
230.7881, 95.79156
231.2702, 94.76600
231.7524, 94.22878
232.2345, 94.50199
232.7166, 94.80949
233.1987, 94.63837
233.6808, 93.59042
234.1629, 92.95216
234.6451, 92.91711
235.1272, 93.35678
235.6093, 93.72520
236.0914, 94.05083
236.5735, 94.26711
237.0556, 94.32015
237.5378, 94.11784
238.0199, 93.94852
238.5020, 93.78036
238.9841, 93.65620
239.4662, 93.77576
239.9483, 94.29936
240.4305, 94.85328
240.9126, 95.21481
241.3947, 95.18526
241.8768, 95.40431
242.3589, 95.91793
242.8410, 96.69458
243.3232, 97.66354
243.8053, 98.92046
244.2874, 100.2329
244.7695, 101.5077
245.2516, 102.8893
245.7337, 103.8903
246.2159, 104.2468
246.6980, 104.2442
247.1801, 104.7992
247.6622, 106.0918
248.1443, 107.6720
248.6264, 109.3291
249.1086, 111.0840
249.5907, 112.8828
250.0728, 114.7080
250.5549, 116.5814
251.0370, 118.6224
251.5191, 121.1350
252.0013, 123.3431
252.4834, 124.9220
252.9655, 125.7359
253.4476, 126.2266
253.9297, 126.2934
254.4118, 126.0842
254.8940, 126.0276
255.3761, 126.5596
255.8582, 126.4668
256.3403, 125.0704
256.8224, 121.8156
257.3046, 119.1252
257.7867, 117.2014
258.2688, 115.7323
258.7509, 114.1212
259.2330, 112.2798
259.7151, 110.5025
260.1973, 108.8141
260.6794, 107.1338
261.1615, 106.0773
261.6436, 105.8626
262.1257, 106.0934
262.6078, 106.1438
263.0900, 106.0218
263.5721, 105.6959
264.0542, 105.0199
264.5363, 103.8392
265.0184, 103.3614
265.5005, 103.7747
265.9827, 104.6574
266.4648, 105.4285
266.9469, 106.0416
267.4290, 106.6650
267.9111, 107.3623
268.3932, 108.1352
268.8754, 108.8454
269.3575, 109.3788
269.8396, 110.0175
270.3217, 111.2202
270.8038, 113.1789
271.2859, 114.9296
271.7681, 116.1658
272.2502, 116.8975
272.7323, 117.5293
273.2144, 117.9655
273.6965, 118.4730
274.1786, 119.3747
274.6608, 120.7474
275.1429, 122.1419
275.6250, 123.4298
276.1071, 124.6352
276.5892, 125.9611
277.0714, 127.3472
277.5535, 128.9682
278.0356, 130.9775
278.5177, 133.3808
278.9998, 136.1228
279.4819, 139.2651
279.9641, 142.7309
280.4462, 145.9519
280.9283, 148.8235
281.4104, 151.9416
281.8925, 155.7478
282.3746, 160.2395
282.8568, 165.4646
283.3389, 171.5213
283.8210, 178.2451
284.3031, 185.2280
284.7852, 192.5102
285.2673, 199.9791
285.7495, 207.6352
286.2316, 215.4836
286.7137, 223.6983
287.1958, 232.6078
287.6779, 241.4558
288.1600, 248.8512
288.6422, 254.7972
289.1243, 259.3756
289.6064, 262.1647
290.0885, 263.4382
290.5706, 264.3817
291.0527, 265.0378
291.5349, 265.5388
292.0170, 265.9962
292.4991, 266.4218
292.9812, 267.0457
293.4633, 267.5035
293.9454, 268.2039
294.4276, 270.6694
294.9097, 275.1363
295.3918, 280.5622
295.8739, 285.1740
296.3560, 289.3580
296.8381, 295.1789
297.3203, 303.9620
297.8024, 314.9065
298.2845, 326.1812
298.7666, 337.6725
299.2487, 350.8304
299.7308, 368.1888
300.2130, 388.7509
300.6951, 409.3711
301.1772, 429.1765
301.6593, 448.0824
302.1414, 466.5160
302.6235, 484.2993
303.1057, 500.6752
303.5878, 517.0071
304.0699, 531.1804
304.5520, 538.9451
305.0341, 538.5047
305.5162, 531.5313
305.9984, 518.2224
306.4805, 499.1906
306.9626, 477.7168
307.4447, 454.1475
307.9268, 430.1804
308.4089, 408.2453
308.8911, 388.5962
309.3732, 371.6643
309.8553, 358.0695
310.3374, 347.5962
310.8195, 339.2756
311.3016, 334.0864
311.7838, 330.1575
312.2659, 325.7454
312.7480, 320.3428
313.2301, 314.8963
313.7122, 310.3959
314.1943, 306.2084
314.6765, 301.0973
315.1586, 294.3009
315.6407, 286.5788
316.1228, 278.2046
316.6049, 269.1538
317.0870, 259.8846
317.5692, 250.3739
318.0513, 240.8874
318.5334, 231.8550
319.0155, 222.9423
319.4976, 214.9099
319.9797, 208.1641
320.4619, 202.7491
320.9440, 198.3382
321.4261, 195.2341
321.9082, 192.9532
322.3903, 191.0543
322.8724, 189.0398
323.3546, 187.7987
323.8367, 187.7125
324.3188, 188.7543
324.8009, 190.1144
325.2830, 191.5068
325.7651, 193.2622
326.2473, 195.5935
326.7294, 199.5953
327.2115, 202.9414
327.6936, 204.7166
328.1757, 205.3996
328.6578, 207.4508
329.1400, 211.7879
329.6221, 216.7581
330.1042, 221.7259
330.5863, 226.7120
331.0684, 231.6570
331.5505, 236.0068
332.0327, 240.3860
332.5148, 246.2173
332.9969, 254.4961
333.4790, 262.9078
333.9611, 270.7550
334.4432, 277.8290
334.9254, 285.2286
335.4075, 293.2653
335.8896, 301.2628
336.3717, 308.1678
336.8538, 313.4607
337.3359, 318.8127
337.8180, 325.0463
338.3001, 332.0966
338.7823, 336.8993
339.2644, 339.1175
339.7465, 339.6888
340.2286, 339.2595
340.7107, 337.6983
341.1928, 336.0506
341.6750, 334.7833
342.1571, 333.5241
342.6392, 330.6140
343.1213, 325.7687
343.6034, 320.6786
344.0855, 316.5025
344.5677, 313.2419
345.0498, 310.0840
345.5319, 307.0268
346.0140, 303.9199
346.4961, 300.4604
346.9782, 296.6708
347.4604, 292.6999
347.9425, 288.4055
348.4246, 283.9682
348.9067, 280.3224
349.3888, 277.6211
349.8709, 275.1854
350.3531, 272.2938
350.8352, 268.9940
351.3173, 265.4804
351.7994, 261.5206
352.2815, 257.4706
352.7636, 253.7591
353.2458, 250.3850
353.7279, 247.6373
354.2100, 245.8786
354.6921, 244.8924
355.1742, 244.3272
355.6563, 244.2017
356.1385, 244.3034
356.6206, 244.4234
357.1027, 244.5861
357.5848, 244.9094
358.0669, 245.5651
358.5490, 246.3665
359.0312, 247.1870
359.5133, 248.1394
359.9954, 248.8168
360.4775, 249.0608
360.9596, 248.8645
361.4417, 248.2137
361.9239, 247.2621
362.4060, 245.7404
362.8881, 243.5848
363.3702, 240.8545
363.8523, 237.1394
364.3344, 231.7895
364.8166, 225.5655
365.2987, 219.2826
365.7808, 213.2019
366.2629, 207.1783
366.7450, 201.1562
367.2271, 195.1354
367.7093, 189.2663
368.1914, 183.4574
368.6735, 177.8696
369.1556, 172.5648
369.6377, 167.3165
370.1198, 162.7824
370.6020, 159.0322
371.0841, 156.0186
371.5662, 153.6345
372.0483, 152.5823
372.5304, 151.3338
373.0125, 149.1209
373.4947, 145.3335
373.9768, 142.4146
374.4589, 140.6523
374.9410, 139.4942
375.4231, 138.0323
375.9052, 136.0383
376.3874, 134.3756
376.8695, 133.4628
377.3516, 133.2634
377.8337, 132.5487
378.3158, 131.1810
378.7979, 129.6679
379.2801, 128.5022
379.7622, 127.6838
380.2443, 127.0029
380.7264, 126.3656
381.2085, 125.8746
381.6906, 125.8818
382.1728, 126.3927
382.6549, 126.9903
383.1370, 127.3488
383.6191, 127.5456
384.1012, 127.8306
384.5833, 128.1901
385.0655, 128.7794
385.5476, 129.9494
386.0297, 131.5683
386.5118, 133.0992
386.9939, 134.0553
387.4760, 134.8779
387.9582, 136.2570
388.4403, 138.2226
388.9224, 140.3708
389.4045, 142.3892
389.8866, 144.3599
390.3687, 146.4057
390.8509, 148.4333
391.3330, 150.6644
391.8151, 153.5121
392.2972, 156.7914
392.7793, 159.7937
393.2614, 161.6050
393.7436, 163.3505
394.2257, 165.9377
394.7078, 169.7984
395.1899, 173.7870
395.6720, 177.5593
396.1541, 181.1904
396.6363, 184.8015
397.1184, 188.5714
397.6005, 192.1845
398.0826, 195.5697
398.5647, 198.7327
399.0468, 201.5697
399.5290, 203.8414
400.0111, 205.9082
400.4932, 208.0798
400.9753, 210.9615
401.4574, 213.1494
401.9395, 214.5224
402.4217, 215.1076
402.9038, 214.8928
403.3859, 213.3615
403.8680, 211.7908
404.3501, 210.9008
404.8322, 211.0851
405.3144, 210.5659
405.7965, 209.1918
406.2786, 207.3037
406.7607, 205.3546
407.2428, 203.2948
407.7249, 201.4495
408.2071, 200.0517
408.6892, 198.9925
409.1713, 197.5719
409.6534, 195.7339
410.1355, 193.8154
410.6176, 192.2558
411.0998, 190.9407
411.5819, 189.2608
412.0640, 187.1205
412.5461, 184.5158
413.0282, 181.1850
413.5103, 177.2445
413.9925, 173.3200
414.4746, 169.8476
414.9567, 166.5552
415.4388, 163.0652
415.9209, 159.3038
416.4030, 155.4672
416.8852, 151.5765
417.3673, 147.7037
417.8494, 143.9539
418.3315, 140.5764
418.8136, 137.1327
419.2957, 132.9853
419.7779, 128.3420
420.2600, 124.2978
420.7421, 121.9066
421.2242, 119.9935
421.7063, 117.7560
422.1884, 114.7762
422.6706, 111.9090
423.1527, 109.2443
423.6348, 106.8257
424.1169, 104.7194
424.5990, 102.9780
425.0811, 101.4781
425.5633, 100.2428
426.0454, 99.31046
426.5275, 98.33216
427.0096, 97.27407
427.4917, 96.18247
427.9738, 95.06929
428.4560, 93.82798
428.9381, 92.79395
429.4202, 92.04602
429.9023, 91.53307
430.3844, 91.08350
430.8665, 90.75644
431.3487, 90.33060
431.8308, 89.61526
432.3129, 88.58790
432.7950, 87.84851
433.2771, 87.48011
433.7592, 87.20262
434.2414, 86.57669
434.7235, 85.64115
435.2056, 84.86160
435.6877, 84.41489
436.1698, 84.19774
436.6519, 84.01962
437.1341, 83.87928
437.6162, 83.74441
438.0983, 83.56960
438.5804, 83.38792
439.0625, 83.28272
439.5446, 83.30518
440.0268, 83.27779
440.5089, 83.08053
440.9910, 82.71361
441.4731, 82.18388
441.9552, 81.14938
442.4373, 80.21956
442.9195, 79.87148
443.4016, 80.10251
443.8837, 80.30515
444.3658, 80.16089
444.8479, 79.92323
445.3300, 79.79814
445.8122, 80.05067
446.2943, 80.12035
446.7764, 79.63126
447.2585, 78.88010
447.7406, 78.62918
448.2227, 79.55547
448.7049, 80.36421
449.1870, 80.62907
449.6691, 80.22292
450.1512, 80.03329
450.6333, 80.14430
451.1154, 80.38371
451.5976, 80.64989
452.0797, 81.04802
452.5618, 81.08587
453.0439, 80.54813
453.5260, 79.67689
454.0081, 79.20036
454.4903, 79.15697
454.9724, 79.25577
455.4545, 79.39061
455.9366, 79.54601
456.4187, 79.61675
456.9008, 79.59403
457.3830, 79.50938
457.8651, 79.31661
458.3472, 79.07613
458.8293, 78.99953
459.3114, 79.19469
459.7935, 79.54253
460.2757, 79.98486
460.7578, 80.48340
461.2399, 80.85960
461.7220, 80.84334
462.2041, 80.74030
462.6862, 80.90553
463.1684, 81.48190
463.6505, 81.90907
464.1326, 81.72554
464.6147, 81.27404
465.0968, 80.99452
465.5789, 81.08179
466.0611, 81.30264
466.5432, 81.65421
467.0253, 82.11733
467.5074, 82.51196
467.9895, 82.60502
468.4716, 82.79980
468.9538, 83.32396
469.4359, 84.46796
469.9180, 85.28657
470.4001, 85.70454
470.8822, 85.85456
471.3643, 85.88394
471.8465, 85.68272
472.3286, 85.68906
472.8107, 86.08647
473.2928, 86.78654
473.7749, 87.24657
474.2570, 87.39661
474.7392, 87.66121
475.2213, 88.49517
475.7034, 89.79121
476.1855, 90.78943
476.6676, 91.37167
477.1497, 91.78403
477.6319, 92.25943
478.1140, 92.81895
478.5961, 93.52581
479.0782, 94.41699
479.5603, 95.46472
480.0424, 96.65285
480.5246, 97.98232
481.0067, 99.41164
481.4888, 101.2621
481.9709, 103.0089
482.4530, 104.0319
482.9352, 103.7433
483.4173, 103.9044
483.8994, 105.6242
484.3815, 108.1445
484.8636, 110.2924
485.3457, 111.5614
485.8279, 112.6727
486.3100, 113.6507
486.7921, 114.5129
487.2742, 115.8446
487.7563, 118.0880
488.2384, 120.3718
488.7206, 122.1571
489.2027, 123.1464
489.6848, 124.4487
490.1669, 126.1939
490.6490, 128.1333
491.1311, 129.9336
491.6133, 131.5769
492.0954, 133.0980
492.5775, 134.5051
493.0596, 135.7958
493.5417, 136.9254
494.0238, 137.8844
494.5060, 138.8983
494.9881, 140.3841
495.4702, 142.0295
495.9523, 143.0174
496.4344, 143.1454
496.9165, 143.0143
497.3987, 143.3944
497.8808, 143.9306
498.3629, 143.9458
498.8450, 142.7463
499.3271, 141.2865
499.8092, 140.2417
500.2914, 139.5110
500.7735, 138.6039
501.2556, 137.1440
501.7377, 135.5681
502.2198, 134.2275
502.7019, 133.4908
503.1841, 132.0969
503.6662, 129.2741
504.1483, 125.9651
504.6304, 123.2977
505.1125, 121.6675
505.5946, 120.1058
506.0768, 118.5599
506.5589, 116.9700
507.0410, 114.8609
507.5231, 111.9162
508.0052, 109.3440
508.4873, 108.0039
508.9695, 107.9266
509.4516, 107.1759
509.9337, 105.6569
510.4158, 103.8081
510.8979, 102.0272
511.3800, 100.3137
511.8622, 98.70625
512.3443, 97.09176
512.8264, 95.76491
513.3085, 95.37947
513.7906, 95.67730
514.2728, 95.73154
514.7549, 94.81113
515.2370, 93.55949
515.7191, 92.47600
516.2012, 91.59822
516.6833, 90.87608
517.1655, 90.34454
517.6476, 89.91900
518.1297, 89.53005
518.6118, 89.32397
519.0939, 88.95429
519.5760, 88.28630
520.0582, 87.42278
520.5403, 86.58327
521.0224, 85.65123
521.5045, 84.92138
521.9866, 84.51506
522.4688, 84.43037
522.9509, 84.34055
523.4330, 84.26504
523.9151, 84.13585
524.3972, 83.82249
524.8793, 83.31735
525.3615, 83.11734
525.8436, 83.34132
526.3257, 83.66719
526.8078, 83.60503
527.2899, 83.21337
527.7720, 82.76360
528.2542, 82.33076
528.7363, 81.92718
529.2184, 81.57255
529.7005, 81.26411
530.1826, 80.96947
530.6647, 80.68636
531.1469, 80.40014
531.6290, 80.09898
532.1111, 79.78754
532.5932, 79.44280
533.0753, 78.85966
533.5574, 78.32375
534.0396, 78.14063
534.5217, 78.87557
535.0038, 79.36172
535.4859, 79.28943
535.9680, 78.84557
536.4501, 78.63618
536.9323, 78.84996
537.4144, 78.97548
537.8965, 78.77950
538.3786, 78.25159
538.8607, 77.91614
539.3428, 77.82742
539.8250, 77.76899
540.3071, 77.48476
540.7892, 77.01394
541.2713, 76.69185
541.7534, 76.56023
542.2355, 76.62221
542.7177, 77.00281
543.1998, 77.60480
543.6819, 78.10862
544.1640, 78.37525
544.6461, 78.46671
545.1282, 78.43443
545.6104, 78.27653
546.0925, 77.98373
546.5746, 77.24662
547.0567, 76.58883
547.5388, 76.44653
548.0209, 77.10473
548.5031, 77.51521
548.9852, 77.30086
549.4673, 76.81148
549.9494, 76.40815
550.4315, 76.03820
550.9136, 75.85732
551.3958, 75.97334
551.8779, 76.26537
552.3600, 76.36376
552.8421, 76.22642
553.3242, 76.03992
553.8063, 75.82902
554.2885, 75.61864
554.7706, 75.65355
555.2527, 75.95386
555.7348, 76.28869
556.2169, 76.57199
556.6990, 76.73005
557.1812, 76.47802
557.6633, 75.65332
558.1454, 74.87946
558.6275, 74.80038
559.1096, 75.18818
559.5917, 75.63984
560.0739, 76.32224
560.5560, 76.71439
561.0381, 76.31485
561.5202, 75.32687
562.0023, 74.63217
562.4844, 74.75829
562.9666, 74.96195
563.4487, 74.81028
563.9308, 74.10251
564.4129, 74.03721
564.8950, 75.06150
565.3771, 76.23817
565.8593, 76.79186
566.3414, 76.60422
566.8235, 76.24271
567.3056, 75.64693
567.7877, 75.07213
568.2698, 75.14999
568.7520, 75.82918
569.2341, 76.21191
569.7162, 75.79170
570.1983, 74.98064
570.6804, 74.36681
571.1625, 73.98339
571.6447, 74.02569
572.1268, 75.13145
572.6089, 76.43143
573.0910, 76.99028
573.5731, 76.62395
574.0552, 76.20322
574.5374, 76.15453
575.0195, 76.22279
575.5016, 76.16877
575.9837, 75.57328
576.4658, 75.31890
576.9479, 75.73753
577.4301, 76.48362
577.9122, 76.87566
578.3943, 76.76521
578.8764, 76.58900
579.3585, 76.42581
579.8406, 76.28812
580.3228, 76.28399
580.8049, 76.42596
581.2870, 76.61802
581.7691, 76.88741
582.2512, 77.16942
582.7333, 77.14165
583.2155, 76.75765
583.6975, 76.35548
584.1796, 76.22627
584.6617, 76.29758
585.1439, 76.47195
585.6260, 76.83289
586.1081, 77.09276
586.5902, 76.99577
587.0723, 76.68149
587.5544, 76.42165
588.0366, 76.16512
588.5187, 76.09879
589.0008, 76.40884
589.4829, 77.06271
589.9650, 77.45393
590.4471, 77.52009
590.9293, 77.39510
591.4114, 77.05312
591.8935, 76.40536
592.3756, 76.19617
592.8577, 76.51423
593.3398, 77.03151
593.8220, 77.48935
594.3041, 77.87458
594.7862, 78.06743
595.2683, 78.02309
595.7504, 77.84436
596.2325, 77.56128
596.7147, 77.24407
597.1968, 77.07749
597.6789, 77.26795
598.1610, 77.53249
598.6431, 77.70350
599.1252, 77.78178
599.6074, 77.78271
600.0895, 77.55497
600.5716, 77.38474
601.0537, 77.47018
601.5358, 77.92533
602.0179, 78.12623
602.5001, 77.87687
602.9822, 77.55998
603.4643, 77.48888
603.9464, 77.76984
604.4285, 77.85804
604.9106, 77.67297
605.3928, 77.37560
605.8749, 77.16191
606.3570, 77.03651
606.8391, 77.08360
607.3212, 77.41335
607.8033, 77.81846
608.2855, 78.01854
608.7676, 78.02764
609.2497, 77.90585
609.7318, 77.43943
610.2139, 77.03474
610.6960, 77.13007
611.1782, 77.72038
611.6603, 78.13691
612.1424, 77.90880
612.6245, 77.60894
613.1066, 77.62612
613.5887, 78.25417
614.0709, 78.57117
614.5530, 78.39114
615.0351, 78.07239
615.5172, 78.02254
615.9993, 78.33483
616.4814, 78.47597
616.9636, 78.32072
617.4457, 78.03340
617.9278, 77.96191
618.4099, 78.07985
618.8920, 78.10971
619.3741, 77.76536
619.8563, 77.38878
620.3384, 77.60863
620.8205, 78.30859
621.3026, 78.90966
621.7847, 79.02334
622.2668, 78.95013
622.7490, 78.89285
623.2311, 78.87422
623.7132, 78.83973
624.1953, 78.90723
624.6774, 78.86435
625.1595, 78.52744
625.6417, 77.47076
626.1238, 76.99047
626.6059, 77.31851
627.0880, 77.97556
627.5701, 78.35033
628.0522, 78.42482
628.5344, 78.37730
629.0165, 78.19200
629.4986, 77.98376
629.9807, 78.01401
630.4628, 78.24184
630.9449, 78.44657
631.4271, 78.47001
631.9092, 78.44606
632.3913, 78.52914
632.8734, 78.70374
633.3555, 78.86903
633.8376, 79.01289
634.3198, 79.10151
634.8019, 79.07009
635.2840, 78.85793
635.7661, 78.82168
636.2482, 79.14391
636.7303, 79.53012
637.2125, 79.78101
637.6946, 79.85274
638.1767, 79.94201
638.6588, 80.11257
639.1409, 80.20715
639.6230, 79.94286
640.1052, 79.34370
640.5873, 78.75179
641.0694, 78.21159
641.5515, 77.80310
642.0336, 77.74895
642.5157, 77.94656
642.9979, 78.09571
643.4800, 77.84812
643.9621, 77.66493
644.4442, 78.00058
644.9263, 78.75201
645.4084, 79.29214
645.8906, 79.31009
646.3727, 79.16270
646.8548, 78.94872
647.3369, 78.63340
647.8190, 78.57349
648.3011, 78.89806
648.7833, 79.28580
649.2654, 79.55087
649.7475, 79.70833
650.2296, 79.48359
650.7117, 78.77307
651.1938, 78.02464
651.6760, 77.83643
652.1581, 78.07582
652.6402, 78.35291
653.1223, 78.59185
653.6044, 78.78075
654.0865, 78.85954
654.5687, 78.88979
655.0508, 78.99004
655.5329, 79.36343
656.0150, 79.65267
656.4971, 79.70980
656.9792, 79.56230
657.4614, 79.35763
657.9435, 78.93994
658.4256, 78.70039
658.9077, 78.83898
659.3898, 79.33212
659.8719, 79.56339
660.3541, 79.48122
660.8362, 79.37817
661.3183, 79.53083
661.8004, 79.84242
662.2825, 79.89245
662.7646, 79.64491
663.2468, 79.37183
663.7289, 79.34021
664.2110, 79.41755
664.6931, 79.43011
665.1752, 79.32365
665.6573, 79.19514
666.1395, 78.88316
666.6216, 78.65012
667.1037, 78.81871
667.5858, 80.21542
668.0679, 80.98843
668.5500, 80.70901
669.0322, 79.85036
669.5143, 79.45152
669.9964, 79.58437
670.4785, 79.82851
670.9606, 80.13728
671.4427, 80.41336
671.9249, 80.23209
672.4070, 79.66784
672.8891, 79.33284
673.3712, 79.86394
673.8533, 80.65835
674.3354, 80.98241
674.8176, 80.85905
675.2997, 80.72707
675.7818, 80.94813
676.2639, 81.12312
676.7460, 80.91506
677.2281, 80.09389
677.7103, 79.70750
678.1924, 80.05457
678.6745, 80.57471
679.1566, 80.86636
679.6387, 80.88603
680.1208, 80.89320
680.6030, 80.91724
681.0851, 80.88567
681.5672, 80.63709
682.0493, 80.23586
682.5314, 79.93656
683.0135, 79.78097
683.4957, 79.80027
683.9778, 80.15861
684.4599, 80.70301
684.9420, 81.13227
685.4241, 81.39492
685.9063, 81.46780
686.3884, 81.16584
686.8705, 80.64354
687.3526, 80.43933
687.8347, 80.79288
688.3168, 81.15139
688.7990, 81.36515
689.2811, 81.46011
689.7632, 81.61590
690.2453, 81.85783
690.7274, 81.98942
691.2095, 81.81670
691.6917, 81.45043
692.1738, 81.21157
692.6559, 81.10297
693.1380, 81.04863
693.6201, 81.02869
694.1022, 81.01390
694.5844, 80.94952
695.0665, 80.80749
695.5486, 80.76205
696.0307, 80.94364
696.5128, 81.19901
696.9949, 81.40646
697.4771, 81.51432
697.9592, 81.68576
698.4413, 81.97533
698.9234, 82.25853
699.4055, 82.41472
699.8876, 82.44661
700.3698, 82.19059
700.8519, 81.48169
701.3340, 80.85796
701.8161, 81.38989
702.2982, 82.61476
702.7803, 83.34628
703.2625, 82.71253
703.7446, 81.97285
704.2267, 82.07765
704.7088, 82.69202
705.1909, 83.08147
705.6730, 82.67730
706.1552, 82.45032
706.6373, 82.76054
707.1194, 83.44991
707.6015, 83.78252
708.0836, 83.68328
708.5657, 83.42484
709.0479, 82.99660
709.5300, 82.50939
710.0121, 82.50888
710.4942, 82.97946
710.9763, 83.52769
711.4584, 83.99983
711.9406, 84.34195
712.4227, 84.39736
712.9048, 84.17461
713.3869, 84.07868
713.8690, 84.53223
714.3511, 85.01540
714.8333, 85.16410
715.3154, 84.80358
715.7975, 84.54014
716.2796, 84.36044
716.7617, 84.29916
717.2438, 84.42797
717.7260, 84.77455
718.2081, 84.98660
718.6902, 85.01187
719.1723, 85.02900
719.6544, 85.27061
720.1365, 85.66576
720.6187, 86.04854
721.1008, 86.40527
721.5829, 86.67902
722.0650, 86.74379
722.5471, 86.72929
723.0292, 86.81165
723.5114, 87.20117
723.9935, 87.48608
724.4756, 87.46495
724.9577, 87.35108
725.4398, 87.57590
725.9219, 88.36077
726.4041, 88.75548
726.8862, 88.41832
727.3683, 87.71432
727.8504, 87.52775
728.3325, 87.80325
728.8146, 88.18604
729.2968, 88.61962
729.7789, 88.98847
730.2610, 89.09624
730.7431, 89.01640
731.2252, 88.99270
731.7073, 89.12791
732.1895, 89.34350
732.6716, 89.61102
733.1537, 89.93256
733.6358, 90.32252
734.1179, 90.85942
734.6000, 91.34228
735.0822, 91.69036
735.5643, 91.91096
736.0464, 91.99859
736.5285, 91.94341
737.0106, 91.96231
737.4927, 92.21017
737.9749, 92.63483
738.4570, 93.23648
738.9391, 93.99806
739.4212, 94.61143
739.9033, 94.66478
740.3854, 94.66365
740.8676, 95.03244
741.3497, 95.98167
741.8318, 96.62440
742.3139, 96.67675
742.7960, 96.67712
743.2781, 96.97424
743.7603, 97.58743
744.2424, 98.42863
744.7245, 99.56654
745.2066, 100.6527
745.6887, 101.3273
746.1708, 101.6780
746.6530, 101.8490
747.1351, 101.8007
747.6172, 101.9176
748.0993, 102.6063
748.5814, 103.5646
749.0635, 104.4470
749.5457, 105.1385
750.0278, 105.8192
750.5099, 106.2917
750.9920, 106.8907
751.4741, 108.1200
751.9562, 110.2107
752.4384, 111.8544
752.9205, 112.7518
753.4026, 113.3612
753.8847, 114.3902
754.3668, 115.7556
754.8489, 117.1425
755.3311, 118.4369
755.8132, 119.7474
756.2953, 121.0066
756.7774, 122.3681
757.2595, 124.0727
757.7416, 126.6282
758.2238, 129.0496
758.7059, 131.0273
759.1880, 132.7790
759.6701, 134.7333
760.1522, 136.8824
760.6343, 139.3649
761.1165, 142.4004
761.5986, 145.6456
762.0807, 148.0218
762.5628, 149.7380
763.0449, 152.0135
763.5270, 155.6917
764.0092, 159.9199
764.4913, 164.0120
764.9734, 168.0254
765.4555, 172.2066
765.9376, 177.1084
766.4197, 181.6365
766.9019, 185.0173
767.3840, 187.5943
767.8661, 191.0018
768.3482, 195.4309
768.8303, 200.1196
769.3124, 204.9066
769.7946, 209.6255
770.2767, 213.6325
770.7588, 217.0217
771.2409, 220.6727
771.7230, 225.6202
772.2051, 230.7368
772.6873, 234.8090
773.1694, 237.9509
773.6515, 241.0858
774.1336, 244.8701
774.6157, 248.4344
775.0978, 251.4195
775.5800, 253.8408
776.0621, 255.9578
776.5442, 257.7610
777.0263, 259.2935
777.5084, 260.4852
777.9905, 261.4078
778.4727, 262.5163
778.9548, 263.7756
779.4369, 264.5827
779.9190, 264.0276
780.4011, 263.1197
780.8832, 262.6048
781.3654, 262.5618
781.8475, 263.4947
782.3296, 266.5773
782.8117, 269.7661
783.2938, 271.9075
783.7759, 272.8322
784.2581, 274.6337
784.7402, 277.3335
785.2223, 280.8228
785.7044, 285.3360
786.1865, 290.6086
786.6686, 295.6825
787.1508, 300.5602
787.6329, 305.6808
788.1150, 311.3131
788.5971, 317.5002
789.0792, 324.1729
789.5613, 331.4278
790.0435, 339.0003
790.5256, 347.1278
791.0077, 355.3579
791.4898, 363.5471
791.9719, 371.6071
792.4540, 379.8626
792.9362, 388.2876
793.4183, 396.4065
793.9004, 404.0951
794.3825, 411.0585
794.8646, 416.0152
795.3467, 418.9044
795.8289, 421.0498
796.3110, 424.5599
796.7931, 426.9879
797.2752, 426.0572
797.7573, 420.9745
798.2394, 414.7978
798.7216, 408.0919
799.2037, 400.2689
799.6858, 390.8238
800.1679, 379.5021
800.6500, 368.2391
801.1321, 356.8753
801.6143, 345.6264
802.0964, 334.6471
802.5785, 323.9321
803.0606, 313.2077
803.5427, 302.4272
804.0248, 292.1806
804.5070, 282.4920
804.9891, 273.5660
805.4712, 265.5851
805.9533, 258.5606
806.4354, 252.4681
806.9175, 247.6794
807.3997, 243.2759
807.8818, 238.4523
808.3639, 233.2695
808.8460, 228.9355
809.3281, 225.5473
809.8102, 222.3132
810.2924, 218.1278
810.7745, 213.8385
811.2566, 210.7639
811.7387, 209.2261
812.2208, 207.6478
812.7029, 205.1021
813.1851, 202.5095
813.6672, 200.5655
814.1493, 199.4833
814.6314, 198.1001
815.1135, 196.2997
815.5956, 194.5152
816.0778, 193.2131
816.5599, 192.2581
817.0420, 190.9578
817.5241, 189.2594
818.0062, 187.7246
818.4883, 186.7447
818.9705, 186.1471
819.4526, 185.8204
819.9347, 185.7735
820.4168, 185.7926
820.8989, 185.8470
821.3810, 185.9452
821.8632, 186.0809
822.3453, 186.2453
822.8274, 186.5540
823.3095, 187.0103
823.7916, 187.5776
824.2737, 188.0820
824.7559, 188.7143
825.2380, 189.9761
825.7201, 191.8689
826.2022, 193.7998
826.6843, 195.3664
827.1664, 196.8654
827.6486, 198.3991
828.1307, 199.9447
828.6128, 202.0171
829.0949, 204.8618
829.5770, 207.8271
830.0591, 210.4599
830.5413, 212.8352
831.0234, 216.1166
831.5055, 220.2894
831.9876, 224.3363
832.4697, 227.4505
832.9518, 230.1375
833.4340, 232.7353
833.9161, 235.3197
834.3982, 238.6472
834.8803, 243.7277
835.3624, 248.8884
835.8445, 253.4536
836.3267, 257.4200
836.8088, 261.1334
837.2909, 264.5679
837.7730, 267.7922
838.2551, 271.0448
838.7372, 274.0566
839.2194, 276.0386
839.7015, 277.0918
840.1836, 277.7957
840.6657, 278.6332
841.1478, 279.0933
841.6299, 279.1319
842.1121, 278.6120
842.5942, 276.5621
843.0763, 272.2570
843.5584, 267.7268
844.0405, 263.7342
844.5226, 259.9572
845.0048, 255.0109
845.4869, 248.9517
845.9690, 242.6381
846.4511, 236.3324
846.9332, 230.2128
847.4153, 224.5579
847.8975, 219.2776
848.3796, 214.1137
848.8617, 208.6967
849.3438, 203.7103
849.8259, 199.4365
850.3080, 195.7160
850.7902, 192.2303
851.2723, 189.0317
851.7544, 185.8941
852.2365, 182.6289
852.7186, 179.5942
853.2007, 177.5065
853.6829, 176.1791
854.1650, 175.0803
854.6471, 173.9929
855.1292, 173.0763
855.6113, 172.4934
856.0934, 172.1136
856.5756, 171.6694
857.0577, 170.9835
857.5398, 170.5747
858.0219, 170.5457
858.5040, 170.7304
858.9861, 170.8615
859.4683, 170.9631
859.9504, 171.0697
860.4325, 171.0314
860.9146, 171.5244
861.3967, 173.8432
861.8788, 176.7551
862.3610, 178.6920
862.8431, 178.1518
863.3252, 178.6748
863.8073, 181.0554
864.2894, 184.0372
864.7715, 186.3421
865.2537, 187.9260
865.7358, 189.7381
866.2179, 191.8558
866.7000, 194.2874
867.1821, 197.0050
867.6642, 200.0746
868.1464, 203.6655
868.6285, 207.9523
869.1106, 212.0279
869.5927, 214.9774
870.0748, 218.1257
870.5569, 222.3517
871.0391, 227.7991
871.5212, 233.1412
872.0033, 238.2700
872.4854, 243.6166
872.9675, 249.4048
873.4496, 255.6342
873.9318, 262.2802
874.4139, 269.2885
874.8960, 276.1524
875.3781, 282.1366
875.8602, 288.2562
876.3423, 295.1661
876.8245, 302.8622
877.3066, 310.5641
877.7887, 318.2890
878.2708, 326.0210
878.7529, 333.8434
879.2350, 341.6208
879.7172, 349.0559
880.1993, 356.0927
880.6814, 362.9185
881.1635, 369.5319
881.6456, 376.0546
882.1277, 382.8879
882.6099, 389.7219
883.0920, 395.6168
883.5741, 399.7054
884.0562, 403.9069
884.5383, 409.1382
885.0204, 414.1997
885.5026, 416.2676
885.9847, 415.4696
886.4668, 413.8304
886.9489, 411.8793
887.4310, 409.3936
887.9131, 405.8302
888.3953, 401.7042
888.8774, 397.7821
889.3595, 395.0395
889.8416, 391.3327
890.3237, 385.6641
890.8058, 379.5441
891.2880, 374.3065
891.7701, 369.9748
892.2522, 366.8133
892.7343, 364.9681
893.2164, 363.3940
893.6985, 360.9586
894.1807, 358.1180
894.6628, 355.2406
895.1449, 352.2458
895.6270, 350.4196
896.1091, 351.8605
896.5912, 353.1579
897.0734, 351.9937
897.5555, 348.0676
898.0376, 345.7700
898.5197, 345.3802
899.0018, 345.0655
899.4839, 343.6422
899.9661, 341.3992
900.4482, 338.7505
900.9303, 335.7277
901.4124, 332.5826
901.8945, 329.6917
902.3766, 326.4190
902.8588, 322.0735
903.3409, 317.0002
903.8230, 312.6317
904.3051, 309.1452
904.7872, 305.4462
905.2693, 300.8823
905.7515, 296.1713
906.2336, 292.7668
906.7157, 290.4150
907.1978, 288.3691
907.6799, 285.8195
908.1620, 284.1487
908.6442, 284.0919
909.1263, 285.3074
909.6084, 287.1827
910.0905, 289.8731
910.5726, 292.6107
911.0547, 295.1191
911.5369, 298.2713
912.0190, 303.1875
912.5011, 309.6938
912.9832, 317.1706
913.4653, 325.4101
913.9474, 335.3224
914.4296, 346.8682
914.9117, 360.7482
915.3938, 377.5228
915.8759, 397.0159
916.3580, 419.9619
916.8401, 445.9191
917.3223, 476.4021
917.8044, 512.3052
918.2865, 553.4448
918.7686, 600.7040
919.2507, 653.9315
919.7328, 711.7556
920.2150, 776.1808
920.6971, 842.3417
921.1792, 907.9778
921.6613, 973.3719
922.1434, 1038.973
922.6255, 1103.883
923.1077, 1171.475
923.5898, 1241.489
924.0719, 1316.161
924.5540, 1400.378
925.0361, 1495.320
925.5182, 1603.230
926.0004, 1725.240
926.4825, 1861.756
926.9646, 2017.869
927.4467, 2188.756
927.9288, 2365.521
928.4109, 2548.822
928.8931, 2739.351
929.3752, 2942.424
929.8573, 3138.609
930.3394, 3322.793
930.8215, 3483.236
931.3036, 3590.527
931.7858, 3642.835
932.2679, 3615.804
932.7500, 3475.424
933.2321, 3262.606
933.7142, 2990.575
934.1964, 2653.438
934.6785, 2332.334
935.1606, 2024.413
935.6427, 1745.458
936.1248, 1507.518
936.6069, 1305.016
937.0891, 1134.282
937.5712, 991.8732
938.0533, 872.2717
938.5354, 778.9215
939.0175, 700.4389
939.4996, 634.0754
939.9818, 578.3943
940.4639, 530.5356
940.9460, 492.0038
941.4281, 457.9130
941.9102, 428.0477
942.3923, 401.7185
942.8745, 378.0574
943.3566, 356.9148
943.8387, 338.6133
944.3208, 323.7070
944.8029, 310.5266
945.2850, 298.4512
945.7672, 287.3653
946.2493, 277.1946
946.7314, 268.0372
947.2135, 259.1099
947.6956, 250.3145
948.1777, 242.1374
948.6599, 235.3205
949.1420, 229.4745
949.6241, 223.7030
950.1062, 218.0317
950.5883, 212.8779
951.0704, 208.7160
951.5526, 204.8631
952.0347, 201.0224
952.5168, 197.2226
952.9989, 193.6649
953.4810, 190.3028
953.9631, 187.4470
954.4453, 185.3183
954.9274, 183.5006
955.4095, 181.3821
955.8916, 179.0439
956.3737, 176.5680
956.8558, 173.6597
957.3380, 171.2297
957.8201, 170.2612
958.3022, 169.4361
958.7843, 167.3744
959.2664, 163.6931
959.7485, 160.9962
960.2307, 159.4642
960.7128, 158.1988
961.1949, 156.4423
961.6770, 154.4380
962.1591, 152.3763
962.6412, 150.2964
963.1234, 148.7986
963.6055, 149.2563
964.0876, 148.9579
964.5697, 146.5283
965.0518, 142.6433
965.5339, 140.3100
966.0161, 139.5213
966.4982, 138.9127
966.9803, 137.9618
967.4624, 136.9546
967.9445, 136.2381
968.4266, 135.6905
968.9088, 135.1261
969.3909, 134.4454
969.8730, 133.7955
970.3551, 133.0882
970.8372, 132.5314
971.3193, 132.4373
971.8015, 132.7409
972.2836, 132.7265
972.7657, 132.3296
973.2478, 132.0350
973.7299, 132.1780
974.2120, 132.6180
974.6942, 133.3182
975.1763, 134.2736
975.6584, 135.1567
976.1405, 136.0854
976.6226, 136.6136
977.1047, 136.2562
977.5869, 135.6496
978.0690, 136.6729
978.5511, 139.0215
979.0332, 141.5952
979.5153, 144.1143
979.9974, 146.5481
980.4796, 148.8750
980.9617, 151.1085
981.4438, 153.2457
981.9259, 155.2173
982.4080, 157.5247
982.8901, 160.3883
983.3723, 162.8940
983.8544, 164.0015
984.3365, 164.1446
984.8186, 164.3380
985.3007, 164.6301
985.7828, 163.7905
986.2650, 160.7092
986.7471, 156.9234
987.2292, 153.1152
987.7113, 149.2256
988.1934, 144.7410
988.6755, 139.6152
989.1577, 134.9270
989.6398, 131.1431
990.1219, 127.9807
990.6040, 125.3444
991.0861, 123.0466
991.5682, 120.7685
992.0504, 118.2398
992.5325, 116.0098
993.0146, 114.0543
993.4967, 112.4667
993.9788, 111.4228
994.4609, 110.8491
994.9431, 110.0445
995.4252, 108.9720
995.9073, 108.0106
996.3894, 107.5433
996.8715, 107.1941
997.3536, 106.6780
997.8358, 105.9957
998.3179, 105.3357
998.8000, 104.6780
999.2821, 104.0930
999.7642, 103.5622
1000.246, 103.1613
1000.728, 103.2417
1001.211, 103.5737
1001.693, 103.5307
1002.175, 102.7158
1002.657, 101.9543
1003.139, 101.5277
1003.621, 101.3839
1004.103, 101.5125
1004.585, 101.9907
1005.068, 102.3307
1005.550, 102.5451
1006.032, 102.5138
1006.514, 101.8848
1006.996, 101.1261
1007.478, 100.8866
1007.960, 101.0891
1008.442, 101.1781
1008.924, 100.9932
1009.407, 100.6583
1009.889, 100.1103
1010.371, 99.50211
1010.853, 99.20908
1011.335, 99.17015
1011.817, 98.96645
1012.299, 98.44082
1012.781, 98.00191
1013.263, 98.10342
1013.746, 98.34795
1014.228, 98.32972
1014.710, 97.96121
1015.192, 97.66946
1015.674, 97.46233
1016.156, 97.31419
1016.638, 97.16707
1017.120, 97.08457
1017.603, 97.39426
1018.085, 97.92330
1018.567, 98.05390
1019.049, 96.79830
1019.531, 95.97858
1020.013, 96.49782
1020.495, 97.49353
1020.977, 97.67199
1021.459, 97.00960
1021.942, 96.46181
1022.424, 96.14404
1022.906, 95.97218
1023.388, 95.87253
1023.870, 95.87261
1024.352, 96.09499
1024.834, 96.58241
1025.316, 96.69265
1025.799, 96.19141
1026.281, 95.75143
1026.763, 95.70592
1027.245, 95.84810
1027.727, 95.51321
1028.209, 94.87672
1028.691, 94.53903
1029.173, 94.96358
1029.656, 95.36684
1030.138, 95.31778
1030.620, 95.10438
1031.102, 95.04655
1031.584, 95.19009
1032.066, 95.14761
1032.548, 94.87010
1033.030, 94.78366
1033.512, 95.53905
1033.995, 96.48476
1034.477, 96.81817
1034.959, 96.58039
1035.441, 96.28349
1035.923, 96.09982
1036.405, 95.74915
1036.887, 95.07646
1037.369, 94.32327
1037.851, 93.94183
1038.334, 93.88625
1038.816, 94.02694
1039.298, 94.42593
1039.780, 94.59859
1040.262, 93.84840
1040.744, 93.06491
1041.226, 93.09387
1041.708, 94.01746
1042.191, 94.21791
1042.673, 93.62046
1043.155, 92.97253
1043.637, 92.58153
1044.119, 92.45090
1044.601, 92.73967
1045.083, 93.27631
1045.565, 93.65710
1046.047, 93.67155
1046.530, 93.65182
1047.012, 93.63462
1047.494, 93.58201
1047.976, 93.36875
1048.458, 93.06711
1048.940, 93.12350
1049.422, 93.55770
1049.904, 93.88169
1050.386, 93.66594
1050.869, 93.36226
1051.351, 93.24451
1051.833, 93.27406
1052.315, 93.25311
1052.797, 93.15549
1053.279, 93.25488
1053.761, 93.73378
1054.243, 94.14780
1054.726, 93.78062
1055.208, 93.05812
1055.690, 92.57320
1056.172, 92.49651
1056.654, 92.51885
1057.136, 92.65148
1057.618, 92.79057
1058.100, 92.88456
1058.583, 92.93374
1059.065, 92.89484
1059.547, 92.79842
1060.029, 92.78537
1060.511, 93.13250
1060.993, 93.34360
1061.475, 92.95986
1061.957, 92.44897
1062.439, 92.58939
1062.922, 93.53441
1063.404, 93.62268
1063.886, 92.64493
1064.368, 91.58430
1064.850, 91.21329
1065.332, 91.26267
1065.814, 91.61494
1066.296, 92.21122
1066.778, 92.53415
1067.261, 92.51152
1067.743, 92.26897
1068.225, 91.72807
1068.707, 91.16965
1069.189, 91.22922
1069.671, 91.67058
1070.153, 91.92992
1070.635, 91.81694
1071.118, 91.71001
1071.600, 91.83604
1072.082, 91.93848
1072.564, 91.84724
1073.046, 91.58619
1073.528, 91.43592
1074.010, 91.39336
1074.492, 91.38274
1074.974, 91.41475
1075.457, 91.40932
1075.939, 91.28121
1076.421, 91.08457
1076.903, 90.88359
1077.385, 90.57214
1077.867, 90.67518
1078.349, 91.33513
1078.831, 91.88894
1079.313, 91.46243
1079.796, 90.67869
1080.278, 90.56701
1080.760, 91.06517
1081.242, 91.38755
1081.724, 91.02963
1082.206, 90.83979
1082.688, 91.10401
1083.170, 91.47603
1083.652, 91.09504
1084.135, 90.24661
1084.617, 90.14009
1085.099, 91.10556
1085.581, 92.01609
1086.063, 92.32661
1086.545, 92.24532
1087.027, 91.81751
1087.509, 91.10453
1087.992, 90.60247
1088.474, 90.30940
1088.956, 90.45200
1089.438, 91.41173
1089.920, 92.33801
1090.402, 92.31227
1090.884, 91.77727
1091.366, 91.29658
1091.849, 90.78374
1092.331, 90.90677
1092.813, 91.93032
1093.295, 92.69267
1093.777, 91.92014
1094.259, 90.51123
1094.741, 90.22135
1095.223, 90.79673
1095.705, 91.28438
1096.188, 91.05341
1096.670, 91.12090
1097.152, 91.84375
1097.634, 92.66134
1098.116, 92.76676
1098.598, 92.31888
1099.080, 92.02779
1099.562, 91.95924
1100.044, 92.06565
1100.527, 92.68398
1101.009, 93.09454
1101.491, 92.72047
1101.973, 91.87099
1102.455, 91.53307
1102.937, 91.71052
1103.419, 91.91016
1103.901, 92.02531
1104.384, 92.07211
1104.866, 91.97604
1105.348, 91.87667
1105.830, 91.94106
1106.312, 92.21254
1106.794, 92.42173
1107.276, 92.61424
1107.758, 92.53712
1108.240, 91.92750
1108.723, 91.16349
1109.205, 90.72471
1109.687, 90.59626
1110.169, 90.76512
1110.651, 91.57602
1111.133, 92.01263
1111.615, 91.86160
1112.097, 91.60607
1112.579, 91.58971
1113.062, 91.77402
1113.544, 92.08748
1114.026, 92.49604
1114.508, 92.83147
1114.990, 93.02081
1115.472, 93.11365
1115.954, 93.16357
1116.436, 93.09685
1116.919, 92.67857
1117.401, 91.95993
1117.883, 91.80186
1118.365, 92.28091
1118.847, 92.72692
1119.329, 92.65895
1119.811, 92.39941
1120.293, 92.05529
1120.776, 91.69843
1121.258, 91.54419
1121.740, 91.60334
1122.222, 91.79002
1122.704, 92.13146
1123.186, 92.39102
1123.668, 92.09687
1124.150, 91.74277
1124.632, 92.00676
1125.115, 93.05401
1125.597, 93.32642
1126.079, 92.53535
1126.561, 91.88588
1127.043, 91.86354
1127.525, 92.17840
1128.007, 92.49084
1128.489, 92.75266
1128.971, 92.86146
1129.454, 92.71706
1129.936, 92.61814
1130.418, 92.52896
1130.900, 92.62022
1131.382, 93.20459
1131.864, 93.96571
1132.346, 93.67654
1132.828, 92.69572
1133.311, 92.20700
1133.793, 93.57824
1134.275, 94.32866
1134.757, 93.51075
1135.239, 92.30531
1135.721, 91.72861
1136.203, 91.74506
1136.685, 92.20793
1137.167, 93.05009
1137.650, 93.62643
1138.132, 93.36354
1138.614, 92.94382
1139.096, 92.52039
1139.578, 92.23828
1140.060, 92.45911
1140.542, 93.20373
1141.024, 93.50017
1141.506, 93.22987
1141.989, 92.87741
1142.471, 92.71970
1142.953, 92.72579
1143.435, 92.99957
1143.917, 93.43677
1144.399, 93.55895
1144.881, 93.32607
1145.363, 93.00366
1145.846, 92.60737
1146.328, 92.33671
1146.810, 92.50866
1147.292, 92.86480
1147.774, 93.19746
1148.256, 93.48022
1148.738, 93.42448
1149.220, 92.89663
1149.703, 92.50586
1150.185, 92.48885
1150.667, 92.66352
1151.149, 92.81108
1151.631, 92.94650
1152.113, 93.10373
1152.595, 93.31620
1153.077, 93.45257
1153.559, 93.50825
1154.042, 93.49284
1154.524, 93.43407
1155.006, 93.28981
1155.488, 92.71007
1155.970, 91.98953
1156.452, 91.90215
1156.934, 93.40954
1157.416, 94.20950
1157.898, 93.74747
1158.381, 93.04198
1158.863, 92.91098
1159.345, 93.16909
1159.827, 93.05557
1160.309, 92.64587
1160.791, 92.24715
1161.273, 91.85190
1161.755, 91.69119
1162.238, 91.88097
1162.720, 92.24276
1163.202, 92.68550
1163.684, 93.15797
1164.166, 93.28250
1164.648, 93.07800
1165.130, 92.87671
1165.612, 93.02589
1166.094, 93.02715
1166.577, 92.50684
1167.059, 91.82694
1167.541, 91.56657
1168.023, 91.69688
1168.505, 91.86253
1168.987, 92.02741
1169.469, 92.28066
1169.951, 92.94189
1170.433, 93.45512
1170.916, 93.27634
1171.398, 92.75041
1171.880, 92.87048
1172.362, 93.62180
1172.844, 93.69067
1173.326, 92.73294
1173.808, 91.83852
1174.290, 92.14875
1174.773, 92.69272
1175.255, 92.63259
1175.737, 92.09451
1176.219, 91.85161
1176.701, 91.91920
1177.183, 91.88630
1177.665, 91.57504
1178.147, 91.36988
1178.630, 91.65450
1179.112, 92.21302
1179.594, 93.04247
1180.076, 94.12286
1180.558, 94.19054
1181.040, 93.12067
1181.522, 92.26382
1182.004, 92.17044
1182.486, 92.42544
1182.969, 92.85828
1183.451, 93.22612
1183.933, 93.13924
1184.415, 92.43515
1184.897, 92.15996
1185.379, 92.34840
1185.861, 92.75664
1186.343, 93.48509
1186.825, 94.06127
1187.308, 93.65066
1187.790, 92.80764
1188.272, 92.44387
1188.754, 92.93383
1189.236, 93.09619
1189.718, 92.86081
1190.200, 92.65734
1190.682, 92.80356
1191.165, 93.10606
1191.647, 93.48217
1192.129, 93.78832
1192.611, 93.68516
1193.093, 92.61787
1193.575, 92.38142
1194.057, 93.19814
1194.539, 94.03725
1195.021, 93.98497
1195.504, 93.55004
1195.986, 93.39805
1196.468, 93.45017
1196.950, 93.43489
1197.432, 93.15994
1197.914, 93.16999
1198.396, 93.56528
1198.878, 93.99990
1199.360, 94.18565
1199.843, 94.17849
1200.325, 93.93940
1200.807, 93.55952
1201.289, 93.42070
1201.771, 93.85697
1202.253, 93.88291
1202.735, 93.28765
1203.217, 92.60008
1203.700, 92.28245
1204.182, 92.31997
1204.664, 92.96508
1205.146, 94.05602
1205.628, 94.44682
1206.110, 93.36286
1206.592, 93.04932
1207.074, 94.07814
1207.557, 95.32495
1208.039, 95.34408
1208.521, 94.69932
1209.003, 94.05911
1209.485, 93.50954
1209.967, 93.36110
1210.449, 93.84373
1210.931, 94.21111
1211.413, 94.31385
1211.896, 94.23875
1212.378, 93.94369
1212.860, 93.63552
1213.342, 93.71397
1213.824, 94.22164
1214.306, 94.42012
1214.788, 94.09856
1215.270, 93.89312
1215.752, 94.03531
1216.235, 94.20469
1216.717, 93.76453
1217.199, 93.14212
1217.681, 93.05386
1218.163, 93.65031
1218.645, 93.84521
1219.127, 93.35801
1219.609, 93.11350
1220.092, 93.46189
1220.574, 94.05626
1221.056, 94.50212
1221.538, 94.79869
1222.020, 94.95763
1222.502, 94.97820
1222.984, 94.70098
1223.466, 93.95542
1223.948, 93.52701
1224.431, 93.86238
1224.913, 94.32152
1225.395, 93.69196
1225.877, 92.72704
1226.359, 92.56904
1226.841, 93.66503
1227.323, 94.16187
1227.805, 93.89870
1228.287, 93.64815
1228.770, 93.76344
1229.252, 93.99274
1229.734, 93.94299
1230.216, 93.81319
1230.698, 93.89672
1231.180, 94.29571
1231.662, 94.63584
1232.144, 94.95319
1232.627, 95.00594
1233.109, 94.58587
1233.591, 94.01611
1234.073, 93.49578
1234.555, 93.15747
1235.037, 93.25822
1235.519, 93.92174
1236.001, 94.32048
1236.484, 94.43901
1236.966, 94.40205
1237.448, 94.14548
1237.930, 93.95405
1238.412, 94.20924
1238.894, 94.65787
1239.376, 95.00114
1239.858, 95.27149
1240.340, 94.96599
1240.823, 94.04784
1241.305, 93.45715
1241.787, 93.92802
1242.269, 94.59570
1242.751, 94.73213
1243.233, 94.62852
1243.715, 94.65981
1244.197, 94.85715
1244.679, 94.94051
1245.162, 94.91341
1245.644, 94.90380
1246.126, 95.01629
1246.608, 95.12572
1247.090, 95.12960
1247.572, 95.10218
1248.054, 95.16743
1248.536, 95.01229
1249.019, 95.18169
1249.501, 94.72726
1249.983, 94.34877
1250.465, 94.20776
1250.947, 94.25475
1251.429, 94.70169
1251.911, 95.13661
1252.393, 95.11613
1252.875, 94.67270
1253.358, 94.45470
1253.840, 94.44087
1254.322, 94.49062
1254.804, 94.44190
1255.286, 94.56923
1255.768, 95.32222
1256.250, 95.91515
1256.732, 95.39021
1257.214, 94.05186
1257.697, 93.90525
1258.179, 94.73208
1258.661, 95.48547
1259.143, 95.77090
1259.625, 95.81055
1260.107, 95.59900
1260.589, 95.27911
1261.071, 94.84103
1261.554, 94.41723
1262.036, 94.53262
1262.518, 95.04813
1263.000, 95.48605
1263.482, 95.78880
1263.964, 95.73329
1264.446, 95.09744
1264.928, 94.59455
1265.411, 95.08168
1265.893, 95.97322
1266.375, 96.05434
1266.857, 95.59412
1267.339, 95.34860
1267.821, 95.67286
1268.303, 95.96974
1268.785, 96.26635
1269.267, 96.39431
1269.750, 96.14133
1270.232, 95.70480
1270.714, 95.17241
1271.196, 94.68493
1271.678, 94.61219
1272.160, 95.13156
1272.642, 95.51830
1273.124, 95.74541
1273.606, 95.90111
1274.089, 96.02701
1274.571, 96.12765
1275.053, 96.25155
1275.535, 96.32789
1276.017, 96.23425
1276.499, 95.94313
1276.981, 95.60694
1277.463, 95.23372
1277.946, 95.08135
1278.428, 95.52501
1278.910, 96.01819
1279.392, 96.41309
1279.874, 96.52775
1280.356, 95.95122
1280.838, 94.72637
1281.320, 94.56340
1281.802, 95.37510
1282.285, 96.17480
1282.767, 96.59589
1283.249, 96.67946
1283.731, 96.18507
1284.213, 95.63923
1284.695, 95.52931
1285.177, 95.76501
1285.659, 95.97753
1286.141, 96.14787
1286.624, 96.21461
1287.106, 95.94958
1287.588, 95.90256
1288.070, 96.21821
1288.552, 96.58456
1289.034, 96.83565
1289.516, 96.90719
1289.998, 96.40141
1290.481, 95.61599
1290.963, 95.31892
1291.445, 96.26540
1291.927, 96.74102
1292.409, 96.66019
1292.891, 96.42101
1293.373, 96.17200
1293.855, 96.03910
1294.338, 96.26774
1294.820, 96.70457
1295.302, 97.08459
1295.784, 97.46852
1296.266, 97.44173
1296.748, 96.98406
1297.230, 96.46912
1297.712, 95.90913
1298.194, 95.63087
1298.677, 96.28976
1299.159, 97.11449
1299.641, 97.02324
1300.123, 97.39465
1300.605, 97.73007
1301.087, 97.16737
1301.569, 97.86691
1302.051, 97.19305
1302.533, 96.38251
1303.016, 95.81392
##END=



