##NAMES=Liroconite
##RRUFFID=R050535
##IDEAL CHEMISTRY=Cu^2+^_2_AlAs^5+^O_4_(OH)_4_&#183;4H_2_O
##LOCALITY=Wheal Gorland, St. Day, Cornwall, England
##OWNER=RRUFF
##SOURCE=University of Arizona Mineral Museum
##DESCRIPTION=Blue tabular crystals
##STATUS=The identification of this mineral has been confirmed by X-ray diffraction.
##URL=rruff.info/R050535
91.40820, 6.758029
91.89032, 6.810740
92.37244, 6.751883
92.85455, 6.608350
93.33667, 6.540589
93.81879, 6.792869
94.30090, 7.231563
94.78302, 7.436738
95.26514, 7.232004
95.74725, 6.810219
96.22937, 6.595262
96.71149, 6.599997
97.19360, 6.686775
97.67572, 6.739181
98.15784, 6.756920
98.63995, 6.776129
99.12207, 6.798390
99.60419, 6.827081
100.0863, 6.906806
100.5684, 7.058725
101.0505, 7.219713
101.5327, 7.326043
102.0148, 7.389191
102.4969, 7.351197
102.9790, 7.137439
103.4611, 6.678497
103.9432, 6.444809
104.4253, 6.495180
104.9075, 6.741178
105.3896, 7.008427
105.8717, 7.296337
106.3538, 7.610293
106.8359, 7.974017
107.3180, 8.517890
107.8002, 8.873799
108.2823, 8.903151
108.7644, 8.718159
109.2465, 8.733993
109.7286, 9.104604
110.2107, 9.566257
110.6929, 10.01219
111.1750, 10.25538
111.6571, 10.68264
112.1392, 11.37666
112.6213, 12.31145
113.1034, 13.29696
113.5856, 14.34708
114.0677, 15.42848
114.5498, 16.50811
115.0319, 17.26666
115.5140, 18.32738
115.9961, 19.93102
116.4783, 22.07648
116.9604, 24.38431
117.4425, 26.76955
117.9246, 29.25717
118.4067, 31.85207
118.8888, 34.59297
119.3710, 37.44002
119.8531, 40.44563
120.3352, 43.62664
120.8173, 46.69893
121.2994, 49.39307
121.7815, 51.83630
122.2637, 54.26025
122.7458, 56.88189
123.2279, 59.46024
123.7100, 61.74778
124.1921, 63.70433
124.6742, 65.42900
125.1564, 66.75031
125.6385, 67.84363
126.1206, 69.27123
126.6027, 71.24673
127.0848, 73.78390
127.5669, 76.95801
128.0491, 80.87927
128.5312, 85.23573
129.0133, 89.59286
129.4954, 93.94001
129.9775, 98.54259
130.4596, 103.6986
130.9418, 109.2624
131.4239, 114.8424
131.9060, 120.3104
132.3881, 125.8240
132.8702, 131.7702
133.3523, 138.2132
133.8345, 144.6003
134.3166, 150.4690
134.7987, 155.8679
135.2808, 161.0610
135.7629, 166.4531
136.2450, 171.7590
136.7272, 175.3418
137.2093, 177.0304
137.6914, 177.6095
138.1735, 177.7776
138.6556, 177.5096
139.1377, 176.9333
139.6199, 175.9784
140.1020, 174.6557
140.5841, 173.5350
141.0662, 172.7003
141.5483, 171.9722
142.0304, 170.9872
142.5126, 169.3205
142.9947, 168.3167
143.4768, 167.9735
143.9589, 168.0734
144.4410, 168.3567
144.9231, 168.8042
145.4053, 169.4375
145.8874, 170.2761
146.3695, 171.0830
146.8516, 172.4090
147.3337, 174.5010
147.8158, 177.9025
148.2980, 180.7375
148.7801, 182.6296
149.2622, 184.0505
149.7443, 185.8890
150.2264, 188.0672
150.7085, 190.7514
151.1907, 194.0219
151.6728, 198.6250
152.1549, 202.6582
152.6370, 205.7387
153.1191, 208.2309
153.6012, 210.9502
154.0834, 213.8794
154.5655, 217.0822
155.0476, 220.6753
155.5297, 225.3862
156.0118, 229.4118
156.4939, 232.0418
156.9761, 233.7106
157.4582, 235.7732
157.9403, 238.8797
158.4224, 242.2377
158.9045, 245.3914
159.3866, 247.8236
159.8688, 250.4909
160.3509, 253.8178
160.8330, 257.6551
161.3151, 261.3022
161.7972, 264.0285
162.2793, 266.7220
162.7615, 270.0612
163.2436, 274.5327
163.7257, 279.3954
164.2078, 284.2857
164.6899, 289.2609
165.1720, 294.7484
165.6541, 300.9915
166.1363, 307.8238
166.6184, 315.0810
167.1005, 322.4708
167.5826, 330.4350
168.0647, 339.3201
168.5468, 349.1052
169.0290, 359.5815
169.5111, 370.6342
169.9932, 382.2902
170.4753, 394.6404
170.9574, 408.1162
171.4395, 421.8853
171.9217, 435.4105
172.4038, 448.6916
172.8859, 461.8449
173.3680, 475.3443
173.8501, 488.7069
174.3322, 501.3365
174.8144, 513.6058
175.2965, 524.8129
175.7786, 533.9332
176.2607, 541.0717
176.7428, 546.1822
177.2249, 548.9450
177.7071, 549.6063
178.1892, 548.8383
178.6713, 545.8491
179.1534, 541.9081
179.6355, 538.8929
180.1176, 536.7943
180.5998, 535.8082
181.0819, 536.2130
181.5640, 537.8987
182.0461, 540.5189
182.5282, 543.7639
183.0103, 547.8068
183.4925, 553.0534
183.9746, 559.5028
184.4567, 567.0925
184.9388, 576.0537
185.4209, 586.3049
185.9030, 596.8033
186.3852, 607.4021
186.8673, 617.9168
187.3494, 628.0323
187.8315, 637.6738
188.3136, 647.0218
188.7957, 657.1334
189.2779, 667.7951
189.7600, 677.1871
190.2421, 683.9541
190.7242, 688.4219
191.2063, 692.6967
191.6884, 697.0270
192.1706, 700.6954
192.6527, 702.7708
193.1348, 703.2272
193.6169, 702.3094
194.0990, 699.7153
194.5811, 695.5497
195.0633, 691.5199
195.5454, 687.9043
196.0275, 684.0294
196.5096, 678.7552
196.9917, 672.0020
197.4738, 664.5782
197.9560, 656.7578
198.4381, 648.5831
198.9202, 640.3714
199.4023, 632.2318
199.8844, 624.0115
200.3665, 615.7205
200.8487, 607.4472
201.3308, 598.4296
201.8129, 588.1074
202.2950, 576.3920
202.7771, 564.6077
203.2592, 552.6425
203.7414, 540.6342
204.2235, 528.7043
204.7056, 516.9406
205.1877, 505.3134
205.6698, 493.6341
206.1519, 481.7220
206.6341, 470.8083
207.1162, 460.9950
207.5983, 452.2528
208.0804, 444.6624
208.5625, 438.3812
209.0446, 432.9731
209.5268, 428.3425
210.0089, 424.5958
210.4910, 421.0961
210.9731, 417.7208
211.4552, 414.6519
211.9373, 412.4117
212.4195, 411.1638
212.9016, 410.3498
213.3837, 409.7923
213.8658, 409.6030
214.3479, 409.3136
214.8300, 409.0709
215.3121, 408.6352
215.7943, 407.3292
216.2764, 404.8575
216.7585, 402.1471
217.2406, 399.6606
217.7227, 397.6926
218.2048, 395.0279
218.6870, 391.4645
219.1691, 387.2949
219.6512, 383.1436
220.1333, 379.1324
220.6154, 374.8761
221.0975, 370.0797
221.5797, 364.6054
222.0618, 359.1150
222.5439, 353.4743
223.0260, 347.9030
223.5081, 342.7827
223.9902, 338.3876
224.4724, 334.0397
224.9545, 329.5077
225.4366, 324.4981
225.9187, 319.9926
226.4008, 316.0695
226.8829, 312.5807
227.3651, 309.1960
227.8472, 305.8824
228.3293, 302.6568
228.8114, 299.4443
229.2935, 296.0433
229.7757, 293.3281
230.2578, 291.6275
230.7399, 290.4712
231.2220, 288.8584
231.7041, 286.3751
232.1862, 284.1013
232.6684, 282.3879
233.1505, 281.2438
233.6326, 280.6393
234.1147, 280.6882
234.5968, 281.2116
235.0789, 281.9799
235.5611, 283.4430
236.0432, 284.4118
236.5253, 284.3063
237.0074, 282.6060
237.4895, 281.7933
237.9716, 282.2961
238.4538, 283.4276
238.9359, 284.0848
239.4180, 284.0845
239.9001, 283.9174
240.3822, 283.6849
240.8643, 283.3412
241.3465, 283.1802
241.8286, 283.3568
242.3107, 283.6060
242.7928, 283.5793
243.2749, 283.3455
243.7570, 282.7042
244.2392, 281.4962
244.7213, 279.5853
245.2034, 277.9006
245.6855, 276.4673
246.1676, 275.2266
246.6497, 274.1577
247.1319, 273.5055
247.6140, 272.5873
248.0961, 271.2160
248.5782, 269.3520
249.0603, 267.3457
249.5424, 265.0578
250.0246, 262.7487
250.5067, 260.7215
250.9888, 259.2430
251.4709, 257.5116
251.9530, 255.2614
252.4351, 252.4334
252.9173, 249.8810
253.3994, 247.6588
253.8815, 245.5872
254.3636, 243.4823
254.8457, 241.3166
255.3278, 239.2188
255.8100, 237.2779
256.2921, 235.4725
256.7742, 233.3760
257.2563, 230.8914
257.7384, 228.2507
258.2205, 225.7017
258.7026, 223.3155
259.1848, 220.7896
259.6669, 218.0311
260.1490, 215.0690
260.6311, 212.4108
261.1132, 210.3141
261.5953, 208.1181
262.0775, 205.2675
262.5596, 201.3876
263.0417, 197.9046
263.5238, 195.0518
264.0059, 192.7164
264.4880, 190.2145
264.9702, 187.5018
265.4523, 184.7321
265.9344, 181.9692
266.4165, 179.1210
266.8986, 176.5347
267.3807, 174.2618
267.8629, 172.2398
268.3450, 170.2406
268.8271, 168.2214
269.3092, 166.2815
269.7913, 164.4598
270.2734, 162.8058
270.7556, 161.0436
271.2377, 158.9912
271.7198, 156.9490
272.2019, 155.7156
272.6840, 155.5270
273.1661, 155.3467
273.6483, 154.6431
274.1304, 153.3464
274.6125, 152.1096
275.0946, 150.9200
275.5767, 149.8267
276.0588, 148.8577
276.5410, 147.9656
277.0231, 147.4363
277.5052, 147.5642
277.9873, 148.3623
278.4694, 148.7376
278.9515, 148.5918
279.4337, 148.2205
279.9158, 147.9795
280.3979, 147.8611
280.8800, 147.9402
281.3621, 148.2709
281.8442, 148.8374
282.3264, 149.5024
282.8085, 150.2844
283.2906, 151.1108
283.7727, 151.8605
284.2548, 152.5335
284.7369, 153.3542
285.2191, 154.4757
285.7012, 155.7843
286.1833, 156.7843
286.6654, 157.4281
287.1475, 158.0896
287.6296, 159.0063
288.1118, 160.1962
288.5939, 161.8911
289.0760, 164.3433
289.5581, 167.1802
290.0402, 169.4450
290.5223, 171.1262
291.0045, 172.8150
291.4866, 175.0932
291.9687, 177.8285
292.4508, 180.3692
292.9329, 182.5536
293.4150, 184.5790
293.8972, 186.8485
294.3793, 189.3543
294.8614, 192.0034
295.3435, 194.7430
295.8256, 197.5649
296.3077, 200.3945
296.7899, 203.1630
297.2720, 206.0474
297.7541, 209.4289
298.2362, 213.1596
298.7183, 216.6471
299.2004, 219.4866
299.6826, 221.8583
300.1647, 224.1614
300.6468, 226.4184
301.1289, 228.5304
301.6110, 230.6121
302.0931, 232.4972
302.5753, 233.8119
303.0574, 234.1668
303.5395, 233.9302
304.0216, 233.6075
304.5037, 233.2141
304.9858, 232.4702
305.4680, 231.1243
305.9501, 229.2741
306.4322, 227.0851
306.9143, 224.2380
307.3964, 221.3490
307.8785, 218.9729
308.3607, 217.0868
308.8428, 215.3470
309.3249, 213.6146
309.8070, 211.8709
310.2891, 210.0915
310.7712, 208.1750
311.2534, 206.3074
311.7355, 204.4342
312.2176, 202.6441
312.6997, 201.3417
313.1818, 200.9912
313.6639, 201.0842
314.1461, 201.2212
314.6282, 201.2956
315.1103, 201.4601
315.5924, 201.7803
316.0745, 202.2434
316.5566, 202.8306
317.0388, 203.3740
317.5209, 204.1555
318.0030, 205.4172
318.4851, 207.3071
318.9672, 209.1840
319.4493, 210.6034
319.9315, 211.9363
320.4136, 213.6973
320.8957, 216.4465
321.3778, 219.2564
321.8599, 221.8512
322.3420, 224.2089
322.8242, 226.3916
323.3063, 228.4300
323.7884, 230.2900
324.2705, 231.9418
324.7526, 233.7496
325.2347, 234.9683
325.7169, 235.2620
326.1990, 234.7005
326.6811, 234.0480
327.1632, 233.9125
327.6453, 233.3228
328.1274, 231.7375
328.6096, 228.3022
329.0917, 224.8981
329.5738, 221.4849
330.0559, 218.1496
330.5380, 215.1437
331.0201, 212.9387
331.5023, 210.5488
331.9844, 207.4573
332.4665, 203.0781
332.9486, 199.5199
333.4307, 197.1049
333.9128, 195.3601
334.3950, 193.5350
334.8771, 191.4977
335.3592, 189.5896
335.8413, 187.8768
336.3234, 186.3228
336.8055, 185.2724
337.2877, 184.8904
337.7698, 184.7961
338.2519, 184.5235
338.7340, 183.9563
339.2161, 183.6883
339.6982, 183.9273
340.1803, 184.5842
340.6624, 185.0605
341.1446, 185.2964
341.6267, 185.5706
342.1088, 186.0347
342.5909, 186.6772
343.0730, 187.7659
343.5551, 189.4321
344.0373, 191.4391
344.5194, 193.2407
345.0015, 194.8489
345.4836, 196.3105
345.9657, 197.5048
346.4478, 198.5260
346.9300, 199.9246
347.4121, 201.7931
347.8942, 203.8671
348.3763, 205.8559
348.8584, 207.7683
349.3405, 209.6964
349.8227, 211.7785
350.3048, 213.8899
350.7869, 215.6825
351.2690, 217.1431
351.7511, 218.6496
352.2332, 220.6830
352.7154, 223.0032
353.1975, 225.0900
353.6796, 226.7390
354.1617, 228.1233
354.6438, 229.4467
355.1259, 230.6832
355.6081, 231.7013
356.0902, 232.4092
356.5723, 232.8565
357.0544, 233.1001
357.5365, 233.1338
358.0186, 232.9854
358.5008, 232.5457
358.9829, 231.9329
359.4650, 231.4040
359.9471, 231.4659
360.4292, 231.3685
360.9113, 230.5306
361.3935, 228.8127
361.8756, 227.0623
362.3577, 225.7635
362.8398, 224.5759
363.3219, 223.1123
363.8040, 221.0085
364.2862, 218.8726
364.7683, 216.9549
365.2504, 215.2352
365.7325, 213.3731
366.2146, 210.8795
366.6967, 208.4791
367.1789, 206.6218
367.6610, 205.9966
368.1431, 205.1526
368.6252, 203.9006
369.1073, 202.3356
369.5894, 200.7900
370.0716, 199.2066
370.5537, 197.6860
371.0358, 196.2157
371.5179, 194.6974
372.0000, 193.5313
372.4821, 192.8365
372.9643, 192.4189
373.4464, 192.0316
373.9285, 191.6676
374.4106, 191.3589
374.8927, 191.1689
375.3748, 191.0813
375.8570, 190.6647
376.3391, 189.7429
376.8212, 188.8475
377.3033, 188.4128
377.7854, 188.4769
378.2675, 188.7880
378.7497, 189.4319
379.2318, 190.1944
379.7139, 190.4480
380.1960, 190.1437
380.6781, 189.9024
381.1602, 190.1270
381.6424, 190.7531
382.1245, 191.3930
382.6066, 192.0548
383.0887, 192.6537
383.5708, 193.0338
384.0529, 193.2402
384.5351, 193.5036
385.0172, 193.9213
385.4993, 194.4469
385.9814, 195.1347
386.4635, 195.9613
386.9456, 196.5627
387.4278, 196.3579
387.9099, 195.7850
388.3920, 195.5587
388.8741, 195.9382
389.3562, 196.5791
389.8383, 197.2801
390.3205, 198.0178
390.8026, 198.7094
391.2847, 199.3169
391.7668, 199.8553
392.2489, 200.3065
392.7310, 200.6357
393.2132, 201.0450
393.6953, 201.6660
394.1774, 202.4062
394.6595, 203.1607
395.1416, 203.7703
395.6237, 204.5056
396.1059, 205.5267
396.5880, 206.8164
397.0701, 208.0589
397.5522, 208.9647
398.0343, 209.9450
398.5164, 211.2494
398.9986, 213.6144
399.4807, 215.3717
399.9628, 216.1060
400.4449, 216.2326
400.9270, 216.7187
401.4091, 217.8448
401.8913, 218.9644
402.3734, 219.9129
402.8555, 220.7123
403.3376, 221.1977
403.8197, 221.2760
404.3018, 221.1465
404.7840, 220.9918
405.2661, 220.7789
405.7482, 220.6738
406.2303, 220.8192
406.7124, 221.0693
407.1945, 220.8167
407.6767, 220.0332
408.1588, 218.8724
408.6409, 217.3394
409.1230, 215.4597
409.6051, 213.5079
410.0872, 211.4405
410.5694, 209.4499
411.0515, 207.9837
411.5336, 206.9465
412.0157, 205.7741
412.4978, 204.0601
412.9799, 202.0906
413.4621, 200.4357
413.9442, 199.0791
414.4263, 197.8453
414.9084, 196.4460
415.3905, 195.0966
415.8727, 194.1584
416.3548, 193.8983
416.8369, 193.7868
417.3190, 193.3523
417.8011, 192.7077
418.2832, 192.1433
418.7654, 191.9963
419.2475, 191.8483
419.7296, 191.2943
420.2117, 190.1747
420.6938, 189.3677
421.1759, 189.5325
421.6581, 190.0579
422.1402, 190.2993
422.6223, 189.9637
423.1044, 189.4725
423.5865, 189.0646
424.0686, 188.6704
424.5508, 187.7192
425.0329, 185.4925
425.5150, 183.2426
425.9971, 181.5796
426.4792, 181.0327
426.9613, 179.9709
427.4435, 178.1337
427.9256, 175.9356
428.4077, 174.0599
428.8898, 172.6605
429.3719, 171.1969
429.8540, 169.5345
430.3362, 167.6836
430.8183, 165.5729
431.3004, 163.0827
431.7825, 160.7104
432.2646, 158.8721
432.7467, 157.5732
433.2289, 156.5884
433.7110, 156.0599
434.1931, 155.5627
434.6752, 153.9507
435.1573, 151.3701
435.6394, 149.4323
436.1216, 149.7726
436.6037, 151.2094
437.0858, 151.0169
437.5679, 149.1220
438.0500, 146.6326
438.5321, 144.0825
439.0142, 141.6806
439.4963, 139.7991
439.9785, 138.6877
440.4606, 137.9348
440.9427, 137.3535
441.4248, 136.8916
441.9069, 136.3998
442.3890, 135.7830
442.8712, 135.1319
443.3533, 134.5115
443.8354, 133.9421
444.3175, 133.3399
444.7996, 132.5845
445.2817, 131.8268
445.7639, 131.2178
446.2460, 130.7333
446.7281, 130.4507
447.2102, 130.5104
447.6923, 130.8463
448.1744, 130.9905
448.6566, 130.7011
449.1387, 130.4701
449.6208, 130.5512
450.1029, 131.1227
450.5850, 131.4685
451.0671, 131.5583
451.5493, 131.4498
452.0314, 131.1332
452.5135, 130.4997
452.9956, 130.1763
453.4777, 130.4741
453.9598, 131.1886
454.4420, 131.3282
454.9241, 130.8263
455.4062, 130.3564
455.8883, 130.4881
456.3704, 131.0982
456.8525, 131.6424
457.3347, 132.0526
457.8168, 132.3930
458.2989, 132.6958
458.7810, 132.9823
459.2631, 133.3041
459.7452, 133.6535
460.2274, 134.0750
460.7095, 134.6174
461.1916, 135.2814
461.6737, 136.0199
462.1558, 136.8879
462.6379, 137.7813
463.1201, 138.5796
463.6022, 139.1800
464.0843, 139.8923
464.5664, 140.8990
465.0485, 142.0857
465.5306, 143.2708
466.0128, 144.5003
466.4949, 145.6326
466.9770, 146.5194
467.4591, 147.1453
467.9412, 148.0383
468.4233, 149.4233
468.9055, 150.9009
469.3876, 152.2329
469.8697, 153.2115
470.3518, 154.5275
470.8339, 156.3773
471.3160, 158.4582
471.7982, 160.1933
472.2803, 161.5017
472.7624, 162.7924
473.2445, 164.1391
473.7266, 165.5683
474.2087, 167.2352
474.6909, 169.1447
475.1730, 171.1780
475.6551, 173.2170
476.1372, 175.2732
476.6193, 177.4348
477.1014, 179.7254
477.5836, 182.0118
478.0657, 184.0485
478.5478, 185.9343
479.0299, 187.9128
479.5120, 190.2769
479.9941, 192.6976
480.4763, 194.8002
480.9584, 196.6195
481.4405, 198.4424
481.9226, 200.4106
482.4047, 202.4594
482.8868, 204.5543
483.3690, 206.7025
483.8511, 208.8217
484.3332, 210.6090
484.8153, 212.4010
485.2974, 214.7860
485.7795, 219.4456
486.2617, 222.9560
486.7438, 224.1577
487.2259, 223.1025
487.7080, 222.7473
488.1901, 223.4180
488.6722, 224.3614
489.1544, 225.1775
489.6365, 225.8713
490.1186, 226.3743
490.6007, 226.6344
491.0828, 226.7775
491.5649, 227.0285
492.0471, 227.3931
492.5292, 227.6804
493.0113, 227.8645
493.4934, 227.9030
493.9755, 227.6448
494.4576, 227.0973
494.9398, 226.4182
495.4219, 225.5985
495.9040, 224.7525
496.3861, 224.1582
496.8682, 223.8749
497.3503, 223.6289
497.8325, 223.2737
498.3146, 222.7882
498.7967, 222.1318
499.2788, 221.0285
499.7609, 220.0060
500.2430, 219.4270
500.7252, 219.1929
501.2073, 218.8363
501.6894, 218.0334
502.1715, 217.2395
502.6536, 216.6684
503.1357, 216.4042
503.6179, 216.1951
504.1000, 215.9735
504.5821, 215.8407
505.0642, 215.9184
505.5463, 216.3303
506.0284, 216.6530
506.5106, 216.7332
506.9927, 216.7071
507.4748, 217.0886
507.9569, 217.9596
508.4390, 218.8248
508.9211, 219.3133
509.4033, 219.5108
509.8854, 220.2480
510.3675, 221.5808
510.8496, 222.9726
511.3317, 223.8110
511.8138, 224.2894
512.2960, 224.9184
512.7781, 225.8627
513.2602, 226.9210
513.7423, 227.9785
514.2244, 228.9941
514.7065, 229.8663
515.1887, 230.3398
515.6708, 230.8214
516.1529, 231.6146
516.6350, 232.7230
517.1171, 233.8110
517.5992, 235.0636
518.0814, 236.0456
518.5635, 236.4236
519.0456, 235.5269
519.5277, 235.0786
520.0098, 235.6017
520.4919, 236.4293
520.9741, 236.5522
521.4562, 235.6626
521.9383, 234.6725
522.4204, 233.7438
522.9025, 232.8741
523.3846, 232.1408
523.8668, 231.6417
524.3489, 230.8722
524.8310, 229.3243
525.3131, 227.1069
525.7952, 225.3414
526.2773, 224.1438
526.7595, 222.9358
527.2416, 221.0409
527.7237, 218.6353
528.2058, 216.1128
528.6879, 213.5662
529.1700, 211.0391
529.6522, 208.5926
530.1343, 206.2245
530.6164, 203.8459
531.0985, 201.3886
531.5806, 198.9554
532.0627, 196.6179
532.5449, 194.3895
533.0270, 192.2702
533.5091, 190.4403
533.9912, 188.6217
534.4733, 186.6431
534.9554, 184.3125
535.4376, 182.0078
535.9197, 179.6380
536.4018, 177.3475
536.8839, 175.5034
537.3660, 174.2607
537.8481, 172.9917
538.3303, 171.4663
538.8124, 169.7695
539.2945, 168.3684
539.7766, 167.2940
540.2587, 166.2526
540.7408, 165.1178
541.2230, 163.8563
541.7051, 162.3199
542.1872, 160.4693
542.6693, 158.6012
543.1514, 156.9319
543.6335, 155.4596
544.1157, 154.1399
544.5978, 153.0192
545.0799, 151.9686
545.5620, 151.0228
546.0441, 150.0938
546.5262, 148.9634
547.0084, 147.1369
547.4905, 145.4706
547.9726, 144.4300
548.4547, 144.1072
548.9368, 143.5042
549.4189, 142.3829
549.9011, 141.0744
550.3832, 139.7408
550.8653, 138.3100
551.3474, 137.0015
551.8295, 135.7955
552.3116, 134.7526
552.7938, 134.0472
553.2759, 133.7243
553.7580, 133.2926
554.2401, 132.5916
554.7222, 131.7259
555.2043, 130.9606
555.6865, 130.2920
556.1686, 129.5992
556.6507, 128.7159
557.1328, 127.8042
557.6149, 127.1159
558.0970, 126.6672
558.5792, 126.2839
559.0613, 125.9309
559.5434, 125.5463
560.0255, 125.0499
560.5076, 124.3198
560.9897, 123.6774
561.4719, 123.3257
561.9540, 123.1072
562.4361, 122.7652
562.9182, 122.0706
563.4003, 121.4670
563.8824, 121.0475
564.3646, 120.7913
564.8467, 120.5291
565.3288, 120.2398
565.8109, 119.9825
566.2930, 119.8075
566.7751, 119.7198
567.2573, 119.5681
567.7394, 119.3597
568.2215, 119.0426
568.7036, 118.4424
569.1857, 117.6655
569.6678, 117.0880
570.1500, 116.8034
570.6321, 116.7206
571.1142, 116.8695
571.5963, 117.1446
572.0784, 117.3071
572.5605, 117.0877
573.0427, 116.8695
573.5248, 116.9834
574.0069, 117.3593
574.4890, 117.5195
574.9711, 117.0529
575.4532, 116.5481
575.9354, 116.3354
576.4175, 116.5689
576.8996, 116.5986
577.3817, 116.2972
577.8638, 115.9168
578.3459, 115.6566
578.8281, 115.5106
579.3102, 115.5523
579.7923, 115.8565
580.2744, 116.2494
580.7565, 116.3275
581.2386, 116.1140
581.7208, 116.0358
582.2029, 116.2977
582.6850, 116.7659
583.1671, 117.2379
583.6492, 117.7123
584.1313, 118.1781
584.6135, 118.7008
585.0956, 119.1750
585.5776, 119.4414
586.0598, 119.4570
586.5419, 119.5985
587.0240, 120.2189
587.5061, 120.9253
587.9882, 121.3861
588.4703, 121.1598
588.9525, 121.2369
589.4346, 121.8186
589.9167, 122.6494
590.3988, 123.3270
590.8809, 123.8085
591.3630, 124.2283
591.8452, 124.6281
592.3273, 124.9814
592.8094, 125.1879
593.2915, 125.2441
593.7736, 125.1914
594.2557, 124.8765
594.7379, 124.4897
595.2200, 124.6476
595.7021, 125.3591
596.1842, 126.0516
596.6663, 126.1691
597.1484, 126.0480
597.6306, 126.1275
598.1127, 126.5859
598.5948, 126.9753
599.0769, 126.9376
599.5590, 126.7644
600.0411, 126.8228
600.5233, 127.5347
601.0054, 128.0770
601.4875, 128.2996
601.9696, 128.2630
602.4517, 128.1077
602.9338, 127.6881
603.4160, 127.4745
603.8981, 127.7392
604.3802, 128.4055
604.8623, 128.6058
605.3444, 128.2886
605.8265, 127.9292
606.3087, 127.8830
606.7908, 128.0759
607.2729, 128.3896
607.7550, 128.8484
608.2371, 129.1025
608.7192, 128.6755
609.2014, 127.9045
609.6835, 127.2335
610.1656, 126.7570
610.6477, 126.4786
611.1298, 126.5961
611.6119, 126.8795
612.0941, 126.9189
612.5762, 126.7303
613.0583, 126.1643
613.5404, 124.9910
614.0225, 123.3799
614.5046, 122.1412
614.9868, 121.3706
615.4689, 120.7846
615.9510, 120.3665
616.4331, 120.0905
616.9152, 119.3081
617.3973, 117.9750
617.8795, 116.5559
618.3616, 115.4717
618.8437, 114.6379
619.3258, 113.8977
619.8079, 113.2425
620.2900, 112.5679
620.7722, 111.8633
621.2543, 111.0542
621.7364, 110.0343
622.2185, 108.3297
622.7006, 106.9490
623.1827, 106.4516
623.6649, 106.5048
624.1470, 106.3018
624.6291, 105.3981
625.1112, 104.6828
625.5933, 104.4909
626.0754, 104.7014
626.5576, 104.3654
627.0397, 103.3219
627.5218, 102.2545
628.0039, 101.5128
628.4860, 101.0755
628.9681, 100.8347
629.4503, 100.8075
629.9324, 100.7230
630.4145, 100.2409
630.8966, 99.56227
631.3787, 99.02326
631.8608, 98.68872
632.3430, 98.49902
632.8251, 98.57236
633.3072, 98.71274
633.7893, 98.67970
634.2714, 98.25982
634.7535, 97.83375
635.2357, 97.47716
635.7178, 97.16375
636.1999, 96.82909
636.6820, 96.44302
637.1641, 96.09142
637.6462, 95.78942
638.1284, 95.53850
638.6105, 95.36989
639.0926, 95.28437
639.5747, 95.25146
640.0568, 95.33665
640.5389, 95.45488
641.0211, 95.28793
641.5032, 94.84005
641.9853, 94.43554
642.4674, 94.32182
642.9495, 94.39476
643.4316, 94.58526
643.9138, 94.93138
644.3959, 95.17912
644.8780, 95.17589
645.3601, 95.04053
645.8422, 94.88969
646.3243, 94.60828
646.8065, 94.50426
647.2886, 94.76657
647.7707, 95.11250
648.2528, 94.97273
648.7349, 94.19759
649.2170, 93.56353
649.6992, 93.26503
650.1813, 93.21964
650.6634, 93.25449
651.1455, 93.36099
651.6276, 93.45528
652.1097, 93.44649
652.5919, 93.42400
653.0740, 93.58618
653.5561, 93.89346
654.0382, 94.02796
654.5203, 93.54305
655.0024, 93.02248
655.4846, 92.90063
655.9667, 93.33263
656.4488, 93.63898
656.9309, 93.64709
657.4130, 93.55655
657.8951, 93.48305
658.3773, 93.40739
658.8594, 93.42873
659.3415, 93.60601
659.8236, 93.77885
660.3057, 93.63805
660.7878, 93.22935
661.2700, 93.08492
661.7521, 93.42510
662.2342, 93.86121
662.7163, 93.82629
663.1984, 93.47508
663.6805, 93.19582
664.1627, 93.22259
664.6448, 93.32364
665.1269, 93.40987
665.6090, 93.46890
666.0911, 93.45692
666.5732, 93.29533
667.0554, 93.13123
667.5375, 93.00878
668.0196, 92.92745
668.5017, 92.86872
668.9838, 92.83894
669.4659, 92.81343
669.9481, 92.78835
670.4302, 92.76039
670.9123, 92.69437
671.3944, 92.59246
671.8765, 92.41451
672.3586, 91.99096
672.8408, 91.50322
673.3229, 91.30505
673.8050, 91.50813
674.2871, 91.74122
674.7692, 91.73342
675.2513, 91.63357
675.7335, 91.60721
676.2156, 91.89161
676.6977, 92.00048
677.1798, 91.73928
677.6619, 91.32439
678.1440, 91.06582
678.6262, 90.97841
679.1083, 91.01676
679.5904, 91.19469
680.0725, 91.47202
680.5546, 91.84558
681.0367, 92.29979
681.5189, 92.51256
682.0010, 92.15934
682.4831, 91.59285
682.9652, 91.31648
683.4473, 91.30330
683.9294, 91.40372
684.4116, 91.78902
684.8937, 92.05598
685.3758, 91.80261
685.8579, 90.98032
686.3400, 90.51944
686.8221, 90.90789
687.3043, 91.41732
687.7864, 91.73274
688.2685, 91.83433
688.7506, 91.86192
689.2327, 91.83234
689.7148, 91.68558
690.1970, 91.18948
690.6791, 90.45382
691.1612, 90.29549
691.6433, 90.88357
692.1254, 91.61166
692.6075, 91.95322
693.0897, 92.00571
693.5718, 91.91076
694.0539, 91.63227
694.5360, 91.35690
695.0181, 91.12861
695.5002, 90.96597
695.9824, 90.89184
696.4645, 90.90475
696.9466, 91.02587
697.4287, 91.34063
697.9108, 91.73125
698.3929, 91.86171
698.8751, 91.67715
699.3572, 91.57298
699.8393, 91.73158
700.3214, 92.01258
700.8035, 92.00792
701.2856, 91.77800
701.7678, 91.67562
702.2499, 92.12861
702.7320, 92.64150
703.2141, 92.67358
703.6962, 92.28426
704.1783, 92.01136
704.6605, 92.14179
705.1426, 92.35988
705.6247, 92.52700
706.1068, 92.63762
706.5889, 92.69546
707.0710, 92.67797
707.5532, 92.64408
708.0353, 92.63641
708.5174, 92.65524
708.9995, 92.63047
709.4816, 92.55279
709.9637, 92.49674
710.4459, 92.59401
710.9280, 92.75114
711.4101, 92.75707
711.8922, 92.53788
712.3743, 92.38265
712.8564, 92.51338
713.3386, 92.78973
713.8207, 93.07151
714.3028, 93.45992
714.7849, 93.64275
715.2670, 93.38980
715.7491, 93.06133
716.2313, 93.18427
716.7134, 93.91996
717.1955, 94.39481
717.6776, 94.39696
718.1597, 94.18139
718.6418, 94.19209
719.1240, 94.40151
719.6061, 94.70257
720.0882, 95.15524
720.5703, 95.55061
721.0524, 95.63623
721.5345, 95.49416
722.0167, 95.32191
722.4988, 95.23778
722.9809, 95.09461
723.4630, 94.74587
723.9451, 94.26973
724.4272, 94.04541
724.9094, 94.16051
725.3915, 94.38052
725.8736, 94.70763
726.3557, 95.07504
726.8378, 94.99593
727.3199, 94.46163
727.8021, 94.09143
728.2842, 94.50111
728.7663, 95.22783
729.2484, 95.43897
729.7305, 95.16147
730.2126, 94.96177
730.6948, 95.09621
731.1769, 95.46378
731.6590, 96.15008
732.1411, 97.29002
732.6232, 97.81899
733.1053, 97.28022
733.5875, 96.58206
734.0696, 96.26985
734.5517, 96.39951
735.0338, 96.44736
735.5159, 96.38286
735.9980, 96.38026
736.4802, 96.69612
736.9623, 97.20567
737.4444, 97.58872
737.9265, 97.81693
738.4086, 97.84644
738.8907, 97.41600
739.3729, 96.87995
739.8550, 96.63529
740.3371, 96.89526
740.8192, 97.17759
741.3013, 97.40921
741.7834, 97.61638
742.2656, 97.82503
742.7477, 98.04469
743.2298, 98.23019
743.7119, 98.37875
744.1940, 98.48083
744.6761, 98.49673
745.1583, 98.44465
745.6404, 98.41354
746.1225, 98.42591
746.6046, 98.47009
747.0867, 98.56165
747.5688, 98.67336
748.0510, 98.75696
748.5331, 98.73951
749.0152, 98.76077
749.4973, 98.94547
749.9794, 99.17672
750.4615, 99.18888
750.9437, 98.82336
751.4258, 98.64390
751.9079, 98.81033
752.3900, 99.20057
752.8721, 99.60662
753.3542, 99.99980
753.8364, 100.1611
754.3185, 99.82272
754.8006, 99.37668
755.2827, 99.30686
755.7648, 99.51542
756.2469, 99.72465
756.7291, 99.80367
757.2112, 99.87222
757.6933, 99.98943
758.1754, 100.1415
758.6575, 100.2415
759.1396, 100.2309
759.6218, 100.2871
760.1039, 100.5048
760.5860, 100.8317
761.0681, 101.0295
761.5502, 101.1015
762.0323, 101.1811
762.5145, 101.3435
762.9966, 101.5629
763.4787, 101.8312
763.9608, 102.1366
764.4429, 102.4090
764.9250, 102.5823
765.4072, 102.7442
765.8893, 102.9759
766.3714, 103.2860
766.8535, 103.4227
767.3356, 103.3039
767.8177, 103.1532
768.2999, 103.0617
768.7820, 103.0282
769.2641, 103.0531
769.7462, 103.1348
770.2283, 103.2972
770.7104, 103.5488
771.1926, 103.8949
771.6747, 104.4644
772.1568, 105.2389
772.6389, 105.7309
773.1210, 105.4307
773.6031, 104.9919
774.0853, 104.8184
774.5674, 104.9806
775.0495, 105.1437
775.5316, 105.3092
776.0137, 105.4784
776.4958, 105.6385
776.9780, 105.7941
777.4601, 106.0620
777.9422, 106.4545
778.4243, 106.8086
778.9064, 107.0300
779.3885, 107.1129
779.8707, 106.9641
780.3528, 106.5436
780.8349, 106.3185
781.3170, 106.6756
781.7991, 107.1794
782.2813, 107.5112
782.7633, 107.5917
783.2454, 107.7496
783.7275, 107.9998
784.2097, 108.2906
784.6918, 108.5863
785.1739, 108.8842
785.6560, 109.1798
786.1381, 109.4736
786.6202, 109.7724
787.1024, 110.0736
787.5845, 110.3900
788.0666, 110.7549
788.5487, 111.2027
789.0308, 111.5620
789.5129, 111.6495
789.9951, 111.7131
790.4772, 111.9637
790.9593, 112.5277
791.4414, 112.9000
791.9235, 113.0268
792.4056, 113.0945
792.8878, 113.2648
793.3699, 113.5321
793.8520, 113.8807
794.3341, 114.3166
794.8162, 114.7936
795.2983, 115.3241
795.7805, 115.8571
796.2626, 116.3338
796.7447, 116.7120
797.2268, 117.1258
797.7089, 117.7043
798.1910, 118.2691
798.6732, 118.6716
799.1553, 118.8702
799.6374, 119.0683
800.1195, 119.2421
800.6016, 119.5083
801.0837, 120.0414
801.5659, 120.7714
802.0480, 121.5459
802.5301, 122.3658
803.0122, 122.9891
803.4943, 122.9587
803.9764, 122.7987
804.4586, 123.0431
804.9407, 123.9363
805.4228, 124.8702
805.9049, 125.8486
806.3870, 126.7788
806.8691, 127.5345
807.3513, 128.0541
807.8334, 129.0187
808.3155, 130.5560
808.7976, 132.0530
809.2797, 132.7093
809.7618, 132.8988
810.2440, 133.3291
810.7261, 134.1249
811.2082, 135.0816
811.6903, 136.1585
812.1724, 137.3046
812.6545, 138.4902
813.1367, 139.8435
813.6188, 140.8869
814.1009, 141.4435
814.5830, 141.9608
815.0651, 142.8963
815.5472, 144.2125
816.0294, 145.2615
816.5115, 145.9563
816.9936, 146.7987
817.4757, 148.4904
817.9578, 150.4753
818.4399, 151.9899
818.9221, 152.7878
819.4042, 153.7919
819.8863, 155.4765
820.3684, 157.3571
820.8505, 159.0872
821.3326, 160.5829
821.8148, 162.3596
822.2969, 164.5081
822.7790, 166.6174
823.2611, 168.0885
823.7432, 169.2075
824.2253, 171.0141
824.7075, 173.5886
825.1896, 176.0871
825.6717, 177.5743
826.1538, 178.9308
826.6359, 181.0105
827.1180, 184.1004
827.6002, 186.7270
828.0823, 188.3651
828.5644, 189.9791
829.0465, 192.1637
829.5286, 194.9126
830.0107, 197.4247
830.4929, 199.6657
830.9750, 201.8998
831.4571, 204.2371
831.9392, 206.7268
832.4213, 209.4807
832.9034, 212.4605
833.3856, 215.4143
833.8677, 217.7896
834.3498, 220.4228
834.8319, 224.0023
835.3140, 228.5564
835.7961, 232.8458
836.2783, 236.9975
836.7604, 240.5281
837.2425, 242.8587
837.7246, 244.3476
838.2067, 246.3986
838.6888, 249.0073
839.1710, 251.9766
839.6531, 255.1705
840.1352, 258.6937
840.6173, 262.6751
841.0994, 267.0919
841.5815, 271.5494
842.0637, 276.1398
842.5458, 280.6227
843.0279, 284.9013
843.5100, 289.0083
843.9921, 293.0039
844.4742, 296.8274
844.9564, 301.2567
845.4385, 307.0159
845.9206, 313.3761
846.4027, 319.2654
846.8848, 324.8124
847.3669, 330.4430
847.8491, 335.8824
848.3312, 341.9474
848.8133, 349.0219
849.2954, 357.0810
849.7775, 365.9129
850.2596, 375.7545
850.7418, 385.7001
851.2239, 395.2543
851.7060, 405.0890
852.1881, 416.5238
852.6702, 429.4859
853.1523, 443.2481
853.6345, 457.5532
854.1166, 472.6547
854.5987, 489.1103
855.0808, 506.3459
855.5629, 523.6376
856.0450, 540.0173
856.5272, 557.4431
857.0093, 575.8937
857.4914, 595.4555
857.9735, 616.4380
858.4556, 638.6349
858.9377, 661.3562
859.4199, 683.9124
859.9020, 707.2137
860.3841, 732.7617
860.8662, 759.3053
861.3483, 785.4266
861.8304, 809.7984
862.3126, 835.0546
862.7947, 862.4889
863.2768, 890.4468
863.7589, 917.2481
864.2410, 942.8248
864.7231, 968.9738
865.2053, 996.3341
865.6874, 1022.856
866.1695, 1047.004
866.6516, 1068.854
867.1337, 1088.539
867.6158, 1105.923
868.0980, 1122.302
868.5801, 1138.719
869.0622, 1154.343
869.5443, 1168.744
870.0264, 1182.519
870.5085, 1193.038
870.9907, 1199.483
871.4728, 1204.629
871.9549, 1210.332
872.4370, 1216.350
872.9191, 1221.827
873.4012, 1226.766
873.8834, 1230.664
874.3655, 1232.037
874.8476, 1233.158
875.3297, 1235.995
875.8118, 1240.582
876.2939, 1244.347
876.7761, 1245.955
877.2582, 1248.515
877.7403, 1253.687
878.2224, 1260.678
878.7045, 1265.253
879.1866, 1267.584
879.6688, 1269.702
880.1509, 1272.867
880.6330, 1276.187
881.1151, 1279.179
881.5972, 1281.629
882.0793, 1282.884
882.5615, 1283.230
883.0436, 1281.722
883.5257, 1278.306
884.0078, 1272.989
884.4899, 1265.917
884.9720, 1257.140
885.4542, 1245.858
885.9363, 1231.787
886.4184, 1215.186
886.9005, 1196.344
887.3826, 1175.212
887.8647, 1151.776
888.3469, 1125.726
888.8290, 1097.771
889.3111, 1068.017
889.7932, 1036.743
890.2753, 1003.797
890.7574, 968.6253
891.2396, 933.7592
891.7217, 899.2292
892.2038, 864.6868
892.6859, 829.1155
893.1680, 793.3853
893.6501, 759.1042
894.1323, 726.2408
894.6144, 694.3899
895.0965, 662.3942
895.5786, 631.7615
896.0607, 603.4424
896.5428, 577.4990
897.0250, 551.8943
897.5071, 526.3345
897.9892, 502.2100
898.4713, 480.3544
898.9534, 460.5251
899.4355, 441.5760
899.9177, 423.5953
900.3998, 406.0174
900.8819, 388.1080
901.3640, 371.3608
901.8461, 357.1858
902.3282, 345.3877
902.8104, 333.7178
903.2925, 322.2552
903.7746, 310.8372
904.2567, 299.2481
904.7388, 288.0030
905.2209, 278.5795
905.7031, 270.6369
906.1852, 262.8074
906.6673, 254.2645
907.1494, 246.0019
907.6315, 238.6535
908.1136, 232.0092
908.5958, 225.7606
909.0779, 219.8275
909.5600, 214.3638
910.0421, 209.5013
910.5242, 204.9244
911.0063, 200.0356
911.4885, 195.0023
911.9706, 190.6454
912.4527, 187.1658
912.9348, 183.9141
913.4169, 180.3952
913.8990, 176.8676
914.3812, 173.5524
914.8633, 170.4924
915.3454, 167.6332
915.8275, 165.0542
916.3096, 162.5102
916.7917, 159.7660
917.2739, 156.8883
917.7560, 154.3784
918.2381, 152.2120
918.7202, 150.1051
919.2023, 147.7772
919.6844, 145.5180
920.1666, 143.5876
920.6487, 141.9296
921.1308, 140.2056
921.6129, 138.1585
922.0950, 136.4000
922.5771, 135.1958
923.0593, 134.2842
923.5414, 132.9726
924.0235, 131.3382
924.5056, 129.8342
924.9877, 128.7035
925.4698, 127.5954
925.9520, 126.1096
926.4341, 124.4918
926.9162, 123.0978
927.3983, 122.0239
927.8804, 121.2000
928.3625, 120.7822
928.8447, 120.3933
929.3268, 119.5473
929.8089, 118.3323
930.2910, 117.4471
930.7731, 116.9574
931.2552, 116.4716
931.7374, 115.6593
932.2195, 114.7047
932.7016, 113.7085
933.1837, 112.6796
933.6658, 111.7938
934.1479, 111.0325
934.6301, 110.4639
935.1122, 110.2216
935.5943, 110.1726
936.0764, 109.5980
936.5585, 108.5884
937.0406, 107.8572
937.5228, 108.2174
938.0049, 108.5883
938.4870, 107.9081
938.9691, 106.6419
939.4512, 105.9304
939.9333, 106.3666
940.4155, 106.5397
940.8976, 106.1889
941.3797, 105.6512
941.8618, 105.4681
942.3439, 105.5758
942.8260, 105.7148
943.3082, 105.8735
943.7903, 105.8503
944.2724, 105.2503
944.7545, 104.5481
945.2366, 104.1814
945.7188, 104.2956
946.2009, 104.4834
946.6830, 104.7562
947.1651, 105.0800
947.6472, 105.4255
948.1293, 105.8030
948.6115, 106.2914
949.0936, 106.8757
949.5757, 107.4450
950.0578, 107.8822
950.5399, 108.3269
951.0220, 108.8324
951.5042, 109.4166
951.9863, 110.1241
952.4684, 110.9909
952.9505, 111.8726
953.4326, 112.7110
953.9147, 113.5983
954.3969, 114.7314
954.8790, 116.0623
955.3611, 117.4830
955.8432, 119.0003
956.3253, 120.4618
956.8074, 121.7938
957.2896, 123.0166
957.7717, 124.1285
958.2538, 125.0017
958.7359, 126.2841
959.2180, 128.0466
959.7001, 129.8628
960.1823, 131.4978
960.6644, 132.9011
961.1465, 133.7486
961.6286, 134.1305
962.1107, 134.7560
962.5928, 136.3064
963.0750, 137.8179
963.5571, 139.0203
964.0392, 139.8673
964.5213, 140.0803
965.0034, 139.6160
965.4855, 138.9223
965.9677, 138.0486
966.4498, 137.1835
966.9319, 136.8495
967.4140, 136.6567
967.8961, 135.9005
968.3782, 134.0438
968.8604, 132.2296
969.3425, 130.7381
969.8246, 129.2960
970.3067, 127.6747
970.7888, 125.8847
971.2709, 123.8919
971.7531, 121.6906
972.2352, 119.5058
972.7173, 117.4861
973.1994, 115.5902
973.6815, 113.8263
974.1636, 112.1901
974.6458, 110.5775
975.1279, 108.9217
975.6100, 107.3706
976.0921, 105.9638
976.5742, 104.6898
977.0563, 103.5720
977.5385, 102.5737
978.0206, 101.5082
978.5027, 100.2205
978.9848, 99.03062
979.4669, 98.29049
979.9490, 97.74601
980.4311, 97.06828
980.9132, 96.13251
981.3953, 95.23833
981.8774, 94.34840
982.3596, 93.59942
982.8417, 93.13519
983.3238, 92.91532
983.8059, 92.91788
984.2880, 93.11172
984.7701, 93.17399
985.2523, 92.75094
985.7344, 92.30970
986.2165, 92.04439
986.6986, 91.96571
987.1807, 92.24244
987.6628, 92.99592
988.1450, 93.32310
988.6271, 92.81271
989.1092, 92.04543
989.5913, 91.81218
990.0734, 91.96591
990.5555, 92.26163
991.0377, 92.74918
991.5198, 93.11391
992.0019, 93.18246
992.4840, 93.19429
992.9661, 93.33324
993.4482, 93.60546
993.9304, 93.80913
994.4125, 93.94176
994.8946, 94.08525
995.3767, 94.28019
995.8588, 94.53223
996.3409, 94.95711
996.8231, 95.48383
997.3052, 95.69079
997.7873, 95.31229
998.2694, 94.98576
998.7515, 94.83818
999.2336, 94.82693
999.7158, 94.95354
1000.198, 95.15501
1000.680, 95.14846
1001.162, 94.75945
1001.644, 94.49566
1002.126, 94.85127
1002.608, 95.36745
1003.091, 94.16140
1003.573, 94.76411
1004.055, 95.04786
1004.537, 95.02981
1005.019, 93.80601
1005.501, 94.13918
1005.983, 93.84839
1006.465, 93.53200
1006.948, 94.08405
1007.430, 93.03562
1007.912, 93.57416
1008.394, 93.47921
1008.876, 93.67419
1009.358, 93.24134
1009.840, 93.00240
1010.322, 93.19272
1010.804, 92.89961
1011.287, 92.93912
1011.769, 93.04021
1012.251, 93.01949
1012.733, 92.88289
1013.215, 92.63801
1013.697, 92.28248
1014.179, 91.76588
1014.661, 90.94473
1015.143, 90.29337
1015.626, 90.12346
1016.108, 90.25908
1016.590, 90.14480
1017.072, 89.85757
1017.554, 89.67880
1018.036, 90.00353
1018.518, 90.15900
1019.000, 88.12926
1019.483, 88.57508
1019.965, 88.70250
1020.447, 88.52814
1020.929, 87.14804
1021.411, 87.32491
1021.893, 86.87783
1022.375, 86.40516
1022.857, 86.80119
1023.339, 85.59647
1023.822, 86.90112
1024.304, 86.75539
1024.786, 86.22874
1025.268, 85.68815
1025.750, 85.22329
1026.232, 84.83343
1026.714, 84.49693
1027.196, 84.23111
1027.679, 84.14188
1028.161, 84.33867
1028.643, 84.54507
1029.125, 84.59116
1029.607, 84.54566
1030.089, 84.47938
1030.571, 84.39699
1031.053, 84.30905
1031.536, 84.23264
1032.018, 84.05822
1032.500, 83.63687
1032.982, 83.10220
1033.464, 82.57662
1033.946, 82.11813
1034.428, 81.92518
1034.910, 82.32447
1035.392, 82.69052
1035.875, 82.92606
1036.357, 83.02200
1036.839, 82.89686
1037.321, 82.58224
1037.803, 82.36807
1038.285, 82.30470
1038.767, 82.31609
1039.249, 82.50920
1039.731, 82.62536
1040.214, 82.31703
1040.696, 81.52951
1041.178, 81.27908
1041.660, 81.68482
1042.142, 82.20113
1042.624, 82.65466
1043.106, 83.00542
1043.588, 83.19971
1044.071, 83.24684
1044.553, 83.16585
1045.035, 82.77388
1045.517, 82.54796
1045.999, 82.67964
1046.481, 82.89774
1046.963, 82.96909
1047.445, 82.89925
1047.927, 82.72543
1048.410, 82.45216
1048.892, 82.22482
1049.374, 82.21329
1049.856, 82.22344
1050.338, 82.10222
1050.820, 81.87585
1051.302, 81.70853
1051.784, 81.64021
1052.266, 81.50097
1052.749, 81.25899
1053.231, 80.92829
1053.713, 80.45574
1054.195, 79.93774
1054.677, 79.50633
1055.159, 79.18283
1055.641, 78.99116
1056.123, 79.10043
1056.606, 79.15424
1057.088, 78.99097
1057.570, 78.63557
1058.052, 78.20728
1058.534, 77.71538
1059.016, 77.20568
1059.498, 76.68065
1059.980, 76.17044
1060.463, 75.64072
1060.945, 75.16471
1061.427, 74.84595
1061.909, 74.72300
1062.391, 74.64502
1062.873, 74.62650
1063.355, 73.95749
1063.837, 74.50879
1064.319, 74.74119
1064.802, 74.67138
1065.284, 73.39617
1065.766, 73.67799
1066.248, 73.33579
1066.730, 72.96806
1067.212, 73.46898
1067.694, 72.36919
1068.176, 72.85633
1068.658, 72.71002
1069.141, 72.85325
1069.623, 72.36900
1070.105, 72.07873
1070.587, 72.41643
1071.069, 72.40643
1071.551, 71.84991
1072.033, 72.01198
1072.515, 70.89021
1072.998, 70.89463
1073.480, 71.38549
1073.962, 70.86055
1074.444, 71.03409
1074.926, 70.94158
1075.408, 69.64024
1075.890, 69.65524
1076.372, 69.71638
1076.854, 69.90582
1077.337, 70.27063
1077.819, 70.63590
1078.301, 70.90592
1078.783, 71.05172
1079.265, 70.91776
1079.747, 70.56163
1080.229, 70.28272
1080.711, 70.29812
1081.193, 70.29751
1081.676, 70.16473
1082.158, 69.99954
1082.640, 69.99975
1083.122, 70.14179
1083.604, 70.17258
1084.086, 70.04452
1084.568, 69.96194
1085.050, 70.11263
1085.532, 70.33949
1086.015, 70.57517
1086.497, 70.79829
1086.979, 70.81339
1087.461, 70.57047
1087.943, 70.47118
1088.425, 70.68526
1088.907, 71.02016
1089.389, 71.31329
1089.872, 71.52944
1090.354, 71.58883
1090.836, 71.35378
1091.318, 71.34014
1091.800, 71.69413
1092.282, 72.00093
1092.764, 71.84715
1093.246, 71.50439
1093.729, 71.99536
1094.211, 73.06918
1094.693, 73.77897
1095.175, 73.39928
1095.657, 73.01005
1096.139, 72.84321
1096.621, 72.85751
1097.103, 73.07738
1097.585, 73.49057
1098.068, 73.78381
1098.550, 73.93980
1099.032, 73.99380
1099.514, 73.90965
1099.996, 73.78996
1100.478, 73.70614
1100.960, 73.64484
1101.442, 73.53189
1101.924, 73.34028
1102.407, 73.24983
1102.889, 73.29381
1103.371, 73.44369
1103.853, 73.81850
1104.335, 74.19187
1104.817, 74.26015
1105.299, 73.94985
1105.781, 73.70793
1106.264, 73.58293
1106.746, 73.49311
1107.228, 73.41882
1107.710, 73.34395
1108.192, 73.22210
1108.674, 73.07467
1109.156, 72.95169
1109.638, 72.89442
1110.120, 72.80215
1110.603, 72.62959
1111.085, 72.44118
1111.567, 72.25309
1112.049, 72.07931
1112.531, 72.05195
1113.013, 72.14293
1113.495, 72.16950
1113.977, 72.03745
1114.459, 71.81672
1114.942, 71.33544
1115.424, 70.90450
1115.906, 71.04927
1116.388, 71.87606
1116.870, 71.99629
1117.352, 71.31306
1117.834, 70.60819
1118.316, 70.57320
1118.799, 70.71062
1119.281, 70.54169
1119.763, 70.17183
1120.245, 70.14121
1120.727, 70.60991
1121.209, 70.85034
1121.691, 70.70269
1122.173, 70.45159
1122.656, 70.43673
1123.138, 70.52373
1123.620, 70.52431
1124.102, 70.41294
1124.584, 70.34266
1125.066, 70.34236
1125.548, 70.35572
1126.030, 70.35448
1126.512, 70.37336
1126.995, 70.52154
1127.477, 70.73922
1127.959, 70.89454
1128.441, 70.97009
1128.923, 70.93157
1129.405, 70.60023
1129.887, 70.35529
1130.369, 70.45781
1130.851, 70.79353
1131.334, 70.67924
1131.816, 70.25900
1132.298, 70.24321
1132.780, 71.38754
1133.262, 72.27922
1133.744, 71.95943
1134.226, 71.30400
1134.708, 71.13657
1135.191, 71.49255
1135.673, 71.78254
1136.155, 72.00687
1136.637, 72.13741
1137.119, 71.99844
1137.601, 71.92168
1138.083, 72.23534
1138.565, 72.75572
1139.047, 73.07751
1139.530, 73.16980
1140.012, 73.20914
1140.494, 73.19204
1140.976, 73.26894
1141.458, 73.65881
1141.940, 74.14511
1142.422, 74.50388
1142.904, 74.74717
1143.386, 75.02396
1143.869, 75.38248
1144.351, 75.64153
1144.833, 75.73225
1145.315, 75.83346
1145.797, 76.19794
1146.279, 76.70312
1146.761, 77.21972
1147.243, 77.73296
1147.726, 78.05427
1148.208, 77.97295
1148.690, 78.10291
1149.172, 78.68710
1149.654, 79.49905
1150.136, 80.08437
1150.618, 80.56469
1151.100, 81.23856
1151.583, 82.25203
1152.065, 83.05642
1152.547, 83.33389
1153.029, 83.62856
1153.511, 84.18708
1153.993, 84.94180
1154.475, 85.75658
1154.957, 86.59328
1155.439, 87.30839
1155.922, 87.74332
1156.404, 88.27479
1156.886, 89.11669
1157.368, 90.04855
1157.850, 90.97070
1158.332, 91.87511
1158.814, 92.69308
1159.296, 93.41965
1159.778, 94.02006
1160.261, 94.29176
1160.743, 94.65170
1161.225, 95.35567
1161.707, 96.19904
1162.189, 97.01191
1162.671, 97.79724
1163.153, 98.30943
1163.635, 98.55074
1164.118, 98.78849
1164.600, 99.29408
1165.082, 99.75700
1165.564, 99.96985
1166.046, 100.0005
1166.528, 99.95901
1167.010, 99.82897
1167.492, 99.84116
1167.974, 100.0311
1168.457, 100.1282
1168.939, 99.74928
1169.421, 99.32848
1169.903, 99.31219
1170.385, 99.56709
1170.867, 99.45443
1171.349, 98.91171
1171.831, 98.37884
1172.313, 97.94868
1172.796, 97.47099
1173.278, 96.82890
1173.760, 96.04933
1174.242, 95.09717
1174.724, 93.99555
1175.206, 93.01834
1175.688, 92.19319
1176.170, 91.46474
1176.653, 90.84502
1177.135, 90.26305
1177.617, 89.71761
1178.099, 89.11718
1178.581, 88.33184
1179.063, 87.32069
1179.545, 86.32092
1180.027, 85.30997
1180.510, 84.42788
1180.992, 83.76596
1181.474, 83.19953
1181.956, 82.50567
1182.438, 81.78468
1182.920, 81.23246
1183.402, 80.97984
1183.884, 80.47815
1184.366, 79.62953
1184.849, 78.77568
1185.331, 78.07793
1185.813, 77.47048
1186.295, 76.84005
1186.777, 76.20981
1187.259, 75.62622
1187.741, 75.10477
1188.223, 74.63450
1188.705, 74.21843
1189.188, 73.84874
1189.670, 73.57453
1190.152, 73.30901
1190.634, 72.77513
1191.116, 72.10096
1191.598, 71.59560
1192.080, 71.46844
1192.562, 71.37313
1193.045, 71.35078
1193.527, 71.22105
1194.009, 70.73622
1194.491, 70.07634
1194.973, 69.67655
1195.455, 69.48141
1195.937, 69.28745
1196.419, 68.95492
1196.901, 68.74014
1197.384, 68.74528
1197.866, 68.72466
1198.348, 68.30556
1198.830, 67.71946
1199.312, 67.59904
1199.794, 67.87457
1200.276, 68.08665
1200.758, 68.15601
1201.240, 67.97060
1201.723, 67.43559
1202.205, 66.80025
1202.687, 66.29290
1203.169, 65.94429
1203.651, 65.94868
1204.133, 66.26018
1204.615, 66.39870
1205.097, 65.93501
1205.580, 65.63264
1206.062, 65.68428
1206.544, 65.86961
1207.026, 65.91988
1207.508, 65.84002
1207.990, 65.59026
1208.472, 65.17860
1208.954, 64.83855
1209.437, 64.63972
1209.919, 64.56252
1210.401, 64.65427
1210.883, 64.78450
1211.365, 64.67819
1211.847, 64.45146
1212.329, 64.41926
1212.811, 64.63185
1213.293, 64.73371
1213.776, 64.48927
1214.258, 64.28270
1214.740, 64.24776
1215.222, 64.25706
1215.704, 63.99874
1216.186, 63.60485
1216.668, 63.40425
1217.150, 63.47263
1217.632, 63.50051
1218.115, 63.34774
1218.597, 63.21696
1219.079, 63.15452
1219.561, 63.17760
1220.043, 63.47525
1220.525, 63.84960
1221.007, 63.79472
1221.489, 63.10842
1221.972, 62.61920
1222.454, 62.54874
1222.936, 62.62305
1223.418, 62.78748
1223.900, 62.97163
1224.382, 63.04173
1224.864, 63.01241
1225.346, 62.91401
1225.828, 62.75525
1226.311, 62.49580
1226.793, 62.01128
1227.275, 61.70051
1227.757, 61.81587
1228.239, 62.13200
1228.721, 62.21804
1229.203, 62.13663
1229.685, 61.98950
1230.167, 61.73501
1230.650, 61.66577
1231.132, 61.88059
1231.614, 62.07397
1232.096, 62.06723
1232.578, 61.96842
1233.060, 62.00773
1233.542, 62.10540
1234.024, 62.10905
1234.507, 61.95577
1234.989, 61.74528
1235.471, 61.43621
1235.953, 61.21990
1236.435, 61.24946
1236.917, 61.39106
1237.399, 61.40496
1237.881, 61.37029
1238.364, 61.44805
1238.846, 61.82915
1239.328, 61.89222
1239.810, 61.56643
1240.292, 61.20519
1240.774, 60.99219
1241.256, 60.90020
1241.738, 60.95733
1242.220, 61.08001
1242.703, 61.10634
1243.185, 60.94304
1243.667, 60.91906
1244.149, 61.06310
1244.631, 61.16756
1245.113, 61.00584
1245.595, 60.81969
1246.077, 61.00029
1246.559, 61.30128
1247.042, 61.24641
1247.524, 60.64861
1248.006, 60.32756
1248.488, 60.29271
1248.970, 60.41670
1249.452, 60.78156
1249.934, 61.10707
1250.416, 61.09156
1250.899, 60.89994
1251.381, 60.80945
1251.863, 60.86479
1252.345, 60.79206
1252.827, 60.59037
1253.309, 60.40386
1253.791, 60.29071
1254.273, 60.26652
1254.755, 60.41423
1255.238, 60.61745
1255.720, 60.72389
1256.202, 60.73295
1256.684, 60.60576
1257.166, 60.35406
1257.648, 60.18619
1258.130, 60.22628
1258.612, 60.38702
1259.094, 60.79664
1259.577, 61.17712
1260.059, 61.19958
1260.541, 60.89248
1261.023, 60.55518
1261.505, 60.22118
1261.987, 60.06843
1262.469, 60.36067
1262.951, 60.64035
1263.434, 60.77799
1263.916, 60.81792
1264.398, 60.74543
1264.880, 60.60847
1265.362, 60.66198
1265.844, 60.87446
1266.326, 61.04462
1266.808, 61.12237
1267.291, 61.06476
1267.773, 60.79081
1268.255, 60.53025
1268.737, 60.57565
1269.219, 60.78961
1269.701, 60.82046
1270.183, 60.69994
1270.665, 60.59586
1271.147, 60.60112
1271.630, 60.55197
1272.112, 60.40138
1272.594, 60.30061
1273.076, 60.48845
1273.558, 60.75625
1274.040, 60.78379
1274.522, 60.61015
1275.004, 60.36741
1275.486, 59.95313
1275.969, 59.85515
1276.451, 60.16563
1276.933, 60.44568
1277.415, 60.14025
1277.897, 59.76180
1278.379, 59.96959
1278.861, 60.51214
1279.343, 60.71839
1279.825, 60.46732
1280.308, 60.40567
1280.790, 60.57634
1281.272, 60.69352
1281.754, 60.43744
1282.236, 60.15957
1282.718, 60.06770
1283.200, 60.14756
1283.682, 60.38718
1284.165, 60.79736
1284.647, 61.11341
1285.129, 61.32304
1285.611, 61.39666
1286.093, 61.26917
1286.575, 61.05626
1287.057, 60.75774
1287.539, 60.44601
1288.021, 60.15253
1288.504, 59.90704
1288.986, 59.94081
1289.468, 60.20599
1289.950, 60.37799
1290.432, 60.15995
1290.914, 60.03669
1291.396, 60.10739
1291.878, 60.28081
1292.360, 60.53613
1292.843, 60.80461
1293.325, 60.92770
1293.807, 60.91023
1294.289, 60.78569
1294.771, 60.36565
1295.253, 60.18284
1295.735, 60.31144
1296.217, 60.49926
1296.700, 60.52589
1297.182, 60.48707
1297.664, 60.46717
1298.146, 60.49124
1298.628, 60.65832
1299.110, 61.09092
1299.592, 61.23838
1300.074, 61.06023
1300.557, 60.85030
1301.039, 60.83598
1301.521, 60.85436
1302.003, 60.74686
1302.485, 60.60316
1302.967, 60.56511
1303.449, 60.66774
##END=



