##NAMES=Lithiotantite
##RRUFFID=R100165
##IDEAL CHEMISTRY=LiTa^5+^_3_O_8_
##LOCALITY=Murundu mine, Jenipapo district, Itinga, Minas Gerais, Brazil
##OWNER=RRUFF
##SOURCE=Luiz Menezes
##DESCRIPTION=Brown bladed crystals associated with reddish brown prismatic tantalite, and black cassiterite. Used in the Menezes et al (2012) study.
##STATUS=The identification of this mineral has been confirmed by single-crystal X-ray diffraction.
##URL=rruff.info/R100165
91.03516, 107.8199
91.51727, 110.1584
91.99939, 108.1128
92.48151, 103.0777
92.96362, 99.00447
93.44574, 98.55702
93.92786, 100.4214
94.40997, 101.9362
94.89210, 102.9685
95.37421, 103.4952
95.85633, 103.2700
96.33845, 102.3252
96.82056, 101.3297
97.30268, 100.6152
97.78480, 100.1878
98.26691, 100.1866
98.74903, 100.8193
99.23115, 101.7427
99.71326, 101.7324
100.1954, 100.5016
100.6775, 99.43629
101.1596, 99.85851
101.6417, 102.1353
102.1239, 104.1118
102.6060, 105.4325
103.0881, 106.1238
103.5702, 106.4498
104.0523, 106.4098
104.5344, 106.0110
105.0166, 105.0999
105.4987, 102.9566
105.9808, 101.6163
106.4629, 101.7580
106.9450, 103.8256
107.4271, 105.3964
107.9093, 106.7397
108.3914, 107.5010
108.8735, 107.1266
109.3556, 103.4686
109.8377, 100.6799
110.3198, 100.0863
110.8020, 103.3430
111.2841, 105.6027
111.7662, 105.9378
112.2483, 105.1629
112.7304, 105.0870
113.2125, 107.0775
113.6947, 109.0105
114.1768, 109.8335
114.6589, 108.4387
115.1410, 107.2299
115.6231, 106.6864
116.1052, 106.7546
116.5874, 107.2287
117.0695, 109.0156
117.5516, 110.7008
118.0337, 111.1850
118.5158, 108.8326
118.9980, 106.4142
119.4801, 104.7742
119.9622, 103.9666
120.4443, 104.4352
120.9264, 108.0141
121.4085, 112.6116
121.8907, 115.6627
122.3728, 114.2039
122.8549, 111.9772
123.3370, 112.3335
123.8191, 115.4484
124.3012, 118.9040
124.7834, 120.1431
125.2655, 120.2448
125.7476, 121.5298
126.2297, 126.0393
126.7118, 132.0878
127.1939, 136.7515
127.6761, 139.4552
128.1582, 142.7590
128.6403, 149.9093
129.1224, 160.4151
129.6045, 171.9063
130.0867, 181.8818
130.5688, 191.7263
131.0509, 205.4691
131.5330, 223.8657
132.0151, 245.7755
132.4972, 268.3934
132.9794, 291.7130
133.4615, 319.6830
133.9436, 353.5250
134.4257, 393.7115
134.9078, 443.1763
135.3899, 505.1455
135.8721, 574.8251
136.3542, 637.8676
136.8363, 691.5624
137.3184, 750.9698
137.8005, 826.3558
138.2826, 918.7825
138.7648, 1024.870
139.2469, 1144.036
139.7290, 1277.042
140.2111, 1422.384
140.6932, 1584.424
141.1753, 1753.097
141.6575, 1919.580
142.1396, 2090.126
142.6217, 2245.927
143.1038, 2382.276
143.5859, 2499.967
144.0681, 2605.448
144.5502, 2700.811
145.0323, 2782.985
145.5144, 2848.917
145.9965, 2890.577
146.4786, 2927.433
146.9608, 2961.364
147.4429, 2990.411
147.9250, 3026.946
148.4071, 3069.154
148.8892, 3119.632
149.3713, 3181.199
149.8535, 3258.158
150.3356, 3342.840
150.8177, 3433.939
151.2998, 3533.325
151.7819, 3634.909
152.2640, 3739.943
152.7462, 3847.452
153.2283, 3953.621
153.7104, 4065.990
154.1925, 4170.811
154.6746, 4263.170
155.1567, 4342.355
155.6389, 4407.466
156.1210, 4457.003
156.6031, 4492.501
157.0852, 4518.502
157.5673, 4535.840
158.0495, 4543.920
158.5316, 4542.160
159.0137, 4526.498
159.4958, 4506.483
159.9779, 4480.989
160.4600, 4452.181
160.9422, 4427.140
161.4243, 4403.388
161.9064, 4386.983
162.3885, 4382.007
162.8706, 4390.432
163.3527, 4409.238
163.8349, 4437.540
164.3170, 4475.302
164.7991, 4522.349
165.2812, 4577.856
165.7633, 4642.934
166.2454, 4718.769
166.7276, 4812.172
167.2097, 4910.552
167.6918, 5008.252
168.1739, 5104.747
168.6560, 5203.008
169.1381, 5304.813
169.6203, 5407.214
170.1024, 5472.366
170.5845, 5522.853
171.0666, 5572.735
171.5487, 5615.689
172.0309, 5652.287
172.5130, 5691.350
172.9951, 5741.873
173.4772, 5798.357
173.9593, 5852.397
174.4414, 5897.294
174.9236, 5939.740
175.4057, 5987.303
175.8878, 6040.445
176.3699, 6092.058
176.8520, 6137.522
177.3341, 6177.528
177.8163, 6213.698
178.2984, 6244.432
178.7805, 6272.145
179.2626, 6302.148
179.7447, 6334.555
180.2268, 6362.740
180.7090, 6378.227
181.1911, 6383.422
181.6732, 6385.284
182.1553, 6388.930
182.6374, 6391.253
183.1195, 6384.989
183.6017, 6369.398
184.0838, 6348.474
184.5659, 6323.837
185.0480, 6296.571
185.5301, 6271.042
186.0123, 6249.107
186.4944, 6230.451
186.9765, 6216.069
187.4586, 6206.651
187.9407, 6198.085
188.4228, 6186.186
188.9050, 6170.838
189.3871, 6149.878
189.8692, 6125.155
190.3513, 6095.206
190.8334, 6050.188
191.3155, 5988.642
191.7977, 5915.595
192.2798, 5837.728
192.7619, 5755.125
193.2440, 5668.881
193.7261, 5574.898
194.2082, 5474.879
194.6904, 5383.422
195.1725, 5301.497
195.6546, 5227.737
196.1367, 5162.527
196.6188, 5105.475
197.1009, 5056.486
197.5831, 5016.707
198.0652, 4985.713
198.5473, 4958.122
199.0294, 4932.736
199.5115, 4911.622
199.9937, 4899.389
200.4758, 4896.505
200.9579, 4899.438
201.4400, 4907.148
201.9221, 4919.790
202.4042, 4933.904
202.8864, 4948.708
203.3685, 4965.335
203.8506, 4986.466
204.3327, 5011.900
204.8148, 5041.509
205.2969, 5075.694
205.7791, 5114.834
206.2612, 5154.941
206.7433, 5194.031
207.2254, 5235.208
207.7075, 5287.690
208.1896, 5354.436
208.6718, 5424.291
209.1539, 5491.731
209.6360, 5555.014
210.1181, 5621.151
210.6002, 5689.160
211.0823, 5761.030
211.5645, 5842.284
212.0466, 5933.794
212.5287, 6033.870
213.0108, 6141.719
213.4929, 6258.391
213.9750, 6380.830
214.4572, 6508.145
214.9393, 6641.170
215.4214, 6787.227
215.9035, 6949.773
216.3856, 7119.708
216.8678, 7289.289
217.3499, 7460.631
217.8320, 7631.701
218.3141, 7802.276
218.7962, 7971.158
219.2783, 8133.762
219.7605, 8289.898
220.2426, 8437.074
220.7247, 8573.931
221.2068, 8703.345
221.6889, 8813.284
222.1710, 8902.362
222.6532, 8971.577
223.1353, 9020.880
223.6174, 9049.874
224.0995, 9060.884
224.5816, 9054.821
225.0637, 9030.168
225.5459, 8991.915
226.0280, 8937.506
226.5101, 8870.214
226.9922, 8801.691
227.4743, 8732.123
227.9564, 8660.159
228.4386, 8583.318
228.9207, 8500.119
229.4028, 8418.592
229.8849, 8337.278
230.3670, 8257.779
230.8492, 8181.563
231.3313, 8106.465
231.8134, 8038.951
232.2955, 7981.826
232.7776, 7939.977
233.2597, 7899.642
233.7419, 7860.737
234.2240, 7823.345
234.7061, 7789.149
235.1882, 7761.375
235.6703, 7732.353
236.1524, 7698.915
236.6346, 7661.768
237.1167, 7618.820
237.5988, 7569.000
238.0809, 7513.804
238.5630, 7455.935
239.0451, 7397.446
239.5273, 7333.501
240.0094, 7260.329
240.4915, 7170.334
240.9736, 7089.525
241.4557, 7016.555
241.9378, 6952.537
242.4200, 6900.103
242.9021, 6859.172
243.3842, 6828.885
243.8663, 6808.890
244.3484, 6799.296
244.8306, 6799.400
245.3127, 6808.262
245.7948, 6827.221
246.2769, 6859.341
246.7590, 6906.491
247.2411, 6962.986
247.7233, 7027.460
248.2054, 7100.860
248.6875, 7178.868
249.1696, 7258.849
249.6517, 7344.458
250.1338, 7441.782
250.6160, 7554.832
251.0981, 7672.956
251.5802, 7791.472
252.0623, 7909.958
252.5444, 8034.760
253.0265, 8165.389
253.5087, 8301.973
253.9908, 8442.652
254.4729, 8590.549
254.9550, 8738.347
255.4371, 8885.972
255.9192, 9033.108
256.4014, 9172.488
256.8835, 9305.207
257.3656, 9429.087
257.8477, 9547.260
258.3298, 9666.736
258.8120, 9765.476
259.2941, 9840.053
259.7762, 9890.738
260.2583, 9913.437
260.7404, 9906.031
261.2225, 9873.269
261.7047, 9818.645
262.1868, 9739.082
262.6689, 9644.205
263.1510, 9532.983
263.6331, 9406.608
264.1152, 9273.149
264.5974, 9131.150
265.0795, 8985.503
265.5616, 8843.915
266.0437, 8703.374
266.5258, 8569.489
267.0079, 8441.451
267.4901, 8319.611
267.9722, 8217.222
268.4543, 8135.104
268.9364, 8069.049
269.4185, 8013.751
269.9006, 7966.609
270.3828, 7941.295
270.8649, 7938.280
271.3470, 7958.630
271.8291, 8008.804
272.3112, 8093.093
272.7933, 8197.288
273.2755, 8308.034
273.7576, 8422.379
274.2397, 8560.756
274.7218, 8723.229
275.2039, 8911.259
275.6860, 9129.661
276.1682, 9381.764
276.6503, 9659.375
277.1324, 9961.620
277.6145, 10286.63
278.0966, 10628.11
278.5787, 10989.58
279.0609, 11361.45
279.5430, 11738.86
280.0251, 12126.18
280.5072, 12482.85
280.9893, 12798.69
281.4715, 13071.35
281.9536, 13273.80
282.4357, 13410.11
282.9178, 13466.08
283.3999, 13407.19
283.8820, 13230.40
284.3642, 12989.24
284.8463, 12689.58
285.3284, 12334.79
285.8105, 11981.72
286.2926, 11625.74
286.7747, 11279.94
287.2569, 10961.90
287.7390, 10671.23
288.2211, 10399.96
288.7032, 10146.33
289.1853, 9910.063
289.6674, 9686.603
290.1496, 9475.378
290.6317, 9274.034
291.1138, 9084.862
291.5959, 8905.131
292.0780, 8722.559
292.5602, 8533.778
293.0423, 8337.849
293.5244, 8131.541
294.0065, 7915.757
294.4886, 7691.377
294.9707, 7451.791
295.4529, 7200.308
295.9350, 6953.735
296.4171, 6711.925
296.8992, 6477.849
297.3813, 6257.626
297.8634, 6052.302
298.3456, 5863.037
298.8277, 5695.921
299.3098, 5547.097
299.7919, 5409.423
300.2740, 5282.624
300.7561, 5166.195
301.2383, 5064.779
301.7204, 4976.079
302.2025, 4896.638
302.6846, 4823.675
303.1667, 4758.035
303.6488, 4699.834
304.1310, 4650.118
304.6131, 4606.453
305.0952, 4567.332
305.5773, 4532.917
306.0594, 4503.776
306.5415, 4480.821
307.0237, 4462.735
307.5058, 4448.243
307.9879, 4437.535
308.4700, 4428.919
308.9521, 4420.851
309.4343, 4413.958
309.9164, 4409.132
310.3985, 4405.850
310.8806, 4405.330
311.3627, 4407.667
311.8448, 4412.859
312.3270, 4423.518
312.8091, 4441.913
313.2912, 4466.428
313.7733, 4495.150
314.2554, 4525.631
314.7375, 4561.687
315.2197, 4605.003
315.7018, 4655.846
316.1839, 4713.144
316.6660, 4775.808
317.1481, 4845.411
317.6302, 4922.574
318.1124, 5010.877
318.5945, 5102.897
319.0766, 5196.535
319.5587, 5292.250
320.0408, 5392.919
320.5229, 5496.957
321.0051, 5607.912
321.4872, 5728.378
321.9693, 5858.796
322.4514, 5996.096
322.9335, 6138.946
323.4156, 6288.240
323.8978, 6445.706
324.3799, 6612.596
324.8620, 6786.874
325.3441, 6968.101
325.8262, 7153.501
326.3083, 7348.883
326.7905, 7560.979
327.2726, 7782.103
327.7547, 7999.870
328.2368, 8209.484
328.7189, 8422.213
329.2010, 8643.308
329.6832, 8872.259
330.1653, 9093.771
330.6474, 9304.150
331.1295, 9509.525
331.6116, 9716.916
332.0938, 9925.495
332.5759, 10138.11
333.0580, 10351.84
333.5401, 10569.24
334.0222, 10793.12
334.5043, 11020.92
334.9865, 11261.16
335.4686, 11520.58
335.9507, 11800.32
336.4328, 12098.34
336.9149, 12416.92
337.3970, 12757.26
337.8792, 13109.39
338.3613, 13477.87
338.8434, 13859.16
339.3255, 14261.62
339.8076, 14692.65
340.2898, 15104.42
340.7719, 15507.77
341.2540, 15880.13
341.7361, 16204.30
342.2182, 16477.45
342.7003, 16682.18
343.1825, 16822.36
343.6646, 16891.01
344.1467, 16831.20
344.6288, 16638.94
345.1109, 16336.04
345.5930, 15922.39
346.0752, 15407.22
346.5573, 14832.59
347.0394, 14188.88
347.5215, 13504.60
348.0036, 12810.29
348.4857, 12109.74
348.9679, 11439.61
349.4500, 10813.35
349.9321, 10231.88
350.4142, 9700.837
350.8963, 9219.433
351.3784, 8784.659
351.8606, 8403.189
352.3427, 8073.993
352.8248, 7785.443
353.3069, 7538.909
353.7890, 7330.459
354.2711, 7152.508
354.7533, 7005.672
355.2354, 6883.968
355.7175, 6788.702
356.1996, 6715.991
356.6817, 6659.059
357.1638, 6614.196
357.6460, 6584.717
358.1281, 6573.780
358.6102, 6580.939
359.0923, 6601.132
359.5744, 6635.065
360.0565, 6679.028
360.5387, 6729.677
361.0208, 6788.941
361.5029, 6851.404
361.9850, 6913.338
362.4671, 6976.092
362.9492, 7043.091
363.4314, 7122.063
363.9135, 7200.876
364.3956, 7273.274
364.8777, 7338.704
365.3598, 7397.637
365.8419, 7450.348
366.3241, 7496.716
366.8062, 7536.131
367.2883, 7567.566
367.7704, 7592.943
368.2526, 7611.578
368.7347, 7622.436
369.2168, 7632.729
369.6989, 7643.214
370.1810, 7652.838
370.6631, 7660.949
371.1453, 7668.670
371.6274, 7673.265
372.1095, 7675.093
372.5916, 7673.766
373.0737, 7667.434
373.5558, 7658.248
374.0380, 7640.789
374.5201, 7612.383
375.0022, 7574.085
375.4843, 7522.218
375.9664, 7455.673
376.4485, 7376.378
376.9307, 7285.269
377.4128, 7182.084
377.8949, 7071.252
378.3770, 6953.407
378.8591, 6829.450
379.3412, 6706.538
379.8234, 6585.741
380.3055, 6465.850
380.7876, 6345.309
381.2697, 6223.659
381.7518, 6110.979
382.2339, 6010.545
382.7161, 5920.518
383.1982, 5834.354
383.6803, 5752.908
384.1624, 5679.280
384.6445, 5618.944
385.1266, 5568.856
385.6088, 5520.655
386.0909, 5472.056
386.5730, 5428.732
387.0551, 5397.752
387.5372, 5378.073
388.0193, 5366.284
388.5015, 5361.588
388.9836, 5363.577
389.4657, 5372.468
389.9478, 5388.321
390.4299, 5408.646
390.9120, 5431.344
391.3942, 5457.674
391.8763, 5488.939
392.3584, 5530.156
392.8405, 5572.069
393.3226, 5610.068
393.8047, 5644.747
394.2869, 5678.810
394.7690, 5713.149
395.2511, 5747.336
395.7332, 5781.751
396.2154, 5819.203
396.6975, 5851.055
397.1796, 5873.586
397.6617, 5889.994
398.1438, 5905.646
398.6259, 5925.304
399.1081, 5940.504
399.5902, 5946.780
400.0723, 5942.126
400.5544, 5942.283
401.0365, 5947.974
401.5186, 5957.833
402.0008, 5970.967
402.4829, 5989.492
402.9650, 6006.623
403.4471, 6017.729
403.9292, 6026.936
404.4113, 6053.010
404.8935, 6102.389
405.3756, 6154.072
405.8577, 6195.849
406.3398, 6225.063
406.8219, 6261.273
407.3040, 6304.610
407.7862, 6355.457
408.2683, 6417.407
408.7504, 6490.854
409.2325, 6564.930
409.7146, 6636.496
410.1967, 6705.502
410.6789, 6776.721
411.1610, 6850.354
411.6431, 6923.641
412.1252, 6995.616
412.6073, 7065.085
413.0894, 7128.722
413.5716, 7185.852
414.0537, 7233.945
414.5358, 7269.858
415.0179, 7293.405
415.5000, 7305.298
415.9821, 7305.584
416.4643, 7294.152
416.9464, 7271.569
417.4285, 7237.980
417.9106, 7189.516
418.3927, 7117.063
418.8748, 7030.227
419.3570, 6941.808
419.8391, 6852.368
420.3212, 6764.873
420.8033, 6678.604
421.2854, 6594.468
421.7675, 6514.697
422.2497, 6440.299
422.7318, 6370.282
423.2139, 6303.913
423.6960, 6237.302
424.1781, 6183.184
424.6602, 6143.132
425.1424, 6116.805
425.6245, 6104.246
426.1066, 6107.994
426.5887, 6122.209
427.0709, 6147.059
427.5530, 6182.509
428.0351, 6222.503
428.5172, 6270.671
428.9993, 6318.904
429.4814, 6363.294
429.9636, 6406.255
430.4457, 6435.802
430.9278, 6450.647
431.4099, 6451.805
431.8920, 6440.667
432.3741, 6416.677
432.8563, 6383.688
433.3384, 6343.072
433.8205, 6294.624
434.3026, 6238.061
434.7847, 6172.834
435.2668, 6102.118
435.7490, 6026.041
436.2311, 5946.172
436.7132, 5870.583
437.1953, 5800.925
437.6774, 5736.908
438.1595, 5677.588
438.6417, 5622.764
439.1238, 5571.568
439.6059, 5523.787
440.0880, 5479.253
440.5701, 5437.823
441.0522, 5399.349
441.5344, 5363.974
442.0165, 5332.359
442.4986, 5303.646
442.9807, 5276.958
443.4628, 5251.147
443.9449, 5228.128
444.4271, 5208.334
444.9092, 5191.826
445.3913, 5178.851
445.8734, 5169.967
446.3555, 5164.500
446.8376, 5162.675
447.3198, 5167.567
447.8019, 5169.791
448.2840, 5163.834
448.7661, 5157.292
449.2482, 5161.096
449.7303, 5179.971
450.2125, 5201.061
450.6946, 5220.970
451.1767, 5240.314
451.6588, 5266.208
452.1409, 5299.281
452.6230, 5337.927
453.1052, 5380.932
453.5873, 5428.755
454.0694, 5479.844
454.5515, 5533.762
455.0337, 5591.273
455.5158, 5652.112
455.9979, 5716.822
456.4800, 5785.789
456.9621, 5862.519
457.4442, 5943.311
457.9264, 6021.485
458.4085, 6096.695
458.8906, 6167.753
459.3727, 6234.117
459.8548, 6295.026
460.3369, 6348.470
460.8191, 6395.933
461.3012, 6433.048
461.7833, 6456.162
462.2654, 6466.578
462.7475, 6466.953
463.2296, 6462.107
463.7118, 6444.542
464.1939, 6408.742
464.6760, 6353.969
465.1581, 6289.545
465.6402, 6215.713
466.1223, 6135.229
466.6045, 6050.889
467.0866, 5960.834
467.5687, 5869.820
468.0508, 5775.213
468.5329, 5679.514
469.0150, 5586.958
469.4972, 5499.219
469.9793, 5413.792
470.4614, 5330.404
470.9435, 5248.986
471.4256, 5171.567
471.9077, 5097.981
472.3899, 5028.907
472.8720, 4965.250
473.3541, 4906.341
473.8362, 4852.495
474.3183, 4803.804
474.8004, 4759.289
475.2826, 4716.940
475.7647, 4676.822
476.2468, 4640.062
476.7289, 4606.443
477.2110, 4576.568
477.6931, 4552.599
478.1753, 4534.384
478.6574, 4520.354
479.1395, 4511.953
479.6216, 4506.132
480.1037, 4498.056
480.5858, 4484.798
481.0680, 4472.177
481.5501, 4464.596
482.0322, 4460.585
482.5143, 4457.138
482.9964, 4453.269
483.4786, 4449.627
483.9607, 4446.202
484.4428, 4442.976
484.9249, 4441.349
485.4070, 4443.540
485.8892, 4446.278
486.3713, 4447.133
486.8534, 4442.358
487.3355, 4441.244
487.8176, 4445.530
488.2997, 4453.065
488.7819, 4459.335
489.2640, 4463.654
489.7461, 4468.180
490.2282, 4473.453
490.7103, 4479.481
491.1924, 4486.142
491.6746, 4493.404
492.1567, 4501.396
492.6388, 4510.187
493.1209, 4519.832
493.6030, 4529.713
494.0851, 4539.641
494.5673, 4550.368
495.0494, 4562.768
495.5315, 4576.833
496.0136, 4592.097
496.4957, 4609.471
496.9778, 4627.378
497.4600, 4644.809
497.9421, 4661.683
498.4242, 4677.867
498.9063, 4691.536
499.3884, 4705.627
499.8705, 4723.199
500.3527, 4745.834
500.8348, 4769.185
501.3169, 4792.459
501.7990, 4814.933
502.2811, 4835.751
502.7632, 4853.178
503.2454, 4870.383
503.7275, 4888.523
504.2096, 4907.394
504.6917, 4925.269
505.1738, 4941.030
505.6559, 4957.136
506.1381, 4974.964
506.6202, 4995.267
507.1023, 5014.268
507.5844, 5031.290
508.0665, 5048.306
508.5486, 5068.039
509.0308, 5090.639
509.5129, 5112.869
509.9950, 5134.012
510.4771, 5154.176
510.9592, 5173.500
511.4413, 5191.963
511.9235, 5210.896
512.4056, 5231.685
512.8877, 5253.093
513.3698, 5273.615
513.8519, 5293.055
514.3340, 5312.081
514.8162, 5331.671
515.2983, 5350.952
515.7804, 5368.853
516.2625, 5384.146
516.7446, 5399.369
517.2267, 5414.063
517.7089, 5429.433
518.1910, 5448.229
518.6731, 5475.493
519.1552, 5502.355
519.6373, 5524.083
520.1194, 5539.787
520.6016, 5561.159
521.0837, 5589.701
521.5658, 5621.836
522.0479, 5654.884
522.5300, 5687.708
523.0121, 5724.739
523.4943, 5767.650
523.9764, 5812.943
524.4585, 5853.297
524.9406, 5887.839
525.4227, 5926.150
525.9048, 5971.259
526.3870, 6022.504
526.8691, 6081.870
527.3513, 6149.077
527.8334, 6215.364
528.3155, 6270.919
528.7976, 6323.745
529.2797, 6385.849
529.7618, 6459.619
530.2440, 6539.161
530.7261, 6618.958
531.2082, 6702.061
531.6903, 6790.863
532.1724, 6892.026
532.6545, 6993.738
533.1367, 7091.776
533.6188, 7187.646
534.1009, 7290.491
534.5830, 7400.708
535.0651, 7518.338
535.5472, 7642.908
536.0294, 7776.377
536.5115, 7910.526
536.9936, 8043.052
537.4757, 8179.542
537.9578, 8323.963
538.4399, 8477.896
538.9221, 8637.445
539.4042, 8803.800
539.8863, 8976.104
540.3684, 9154.332
540.8505, 9338.385
541.3326, 9527.172
541.8148, 9719.999
542.2969, 9916.595
542.7790, 10119.86
543.2611, 10328.83
543.7432, 10542.30
544.2253, 10760.25
544.7075, 10981.87
545.1896, 11206.19
545.6717, 11432.96
546.1538, 11663.27
546.6359, 11899.50
547.1180, 12139.33
547.6002, 12377.23
548.0823, 12614.43
548.5644, 12847.16
549.0465, 13075.40
549.5286, 13299.91
550.0107, 13522.25
550.4929, 13742.57
550.9750, 13960.47
551.4571, 14177.35
551.9392, 14394.03
552.4213, 14597.80
552.9034, 14787.93
553.3856, 14970.88
553.8677, 15153.40
554.3498, 15334.63
554.8319, 15503.37
555.3140, 15657.26
555.7961, 15803.68
556.2783, 15950.86
556.7604, 16097.28
557.2425, 16236.86
557.7246, 16367.43
558.2067, 16490.89
558.6888, 16608.32
559.1710, 16719.62
559.6531, 16822.74
560.1352, 16912.27
560.6173, 16996.11
561.0994, 17081.29
561.5815, 17171.13
562.0637, 17242.03
562.5458, 17283.98
563.0279, 17308.27
563.5100, 17324.36
563.9921, 17336.09
564.4742, 17332.64
564.9564, 17314.02
565.4385, 17279.73
565.9206, 17226.91
566.4027, 17153.62
566.8848, 17073.18
567.3669, 16992.38
567.8491, 16905.84
568.3312, 16798.58
568.8133, 16671.38
569.2954, 16530.16
569.7775, 16379.68
570.2596, 16218.50
570.7418, 16047.00
571.2239, 15863.74
571.7060, 15671.84
572.1881, 15470.96
572.6702, 15264.40
573.1523, 15052.85
573.6345, 14837.25
574.1166, 14619.39
574.5987, 14399.58
575.0808, 14180.51
575.5629, 13962.45
576.0450, 13752.69
576.5272, 13541.15
577.0093, 13326.46
577.4914, 13110.34
577.9735, 12896.46
578.4556, 12685.96
578.9377, 12479.13
579.4199, 12272.61
579.9020, 12068.96
580.3841, 11871.64
580.8662, 11681.69
581.3483, 11496.52
581.8304, 11316.07
582.3126, 11140.39
582.7947, 10969.71
583.2768, 10804.27
583.7589, 10643.08
584.2410, 10484.11
584.7231, 10328.55
585.2053, 10178.81
585.6874, 10033.85
586.1696, 9896.549
586.6517, 9772.688
587.1338, 9658.935
587.6159, 9541.192
588.0980, 9406.207
588.5801, 9274.761
589.0623, 9156.370
589.5444, 9052.604
590.0265, 8951.134
590.5086, 8852.707
590.9907, 8755.816
591.4728, 8657.977
591.9550, 8558.999
592.4371, 8467.217
592.9192, 8385.334
593.4013, 8308.677
593.8834, 8231.283
594.3655, 8153.614
594.8477, 8077.581
595.3298, 8004.732
595.8119, 7934.084
596.2940, 7863.096
596.7761, 7793.485
597.2582, 7728.770
597.7404, 7671.293
598.2225, 7618.976
598.7046, 7571.599
599.1867, 7529.134
599.6688, 7486.232
600.1509, 7441.700
600.6331, 7395.158
601.1152, 7346.164
601.5973, 7290.942
602.0794, 7240.930
602.5615, 7196.293
603.0436, 7157.128
603.5258, 7124.943
604.0079, 7100.889
604.4900, 7078.594
604.9721, 7057.643
605.4542, 7037.761
605.9363, 7017.331
606.4185, 6997.049
606.9006, 6980.776
607.3827, 6970.615
607.8648, 6965.721
608.3469, 6964.880
608.8290, 6968.292
609.3112, 6977.067
609.7933, 6994.932
610.2754, 7016.214
610.7575, 7036.160
611.2396, 7053.130
611.7217, 7074.489
612.2039, 7102.019
612.6860, 7134.391
613.1681, 7171.128
613.6502, 7212.968
614.1323, 7257.023
614.6144, 7304.794
615.0966, 7352.760
615.5787, 7396.006
616.0608, 7432.972
616.5429, 7474.330
617.0250, 7523.336
617.5071, 7577.408
617.9893, 7630.039
618.4714, 7681.663
618.9535, 7732.818
619.4356, 7786.686
619.9177, 7839.953
620.3998, 7887.514
620.8820, 7929.986
621.3641, 7972.701
621.8462, 8022.721
622.3283, 8071.989
622.8104, 8113.448
623.2925, 8144.448
623.7747, 8175.707
624.2568, 8213.962
624.7389, 8249.908
625.2210, 8275.591
625.7031, 8285.657
626.1852, 8297.576
626.6674, 8314.696
627.1495, 8331.017
627.6316, 8335.964
628.1137, 8329.236
628.5958, 8318.354
629.0779, 8304.465
629.5601, 8288.964
630.0422, 8275.610
630.5243, 8263.662
631.0064, 8248.726
631.4885, 8227.081
631.9706, 8202.371
632.4528, 8176.555
632.9349, 8150.309
633.4170, 8126.669
633.8991, 8108.596
634.3812, 8092.462
634.8633, 8076.392
635.3455, 8061.299
635.8276, 8043.021
636.3097, 8019.413
636.7918, 7994.477
637.2739, 7971.411
637.7560, 7950.721
638.2382, 7930.159
638.7203, 7909.566
639.2024, 7888.971
639.6845, 7869.764
640.1666, 7851.056
640.6487, 7826.994
641.1309, 7793.683
641.6130, 7756.354
642.0951, 7722.984
642.5772, 7691.950
643.0594, 7660.253
643.5415, 7626.307
644.0236, 7590.984
644.5057, 7554.724
644.9879, 7517.359
645.4700, 7478.418
645.9521, 7434.802
646.4342, 7392.125
646.9163, 7352.336
647.3984, 7315.177
647.8806, 7281.720
648.3627, 7251.930
648.8448, 7225.861
649.3269, 7202.300
649.8090, 7181.404
650.2911, 7168.016
650.7733, 7162.256
651.2554, 7164.369
651.7375, 7176.528
652.2196, 7196.684
652.7017, 7219.042
653.1838, 7238.858
653.6660, 7266.427
654.1481, 7312.157
654.6302, 7370.425
655.1123, 7432.147
655.5944, 7487.009
656.0765, 7551.784
656.5587, 7632.005
657.0408, 7726.342
657.5229, 7829.893
658.0050, 7940.492
658.4871, 8060.693
658.9692, 8191.093
659.4514, 8331.627
659.9335, 8481.931
660.4156, 8641.201
660.8977, 8811.594
661.3798, 8996.549
661.8619, 9191.505
662.3441, 9387.611
662.8262, 9584.159
663.3083, 9789.082
663.7904, 10009.46
664.2725, 10241.36
664.7546, 10479.64
665.2368, 10721.75
665.7189, 10976.69
666.2010, 11256.70
666.6831, 11549.36
667.1652, 11840.36
667.6473, 12125.09
668.1295, 12416.28
668.6116, 12716.91
669.0937, 13026.73
669.5758, 13342.67
670.0579, 13667.34
670.5400, 13986.78
671.0222, 14296.05
671.5043, 14598.39
671.9864, 14908.16
672.4685, 15223.53
672.9506, 15537.28
673.4327, 15847.17
673.9149, 16147.58
674.3970, 16435.98
674.8791, 16713.39
675.3612, 16978.63
675.8433, 17238.02
676.3254, 17483.45
676.8076, 17708.45
677.2897, 17911.17
677.7718, 18101.46
678.2539, 18283.38
678.7360, 18445.28
679.2181, 18578.33
679.7003, 18680.53
680.1824, 18769.21
680.6645, 18846.43
681.1466, 18901.90
681.6287, 18927.63
682.1108, 18922.58
682.5930, 18882.53
683.0751, 18804.72
683.5572, 18696.52
684.0393, 18563.72
684.5214, 18403.02
685.0035, 18209.32
685.4857, 17967.23
685.9678, 17707.51
686.4499, 17442.94
686.9320, 17166.72
687.4141, 16860.69
687.8962, 16514.03
688.3784, 16161.84
688.8605, 15813.59
689.3426, 15464.81
689.8247, 15098.84
690.3068, 14712.26
690.7889, 14322.95
691.2711, 13936.55
691.7532, 13553.14
692.2353, 13181.11
692.7174, 12822.17
693.1995, 12466.34
693.6816, 12106.95
694.1638, 11749.48
694.6459, 11399.94
695.1280, 11058.61
695.6101, 10730.36
696.0922, 10418.26
696.5743, 10118.83
697.0565, 9829.040
697.5386, 9547.031
698.0207, 9271.083
698.5028, 8999.411
698.9849, 8737.651
699.4670, 8493.603
699.9492, 8265.853
700.4313, 8037.701
700.9135, 7807.951
701.3956, 7585.026
701.8777, 7378.602
702.3598, 7185.922
702.8419, 7003.005
703.3240, 6830.958
703.8062, 6662.901
704.2883, 6495.745
704.7704, 6330.909
705.2525, 6173.829
705.7346, 6026.119
706.2167, 5884.013
706.6989, 5747.847
707.1810, 5617.037
707.6631, 5489.145
708.1452, 5366.183
708.6273, 5248.021
709.1094, 5135.076
709.5916, 5027.127
710.0737, 4923.597
710.5558, 4825.142
711.0379, 4730.304
711.5200, 4637.427
712.0021, 4548.890
712.4843, 4465.307
712.9664, 4386.181
713.4485, 4308.792
713.9306, 4233.027
714.4127, 4158.571
714.8948, 4086.048
715.3770, 4014.704
715.8591, 3946.105
716.3412, 3881.128
716.8233, 3817.444
717.3054, 3754.343
717.7875, 3691.415
718.2697, 3631.420
718.7518, 3573.982
719.2339, 3518.162
719.7160, 3462.635
720.1981, 3408.416
720.6802, 3356.700
721.1624, 3308.279
721.6445, 3260.376
722.1266, 3210.062
722.6087, 3160.780
723.0908, 3116.195
723.5729, 3080.433
724.0551, 3043.166
724.5372, 3002.926
725.0193, 2962.280
725.5014, 2924.386
725.9835, 2889.610
726.4656, 2855.521
726.9478, 2821.545
727.4299, 2787.999
727.9120, 2755.795
728.3941, 2724.388
728.8762, 2693.249
729.3583, 2661.558
729.8405, 2631.448
730.3226, 2605.387
730.8047, 2581.767
731.2868, 2558.767
731.7689, 2536.024
732.2510, 2513.282
732.7332, 2490.466
733.2153, 2467.693
733.6974, 2444.705
734.1795, 2421.273
734.6616, 2398.506
735.1437, 2376.803
735.6259, 2356.115
736.1080, 2336.855
736.5901, 2318.891
737.0722, 2301.080
737.5543, 2282.529
738.0364, 2264.083
738.5186, 2246.650
739.0007, 2230.235
739.4828, 2214.309
739.9649, 2199.745
740.4470, 2184.603
740.9291, 2167.260
741.4113, 2148.089
741.8934, 2130.928
742.3755, 2116.545
742.8576, 2102.793
743.3397, 2088.664
743.8218, 2074.300
744.3040, 2060.899
744.7861, 2048.603
745.2682, 2036.352
745.7503, 2023.396
746.2324, 2009.963
746.7145, 1996.800
747.1967, 1983.799
747.6788, 1970.733
748.1609, 1956.404
748.6430, 1942.785
749.1251, 1931.454
749.6072, 1923.197
750.0894, 1913.565
750.5715, 1901.710
751.0536, 1889.438
751.5357, 1877.916
752.0178, 1867.075
752.4999, 1856.850
752.9821, 1847.205
753.4642, 1838.089
753.9463, 1829.609
754.4284, 1821.666
754.9105, 1814.121
755.3926, 1806.894
755.8748, 1799.916
756.3569, 1792.710
756.8390, 1785.880
757.3211, 1780.137
757.8032, 1777.193
758.2853, 1771.501
758.7675, 1760.364
759.2496, 1748.877
759.7318, 1742.137
760.2139, 1741.062
760.6960, 1738.080
761.1781, 1732.410
761.6602, 1725.548
762.1423, 1718.460
762.6245, 1711.685
763.1066, 1706.772
763.5887, 1704.558
764.0708, 1702.611
764.5529, 1699.335
765.0350, 1695.361
765.5172, 1691.425
765.9993, 1687.066
766.4814, 1683.638
766.9635, 1681.836
767.4456, 1680.442
767.9277, 1677.513
768.4099, 1672.537
768.8920, 1669.243
769.3741, 1668.465
769.8562, 1668.893
770.3383, 1669.012
770.8204, 1668.762
771.3026, 1667.780
771.7847, 1665.024
772.2668, 1663.303
772.7489, 1665.683
773.2310, 1670.089
773.7131, 1673.219
774.1953, 1673.093
774.6774, 1673.363
775.1595, 1674.285
775.6416, 1675.932
776.1237, 1678.489
776.6058, 1682.018
777.0880, 1686.013
777.5701, 1690.325
778.0522, 1694.977
778.5343, 1699.897
779.0164, 1705.142
779.4985, 1710.913
779.9807, 1716.855
780.4628, 1723.737
780.9449, 1733.415
781.4270, 1744.164
781.9091, 1752.645
782.3912, 1755.276
782.8734, 1759.163
783.3555, 1765.842
783.8376, 1774.138
784.3197, 1780.661
784.8018, 1785.228
785.2839, 1791.129
785.7661, 1799.797
786.2482, 1809.723
786.7303, 1817.782
787.2124, 1824.873
787.6945, 1833.759
788.1766, 1848.094
788.6588, 1862.149
789.1409, 1873.687
789.6230, 1882.817
790.1051, 1890.049
790.5872, 1892.824
791.0693, 1897.809
791.5515, 1906.588
792.0336, 1918.269
792.5157, 1930.221
792.9978, 1942.452
793.4799, 1955.176
793.9620, 1969.150
794.4442, 1983.035
794.9263, 1994.962
795.4084, 2005.330
795.8905, 2015.398
796.3726, 2024.699
796.8547, 2034.819
797.3369, 2046.226
797.8190, 2059.039
798.3011, 2073.783
798.7832, 2092.469
799.2653, 2109.020
799.7474, 2121.014
800.2296, 2130.592
800.7117, 2143.740
801.1938, 2160.259
801.6759, 2178.145
802.1580, 2197.446
802.6401, 2216.751
803.1223, 2233.657
803.6044, 2249.128
804.0865, 2265.339
804.5686, 2281.955
805.0507, 2300.887
805.5328, 2324.928
806.0150, 2351.765
806.4971, 2375.137
806.9792, 2393.442
807.4613, 2413.587
807.9434, 2437.952
808.4255, 2464.790
808.9077, 2490.780
809.3898, 2516.139
809.8719, 2541.904
810.3540, 2568.470
810.8361, 2595.614
811.3182, 2622.860
811.8004, 2650.426
812.2825, 2679.472
812.7646, 2711.486
813.2467, 2743.559
813.7288, 2775.446
814.2109, 2807.039
814.6931, 2837.247
815.1752, 2866.160
815.6573, 2895.585
816.1394, 2926.864
816.6215, 2958.120
817.1037, 2986.197
817.5858, 3011.564
818.0679, 3036.133
818.5500, 3060.997
819.0322, 3085.044
819.5143, 3107.887
819.9964, 3129.132
820.4785, 3147.673
820.9606, 3164.526
821.4427, 3176.400
821.9249, 3181.901
822.4070, 3183.016
822.8891, 3184.187
823.3712, 3185.106
823.8533, 3182.234
824.3354, 3174.032
824.8176, 3162.835
825.2997, 3151.869
825.7818, 3139.740
826.2639, 3124.278
826.7460, 3104.538
827.2281, 3081.545
827.7103, 3053.677
828.1924, 3023.262
828.6745, 2992.573
829.1566, 2961.746
829.6387, 2930.939
830.1208, 2900.372
830.6030, 2869.802
831.0851, 2840.172
831.5672, 2811.038
832.0493, 2780.961
832.5314, 2749.742
833.0135, 2717.772
833.4957, 2684.312
833.9778, 2651.181
834.4599, 2619.993
834.9420, 2594.163
835.4241, 2566.679
835.9063, 2536.330
836.3884, 2505.896
836.8705, 2479.381
837.3526, 2456.701
837.8347, 2433.967
838.3168, 2410.266
838.7990, 2387.360
839.2811, 2367.302
839.7632, 2348.653
840.2453, 2329.338
840.7274, 2308.258
841.2095, 2288.118
841.6917, 2269.797
842.1738, 2252.796
842.6559, 2236.649
843.1380, 2221.751
843.6201, 2206.159
844.1022, 2189.694
844.5844, 2173.148
845.0665, 2157.121
845.5486, 2141.569
846.0307, 2126.931
846.5128, 2113.213
846.9949, 2099.148
847.4771, 2082.617
847.9592, 2066.339
848.4413, 2052.746
848.9234, 2042.776
849.4055, 2031.732
849.8876, 2018.645
850.3698, 2005.948
850.8519, 1995.767
851.3340, 1987.711
851.8161, 1977.361
852.2982, 1964.710
852.7803, 1950.930
853.2625, 1935.282
853.7446, 1920.021
854.2267, 1907.641
854.7088, 1897.998
855.1909, 1888.106
855.6730, 1877.659
856.1552, 1866.197
856.6373, 1853.083
857.1194, 1838.720
857.6015, 1826.086
858.0836, 1815.306
858.5657, 1804.634
859.0479, 1792.396
859.5300, 1780.168
860.0121, 1772.277
860.4942, 1767.406
860.9763, 1760.963
861.4584, 1748.626
861.9406, 1736.458
862.4227, 1727.661
862.9048, 1721.404
863.3869, 1714.635
863.8690, 1706.922
864.3511, 1699.595
864.8333, 1692.868
865.3154, 1686.682
865.7975, 1680.313
866.2796, 1674.042
866.7617, 1669.060
867.2438, 1666.117
867.7260, 1663.909
868.2081, 1660.971
868.6902, 1658.205
869.1723, 1656.957
869.6544, 1659.463
870.1365, 1660.596
870.6187, 1659.149
871.1008, 1657.312
871.5829, 1658.189
872.0650, 1661.684
872.5471, 1665.719
873.0292, 1670.016
873.5114, 1674.686
873.9935, 1679.233
874.4756, 1684.512
874.9577, 1691.961
875.4399, 1702.934
875.9220, 1712.839
876.4041, 1717.584
876.8862, 1723.331
877.3683, 1734.618
877.8505, 1752.529
878.3326, 1768.107
878.8147, 1780.883
879.2968, 1794.205
879.7789, 1811.685
880.2610, 1831.093
880.7432, 1848.967
881.2253, 1865.125
881.7074, 1881.502
882.1895, 1898.438
882.6716, 1916.368
883.1537, 1935.876
883.6359, 1956.783
884.1180, 1977.667
884.6001, 1998.526
885.0822, 2019.890
885.5643, 2042.286
886.0464, 2065.234
886.5286, 2086.901
887.0107, 2107.890
887.4928, 2130.843
887.9749, 2159.759
888.4570, 2187.670
888.9391, 2210.840
889.4213, 2229.986
889.9034, 2247.589
890.3855, 2261.163
890.8676, 2279.209
891.3497, 2304.867
891.8318, 2333.823
892.3140, 2359.782
892.7961, 2382.871
893.2782, 2403.302
893.7603, 2419.813
894.2424, 2436.371
894.7245, 2456.733
895.2067, 2478.206
895.6888, 2497.717
896.1709, 2513.570
896.6530, 2529.136
897.1351, 2544.646
897.6172, 2559.312
898.0994, 2571.755
898.5815, 2582.299
899.0636, 2593.752
899.5457, 2606.420
900.0278, 2616.381
900.5099, 2619.847
900.9921, 2619.546
901.4742, 2617.612
901.9563, 2614.170
902.4384, 2610.524
902.9205, 2609.054
903.4026, 2604.377
903.8848, 2593.277
904.3669, 2576.493
904.8490, 2559.338
905.3311, 2541.833
905.8132, 2523.200
906.2953, 2502.073
906.7775, 2480.027
907.2596, 2458.561
907.7417, 2437.362
908.2238, 2414.793
908.7059, 2391.509
909.1880, 2365.416
909.6702, 2335.168
910.1523, 2302.524
910.6344, 2271.591
911.1165, 2242.351
911.5986, 2213.742
912.0807, 2186.291
912.5629, 2157.356
913.0450, 2122.362
913.5271, 2084.565
914.0092, 2048.149
914.4913, 2015.034
914.9734, 1983.394
915.4556, 1954.695
915.9377, 1925.635
916.4198, 1892.777
916.9019, 1855.847
917.3840, 1819.852
917.8661, 1784.925
918.3483, 1750.907
918.8304, 1716.873
919.3125, 1683.599
919.7946, 1652.496
920.2767, 1623.985
920.7589, 1594.576
921.2410, 1560.907
921.7231, 1528.667
922.2052, 1500.301
922.6873, 1475.307
923.1694, 1449.292
923.6516, 1422.434
924.1337, 1395.216
924.6158, 1367.377
925.0979, 1339.701
925.5800, 1313.100
926.0621, 1287.822
926.5443, 1264.141
927.0264, 1243.031
927.5085, 1222.509
927.9906, 1201.727
928.4727, 1181.269
928.9548, 1162.407
929.4370, 1145.260
929.9191, 1128.546
930.4012, 1112.255
930.8833, 1096.209
931.3654, 1079.801
931.8475, 1063.801
932.3297, 1049.050
932.8118, 1036.046
933.2939, 1023.413
933.7761, 1010.757
934.2582, 998.4134
934.7403, 986.7737
935.2224, 975.7497
935.7045, 964.9478
936.1866, 954.2849
936.6688, 943.6810
937.1509, 932.7292
937.6330, 922.0250
938.1151, 912.6591
938.5972, 904.2696
939.0793, 895.3605
939.5615, 884.0938
940.0436, 873.8784
940.5257, 866.1182
941.0078, 859.7237
941.4899, 851.5032
941.9720, 841.5953
942.4542, 833.7662
942.9363, 829.2756
943.4184, 826.5807
943.9005, 825.4326
944.3826, 824.4367
944.8647, 821.5643
945.3469, 815.6019
945.8290, 808.9417
946.3111, 801.0283
946.7932, 793.5099
947.2753, 787.9938
947.7574, 784.3301
948.2396, 780.6927
948.7217, 777.0023
949.2038, 773.5828
949.6859, 771.4814
950.1680, 769.1859
950.6501, 765.0180
951.1323, 759.0261
951.6144, 753.5172
952.0965, 748.3770
952.5786, 744.5574
953.0607, 742.8682
953.5428, 742.3597
954.0250, 740.0591
954.5071, 736.2316
954.9892, 732.3928
955.4713, 728.8689
955.9534, 726.0165
956.4355, 724.6711
956.9177, 723.9695
957.3998, 722.6525
957.8819, 720.6819
958.3640, 717.7793
958.8461, 713.6261
959.3282, 709.1534
959.8104, 705.1828
960.2925, 701.7704
960.7746, 699.3962
961.2567, 698.0875
961.7388, 697.0242
962.2209, 695.9422
962.7031, 694.6703
963.1852, 692.8844
963.6673, 690.6461
964.1494, 689.1653
964.6315, 688.7169
965.1136, 688.1303
965.5958, 687.0947
966.0779, 685.4846
966.5600, 682.8093
967.0421, 679.3318
967.5242, 675.8110
968.0063, 671.6516
968.4885, 668.6917
968.9706, 669.0882
969.4527, 670.2432
969.9348, 668.6865
970.4169, 663.5186
970.8990, 660.2816
971.3812, 659.5029
971.8633, 659.5048
972.3454, 658.6761
972.8275, 657.5557
973.3096, 657.4081
973.7917, 658.2924
974.2739, 657.6031
974.7560, 652.2402
975.2381, 647.4947
975.7202, 645.4251
976.2023, 645.6024
976.6844, 646.2106
977.1666, 647.2419
977.6487, 647.4214
978.1308, 646.0764
978.6129, 643.9371
979.0950, 641.0829
979.5771, 638.1466
980.0593, 636.1406
980.5414, 636.2323
981.0235, 636.0005
981.5056, 635.3992
981.9877, 634.3635
982.4698, 632.5981
982.9520, 630.2552
983.4341, 628.4597
983.9162, 627.2685
984.3983, 625.8096
984.8804, 622.3378
985.3625, 619.2825
985.8447, 618.9258
986.3268, 621.1935
986.8089, 622.2878
987.2910, 621.9152
987.7731, 621.1553
988.2552, 620.3178
988.7374, 619.3546
989.2195, 618.2863
989.7016, 617.0206
990.1837, 615.2044
990.6658, 612.0395
991.1479, 609.6664
991.6301, 609.9420
992.1122, 610.7999
992.5944, 610.0022
993.0765, 606.9688
993.5586, 605.7803
994.0407, 606.6857
994.5228, 607.7138
995.0049, 607.2197
995.4871, 605.9009
995.9692, 604.3209
996.4513, 602.6453
996.9334, 601.6969
997.4155, 602.0891
997.8976, 602.8480
998.3798, 603.8165
998.8619, 604.9466
999.3440, 606.9155
999.8261, 609.3848
1000.308, 608.6829
1000.790, 602.9705
1001.272, 596.8748
1001.755, 594.1733
1002.237, 593.1539
1002.719, 592.1091
1003.201, 590.8410
1003.683, 589.3813
1004.165, 587.6562
1004.647, 585.8996
1005.129, 584.0535
1005.612, 582.3156
1006.094, 581.5226
1006.576, 581.4306
1007.058, 580.8367
1007.540, 578.0362
1008.022, 575.8390
1008.504, 575.9416
1008.986, 577.1796
1009.468, 577.6462
1009.951, 577.2764
1010.433, 576.5087
1010.915, 575.3038
1011.397, 574.1532
1011.879, 574.0815
1012.361, 574.1385
1012.843, 572.7474
1013.325, 569.3633
1013.807, 567.4581
1014.290, 568.4571
1014.772, 569.6438
1015.254, 569.2477
1015.736, 568.2863
1016.218, 573.2964
1016.700, 582.6173
1017.182, 586.4490
1017.664, 576.0116
1018.147, 564.4937
1018.629, 559.9801
1019.111, 559.8905
1019.593, 560.3257
1020.075, 561.7280
1020.557, 561.4391
1021.039, 558.9905
1021.521, 556.2793
1022.003, 555.4125
1022.486, 555.3954
1022.968, 554.3866
1023.450, 552.3655
1023.932, 550.4661
1024.414, 548.8920
1024.896, 547.8205
1025.378, 547.2870
1025.860, 547.2646
1026.343, 548.0689
1026.825, 549.5641
1027.307, 549.8621
1027.789, 548.0944
1028.271, 546.1316
1028.753, 545.9533
1029.235, 546.3245
1029.717, 545.8005
1030.199, 543.8012
1030.682, 542.3511
1031.164, 541.7091
1031.646, 540.8492
1032.128, 538.5486
1032.610, 535.7566
1033.092, 535.4077
1033.574, 536.8570
1034.056, 537.7465
1034.539, 536.3710
1035.021, 535.0390
1035.503, 534.3889
1035.985, 534.2160
1036.467, 534.4616
1036.949, 535.1497
1037.431, 534.9987
1037.913, 533.7837
1038.396, 532.5922
1038.878, 532.7868
1039.360, 533.1778
1039.842, 532.4457
1040.324, 530.4960
1040.806, 529.1443
1041.288, 528.5757
1041.770, 528.3853
1042.252, 528.5419
1042.734, 528.8528
1043.217, 529.0529
1043.699, 529.0732
1044.181, 528.6439
1044.663, 527.2728
1045.145, 526.4153
1045.627, 527.6650
1046.109, 528.7646
1046.591, 527.7169
1047.074, 524.3812
1047.556, 522.7073
1048.038, 522.6874
1048.520, 523.1163
1049.002, 523.4968
1049.484, 523.7059
1049.966, 523.3985
1050.448, 522.8380
1050.931, 522.8309
1051.413, 524.0072
1051.895, 524.4308
1052.377, 523.7227
1052.859, 522.6254
1053.341, 521.8922
1053.823, 521.4866
1054.305, 521.4048
1054.787, 521.6466
1055.270, 521.8080
1055.752, 522.0579
1056.234, 521.7362
1056.716, 520.2300
1057.198, 518.0573
1057.680, 517.3566
1058.162, 518.0524
1058.644, 519.1466
1059.126, 520.6985
1059.609, 521.5580
1060.091, 519.8207
1060.573, 517.3015
1061.055, 516.1547
1061.537, 516.9819
1062.019, 517.5732
1062.501, 517.9512
1062.983, 518.0339
1063.466, 517.3655
1063.948, 516.5891
1064.430, 517.5007
1064.912, 519.3704
1065.394, 519.9998
1065.876, 516.1332
1066.358, 514.3815
1066.840, 516.8646
1067.323, 520.5925
1067.805, 521.8316
1068.287, 520.9113
1068.769, 519.8372
1069.251, 518.7772
1069.733, 518.4382
1070.215, 520.2303
1070.697, 522.0682
1071.179, 522.2679
1071.661, 521.2504
1072.144, 520.9976
1072.626, 521.6793
1073.108, 521.8632
1073.590, 520.9792
1074.072, 520.0956
1074.554, 520.8512
1075.036, 522.3002
1075.518, 523.2614
1076.001, 523.5378
1076.483, 523.1864
1076.965, 521.8441
1077.447, 520.7162
1077.929, 520.3441
1078.411, 520.6932
1078.893, 522.0937
1079.375, 524.1621
1079.858, 525.6401
1080.340, 525.5266
1080.822, 525.4299
1081.304, 526.0839
1081.786, 526.8395
1082.268, 527.1199
1082.750, 526.9124
1083.232, 526.3948
1083.714, 525.5748
1084.197, 525.1086
1084.679, 525.9515
1085.161, 526.8886
1085.643, 526.8949
1086.125, 526.2407
1086.607, 525.9286
1087.089, 526.1176
1087.571, 526.2520
1088.054, 526.2986
1088.536, 526.1082
1089.018, 525.0817
1089.500, 523.9094
1089.982, 523.9300
1090.464, 525.3011
1090.946, 525.5965
1091.428, 523.0736
1091.911, 521.5431
1092.393, 522.5424
1092.875, 524.8839
1093.357, 525.9735
1093.839, 525.9924
1094.321, 525.4106
1094.803, 524.0706
1095.285, 523.0875
1095.767, 523.1523
1096.250, 523.6489
1096.732, 524.1681
1097.214, 524.7194
1097.696, 525.7382
1098.178, 527.1813
1098.660, 528.0514
1099.142, 527.3933
1099.624, 526.5107
1100.106, 526.2622
1100.589, 526.4972
1101.071, 527.0462
1101.553, 528.2004
1102.035, 528.5818
1102.517, 528.0836
1102.999, 527.2750
1103.481, 526.2894
1103.963, 525.5014
1104.446, 525.6351
1104.928, 526.4669
1105.410, 527.0449
1105.892, 527.2958
1106.374, 526.9370
1106.856, 525.6875
1107.338, 524.2578
1107.820, 523.5478
1108.302, 523.4144
1108.785, 523.6088
1109.267, 524.0984
1109.749, 524.4059
1110.231, 524.1287
1110.713, 523.8942
1111.195, 524.1304
1111.677, 524.4581
1112.159, 523.6854
1112.641, 521.9751
1113.124, 520.0873
1113.606, 517.8824
1114.088, 516.9279
1114.570, 520.2670
1115.052, 523.6199
1115.534, 522.3599
1116.016, 516.8978
1116.498, 517.6718
1116.981, 524.8300
1117.463, 534.6220
1117.945, 549.4697
1118.427, 559.7437
1118.909, 551.6915
1119.391, 534.7071
1119.873, 522.0004
1120.355, 515.6990
1120.838, 511.8787
1121.320, 510.8636
1121.802, 510.9123
1122.284, 511.5353
1122.766, 512.0118
1123.248, 510.7599
1123.730, 508.4638
1124.212, 506.9676
1124.694, 507.8189
1125.177, 507.9738
1125.659, 506.9694
1126.141, 505.7432
1126.623, 505.3802
1127.105, 505.5521
1127.587, 505.2910
1128.069, 504.6289
1128.551, 504.2227
1129.033, 505.1088
1129.516, 505.2586
1129.998, 503.7332
1130.480, 501.6122
1130.962, 500.6832
1131.444, 500.7885
1131.926, 501.2036
1132.408, 501.8456
1132.890, 502.3485
1133.373, 503.2935
1133.855, 503.1516
1134.337, 500.3404
1134.819, 495.9656
1135.301, 494.0668
1135.783, 494.5705
1136.265, 494.7995
1136.747, 493.9864
1137.229, 493.0649
1137.712, 492.9598
1138.194, 493.0150
1138.676, 492.6205
1139.158, 491.7627
1139.640, 490.7001
1140.122, 489.3528
1140.604, 488.3223
1141.086, 487.2139
1141.569, 487.6899
1142.051, 492.6748
1142.533, 499.8934
1143.015, 507.2031
1143.497, 516.6660
1143.979, 515.8743
1144.461, 502.2133
1144.943, 488.5600
1145.426, 482.8359
1145.908, 482.0548
1146.390, 483.4459
1146.872, 485.9187
1147.354, 487.2085
1147.836, 486.0711
1148.318, 484.4330
1148.800, 482.1525
1149.282, 479.8478
1149.765, 478.0714
1150.247, 476.6544
1150.729, 474.3451
1151.211, 471.8487
1151.693, 472.0097
1152.175, 479.6802
1152.657, 484.8311
1153.139, 485.6026
1153.621, 483.8470
1154.104, 480.9413
1154.586, 477.3877
1155.068, 475.1104
1155.550, 474.0750
1156.032, 472.8007
1156.514, 469.8788
1156.996, 467.4084
1157.478, 465.8955
1157.961, 465.2724
1158.443, 465.8806
1158.925, 467.3895
1159.407, 467.8300
1159.889, 466.9034
1160.371, 465.7910
1160.853, 464.6716
1161.335, 464.1533
1161.818, 464.7630
1162.300, 466.0746
1162.782, 467.1267
1163.264, 467.8592
1163.746, 467.4250
1164.228, 465.4112
1164.710, 463.6258
1165.192, 463.8134
1165.674, 464.3663
1166.156, 464.2566
1166.639, 463.4819
1167.121, 461.5166
1167.603, 458.3911
1168.085, 456.9145
1168.567, 458.5171
1169.049, 460.4019
1169.531, 460.2467
1170.013, 459.1260
1170.496, 457.9058
1170.978, 456.6309
1171.460, 456.1006
1171.942, 456.3598
1172.424, 456.4003
1172.906, 455.5733
1173.388, 454.6885
1173.870, 454.5927
1174.353, 454.9176
1174.835, 455.2373
1175.317, 455.5720
1175.799, 455.6362
1176.281, 455.4407
1176.763, 454.9087
1177.245, 453.6884
1177.727, 452.4442
1178.209, 451.9467
1178.692, 451.9467
1179.174, 452.0831
1179.656, 452.6510
1180.138, 452.1426
1180.620, 450.2321
1181.102, 448.8796
1181.584, 450.2350
1182.066, 452.3839
1182.548, 453.2331
1183.031, 452.9014
1183.513, 451.5553
1183.995, 447.9854
1184.477, 446.5593
1184.959, 447.8851
1185.441, 449.6563
1185.923, 449.9434
1186.405, 449.3774
1186.888, 448.6647
1187.370, 447.8540
1187.852, 446.9987
1188.334, 445.8385
1188.816, 445.3026
1189.298, 445.6711
1189.780, 446.0202
1190.262, 445.0925
1190.745, 443.7034
1191.227, 443.4093
1191.709, 442.2092
1192.191, 440.8646
1192.673, 440.5368
1193.155, 438.5296
1193.637, 437.9809
1194.119, 438.0880
1194.601, 438.1195
1195.084, 438.0398
1195.566, 437.7538
1196.048, 437.2737
1196.530, 436.7686
1197.012, 435.9677
1197.494, 435.6250
1197.976, 435.6486
1198.458, 436.7563
1198.941, 442.0551
1199.423, 448.1967
1199.905, 448.4831
1200.387, 442.4008
1200.869, 437.6298
1201.351, 436.1042
1201.833, 435.1714
1202.315, 434.3957
1202.797, 433.5174
1203.280, 431.6673
1203.762, 429.6221
1204.244, 429.0926
1204.726, 430.4507
1205.208, 430.5395
1205.690, 427.8515
1206.172, 425.9108
1206.654, 425.8837
1207.136, 426.9051
1207.619, 427.9430
1208.101, 428.7469
1208.583, 428.6663
1209.065, 427.3871
1209.547, 426.9190
1210.029, 428.0516
1210.511, 428.8367
1210.993, 428.5151
1211.476, 427.5658
1211.958, 425.0552
1212.440, 423.1761
1212.922, 427.6900
1213.404, 442.5023
1213.886, 447.6604
1214.368, 437.6096
1214.850, 426.9885
1215.333, 421.6104
1215.815, 419.5346
1216.297, 417.8780
1216.779, 416.6579
1217.261, 415.8995
1217.743, 415.6369
1218.225, 415.8566
1218.707, 416.8603
1219.189, 417.4455
1219.672, 416.8687
1220.154, 415.7774
1220.636, 415.1864
1221.118, 415.0080
1221.600, 415.1583
1222.082, 415.8518
1222.564, 416.0567
1223.046, 415.5679
1223.528, 415.1050
1224.011, 415.2593
1224.493, 415.3982
1224.975, 413.9427
1225.457, 411.8590
1225.939, 410.8568
1226.421, 411.8008
1226.903, 412.6611
1227.385, 413.4712
1227.868, 414.0200
1228.350, 414.2474
1228.832, 414.0760
1229.314, 413.0734
1229.796, 411.6963
1230.278, 410.7334
1230.760, 410.4298
1231.242, 410.3261
1231.724, 410.4742
1232.207, 410.5579
1232.689, 410.1966
1233.171, 409.8739
1233.653, 410.6385
1234.135, 411.7286
1234.617, 411.8021
1235.099, 410.4382
1235.581, 408.8102
1236.063, 406.7824
1236.546, 405.5862
1237.028, 407.1702
1237.510, 408.7544
1237.992, 406.1108
1238.474, 407.1795
1238.956, 407.2288
1239.438, 405.5981
1239.920, 407.0686
1240.403, 405.4647
1240.885, 403.3566
1241.367, 401.6752
1241.849, 400.9224
1242.331, 402.5076
1242.813, 404.8514
1243.295, 405.3463
1243.777, 403.2847
1244.260, 403.6276
1244.742, 406.3770
1245.224, 408.2747
1245.706, 406.4375
1246.188, 404.0067
1246.670, 403.3760
1247.152, 403.2499
1247.634, 401.5959
1248.116, 398.1532
1248.599, 396.9536
1249.081, 397.9039
1249.563, 399.2251
1250.045, 400.6294
1250.527, 401.2146
1251.009, 399.7188
1251.491, 397.7087
1251.973, 396.5163
1252.455, 396.1619
1252.938, 398.0714
1253.420, 401.8423
1253.902, 404.3282
1254.384, 402.7433
1254.866, 400.8948
1255.348, 399.6589
1255.830, 399.2691
1256.313, 400.6669
1256.795, 403.2978
1257.277, 403.3673
1257.759, 401.2506
1258.241, 399.0377
1258.723, 396.7885
1259.205, 395.9472
1259.687, 397.2769
1260.169, 399.1304
1260.651, 400.4646
1261.134, 401.0814
1261.616, 399.6595
1262.098, 396.8842
1262.580, 395.1113
1263.062, 394.3668
1263.544, 396.5360
1264.026, 402.9178
1264.508, 409.3232
1264.991, 412.5488
1265.473, 413.1874
1265.955, 411.6022
1266.437, 408.4724
1266.919, 405.4806
1267.401, 401.7076
1267.883, 400.9731
1268.365, 403.8713
1268.848, 407.7081
1269.330, 412.0180
1269.812, 414.7975
1270.294, 412.3232
1270.776, 406.5745
1271.258, 401.8495
1271.740, 398.4371
1272.222, 396.4848
1272.704, 396.1407
1273.187, 395.9492
1273.669, 394.8466
1274.151, 393.5085
1274.633, 391.9352
1275.115, 390.8360
1275.597, 391.4814
1276.079, 394.3269
1276.561, 395.6385
1277.043, 395.4271
1277.526, 394.5781
1278.008, 393.2959
1278.490, 391.9354
1278.972, 390.3464
1279.454, 389.1025
1279.936, 388.8784
1280.418, 389.6388
1280.900, 390.4587
1281.383, 391.2261
1281.865, 391.2599
1282.347, 389.2630
1282.829, 387.8437
1283.311, 388.4330
1283.793, 389.2000
1284.275, 388.4925
1284.757, 388.7629
1285.240, 388.7440
1285.722, 387.8204
1286.204, 388.2536
1286.686, 387.0180
1287.168, 385.8861
1287.650, 384.8598
1288.132, 384.4612
1288.614, 385.5281
1289.096, 387.1374
1289.578, 387.4483
1290.061, 386.8174
1290.543, 385.9680
1291.025, 385.1486
1291.507, 383.6462
1291.989, 381.1298
1292.471, 379.4928
1292.953, 380.3824
1293.435, 381.9828
1293.918, 382.1368
1294.400, 381.5782
1294.882, 381.4974
1295.364, 382.1087
1295.846, 381.5412
1296.328, 379.7707
1296.810, 378.8330
1297.292, 380.4866
1297.775, 381.7679
1298.257, 380.0471
1298.739, 377.1772
1299.221, 374.6454
1299.703, 372.5541
1300.185, 372.7389
1300.667, 374.7325
1301.149, 375.5811
1301.631, 373.5252
1302.114, 371.7485
1302.596, 371.6709
##END=



