##NAMES=Lithiomarsturite
##RRUFFID=R100094
##IDEAL CHEMISTRY=LiCa_2_Mn^2+^_2_Si_5_O_14_(OH)
##LOCALITY=Foote mine, Kings Mountain, North Carolina, USA
##OWNER=RRUFF
##SOURCE=
##DESCRIPTION=Tan colored prismatic crystals, associated with brannockite, fluorapatite, albite, bavenite, and pyrite
##STATUS=The identification of this mineral has been confirmed by single-crystal X-ray diffraction.
##URL=rruff.info/R100094
123.2761, 12.97864
123.7582, 13.51643
124.2404, 14.05663
124.7225, 14.24547
125.2046, 14.25341
125.6867, 14.28605
126.1688, 14.38091
126.6509, 14.48873
127.1331, 14.51988
127.6152, 14.49852
128.0973, 14.54458
128.5794, 14.77320
129.0615, 15.13120
129.5436, 15.46521
130.0258, 15.65909
130.5079, 15.90543
130.9900, 16.71921
131.4721, 18.09286
131.9542, 19.37735
132.4363, 19.86261
132.9185, 19.66802
133.4006, 19.58603
133.8827, 19.68242
134.3648, 20.07415
134.8469, 21.32993
135.3290, 23.56618
135.8112, 26.16639
136.2933, 28.40434
136.7754, 30.26551
137.2575, 32.15924
137.7396, 34.24720
138.2217, 36.48893
138.7039, 38.65746
139.1860, 40.62481
139.6681, 42.72824
140.1502, 45.61825
140.6323, 49.45853
141.1144, 53.44579
141.5966, 57.36660
142.0787, 61.27147
142.5608, 64.78010
143.0429, 67.85330
143.5250, 70.54832
144.0071, 73.04707
144.4893, 75.64800
144.9714, 77.53004
145.4535, 78.11935
145.9356, 76.24378
146.4177, 75.45895
146.8998, 76.19611
147.3820, 78.10376
147.8641, 79.75672
148.3462, 80.82929
148.8283, 81.93259
149.3104, 83.42581
149.7925, 85.93970
150.2747, 88.00388
150.7568, 89.12478
151.2389, 89.42897
151.7210, 90.49937
152.2031, 92.71877
152.6852, 95.45229
153.1674, 98.33345
153.6495, 101.9521
154.1316, 105.0618
154.6137, 107.2950
155.0958, 108.6326
155.5779, 110.0853
156.0601, 112.1250
156.5422, 114.1748
157.0243, 115.7163
157.5064, 115.7205
157.9885, 116.0789
158.4706, 117.6957
158.9528, 120.8382
159.4349, 123.1685
159.9170, 123.1209
160.3991, 122.2298
160.8812, 122.2689
161.3633, 124.2014
161.8455, 126.8086
162.3276, 129.7541
162.8097, 133.0812
163.2918, 136.1537
163.7739, 138.5642
164.2560, 140.3989
164.7382, 141.1548
165.2203, 141.4491
165.7024, 141.9313
166.1845, 142.7740
166.6666, 143.9717
167.1487, 145.5970
167.6309, 148.0471
168.1130, 150.9769
168.5951, 153.6119
169.0772, 155.5035
169.5593, 157.0300
170.0414, 158.4739
170.5236, 159.8335
171.0057, 161.2494
171.4878, 163.1089
171.9699, 165.1952
172.4520, 166.8059
172.9341, 167.2393
173.4163, 167.1178
173.8984, 167.1864
174.3805, 167.7103
174.8626, 168.2885
175.3447, 168.5566
175.8268, 168.5519
176.3090, 168.4469
176.7911, 168.4951
177.2732, 168.4983
177.7553, 168.0744
178.2374, 166.8398
178.7195, 165.4571
179.2017, 164.9735
179.6838, 165.2834
180.1659, 165.4334
180.6480, 164.6179
181.1301, 163.0903
181.6122, 161.3662
182.0944, 159.2831
182.5765, 157.3105
183.0586, 156.6246
183.5407, 157.2180
184.0228, 157.4792
184.5049, 155.4997
184.9871, 151.8546
185.4692, 148.7008
185.9513, 146.9102
186.4334, 145.9568
186.9155, 144.5415
187.3976, 142.6391
187.8798, 140.6477
188.3619, 138.8952
188.8440, 137.3689
189.3261, 136.1170
189.8082, 135.2647
190.2903, 134.6867
190.7725, 133.9411
191.2546, 133.0150
191.7367, 131.9391
192.2188, 130.6876
192.7009, 129.2584
193.1830, 127.8156
193.6652, 126.2968
194.1473, 124.7622
194.6294, 123.7543
195.1115, 123.3486
195.5936, 123.2095
196.0757, 123.0020
196.5579, 122.7336
197.0400, 122.1996
197.5221, 120.9938
198.0042, 119.2190
198.4863, 118.6777
198.9684, 119.7307
199.4506, 121.2264
199.9327, 121.1458
200.4148, 119.2614
200.8969, 117.8882
201.3790, 118.3727
201.8611, 120.8146
202.3433, 122.0245
202.8254, 121.7848
203.3075, 120.6622
203.7896, 119.4473
204.2717, 118.0449
204.7538, 116.9781
205.2360, 116.4335
205.7181, 116.4069
206.2002, 117.0182
206.6823, 118.5158
207.1644, 120.3500
207.6465, 121.4592
208.1287, 121.6727
208.6108, 121.7347
209.0929, 121.9054
209.5750, 122.1579
210.0571, 122.7040
210.5392, 123.6233
211.0214, 124.7707
211.5035, 125.9577
211.9856, 127.3499
212.4677, 128.3102
212.9498, 128.3113
213.4319, 126.9170
213.9140, 126.4672
214.3962, 127.2571
214.8783, 128.8257
215.3604, 130.1139
215.8425, 131.0703
216.3246, 131.8843
216.8067, 132.5845
217.2889, 133.0351
217.7710, 133.8176
218.2531, 135.0206
218.7352, 136.5117
219.2173, 138.0742
219.6994, 139.8992
220.1816, 141.4351
220.6637, 142.3729
221.1458, 142.4047
221.6279, 142.7498
222.1100, 143.5483
222.5921, 144.6244
223.0743, 145.5339
223.5564, 146.1868
224.0385, 146.8300
224.5206, 147.4984
225.0027, 148.0123
225.4848, 149.0998
225.9670, 151.0165
226.4491, 153.4224
226.9312, 155.5142
227.4133, 157.3722
227.8954, 158.7633
228.3775, 159.5195
228.8597, 159.4897
229.3418, 159.1528
229.8239, 158.1608
230.3060, 156.9473
230.7881, 156.8834
231.2702, 158.8348
231.7524, 160.6134
232.2345, 161.0519
232.7166, 159.1035
233.1987, 158.3521
233.6808, 159.4715
234.1629, 161.6218
234.6451, 162.5182
235.1272, 161.5058
235.6093, 160.2121
236.0914, 159.3354
236.5735, 159.0237
237.0556, 158.7788
237.5378, 158.4403
238.0199, 158.2199
238.5020, 158.7569
238.9841, 160.7354
239.4662, 162.4761
239.9483, 163.1944
240.4305, 162.3209
240.9126, 161.7261
241.3947, 161.3489
241.8768, 161.2639
242.3589, 161.7213
242.8410, 163.0621
243.3232, 164.4112
243.8053, 165.3226
244.2874, 165.3867
244.7695, 166.0450
245.2516, 167.6033
245.7337, 169.6377
246.2159, 171.1568
246.6980, 171.7868
247.1801, 172.4972
247.6622, 173.7377
248.1443, 175.8422
248.6264, 177.5253
249.1086, 178.5771
249.5907, 179.3246
250.0728, 180.4642
250.5549, 182.2189
251.0370, 183.9881
251.5191, 185.4962
252.0013, 186.5375
252.4834, 187.9631
252.9655, 189.8447
253.4476, 192.0471
253.9297, 194.3241
254.4118, 196.6305
254.8940, 199.0435
255.3761, 201.6203
255.8582, 204.4436
256.3403, 207.1483
256.8224, 209.7434
257.3046, 212.2181
257.7867, 214.4242
258.2688, 216.1205
258.7509, 218.1049
259.2330, 220.6774
259.7151, 223.9615
260.1973, 227.2765
260.6794, 230.7525
261.1615, 234.0739
261.6436, 236.5136
262.1257, 237.5263
262.6078, 239.0674
263.0900, 242.0497
263.5721, 246.7911
264.0542, 249.9560
264.5363, 251.0330
265.0184, 251.1760
265.5005, 251.9605
265.9827, 253.6994
266.4648, 255.1361
266.9469, 255.8682
267.4290, 255.8802
267.9111, 255.8801
268.3932, 256.0606
268.8754, 255.9236
269.3575, 254.7590
269.8396, 252.2439
270.3217, 249.8725
270.8038, 248.1676
271.2859, 247.0508
271.7681, 245.1800
272.2502, 242.3877
272.7323, 239.1957
273.2144, 236.2494
273.6965, 233.6337
274.1786, 230.7123
274.6608, 227.1609
275.1429, 223.1355
275.6250, 219.7722
276.1071, 217.2914
276.5892, 214.8538
277.0714, 211.6026
277.5535, 207.3891
278.0356, 203.6004
278.5177, 200.5036
278.9998, 198.0223
279.4819, 196.0185
279.9641, 194.6175
280.4462, 193.0990
280.9283, 190.6324
281.4104, 187.1908
281.8925, 184.3418
282.3746, 182.3570
282.8568, 181.0924
283.3389, 180.2416
283.8210, 179.8374
284.3031, 179.5826
284.7852, 179.3736
285.2673, 179.1939
285.7495, 178.6358
286.2316, 177.4364
286.7137, 176.1330
287.1958, 175.9286
287.6779, 176.8455
288.1600, 178.1065
288.6422, 179.2813
289.1243, 180.4001
289.6064, 181.5810
290.0885, 182.8309
290.5706, 184.1885
291.0527, 185.7194
291.5349, 187.4221
292.0170, 189.2669
292.4991, 191.2706
292.9812, 193.4119
293.4633, 195.5403
293.9454, 197.6632
294.4276, 199.7785
294.9097, 201.8189
295.3918, 203.8135
295.8739, 205.8779
296.3560, 208.0355
296.8381, 210.2996
297.3203, 212.5964
297.8024, 214.8921
298.2845, 217.4025
298.7666, 220.6225
299.2487, 224.2735
299.7308, 227.5977
300.2130, 229.9926
300.6951, 231.9770
301.1772, 234.5576
301.6593, 237.7223
302.1414, 240.7346
302.6235, 242.8212
303.1057, 244.2794
303.5878, 245.6482
304.0699, 247.1270
304.5520, 248.6171
305.0341, 250.1997
305.5162, 251.8112
305.9984, 252.9480
306.4805, 252.6716
306.9626, 251.8315
307.4447, 251.6466
307.9268, 252.7185
308.4089, 254.1740
308.8911, 255.4425
309.3732, 256.4984
309.8553, 257.2431
310.3374, 257.3035
310.8195, 257.1676
311.3016, 257.3428
311.7838, 258.0426
312.2659, 258.8377
312.7480, 259.4222
313.2301, 259.8812
313.7122, 260.4341
314.1943, 261.3243
314.6765, 262.2664
315.1586, 263.0064
315.6407, 263.4053
316.1228, 263.9691
316.6049, 264.9100
317.0870, 266.1786
317.5692, 267.6744
318.0513, 269.6960
318.5334, 271.6717
319.0155, 273.0950
319.4976, 273.7738
319.9797, 275.1051
320.4619, 277.7665
320.9440, 281.2510
321.4261, 284.9514
321.9082, 288.7715
322.3903, 292.7628
322.8724, 297.1546
323.3546, 301.9614
323.8367, 306.2355
324.3188, 309.4440
324.8009, 312.2664
325.2830, 315.1870
325.7651, 318.8028
326.2473, 321.9704
326.7294, 324.7669
327.2115, 327.1123
327.6936, 328.3622
328.1757, 328.3894
328.6578, 327.3669
329.1400, 325.3731
329.6221, 322.4316
330.1042, 318.5163
330.5863, 313.3407
331.0684, 307.1508
331.5505, 300.7838
332.0327, 294.1469
332.5148, 287.3688
332.9969, 280.3479
333.4790, 272.8936
333.9611, 266.1106
334.4432, 260.2284
334.9254, 254.8589
335.4075, 249.3544
335.8896, 243.3059
336.3717, 237.8932
336.8538, 233.8932
337.3359, 231.5357
337.8180, 227.4866
338.3001, 220.9978
338.7823, 213.9788
339.2644, 208.7076
339.7465, 205.4071
340.2286, 202.7888
340.7107, 200.8721
341.1928, 199.4406
341.6750, 196.9926
342.1571, 193.2107
342.6392, 189.4626
343.1213, 186.9697
343.6034, 185.7706
344.0855, 184.4761
344.5677, 182.8126
345.0498, 180.9852
345.5319, 179.2695
346.0140, 177.6366
346.4961, 176.9139
346.9782, 178.4095
347.4604, 181.5256
347.9425, 183.1002
348.4246, 182.5910
348.9067, 181.2988
349.3888, 180.9385
349.8709, 181.4211
350.3531, 182.2481
350.8352, 183.0903
351.3173, 184.1190
351.7994, 185.7582
352.2815, 188.0443
352.7636, 190.6077
353.2458, 193.2083
353.7279, 195.8201
354.2100, 198.3808
354.6921, 200.6478
355.1742, 202.9879
355.6563, 205.8416
356.1385, 209.1749
356.6206, 212.7486
357.1027, 216.3897
357.5848, 220.1719
358.0669, 224.2833
358.5490, 229.0782
359.0312, 233.7297
359.5133, 237.6111
359.9954, 240.9160
360.4775, 244.3031
360.9596, 248.6862
361.4417, 252.8595
361.9239, 255.9964
362.4060, 257.7716
362.8881, 259.0780
363.3702, 260.1443
363.8523, 260.9708
364.3344, 261.5587
364.8166, 262.4821
365.2987, 262.6555
365.7808, 261.4859
366.2629, 258.8143
366.7450, 256.0004
367.2271, 253.2437
367.7093, 250.4481
368.1914, 247.5291
368.6735, 244.0176
369.1556, 240.8797
369.6377, 238.4344
370.1198, 236.5832
370.6020, 234.6748
371.0841, 232.6822
371.5662, 230.6488
372.0483, 228.5050
372.5304, 225.3373
373.0125, 223.8355
373.4947, 224.8614
373.9768, 227.3052
374.4589, 228.5284
374.9410, 228.0402
375.4231, 227.3242
375.9052, 226.7637
376.3874, 226.2647
376.8695, 226.8244
377.3516, 228.8144
377.8337, 231.2498
378.3158, 232.9138
378.7979, 233.7139
379.2801, 234.4147
379.7622, 234.9371
380.2443, 235.5529
380.7264, 237.7408
381.2085, 241.6416
381.6906, 246.0604
382.1728, 250.1862
382.6549, 254.0361
383.1370, 257.4375
383.6191, 260.3214
384.1012, 262.8782
384.5833, 265.3860
385.0655, 267.8658
385.5476, 270.4371
386.0297, 273.6790
386.5118, 276.9762
386.9939, 279.1781
387.4760, 280.0980
387.9582, 280.4796
388.4403, 281.1181
388.9224, 281.7390
389.4045, 281.7791
389.8866, 281.3648
390.3687, 280.0329
390.8509, 277.0775
391.3330, 272.6239
391.8151, 267.8607
392.2972, 263.5008
392.7793, 259.2071
393.2614, 254.6366
393.7436, 249.7154
394.2257, 244.5745
394.7078, 239.2342
395.1899, 233.7487
395.6720, 228.2590
396.1541, 222.6135
396.6363, 217.1336
397.1184, 211.9199
397.6005, 206.8973
398.0826, 202.4173
398.5647, 198.7193
399.0468, 195.5285
399.5290, 192.5114
400.0111, 189.9359
400.4932, 187.2155
400.9753, 184.0905
401.4574, 180.5515
401.9395, 177.5475
402.4217, 175.2702
402.9038, 173.2936
403.3859, 171.3613
403.8680, 169.5163
404.3501, 167.5668
404.8322, 165.3657
405.3144, 163.1227
405.7965, 161.5202
406.2786, 160.7036
406.7607, 160.0125
407.2428, 159.2139
407.7249, 158.3062
408.2071, 157.1284
408.6892, 155.6017
409.1713, 154.0162
409.6534, 152.7113
410.1355, 151.6871
410.6176, 150.8223
411.0998, 150.1172
411.5819, 149.5172
412.0640, 149.0196
412.5461, 148.6136
413.0282, 147.8999
413.5103, 146.1212
413.9925, 143.8797
414.4746, 142.5493
414.9567, 142.6037
415.4388, 142.8622
415.9209, 141.9397
416.4030, 140.2426
416.8852, 138.7542
417.3673, 138.3231
417.8494, 138.0940
418.3315, 137.3675
418.8136, 136.1067
419.2957, 134.5819
419.7779, 132.6442
420.2600, 130.6521
420.7421, 128.9963
421.2242, 127.8422
421.7063, 126.9666
422.1884, 126.5953
422.6706, 126.5136
423.1527, 125.8923
423.6348, 123.8267
424.1169, 121.7632
424.5990, 120.3775
425.0811, 120.0568
425.5633, 119.6718
426.0454, 119.0611
426.5275, 118.4162
427.0096, 117.9959
427.4917, 118.0994
427.9738, 117.9637
428.4560, 117.2972
428.9381, 116.1354
429.4202, 115.4149
429.9023, 115.1766
430.3844, 115.3113
430.8665, 115.9280
431.3487, 117.2014
431.8308, 117.7983
432.3129, 117.4035
432.7950, 116.5386
433.2771, 116.3632
433.7592, 116.9085
434.2414, 117.3612
434.7235, 117.1274
435.2056, 116.4647
435.6877, 116.5692
436.1698, 117.4982
436.6519, 118.4621
437.1341, 118.5475
437.6162, 118.0363
438.0983, 117.7026
438.5804, 117.9248
439.0625, 118.1704
439.5446, 117.6224
440.0268, 116.5124
440.5089, 115.6845
440.9910, 116.1019
441.4731, 116.7457
441.9552, 116.6265
442.4373, 115.5061
442.9195, 114.3374
443.4016, 113.4224
443.8837, 112.7927
444.3658, 112.4866
444.8479, 113.2094
445.3300, 113.5591
445.8122, 112.7674
446.2943, 111.0057
446.7764, 109.7830
447.2585, 109.8157
447.7406, 110.0577
448.2227, 110.0069
448.7049, 109.6399
449.1870, 108.9951
449.6691, 107.8352
450.1512, 106.5181
450.6333, 105.6940
451.1154, 105.7093
451.5976, 105.4240
452.0797, 104.3026
452.5618, 102.4576
453.0439, 101.7385
453.5260, 102.3785
454.0081, 103.4501
454.4903, 104.4113
454.9724, 105.2496
455.4545, 105.5165
455.9366, 105.0265
456.4187, 104.2117
456.9008, 103.8448
457.3830, 103.8633
457.8651, 103.8203
458.3472, 103.0798
458.8293, 102.2654
459.3114, 102.8775
459.7935, 104.8997
460.2757, 106.6433
460.7578, 106.4292
461.2399, 105.1767
461.7220, 104.1516
462.2041, 103.7118
462.6862, 103.5072
463.1684, 103.2595
463.6505, 103.0679
464.1326, 103.1703
464.6147, 103.9361
465.0968, 104.7947
465.5789, 105.4504
466.0611, 105.8620
466.5432, 106.2240
467.0253, 106.7076
467.5074, 107.0803
467.9895, 107.1418
468.4716, 106.3436
468.9538, 105.9282
469.4359, 106.1144
469.9180, 106.7330
470.4001, 107.2445
470.8822, 107.5466
471.3643, 107.9258
471.8465, 108.5784
472.3286, 109.5674
472.8107, 110.1340
473.2928, 110.1693
473.7749, 110.0416
474.2570, 110.2081
474.7392, 110.6660
475.2213, 110.8722
475.7034, 110.5071
476.1855, 110.0682
476.6676, 110.7405
477.1497, 112.4298
477.6319, 114.1973
478.1140, 115.7242
478.5961, 116.9008
479.0782, 117.3210
479.5603, 116.8944
480.0424, 116.6159
480.5246, 117.4495
481.0067, 118.8982
481.4888, 120.2418
481.9709, 120.8917
482.4530, 121.8024
482.9352, 123.9586
483.4173, 126.8632
483.8994, 128.9448
484.3815, 128.9876
484.8636, 128.6491
485.3457, 128.6511
485.8279, 129.0528
486.3100, 129.7935
486.7921, 131.2771
487.2742, 132.8731
487.7563, 134.0198
488.2384, 134.3514
488.7206, 134.8697
489.2027, 135.7138
489.6848, 136.8198
490.1669, 137.9392
490.6490, 139.0162
491.1311, 140.2554
491.6133, 141.9457
492.0954, 144.0780
492.5775, 145.3461
493.0596, 145.6235
493.5417, 145.5420
494.0238, 145.6937
494.5060, 146.0599
494.9881, 146.5635
495.4702, 147.1961
495.9523, 147.9332
496.4344, 148.7144
496.9165, 149.5562
497.3987, 150.5161
497.8808, 152.0184
498.3629, 153.4283
498.8450, 153.9668
499.3271, 153.5410
499.8092, 153.2219
500.2914, 153.9021
500.7735, 154.8040
501.2556, 155.2030
501.7377, 154.5369
502.2198, 153.8037
502.7019, 153.0935
503.1841, 152.4621
503.6662, 152.0563
504.1483, 152.1359
504.6304, 152.1736
505.1125, 152.0208
505.5946, 151.6669
506.0768, 151.3212
506.5589, 151.1357
507.0410, 150.7385
507.5231, 149.6376
508.0052, 147.6358
508.4873, 146.3473
508.9695, 146.1690
509.4516, 146.4718
509.9337, 145.9822
510.4158, 144.7488
510.8979, 143.6991
511.3800, 143.4015
511.8622, 143.5054
512.3443, 143.1061
512.8264, 142.2395
513.3085, 141.5283
513.7906, 141.6555
514.2728, 142.1430
514.7549, 142.3520
515.2370, 142.0971
515.7191, 141.7515
516.2012, 141.5178
516.6833, 141.3529
517.1655, 141.1864
517.6476, 141.1353
518.1297, 140.9426
518.6118, 140.3231
519.0939, 139.3501
519.5760, 138.8373
520.0582, 139.2659
520.5403, 139.8549
521.0224, 140.3059
521.5045, 140.6526
521.9866, 140.7092
522.4688, 140.1812
522.9509, 139.6863
523.4330, 140.1366
523.9151, 141.7632
524.3972, 142.9947
524.8793, 143.2669
525.3615, 143.1136
525.8436, 144.1998
526.3257, 146.5080
526.8078, 148.5457
527.2899, 149.0401
527.7720, 148.7235
528.2542, 149.4795
528.7363, 151.4246
529.2184, 153.1821
529.7005, 153.1178
530.1826, 152.2867
530.6647, 152.1493
531.1469, 153.4143
531.6290, 154.9473
532.1111, 156.1613
532.5932, 157.1827
533.0753, 158.2649
533.5574, 159.9552
534.0396, 161.2725
534.5217, 161.6046
535.0038, 160.8472
535.4859, 160.8398
535.9680, 162.3938
536.4501, 163.9446
536.9323, 164.5361
537.4144, 163.7280
537.8965, 163.1896
538.3786, 162.9631
538.8607, 162.9947
539.3428, 163.3795
539.8250, 164.1814
540.3071, 164.5205
540.7892, 164.1292
541.2713, 163.1348
541.7534, 161.5766
542.2355, 159.5300
542.7177, 157.7962
543.1998, 157.3462
543.6819, 157.3439
544.1640, 156.4909
544.6461, 154.6745
545.1282, 152.4426
545.6104, 149.9674
546.0925, 147.3911
546.5746, 144.8728
547.0567, 142.4867
547.5388, 140.1231
548.0209, 137.7751
548.5031, 135.4465
548.9852, 133.0948
549.4673, 130.1230
549.9494, 127.7743
550.4315, 126.6657
550.9136, 126.7891
551.3958, 126.0269
551.8779, 123.9774
552.3600, 121.7148
552.8421, 119.8611
553.3242, 118.4375
553.8063, 117.2019
554.2885, 116.1168
554.7706, 115.2943
555.2527, 115.0262
555.7348, 115.2226
556.2169, 115.3270
556.6990, 115.1799
557.1812, 114.8501
557.6633, 114.3298
558.1454, 113.6811
558.6275, 113.1356
559.1096, 113.0044
559.5917, 112.9129
560.0739, 112.6071
560.5560, 112.0689
561.0381, 111.2597
561.5202, 109.7855
562.0023, 108.2745
562.4844, 107.2121
562.9666, 107.1243
563.4487, 106.7847
563.9308, 105.8914
564.4129, 104.8120
564.8950, 104.2049
565.3771, 104.5703
565.8593, 104.2385
566.3414, 102.5297
566.8235, 99.87942
567.3056, 98.29248
567.7877, 97.90150
568.2698, 97.67313
568.7520, 96.97047
569.2341, 95.92165
569.7162, 95.06777
570.1983, 94.45573
570.6804, 93.66509
571.1625, 92.06924
571.6447, 90.10278
572.1268, 88.43127
572.6089, 87.11694
573.0910, 86.30801
573.5731, 86.67900
574.0552, 87.52039
574.5374, 87.59813
575.0195, 85.57522
575.5016, 83.67235
575.9837, 82.72881
576.4658, 82.68472
576.9479, 82.46148
577.4301, 81.89674
577.9122, 81.31981
578.3943, 80.93596
578.8764, 80.86321
579.3585, 80.24290
579.8406, 78.87867
580.3228, 77.40273
580.8049, 76.54530
581.2870, 76.26883
581.7691, 75.79671
582.2512, 74.90140
582.7333, 73.99430
583.2155, 73.81339
583.6975, 74.15923
584.1796, 74.39902
584.6617, 74.12586
585.1439, 73.69753
585.6260, 73.47819
586.1081, 73.41091
586.5902, 73.20655
587.0723, 72.44621
587.5544, 71.73386
588.0366, 71.45940
588.5187, 71.78944
589.0008, 72.01561
589.4829, 71.83475
589.9650, 71.66936
590.4471, 71.89507
590.9293, 72.90916
591.4114, 73.34917
591.8935, 72.93008
592.3756, 72.12013
592.8577, 71.77156
593.3398, 71.91093
593.8220, 72.11028
594.3041, 72.25594
594.7862, 72.35480
595.2683, 72.40884
595.7504, 72.42292
596.2325, 72.43618
596.7147, 72.46972
597.1968, 72.51785
597.6789, 72.64339
598.1610, 72.85484
598.6431, 72.85901
599.1252, 71.88274
599.6074, 70.98695
600.0895, 71.13536
600.5716, 73.50280
601.0537, 75.16660
601.5358, 75.38687
602.0179, 74.78050
602.5001, 74.00587
602.9822, 72.55264
603.4643, 72.05099
603.9464, 73.19894
604.4285, 75.31036
604.9106, 75.92300
605.3928, 74.83589
605.8749, 74.02251
606.3570, 74.74041
606.8391, 76.46314
607.3212, 77.49747
607.8033, 77.85643
608.2855, 77.92240
608.7676, 77.63493
609.2497, 77.37415
609.7318, 77.71337
610.2139, 78.85306
610.6960, 80.02622
611.1782, 80.90373
611.6603, 81.55380
612.1424, 82.05810
612.6245, 82.22472
613.1066, 82.49010
613.5887, 82.87519
614.0709, 83.40173
614.5530, 84.17240
615.0351, 85.33735
615.5172, 86.38734
615.9993, 87.13506
616.4814, 87.66122
616.9636, 88.47461
617.4457, 89.60263
617.9278, 90.67850
618.4099, 91.40736
618.8920, 91.90096
619.3741, 92.42665
619.8563, 92.99660
620.3384, 93.73739
620.8205, 94.75723
621.3026, 96.00622
621.7847, 97.47842
622.2668, 99.33760
622.7490, 101.0127
623.2311, 101.9259
623.7132, 102.6417
624.1953, 103.8823
624.6774, 106.3602
625.1595, 108.6435
625.6417, 110.4472
626.1238, 111.9679
626.6059, 113.6943
627.0880, 115.6195
627.5701, 117.8267
628.0522, 120.5342
628.5344, 123.5454
629.0165, 125.6712
629.4986, 126.8884
629.9807, 128.2547
630.4628, 130.6251
630.9449, 133.6299
631.4271, 136.5717
631.9092, 139.3842
632.3913, 142.5000
632.8734, 146.5843
633.3555, 150.9514
633.8376, 154.9474
634.3198, 158.2287
634.8019, 161.4262
635.2840, 164.4396
635.7661, 167.5397
636.2482, 171.1469
636.7303, 175.3030
637.2125, 179.9109
637.6946, 185.1363
638.1767, 190.7399
638.6588, 195.9859
639.1409, 200.8166
639.6230, 206.0040
640.1052, 211.9821
640.5873, 218.5736
641.0694, 225.0339
641.5515, 231.4609
642.0336, 238.3101
642.5157, 245.8535
642.9979, 254.0491
643.4800, 262.6258
643.9621, 271.6228
644.4442, 281.4344
644.9263, 292.5790
645.4084, 304.5713
645.8906, 316.8955
646.3727, 328.9686
646.8548, 342.3418
647.3369, 356.9955
647.8190, 372.9825
648.3011, 390.1631
648.7833, 408.8492
649.2654, 428.1147
649.7475, 448.0322
650.2296, 468.5136
650.7117, 489.8113
651.1938, 512.1026
651.6760, 535.2905
652.1581, 559.5951
652.6402, 584.9135
653.1223, 611.5468
653.6044, 639.0340
654.0865, 667.1290
654.5687, 695.2949
655.0508, 723.8307
655.5329, 753.2767
656.0150, 783.5534
656.4971, 814.3133
656.9792, 845.1232
657.4614, 876.7327
657.9435, 909.8660
658.4256, 945.6646
658.9077, 979.0685
659.3898, 1010.101
659.8719, 1038.677
660.3541, 1065.074
660.8362, 1089.147
661.3183, 1109.711
661.8004, 1126.590
662.2825, 1138.749
662.7646, 1144.787
663.2468, 1144.945
663.7289, 1139.855
664.2110, 1130.308
664.6931, 1114.907
665.1752, 1091.773
665.6573, 1062.138
666.1395, 1028.401
666.6216, 989.6492
667.1037, 948.6207
667.5858, 905.0202
668.0679, 859.1944
668.5500, 815.0943
669.0322, 772.3151
669.5143, 731.3099
669.9964, 691.8122
670.4785, 653.8598
670.9606, 618.0751
671.4427, 584.2866
671.9249, 553.1464
672.4070, 524.8995
672.8891, 499.2659
673.3712, 476.2769
673.8533, 455.7868
674.3354, 437.1383
674.8176, 420.3307
675.2997, 404.5703
675.7818, 389.1589
676.2639, 373.2875
676.7460, 358.6403
677.2281, 346.5129
677.7103, 335.6863
678.1924, 324.7874
678.6745, 313.7400
679.1566, 303.0274
679.6387, 292.6823
680.1208, 282.6320
680.6030, 272.9747
681.0851, 263.5307
681.5672, 254.4159
682.0493, 245.6355
682.5314, 237.3163
683.0135, 230.0165
683.4957, 223.5294
683.9778, 217.3363
684.4599, 210.9715
684.9420, 204.8740
685.4241, 199.1485
685.9063, 193.8587
686.3884, 189.0150
686.8705, 184.5797
687.3526, 180.7283
687.8347, 177.5360
688.3168, 175.0786
688.7990, 172.8228
689.2811, 170.6989
689.7632, 168.8561
690.2453, 167.5799
690.7274, 166.7935
691.2095, 165.5453
691.6917, 163.7210
692.1738, 161.8578
692.6559, 160.4766
693.1380, 159.4924
693.6201, 158.8068
694.1022, 158.4632
694.5844, 158.2236
695.0665, 158.0245
695.5486, 157.8253
696.0307, 157.5738
696.5128, 157.4768
696.9949, 157.0232
697.4771, 155.9038
697.9592, 154.5204
698.4413, 153.8423
698.9234, 154.2010
699.4055, 153.9043
699.8876, 152.3465
700.3698, 149.9981
700.8519, 148.0404
701.3340, 146.4147
701.8161, 144.7802
702.2982, 143.2041
702.7803, 141.3666
703.2625, 138.6557
703.7446, 135.2542
704.2267, 132.1659
704.7088, 130.1133
705.1909, 128.1995
705.6730, 125.9903
706.1552, 123.4241
706.6373, 120.9084
707.1194, 118.5764
707.6015, 116.0963
708.0836, 113.1502
708.5657, 109.6920
709.0479, 106.9102
709.5300, 104.8350
710.0121, 103.2407
710.4942, 102.1259
710.9763, 101.3122
711.4584, 100.3416
711.9406, 99.14275
712.4227, 97.93155
712.9048, 96.99091
713.3869, 96.05016
713.8690, 94.78844
714.3511, 92.84193
714.8333, 91.12853
715.3154, 89.72987
715.7975, 88.72034
716.2796, 88.29018
716.7617, 88.78706
717.2438, 88.81929
717.7260, 88.10509
718.2081, 87.04633
718.6902, 86.34082
719.1723, 85.94831
719.6544, 85.56418
720.1365, 84.93797
720.6187, 84.51864
721.1008, 85.23840
721.5829, 86.57190
722.0650, 87.30643
722.5471, 86.14028
723.0292, 85.03660
723.5114, 85.04964
723.9935, 85.89310
724.4756, 86.24639
724.9577, 85.70152
725.4398, 85.22590
725.9219, 85.12460
726.4041, 85.32753
726.8862, 85.47676
727.3683, 85.58416
727.8504, 85.51354
728.3325, 85.09267
728.8146, 84.47038
729.2968, 84.09070
729.7789, 83.89646
730.2610, 83.36031
730.7431, 81.50992
731.2252, 79.67086
731.7073, 78.96738
732.1895, 79.59518
732.6716, 80.01238
733.1537, 79.92000
733.6358, 79.56361
734.1179, 79.02647
734.6000, 78.28448
735.0822, 77.47277
735.5643, 76.56531
736.0464, 75.66027
736.5285, 74.85336
737.0106, 74.12453
737.4927, 73.36316
737.9749, 72.54344
738.4570, 71.84602
738.9391, 71.56116
739.4212, 71.43342
739.9033, 71.14049
740.3854, 70.46596
740.8676, 70.00081
741.3497, 70.15090
741.8318, 70.45908
742.3139, 70.42773
742.7960, 69.82010
743.2781, 69.52278
743.7603, 69.75089
744.2424, 70.03651
744.7245, 69.47415
745.2066, 68.21571
745.6887, 67.59114
746.1708, 68.10943
746.6530, 68.84508
747.1351, 68.56389
747.6172, 67.77400
748.0993, 67.37235
748.5814, 68.13546
749.0635, 68.82126
749.5457, 69.01799
750.0278, 68.84263
750.5099, 68.53003
750.9920, 67.88651
751.4741, 67.50584
751.9562, 67.55215
752.4384, 67.88585
752.9205, 68.32137
753.4026, 68.84638
753.8847, 68.78878
754.3668, 67.46986
754.8489, 65.90353
755.3311, 65.83593
755.8132, 66.78143
756.2953, 67.32179
756.7774, 66.27306
757.2595, 65.17716
757.7416, 64.80058
758.2238, 65.04986
758.7059, 65.23975
759.1880, 65.34441
759.6701, 65.35560
760.1522, 65.19593
760.6343, 64.94094
761.1165, 65.11521
761.5986, 65.74808
762.0807, 66.15522
762.5628, 65.74279
763.0449, 64.95635
763.5270, 64.57803
764.0092, 64.54843
764.4913, 64.53543
764.9734, 64.35237
765.4555, 64.13464
765.9376, 63.87877
766.4197, 63.58842
766.9019, 63.67289
767.3840, 64.57283
767.8661, 65.23153
768.3482, 65.10650
768.8303, 64.23543
769.3124, 63.57770
769.7946, 63.14656
770.2767, 62.83320
770.7588, 62.43047
771.2409, 62.14299
771.7230, 62.44445
772.2051, 63.32412
772.6873, 64.22321
773.1694, 65.15710
773.6515, 65.72971
774.1336, 65.49258
774.6157, 64.18779
775.0978, 63.50068
775.5800, 63.86133
776.0621, 64.33163
776.5442, 64.27030
777.0263, 63.63133
777.5084, 63.64361
777.9905, 64.38306
778.4727, 65.03569
778.9548, 64.68874
779.4369, 63.85340
779.9190, 63.46637
780.4011, 63.64501
780.8832, 63.79306
781.3654, 63.47394
781.8475, 63.06242
782.3296, 62.81783
782.8117, 62.78053
783.2938, 62.93144
783.7759, 63.37775
784.2581, 63.86585
784.7402, 64.25395
785.2223, 64.54237
785.7044, 64.44115
786.1865, 63.88412
786.6686, 63.44458
787.1508, 64.00440
787.6329, 64.91257
788.1150, 65.04220
788.5971, 64.08767
789.0792, 63.27928
789.5613, 63.33549
790.0435, 63.69210
790.5256, 63.92403
791.0077, 64.05786
791.4898, 63.83461
791.9719, 62.95683
792.4540, 62.22313
792.9362, 62.57326
793.4183, 63.89405
793.9004, 64.80290
794.3825, 65.18882
794.8646, 65.26737
795.3467, 65.06608
795.8289, 64.76672
796.3110, 64.67930
796.7931, 64.95993
797.2752, 64.99692
797.7573, 64.35530
798.2394, 63.51881
798.7216, 62.84701
799.2037, 62.18507
799.6858, 62.19371
800.1679, 63.12031
800.6500, 64.15717
801.1321, 64.43568
801.6143, 64.10501
802.0964, 63.87975
802.5785, 63.83342
803.0606, 63.95616
803.5427, 64.45412
804.0248, 65.00582
804.5070, 65.24032
804.9891, 64.99314
805.4712, 64.72611
805.9533, 64.50965
806.4354, 64.32777
806.9175, 64.19585
807.3997, 64.16608
807.8818, 63.87396
808.3639, 63.20148
808.8460, 62.68840
809.3281, 63.05274
809.8102, 64.00089
810.2924, 64.82029
810.7745, 65.42178
811.2566, 65.84123
811.7387, 66.14596
812.2208, 66.24953
812.7029, 66.00598
813.1851, 65.13332
813.6672, 64.64433
814.1493, 64.73991
814.6314, 65.03246
815.1135, 65.23682
815.5956, 65.35152
816.0778, 65.42695
816.5599, 65.45846
817.0420, 65.50732
817.5241, 65.64566
818.0062, 65.83464
818.4883, 66.05389
818.9705, 66.31917
819.4526, 66.43941
819.9347, 66.25090
820.4168, 65.93802
820.8989, 65.58119
821.3810, 65.09531
821.8632, 64.96052
822.3453, 65.24155
822.8274, 65.73579
823.3095, 66.45194
823.7916, 67.28481
824.2737, 67.47565
824.7559, 66.98492
825.2380, 66.49319
825.7201, 66.57261
826.2022, 66.91457
826.6843, 67.31161
827.1664, 67.77496
827.6486, 67.91061
828.1307, 67.21470
828.6128, 66.55506
829.0949, 66.36626
829.5770, 66.68167
830.0591, 66.96903
830.5413, 67.21548
831.0234, 67.50572
831.5055, 68.10830
831.9876, 68.73085
832.4697, 68.57320
832.9518, 67.68353
833.4340, 67.12592
833.9161, 67.99220
834.3982, 69.00310
834.8803, 69.30013
835.3624, 68.76493
835.8445, 68.45670
836.3267, 68.55150
836.8088, 68.51318
837.2909, 67.86444
837.7730, 66.83614
838.2551, 66.93327
838.7372, 68.10012
839.2194, 69.44067
839.7015, 70.87361
840.1836, 71.84499
840.6657, 71.41812
841.1478, 69.85092
841.6299, 68.77119
842.1121, 69.17234
842.5942, 69.62566
843.0763, 69.52961
843.5584, 69.05904
844.0405, 69.31474
844.5226, 70.41404
845.0048, 71.38142
845.4869, 71.69560
845.9690, 71.68912
846.4511, 72.13546
846.9332, 72.84254
847.4153, 73.17272
847.8975, 72.52114
848.3796, 71.71814
848.8617, 70.86406
849.3438, 70.17083
849.8259, 70.31907
850.3080, 71.81607
850.7902, 73.03954
851.2723, 73.58385
851.7544, 73.70249
852.2365, 73.92015
852.7186, 74.21326
853.2007, 74.43946
853.6829, 74.53676
854.1650, 74.56345
854.6471, 74.48958
855.1292, 74.40000
855.6113, 74.43774
856.0934, 74.90650
856.5756, 75.12206
857.0577, 74.69882
857.5398, 74.23809
858.0219, 74.74724
858.5040, 76.29764
858.9861, 77.62707
859.4683, 78.59303
859.9504, 79.07058
860.4325, 78.53404
860.9146, 77.50039
861.3967, 76.81045
861.8788, 76.62148
862.3610, 76.92936
862.8431, 78.43422
863.3252, 79.99091
863.8073, 80.45837
864.2894, 79.29236
864.7715, 78.71908
865.2537, 78.81091
865.7358, 79.36341
866.2179, 80.49346
866.7000, 81.89754
867.1821, 82.63854
867.6642, 82.60295
868.1464, 82.60543
868.6285, 83.32777
869.1106, 84.20413
869.5927, 84.80540
870.0748, 85.03577
870.5569, 85.25977
871.0391, 85.46866
871.5212, 85.68597
872.0033, 85.84396
872.4854, 85.99436
872.9675, 86.53815
873.4496, 87.46754
873.9318, 88.59458
874.4139, 90.08520
874.8960, 91.49117
875.3781, 92.40133
875.8602, 92.84177
876.3423, 93.08743
876.8245, 92.81753
877.3066, 92.81692
877.7887, 93.30930
878.2708, 94.23252
878.7529, 95.49830
879.2350, 97.10467
879.7172, 98.31264
880.1993, 98.46508
880.6814, 98.41614
881.1635, 99.32951
881.6456, 100.9148
882.1277, 102.4934
882.6099, 103.9494
883.0920, 105.2039
883.5741, 106.1981
884.0562, 106.9934
884.5383, 107.6530
885.0204, 108.1260
885.5026, 108.7993
885.9847, 109.7649
886.4668, 110.8827
886.9489, 111.8726
887.4310, 112.8920
887.9131, 114.3001
888.3953, 116.3346
888.8774, 118.3163
889.3595, 119.9425
889.8416, 121.3704
890.3237, 122.7450
890.8058, 123.9962
891.2880, 125.3764
891.7701, 126.8880
892.2522, 128.4921
892.7343, 130.2896
893.2164, 132.1469
893.6985, 133.6233
894.1807, 134.6784
894.6628, 135.8203
895.1449, 137.3842
895.6270, 139.1163
896.1091, 140.9473
896.5912, 142.8711
897.0734, 144.4890
897.5555, 145.6846
898.0376, 146.8318
898.5197, 148.2186
899.0018, 149.6510
899.4839, 150.2614
899.9661, 150.1718
900.4482, 150.0918
900.9303, 150.9053
901.4124, 151.4012
901.8945, 150.3951
902.3766, 148.3921
902.8588, 147.0808
903.3409, 147.0278
903.8230, 146.9480
904.3051, 146.6196
904.7872, 146.1414
905.2693, 145.8136
905.7515, 145.5534
906.2336, 144.7470
906.7157, 142.9651
907.1978, 141.3171
907.6799, 141.0210
908.1620, 141.2949
908.6442, 141.1945
909.1263, 140.4469
909.6084, 139.3945
910.0905, 137.8405
910.5726, 136.2958
911.0547, 135.1888
911.5369, 134.5046
912.0190, 134.1199
912.5011, 134.0455
912.9832, 133.7433
913.4653, 132.6333
913.9474, 131.1783
914.4296, 129.7757
914.9117, 128.4661
915.3938, 127.1790
915.8759, 125.7186
916.3580, 124.5321
916.8401, 123.8755
917.3223, 123.6448
917.8044, 123.2425
918.2865, 122.6806
918.7686, 122.1210
919.2507, 121.7100
919.7328, 121.2901
920.2150, 120.5860
920.6971, 119.7579
921.1792, 119.1858
921.6613, 119.4139
922.1434, 119.2887
922.6255, 118.4120
923.1077, 117.3232
923.5898, 117.0227
924.0719, 117.4697
924.5540, 117.9865
925.0361, 118.5448
925.5182, 118.6924
926.0004, 117.4187
926.4825, 115.7442
926.9646, 114.9548
927.4467, 115.6531
927.9288, 116.2153
928.4109, 116.3970
928.8931, 116.4671
929.3752, 116.5494
929.8573, 116.6466
930.3394, 117.0415
930.8215, 117.7316
931.3036, 118.3838
931.7858, 118.7267
932.2679, 118.9345
932.7500, 119.0817
933.2321, 119.2152
933.7142, 119.6213
934.1964, 120.5412
934.6785, 121.5221
935.1606, 122.5111
935.6427, 123.4502
936.1248, 123.8841
936.6069, 123.9110
937.0891, 124.7490
937.5712, 127.2175
938.0533, 129.8861
938.5354, 131.3149
939.0175, 132.0663
939.4996, 132.9365
939.9818, 134.3426
940.4639, 135.4930
940.9460, 135.9777
941.4281, 136.7021
941.9102, 138.8486
942.3923, 142.2215
942.8745, 144.8833
943.3566, 146.6977
943.8387, 148.4530
944.3208, 150.7596
944.8029, 153.2885
945.2850, 155.7973
945.7672, 158.2489
946.2493, 160.7542
946.7314, 163.3924
947.2135, 165.9365
947.6956, 168.1980
948.1777, 170.3595
948.6599, 172.8621
949.1420, 175.7325
949.6241, 179.1032
950.1062, 183.5544
950.5883, 187.9091
951.0704, 191.0674
951.5526, 193.6362
952.0347, 196.7375
952.5168, 200.7506
952.9989, 204.7690
953.4810, 208.7619
953.9631, 212.6723
954.4453, 216.4725
954.9274, 220.1319
955.4095, 223.2700
955.8916, 225.7182
956.3737, 229.0074
956.8558, 235.0213
957.3380, 241.5789
957.8201, 247.0740
958.3022, 251.3580
958.7843, 255.7385
959.2664, 260.2571
959.7485, 264.7950
960.2307, 269.3535
960.7128, 273.8503
961.1949, 278.0160
961.6770, 281.9208
962.1591, 285.7258
962.6412, 289.4741
963.1234, 293.2332
963.6055, 297.3035
964.0876, 301.3252
964.5697, 304.8636
965.0518, 307.9849
965.5339, 310.1382
966.0161, 311.1628
966.4982, 311.5819
966.9803, 311.6223
967.4624, 311.6398
967.9445, 312.4393
968.4266, 314.2998
968.9088, 315.5750
969.3909, 315.3168
969.8730, 314.5959
970.3551, 313.8185
970.8372, 313.0221
971.3193, 312.8158
971.8015, 313.2119
972.2836, 313.7827
972.7657, 314.4745
973.2478, 315.0503
973.7299, 314.9526
974.2120, 314.5290
974.6942, 314.6402
975.1763, 315.7462
975.6584, 317.1833
976.1405, 318.9893
976.6226, 320.9534
977.1047, 322.8018
977.5869, 324.5529
978.0690, 326.2385
978.5511, 327.8527
979.0332, 329.3728
979.5153, 330.5241
979.9974, 331.7612
980.4796, 333.5596
980.9617, 336.0487
981.4438, 338.5201
981.9259, 340.9666
982.4080, 343.4253
982.8901, 346.0061
983.3723, 348.5974
983.8544, 350.7769
984.3365, 352.6296
984.8186, 354.5090
985.3007, 356.6591
985.7828, 358.7953
986.2650, 360.7138
986.7471, 362.5695
987.2292, 364.6411
987.7113, 367.0181
988.1934, 369.2964
988.6755, 371.4668
989.1577, 373.4292
989.6398, 374.8791
990.1219, 376.0980
990.6040, 377.8100
991.0861, 380.1111
991.5682, 381.5231
992.0504, 379.9986
992.5325, 379.0220
993.0146, 380.4940
993.4967, 383.8291
993.9788, 385.7402
994.4609, 386.2384
994.9431, 386.8648
995.4252, 388.3506
995.9073, 390.1100
996.3894, 391.5287
996.8715, 392.7914
997.3536, 394.2270
997.8358, 395.6108
998.3179, 397.6709
998.8000, 400.6201
999.2821, 403.9204
999.7642, 407.1118
1000.246, 410.2464
1000.728, 413.4717
1001.211, 416.8235
1001.693, 420.1030
1002.175, 423.0771
1002.657, 426.0739
1003.139, 429.0236
1003.621, 432.1128
1004.103, 436.3181
1004.585, 441.9820
1005.068, 447.3402
1005.550, 451.6676
1006.032, 456.0217
1006.514, 462.3470
1006.996, 469.9979
1007.478, 477.8484
1007.960, 485.5775
1008.442, 493.3966
1008.924, 501.7199
1009.407, 509.9988
1009.889, 517.8019
1010.371, 526.3261
1010.853, 533.4451
1011.335, 543.0931
1011.817, 552.5042
1012.299, 561.0559
1012.781, 568.7238
1013.263, 574.7497
1013.746, 579.8395
1014.228, 586.5471
1014.710, 595.8544
1015.192, 605.6987
1015.674, 616.1066
1016.156, 626.3040
1016.638, 634.8271
1017.120, 642.3068
1017.603, 650.8465
1018.085, 661.0123
1018.567, 671.0433
1019.049, 679.9848
1019.531, 688.3417
1020.013, 696.2382
1020.495, 703.7360
1020.977, 712.9237
1021.459, 724.0966
1021.942, 734.3886
1022.424, 742.8766
1022.906, 749.2776
1023.388, 753.3856
1023.870, 755.2174
1024.352, 754.8007
1024.834, 751.6780
1025.316, 746.8564
1025.799, 740.6967
1026.281, 732.7620
1026.763, 722.3432
1027.245, 709.7657
1027.727, 696.1132
1028.209, 681.4207
1028.691, 664.8851
1029.173, 644.9802
1029.656, 623.8370
1030.138, 603.0134
1030.620, 582.4007
1031.102, 560.1537
1031.584, 534.7877
1032.066, 514.0788
1032.548, 501.0828
1033.030, 490.2954
1033.512, 474.2089
1033.995, 454.5133
1034.477, 433.9665
1034.959, 412.6077
1035.441, 392.8334
1035.923, 375.0551
1036.405, 359.2379
1036.887, 345.5822
1037.369, 333.9654
1037.851, 322.1530
1038.334, 310.3942
1038.816, 299.1867
1039.298, 288.7193
1039.780, 279.0689
1040.262, 270.6304
1040.744, 262.8639
1041.226, 254.5163
1041.708, 244.7975
1042.191, 236.5576
1042.673, 230.1042
1043.155, 224.2955
1043.637, 217.8028
1044.119, 211.0898
1044.601, 204.8388
1045.083, 199.0427
1045.565, 193.8374
1046.047, 189.4632
1046.530, 185.4335
1047.012, 181.7790
1047.494, 178.2879
1047.976, 174.3752
1048.458, 170.0305
1048.940, 165.4736
1049.422, 160.4857
1049.904, 156.1084
1050.386, 153.2526
1050.869, 151.2788
1051.351, 149.7071
1051.833, 148.6377
1052.315, 146.8523
1052.797, 144.1497
1053.279, 141.6309
1053.761, 139.9879
1054.243, 138.8518
1054.726, 137.6322
1055.208, 136.3805
1055.690, 135.2336
1056.172, 134.4772
1056.654, 133.4720
1057.136, 131.9632
1057.618, 130.3952
1058.100, 129.3171
1058.583, 128.6629
1059.065, 128.0921
1059.547, 127.5720
1060.029, 126.7945
1060.511, 125.0426
1060.993, 123.4633
1061.475, 123.1071
1061.957, 123.5887
1062.439, 123.1283
1062.922, 121.5232
1063.404, 120.2965
1063.886, 119.9490
1064.368, 119.7768
1064.850, 118.6736
1065.332, 117.3050
1065.814, 116.5130
1066.296, 116.4332
1066.778, 117.1337
1067.261, 118.7130
1067.743, 120.8947
1068.225, 124.5159
1068.707, 128.1931
1069.189, 126.1156
1069.671, 119.7618
1070.153, 114.4291
1070.635, 113.0527
1071.118, 112.3897
1071.600, 111.4938
1072.082, 110.4990
1072.564, 109.5271
1073.046, 108.5833
1073.528, 107.7089
1074.010, 106.9148
1074.492, 106.0793
1074.974, 104.9995
1075.457, 103.9403
1075.939, 103.1227
1076.421, 102.5354
1076.903, 102.0698
1077.385, 101.6986
1077.867, 101.5555
1078.349, 101.7946
1078.831, 101.9068
1079.313, 100.9440
1079.796, 99.47773
1080.278, 98.57793
1080.760, 98.41104
1081.242, 98.23988
1081.724, 97.79453
1082.206, 97.32668
1082.688, 96.91597
1083.170, 96.55748
1083.652, 96.19790
1084.135, 95.86700
1084.617, 95.77563
1085.099, 96.13536
1085.581, 96.37547
1086.063, 96.16676
1086.545, 95.65025
1087.027, 94.85786
1087.509, 93.71574
1087.992, 93.33271
1088.474, 93.77256
1088.956, 94.00497
1089.438, 93.26025
1089.920, 92.11646
1090.402, 90.70707
1090.884, 89.43288
1091.366, 89.23203
1091.849, 91.26169
1092.331, 92.24326
1092.813, 91.80096
1093.295, 90.88060
1093.777, 90.32109
1094.259, 90.00501
1094.741, 89.69121
1095.223, 89.37360
1095.705, 89.11598
1096.188, 89.08992
1096.670, 88.94235
1097.152, 88.56446
1097.634, 88.04941
1098.116, 87.42558
1098.598, 86.77548
1099.080, 86.71183
1099.562, 87.40511
1100.044, 87.83939
1100.527, 86.97803
1101.009, 85.96133
1101.491, 85.59289
1101.973, 85.75982
1102.455, 85.81802
1102.937, 85.77030
1103.419, 85.50031
1103.901, 84.88419
1104.384, 84.24755
1104.866, 83.88210
1105.348, 83.72280
1105.830, 83.75047
1106.312, 84.07950
1106.794, 84.03372
1107.276, 83.51556
1107.758, 82.96323
1108.240, 82.67226
1108.723, 82.46272
1109.205, 81.87424
1109.687, 81.11816
1110.169, 80.67529
1110.651, 81.29342
1111.133, 81.29780
1111.615, 80.29134
1112.097, 79.12700
1112.579, 78.67182
1113.062, 78.70290
1113.544, 78.40874
1114.026, 77.79549
1114.508, 77.08807
1114.990, 75.97338
1115.472, 75.32352
1115.954, 75.80565
1116.436, 76.66319
1116.919, 76.75596
1117.401, 76.12593
1117.883, 75.39975
1118.365, 74.64149
1118.847, 73.94174
1119.329, 73.47629
1119.811, 72.99482
1120.293, 72.22427
1120.776, 71.27684
1121.258, 70.66899
1121.740, 70.45019
1122.222, 70.09451
1122.704, 69.45719
1123.186, 68.73983
1123.668, 68.09557
1124.150, 67.50698
1124.632, 66.88217
1125.115, 66.18360
1125.597, 66.02451
1126.079, 66.65756
1126.561, 66.98486
1127.043, 66.46999
1127.525, 65.59109
1128.007, 65.15910
1128.489, 64.92071
1128.971, 64.40173
1129.454, 63.27771
1129.936, 62.48687
1130.418, 62.19512
1130.900, 62.06903
1131.382, 61.94116
1131.864, 61.81206
1132.346, 61.64292
1132.828, 61.46819
1133.311, 61.40108
1133.793, 61.76874
1134.275, 61.83250
1134.757, 61.21824
1135.239, 60.49551
1135.721, 60.23757
1136.203, 60.35536
1136.685, 60.00864
1137.167, 59.24328
1137.650, 58.60041
1138.132, 58.34165
1138.614, 58.33574
1139.096, 58.73832
1139.578, 59.24447
1140.060, 59.45185
1140.542, 59.36019
1141.024, 59.02677
1141.506, 58.45073
1141.989, 57.99035
1142.471, 58.08020
1142.953, 58.22443
1143.435, 57.94110
1143.917, 57.42734
1144.399, 57.48216
1144.881, 58.25993
1145.363, 58.35096
1145.846, 57.43119
1146.328, 56.32657
1146.810, 55.80472
1147.292, 55.56325
1147.774, 55.22301
1148.256, 54.79850
1148.738, 55.00038
1149.220, 56.06160
1149.703, 56.85325
1150.185, 57.04279
1150.667, 56.90891
1151.149, 56.75628
1151.631, 56.54205
1152.113, 56.10432
1152.595, 55.33068
1153.077, 55.15831
1153.559, 55.93292
1154.042, 56.50845
1154.524, 56.40562
1155.006, 55.87146
1155.488, 55.10417
1155.970, 54.30902
1156.452, 53.94225
1156.934, 54.26347
1157.416, 54.56624
1157.898, 54.83733
1158.381, 54.92589
1158.863, 54.63237
1159.345, 54.16499
1159.827, 54.20925
1160.309, 54.58337
1160.791, 54.78652
1161.273, 54.55229
1161.755, 54.27563
1162.238, 53.91296
1162.720, 53.70113
1163.202, 53.95474
1163.684, 54.52749
1164.166, 54.57744
1164.648, 54.21171
1165.130, 53.90142
1165.612, 54.07018
1166.094, 54.06944
1166.577, 53.54675
1167.059, 52.91399
1167.541, 52.50015
1168.023, 52.31638
1168.505, 52.59773
1168.987, 53.30059
1169.469, 54.00544
1169.951, 54.46846
1170.433, 54.87992
1170.916, 55.67634
1171.398, 56.24226
1171.880, 55.47573
1172.362, 53.47373
1172.844, 52.23071
1173.326, 51.90047
1173.808, 52.13693
1174.290, 53.50731
1174.773, 54.55555
1175.255, 53.91641
1175.737, 52.54827
1176.219, 52.44532
1176.701, 53.61686
1177.183, 53.93943
1177.665, 53.10027
1178.147, 52.20543
1178.630, 52.03948
1179.112, 52.21436
1179.594, 52.65263
1180.076, 53.19189
1180.558, 53.26654
1181.040, 52.83636
1181.522, 52.78710
1182.004, 53.32812
1182.486, 53.98269
1182.969, 54.59095
1183.451, 54.91432
1183.933, 54.57523
1184.415, 53.70237
1184.897, 53.17704
1185.379, 53.01858
1185.861, 52.95782
1186.343, 52.93900
1186.825, 52.94508
1187.308, 52.92829
1187.790, 52.95177
1188.272, 53.15788
1188.754, 53.53170
1189.236, 53.56224
1189.718, 53.22227
1190.200, 52.76026
1190.682, 52.16252
1191.165, 51.74405
1191.647, 52.00402
1192.129, 52.51855
1192.611, 52.81420
1193.093, 52.82548
1193.575, 53.04979
1194.057, 53.56793
1194.539, 53.65385
1195.021, 52.82781
1195.504, 51.85286
1195.986, 51.42949
1196.468, 51.45794
1196.950, 51.92200
1197.432, 52.91145
1197.914, 53.60160
1198.396, 53.97953
1198.878, 54.13349
1199.360, 54.05817
1199.843, 53.84945
1200.325, 53.57493
1200.807, 53.26164
1201.289, 52.90858
1201.771, 52.43436
1202.253, 52.35831
1202.735, 52.73035
1203.217, 53.20456
1203.700, 53.82644
1204.182, 54.15693
1204.664, 53.20667
1205.146, 51.80614
1205.628, 51.38376
1206.110, 52.50788
1206.592, 53.08334
1207.074, 53.05030
1207.557, 52.86941
1208.039, 52.65069
1208.521, 52.61334
1209.003, 53.24501
1209.485, 54.16128
1209.967, 54.65702
1210.449, 54.73969
1210.931, 54.05373
1211.413, 52.40092
1211.896, 51.22759
1212.378, 51.93078
1212.860, 53.27245
1213.342, 54.21815
1213.824, 54.74096
1214.306, 54.70656
1214.788, 53.92875
1215.270, 53.36808
1215.752, 53.07414
1216.235, 52.76851
1216.717, 51.96723
1217.199, 51.29025
1217.681, 51.49324
1218.163, 52.27137
1218.645, 52.97317
1219.127, 53.69786
1219.609, 53.65440
1220.092, 52.71385
1220.574, 51.93702
1221.056, 52.44997
1221.538, 53.24986
1222.020, 53.40226
1222.502, 53.11893
1222.984, 52.97136
1223.466, 53.01791
1223.948, 52.99269
1224.431, 52.87184
1224.913, 52.78513
1225.395, 52.74722
1225.877, 52.87082
1226.359, 53.47607
1226.841, 54.25695
1227.323, 54.48382
1227.805, 54.07696
1228.287, 53.57963
1228.770, 53.01657
1229.252, 52.65851
1229.734, 52.90684
1230.216, 53.26437
1230.698, 53.43889
1231.180, 53.41785
1231.662, 53.18407
1232.144, 52.71192
1232.627, 52.32598
1233.109, 52.04876
1233.591, 52.01093
1234.073, 52.65954
1234.555, 53.22345
1235.037, 52.99055
1235.519, 52.40320
1236.001, 52.33702
1236.484, 52.79259
1236.966, 53.09748
1237.448, 53.18966
1237.930, 53.10704
1238.412, 52.65165
1238.894, 52.26879
1239.376, 52.28315
1239.858, 52.18036
1240.340, 52.57771
1240.823, 52.54919
1241.305, 52.79663
1241.787, 53.33823
1242.269, 53.68376
1242.751, 53.23466
1243.233, 52.86933
1243.715, 53.08974
1244.197, 53.50365
1244.679, 53.42054
1245.162, 52.96680
1245.644, 52.81641
1246.126, 53.02074
1246.608, 53.36981
1247.090, 54.04015
1247.572, 54.47143
1248.054, 54.54352
1248.536, 54.26512
1249.019, 53.24696
1249.501, 51.92987
1249.983, 52.00202
1250.465, 53.46810
1250.947, 54.56350
1251.429, 54.08955
1251.911, 53.78511
1252.393, 54.09660
1252.875, 54.56662
1253.358, 54.64187
1253.840, 54.38312
1254.322, 53.75311
1254.804, 52.83294
1255.286, 52.32397
1255.768, 52.81668
1256.250, 53.01385
1256.732, 52.61848
1257.214, 52.13964
1257.697, 52.18516
1258.179, 52.57286
1258.661, 53.17122
1259.143, 53.88698
1259.625, 54.16759
1260.107, 53.71898
1260.589, 53.51331
1261.071, 53.73297
1261.554, 54.03219
1262.036, 54.08761
1262.518, 53.98095
1263.000, 53.62263
1263.482, 53.16507
1263.964, 53.29668
1264.446, 54.19099
1264.928, 55.06342
1265.411, 55.86471
1265.893, 56.20427
1266.375, 55.25020
1266.857, 54.11512
1267.339, 53.77393
1267.821, 54.05848
1268.303, 54.31849
1268.785, 54.56501
1269.267, 54.60085
1269.750, 54.39540
1270.232, 54.28326
1270.714, 54.53061
1271.196, 54.93620
1271.678, 55.60617
1272.160, 56.22598
1272.642, 56.23346
1273.124, 55.66418
1273.606, 54.90693
1274.089, 54.02696
1274.571, 53.48412
1275.053, 53.77031
1275.535, 54.20504
1276.017, 54.65636
1276.499, 54.98252
1276.981, 55.01350
1277.463, 54.75930
1277.946, 54.01282
1278.428, 52.90195
1278.910, 52.32478
1279.392, 53.27733
1279.874, 53.97630
1280.356, 54.09287
1280.838, 53.89988
1281.320, 53.52089
1281.802, 53.13334
1282.285, 53.24987
1282.767, 53.73292
1283.249, 53.88866
1283.731, 53.06683
1284.213, 52.94015
1284.695, 53.82080
1285.177, 54.70501
1285.659, 54.63105
1286.141, 54.06151
1286.624, 53.24936
1287.106, 52.46485
1287.588, 52.50373
1288.070, 53.71382
1288.552, 54.34071
1289.034, 54.25718
1289.516, 54.04669
1289.998, 54.09521
1290.481, 54.25662
1290.963, 54.51961
1291.445, 54.76157
1291.927, 54.76555
1292.409, 54.50855
1292.891, 54.50583
1293.373, 54.73619
1293.855, 54.71445
1294.338, 53.61926
1294.820, 52.84209
1295.302, 53.42080
1295.784, 54.30786
1296.266, 54.58936
1296.748, 54.36370
1297.230, 54.28764
1297.712, 54.33298
1298.194, 54.34123
1298.677, 53.91343
1299.159, 53.96651
1299.641, 54.85903
1300.123, 55.74927
1300.605, 55.90304
1301.087, 55.64076
1301.569, 55.76737
1302.051, 56.08270
1302.533, 56.13892
1303.016, 55.78241
##END=



