##NAMES=Lithiomarsturite
##RRUFFID=R100094
##IDEAL CHEMISTRY=LiCa_2_Mn^2+^_2_Si_5_O_14_(OH)
##LOCALITY=Foote mine, Kings Mountain, North Carolina, USA
##OWNER=RRUFF
##SOURCE=
##DESCRIPTION=Tan colored prismatic crystals, associated with brannockite, fluorapatite, albite, bavenite, and pyrite
##STATUS=The identification of this mineral has been confirmed by single-crystal X-ray diffraction.
##URL=rruff.info/R100094
91.53320, 213.2112
92.01532, 218.1021
92.49744, 219.3367
92.97955, 218.2475
93.46167, 214.1874
93.94379, 209.2498
94.42590, 205.1975
94.90802, 201.5188
95.39014, 197.0540
95.87225, 191.6098
96.35437, 186.3218
96.83649, 181.6732
97.31860, 177.5232
97.80072, 173.7446
98.28284, 170.0746
98.76495, 166.4001
99.24707, 163.0889
99.72919, 160.0888
100.2113, 157.5674
100.6934, 155.5737
101.1755, 154.0214
101.6577, 152.7898
102.1398, 151.7488
102.6219, 150.8511
103.1040, 150.3748
103.5861, 150.4303
104.0682, 150.6532
104.5504, 150.8307
105.0325, 150.9299
105.5146, 151.0691
105.9967, 151.4034
106.4788, 152.0014
106.9609, 152.5958
107.4431, 152.8165
107.9252, 153.1098
108.4073, 154.1867
108.8894, 156.4141
109.3715, 159.1969
109.8536, 161.4086
110.3358, 162.9176
110.8179, 164.5786
111.3000, 167.0885
111.7821, 170.3357
112.2642, 173.2675
112.7463, 175.9001
113.2285, 177.6793
113.7106, 178.1022
114.1927, 177.0272
114.6748, 174.7015
115.1569, 171.2700
115.6390, 166.2681
116.1212, 161.2278
116.6033, 156.3217
117.0854, 151.6791
117.5675, 147.4114
118.0496, 143.5397
118.5317, 140.0907
119.0139, 137.2427
119.4960, 135.4119
119.9781, 133.8308
120.4602, 132.3062
120.9423, 130.9216
121.4244, 129.8566
121.9066, 129.2585
122.3887, 129.1506
122.8708, 129.2218
123.3529, 129.6081
123.8350, 130.0076
124.3171, 130.1870
124.7993, 130.1825
125.2814, 130.2874
125.7635, 130.8179
126.2456, 131.8872
126.7277, 132.9395
127.2098, 133.7019
127.6920, 134.5602
128.1741, 136.0217
128.6562, 138.2484
129.1383, 140.7368
129.6204, 143.0712
130.1025, 145.2916
130.5847, 146.9081
131.0668, 147.4379
131.5489, 147.1450
132.0310, 146.9766
132.5131, 147.3207
132.9952, 147.6106
133.4774, 147.3999
133.9595, 146.6812
134.4416, 145.6785
134.9237, 144.5713
135.4058, 143.3614
135.8879, 142.0065
136.3701, 140.1460
136.8522, 138.3691
137.3343, 137.0402
137.8164, 136.2404
138.2985, 135.7980
138.7806, 135.4374
139.2628, 135.2389
139.7449, 134.9758
140.2270, 134.2818
140.7091, 133.6747
141.1912, 133.7207
141.6733, 134.6716
142.1555, 136.2223
142.6376, 137.3133
143.1197, 138.1776
143.6018, 138.2583
144.0839, 137.1417
144.5660, 135.2282
145.0482, 133.1362
145.5303, 131.2303
146.0124, 129.4482
146.4945, 127.2708
146.9766, 124.1516
147.4587, 121.2664
147.9409, 119.3572
148.4230, 118.2280
148.9051, 116.9319
149.3872, 114.6948
149.8693, 111.6974
150.3514, 109.1599
150.8336, 107.4120
151.3157, 105.9420
151.7978, 104.1907
152.2799, 102.0665
152.7620, 100.1756
153.2441, 99.15511
153.7263, 98.67954
154.2084, 98.25683
154.6905, 97.69609
155.1726, 97.09011
155.6547, 96.69872
156.1368, 96.73351
156.6190, 96.58718
157.1011, 95.75468
157.5832, 94.52840
158.0653, 93.46611
158.5474, 92.94299
159.0295, 92.92780
159.5117, 93.01404
159.9938, 93.30749
160.4759, 93.60685
160.9580, 93.90382
161.4401, 94.15649
161.9222, 94.27408
162.4044, 94.12610
162.8865, 93.62642
163.3686, 93.36950
163.8507, 93.41798
164.3328, 93.62868
164.8149, 94.11268
165.2971, 94.77760
165.7792, 95.29830
166.2613, 95.25136
166.7434, 94.29050
167.2255, 93.77338
167.7076, 93.80750
168.1898, 94.13358
168.6719, 94.73899
169.1540, 95.57151
169.6361, 96.30366
170.1182, 96.42262
170.6003, 95.54030
171.0825, 95.02075
171.5646, 95.13119
172.0467, 95.55419
172.5288, 95.93599
173.0109, 96.17355
173.4930, 96.37603
173.9752, 96.83996
174.4573, 97.68491
174.9394, 98.10498
175.4215, 97.53161
175.9036, 96.36625
176.3857, 95.51563
176.8679, 95.27589
177.3500, 95.38472
177.8321, 95.64029
178.3142, 96.12039
178.7963, 96.13253
179.2784, 94.89754
179.7606, 92.59618
180.2427, 90.81174
180.7248, 90.30219
181.2069, 90.19666
181.6890, 89.75167
182.1711, 88.90518
182.6533, 87.88418
183.1354, 86.79475
183.6175, 85.58994
184.0996, 84.69160
184.5817, 84.73372
185.0638, 84.78832
185.5460, 84.25491
186.0281, 83.01358
186.5102, 81.46394
186.9923, 80.12858
187.4744, 79.03008
187.9565, 78.10856
188.4387, 77.35474
188.9208, 76.74240
189.4029, 76.33465
189.8850, 76.13087
190.3671, 75.97061
190.8492, 75.50906
191.3314, 74.38523
191.8135, 73.56031
192.2956, 73.18079
192.7777, 73.04237
193.2598, 73.03918
193.7419, 73.11978
194.2241, 73.18558
194.7062, 72.99804
195.1883, 72.01054
195.6704, 71.40530
196.1525, 71.38094
196.6346, 71.69720
197.1168, 72.15735
197.5989, 72.69018
198.0810, 73.18131
198.5631, 73.26995
199.0452, 72.50932
199.5273, 71.96265
200.0095, 72.04185
200.4916, 72.41073
200.9737, 72.41462
201.4558, 71.65766
201.9379, 70.57255
202.4200, 70.50541
202.9022, 72.09873
203.3843, 73.37299
203.8664, 73.38297
204.3485, 72.50166
204.8306, 71.73916
205.3127, 71.51200
205.7949, 71.68951
206.2770, 71.92925
206.7591, 72.21785
207.2412, 72.58538
207.7233, 73.15359
208.2054, 73.87127
208.6876, 74.38212
209.1697, 74.40029
209.6518, 74.23827
210.1339, 74.36077
210.6160, 74.83294
211.0981, 75.44838
211.5803, 76.08704
212.0624, 76.74804
212.5445, 77.36047
213.0266, 77.89449
213.5087, 78.35855
213.9908, 78.77168
214.4730, 79.14021
214.9551, 79.42355
215.4372, 79.48852
215.9193, 79.26693
216.4014, 79.25619
216.8836, 79.82786
217.3657, 80.54170
217.8478, 81.09694
218.3299, 81.41630
218.8120, 81.68468
219.2941, 82.12209
219.7763, 82.71661
220.2584, 83.53220
220.7405, 84.78542
221.2226, 86.12598
221.7047, 87.39451
222.1868, 88.53366
222.6690, 89.44388
223.1511, 89.88584
223.6332, 89.52450
224.1153, 89.46793
224.5974, 90.04177
225.0795, 90.76779
225.5617, 91.21336
226.0438, 91.28643
226.5259, 91.33344
227.0080, 92.05557
227.4901, 94.27163
227.9722, 95.62249
228.4544, 95.58706
228.9365, 95.06591
229.4186, 94.71313
229.9007, 94.72420
230.3828, 94.89693
230.8649, 94.85036
231.3471, 94.08466
231.8292, 93.95288
232.3113, 95.13432
232.7934, 96.49841
233.2755, 96.99464
233.7576, 96.37092
234.2398, 95.30146
234.7219, 94.91600
235.2040, 95.78822
235.6861, 96.36454
236.1682, 96.46608
236.6503, 96.37679
237.1325, 96.33411
237.6146, 96.40334
238.0967, 96.52010
238.5788, 96.57439
239.0609, 96.45585
239.5430, 96.55979
240.0252, 97.08566
240.5073, 97.74862
240.9894, 98.28578
241.4715, 98.63651
241.9536, 98.84474
242.4357, 98.92998
242.9179, 98.83568
243.4000, 98.88097
243.8821, 99.08312
244.3642, 99.44576
244.8463, 100.0032
245.3284, 100.7701
245.8106, 101.6387
246.2927, 102.4775
246.7748, 103.2807
247.2569, 104.1954
247.7390, 105.3709
248.2211, 106.6184
248.7033, 107.6687
249.1854, 108.4585
249.6675, 109.2487
250.1496, 110.3643
250.6317, 111.7582
251.1138, 113.0600
251.5960, 114.0840
252.0781, 115.0246
252.5602, 116.1785
253.0423, 117.5977
253.5244, 119.0395
254.0065, 120.1574
254.4887, 121.0967
254.9708, 122.3029
255.4529, 123.9367
255.9350, 125.8778
256.4171, 128.0644
256.8992, 130.5831
257.3813, 132.9365
257.8635, 134.6058
258.3456, 135.8775
258.8277, 137.2109
259.3098, 138.6928
259.7919, 140.3158
260.2740, 142.1843
260.7562, 144.4151
261.2383, 146.3789
261.7204, 147.4820
262.2025, 148.1578
262.6846, 148.9090
263.1667, 149.8881
263.6489, 150.9902
264.1310, 152.1600
264.6131, 153.4749
265.0952, 154.5171
265.5773, 154.9112
266.0594, 155.0033
266.5416, 155.1300
267.0237, 155.4416
267.5058, 155.6543
267.9879, 155.3550
268.4700, 154.4695
268.9521, 153.4193
269.4343, 152.2831
269.9164, 151.0654
270.3985, 149.7463
270.8806, 148.3147
271.3627, 146.8413
271.8448, 145.4998
272.3270, 144.3767
272.8091, 142.8971
273.2912, 140.4827
273.7733, 137.9329
274.2554, 135.7626
274.7375, 134.0398
275.2197, 132.4371
275.7018, 130.5720
276.1839, 128.4167
276.6660, 126.2229
277.1481, 123.9591
277.6302, 121.7177
278.1124, 119.4775
278.5945, 117.2729
279.0766, 115.3095
279.5587, 113.8426
280.0408, 112.9174
280.5229, 112.0487
281.0051, 111.4250
281.4872, 110.6783
281.9693, 109.5152
282.4514, 108.0512
282.9335, 106.6637
283.4156, 105.6168
283.8978, 104.9082
284.3799, 104.6650
284.8620, 105.4058
285.3441, 106.1187
285.8262, 106.4929
286.3083, 106.5670
286.7905, 106.4504
287.2726, 106.1372
287.7547, 105.6838
288.2368, 105.6614
288.7189, 106.3564
289.2010, 107.1871
289.6832, 107.9743
290.1653, 108.7859
290.6474, 109.7433
291.1295, 110.9143
291.6116, 112.2729
292.0938, 113.7294
292.5759, 115.4630
293.0580, 117.0193
293.5401, 118.2166
294.0222, 119.2459
294.5043, 120.2822
294.9865, 121.4005
295.4686, 122.6214
295.9507, 124.0246
296.4328, 125.8072
296.9149, 127.4120
297.3970, 128.5533
297.8792, 129.6330
298.3613, 131.0140
298.8434, 132.8032
299.3255, 134.8018
299.8076, 136.7315
300.2897, 138.7320
300.7719, 140.3126
301.2540, 141.3823
301.7361, 142.1552
302.2182, 142.5659
302.7003, 142.7099
303.1824, 143.0159
303.6646, 144.1600
304.1467, 146.5937
304.6288, 148.1908
305.1109, 148.2941
305.5930, 148.1993
306.0751, 148.5407
306.5573, 149.2643
307.0394, 149.9214
307.5215, 150.0971
308.0036, 149.7624
308.4857, 149.3684
308.9678, 148.6677
309.4500, 148.1516
309.9321, 147.9640
310.4142, 148.0739
310.8963, 148.3961
311.3784, 148.8829
311.8605, 149.5285
312.3427, 150.2871
312.8248, 151.6061
313.3069, 152.4973
313.7890, 152.5324
314.2711, 152.1226
314.7532, 151.7450
315.2354, 151.6259
315.7175, 151.7735
316.1996, 152.2435
316.6817, 153.3506
317.1638, 154.2944
317.6459, 154.6389
318.1281, 154.9836
318.6102, 155.9962
319.0923, 157.8491
319.5744, 159.9888
320.0565, 161.3881
320.5386, 161.3730
321.0208, 162.1990
321.5029, 164.5501
321.9850, 167.1759
322.4671, 169.2899
322.9492, 170.8246
323.4313, 172.2353
323.9135, 174.1128
324.3956, 176.6386
324.8777, 178.6833
325.3598, 180.3045
325.8419, 181.3946
326.3240, 181.8018
326.8062, 181.6173
327.2883, 181.1159
327.7704, 180.5701
328.2525, 179.9378
328.7346, 178.4492
329.2167, 175.5691
329.6989, 172.3360
330.1810, 169.1657
330.6631, 165.7793
331.1452, 161.5892
331.6273, 156.1583
332.1094, 150.1145
332.5916, 145.5212
333.0737, 143.4964
333.5558, 141.0513
334.0379, 137.3565
334.5200, 133.2249
335.0021, 129.3467
335.4843, 125.9457
335.9664, 123.0131
336.4485, 120.6140
336.9306, 118.8901
337.4127, 117.2690
337.8948, 115.9298
338.3770, 114.4908
338.8591, 112.4885
339.3412, 110.0074
339.8233, 107.7616
340.3055, 106.4894
340.7876, 106.2655
341.2697, 106.3186
341.7518, 107.0954
342.2339, 107.7127
342.7160, 107.7017
343.1982, 107.2496
343.6803, 106.8389
344.1624, 106.8059
344.6445, 107.0755
345.1266, 107.2506
345.6087, 107.1764
346.0909, 107.2728
346.5730, 107.6271
347.0551, 108.2148
347.5372, 109.0246
348.0193, 110.0798
348.5014, 111.2853
348.9836, 112.5356
349.4657, 113.9016
349.9478, 115.0528
350.4299, 115.3858
350.9120, 115.7912
351.3941, 117.0474
351.8763, 119.2802
352.3584, 121.7835
352.8405, 123.8035
353.3226, 125.3319
353.8047, 126.9671
354.2868, 128.8186
354.7690, 130.7708
355.2511, 132.7057
355.7332, 134.6583
356.2153, 136.7480
356.6974, 139.1409
357.1795, 141.7495
357.6617, 144.2789
358.1438, 146.8072
358.6259, 149.0421
359.1080, 150.5893
359.5901, 151.7844
360.0722, 153.2074
360.5544, 155.2513
361.0365, 157.3904
361.5186, 158.9955
362.0007, 160.0652
362.4828, 160.5197
362.9649, 160.1401
363.4471, 159.1817
363.9292, 157.9122
364.4113, 156.3298
364.8934, 154.5416
365.3755, 152.6433
365.8576, 150.6160
366.3398, 148.3719
366.8219, 145.9132
367.3040, 143.1584
367.7861, 139.8338
368.2682, 136.0109
368.7503, 132.5125
369.2325, 129.9219
369.7146, 127.7720
370.1967, 125.1777
370.6788, 121.9693
371.1609, 118.8642
371.6430, 116.5910
372.1252, 114.8865
372.6073, 112.9127
373.0894, 110.0632
373.5715, 107.3135
374.0536, 105.5205
374.5357, 104.5790
375.0179, 103.8569
375.5000, 103.1446
375.9821, 102.3953
376.4642, 101.4453
376.9463, 100.0885
377.4284, 99.02573
377.9106, 98.75483
378.3927, 98.89890
378.8748, 98.78905
379.3569, 98.23272
379.8390, 97.51617
380.3211, 96.97891
380.8033, 96.64005
381.2854, 96.41016
381.7675, 96.16489
382.2496, 96.11267
382.7317, 96.56780
383.2138, 97.46679
383.6960, 98.31377
384.1781, 98.74643
384.6602, 98.78175
385.1423, 98.72907
385.6244, 98.47199
386.1065, 98.27182
386.5887, 98.31120
387.0708, 98.44785
387.5529, 98.39458
388.0350, 98.01496
388.5171, 97.50728
388.9992, 97.32486
389.4814, 98.10725
389.9635, 98.19967
390.4456, 97.23740
390.9277, 95.84121
391.4098, 94.40308
391.8919, 93.03838
392.3741, 91.75239
392.8562, 90.54524
393.3383, 89.39713
393.8204, 88.45928
394.3025, 88.13561
394.7846, 87.59052
395.2668, 86.43395
395.7489, 84.85427
396.2310, 83.17933
396.7131, 81.57308
397.1952, 80.09478
397.6773, 78.98051
398.1595, 78.61576
398.6416, 77.96782
399.1237, 76.63382
399.6058, 75.15991
400.0879, 74.01919
400.5700, 73.31557
401.0522, 72.80989
401.5343, 72.20839
402.0164, 71.48740
402.4985, 70.82785
402.9806, 70.28947
403.4627, 69.76558
403.9449, 69.26954
404.4270, 68.75510
404.9091, 68.09233
405.3912, 67.07011
405.8733, 65.90500
406.3554, 65.38831
406.8376, 65.86037
407.3197, 66.11894
407.8018, 65.46135
408.2839, 64.45533
408.7660, 63.66911
409.2481, 63.25013
409.7303, 62.94624
410.2124, 62.50228
410.6945, 61.92901
411.1766, 61.36040
411.6587, 60.73474
412.1408, 60.24669
412.6230, 60.15261
413.1051, 60.39437
413.5872, 60.53950
414.0693, 60.39142
414.5514, 60.04110
415.0335, 59.58175
415.5157, 59.00342
415.9978, 58.49298
416.4799, 58.26554
416.9620, 58.17963
417.4441, 57.80140
417.9262, 56.88575
418.4084, 55.97981
418.8905, 55.44491
419.3726, 55.16307
419.8547, 54.86020
420.3368, 54.46344
420.8189, 53.93512
421.3011, 53.12333
421.7832, 51.85829
422.2653, 51.04708
422.7474, 51.29427
423.2295, 51.69314
423.7116, 51.34808
424.1938, 50.27607
424.6759, 49.20741
425.1580, 48.72840
425.6401, 48.79845
426.1222, 48.64278
426.6043, 48.01886
427.0865, 47.48741
427.5686, 47.21242
428.0507, 47.10367
428.5328, 47.04811
429.0149, 46.99970
429.4970, 46.94098
429.9792, 46.82585
430.4613, 46.54589
430.9434, 46.45559
431.4255, 46.92551
431.9076, 47.23216
432.3897, 46.75383
432.8719, 45.69234
433.3540, 44.81063
433.8361, 44.77453
434.3182, 45.42774
434.8003, 45.58514
435.2824, 44.69556
435.7646, 44.16352
436.2467, 44.62564
436.7288, 45.43829
437.2109, 45.90929
437.6930, 45.82046
438.1751, 45.49548
438.6573, 45.34942
439.1394, 45.40340
439.6215, 45.32106
440.1036, 44.88274
440.5857, 44.49568
441.0678, 44.49694
441.5500, 44.78859
442.0321, 44.99059
442.5142, 44.84553
442.9963, 44.51609
443.4784, 44.29253
443.9605, 44.18424
444.4427, 44.11052
444.9248, 44.04866
445.4069, 43.98997
445.8890, 43.92016
446.3711, 43.83604
446.8532, 43.74781
447.3354, 43.69783
447.8175, 43.64397
448.2996, 43.45594
448.7817, 43.08287
449.2638, 42.71783
449.7459, 42.58800
450.2281, 42.71143
450.7102, 42.79402
451.1923, 42.90038
451.6744, 42.89634
452.1565, 42.55871
452.6386, 42.02122
453.1208, 41.69395
453.6029, 41.80445
454.0850, 42.20937
454.5671, 42.51374
455.0492, 42.75829
455.5313, 42.82859
456.0135, 42.50547
456.4956, 42.15447
456.9777, 42.15127
457.4598, 42.48660
457.9419, 42.77954
458.4240, 42.61419
458.9062, 41.97888
459.3883, 41.77464
459.8704, 42.45921
460.3525, 43.08185
460.8346, 43.48518
461.3167, 43.69315
461.7989, 43.71162
462.2810, 43.53976
462.7631, 43.30338
463.2452, 43.18198
463.7273, 43.17837
464.2094, 43.27168
464.6916, 43.45837
465.1737, 43.75365
465.6558, 44.27674
466.1379, 44.93690
466.6200, 45.43113
467.1021, 45.52100
467.5843, 45.37002
468.0664, 45.26690
468.5485, 45.20159
469.0306, 45.26000
469.5127, 45.53113
469.9948, 45.92720
470.4770, 46.27442
470.9591, 46.52273
471.4412, 46.89242
471.9233, 47.68827
472.4054, 48.63412
472.8875, 49.15062
473.3697, 49.11526
473.8518, 48.98487
474.3339, 49.20451
474.8160, 49.76551
475.2981, 50.05553
475.7802, 49.59443
476.2624, 49.37124
476.7445, 50.04380
477.2266, 51.23615
477.7087, 52.22982
478.1908, 52.74609
478.6729, 52.96903
479.1551, 53.22444
479.6372, 53.54624
480.1193, 53.82000
480.6014, 53.78208
481.0835, 53.93684
481.5656, 54.66823
482.0478, 55.84431
482.5299, 57.09200
483.0120, 58.18850
483.4941, 59.12502
483.9762, 59.82503
484.4583, 60.23908
484.9405, 60.50628
485.4226, 60.41402
485.9047, 60.36090
486.3868, 60.73562
486.8689, 61.55436
487.3510, 62.40206
487.8332, 62.84680
488.3153, 62.99794
488.7974, 63.43549
489.2795, 64.26801
489.7616, 65.16939
490.2437, 66.12918
490.7259, 66.98536
491.2080, 67.41121
491.6901, 67.12732
492.1722, 66.83459
492.6543, 67.10896
493.1364, 67.77998
493.6186, 68.35515
494.1007, 68.70802
494.5828, 68.96290
495.0649, 69.26116
495.5470, 69.61006
496.0291, 69.90587
496.5113, 69.97530
496.9934, 70.15073
497.4755, 70.93852
497.9576, 71.98570
498.4397, 72.32067
498.9218, 71.43685
499.4040, 69.97275
499.8861, 69.39561
500.3682, 70.47826
500.8503, 71.04468
501.3324, 70.78835
501.8145, 70.34352
502.2967, 70.05222
502.7788, 69.92503
503.2609, 69.83076
503.7430, 69.68164
504.2251, 69.48981
504.7072, 69.29125
505.1894, 69.04221
505.6715, 68.88724
506.1536, 69.00794
506.6357, 69.13980
507.1178, 69.06810
507.5999, 68.76950
508.0821, 68.38150
508.5642, 67.96150
509.0463, 67.53223
509.5284, 67.17196
510.0105, 66.90456
510.4926, 66.62808
510.9748, 66.32139
511.4569, 65.94746
511.9390, 65.40909
512.4211, 64.56454
512.9032, 63.81243
513.3853, 63.35004
513.8674, 63.11116
514.3495, 63.01920
514.8317, 63.05504
515.3138, 63.15891
515.7959, 63.32274
516.2780, 63.57396
516.7601, 63.38863
517.2422, 62.21774
517.7244, 61.29681
518.2065, 61.19706
518.6886, 61.55436
519.1707, 61.83466
519.6528, 61.84651
520.1349, 61.75827
520.6171, 61.84364
521.0992, 62.17601
521.5813, 62.38288
522.0634, 62.25448
522.5455, 62.20936
523.0276, 62.49184
523.5098, 62.95394
523.9919, 63.24300
524.4740, 63.10235
524.9561, 63.01773
525.4382, 63.97496
525.9203, 65.99803
526.4025, 67.28590
526.8846, 67.05098
527.3667, 66.43106
527.8488, 66.63506
528.3309, 67.51410
528.8130, 68.10130
529.2952, 67.72228
529.7773, 67.23101
530.2594, 67.42555
530.7415, 68.22392
531.2236, 69.24478
531.7057, 70.39341
532.1879, 71.46049
532.6700, 72.01801
533.1521, 71.79320
533.6342, 71.65684
534.1163, 71.55846
534.5984, 71.60789
535.0806, 72.05594
535.5627, 72.72782
536.0448, 73.14857
536.5269, 73.01039
537.0090, 72.47566
537.4911, 72.02036
537.9733, 71.62635
538.4554, 71.34840
538.9375, 71.30754
539.4196, 71.28401
539.9017, 71.31618
540.3839, 71.28515
540.8660, 70.77415
541.3481, 69.14126
541.8302, 67.05601
542.3123, 66.21612
542.7944, 66.79471
543.2766, 67.11350
543.7587, 66.51688
544.2408, 65.30436
544.7229, 63.86613
545.2050, 62.15520
545.6871, 60.63594
546.1693, 59.66964
546.6514, 58.85600
547.1335, 57.68291
547.6156, 56.18282
548.0977, 54.75777
548.5798, 53.64126
549.0620, 52.79486
549.5441, 52.09703
550.0262, 51.79935
550.5083, 51.31289
550.9904, 50.47646
551.4725, 49.56910
551.9547, 48.77983
552.4368, 48.12273
552.9189, 47.52236
553.4010, 46.92689
553.8831, 46.34659
554.3652, 45.79848
554.8474, 45.18523
555.3295, 44.85828
555.8116, 45.27838
556.2937, 45.76405
556.7758, 45.80857
557.2579, 45.39479
557.7401, 44.86944
558.2222, 44.34898
558.7043, 43.88176
559.1864, 43.61839
559.6685, 43.56500
560.1506, 43.34475
560.6328, 42.68506
561.1149, 41.83529
561.5970, 41.39134
562.0791, 41.53100
562.5612, 41.43374
563.0433, 40.62097
563.5255, 39.75856
564.0076, 39.53418
564.4897, 39.83197
564.9718, 39.97271
565.4539, 39.50538
565.9360, 38.62042
566.4182, 37.96983
566.9003, 37.70020
567.3824, 37.38512
567.8645, 36.98567
568.3466, 36.54498
568.8287, 36.09532
569.3109, 35.62953
569.7930, 35.11918
570.2751, 34.51233
570.7572, 33.88012
571.2393, 33.33577
571.7214, 32.86833
572.2036, 32.66538
572.6857, 33.00285
573.1678, 33.39759
573.6499, 33.20738
574.1320, 32.45202
574.6141, 31.80850
575.0963, 31.53293
575.5784, 31.38791
576.0605, 31.18002
576.5426, 30.92412
577.0247, 30.72934
577.5068, 30.65893
577.9890, 30.58779
578.4711, 30.25790
578.9532, 29.46757
579.4353, 28.93783
579.9174, 28.85410
580.3995, 28.81061
580.8817, 28.59229
581.3638, 28.27293
581.8459, 28.00710
582.3280, 27.86317
582.8101, 27.83887
583.2922, 28.00249
583.7744, 28.38079
584.2565, 28.53446
584.7386, 28.32180
585.2207, 27.99002
585.7029, 27.66620
586.1850, 27.36375
586.6671, 27.12601
587.1492, 27.00834
587.6313, 26.89549
588.1135, 26.58489
588.5956, 26.22623
589.0777, 26.28716
589.5598, 26.89945
590.0419, 27.47021
590.5240, 27.29443
591.0062, 26.31821
591.4883, 25.87426
591.9704, 26.32435
592.4525, 26.79883
592.9346, 27.11417
593.4167, 27.32575
593.8989, 27.52285
594.3810, 27.71900
594.8631, 27.84600
595.3452, 27.80938
595.8273, 27.62517
596.3094, 27.48255
596.7916, 27.40579
597.2737, 27.31393
597.7558, 27.04812
598.2379, 26.81336
598.7200, 26.88758
599.2021, 27.33529
599.6843, 27.74386
600.1664, 27.95921
600.6485, 27.98349
601.1306, 27.63010
601.6127, 26.97037
602.0948, 26.72029
602.5770, 27.38177
603.0591, 28.57666
603.5412, 29.26108
604.0233, 29.06453
604.5054, 28.93448
604.9875, 28.89030
605.4697, 28.89384
605.9518, 28.91908
606.4339, 28.97154
606.9160, 29.06671
607.3981, 29.21006
607.8802, 29.41372
608.3624, 29.71520
608.8445, 30.12537
609.3266, 30.55236
609.8087, 31.03504
610.2908, 31.46000
610.7729, 31.74252
611.2551, 31.90690
611.7372, 32.01342
612.2193, 31.95812
612.7014, 31.99840
613.1835, 32.43014
613.6656, 33.07740
614.1478, 33.53031
614.6299, 33.68719
615.1120, 33.77954
615.5941, 34.03834
616.0762, 34.46484
616.5583, 34.88421
617.0405, 35.32340
617.5226, 35.72334
618.0047, 36.07386
618.4868, 36.38290
618.9689, 36.60000
619.4510, 36.75314
619.9332, 37.01423
620.4153, 37.58252
620.8974, 38.36309
621.3795, 38.97244
621.8616, 39.35924
622.3438, 39.85964
622.8259, 40.67737
623.3080, 41.60152
623.7901, 42.31925
624.2722, 42.81790
624.7543, 43.39620
625.2365, 44.14670
625.7186, 45.00147
626.2007, 46.00312
626.6828, 47.05975
627.1649, 47.86234
627.6470, 48.27754
628.1292, 48.61858
628.6113, 49.41953
629.0934, 50.81428
629.5755, 52.11509
630.0576, 53.03313
630.5397, 54.16977
631.0219, 55.92694
631.5040, 57.92361
631.9861, 59.58626
632.4682, 60.73872
632.9503, 61.86279
633.4324, 63.46615
633.9146, 65.39803
634.3967, 67.11462
634.8788, 68.53601
635.3609, 70.03255
635.8430, 71.78518
636.3251, 73.78787
636.8073, 76.02303
637.2894, 78.61198
637.7715, 81.12125
638.2536, 83.21583
638.7357, 85.43674
639.2178, 88.20515
639.7000, 91.47347
640.1821, 94.97810
640.6642, 98.58743
641.1463, 102.3917
641.6284, 106.6474
642.1105, 111.3966
642.5927, 116.2761
643.0748, 121.1421
643.5569, 126.2619
644.0390, 131.6987
644.5211, 137.5089
645.0032, 143.8398
645.4854, 150.8995
645.9675, 158.0967
646.4496, 164.6528
646.9317, 171.2331
647.4138, 179.2711
647.8959, 188.9127
648.3781, 198.8364
648.8602, 207.9925
649.3423, 216.6415
649.8244, 225.6406
650.3065, 235.3102
650.7886, 244.9162
651.2708, 254.4754
651.7529, 263.9753
652.2350, 272.9485
652.7171, 281.8160
653.1992, 291.7380
653.6813, 303.5937
654.1635, 316.2611
654.6456, 328.0349
655.1277, 338.9930
655.6098, 350.1111
656.0919, 361.5411
656.5740, 373.2121
657.0562, 385.0499
657.5383, 397.0486
658.0204, 409.0732
658.5025, 421.2651
658.9846, 433.2419
659.4667, 445.3637
659.9489, 456.8178
660.4310, 466.9780
660.9131, 475.5967
661.3952, 482.4726
661.8773, 487.5655
662.3594, 490.7451
662.8416, 491.8951
663.3237, 491.4275
663.8058, 487.3947
664.2879, 478.6669
664.7700, 466.8373
665.2521, 452.4975
665.7343, 436.1429
666.2164, 419.4365
666.6985, 403.0471
667.1806, 386.0435
667.6627, 367.3244
668.1448, 347.6188
668.6270, 327.8989
669.1091, 308.5838
669.5912, 290.4508
670.0733, 274.3722
670.5554, 260.1843
671.0375, 246.1898
671.5197, 231.6798
672.0018, 218.7068
672.4839, 207.9660
672.9660, 198.3546
673.4481, 189.2334
673.9302, 180.6425
674.4124, 172.8254
674.8945, 166.0473
675.3766, 160.0170
675.8587, 154.5717
676.3408, 149.6020
676.8229, 144.5928
677.3051, 139.3943
677.7872, 134.2505
678.2693, 129.3475
678.7514, 124.6839
679.2335, 120.2634
679.7156, 116.0611
680.1978, 112.0727
680.6799, 108.1349
681.1620, 104.5088
681.6441, 101.6607
682.1262, 99.37392
682.6083, 96.90784
683.0905, 93.70698
683.5726, 90.23026
684.0547, 87.27343
684.5368, 84.84624
685.0189, 82.76403
685.5010, 81.04911
685.9832, 79.56232
686.4653, 78.16642
686.9474, 76.90946
687.4295, 76.01569
687.9116, 75.93741
688.3937, 75.60886
688.8759, 74.39028
689.3580, 72.99465
689.8401, 72.18128
690.3222, 71.94145
690.8043, 71.79758
691.2864, 71.43369
691.7686, 70.97347
692.2507, 70.73750
692.7328, 70.76911
693.2149, 70.76546
693.6970, 70.76619
694.1791, 70.60951
694.6613, 69.96223
695.1434, 69.10010
695.6255, 68.68782
696.1076, 69.10275
696.5897, 69.40836
697.0718, 69.14096
697.5540, 68.55191
698.0361, 67.79762
698.5182, 66.99047
699.0003, 66.53779
699.4824, 66.75678
699.9645, 67.11710
700.4467, 66.11722
700.9288, 63.13982
701.4109, 61.15313
701.8930, 61.10415
702.3751, 61.11946
702.8572, 60.27157
703.3394, 58.88231
703.8215, 57.50556
704.3036, 56.29547
704.7857, 54.95750
705.2678, 53.10021
705.7499, 51.14840
706.2321, 49.74516
706.7142, 48.85986
707.1963, 48.07769
707.6784, 47.18704
708.1605, 46.18608
708.6426, 45.03505
709.1248, 43.63703
709.6069, 42.44187
710.0890, 41.69744
710.5711, 40.85727
711.0532, 39.46946
711.5353, 38.00225
712.0175, 37.11936
712.4996, 36.96322
712.9817, 36.95102
713.4638, 36.84017
713.9459, 36.58825
714.4280, 36.07907
714.9102, 35.35629
715.3923, 34.61255
715.8744, 33.92411
716.3565, 33.31544
716.8386, 32.79087
717.3207, 32.31011
717.8029, 32.22587
718.2850, 33.11057
718.7671, 33.67986
719.2492, 33.41314
719.7313, 32.84833
720.2134, 32.55166
720.6956, 32.56710
721.1777, 32.48790
721.6598, 31.88248
722.1419, 31.18256
722.6240, 31.01792
723.1061, 31.26517
723.5883, 31.45037
724.0704, 31.43716
724.5525, 31.26923
725.0346, 30.94962
725.5167, 30.48922
725.9988, 30.29092
726.4810, 30.81896
726.9631, 30.93061
727.4452, 30.00861
727.9273, 29.02880
728.4094, 28.78128
728.8915, 29.16846
729.3737, 29.60033
729.8558, 29.87809
730.3379, 29.96357
730.8200, 29.72464
731.3021, 29.26827
731.7842, 28.87206
732.2664, 28.58669
732.7485, 28.40277
733.2306, 28.34357
733.7127, 28.34855
734.1948, 28.16123
734.6769, 27.53210
735.1591, 27.16987
735.6412, 27.43379
736.1233, 27.60566
736.6054, 27.14968
737.0875, 26.38151
737.5696, 25.94051
738.0518, 26.06554
738.5339, 26.29894
739.0160, 26.24280
739.4981, 26.05910
739.9802, 26.11198
740.4623, 26.38303
740.9445, 26.46342
741.4266, 26.11521
741.9087, 25.63100
742.3908, 25.59318
742.8729, 26.22675
743.3550, 26.32421
743.8372, 25.17255
744.3193, 24.33819
744.8014, 24.49542
745.2835, 25.03061
745.7656, 25.26090
746.2477, 25.09990
746.7299, 24.93513
747.2120, 24.98232
747.6941, 25.13420
748.1762, 25.31990
748.6583, 25.50693
749.1404, 25.62480
749.6226, 25.65169
750.1047, 25.50003
750.5868, 25.02238
751.0689, 24.27982
751.5510, 23.95260
752.0331, 24.32521
752.5153, 24.56826
752.9974, 24.39294
753.4795, 24.18577
753.9616, 24.21144
754.4437, 24.41075
754.9258, 24.57363
755.4080, 24.66978
755.8901, 24.65025
756.3722, 24.34756
756.8543, 23.97223
757.3364, 23.88933
757.8185, 24.08823
758.3007, 24.27026
758.7828, 24.25517
759.2649, 24.11534
759.7470, 23.98818
760.2291, 23.85509
760.7112, 23.83064
761.1934, 23.99967
761.6755, 24.14960
762.1576, 24.15026
762.6397, 24.08995
763.1218, 24.07291
763.6039, 24.10920
764.0861, 24.17469
764.5682, 24.38953
765.0503, 24.51244
765.5324, 24.25758
766.0145, 23.79212
766.4966, 23.44050
766.9788, 23.29696
767.4609, 23.24714
767.9430, 23.14345
768.4251, 23.04711
768.9072, 23.38874
769.3893, 24.33462
769.8715, 24.79803
770.3536, 24.22399
770.8357, 23.50087
771.3178, 23.59670
771.7999, 24.30953
772.2820, 24.58358
772.7642, 23.91509
773.2463, 23.40293
773.7284, 23.48501
774.2105, 23.73663
774.6926, 23.80020
775.1747, 23.68696
775.6569, 23.54632
776.1390, 23.44558
776.6211, 23.41835
777.1032, 23.62509
777.5853, 23.97886
778.0674, 23.88713
778.5496, 23.24440
779.0317, 22.70882
779.5138, 22.57486
779.9959, 22.77535
780.4780, 23.27837
780.9601, 24.29120
781.4423, 24.73639
781.9244, 24.07131
782.4065, 23.52424
782.8886, 23.67658
783.3707, 24.02690
783.8528, 23.94796
784.3350, 23.42496
784.8171, 23.01513
785.2992, 23.14349
785.7813, 23.46208
786.2634, 23.56463
786.7455, 23.47580
787.2277, 23.16915
787.7098, 22.65058
788.1919, 22.37847
788.6740, 22.76404
789.1561, 23.59745
789.6382, 24.11640
790.1204, 24.26261
790.6025, 24.22533
791.0846, 23.73736
791.5667, 23.37074
792.0488, 23.57733
792.5309, 23.98679
793.0131, 23.96406
793.4952, 23.34157
793.9773, 22.76660
794.4594, 22.41843
794.9415, 22.35304
795.4236, 22.81442
795.9058, 23.57302
796.3879, 24.11442
796.8700, 24.28412
797.3521, 24.28341
797.8342, 24.28964
798.3163, 24.31897
798.7985, 24.49828
799.2806, 24.88308
799.7627, 25.08325
800.2448, 24.93677
800.7269, 24.70523
801.2090, 24.62066
801.6912, 24.64791
802.1733, 24.58728
802.6554, 24.35754
803.1375, 24.16792
803.6196, 24.03503
804.1017, 23.97484
804.5839, 23.95175
805.0660, 24.02121
805.5481, 24.38135
806.0302, 25.10995
806.5123, 25.72539
806.9944, 25.66888
807.4766, 25.16216
807.9587, 24.61768
808.4408, 24.08085
808.9229, 23.94212
809.4050, 24.40336
809.8871, 24.92534
810.3693, 24.80102
810.8514, 24.04141
811.3335, 23.77875
811.8156, 24.39254
812.2977, 24.87003
812.7798, 25.01889
813.2620, 25.03036
813.7441, 24.95245
814.2262, 24.84080
814.7083, 24.83923
815.1904, 25.04781
815.6725, 25.21435
816.1547, 25.11161
816.6368, 24.95157
817.1189, 24.98014
817.6010, 25.17784
818.0831, 25.46012
818.5652, 25.78486
819.0474, 26.00184
819.5295, 25.84591
820.0116, 25.37322
820.4937, 25.10790
820.9758, 25.07223
821.4579, 25.11896
821.9401, 25.22842
822.4222, 25.35772
822.9043, 25.46588
823.3864, 25.55267
823.8685, 25.63287
824.3506, 25.76952
824.8328, 25.81208
825.3149, 25.60533
825.7970, 25.41492
826.2791, 25.51231
826.7612, 25.77066
827.2433, 25.81201
827.7255, 25.45660
828.2076, 25.21252
828.6897, 25.76768
829.1718, 26.58290
829.6539, 26.64338
830.1360, 26.07424
830.6182, 25.69260
831.1003, 25.80909
831.5824, 26.09428
832.0645, 26.14747
832.5466, 25.99576
833.0287, 25.97296
833.5109, 26.10180
833.9930, 26.30937
834.4751, 26.74991
834.9572, 27.05986
835.4393, 26.77531
835.9214, 26.12146
836.4036, 25.76270
836.8857, 25.87593
837.3678, 26.02758
837.8499, 26.08157
838.3320, 26.16723
838.8141, 26.47865
839.2963, 26.86025
839.7784, 26.96537
840.2605, 26.70640
840.7426, 26.47294
841.2247, 26.69221
841.7068, 27.13881
842.1890, 27.40577
842.6711, 27.50028
843.1532, 27.40727
843.6353, 27.11559
844.1174, 26.87626
844.5995, 26.93724
845.0817, 27.20685
845.5638, 27.22437
846.0459, 26.75349
846.5280, 26.71493
847.0101, 27.61270
847.4922, 28.37933
847.9744, 28.31586
848.4565, 27.84618
848.9386, 27.63095
849.4207, 27.76882
849.9028, 27.80770
850.3849, 27.48353
850.8671, 27.18091
851.3492, 27.07039
851.8313, 27.15069
852.3134, 27.47509
852.7955, 27.99636
853.2776, 28.51416
853.7598, 28.93103
854.2419, 29.19147
854.7240, 29.12246
855.2061, 28.81738
855.6882, 28.63487
856.1703, 28.62105
856.6525, 28.78094
857.1346, 29.16249
857.6167, 29.54281
858.0988, 29.42684
858.5809, 28.66431
859.0630, 28.43356
859.5452, 29.06916
860.0273, 29.64174
860.5094, 29.86301
860.9915, 29.91104
861.4736, 29.88765
861.9557, 29.81585
862.4379, 29.81181
862.9200, 29.92669
863.4021, 30.06985
863.8842, 30.19779
864.3663, 30.35056
864.8484, 30.64595
865.3306, 30.98288
865.8127, 31.07990
866.2948, 30.83184
866.7769, 30.60188
867.2590, 30.75639
867.7411, 31.18082
868.2233, 31.72801
868.7054, 32.34581
869.1875, 32.75718
869.6696, 32.88181
870.1517, 32.93032
870.6339, 33.12356
871.1160, 33.37807
871.5981, 33.23216
872.0802, 32.43178
872.5623, 32.18490
873.0444, 32.90287
873.5266, 33.69490
874.0087, 34.02488
874.4908, 34.13203
874.9729, 34.49845
875.4550, 35.21553
875.9371, 35.67362
876.4193, 35.42542
876.9014, 35.33808
877.3835, 36.04639
877.8656, 36.91380
878.3477, 37.19301
878.8298, 36.92094
879.3120, 36.66503
879.7941, 36.67410
880.2762, 36.87844
880.7583, 37.28269
881.2404, 37.80387
881.7225, 38.31477
882.2047, 38.80083
882.6868, 39.26665
883.1689, 39.71516
883.6510, 40.11639
884.1331, 40.41105
884.6152, 40.62555
885.0974, 40.93208
885.5795, 41.31684
886.0616, 41.93953
886.5437, 42.98174
887.0258, 43.90306
887.5079, 44.19934
887.9901, 44.03373
888.4722, 44.05450
888.9543, 44.24764
889.4364, 44.66386
889.9185, 45.34834
890.4006, 46.19408
890.8828, 47.39494
891.3649, 48.59980
891.8470, 49.32485
892.3291, 49.55133
892.8112, 49.83609
893.2933, 50.51485
893.7755, 51.19049
894.2576, 51.60649
894.7397, 51.88265
895.2218, 52.14504
895.7039, 52.41582
896.1860, 52.65170
896.6682, 52.82779
897.1503, 53.10456
897.6324, 53.89156
898.1145, 54.89741
898.5966, 55.13335
899.0787, 54.66338
899.5609, 54.32541
900.0430, 54.37352
900.5251, 54.75924
901.0072, 55.51283
901.4893, 56.48842
901.9714, 56.96487
902.4536, 56.87695
902.9357, 56.46925
903.4178, 55.41862
903.8999, 54.67542
904.3820, 54.97493
904.8641, 55.76114
905.3463, 56.11455
905.8284, 56.01822
906.3105, 55.67999
906.7926, 54.77172
907.2747, 54.06293
907.7568, 53.94568
908.2390, 53.99642
908.7211, 53.87846
909.2032, 53.58707
909.6853, 53.24340
910.1674, 52.90080
910.6495, 52.47135
911.1317, 51.85133
911.6138, 51.14555
912.0959, 50.36875
912.5780, 49.62876
913.0601, 49.19255
913.5422, 49.10150
914.0244, 49.10986
914.5065, 49.09408
914.9886, 48.88652
915.4707, 47.88759
915.9528, 46.28870
916.4349, 45.38328
916.9171, 45.35746
917.3992, 45.41310
917.8813, 45.11778
918.3634, 44.66974
918.8455, 44.40621
919.3276, 44.34121
919.8098, 44.20747
920.2919, 43.98902
920.7740, 43.74090
921.2561, 43.46392
921.7382, 43.17440
922.2203, 42.83441
922.7025, 42.49135
923.1846, 42.34432
923.6667, 42.62593
924.1488, 42.59438
924.6309, 41.74669
925.1130, 41.06743
925.5952, 41.12078
926.0773, 41.52108
926.5594, 41.80129
927.0415, 41.91494
927.5236, 42.08867
928.0057, 42.60129
928.4879, 42.92704
928.9700, 42.45631
929.4521, 41.79751
929.9342, 41.73973
930.4163, 42.13841
930.8984, 42.37816
931.3806, 42.23389
931.8627, 42.04961
932.3448, 42.14624
932.8269, 42.45605
933.3090, 42.90089
933.7911, 43.44191
934.2733, 43.89740
934.7554, 44.23525
935.2375, 44.54775
935.7196, 44.88968
936.2017, 45.27869
936.6838, 45.79189
937.1660, 46.44709
937.6481, 46.81903
938.1302, 46.78880
938.6123, 47.03386
939.0944, 47.88628
939.5765, 48.87502
940.0587, 49.54661
940.5408, 49.93219
941.0229, 50.19845
941.5050, 49.92556
941.9871, 50.30259
942.4692, 52.15382
942.9514, 53.75846
943.4335, 54.03531
943.9156, 53.90637
944.3977, 54.64254
944.8798, 56.29811
945.3619, 57.71260
945.8441, 58.39783
946.3262, 59.11926
946.8083, 60.15501
947.2904, 61.32871
947.7725, 62.47513
948.2546, 63.64824
948.7368, 65.06878
949.2189, 66.81879
949.7010, 68.39006
950.1831, 69.15188
950.6652, 69.86643
951.1473, 71.46603
951.6295, 73.51901
952.1116, 75.18328
952.5937, 76.40961
953.0758, 77.67912
953.5579, 79.27206
954.0400, 81.05497
954.5222, 82.95428
955.0043, 84.87696
955.4864, 86.46643
955.9685, 87.77319
956.4506, 89.36902
956.9327, 91.42216
957.4149, 93.40273
957.8970, 94.79488
958.3791, 96.86124
958.8612, 97.69978
959.3433, 100.3191
959.8254, 102.3834
960.3076, 103.6760
960.7897, 104.9851
961.2718, 106.6427
961.7539, 108.4688
962.2360, 110.2639
962.7181, 112.0261
963.2003, 113.5574
963.6824, 114.7542
964.1645, 115.9457
964.6466, 117.4343
965.1287, 118.5862
965.6108, 118.6875
966.0930, 118.4113
966.5751, 118.8377
967.0572, 120.0735
967.5393, 121.0453
968.0214, 121.7678
968.5035, 122.0412
968.9857, 121.3531
969.4678, 120.6138
969.9499, 120.5054
970.4320, 120.8977
970.9141, 121.4918
971.3962, 122.2820
971.8784, 122.6645
972.3605, 121.9459
972.8426, 121.1693
973.3247, 121.0753
973.8068, 121.3361
974.2889, 121.4203
974.7711, 121.3987
975.2532, 121.8787
975.7353, 123.2288
976.2174, 124.5185
976.6995, 124.7047
977.1816, 124.4618
977.6638, 124.5793
978.1459, 125.1000
978.6280, 126.1768
979.1101, 127.7282
979.5922, 129.1079
980.0743, 129.8470
980.5565, 130.2279
981.0386, 130.5640
981.5207, 130.9328
982.0028, 131.6328
982.4849, 132.6586
982.9670, 133.8566
983.4492, 135.1736
983.9313, 136.5797
984.4134, 138.1488
984.8955, 139.6021
985.3776, 139.7539
985.8597, 138.5323
986.3419, 138.5269
986.8240, 140.1466
987.3061, 141.6414
987.7882, 142.2426
988.2703, 142.4580
988.7524, 142.9171
989.2346, 143.5732
989.7167, 143.8613
990.1988, 143.5398
990.6809, 143.6219
991.1630, 144.4556
991.6451, 145.2107
992.1273, 145.3347
992.6094, 145.2732
993.0915, 145.7776
993.5736, 146.9006
994.0557, 147.5749
994.5378, 147.2049
995.0200, 147.2596
995.5021, 148.5164
995.9842, 149.5502
996.4663, 149.2204
996.9484, 148.3278
997.4305, 148.3021
997.9127, 149.3322
998.3948, 150.0618
998.8769, 149.5598
999.3590, 149.6812
999.8411, 151.4269
1000.323, 153.6132
1000.805, 155.5395
1001.287, 157.1232
1001.770, 158.2871
1002.252, 158.9966
1002.734, 159.6279
1003.216, 160.2009
1003.698, 160.8956
1004.180, 161.8902
1004.662, 163.0058
1005.144, 163.7442
1005.627, 164.4595
1006.109, 166.3232
1006.591, 169.8086
1007.073, 173.0471
1007.555, 174.0979
1008.037, 174.9051
1008.519, 177.6285
1009.001, 181.2340
1009.483, 183.9740
1009.966, 185.8253
1010.448, 187.8502
1010.930, 190.5510
1011.412, 193.0795
1011.894, 194.2820
1012.376, 194.9555
1012.858, 196.3946
1013.340, 198.3382
1013.823, 200.1781
1014.305, 201.7490
1014.787, 202.9125
1015.269, 203.5609
1015.751, 204.0822
1016.233, 205.0396
1016.715, 205.9140
1017.197, 207.2741
1017.679, 208.1064
1018.162, 209.1721
1018.644, 210.5190
1019.126, 211.5641
1019.608, 211.8729
1020.090, 211.9878
1020.572, 212.9338
1021.054, 214.5727
1021.536, 216.1435
1022.018, 217.6092
1022.501, 218.0237
1022.983, 217.1047
1023.465, 216.2752
1023.947, 216.7201
1024.429, 217.3891
1024.911, 215.9431
1025.393, 212.3361
1025.875, 208.4632
1026.358, 204.3078
1026.840, 200.1041
1027.322, 196.0181
1027.804, 191.3490
1028.286, 185.3936
1028.768, 178.7618
1029.250, 173.0723
1029.732, 168.5633
1030.214, 163.3868
1030.697, 157.4731
1031.179, 151.0486
1031.661, 143.8371
1032.143, 136.8375
1032.625, 130.8093
1033.107, 125.5453
1033.589, 120.5219
1034.071, 115.7792
1034.553, 111.1002
1035.036, 106.3704
1035.518, 101.8657
1036.000, 97.64705
1036.482, 93.67281
1036.964, 89.84272
1037.446, 86.25134
1037.928, 83.31081
1038.410, 81.31008
1038.893, 78.90782
1039.375, 75.62872
1039.857, 72.70743
1040.339, 70.53873
1040.821, 68.71230
1041.303, 67.12625
1041.785, 65.61665
1042.267, 63.65747
1042.750, 60.89575
1043.232, 58.86935
1043.714, 58.31795
1044.196, 57.53005
1044.678, 55.78359
1045.160, 53.98869
1045.642, 52.93556
1046.124, 52.32788
1046.606, 51.36306
1047.089, 49.83712
1047.571, 48.63944
1048.053, 48.09485
1048.535, 47.58228
1049.017, 46.90672
1049.499, 46.22381
1049.981, 45.71870
1050.463, 45.28434
1050.945, 44.63728
1051.428, 43.68798
1051.910, 42.91264
1052.392, 42.53477
1052.874, 42.16821
1053.356, 41.68405
1053.838, 41.16875
1054.320, 40.65984
1054.802, 40.18480
1055.285, 39.79002
1055.767, 39.48855
1056.249, 39.20614
1056.731, 39.09114
1057.213, 38.77010
1057.695, 37.81940
1058.177, 36.88704
1058.659, 36.46053
1059.141, 36.42566
1059.624, 36.58757
1060.106, 36.91199
1060.588, 37.03923
1061.070, 36.63954
1061.552, 36.30956
1062.034, 36.45068
1062.516, 36.59225
1062.998, 36.34808
1063.480, 35.84894
1063.963, 35.36150
1064.445, 34.92715
1064.927, 34.39924
1065.409, 33.40487
1065.891, 32.73906
1066.373, 32.91286
1066.855, 33.35784
1067.337, 33.85817
1067.820, 34.21766
1068.302, 34.11461
1068.784, 33.56190
1069.266, 33.07576
1069.748, 32.91680
1070.230, 32.74521
1070.712, 32.44735
1071.194, 32.04269
1071.677, 31.34857
1072.159, 30.66644
1072.641, 30.51022
1073.123, 30.83651
1073.605, 31.02106
1074.087, 30.74725
1074.569, 30.51798
1075.051, 30.77229
1075.533, 30.93714
1076.016, 30.36908
1076.498, 29.61167
1076.980, 29.50916
1077.462, 29.95736
1077.944, 30.10955
1078.426, 29.61662
1078.908, 29.04159
1079.390, 28.47895
1079.873, 28.10617
1080.355, 28.23196
1080.837, 28.48006
1081.319, 28.29783
1081.801, 27.84056
1082.283, 27.78240
1082.765, 28.40041
1083.247, 28.89147
1083.729, 28.83576
1084.212, 28.61576
1084.694, 28.35833
1085.176, 28.12345
1085.658, 27.99270
1086.140, 27.92081
1086.622, 27.78053
1087.104, 27.53682
1087.586, 27.33490
1088.068, 27.41458
1088.551, 27.32267
1089.033, 26.58973
1089.515, 25.81057
1089.997, 25.50693
1090.479, 25.55213
1090.961, 25.66639
1091.443, 25.79086
1091.925, 25.90620
1092.408, 26.00789
1092.890, 26.09582
1093.372, 26.19827
1093.854, 26.25824
1094.336, 26.16595
1094.818, 26.04220
1095.300, 26.16570
1095.782, 26.49253
1096.265, 26.46762
1096.747, 25.59786
1097.229, 25.00733
1097.711, 25.35355
1098.193, 25.76472
1098.675, 25.76496
1099.157, 25.52384
1099.639, 25.18661
1100.121, 24.81695
1100.604, 24.56092
1101.086, 24.45312
1101.568, 24.44420
1102.050, 24.71432
1102.532, 24.83917
1103.014, 24.43289
1103.496, 23.97243
1103.978, 23.92462
1104.460, 24.17341
1104.943, 24.36215
1105.425, 24.44410
1105.907, 24.45194
1106.389, 24.40457
1106.871, 24.26580
1107.353, 23.89854
1107.835, 23.56335
1108.317, 23.51713
1108.800, 23.59122
1109.282, 23.45653
1109.764, 23.07922
1110.246, 22.83408
1110.728, 22.99779
1111.210, 22.92878
1111.692, 22.22393
1112.174, 21.63479
1112.656, 21.58334
1113.139, 21.80103
1113.621, 22.03296
1114.103, 22.25693
1114.585, 22.29417
1115.067, 21.96206
1115.549, 21.77460
1116.031, 21.95595
1116.513, 21.95622
1116.995, 21.38261
1117.478, 20.80120
1117.960, 20.80117
1118.442, 21.16252
1118.924, 21.14697
1119.406, 20.57932
1119.888, 20.34458
1120.370, 20.65456
1120.852, 20.86008
1121.335, 20.83811
1121.817, 20.64749
1122.299, 20.24864
1122.781, 19.79113
1123.263, 19.55738
1123.745, 19.55277
1124.227, 19.54760
1124.709, 19.60773
1125.192, 19.36957
1125.674, 18.59176
1126.156, 18.17367
1126.638, 18.68222
1127.120, 19.34636
1127.602, 19.21164
1128.084, 18.47025
1128.566, 18.07070
1129.048, 18.04790
1129.531, 18.06892
1130.013, 18.12876
1130.495, 18.13093
1130.977, 18.02321
1131.459, 18.04365
1131.941, 18.45495
1132.423, 18.90108
1132.905, 18.42691
1133.387, 17.13068
1133.870, 16.65504
1134.352, 16.96560
1134.834, 17.06730
1135.316, 16.77483
1135.798, 16.74749
1136.280, 17.36316
1136.762, 18.10856
1137.244, 18.30456
1137.727, 18.55502
1138.209, 18.18980
1138.691, 18.37273
1139.173, 18.13623
1139.655, 17.51353
1140.137, 17.04530
1140.619, 16.91219
1141.101, 16.87677
1141.583, 16.74975
1142.066, 16.59344
1142.548, 16.50205
1143.030, 16.45258
1143.512, 16.35323
1143.994, 16.26484
1144.476, 16.46120
1144.958, 16.88755
1145.440, 16.99434
1145.922, 16.47635
1146.405, 16.01704
1146.887, 16.53434
1147.369, 17.18347
1147.851, 16.83554
1148.333, 16.09283
1148.815, 15.81393
1149.297, 15.98117
1149.779, 16.30981
1150.262, 16.69472
1150.744, 17.01920
1151.226, 17.26826
1151.708, 17.34671
1152.190, 17.10205
1152.672, 16.75126
1153.154, 16.35069
1153.636, 16.03996
1154.119, 16.06707
1154.601, 16.36804
1155.083, 16.52886
1155.565, 16.32783
1156.047, 16.37067
1156.529, 17.32530
1157.011, 17.96167
1157.493, 17.49099
1157.975, 16.71172
1158.458, 16.19289
1158.940, 15.91631
1159.422, 15.73625
1159.904, 15.63350
1160.386, 15.75228
1160.868, 16.55625
1161.350, 16.88173
1161.832, 16.08834
1162.314, 15.48031
1162.797, 15.90300
1163.279, 16.44879
1163.761, 15.98459
1164.243, 14.82107
1164.725, 14.46633
1165.207, 15.21884
1165.689, 15.73135
1166.171, 15.93984
1166.654, 16.10279
1167.136, 16.29149
1167.618, 16.39866
1168.100, 16.31640
1168.582, 16.20595
1169.064, 16.39158
1169.546, 16.23005
1170.028, 16.73151
1170.510, 16.15174
1170.993, 15.85213
1171.475, 15.91622
1171.957, 16.34043
1172.439, 17.14644
1172.921, 17.63816
1173.403, 17.12124
1173.885, 16.13544
1174.367, 15.73868
1174.849, 15.77780
1175.332, 15.77152
1175.814, 15.72151
1176.296, 15.68355
1176.778, 15.68326
1177.260, 15.81217
1177.742, 16.11274
1178.224, 16.37288
1178.706, 16.35741
1179.189, 16.44708
1179.671, 16.22663
1180.153, 16.22301
1180.635, 15.96572
1181.117, 15.55899
1181.599, 15.22798
1182.081, 15.04092
1182.563, 15.02556
1183.046, 15.22531
1183.528, 15.49806
1184.010, 15.85914
1184.492, 16.14995
1184.974, 16.30011
1185.456, 16.29358
1185.938, 15.97478
1186.420, 15.52998
1186.902, 15.41439
1187.385, 15.71971
1187.867, 15.93572
1188.349, 15.82750
1188.831, 15.82768
1189.313, 16.27922
1189.795, 16.54226
1190.277, 16.08614
1190.759, 15.47726
1191.241, 15.26564
1191.724, 15.38132
1192.206, 15.56916
1192.688, 15.89216
1193.170, 15.99084
1193.652, 15.72853
1194.134, 15.69601
1194.616, 16.10306
1195.098, 16.43933
1195.581, 16.41072
1196.063, 16.17483
1196.545, 15.90109
1197.027, 15.65358
1197.509, 15.78876
1197.991, 16.27037
1198.473, 16.50242
1198.955, 16.45786
1199.438, 16.26049
1199.920, 15.96283
1200.402, 15.79086
1200.884, 15.91457
1201.366, 16.03151
1201.848, 15.51354
1202.330, 15.84501
1202.812, 15.20333
1203.294, 16.06521
1203.776, 16.58462
1204.259, 16.67982
1204.741, 16.34725
1205.223, 15.68508
1205.705, 15.34002
1206.187, 15.83078
1206.669, 16.33709
1207.151, 16.23079
1207.633, 15.98225
1208.116, 15.88056
1208.598, 15.90853
1209.080, 16.07553
1209.562, 16.32094
1210.044, 16.50329
1210.526, 16.59067
1211.008, 16.71331
1211.490, 17.17577
1211.973, 17.25241
1212.455, 16.29392
1212.937, 15.57083
1213.419, 15.79721
1213.901, 16.33492
1214.383, 16.60758
1214.865, 16.65719
1215.347, 16.61746
1215.829, 16.47766
1216.312, 16.30089
1216.794, 16.04977
1217.276, 15.98806
1217.758, 16.19908
1218.240, 16.36576
1218.722, 16.33891
1219.204, 16.14733
1219.686, 15.77263
1220.168, 15.37093
1220.651, 15.37249
1221.133, 15.69171
1221.615, 16.10982
1222.097, 16.51603
1222.579, 16.43494
1223.061, 15.88334
1223.543, 15.44404
1224.025, 15.39388
1224.508, 15.54111
1224.990, 15.78925
1225.472, 16.06490
1225.954, 16.30853
1226.436, 16.52545
1226.918, 16.80680
1227.400, 17.01819
1227.882, 16.85681
1228.365, 16.38859
1228.847, 16.07653
1229.329, 16.09722
1229.811, 16.07435
1230.293, 15.75103
1230.775, 15.57944
1231.257, 15.89910
1231.739, 16.20713
1232.221, 16.22581
1232.703, 16.00760
1233.186, 15.45273
1233.668, 15.68898
1234.150, 14.71588
1234.632, 15.83052
1235.114, 16.44664
1235.596, 16.47841
1236.078, 16.32138
1236.560, 16.02709
1237.043, 15.83493
1237.525, 15.89500
1238.007, 16.04255
1238.489, 16.06327
1238.971, 16.00735
1239.453, 16.04542
1239.935, 16.11840
1240.417, 16.01007
1240.900, 15.74875
1241.382, 15.40893
1241.864, 15.06484
1242.346, 14.98664
1242.828, 15.31508
1243.310, 15.67069
1243.792, 15.72947
1244.274, 15.71966
1244.756, 15.78718
1245.239, 15.91057
1245.721, 15.94676
1246.203, 16.09532
1246.685, 16.83692
1247.167, 18.02625
1247.649, 18.75223
1248.131, 18.77921
1248.613, 18.61999
1249.095, 18.43212
1249.578, 17.87834
1250.060, 16.48985
1250.542, 15.39219
1251.024, 15.21959
1251.506, 15.51345
1251.988, 15.78230
1252.470, 16.01079
1252.952, 16.13429
1253.435, 16.15170
1253.917, 16.11202
1254.399, 16.01827
1254.881, 15.90726
1255.363, 15.79756
1255.845, 15.88810
1256.327, 16.26170
1256.809, 16.50207
1257.292, 16.10799
1257.774, 16.45913
1258.256, 15.94380
1258.738, 16.53806
1259.220, 16.65877
1259.702, 16.50192
1260.184, 16.51519
1260.666, 16.64216
1261.148, 16.43283
1261.630, 15.76085
1262.113, 15.36810
1262.595, 15.71051
1263.077, 16.09144
1263.559, 16.52879
1264.041, 16.69569
1264.523, 16.12898
1265.005, 15.51576
1265.487, 15.55654
1265.970, 15.17810
1266.452, 15.02391
1266.934, 15.13939
1267.416, 14.99093
1267.898, 15.40983
1268.380, 15.86466
1268.862, 16.32835
1269.344, 16.23559
1269.827, 15.39400
1270.309, 14.92067
1270.791, 15.67727
1271.273, 16.75846
1271.755, 16.83924
1272.237, 16.40145
1272.719, 16.19100
1273.201, 16.19412
1273.683, 16.56167
1274.166, 17.05843
1274.648, 17.11631
1275.130, 16.71368
1275.612, 16.39366
1276.094, 16.39511
1276.576, 16.32494
1277.058, 15.79287
1277.540, 15.48617
1278.022, 16.03321
1278.505, 16.49242
1278.987, 15.96401
1279.469, 15.23461
1279.951, 15.27757
1280.433, 15.20805
1280.915, 16.12654
1281.397, 15.91937
1281.879, 16.21865
1282.362, 17.10600
1282.844, 17.50197
1283.326, 17.22642
1283.808, 17.01504
1284.290, 17.17393
1284.772, 17.31524
1285.254, 17.12159
1285.736, 16.59322
##END=



