##NAMES=Lithiophilite
##RRUFFID=R100096
##IDEAL CHEMISTRY=LiMn^2+^PO_4_
##LOCALITY=Foote mine, Kings Mountain, North Carolina, USA
##OWNER=RRUFF
##SOURCE=
##DESCRIPTION=Parallel aggregate of pale pink acicular crystals, associated with quartz, muscovite, and elongated platy bertrandite, R110025.
##STATUS=The identification of this mineral has been confirmed by single-crystal X-ray diffraction.
##URL=rruff.info/R100096
91.53320, 144.5510
92.01532, 145.3637
92.49744, 145.3455
92.97955, 146.5055
93.46167, 146.9240
93.94379, 145.2625
94.42590, 142.0460
94.90802, 138.4394
95.39014, 135.3762
95.87225, 132.9674
96.35437, 130.6264
96.83649, 128.1194
97.31860, 125.6504
97.80072, 123.4108
98.28284, 121.3294
98.76495, 119.3174
99.24707, 117.6375
99.72919, 116.7229
100.2113, 115.6920
100.6934, 113.9270
101.1755, 111.8140
101.6577, 110.1973
102.1398, 109.8975
102.6219, 111.2730
103.1040, 112.0153
103.5861, 111.4203
104.0682, 110.9066
104.5504, 111.7075
105.0325, 113.8182
105.5146, 115.8183
105.9967, 115.6242
106.4788, 112.3169
106.9609, 108.9726
107.4431, 105.4723
107.9252, 102.0783
108.4073, 99.21536
108.8894, 97.08526
109.3715, 95.37875
109.8536, 93.49368
110.3358, 91.28201
110.8179, 89.38876
111.3000, 88.27171
111.7821, 87.86564
112.2642, 87.54849
112.7463, 87.08974
113.2285, 86.61899
113.7106, 86.26727
114.1927, 86.07076
114.6748, 85.95997
115.1569, 85.87283
115.6390, 85.86294
116.1212, 85.72402
116.6033, 85.25346
117.0854, 84.69333
117.5675, 84.25776
118.0496, 84.03755
118.5317, 84.03793
119.0139, 84.29231
119.4960, 85.10130
119.9781, 85.86646
120.4602, 86.41415
120.9423, 86.84351
121.4244, 87.37115
121.9066, 88.20339
122.3887, 89.39791
122.8708, 90.04662
123.3529, 89.83619
123.8350, 89.50394
124.3171, 89.39394
124.7993, 89.51567
125.2814, 89.64764
125.7635, 89.51962
126.2456, 89.03245
126.7277, 88.92484
127.2098, 89.59615
127.6920, 90.47776
128.1741, 90.89935
128.6562, 90.66129
129.1383, 90.28398
129.6204, 90.48802
130.1025, 91.20132
130.5847, 91.87831
131.0668, 92.21365
131.5489, 92.31960
132.0310, 92.59734
132.5131, 93.21696
132.9952, 93.95646
133.4774, 94.57961
133.9595, 95.08499
134.4416, 95.65317
134.9237, 96.43267
135.4058, 97.43623
135.8879, 98.59843
136.3701, 100.0042
136.8522, 101.5060
137.3343, 102.9748
137.8164, 104.3974
138.2985, 105.9162
138.7806, 107.8432
139.2628, 110.5512
139.7449, 112.9955
140.2270, 114.7905
140.7091, 116.4582
141.1912, 118.7462
141.6733, 121.9746
142.1555, 125.5320
142.6376, 127.2488
143.1197, 126.2556
143.6018, 124.2083
144.0839, 120.9521
144.5660, 116.7641
145.0482, 111.9263
145.5303, 106.5195
146.0124, 100.6764
146.4945, 95.28779
146.9766, 89.92322
147.4587, 85.30793
147.9409, 81.92561
148.4230, 79.64062
148.9051, 77.82959
149.3872, 76.07559
149.8693, 74.49229
150.3514, 73.35828
150.8336, 73.27590
151.3157, 73.28031
151.7978, 72.27554
152.2799, 70.07401
152.7620, 68.02515
153.2441, 67.37285
153.7263, 67.57296
154.2084, 67.80266
154.6905, 67.77058
155.1726, 67.59180
155.6547, 67.51533
156.1368, 67.55685
156.6190, 67.68600
157.1011, 68.04654
157.5832, 68.47530
158.0653, 68.63441
158.5474, 68.12592
159.0295, 67.03038
159.5117, 66.44828
159.9938, 67.06120
160.4759, 67.53624
160.9580, 67.28112
161.4401, 66.46105
161.9222, 65.57038
162.4044, 65.03719
162.8865, 64.89650
163.3686, 64.91611
163.8507, 65.25364
164.3328, 65.60361
164.8149, 65.87070
165.2971, 66.03014
165.7792, 66.07939
166.2613, 66.02062
166.7434, 65.86275
167.2255, 65.52859
167.7076, 64.73125
168.1898, 63.97332
168.6719, 63.70162
169.1540, 63.97507
169.6361, 64.41096
170.1182, 64.47630
170.6003, 64.03193
171.0825, 63.51311
171.5646, 62.73608
172.0467, 61.97150
172.5288, 61.54320
173.0109, 61.55460
173.4930, 61.84387
173.9752, 62.28733
174.4573, 62.97710
174.9394, 63.32632
175.4215, 62.81411
175.9036, 61.84041
176.3857, 61.34022
176.8679, 61.69705
177.3500, 62.44811
177.8321, 63.01502
178.3142, 63.41520
178.7963, 63.61304
179.2784, 63.36058
179.7606, 62.75175
180.2427, 62.61796
180.7248, 63.63084
181.2069, 64.81496
181.6890, 65.27749
182.1711, 64.93626
182.6533, 64.34515
183.1354, 63.95817
183.6175, 63.77461
184.0996, 63.80255
184.5817, 64.40411
185.0638, 65.00394
185.5460, 65.22092
186.0281, 64.97993
186.5102, 64.54430
186.9923, 64.27912
187.4744, 64.25429
187.9565, 64.21931
188.4387, 64.10451
188.9208, 63.99099
189.4029, 63.96300
189.8850, 64.03990
190.3671, 64.14037
190.8492, 64.07356
191.3314, 63.50074
191.8135, 63.34735
192.2956, 64.04984
192.7777, 64.95360
193.2598, 65.43223
193.7419, 65.24702
194.2241, 64.68557
194.7062, 64.44044
195.1883, 64.76512
195.6704, 65.15568
196.1525, 65.61726
196.6346, 66.13361
197.1168, 66.69170
197.5989, 67.28657
198.0810, 67.91309
198.5631, 68.55888
199.0452, 69.23600
199.5273, 69.91552
200.0095, 70.78922
200.4916, 71.63559
200.9737, 72.01942
201.4558, 71.66942
201.9379, 70.89539
202.4200, 70.65562
202.9022, 71.48067
203.3843, 71.84530
203.8664, 70.92135
204.3485, 69.07909
204.8306, 67.33022
205.3127, 66.09724
205.7949, 65.23353
206.2770, 64.32050
206.7591, 63.13914
207.2412, 62.33946
207.7233, 62.52802
208.2054, 63.54990
208.6876, 64.45332
209.1697, 64.87559
209.6518, 64.94030
210.1339, 64.83595
210.6160, 64.48232
211.0981, 64.20889
211.5803, 64.42609
212.0624, 65.13587
212.5445, 65.57189
213.0266, 65.13859
213.5087, 64.50143
213.9908, 64.30692
214.4730, 64.69345
214.9551, 65.27808
215.4372, 65.58404
215.9193, 65.53007
216.4014, 65.71392
216.8836, 66.66256
217.3657, 67.71843
217.8478, 68.40004
218.3299, 68.58308
218.8120, 68.61318
219.2941, 68.93703
219.7763, 69.59281
220.2584, 70.42937
220.7405, 71.77106
221.2226, 73.06232
221.7047, 73.92686
222.1868, 74.26162
222.6690, 74.20071
223.1511, 73.86604
223.6332, 72.96764
224.1153, 72.47607
224.5974, 72.76589
225.0795, 73.24737
225.5617, 73.43417
226.0438, 73.21119
226.5259, 72.89841
227.0080, 73.09933
227.4901, 74.29044
227.9722, 75.12692
228.4544, 75.47543
228.9365, 75.56513
229.4186, 75.57304
229.9007, 75.54782
230.3828, 75.40321
230.8649, 74.92336
231.3471, 73.22058
231.8292, 72.70831
232.3113, 74.36217
232.7934, 76.52673
233.2755, 77.76949
233.7576, 77.71755
234.2398, 77.11652
234.7219, 77.19750
235.2040, 78.47610
235.6861, 79.58069
236.1682, 80.68945
236.6503, 81.53855
237.1325, 81.87460
237.6146, 81.63272
238.0967, 80.92370
238.5788, 79.85019
239.0609, 78.12849
239.5430, 76.71947
240.0252, 76.07084
240.5073, 75.55063
240.9894, 74.43113
241.4715, 72.53685
241.9536, 70.44104
242.4357, 68.89150
242.9179, 67.99664
243.4000, 67.23173
243.8821, 66.65779
244.3642, 66.14632
244.8463, 65.51067
245.3284, 64.70129
245.8106, 63.93959
246.2927, 63.52873
246.7748, 63.48062
247.2569, 63.40844
247.7390, 63.32355
248.2211, 63.15607
248.7033, 62.73458
249.1854, 61.99388
249.6675, 61.30767
250.1496, 61.16258
250.6317, 61.46733
251.1138, 61.62044
251.5960, 61.38374
252.0781, 60.97779
252.5602, 60.71632
253.0423, 60.66006
253.5244, 60.56614
254.0065, 60.11976
254.4887, 59.45353
254.9708, 58.93937
255.4529, 58.71717
255.9350, 58.68107
256.4171, 58.72728
256.8992, 58.87869
257.3813, 58.99302
257.8635, 58.93495
258.3456, 58.77168
258.8277, 58.59742
259.3098, 58.36558
259.7919, 58.18080
260.2740, 58.22166
260.7562, 58.52810
261.2383, 58.88591
261.7204, 59.16597
262.2025, 59.42725
262.6846, 59.75856
263.1667, 60.22658
263.6489, 60.72425
264.1310, 61.17094
264.6131, 61.62445
265.0952, 61.77185
265.5773, 61.19762
266.0594, 60.34982
266.5416, 59.62505
267.0237, 59.13861
267.5058, 58.78107
267.9879, 58.33895
268.4700, 57.73179
268.9521, 57.42453
269.4343, 57.94985
269.9164, 58.65133
270.3985, 59.01854
270.8806, 58.91552
271.3627, 58.61469
271.8448, 58.44608
272.3270, 58.43866
272.8091, 58.40743
273.2912, 58.21824
273.7733, 58.04943
274.2554, 58.05331
274.7375, 58.24813
275.2197, 58.45914
275.7018, 58.45167
276.1839, 58.17387
276.6660, 58.01430
277.1481, 58.12136
277.6302, 58.29819
278.1124, 58.50301
278.5945, 58.70964
279.0766, 58.84147
279.5587, 58.75722
280.0408, 58.41142
280.5229, 58.26391
281.0051, 58.61943
281.4872, 58.93929
281.9693, 58.92784
282.4514, 58.65533
282.9335, 58.40633
283.4156, 58.40336
283.8978, 58.64812
284.3799, 59.06989
284.8620, 60.15973
285.3441, 60.91391
285.8262, 60.78590
286.3083, 60.04803
286.7905, 59.29719
287.2726, 58.93703
287.7547, 58.94170
288.2368, 59.08226
288.7189, 59.41551
289.2010, 59.83581
289.6832, 60.44938
290.1653, 61.09983
290.6474, 61.53331
291.1295, 61.56708
291.6116, 61.33297
292.0938, 61.38835
292.5759, 62.06395
293.0580, 62.55671
293.5401, 62.72973
294.0222, 62.65060
294.5043, 62.30501
294.9865, 61.67130
295.4686, 60.97540
295.9507, 60.82519
296.4328, 61.72433
296.9149, 62.27016
297.3970, 62.15277
297.8792, 61.74463
298.3613, 61.26924
298.8434, 60.81923
299.3255, 60.51612
299.8076, 60.64009
300.2897, 61.56591
300.7719, 62.05489
301.2540, 61.75513
301.7361, 61.28822
302.2182, 61.01076
302.7003, 60.99658
303.1824, 61.13184
303.6646, 61.30949
304.1467, 61.57301
304.6288, 61.71302
305.1109, 61.69611
305.5930, 61.59486
306.0751, 61.49513
306.5573, 61.35549
307.0394, 61.02226
307.5215, 60.30290
308.0036, 59.14962
308.4857, 58.25527
308.9678, 57.64017
309.4500, 57.27946
309.9321, 57.40175
310.4142, 57.77478
310.8963, 57.93988
311.3784, 57.55137
311.8605, 56.70225
312.3427, 56.13906
312.8248, 56.19704
313.3069, 56.15977
313.7890, 55.79140
314.2711, 55.28465
314.7532, 54.87583
315.2354, 54.68142
315.7175, 54.67580
316.1996, 54.82549
316.6817, 55.46366
317.1638, 55.70282
317.6459, 55.02484
318.1281, 54.17896
318.6102, 53.94289
319.0923, 54.53024
319.5744, 55.40700
320.0565, 55.65243
320.5386, 54.91290
321.0208, 54.34525
321.5029, 54.04522
321.9850, 53.86295
322.4671, 53.67344
322.9492, 53.48143
323.4313, 53.41923
323.9135, 53.71360
324.3956, 54.51600
324.8777, 54.89003
325.3598, 54.37020
325.8419, 53.85293
326.3240, 53.68779
326.8062, 53.82475
327.2883, 54.01838
327.7704, 54.06065
328.2525, 53.97118
328.7346, 54.10948
329.2167, 54.86781
329.6989, 55.40976
330.1810, 55.52529
330.6631, 55.30419
331.1452, 54.81459
331.6273, 54.04686
332.1094, 53.19012
332.5916, 52.88219
333.0737, 53.56701
333.5558, 54.05299
334.0379, 54.10054
334.5200, 53.90719
335.0021, 53.59998
335.4843, 53.22813
335.9664, 52.87991
336.4485, 52.71342
336.9306, 52.78959
337.4127, 52.86652
337.8948, 53.01805
338.3770, 53.09054
338.8591, 52.88224
339.3412, 52.43561
339.8233, 52.06934
340.3055, 52.14323
340.7876, 52.70274
341.2697, 53.24479
341.7518, 53.93619
342.2339, 54.42521
342.7160, 54.48129
343.1982, 54.22192
343.6803, 53.93915
344.1624, 53.84735
344.6445, 53.88844
345.1266, 53.73940
345.6087, 53.18381
346.0909, 52.79950
346.5730, 52.82158
347.0551, 53.07750
347.5372, 53.37235
348.0193, 53.64383
348.5014, 53.86979
348.9836, 54.04860
349.4657, 54.23794
349.9478, 54.17921
350.4299, 53.55864
350.9120, 52.81348
351.3941, 52.20351
351.8763, 51.78442
352.3584, 51.57920
352.8405, 51.64911
353.3226, 51.99952
353.8047, 52.46328
354.2868, 53.27812
354.7690, 53.91898
355.2511, 53.95669
355.7332, 53.50458
356.2153, 53.06367
356.6974, 52.94158
357.1795, 53.08896
357.6617, 53.36128
358.1438, 53.87643
358.6259, 54.25985
359.1080, 54.16423
359.5901, 53.82980
360.0722, 53.65008
360.5544, 53.84254
361.0365, 54.15972
361.5186, 54.22076
362.0007, 53.98646
362.4828, 53.80289
362.9649, 53.85406
363.4471, 54.00623
363.9292, 54.14085
364.4113, 54.27071
364.8934, 54.26911
365.3755, 53.89356
365.8576, 53.24279
366.3398, 52.90903
366.8219, 53.19145
367.3040, 53.58554
367.7861, 53.42365
368.2682, 52.77400
368.7503, 52.42664
369.2325, 52.99713
369.7146, 53.98185
370.1967, 54.49321
370.6788, 54.41035
371.1609, 54.13765
371.6430, 53.93979
372.1252, 53.79463
372.6073, 53.63150
373.0894, 53.23411
373.5715, 52.98186
374.0536, 53.35630
374.5357, 54.23649
375.0179, 54.89124
375.5000, 54.91385
375.9821, 54.52712
376.4642, 54.20800
376.9463, 53.76438
377.4284, 53.78841
377.9106, 55.04490
378.3927, 56.79591
378.8748, 57.66322
379.3569, 57.22441
379.8390, 56.29480
380.3211, 55.89092
380.8033, 56.11395
381.2854, 56.31581
381.7675, 56.37835
382.2496, 56.45645
382.7317, 56.71720
383.2138, 57.14367
383.6960, 57.54179
384.1781, 57.75637
384.6602, 57.80307
385.1423, 57.93793
385.6244, 58.29464
386.1065, 58.57351
386.5887, 58.68505
387.0708, 58.65001
387.5529, 58.45385
388.0350, 58.07819
388.5171, 57.66994
388.9992, 57.54840
389.4814, 57.81672
389.9635, 58.25749
390.4456, 58.98588
390.9277, 59.80780
391.4098, 60.61425
391.8919, 61.36293
392.3741, 62.00887
392.8562, 62.47186
393.3383, 62.70026
393.8204, 63.16665
394.3025, 64.26031
394.7846, 65.17437
395.2668, 65.52377
395.7489, 65.50493
396.2310, 65.50396
396.7131, 65.74660
397.1952, 66.16308
397.6773, 66.52277
398.1595, 66.87770
398.6416, 67.07492
399.1237, 66.84023
399.6058, 66.61269
400.0879, 66.81810
400.5700, 67.53285
401.0522, 68.43295
401.5343, 69.15347
402.0164, 69.67079
402.4985, 70.12199
402.9806, 70.39011
403.4627, 70.70776
403.9449, 71.14810
404.4270, 71.71712
404.9091, 72.42019
405.3912, 73.30885
405.8733, 74.31131
406.3554, 75.23486
406.8376, 76.16584
407.3197, 76.80981
407.8018, 76.80319
408.2839, 76.56940
408.7660, 76.51553
409.2481, 76.74122
409.7303, 77.12946
410.2124, 77.65703
410.6945, 78.30376
411.1766, 78.74216
411.6587, 78.76881
412.1408, 78.74134
412.6230, 79.03291
413.1051, 79.59895
413.5872, 80.11297
414.0693, 80.22651
414.5514, 80.28247
415.0335, 80.95784
415.5157, 82.35252
415.9978, 83.66687
416.4799, 84.33177
416.9620, 84.52007
417.4441, 84.83469
417.9262, 85.40166
418.4084, 85.95847
418.8905, 86.21571
419.3726, 86.34062
419.8547, 86.85275
420.3368, 88.01234
420.8189, 89.34327
421.3011, 89.96317
421.7832, 89.58149
422.2653, 89.76398
422.7474, 91.28989
423.2295, 93.03426
423.7116, 93.97103
424.1938, 94.08271
424.6759, 94.02977
425.1580, 94.29961
425.6401, 94.88103
426.1222, 95.58590
426.6043, 96.63467
427.0865, 97.53059
427.5686, 98.06175
428.0507, 98.39552
428.5328, 98.77660
429.0149, 99.29818
429.4970, 99.86169
429.9792, 100.2672
430.4613, 100.2764
430.9434, 100.6724
431.4255, 101.8483
431.9076, 102.9987
432.3897, 103.7431
432.8719, 104.0547
433.3540, 104.0167
433.8361, 103.6167
434.3182, 102.9403
434.8003, 102.6134
435.2824, 102.7948
435.7646, 103.1120
436.2467, 103.7700
436.7288, 104.3592
437.2109, 104.3292
437.6930, 103.5007
438.1751, 102.4819
438.6573, 102.1708
439.1394, 102.6510
439.6215, 102.6252
440.1036, 101.5680
440.5857, 100.3397
441.0678, 99.50333
441.5500, 98.98438
442.0321, 98.46833
442.5142, 97.93847
442.9963, 97.25365
443.4784, 96.00941
443.9605, 94.11264
444.4427, 92.39869
444.9248, 91.51213
445.4069, 90.95468
445.8890, 89.83031
446.3711, 87.89774
446.8532, 85.96240
447.3354, 84.45966
447.8175, 83.27980
448.2996, 82.24426
448.7817, 81.34497
449.2638, 80.38645
449.7459, 79.07619
450.2281, 77.38494
450.7102, 76.07819
451.1923, 75.46479
451.6744, 74.99320
452.1565, 74.34138
452.6386, 73.54260
453.1208, 72.74550
453.6029, 72.01616
454.0850, 71.36376
454.5671, 70.81789
455.0492, 70.69972
455.5313, 70.23352
456.0135, 68.93546
456.4956, 67.60493
456.9777, 67.07172
457.4598, 67.30941
457.9419, 67.44566
458.4240, 66.52312
458.9062, 64.51576
459.3883, 63.50891
459.8704, 64.58997
460.3525, 65.49315
460.8346, 65.83942
461.3167, 65.69156
461.7989, 65.05672
462.2810, 63.92602
462.7631, 62.65036
463.2452, 61.76634
463.7273, 61.31992
464.2094, 60.98973
464.6916, 60.70587
465.1737, 60.57402
465.6558, 60.77384
466.1379, 61.20141
466.6200, 61.49638
467.1021, 61.42919
467.5843, 61.11635
468.0664, 60.71012
468.5485, 60.16650
469.0306, 59.86355
469.5127, 60.21827
469.9948, 60.76732
470.4770, 60.73216
470.9591, 59.91785
471.4412, 59.16205
471.9233, 58.98914
472.4054, 59.13194
472.8875, 59.02323
473.3697, 58.53949
473.8518, 58.20663
474.3339, 58.65479
474.8160, 59.85482
475.2981, 60.29055
475.7802, 59.09101
476.2624, 58.06257
476.7445, 58.22050
477.2266, 59.09043
477.7087, 59.80224
478.1908, 60.01814
478.6729, 59.81404
479.1551, 59.28731
479.6372, 58.14635
480.1193, 57.37189
480.6014, 56.99725
481.0835, 56.90063
481.5656, 57.17450
482.0478, 57.67841
482.5299, 58.11578
483.0120, 58.29871
483.4941, 58.25467
483.9762, 58.05733
484.4583, 57.60505
484.9405, 57.20774
485.4226, 56.93546
485.9047, 56.72910
486.3868, 56.55736
486.8689, 56.41191
487.3510, 56.28543
487.8332, 56.23058
488.3153, 56.20565
488.7974, 55.93316
489.2795, 55.24055
489.7616, 54.70383
490.2437, 54.77283
490.7259, 55.20551
491.2080, 55.72241
491.6901, 56.45186
492.1722, 56.90012
492.6543, 56.46933
493.1364, 55.45860
493.6186, 54.73101
494.1007, 54.51015
494.5828, 54.58695
495.0649, 54.79430
495.5470, 55.15415
496.0291, 55.33429
496.5113, 55.06609
496.9934, 54.85651
497.4755, 55.19674
497.9576, 55.83229
498.4397, 56.01348
498.9218, 55.34469
499.4040, 54.36775
499.8861, 54.36116
500.3682, 56.34013
500.8503, 57.41117
501.3324, 57.01512
501.8145, 56.30476
502.2967, 55.85614
502.7788, 55.72840
503.2609, 55.79549
503.7430, 55.98804
504.2251, 56.28623
504.7072, 56.63955
505.1894, 57.14596
505.6715, 57.48193
506.1536, 57.44630
506.6357, 57.29110
507.1178, 57.15031
507.5999, 57.05564
508.0821, 57.10631
508.5642, 57.58770
509.0463, 58.26681
509.5284, 58.40125
510.0105, 57.86430
510.4926, 57.14653
510.9748, 56.42809
511.4569, 55.77716
511.9390, 55.33837
512.4211, 55.18048
512.9032, 55.13060
513.3853, 55.21279
513.8674, 55.31831
514.3495, 55.23717
514.8317, 54.92194
515.3138, 54.52049
515.7959, 54.17470
516.2780, 53.88658
516.7601, 53.61285
517.2422, 53.09834
517.7244, 52.87739
518.2065, 53.45457
518.6886, 54.32940
519.1707, 54.73905
519.6528, 54.42674
520.1349, 53.80718
520.6171, 53.53359
521.0992, 53.73945
521.5813, 53.74517
522.0634, 53.14238
522.5455, 52.74966
523.0276, 53.10258
523.5098, 53.84526
523.9919, 54.24540
524.4740, 53.88311
524.9561, 53.32854
525.4382, 53.56145
525.9203, 54.60095
526.4025, 55.21435
526.8846, 54.93175
527.3667, 54.37321
527.8488, 54.16072
528.3309, 54.23440
528.8130, 54.20112
529.2952, 53.74640
529.7773, 53.28863
530.2594, 53.20187
530.7415, 53.45738
531.2236, 53.95473
531.7057, 54.72496
532.1879, 55.49354
532.6700, 55.71179
533.1521, 55.09836
533.6342, 54.54019
534.1163, 53.81506
534.5984, 53.35275
535.0806, 53.69574
535.5627, 54.56915
536.0448, 55.15640
536.5269, 54.92252
537.0090, 54.17923
537.4911, 53.89149
537.9733, 54.29120
538.4554, 54.63653
538.9375, 54.86144
539.4196, 54.99212
539.9017, 55.05950
540.3839, 55.05097
540.8660, 54.88714
541.3481, 54.26654
541.8302, 53.59473
542.3123, 54.04809
542.7944, 55.81297
543.2766, 57.04121
543.7587, 56.81146
544.2408, 55.81071
544.7229, 54.95332
545.2050, 54.20045
545.6871, 53.87213
546.1693, 54.45143
546.6514, 55.28241
547.1335, 55.63006
547.6156, 55.49417
548.0977, 55.26753
548.5798, 55.16638
549.0620, 55.18143
549.5441, 55.28158
550.0262, 55.51445
550.5083, 55.77472
550.9904, 56.15656
551.4725, 56.49362
551.9547, 56.63676
552.4368, 56.60659
552.9189, 56.51672
553.4010, 56.42109
553.8831, 56.36618
554.3652, 56.56717
554.8474, 57.12676
555.3295, 57.68133
555.8116, 58.11266
556.2937, 58.52559
556.7758, 59.05997
557.2579, 59.69503
557.7401, 60.16014
558.2222, 60.15108
558.7043, 59.92645
559.1864, 59.93089
559.6685, 60.17683
560.1506, 60.52807
560.6328, 60.96142
561.1149, 61.41614
561.5970, 61.76403
562.0791, 62.00023
562.5612, 62.16999
563.0433, 61.94693
563.5255, 61.90718
564.0076, 62.87244
564.4897, 64.57130
564.9718, 65.77508
565.4539, 65.63427
565.9360, 64.63882
566.4182, 64.47731
566.9003, 65.75630
567.3824, 66.73490
567.8645, 66.89528
568.3466, 67.09196
568.8287, 67.97231
569.3109, 69.41063
569.7930, 70.78293
570.2751, 71.70969
570.7572, 72.33223
571.2393, 72.77697
571.7214, 72.98031
572.2036, 73.78493
572.6857, 75.77908
573.1678, 78.13371
573.6499, 79.86808
574.1320, 80.99592
574.6141, 82.09859
575.0963, 83.32054
575.5784, 84.58476
576.0605, 85.88991
576.5426, 87.18581
577.0247, 88.37392
577.5068, 89.42062
577.9890, 90.22777
578.4711, 90.57192
578.9532, 90.15786
579.4353, 90.03114
579.9174, 90.54530
580.3995, 90.95839
580.8817, 90.70776
581.3638, 90.12504
581.8459, 89.91172
582.3280, 90.42400
582.8101, 91.23409
583.2922, 91.64970
583.7744, 91.64353
584.2565, 91.59486
584.7386, 91.40222
585.2207, 91.39449
585.7029, 91.94913
586.1850, 92.85640
586.6671, 93.59325
587.1492, 94.10226
587.6313, 94.31848
588.1135, 94.12487
588.5956, 93.61004
589.0777, 93.02571
589.5598, 92.44268
590.0419, 91.59801
590.5240, 90.14708
591.0062, 88.05701
591.4883, 86.26211
591.9704, 84.95262
592.4525, 83.66805
592.9346, 82.25166
593.4167, 80.82465
593.8989, 79.53577
594.3810, 78.41512
594.8631, 77.34874
595.3452, 76.24949
595.8273, 75.11214
596.3094, 73.82703
596.7916, 72.29834
597.2737, 70.82914
597.7558, 69.31094
598.2379, 68.04013
598.7200, 67.52972
599.2021, 67.93322
599.6843, 68.11891
600.1664, 67.28174
600.6485, 65.99378
601.1306, 64.89627
601.6127, 64.08772
602.0948, 63.86936
602.5770, 64.52705
603.0591, 65.69913
603.5412, 66.37914
604.0233, 66.01248
604.5054, 66.05925
604.9875, 66.83238
605.4697, 67.73794
605.9518, 68.27624
606.4339, 68.62488
606.9160, 69.34766
607.3981, 70.79982
607.8802, 72.59666
608.3624, 73.93084
608.8445, 74.72069
609.3266, 75.69296
609.8087, 77.12038
610.2908, 78.54436
610.7729, 79.64036
611.2551, 80.47074
611.7372, 81.20484
612.2193, 81.71075
612.7014, 82.35123
613.1835, 83.53867
613.6656, 85.03032
614.1478, 86.24334
614.6299, 87.03145
615.1120, 87.77428
615.5941, 88.82619
616.0762, 90.18987
616.5583, 91.82966
617.0405, 93.78834
617.5226, 95.98021
618.0047, 98.65660
618.4868, 101.4107
618.9689, 103.8000
619.4510, 105.7913
619.9332, 107.7172
620.4153, 109.8331
620.8974, 112.1155
621.3795, 114.5917
621.8616, 117.4101
622.3438, 119.6643
622.8259, 121.1761
623.3080, 121.7821
623.7901, 121.4015
624.2722, 120.0548
624.7543, 117.6915
625.2365, 113.7949
625.7186, 109.2863
626.2007, 104.8476
626.6828, 100.4523
627.1649, 95.81457
627.6470, 90.77467
628.1292, 85.91301
628.6113, 82.19094
629.0934, 79.88754
629.5755, 77.53333
630.0576, 74.64861
630.5397, 72.24578
631.0219, 70.91270
631.5040, 70.13455
631.9861, 69.15681
632.4682, 67.75261
632.9503, 66.41816
633.4324, 65.66350
633.9146, 65.34192
634.3967, 65.00686
634.8788, 64.62180
635.3609, 64.26328
635.8430, 63.99810
636.3251, 63.77884
636.8073, 63.43182
637.2894, 62.73792
637.7715, 62.43867
638.2536, 63.13877
638.7357, 63.86898
639.2178, 63.74095
639.7000, 62.97004
640.1821, 62.33821
640.6642, 62.26969
641.1463, 62.57079
641.6284, 62.90096
642.1105, 63.29341
642.5927, 63.53078
643.0748, 63.59336
643.5569, 63.48745
644.0390, 63.16311
644.5211, 62.69911
645.0032, 62.24172
645.4854, 61.79192
645.9675, 61.43357
646.4496, 61.23266
646.9317, 61.15786
647.4138, 61.17085
647.8959, 61.26049
648.3781, 61.37252
648.8602, 61.46048
649.3423, 61.54347
649.8244, 61.70967
650.3065, 62.07837
650.7886, 62.35180
651.2708, 62.50388
651.7529, 62.57739
652.2350, 62.49813
652.7171, 62.36184
653.1992, 62.46384
653.6813, 63.07867
654.1635, 63.70557
654.6456, 63.33123
655.1277, 62.07416
655.6098, 61.51013
656.0919, 62.10540
656.5740, 62.97031
657.0562, 63.46833
657.5383, 63.57859
658.0204, 63.37110
658.5025, 62.43880
658.9846, 61.69856
659.4667, 61.46179
659.9489, 61.52229
660.4310, 61.74398
660.9131, 62.05783
661.3952, 62.34974
661.8773, 62.53721
662.3594, 62.64244
662.8416, 62.74646
663.3237, 62.86589
663.8058, 62.92976
664.2879, 62.98928
664.7700, 62.91570
665.2521, 62.45382
665.7343, 61.77067
666.2164, 61.43516
666.6985, 61.68791
667.1806, 62.22276
667.6627, 63.15118
668.1448, 64.12444
668.6270, 64.33909
669.1091, 63.68258
669.5912, 62.88552
670.0733, 62.58002
670.5554, 62.70344
671.0375, 62.78871
671.5197, 62.69180
672.0018, 62.80045
672.4839, 63.55599
672.9660, 64.17239
673.4481, 63.87490
673.9302, 62.92298
674.4124, 62.29596
674.8945, 62.59812
675.3766, 63.27197
675.8587, 63.66623
676.3408, 63.82623
676.8229, 64.00220
677.3051, 64.27773
677.7872, 64.35903
678.2693, 63.88164
678.7514, 62.92834
679.2335, 62.46686
679.7156, 62.86960
680.1978, 63.20819
680.6799, 63.24171
681.1620, 63.24401
681.6441, 63.49105
682.1262, 63.94133
682.6083, 64.36806
683.0905, 64.67815
683.5726, 64.77599
684.0547, 64.31188
684.5368, 63.28904
685.0189, 62.68653
685.5010, 62.76653
685.9832, 63.13409
686.4653, 63.53457
686.9474, 63.95874
687.4295, 64.35583
687.9116, 64.92165
688.3937, 65.18955
688.8759, 64.89920
689.3580, 64.33095
689.8401, 63.51348
690.3222, 62.64927
690.8043, 62.35888
691.2864, 63.11021
691.7686, 64.44730
692.2507, 65.30841
692.7328, 65.66146
693.2149, 65.71148
693.6970, 65.27481
694.1791, 64.84047
694.6613, 64.76553
695.1434, 64.93925
695.6255, 65.15121
696.1076, 65.48075
696.5897, 65.61862
697.0718, 65.27991
697.5540, 64.75648
698.0361, 64.22891
698.5182, 63.82816
699.0003, 64.04666
699.4824, 65.27190
699.9645, 66.82745
700.4467, 66.80444
700.9288, 64.44180
701.4109, 63.38725
701.8930, 64.92459
702.3751, 66.48431
702.8572, 66.73003
703.3394, 66.17905
703.8215, 65.65668
704.3036, 65.29694
704.7857, 65.11795
705.2678, 65.23353
705.7499, 65.48372
706.2321, 65.62227
706.7142, 65.66605
707.1963, 65.84077
707.6784, 66.28345
708.1605, 66.81292
708.6426, 67.05180
709.1248, 66.89181
709.6069, 66.83622
710.0890, 67.23957
710.5711, 67.31596
711.0532, 66.40666
711.5353, 65.20432
712.0175, 64.60393
712.4996, 64.78860
712.9817, 65.32056
713.4638, 66.24318
713.9459, 67.17167
714.4280, 67.53049
714.9102, 67.36776
715.3923, 66.96098
715.8744, 66.39352
716.3565, 65.91372
716.8386, 65.90606
717.3207, 66.43240
717.8029, 66.98006
718.2850, 67.69360
718.7671, 68.23653
719.2492, 68.50243
719.7313, 68.58458
720.2134, 68.53931
720.6956, 68.38994
721.1777, 68.22325
721.6598, 67.97729
722.1419, 67.81853
722.6240, 68.09641
723.1061, 68.67648
723.5883, 69.02462
724.0704, 68.98086
724.5525, 68.69877
725.0346, 68.29759
725.5167, 67.78549
725.9988, 67.46400
726.4810, 67.53984
726.9631, 67.50874
727.4452, 66.95763
727.9273, 66.56540
728.4094, 67.06703
728.8915, 68.23678
729.3737, 69.12090
729.8558, 69.25175
730.3379, 68.97085
730.8200, 68.40018
731.3021, 67.72646
731.7842, 67.56238
732.2664, 68.00513
732.7485, 68.48455
733.2306, 68.57671
733.7127, 68.36047
734.1948, 68.13741
734.6769, 67.84520
735.1591, 67.66335
735.6412, 67.53094
736.1233, 67.56538
736.6054, 67.90031
737.0875, 68.42741
737.5696, 69.00100
738.0518, 69.61800
738.5339, 70.02215
739.0160, 69.80095
739.4981, 69.31065
739.9802, 69.28807
740.4623, 69.72034
740.9445, 69.99800
741.4266, 69.78577
741.9087, 69.40459
742.3908, 69.48356
742.8729, 70.24199
743.3550, 70.50727
743.8372, 69.80331
744.3193, 69.16575
744.8014, 68.70022
745.2835, 68.53878
745.7656, 69.01749
746.2477, 70.11697
746.7299, 70.93850
747.2120, 70.65628
747.6941, 70.09399
748.1762, 70.26366
748.6583, 70.96347
749.1404, 71.62128
749.6226, 72.06574
750.1047, 72.10194
750.5868, 71.41747
751.0689, 70.13219
751.5510, 69.58752
752.0331, 70.32401
752.5153, 70.76439
752.9974, 70.29328
753.4795, 69.76936
753.9616, 69.76802
754.4437, 70.16994
754.9258, 70.52247
755.4080, 70.65534
755.8901, 70.77433
756.3722, 70.96919
756.8543, 71.26060
757.3364, 71.78133
757.8185, 72.46864
758.3007, 72.98966
758.7828, 73.13881
759.2649, 73.01232
759.7470, 72.76739
760.2291, 72.33241
760.7112, 72.13487
761.1934, 72.34425
761.6755, 72.54266
762.1576, 72.39397
762.6397, 72.18994
763.1218, 72.41617
763.6039, 73.19608
764.0861, 73.61736
764.5682, 73.09167
765.0503, 72.34382
765.5324, 71.83560
766.0145, 71.56157
766.4966, 71.45334
766.9788, 71.48653
767.4609, 71.65696
767.9430, 71.98528
768.4251, 72.43713
768.9072, 72.90923
769.3893, 73.48090
769.8715, 73.59092
770.3536, 72.77279
770.8357, 71.91996
771.3178, 72.02811
771.7999, 72.87967
772.2820, 73.34241
772.7642, 72.95700
773.2463, 72.71182
773.7284, 73.08552
774.2105, 73.54602
774.6926, 73.58942
775.1747, 73.28476
775.6569, 72.96609
776.1390, 72.79459
776.6211, 72.72623
777.1032, 72.67080
777.5853, 72.65482
778.0674, 72.91405
778.5496, 73.51665
779.0317, 73.88828
779.5138, 73.59702
779.9959, 73.15696
780.4780, 73.61545
780.9601, 75.47556
781.4423, 76.14259
781.9244, 74.36933
782.4065, 72.97257
782.8886, 73.24844
783.3707, 74.10772
783.8528, 74.28391
784.3350, 73.69032
784.8171, 73.20144
785.2992, 73.43746
785.7813, 73.95283
786.2634, 74.23450
786.7455, 74.30705
787.2277, 74.12997
787.7098, 73.70742
788.1919, 73.57527
788.6740, 74.23129
789.1561, 75.38331
789.6382, 75.91996
790.1204, 75.49921
790.6025, 75.28318
791.0846, 75.37913
791.5667, 75.63805
792.0488, 76.34337
792.5309, 77.03697
793.0131, 76.88741
793.4952, 75.63284
793.9773, 74.48719
794.4594, 73.79458
794.9415, 73.64558
795.4236, 74.50492
795.9058, 75.92083
796.3879, 76.91180
796.8700, 77.17226
797.3521, 76.98122
797.8342, 76.50916
798.3163, 75.88367
798.7985, 75.89432
799.2806, 76.71872
799.7627, 77.10026
800.2448, 76.51865
800.7269, 75.81280
801.2090, 75.75648
801.6912, 76.21813
802.1733, 76.43438
802.6554, 76.23718
803.1375, 76.05782
803.6196, 75.85194
804.1017, 75.80073
804.5839, 76.09799
805.0660, 76.64220
805.5481, 77.32103
806.0302, 78.09932
806.5123, 78.54749
806.9944, 77.95654
807.4766, 76.79467
807.9587, 76.10811
808.4408, 75.93098
808.9229, 76.32585
809.4050, 77.41255
809.8871, 78.43938
810.3693, 78.38980
810.8514, 77.28254
811.3335, 77.02855
811.8156, 78.42061
812.2977, 79.34008
812.7798, 79.14174
813.2620, 78.69466
813.7441, 78.42192
814.2262, 78.37168
814.7083, 78.62114
815.1904, 79.34872
815.6725, 79.97880
816.1547, 80.11559
816.6368, 80.03695
817.1189, 80.03102
817.6010, 80.10659
818.0831, 80.22037
818.5652, 80.34937
819.0474, 80.37721
819.5295, 80.06775
820.0116, 79.48335
820.4937, 79.24491
820.9758, 79.41679
821.4579, 79.55005
821.9401, 79.50105
822.4222, 79.35931
822.9043, 79.14011
823.3864, 78.86304
823.8685, 78.93411
824.3506, 79.96071
824.8328, 80.47018
825.3149, 79.66731
825.7970, 78.78558
826.2791, 78.82739
826.7612, 79.50455
827.2433, 79.95511
827.7255, 79.84244
828.2076, 79.67876
828.6897, 80.06371
829.1718, 80.59627
829.6539, 80.49908
830.1360, 79.88270
830.6182, 79.43293
831.1003, 79.41096
831.5824, 79.50602
832.0645, 79.26765
832.5466, 78.77668
833.0287, 79.22491
833.5109, 81.16933
833.9930, 82.34216
834.4751, 81.89399
834.9572, 81.00009
835.4393, 80.43491
835.9214, 80.17927
836.4036, 80.22735
836.8857, 80.72431
837.3678, 81.23042
837.8499, 81.71879
838.3320, 82.10409
838.8141, 82.28269
839.2963, 82.32270
839.7784, 82.34319
840.2605, 82.38340
840.7426, 82.42477
841.2247, 82.51180
841.7068, 82.56136
842.1890, 82.37838
842.6711, 81.99471
843.1532, 81.51711
843.6353, 80.96118
844.1174, 80.68346
844.5995, 81.07246
845.0817, 81.92114
845.5638, 82.22891
846.0459, 81.66041
846.5280, 81.50858
847.0101, 82.30242
847.4922, 82.95352
847.9744, 82.64221
848.4565, 81.95090
848.9386, 81.82458
849.4207, 82.43005
849.9028, 82.90165
850.3849, 82.96037
850.8671, 82.87114
851.3492, 82.68773
851.8313, 82.50713
852.3134, 82.42371
852.7955, 82.46600
853.2776, 82.67794
853.7598, 83.18490
854.2419, 83.66436
854.7240, 83.50697
855.2061, 82.88506
855.6882, 82.43985
856.1703, 82.25648
856.6525, 82.45161
857.1346, 83.18226
857.6167, 83.97523
858.0988, 83.81296
858.5809, 82.43045
859.0630, 81.91124
859.5452, 82.90302
860.0273, 83.60245
860.5094, 83.10690
860.9915, 82.38053
861.4736, 82.31606
861.9557, 82.81815
862.4379, 83.22053
862.9200, 83.31163
863.4021, 83.42258
863.8842, 83.78381
864.3663, 84.11642
864.8484, 84.22713
865.3306, 84.09260
865.8127, 83.63781
866.2948, 82.84033
866.7769, 82.12749
867.2590, 81.88152
867.7411, 82.04234
868.2233, 82.71077
868.7054, 83.73863
869.1875, 84.27219
869.6696, 84.06271
870.1517, 83.69113
870.6339, 83.72393
871.1160, 84.02696
871.5981, 83.92784
872.0802, 83.20216
872.5623, 82.91733
873.0444, 83.43775
873.5266, 83.97490
874.0087, 84.04658
874.4908, 83.87390
874.9729, 83.85440
875.4550, 84.00600
875.9371, 84.21473
876.4193, 84.63264
876.9014, 84.90565
877.3835, 84.83362
877.8656, 84.57355
878.3477, 84.27892
878.8298, 83.96860
879.3120, 83.55578
879.7941, 82.88743
880.2762, 82.39938
880.7583, 82.60818
881.2404, 83.24658
881.7225, 84.03255
882.2047, 84.82003
882.6868, 85.12948
883.1689, 84.75530
883.6510, 84.08079
884.1331, 83.52932
884.6152, 83.11469
885.0974, 82.95072
885.5795, 83.03751
886.0616, 83.45475
886.5437, 84.42090
887.0258, 85.22305
887.5079, 85.24172
887.9901, 84.63498
888.4722, 84.01729
888.9543, 83.13602
889.4364, 82.73398
889.9185, 83.06627
890.4006, 83.57103
890.8828, 84.22471
891.3649, 84.81564
891.8470, 85.09438
892.3291, 85.04185
892.8112, 84.85420
893.2933, 84.28579
893.7755, 83.97353
894.2576, 84.69348
894.7397, 85.66148
895.2218, 85.79693
895.7039, 85.20200
896.1860, 84.71172
896.6682, 84.73122
897.1503, 84.82707
897.6324, 84.34875
898.1145, 83.54545
898.5966, 83.13522
899.0787, 83.12072
899.5609, 83.37519
900.0430, 83.87956
900.5251, 84.35184
901.0072, 84.49641
901.4893, 84.40199
901.9714, 84.54221
902.4536, 85.06929
902.9357, 85.23538
903.4178, 84.72023
903.8999, 84.29939
904.3820, 84.45930
904.8641, 84.92107
905.3463, 85.23913
905.8284, 85.41690
906.3105, 85.44096
906.7926, 85.17836
907.2747, 84.93195
907.7568, 84.70212
908.2390, 84.60134
908.7211, 84.76965
909.2032, 85.14964
909.6853, 85.59158
910.1674, 86.09820
910.6495, 86.42597
911.1317, 86.21786
911.6138, 85.89783
912.0959, 85.96577
912.5780, 86.31967
913.0601, 86.69793
913.5422, 87.00741
914.0244, 87.18774
914.5065, 87.13215
914.9886, 87.00746
915.4707, 87.18069
915.9528, 87.61587
916.4349, 88.13732
916.9171, 88.72099
917.3992, 89.18615
917.8813, 89.40958
918.3634, 89.55566
918.8455, 89.90084
919.3276, 90.45393
919.8098, 91.08495
920.2919, 91.86440
920.7740, 92.55325
921.2561, 93.13268
921.7382, 93.55656
922.2203, 93.57951
922.7025, 93.41113
923.1846, 93.87460
923.6667, 95.30167
924.1488, 96.63673
924.6309, 98.02750
925.1130, 99.02986
925.5952, 99.08142
926.0773, 98.85635
926.5594, 99.15766
927.0415, 100.0458
927.5236, 101.0703
928.0057, 102.0978
928.4879, 103.1249
928.9700, 103.8588
929.4521, 104.7940
929.9342, 106.4833
930.4163, 108.9103
930.8984, 111.8228
931.3806, 115.1404
931.8627, 119.1040
932.3448, 123.8844
932.8269, 129.5240
933.3090, 135.3820
933.7911, 142.0884
934.2733, 152.3778
934.7554, 166.7333
935.2375, 183.7184
935.7196, 202.4368
936.2017, 222.7423
936.6838, 245.0280
937.1660, 269.6732
937.6481, 289.3634
938.1302, 303.6854
938.6123, 314.2925
939.0944, 320.2991
939.5765, 325.6652
940.0587, 333.8603
940.5408, 344.9971
941.0229, 359.3907
941.5050, 377.2328
941.9871, 397.9519
942.4692, 423.1099
942.9514, 449.3129
943.4335, 474.1220
943.9156, 499.7378
944.3977, 528.4251
944.8798, 560.3193
945.3619, 596.6301
945.8441, 634.6523
946.3262, 680.8430
946.8083, 736.2204
947.2904, 801.6639
947.7725, 887.1682
948.2546, 981.8400
948.7368, 1070.699
949.2189, 1150.372
949.7010, 1189.192
950.1831, 1164.137
950.6652, 1090.885
951.1473, 965.4543
951.6295, 811.7853
952.1116, 663.7300
952.5937, 530.9736
953.0758, 421.9827
953.5579, 341.3995
954.0400, 282.4152
954.5222, 239.2944
955.0043, 209.4224
955.4864, 186.0283
955.9685, 168.6063
956.4506, 155.3593
956.9327, 145.7508
957.4149, 138.3669
957.8970, 132.0603
958.3791, 126.6787
958.8612, 121.5270
959.3433, 117.3652
959.8254, 112.8912
960.3076, 110.8081
960.7897, 109.1474
961.2718, 107.4703
961.7539, 105.9047
962.2360, 104.6489
962.7181, 103.6851
963.2003, 102.6802
963.6824, 101.4942
964.1645, 100.5639
964.6466, 100.1212
965.1287, 99.70531
965.6108, 98.93848
966.0930, 98.11213
966.5751, 97.73988
967.0572, 97.89399
967.5393, 97.80724
968.0214, 97.17801
968.5035, 96.59730
968.9857, 96.22783
969.4678, 95.96117
969.9499, 95.80186
970.4320, 95.65178
970.9141, 95.32434
971.3962, 94.77433
971.8784, 94.07996
972.3605, 93.02174
972.8426, 92.11144
973.3247, 91.68888
973.8068, 91.63220
974.2889, 91.91651
974.7711, 92.40405
975.2532, 92.76878
975.7353, 92.87528
976.2174, 92.72144
976.6995, 92.04021
977.1816, 91.28177
977.6638, 91.18196
978.1459, 91.51969
978.6280, 91.63978
979.1101, 91.44077
979.5922, 91.37388
980.0743, 91.79585
980.5565, 92.33341
981.0386, 92.29038
981.5207, 91.85455
982.0028, 91.66035
982.4849, 91.74220
982.9670, 92.07729
983.4492, 92.65956
983.9313, 93.28099
984.4134, 93.75797
984.8955, 94.09904
985.3776, 94.20065
985.8597, 94.03637
986.3419, 94.63718
986.8240, 96.23665
987.3061, 97.63123
987.7882, 98.30034
988.2703, 98.53062
988.7524, 98.56028
989.2346, 98.46580
989.7167, 99.09115
990.1988, 100.7083
990.6809, 102.1854
991.1630, 103.1215
991.6451, 104.4688
992.1273, 106.6712
992.6094, 109.5973
993.0915, 113.2482
993.5736, 117.6820
994.0557, 121.5352
994.5378, 124.1750
995.0200, 127.1306
995.5021, 131.0892
995.9842, 134.8126
996.4663, 137.2177
996.9484, 139.1431
997.4305, 141.9688
997.9127, 145.8196
998.3948, 150.1016
998.8769, 155.2370
999.3590, 160.1249
999.8411, 165.6145
1000.323, 169.6739
1000.805, 169.7744
1001.287, 167.5125
1001.770, 166.0108
1002.252, 165.9223
1002.734, 166.8437
1003.216, 167.9155
1003.698, 170.7638
1004.180, 176.3334
1004.662, 184.1782
1005.144, 195.0175
1005.627, 207.5011
1006.109, 219.5422
1006.591, 230.6800
1007.073, 235.8434
1007.555, 230.3371
1008.037, 218.3533
1008.519, 201.2692
1009.001, 181.8196
1009.483, 162.9380
1009.966, 145.9009
1010.448, 132.6559
1010.930, 124.2955
1011.412, 118.5715
1011.894, 113.5738
1012.376, 109.6344
1012.858, 107.5703
1013.340, 106.8952
1013.823, 106.3765
1014.305, 105.8190
1014.787, 105.7053
1015.269, 106.3340
1015.751, 107.2005
1016.233, 107.6303
1016.715, 107.7532
1017.197, 107.9288
1017.679, 108.1398
1018.162, 108.3598
1018.644, 108.5521
1019.126, 108.4425
1019.608, 107.8776
1020.090, 106.7111
1020.572, 104.2639
1021.054, 100.8574
1021.536, 98.87142
1022.018, 98.27430
1022.501, 97.51582
1022.983, 96.19526
1023.465, 94.98872
1023.947, 94.40520
1024.429, 94.18574
1024.911, 93.79711
1025.393, 93.23527
1025.875, 92.54356
1026.358, 91.64256
1026.840, 91.38913
1027.322, 92.16948
1027.804, 92.88769
1028.286, 92.66921
1028.768, 91.83276
1029.250, 91.09322
1029.732, 90.38502
1030.214, 90.39275
1030.697, 91.38708
1031.179, 92.19325
1031.661, 92.58030
1032.143, 92.49917
1032.625, 91.75872
1033.107, 90.64481
1033.589, 89.93922
1034.071, 89.60725
1034.553, 89.90859
1035.036, 91.33826
1035.518, 92.31507
1036.000, 92.24967
1036.482, 91.88242
1036.964, 91.73109
1037.446, 91.74973
1037.928, 91.85225
1038.410, 92.21738
1038.893, 92.00866
1039.375, 90.37976
1039.857, 89.54088
1040.339, 90.65046
1040.821, 92.05766
1041.303, 92.56945
1041.785, 92.40823
1042.267, 92.14411
1042.750, 91.67818
1043.232, 91.43876
1043.714, 91.63171
1044.196, 91.77846
1044.678, 91.81511
1045.160, 91.72709
1045.642, 91.32718
1046.124, 90.82899
1046.606, 90.77031
1047.089, 91.28781
1047.571, 91.79215
1048.053, 92.18461
1048.535, 92.60451
1049.017, 93.30553
1049.499, 93.84994
1049.981, 93.72429
1050.463, 93.23648
1050.945, 93.03891
1051.428, 93.19414
1051.910, 93.71141
1052.392, 94.60327
1052.874, 95.84196
1053.356, 97.86145
1053.838, 99.81762
1054.320, 100.9953
1054.802, 101.6377
1055.285, 102.1603
1055.767, 102.5657
1056.249, 103.6292
1056.731, 106.5111
1057.213, 108.8107
1057.695, 109.0978
1058.177, 108.9885
1058.659, 109.6255
1059.141, 110.8421
1059.624, 112.1824
1060.106, 113.5633
1060.588, 115.0318
1061.070, 116.5791
1061.552, 118.2514
1062.034, 120.3543
1062.516, 122.3078
1062.998, 123.1991
1063.480, 123.8090
1063.963, 125.3918
1064.445, 128.1633
1064.927, 131.7737
1065.409, 136.7997
1065.891, 141.6837
1066.373, 145.9554
1066.855, 149.6607
1067.337, 153.6979
1067.820, 156.7564
1068.302, 156.7524
1068.784, 153.5137
1069.266, 148.6622
1069.748, 141.9583
1070.230, 135.2747
1070.712, 129.2700
1071.194, 123.7306
1071.677, 118.1441
1072.159, 113.0677
1072.641, 109.3298
1073.123, 106.9255
1073.605, 105.3113
1074.087, 104.4727
1074.569, 103.9471
1075.051, 103.7407
1075.533, 103.5392
1076.016, 102.9920
1076.498, 102.3928
1076.980, 102.1394
1077.462, 102.2269
1077.944, 102.4460
1078.426, 102.8194
1078.908, 102.9822
1079.390, 102.6751
1079.873, 102.2033
1080.355, 101.9389
1080.837, 101.5004
1081.319, 100.1792
1081.801, 98.28775
1082.283, 96.88482
1082.765, 96.30309
1083.247, 96.04663
1083.729, 96.12251
1084.212, 96.18030
1084.694, 96.16972
1085.176, 95.91420
1085.658, 95.01106
1086.140, 93.77355
1086.622, 92.89497
1087.104, 92.53603
1087.586, 92.58670
1088.068, 93.51685
1088.551, 94.18600
1089.033, 93.78220
1089.515, 93.09686
1089.997, 92.74240
1090.479, 92.66987
1090.961, 92.71870
1091.443, 92.84574
1091.925, 92.89939
1092.408, 92.68631
1092.890, 92.57697
1093.372, 92.81191
1093.854, 93.10899
1094.336, 93.42085
1094.818, 93.57558
1095.300, 93.24180
1095.782, 92.46739
1096.265, 91.84232
1096.747, 91.45547
1097.229, 91.39515
1097.711, 92.05149
1098.193, 92.63432
1098.675, 92.64046
1099.157, 92.34595
1099.639, 91.90465
1100.121, 91.47182
1100.604, 91.58295
1101.086, 92.66908
1101.568, 93.29893
1102.050, 92.86002
1102.532, 92.18775
1103.014, 91.07642
1103.496, 90.37926
1103.978, 91.29021
1104.460, 93.14644
1104.943, 94.10865
1105.425, 93.74195
1105.907, 93.56053
1106.389, 94.27556
1106.871, 94.60604
1107.353, 93.76491
1107.835, 92.83666
1108.317, 92.57206
1108.800, 92.73150
1109.282, 92.91921
1109.764, 93.11250
1110.246, 93.16857
1110.728, 93.16099
1111.210, 92.88583
1111.692, 91.73075
1112.174, 90.97873
1112.656, 91.56075
1113.139, 92.67022
1113.621, 93.46274
1114.103, 93.91048
1114.585, 93.88439
1115.067, 93.00185
1115.549, 92.33809
1116.031, 91.99904
1116.513, 91.73276
1116.995, 91.48317
1117.478, 91.24960
1117.960, 90.95027
1118.442, 90.68621
1118.924, 90.81890
1119.406, 91.52759
1119.888, 91.90626
1120.370, 91.72700
1120.852, 91.69693
1121.335, 92.00764
1121.817, 92.43188
1122.299, 92.88137
1122.781, 93.28819
1123.263, 93.54471
1123.745, 93.65190
1124.227, 93.47861
1124.709, 92.94271
1125.192, 92.36000
1125.674, 91.60343
1126.156, 91.38101
1126.638, 92.20434
1127.120, 93.24989
1127.602, 93.54185
1128.084, 93.21157
1128.566, 92.82232
1129.048, 92.31904
1129.531, 92.33792
1130.013, 92.99486
1130.495, 93.53259
1130.977, 93.71693
1131.459, 93.71478
1131.941, 93.67326
1132.423, 93.49751
1132.905, 92.85215
1133.387, 91.79698
1133.870, 91.31100
1134.352, 91.37368
1134.834, 91.40268
1135.316, 91.28953
1135.798, 91.42317
1136.280, 92.03162
1136.762, 92.72234
1137.244, 92.95832
1137.727, 92.91309
1138.209, 93.23748
1138.691, 93.75679
1139.173, 93.51592
1139.655, 92.60836
1140.137, 92.26061
1140.619, 92.84830
1141.101, 93.41863
1141.583, 93.15047
1142.066, 92.58403
1142.548, 92.56157
1143.030, 92.84029
1143.512, 92.87353
1143.994, 92.78611
1144.476, 93.14957
1144.958, 93.89983
1145.440, 94.13472
1145.922, 93.36143
1146.405, 92.56455
1146.887, 92.83907
1147.369, 93.41194
1147.851, 93.54424
1148.333, 93.30466
1148.815, 92.51103
1149.297, 91.52332
1149.779, 91.19859
1150.262, 91.74101
1150.744, 92.53514
1151.226, 93.55326
1151.708, 94.18407
1152.190, 93.74306
1152.672, 93.03548
1153.154, 92.68432
1153.636, 92.55014
1154.119, 92.29292
1154.601, 91.96357
1155.083, 91.98269
1155.565, 92.55127
1156.047, 93.16701
1156.529, 94.00619
1157.011, 94.42069
1157.493, 93.85107
1157.975, 92.99480
1158.458, 92.32816
1158.940, 91.85737
1159.422, 91.46928
1159.904, 91.13831
1160.386, 91.16970
1160.868, 92.09703
1161.350, 92.60265
1161.832, 92.08333
1162.314, 91.73557
1162.797, 92.41123
1163.279, 93.12622
1163.761, 92.66232
1164.243, 91.34495
1164.725, 90.70897
1165.207, 90.85870
1165.689, 91.39318
1166.171, 92.57560
1166.654, 93.31433
1167.136, 93.20972
1167.618, 93.01823
1168.100, 93.21491
1168.582, 93.68281
1169.064, 94.30122
1169.546, 95.00246
1170.028, 95.08640
1170.510, 94.53788
1170.993, 93.86427
1171.475, 93.10841
1171.957, 93.01158
1172.439, 93.87631
1172.921, 94.69410
1173.403, 94.50911
1173.885, 93.85437
1174.367, 93.83452
1174.849, 94.22672
1175.332, 94.25814
1175.814, 93.99807
1176.296, 93.73567
1176.778, 93.57204
1177.260, 93.74783
1177.742, 94.37460
1178.224, 94.91604
1178.706, 94.72643
1179.189, 95.06789
1179.671, 94.50092
1180.153, 94.80567
1180.635, 94.40953
1181.117, 93.60812
1181.599, 93.18032
1182.081, 93.25129
1182.563, 93.40131
1183.046, 93.41689
1183.528, 93.53902
1184.010, 94.14785
1184.492, 94.63609
1184.974, 94.46892
1185.456, 94.06966
1185.938, 93.84201
1186.420, 93.77689
1186.902, 93.73501
1187.385, 93.69070
1187.867, 93.74696
1188.349, 93.88857
1188.831, 94.18555
1189.313, 95.23624
1189.795, 95.74668
1190.277, 94.53960
1190.759, 92.94859
1191.241, 92.27554
1191.724, 92.34519
1192.206, 92.49907
1192.688, 92.82082
1193.170, 92.79501
1193.652, 92.09920
1194.134, 92.16440
1194.616, 93.57800
1195.098, 94.75223
1195.581, 94.75961
1196.063, 94.16615
1196.545, 93.67461
1197.027, 93.32642
1197.509, 93.30583
1197.991, 93.60509
1198.473, 94.24631
1198.955, 95.16423
1199.438, 95.47871
1199.920, 94.97753
1200.402, 94.25547
1200.884, 93.70135
1201.366, 93.19979
1201.848, 92.32544
1202.330, 91.57534
1202.812, 92.21741
1203.294, 93.56402
1203.776, 94.36472
1204.259, 94.50288
1204.741, 94.00219
1205.223, 92.99705
1205.705, 92.26351
1206.187, 92.24046
1206.669, 92.61589
1207.151, 93.61412
1207.633, 94.44639
1208.116, 94.14603
1208.598, 93.59721
1209.080, 94.11193
1209.562, 95.23035
1210.044, 95.34971
1210.526, 94.07391
1211.008, 93.46241
1211.490, 94.67254
1211.973, 95.41531
1212.455, 94.77011
1212.937, 94.20142
1213.419, 94.52278
1213.901, 95.01629
1214.383, 94.88998
1214.865, 94.39113
1215.347, 94.42467
1215.829, 94.26405
1216.312, 94.17895
1216.794, 94.46966
1217.276, 94.25407
1217.758, 94.97519
1218.240, 95.21027
1218.722, 94.18654
1219.204, 92.93917
1219.686, 92.62179
1220.168, 92.94024
1220.651, 93.28258
1221.133, 93.58428
1221.615, 93.41766
1222.097, 92.95441
1222.579, 93.02453
1223.061, 93.67896
1223.543, 94.25905
1224.025, 94.45071
1224.508, 94.38888
1224.990, 94.09086
1225.472, 93.71989
1225.954, 93.41328
1226.436, 93.14674
1226.918, 92.67055
1227.400, 92.33566
1227.882, 92.97511
1228.365, 94.38145
1228.847, 95.20506
1229.329, 94.95004
1229.811, 94.61231
1230.293, 94.37760
1230.775, 94.22922
1231.257, 94.28483
1231.739, 94.29154
1232.221, 94.19465
1232.703, 93.86270
1233.186, 92.82989
1233.668, 93.21197
1234.150, 91.36246
1234.632, 93.42358
1235.114, 94.58291
1235.596, 94.65095
1236.078, 94.57497
1236.560, 94.53671
1237.043, 94.66062
1237.525, 95.05977
1238.007, 95.37164
1238.489, 95.07867
1238.971, 94.41407
1239.453, 94.00539
1239.935, 93.77310
1240.417, 93.37307
1240.900, 92.91230
1241.382, 92.87075
1241.864, 93.28506
1242.346, 93.85551
1242.828, 94.45613
1243.310, 94.70216
1243.792, 93.88604
1244.274, 93.06999
1244.756, 93.11527
1245.239, 93.55513
1245.721, 94.21050
1246.203, 94.78201
1246.685, 94.71152
1247.167, 94.14148
1247.649, 94.04395
1248.131, 94.76762
1248.613, 95.35045
1249.095, 96.09202
1249.578, 95.99549
1250.060, 94.14925
1250.542, 92.63582
1251.024, 92.63069
1251.506, 93.27824
1251.988, 93.63774
1252.470, 93.72436
1252.952, 93.44608
1253.435, 92.77477
1253.917, 93.15056
1254.399, 94.53843
1254.881, 95.14875
1255.363, 94.71215
1255.845, 94.45055
1256.327, 94.91972
1256.809, 95.27892
1257.292, 94.59874
1257.774, 93.70273
1258.256, 93.72829
1258.738, 94.25015
1259.220, 94.95844
1259.702, 95.54190
1260.184, 95.45357
1260.666, 94.82377
1261.148, 94.16020
1261.630, 93.59776
1262.113, 93.36572
1262.595, 93.81362
1263.077, 94.20142
1263.559, 94.43996
1264.041, 94.42361
1264.523, 93.88257
1265.005, 93.26796
1265.487, 92.94360
1265.970, 92.84483
1266.452, 92.80391
1266.934, 92.81625
1267.416, 93.26256
1267.898, 94.26022
1268.380, 94.81457
1268.862, 94.82983
1269.344, 94.25032
1269.827, 93.04551
1270.309, 92.36620
1270.791, 93.10838
1271.273, 94.24536
1271.755, 94.26184
1272.237, 93.72633
1272.719, 93.59841
1273.201, 93.73546
1273.683, 94.05472
1274.166, 94.35493
1274.648, 94.10520
1275.130, 93.37167
1275.612, 93.04429
1276.094, 93.58613
1276.576, 93.96429
1277.058, 93.46118
1277.540, 93.14420
1278.022, 93.68628
1278.505, 94.25747
1278.987, 94.25996
1279.469, 94.03223
1279.951, 93.99062
1280.433, 94.04868
1280.915, 93.73573
1281.397, 92.87888
1281.879, 93.41541
1282.362, 95.56953
1282.844, 96.37740
1283.326, 95.34315
1283.808, 94.35405
1284.290, 94.19553
1284.772, 94.30869
1285.254, 94.19882
1285.736, 93.86426
##END=



