##NAMES=Lithiophosphate
##RRUFFID=R100092
##IDEAL CHEMISTRY=Li_3_PO_4_
##LOCALITY=Cachoeira mine, Itinga, Minas Gerais, Brazil
##OWNER=RRUFF
##SOURCE=Luiz Menezes 
##DESCRIPTION=Colorless fragments and prismatic crystals
##STATUS=The identification of this mineral has been confirmed by single-crystal X-ray diffraction.
##URL=rruff.info/R100092
90.49219, 17.14785
90.97430, 17.47934
91.45642, 17.59780
91.93854, 17.39819
92.42065, 17.01497
92.90277, 16.57479
93.38489, 16.03897
93.86700, 15.63835
94.34912, 15.89853
94.83124, 16.68197
95.31335, 17.18607
95.79547, 16.62787
96.27759, 15.30056
96.75970, 14.41102
97.24182, 14.19662
97.72394, 14.41504
98.20605, 14.65268
98.68817, 14.93491
99.17029, 15.02784
99.65240, 14.52105
100.1345, 13.33699
100.6166, 12.76743
101.0988, 13.36250
101.5809, 14.89174
102.0630, 15.27207
102.5451, 14.08516
103.0272, 12.49979
103.5093, 11.87621
103.9915, 12.62309
104.4736, 13.28502
104.9557, 13.41799
105.4378, 12.88536
105.9199, 12.59854
106.4020, 12.66264
106.8842, 12.91919
107.3663, 13.10959
107.8484, 13.32403
108.3305, 13.36389
108.8126, 13.11737
109.2947, 12.14657
109.7769, 11.61960
110.2590, 11.91084
110.7411, 12.71172
111.2232, 13.05559
111.7053, 12.35330
112.1874, 11.59403
112.6696, 11.22684
113.1517, 11.88385
113.6338, 12.29989
114.1159, 12.20615
114.5980, 11.66683
115.0801, 11.14023
115.5623, 10.64305
116.0444, 10.24499
116.5265, 10.00089
117.0086, 9.955655
117.4907, 10.03726
117.9728, 10.35158
118.4550, 10.91121
118.9371, 11.20407
119.4192, 10.73520
119.9013, 9.926654
120.3834, 9.323652
120.8655, 9.424883
121.3477, 9.634260
121.8298, 9.478830
122.3119, 8.858622
122.7940, 8.220805
123.2761, 7.871756
123.7582, 7.741790
124.2404, 7.675702
124.7225, 7.577329
125.2046, 7.501475
125.6867, 7.530938
126.1688, 7.704813
126.6509, 7.918431
127.1331, 8.119211
127.6152, 8.287549
128.0973, 8.326073
128.5794, 8.066428
129.0615, 7.624474
129.5436, 7.257739
130.0258, 6.976815
130.5079, 6.846391
130.9900, 7.118586
131.4721, 7.790629
131.9542, 8.374922
132.4363, 8.310985
132.9185, 7.701407
133.4006, 7.249530
133.8827, 7.136811
134.3648, 7.326357
134.8469, 7.727690
135.3290, 8.370685
135.8112, 9.097353
136.2933, 9.762560
136.7754, 10.37457
137.2575, 10.85928
137.7396, 11.25079
138.2217, 11.53605
138.7039, 11.32030
139.1860, 10.36824
139.6681, 9.285601
140.1502, 9.085454
140.6323, 10.02533
141.1144, 10.99563
141.5966, 11.57618
142.0787, 11.68997
142.5608, 11.71157
143.0429, 11.55579
143.5250, 11.35520
144.0071, 11.46829
144.4893, 12.15237
144.9714, 12.73033
145.4535, 12.81563
145.9356, 11.86075
146.4177, 11.54123
146.8998, 12.20930
147.3820, 13.57036
147.8641, 14.39625
148.3462, 14.07375
148.8283, 13.78242
149.3104, 14.18133
149.7925, 16.32552
150.2747, 17.77649
150.7568, 18.00812
151.2389, 17.15060
151.7210, 16.78525
152.2031, 17.23203
152.6852, 17.97562
153.1674, 18.70233
153.6495, 19.24791
154.1316, 19.93089
154.6137, 20.96977
155.0958, 22.37758
155.5779, 23.35803
156.0601, 23.56402
156.5422, 23.42013
157.0243, 23.28552
157.5064, 22.92307
157.9885, 22.85514
158.4706, 23.46164
158.9528, 24.88442
159.4349, 25.81961
159.9170, 25.61301
160.3991, 24.83670
160.8812, 24.15204
161.3633, 23.65993
161.8455, 23.37087
162.3276, 23.32946
162.8097, 23.57784
163.2918, 23.88124
163.7739, 24.10814
164.2560, 24.30849
164.7382, 24.44970
165.2203, 24.85567
165.7024, 25.29033
166.1845, 25.53391
166.6666, 25.47863
167.1487, 25.50597
167.6309, 25.93851
168.1130, 26.60933
168.5951, 27.15825
169.0772, 27.33880
169.5593, 27.37580
170.0414, 27.45565
170.5236, 27.61753
171.0057, 27.80990
171.4878, 28.01276
171.9699, 28.22120
172.4520, 28.41593
172.9341, 28.69419
173.4163, 28.91787
173.8984, 28.86609
174.3805, 28.29066
174.8626, 27.76051
175.3447, 27.92627
175.8268, 28.66030
176.3090, 29.37879
176.7911, 29.63280
177.2732, 29.61720
177.7553, 29.60515
178.2374, 29.51332
178.7195, 29.62408
179.2017, 30.44317
179.6838, 31.91344
180.1659, 33.43152
180.6480, 34.56362
181.1301, 35.39945
181.6122, 36.13896
182.0944, 36.63336
182.5765, 37.20885
183.0586, 39.06667
183.5407, 42.15452
184.0228, 44.33297
184.5049, 42.86874
184.9871, 38.65880
185.4692, 34.96275
185.9513, 32.79809
186.4334, 31.78845
186.9155, 31.17735
187.3976, 30.99610
187.8798, 30.87828
188.3619, 30.38232
188.8440, 29.57187
189.3261, 28.89166
189.8082, 28.54634
190.2903, 28.44070
190.7725, 28.19559
191.2546, 27.77743
191.7367, 27.37954
192.2188, 27.27518
192.7009, 27.44570
193.1830, 27.55256
193.6652, 27.33846
194.1473, 26.90515
194.6294, 26.93672
195.1115, 27.47941
195.5936, 28.32378
196.0757, 29.31354
196.5579, 30.46060
197.0400, 31.42524
197.5221, 32.03994
198.0042, 32.32224
198.4863, 32.62578
198.9684, 33.05387
199.4506, 33.26987
199.9327, 32.56002
200.4148, 30.79620
200.8969, 29.26019
201.3790, 28.60648
201.8611, 28.87949
202.3433, 28.79410
202.8254, 28.29012
203.3075, 27.52254
203.7896, 26.69230
204.2717, 25.75113
204.7538, 24.96219
205.2360, 24.33830
205.7181, 23.82671
206.2002, 24.02579
206.6823, 25.12944
207.1644, 26.70643
207.6465, 27.95675
208.1287, 28.78417
208.6108, 29.58326
209.0929, 30.52062
209.5750, 31.62041
210.0571, 32.78910
210.5392, 34.13918
211.0214, 35.46844
211.5035, 36.28953
211.9856, 36.42389
212.4677, 36.52811
212.9498, 36.91790
213.4319, 37.67440
213.9140, 38.33241
214.3962, 38.79256
214.8783, 39.21615
215.3604, 40.00884
215.8425, 41.33231
216.3246, 42.67340
216.8067, 43.74341
217.2889, 44.33471
217.7710, 45.34051
218.2531, 46.85920
218.7352, 48.75026
219.2173, 50.69374
219.6994, 52.59820
220.1816, 54.74508
220.6637, 57.30836
221.1458, 60.38119
221.6279, 63.59439
222.1100, 66.82917
222.5921, 70.25219
223.0743, 74.39727
223.5564, 79.24380
224.0385, 84.81036
224.5206, 91.18023
225.0027, 99.08255
225.4848, 106.3247
225.9670, 114.0454
226.4491, 120.6631
226.9312, 121.8805
227.4133, 116.3789
227.8954, 107.5708
228.3775, 96.57191
228.8597, 81.13204
229.3418, 68.58998
229.8239, 59.48438
230.3060, 53.15351
230.7881, 48.15745
231.2702, 44.84754
231.7524, 42.24457
232.2345, 39.94864
232.7166, 37.86362
233.1987, 36.22858
233.6808, 35.12037
234.1629, 34.44439
234.6451, 33.95974
235.1272, 33.74970
235.6093, 33.61410
236.0914, 33.44994
236.5735, 33.15768
237.0556, 33.06347
237.5378, 33.16941
238.0199, 33.47278
238.5020, 34.00824
238.9841, 35.01696
239.4662, 35.91188
239.9483, 36.39700
240.4305, 36.16734
240.9126, 36.23514
241.3947, 36.66127
241.8768, 37.36418
242.3589, 38.22892
242.8410, 39.64982
243.3232, 40.62810
243.8053, 40.65028
244.2874, 39.21352
244.7695, 38.06016
245.2516, 37.42006
245.7337, 36.96720
246.2159, 35.90416
246.6980, 33.75586
247.1801, 31.74097
247.6622, 30.32438
248.1443, 29.65641
248.6264, 29.17084
249.1086, 28.90832
249.5907, 28.80432
250.0728, 28.75302
250.5549, 28.85615
251.0370, 28.84003
251.5191, 28.57219
252.0013, 27.96111
252.4834, 27.39251
252.9655, 26.79812
253.4476, 26.29048
253.9297, 26.12141
254.4118, 26.47203
254.8940, 26.82401
255.3761, 26.97850
255.8582, 26.86684
256.3403, 26.84550
256.8224, 26.97925
257.3046, 27.15403
257.7867, 27.16397
258.2688, 26.93319
258.7509, 26.69631
259.2330, 26.50537
259.7151, 26.33769
260.1973, 26.38602
260.6794, 26.81697
261.1615, 27.30163
261.6436, 27.24614
262.1257, 26.29075
262.6078, 25.68442
263.0900, 25.96394
263.5721, 27.27687
264.0542, 28.02562
264.5363, 28.08782
265.0184, 27.74100
265.5005, 27.25835
265.9827, 26.51914
266.4648, 26.01626
266.9469, 25.97510
267.4290, 26.40958
267.9111, 26.59717
268.3932, 26.43938
268.8754, 26.18443
269.3575, 26.13964
269.8396, 26.38159
270.3217, 26.54223
270.8038, 26.47648
271.2859, 26.20570
271.7681, 26.21095
272.2502, 26.60926
272.7323, 27.04137
273.2144, 27.04934
273.6965, 26.51256
274.1786, 26.21786
274.6608, 26.40007
275.1429, 26.98340
275.6250, 27.43946
276.1071, 27.76758
276.5892, 27.97111
277.0714, 28.03658
277.5535, 27.95921
278.0356, 27.77627
278.5177, 27.41519
278.9998, 26.97318
279.4819, 26.91524
279.9641, 27.32001
280.4462, 27.77951
280.9283, 27.94751
281.4104, 27.81265
281.8925, 27.70737
282.3746, 27.66940
282.8568, 27.70275
283.3389, 27.83422
283.8210, 28.07165
284.3031, 28.34534
284.7852, 28.71759
285.2673, 29.16183
285.7495, 29.18755
286.2316, 28.59493
286.7137, 27.75471
287.1958, 27.47500
287.6779, 27.76983
288.1600, 28.18230
288.6422, 28.40741
289.1243, 28.48634
289.6064, 28.72524
290.0885, 29.19298
290.5706, 29.72482
291.0527, 30.04971
291.5349, 30.17808
292.0170, 30.25984
292.4991, 30.38535
292.9812, 30.53241
293.4633, 30.59324
293.9454, 30.54371
294.4276, 30.49017
294.9097, 30.63443
295.3918, 30.92928
295.8739, 31.12132
296.3560, 31.01413
296.8381, 30.72274
297.3203, 30.42511
297.8024, 30.09661
298.2845, 30.02209
298.7666, 30.81317
299.2487, 32.16390
299.7308, 33.15641
300.2130, 33.12359
300.6951, 32.60916
301.1772, 32.45146
301.6593, 32.64897
302.1414, 33.07981
302.6235, 33.76384
303.1057, 34.59980
303.5878, 35.36388
304.0699, 35.93898
304.5520, 36.45117
305.0341, 37.11876
305.5162, 37.90790
305.9984, 38.55301
306.4805, 38.56108
306.9626, 38.37939
307.4447, 38.64741
307.9268, 39.69233
308.4089, 41.03827
308.8911, 42.35889
309.3732, 43.65174
309.8553, 44.90780
310.3374, 45.95873
310.8195, 47.04708
311.3016, 48.46315
311.7838, 50.45771
312.2659, 52.37412
312.7480, 53.65921
313.2301, 54.50529
313.7122, 55.41799
314.1943, 56.38267
314.6765, 57.67005
315.1586, 59.65002
315.6407, 62.65027
316.1228, 65.34253
316.6049, 66.50484
317.0870, 67.00819
317.5692, 68.26476
318.0513, 71.37556
318.5334, 74.88231
319.0155, 78.03811
319.4976, 80.73558
319.9797, 83.61468
320.4619, 87.16183
320.9440, 90.91985
321.4261, 94.33159
321.9082, 97.04395
322.3903, 99.63737
322.8724, 102.3670
323.3546, 105.2470
323.8367, 107.7867
324.3188, 110.0653
324.8009, 111.8870
325.2830, 113.0814
325.7651, 113.8514
326.2473, 113.7768
326.7294, 112.4747
327.2115, 110.0980
327.6936, 107.8250
328.1757, 105.5641
328.6578, 103.5625
329.1400, 101.9398
329.6221, 100.9169
330.1042, 99.98836
330.5863, 98.91270
331.0684, 97.91941
331.5505, 97.70058
332.0327, 98.51649
332.5148, 99.79015
332.9969, 101.3105
333.4790, 102.9763
333.9611, 105.0842
334.4432, 107.7351
334.9254, 110.7807
335.4075, 113.8928
335.8896, 116.9273
336.3717, 120.3796
336.8538, 124.4668
337.3359, 129.3002
337.8180, 133.8667
338.3001, 137.8579
338.7823, 142.0434
339.2644, 147.2409
339.7465, 153.5933
340.2286, 160.5185
340.7107, 168.0642
341.1928, 176.1486
341.6750, 183.2273
342.1571, 189.1270
342.6392, 195.0262
343.1213, 202.1563
343.6034, 210.4749
344.0855, 218.6262
344.5677, 226.2093
345.0498, 233.5898
345.5319, 241.3882
346.0140, 249.6013
346.4961, 258.2801
346.9782, 267.8598
347.4604, 278.1132
347.9425, 287.5152
348.4246, 296.0391
348.9067, 303.6539
349.3888, 310.3891
349.8709, 316.2407
350.3531, 321.1622
350.8352, 324.9551
351.3173, 327.8359
351.7994, 330.3849
352.2815, 332.6483
352.7636, 334.0638
353.2458, 334.0200
353.7279, 332.7227
354.2100, 330.6090
354.6921, 327.6031
355.1742, 324.0347
355.6563, 319.8886
356.1385, 315.2621
356.6206, 311.0010
357.1027, 307.9486
357.5848, 305.4979
358.0669, 302.8179
358.5490, 299.2032
359.0312, 296.0479
359.5133, 294.2614
359.9954, 293.6492
360.4775, 293.5688
360.9596, 293.2823
361.4417, 293.7027
361.9239, 295.6195
362.4060, 299.5919
362.8881, 303.7637
363.3702, 306.5536
363.8523, 309.2697
364.3344, 313.9178
364.8166, 322.5538
365.2987, 331.9515
365.7808, 340.6374
366.2629, 348.4608
366.7450, 356.9375
367.2271, 366.2551
367.7093, 376.3548
368.1914, 387.1855
368.6735, 399.5332
369.1556, 411.8406
369.6377, 424.2041
370.1198, 436.5469
370.6020, 447.2000
371.0841, 456.5915
371.5662, 463.9272
372.0483, 468.7478
372.5304, 471.1407
373.0125, 470.9892
373.4947, 468.5851
373.9768, 463.5540
374.4589, 454.7769
374.9410, 441.5701
375.4231, 425.9257
375.9052, 408.1214
376.3874, 387.8170
376.8695, 367.3294
377.3516, 346.1237
377.8337, 325.2861
378.3158, 305.4239
378.7979, 286.4261
379.2801, 268.6942
379.7622, 251.9321
380.2443, 236.4945
380.7264, 223.4816
381.2085, 213.1054
381.6906, 204.1405
382.1728, 195.4293
382.6549, 187.0877
383.1370, 180.4721
383.6191, 175.9442
384.1012, 172.8696
384.5833, 170.3997
385.0655, 168.4824
385.5476, 166.7296
386.0297, 164.4566
386.5118, 162.2742
386.9939, 161.3103
387.4760, 161.7255
387.9582, 162.9349
388.4403, 164.7894
388.9224, 167.0375
389.4045, 169.1392
389.8866, 171.1162
390.3687, 172.7094
390.8509, 173.5482
391.3330, 173.6777
391.8151, 173.6326
392.2972, 174.3410
392.7793, 174.7394
393.2614, 173.7764
393.7436, 170.8261
394.2257, 167.0065
394.7078, 162.7900
395.1899, 158.0782
395.6720, 152.6105
396.1541, 145.4729
396.6363, 138.2262
397.1184, 131.6216
397.6005, 125.8946
398.0826, 120.3148
398.5647, 114.6293
399.0468, 109.0816
399.5290, 103.9667
400.0111, 99.47520
400.4932, 95.23758
400.9753, 91.17761
401.4574, 87.28025
401.9395, 83.73444
402.4217, 80.67513
402.9038, 77.79099
403.3859, 74.86526
403.8680, 71.80553
404.3501, 68.88882
404.8322, 66.07111
405.3144, 63.45037
405.7965, 61.44194
406.2786, 60.18514
406.7607, 59.03728
407.2428, 57.69714
407.7249, 56.14952
408.2071, 54.71859
408.6892, 53.38400
409.1713, 52.19871
409.6534, 51.26697
410.1355, 50.58340
410.6176, 49.94193
411.0998, 49.23581
411.5819, 48.55626
412.0640, 48.22839
412.5461, 48.23806
413.0282, 48.14872
413.5103, 47.42868
413.9925, 46.39607
414.4746, 45.72272
414.9567, 45.56993
415.4388, 45.64281
415.9209, 45.69635
416.4030, 45.73711
416.8852, 45.78283
417.3673, 45.83042
417.8494, 45.89384
418.3315, 46.02825
418.8136, 46.23724
419.2957, 46.34283
419.7779, 46.08580
420.2600, 45.74174
420.7421, 45.59032
421.2242, 45.67425
421.7063, 46.00067
422.1884, 46.64638
422.6706, 47.55271
423.1527, 48.52244
423.6348, 49.55116
424.1169, 50.58960
424.5990, 51.60026
425.0811, 52.46179
425.5633, 53.55791
426.0454, 54.91405
426.5275, 56.49676
427.0096, 58.30040
427.4917, 60.42709
427.9738, 62.60244
428.4560, 64.74976
428.9381, 66.89285
429.4202, 69.12541
429.9023, 71.32755
430.3844, 73.78465
430.8665, 76.77271
431.3487, 80.40984
431.8308, 83.81628
432.3129, 86.80926
432.7950, 89.67030
433.2771, 93.00533
433.7592, 96.80698
434.2414, 100.5213
434.7235, 103.4129
435.2056, 105.9389
435.6877, 110.2216
436.1698, 116.3427
436.6519, 122.9408
437.1341, 128.4856
437.6162, 133.3511
438.0983, 138.6915
438.5804, 144.9807
439.0625, 151.6293
439.5446, 157.9536
440.0268, 164.0532
440.5089, 170.2907
440.9910, 177.6077
441.4731, 184.7191
441.9552, 190.7518
442.4373, 195.6152
442.9195, 198.9707
443.4016, 200.5316
443.8837, 200.5170
444.3658, 199.1924
444.8479, 197.4309
445.3300, 193.5704
445.8122, 186.4257
446.2943, 176.3467
446.7764, 165.9507
447.2585, 155.2727
447.7406, 144.6377
448.2227, 134.0570
448.7049, 122.9128
449.1870, 113.1850
449.6691, 105.1608
450.1512, 98.45529
450.6333, 92.72392
451.1154, 88.28170
451.5976, 84.00571
452.0797, 79.44177
452.5618, 74.66860
453.0439, 71.22128
453.5260, 69.30971
454.0081, 68.25673
454.4903, 67.78269
454.9724, 67.88087
455.4545, 67.69695
455.9366, 66.96729
456.4187, 66.25625
456.9008, 66.66742
457.3830, 68.09165
457.8651, 69.61355
458.3472, 70.41313
458.8293, 71.15662
459.3114, 73.35509
459.7935, 76.98472
460.2757, 80.70213
460.7578, 83.30778
461.2399, 85.33351
461.7220, 87.45350
462.2041, 89.67113
462.6862, 92.36509
463.1684, 95.88516
463.6505, 100.0884
464.1326, 104.5648
464.6147, 109.0280
465.0968, 113.8510
465.5789, 119.1881
466.0611, 125.0946
466.5432, 131.1881
467.0253, 137.1398
467.5074, 143.3350
467.9895, 150.0639
468.4716, 157.2219
468.9538, 165.2384
469.4359, 174.4593
469.9180, 184.4744
470.4001, 194.0390
470.8822, 202.8652
471.3643, 211.6577
471.8465, 220.9191
472.3286, 230.8177
472.8107, 239.6070
473.2928, 247.3321
473.7749, 253.6286
474.2570, 258.3358
474.7392, 261.4488
475.2213, 261.3614
475.7034, 257.2924
476.1855, 250.3576
476.6676, 242.4348
477.1497, 233.5304
477.6319, 224.1400
478.1140, 213.7879
478.5961, 203.2879
479.0782, 194.0084
479.5603, 186.0634
480.0424, 178.9701
480.5246, 172.6872
481.0067, 166.9108
481.4888, 161.2093
481.9709, 155.6045
482.4530, 149.7917
482.9352, 143.7290
483.4173, 137.3531
483.8994, 130.4627
484.3815, 122.5459
484.8636, 114.4365
485.3457, 106.3934
485.8279, 98.19240
486.3100, 90.84053
486.7921, 84.71090
487.2742, 79.32834
487.7563, 74.23348
488.2384, 69.32278
488.7206, 64.83727
489.2027, 60.74779
489.6848, 57.10711
490.1669, 54.26763
490.6490, 52.46101
491.1311, 50.82343
491.6133, 48.94866
492.0954, 46.83576
492.5775, 44.89599
493.0596, 43.13667
493.5417, 41.56606
494.0238, 40.17379
494.5060, 38.96815
494.9881, 38.05923
495.4702, 37.60233
495.9523, 37.26540
496.4344, 36.44278
496.9165, 35.29464
497.3987, 34.42594
497.8808, 34.43920
498.3629, 34.72483
498.8450, 34.64470
499.3271, 34.13152
499.8092, 33.70946
500.2914, 33.91780
500.7735, 34.22274
501.2556, 34.11596
501.7377, 33.00749
502.2198, 32.03703
502.7019, 31.49102
503.1841, 31.26101
503.6662, 31.04279
504.1483, 30.65044
504.6304, 30.44232
505.1125, 30.62502
505.5946, 31.25934
506.0768, 31.47667
506.5589, 31.07972
507.0410, 30.55642
507.5231, 30.30798
508.0052, 30.37409
508.4873, 30.47706
508.9695, 30.62715
509.4516, 30.73645
509.9337, 30.55091
510.4158, 30.09197
510.8979, 29.76934
511.3800, 29.84461
511.8622, 30.15077
512.3443, 30.31719
512.8264, 30.34780
513.3085, 30.34521
513.7906, 30.33569
514.2728, 30.35831
514.7549, 30.47861
515.2370, 30.73840
515.7191, 31.00619
516.2012, 31.23817
516.6833, 31.41603
517.1655, 31.51586
517.6476, 31.29585
518.1297, 31.22923
518.6118, 31.52611
519.0939, 32.16304
519.5760, 32.83315
520.0582, 33.60308
520.5403, 34.30686
521.0224, 34.86134
521.5045, 35.23527
521.9866, 35.52990
522.4688, 35.60807
522.9509, 35.75822
523.4330, 36.45359
523.9151, 37.84778
524.3972, 38.89225
524.8793, 39.19020
525.3615, 39.13295
525.8436, 39.90958
526.3257, 41.50919
526.8078, 42.95914
527.2899, 43.61026
527.7720, 43.73066
528.2542, 43.88784
528.7363, 44.10626
529.2184, 44.34545
529.7005, 44.47749
530.1826, 44.63625
530.6647, 45.01553
531.1469, 45.74020
531.6290, 46.57196
532.1111, 47.65928
532.5932, 48.73633
533.0753, 49.25928
533.5574, 48.89373
534.0396, 48.12589
534.5217, 46.91255
535.0038, 45.22613
535.4859, 44.00922
535.9680, 43.71790
536.4501, 43.48139
536.9323, 42.80451
537.4144, 41.55359
537.8965, 40.15630
538.3786, 38.46983
538.8607, 36.84220
539.3428, 35.91906
539.8250, 35.74572
540.3071, 35.55926
540.7892, 35.15990
541.2713, 34.59810
541.7534, 33.86958
542.2355, 33.01286
542.7177, 32.43899
543.1998, 32.69469
543.6819, 33.28979
544.1640, 33.44944
544.6461, 33.10463
545.1282, 32.61472
545.6104, 32.06677
546.0925, 31.58201
546.5746, 31.31139
547.0567, 31.51899
547.5388, 31.63434
548.0209, 31.27076
548.5031, 30.68913
548.9852, 30.45561
549.4673, 31.13290
549.9494, 31.65814
550.4315, 31.65410
550.9136, 31.12450
551.3958, 31.00100
551.8779, 31.46698
552.3600, 32.03122
552.8421, 32.41186
553.3242, 32.60360
553.8063, 32.59230
554.2885, 32.28271
554.7706, 32.03122
555.2527, 32.43156
555.7348, 33.37915
556.2169, 34.21028
556.6990, 34.64799
557.1812, 34.96116
557.6633, 35.61345
558.1454, 36.49569
558.6275, 37.19931
559.1096, 37.26743
559.5917, 37.20868
560.0739, 37.45735
560.5560, 38.04866
561.0381, 38.64602
561.5202, 39.02071
562.0023, 39.39896
562.4844, 39.94510
562.9666, 40.70791
563.4487, 41.60831
563.9308, 42.56248
564.4129, 43.67562
564.8950, 45.14289
565.3771, 47.10649
565.8593, 49.05264
566.3414, 50.78988
566.8235, 52.42250
567.3056, 54.47255
567.7877, 56.92953
568.2698, 59.80958
568.7520, 63.12766
569.2341, 66.99323
569.7162, 71.20093
570.1983, 76.08333
570.6804, 81.37207
571.1625, 87.07861
571.6447, 93.00144
572.1268, 98.73914
572.6089, 104.0570
573.0910, 109.5898
573.5731, 115.8883
574.0552, 122.6890
574.5374, 129.6729
575.0195, 136.5641
575.5016, 143.7268
575.9837, 150.8896
576.4658, 158.1576
576.9479, 167.1115
577.4301, 178.3616
577.9122, 190.4604
578.3943, 202.9672
578.8764, 215.8272
579.3585, 229.0959
579.8406, 242.7839
580.3228, 256.8661
580.8049, 271.2947
581.2870, 286.0146
581.7691, 301.4043
582.2512, 317.6856
582.7333, 334.0157
583.2155, 350.3588
583.6975, 365.7667
584.1796, 378.0425
584.6617, 387.3016
585.1439, 391.9146
585.6260, 390.7575
586.1081, 383.7638
586.5902, 370.6454
587.0723, 347.8986
587.5544, 321.7276
588.0366, 294.5266
588.5187, 266.0648
589.0008, 239.5075
589.4829, 214.8149
589.9650, 192.4547
590.4471, 172.9192
590.9293, 156.7647
591.4114, 142.0196
591.8935, 128.2467
592.3756, 116.0039
592.8577, 106.5991
593.3398, 100.2251
593.8220, 94.71648
594.3041, 89.50594
594.7862, 84.62825
595.2683, 80.08776
595.7504, 75.94225
596.2325, 72.32834
596.7147, 69.55074
597.1968, 67.25352
597.6789, 65.00058
598.1610, 62.75936
598.6431, 60.66833
599.1252, 58.52520
599.6074, 56.75475
600.0895, 55.75844
600.5716, 56.24734
601.0537, 56.39170
601.5358, 55.79555
602.0179, 54.75944
602.5001, 53.56734
602.9822, 51.74945
603.4643, 50.80083
603.9464, 51.29758
604.4285, 52.69791
604.9106, 53.10246
605.3928, 52.38174
605.8749, 51.80373
606.3570, 52.08796
606.8391, 52.99129
607.3212, 53.72124
607.8033, 54.28279
608.2855, 54.88226
608.7676, 55.68738
609.2497, 56.61415
609.7318, 57.52595
610.2139, 58.38997
610.6960, 59.34670
611.1782, 60.51185
611.6603, 61.78944
612.1424, 63.09268
612.6245, 64.57553
613.1066, 65.85121
613.5887, 66.56113
614.0709, 67.09547
614.5530, 68.33562
615.0351, 70.65798
615.5172, 72.81931
615.9993, 74.40744
616.4814, 75.57176
616.9636, 77.36955
617.4457, 79.89278
617.9278, 81.95756
618.4099, 82.57729
618.8920, 82.16444
619.3741, 81.84374
619.8563, 81.65556
620.3384, 81.38277
620.8205, 80.90874
621.3026, 80.22053
621.7847, 79.38455
622.2668, 78.59555
622.7490, 77.12110
623.2311, 74.08942
623.7132, 70.37162
624.1953, 67.08152
624.6774, 64.83589
625.1595, 62.49779
625.6417, 59.81961
626.1238, 56.96722
626.6059, 54.45152
627.0880, 52.29741
627.5701, 50.36236
628.0522, 48.61259
628.5344, 47.04049
629.0165, 45.59597
629.4986, 44.27768
629.9807, 43.14199
630.4628, 42.38245
630.9449, 41.79292
631.4271, 40.89451
631.9092, 39.63684
632.3913, 38.48684
632.8734, 37.89204
633.3555, 37.52638
633.8376, 37.04271
634.3198, 36.31990
634.8019, 35.57395
635.2840, 34.83011
635.7661, 34.10845
636.2482, 33.42716
636.7303, 32.83448
637.2125, 32.19476
637.6946, 31.43682
638.1767, 30.64178
638.6588, 30.01531
639.1409, 29.55131
639.6230, 29.27757
640.1052, 29.31859
640.5873, 29.51480
641.0694, 29.30709
641.5515, 28.73252
642.0336, 28.22711
642.5157, 28.13036
642.9979, 28.24219
643.4800, 28.40845
643.9621, 28.62529
644.4442, 28.65485
644.9263, 28.19064
645.4084, 27.60430
645.8906, 27.20733
646.3727, 27.21835
646.8548, 27.09503
647.3369, 26.62066
647.8190, 26.12640
648.3011, 26.08309
648.7833, 26.72388
649.2654, 27.00230
649.7475, 26.65575
650.2296, 25.99383
650.7117, 25.61180
651.1938, 25.49742
651.6760, 25.54554
652.1581, 25.77091
652.6402, 26.08759
653.1223, 26.45806
653.6044, 26.83173
654.0865, 27.01428
654.5687, 26.68723
655.0508, 26.29506
655.5329, 26.18821
656.0150, 26.40459
656.4971, 26.43673
656.9792, 25.86383
657.4614, 25.33046
657.9435, 25.22923
658.4256, 25.76425
658.9077, 26.00608
659.3898, 25.87919
659.8719, 25.59144
660.3541, 25.31926
660.8362, 25.06495
661.3183, 24.88114
661.8004, 24.78008
662.2825, 24.74713
662.7646, 24.83142
663.2468, 24.96964
663.7289, 24.99708
664.2110, 24.73599
664.6931, 24.49542
665.1752, 24.56808
665.6573, 24.82619
666.1395, 24.96813
666.6216, 24.88864
667.1037, 24.69545
667.5858, 24.25879
668.0679, 23.66195
668.5500, 23.55304
669.0322, 24.15899
669.5143, 24.80823
669.9964, 25.25622
670.4785, 25.50115
670.9606, 25.45941
671.4427, 25.10615
671.9249, 24.70210
672.4070, 24.39109
672.8891, 24.19137
673.3712, 24.19708
673.8533, 24.43626
674.3354, 24.64487
674.8176, 24.64748
675.2997, 24.51333
675.7818, 24.29172
676.2639, 23.84375
676.7460, 23.58898
677.2281, 23.75202
677.7103, 24.10848
678.1924, 24.39988
678.6745, 24.65092
679.1566, 24.77697
679.6387, 24.76057
680.1208, 24.61873
680.6030, 24.27908
681.0851, 23.74928
681.5672, 23.50678
682.0493, 23.88303
682.5314, 24.49920
683.0135, 24.57871
683.4957, 24.27983
683.9778, 24.22335
684.4599, 25.20122
684.9420, 26.17127
685.4241, 26.35112
685.9063, 25.76449
686.3884, 25.17718
686.8705, 24.64939
687.3526, 24.29671
687.8347, 24.17946
688.3168, 24.32640
688.7990, 24.53928
689.2811, 24.86541
689.7632, 25.16084
690.2453, 25.35587
690.7274, 25.44285
691.2095, 25.23943
691.6917, 24.70103
692.1738, 24.12506
692.6559, 23.66948
693.1380, 23.44058
693.6201, 23.72619
694.1022, 24.83415
694.5844, 25.77448
695.0665, 25.77915
695.5486, 25.34591
696.0307, 25.11213
696.5128, 25.51028
696.9949, 25.72446
697.4771, 25.51967
697.9592, 25.15568
698.4413, 25.23936
698.9234, 25.96758
699.4055, 26.33295
699.8876, 25.97425
700.3698, 25.17433
700.8519, 24.54466
701.3340, 24.09440
701.8161, 23.91047
702.2982, 24.34445
702.7803, 24.86356
703.2625, 24.71081
703.7446, 24.04693
704.2267, 23.70075
704.7088, 24.45412
705.1909, 25.25281
705.6730, 25.51726
706.1552, 25.16801
706.6373, 24.90341
707.1194, 24.75109
707.6015, 24.65045
708.0836, 24.58476
708.5657, 24.55767
709.0479, 24.45159
709.5300, 24.23911
710.0121, 24.11396
710.4942, 24.30755
710.9763, 24.71420
711.4584, 25.13225
711.9406, 25.55045
712.4227, 25.83972
712.9048, 25.94317
713.3869, 25.85320
713.8690, 25.52971
714.3511, 24.72419
714.8333, 24.12700
715.3154, 23.82553
715.7975, 23.82626
716.2796, 24.24982
716.7617, 25.41329
717.2438, 26.01438
717.7260, 25.76484
718.2081, 25.09210
718.6902, 24.70846
719.1723, 24.58359
719.6544, 24.48375
720.1365, 24.23411
720.6187, 24.13466
721.1008, 24.76676
721.5829, 25.82241
722.0650, 26.59613
722.5471, 26.63703
723.0292, 26.47031
723.5114, 26.21308
723.9935, 25.91022
724.4756, 25.72824
724.9577, 25.68622
725.4398, 25.74630
725.9219, 25.92781
726.4041, 26.20505
726.8862, 26.46267
727.3683, 26.71348
727.8504, 26.82409
728.3325, 26.58508
728.8146, 26.19621
729.2968, 26.18260
729.7789, 26.49208
730.2610, 26.63723
730.7431, 25.92669
731.2252, 25.22297
731.7073, 25.26753
732.1895, 26.19204
732.6716, 26.93843
733.1537, 27.40095
733.6358, 27.55198
734.1179, 27.26136
734.6000, 26.37285
735.0822, 26.02257
735.5643, 26.32946
736.0464, 26.75719
736.5285, 26.76524
737.0106, 26.48054
737.4927, 26.41713
737.9749, 26.64625
738.4570, 26.89621
738.9391, 26.90768
739.4212, 26.81695
739.9033, 26.77656
740.3854, 26.83022
740.8676, 26.90905
741.3497, 27.00941
741.8318, 27.11847
742.3139, 27.20893
742.7960, 27.20368
743.2781, 27.42189
743.7603, 28.02339
744.2424, 28.62027
744.7245, 28.48477
745.2066, 27.73054
745.6887, 27.34909
746.1708, 27.68040
746.6530, 28.17741
747.1351, 28.16031
747.6172, 27.87047
748.0993, 27.73332
748.5814, 28.17204
749.0635, 28.47868
749.5457, 28.23825
750.0278, 27.72537
750.5099, 27.53541
750.9920, 27.82877
751.4741, 28.16628
751.9562, 28.50631
752.4384, 28.81467
752.9205, 29.06178
753.4026, 29.24345
753.8847, 29.05677
754.3668, 28.06179
754.8489, 27.00259
755.3311, 27.22485
755.8132, 28.31633
756.2953, 29.06436
756.7774, 28.40578
757.2595, 27.76307
757.7416, 27.96695
758.2238, 28.84597
758.7059, 29.34672
759.1880, 29.22914
759.6701, 29.02219
760.1522, 28.80937
760.6343, 28.63367
761.1165, 28.80209
761.5986, 29.33399
762.0807, 29.78154
762.5628, 29.84749
763.0449, 29.69207
763.5270, 29.49411
764.0092, 29.29150
764.4913, 29.28308
764.9734, 29.90470
765.4555, 30.47830
765.9376, 30.47284
766.4197, 29.86931
766.9019, 29.60788
767.3840, 29.98910
767.8661, 30.35418
768.3482, 30.40259
768.8303, 30.14905
769.3124, 29.96078
769.7946, 29.84648
770.2767, 29.71083
770.7588, 29.31477
771.2409, 28.91477
771.7230, 29.06124
772.2051, 29.74904
772.6873, 30.44385
773.1694, 30.95229
773.6515, 31.26439
774.1336, 31.31899
774.6157, 31.04943
775.0978, 30.91734
775.5800, 31.03400
776.0621, 31.15937
776.5442, 31.12946
777.0263, 30.93229
777.5084, 30.85575
777.9905, 30.90747
778.4727, 30.99886
778.9548, 31.02572
779.4369, 31.05021
779.9190, 31.24251
780.4011, 31.62991
780.8832, 31.87922
781.3654, 31.71166
781.8475, 31.39261
782.3296, 31.07255
782.8117, 30.68722
783.2938, 30.60845
783.7759, 30.91611
784.2581, 31.42192
784.7402, 32.13852
785.2223, 33.06588
785.7044, 33.23075
786.1865, 32.51029
786.6686, 31.79304
787.1508, 32.23086
787.6329, 33.10867
788.1150, 33.18874
788.5971, 32.13837
789.0792, 31.29081
789.5613, 31.42908
790.0435, 31.93483
790.5256, 32.33880
791.0077, 32.64006
791.4898, 32.70896
791.9719, 32.40384
792.4540, 32.10229
792.9362, 32.23389
793.4183, 32.75027
793.9004, 33.03527
794.3825, 33.02635
794.8646, 32.94237
795.3467, 33.00807
795.8289, 33.12270
796.3110, 33.16420
796.7931, 33.12445
797.2752, 32.95969
797.7573, 32.54041
798.2394, 32.06270
798.7216, 31.65167
799.2037, 31.14647
799.6858, 31.20078
800.1679, 31.99982
800.6500, 32.93917
801.1321, 33.40991
801.6143, 33.49468
802.0964, 33.61684
802.5785, 33.82867
803.0606, 34.02601
803.5427, 34.06183
804.0248, 34.05867
804.5070, 34.18267
804.9891, 34.55567
805.4712, 34.77065
805.9533, 34.59202
806.4354, 34.33507
806.9175, 34.23845
807.3997, 34.36361
807.8818, 34.34679
808.3639, 34.12767
808.8460, 33.96283
809.3281, 34.21272
809.8102, 34.71633
810.2924, 35.10979
810.7745, 35.36089
811.2566, 35.34613
811.7387, 34.67497
812.2208, 33.88346
812.7029, 33.42830
813.1851, 33.38110
813.6672, 33.73463
814.1493, 34.84065
814.6314, 35.90523
815.1135, 36.20364
815.5956, 35.69763
816.0778, 35.36652
816.5599, 35.24038
817.0420, 35.35205
817.5241, 36.01210
818.0062, 36.82286
818.4883, 37.08183
818.9705, 36.62159
819.4526, 36.26401
819.9347, 36.63152
820.4168, 37.07808
820.8989, 37.04861
821.3810, 36.31175
821.8632, 36.06068
822.3453, 36.43879
822.8274, 36.99088
823.3095, 37.44900
823.7916, 37.78429
824.2737, 37.71202
824.7559, 37.21548
825.2380, 36.71243
825.7201, 36.50171
826.2022, 36.48052
826.6843, 36.57642
827.1664, 36.78932
827.6486, 37.02569
828.1307, 37.24669
828.6128, 37.51063
829.0949, 37.93045
829.5770, 38.54330
830.0591, 38.53910
830.5413, 37.78745
831.0234, 37.21774
831.5055, 37.75234
831.9876, 38.87645
832.4697, 39.62976
832.9518, 39.97415
833.4340, 40.11854
833.9161, 40.03231
834.3982, 39.90499
834.8803, 39.84972
835.3624, 39.87981
835.8445, 39.92573
836.3267, 39.98721
836.8088, 40.06198
837.2909, 40.11605
837.7730, 40.17839
838.2551, 40.47935
838.7372, 41.00227
839.2194, 41.47552
839.7015, 41.78460
840.1836, 41.91704
840.6657, 41.73647
841.1478, 41.31487
841.6299, 41.08021
842.1121, 41.35932
842.5942, 41.64053
843.0763, 41.71995
843.5584, 41.65175
844.0405, 41.74040
844.5226, 41.99419
845.0048, 42.34044
845.4869, 42.74113
845.9690, 43.22064
846.4511, 44.00460
846.9332, 44.93462
847.4153, 45.47773
847.8975, 44.96691
848.3796, 44.42231
848.8617, 44.29317
849.3438, 44.52950
849.8259, 44.92324
850.3080, 45.61479
850.7902, 46.11378
851.2723, 46.21265
851.7544, 46.16736
852.2365, 46.68648
852.7186, 47.64375
853.2007, 48.27276
853.6829, 48.14100
854.1650, 47.83031
854.6471, 47.81455
855.1292, 47.98049
855.6113, 48.13812
856.0934, 48.20911
856.5756, 48.29332
857.0577, 48.30374
857.5398, 48.40748
858.0219, 48.97164
858.5040, 50.04284
858.9861, 50.72996
859.4683, 50.85328
859.9504, 50.69041
860.4325, 50.40049
860.9146, 50.11434
861.3967, 50.06084
861.8788, 50.32024
862.3610, 50.74734
862.8431, 51.70938
863.3252, 52.53557
863.8073, 52.52800
864.2894, 51.18796
864.7715, 50.59248
865.2537, 50.87997
865.7358, 51.56243
866.2179, 52.31676
866.7000, 53.07021
867.1821, 53.61195
867.6642, 53.92128
868.1464, 54.14433
868.6285, 54.33104
869.1106, 54.50948
869.5927, 54.71559
870.0748, 54.97271
870.5569, 55.16254
871.0391, 55.33039
871.5212, 55.34120
872.0033, 54.98134
872.4854, 54.34576
872.9675, 54.15285
873.4496, 54.38884
873.9318, 54.91101
874.4139, 55.89605
874.8960, 56.91267
875.3781, 57.58628
875.8602, 57.93052
876.3423, 58.13861
876.8245, 58.10476
877.3066, 58.10949
877.7887, 58.20026
878.2708, 58.39237
878.7529, 58.80430
879.2350, 59.43528
879.7172, 60.01305
880.1993, 60.42174
880.6814, 60.70299
881.1635, 60.76688
881.6456, 60.75024
882.1277, 60.97185
882.6099, 61.79927
883.0920, 62.58663
883.5741, 63.15841
884.0562, 63.58778
884.5383, 64.01454
885.0204, 64.45743
885.5026, 64.74303
885.9847, 64.78384
886.4668, 64.82427
886.9489, 65.29076
887.4310, 65.99217
887.9131, 66.47617
888.3953, 66.45240
888.8774, 66.71085
889.3595, 68.03797
889.8416, 69.53708
890.3237, 70.28845
890.8058, 69.80088
891.2880, 70.03135
891.7701, 71.16023
892.2522, 72.44177
892.7343, 73.21600
893.2164, 73.61427
893.6985, 73.94176
894.1807, 74.22170
894.6628, 74.55116
895.1449, 74.74014
895.6270, 75.19799
896.1091, 76.30734
896.5912, 78.13251
897.0734, 79.89942
897.5555, 81.75652
898.0376, 83.14314
898.5197, 83.56013
899.0018, 83.35985
899.4839, 83.80852
899.9661, 84.81371
900.4482, 85.83279
900.9303, 86.48795
901.4124, 87.13972
901.8945, 88.06326
902.3766, 89.18384
902.8588, 90.27527
903.3409, 91.25040
903.8230, 92.27907
904.3051, 93.40503
904.7872, 94.59504
905.2693, 95.77565
905.7515, 96.96684
906.2336, 98.29618
906.7157, 99.75788
907.1978, 101.4778
907.6799, 103.6993
908.1620, 106.1712
908.6442, 108.6265
909.1263, 111.0603
909.6084, 113.3185
910.0905, 115.2464
910.5726, 117.2074
911.0547, 119.5295
911.5369, 122.2081
912.0190, 125.4228
912.5011, 129.2065
912.9832, 132.8542
913.4653, 135.3545
913.9474, 137.7358
914.4296, 140.8834
914.9117, 144.8893
915.3938, 149.6485
915.8759, 155.4875
916.3580, 161.5708
916.8401, 167.5757
917.3223, 173.5452
917.8044, 179.5555
918.2865, 185.6033
918.7686, 192.4672
919.2507, 200.7136
919.7328, 209.8197
920.2150, 219.0417
920.6971, 228.6917
921.1792, 239.7559
921.6613, 253.4188
922.1434, 267.2788
922.6255, 280.3849
923.1077, 294.1613
923.5898, 311.1582
924.0719, 331.1699
924.5540, 352.8745
925.0361, 375.9369
925.5182, 401.2032
926.0004, 429.2789
926.4825, 460.4382
926.9646, 494.9734
927.4467, 531.8184
927.9288, 575.8888
928.4109, 627.8265
928.8931, 686.8000
929.3752, 751.7305
929.8573, 822.3352
930.3394, 901.5002
930.8215, 988.5882
931.3036, 1080.656
931.7858, 1176.630
932.2679, 1275.404
932.7500, 1377.207
933.2321, 1480.798
933.7142, 1589.846
934.1964, 1702.861
934.6785, 1823.355
935.1606, 1950.391
935.6427, 2085.912
936.1248, 2229.926
936.6069, 2384.699
937.0891, 2553.866
937.5712, 2743.470
938.0533, 2945.566
938.5354, 3155.619
939.0175, 3373.220
939.4996, 3593.768
939.9818, 3833.159
940.4639, 4056.882
940.9460, 4274.018
941.4281, 4458.065
941.9102, 4591.619
942.3923, 4670.202
942.8745, 4651.676
943.3566, 4532.566
943.8387, 4323.971
944.3208, 3995.464
944.8029, 3614.856
945.2850, 3222.001
945.7672, 2822.286
946.2493, 2457.444
946.7314, 2125.853
947.2135, 1833.993
947.6956, 1587.129
948.1777, 1379.267
948.6599, 1205.333
949.1420, 1062.672
949.6241, 941.1052
950.1062, 840.3817
950.5883, 753.7731
951.0704, 678.7027
951.5526, 613.7890
952.0347, 558.2061
952.5168, 513.1605
952.9989, 472.4785
953.4810, 435.9288
953.9631, 403.1930
954.4453, 374.2629
954.9274, 348.8312
955.4095, 325.9423
955.8916, 305.7133
956.3737, 287.3229
956.8558, 270.4550
957.3380, 255.1337
957.8201, 241.3179
958.3022, 228.9873
958.7843, 217.9321
959.2664, 208.2928
959.7485, 199.3905
960.2307, 191.0446
960.7128, 183.0976
961.1949, 175.0381
961.6770, 167.0554
962.1591, 159.9732
962.6412, 154.5763
963.1234, 149.6039
963.6055, 144.5065
964.0876, 139.5037
964.5697, 134.8770
965.0518, 130.7148
965.5339, 126.7112
966.0161, 122.8177
966.4982, 119.0741
966.9803, 115.3500
967.4624, 111.8419
967.9445, 109.0691
968.4266, 107.1665
968.9088, 105.2481
969.3909, 102.8598
969.8730, 100.4612
970.3551, 98.29027
970.8372, 96.35778
971.3193, 94.13046
971.8015, 91.60523
972.2836, 89.35805
972.7657, 87.89217
973.2478, 86.74702
973.7299, 85.39875
974.2120, 83.92229
974.6942, 82.49116
975.1763, 81.29446
975.6584, 79.94207
976.1405, 78.21791
976.6226, 76.48305
977.1047, 75.32378
977.5869, 74.67561
978.0690, 73.95301
978.5511, 73.08635
979.0332, 72.10137
979.5153, 70.93616
979.9974, 69.70952
980.4796, 68.47684
980.9617, 67.22328
981.4438, 66.25718
981.9259, 65.69050
982.4080, 65.15263
982.8901, 64.37620
983.3723, 63.54288
983.8544, 63.39696
984.3365, 63.75526
984.8186, 63.85797
985.3007, 63.07644
985.7828, 62.22987
986.2650, 61.71843
986.7471, 61.38765
987.2292, 60.92527
987.7113, 60.18611
988.1934, 59.92543
988.6755, 60.32891
989.1577, 60.74051
989.6398, 60.20908
990.1219, 59.27386
990.6040, 58.89086
991.0861, 59.17437
991.5682, 59.52726
992.0504, 59.77978
992.5325, 59.98363
993.0146, 60.21532
993.4967, 60.42522
993.9788, 60.18935
994.4609, 59.51115
994.9431, 59.27298
995.4252, 60.10502
995.9073, 61.13319
996.3894, 61.31467
996.8715, 61.06831
997.3536, 61.08598
997.8358, 61.64947
998.3179, 62.34328
998.8000, 63.15883
999.2821, 64.09266
999.7642, 65.22810
1000.246, 66.51376
1000.728, 67.51324
1001.211, 68.23594
1001.693, 69.15383
1002.175, 70.61898
1002.657, 72.36421
1003.139, 74.17078
1003.621, 76.09334
1004.103, 78.37609
1004.585, 81.03807
1005.068, 83.93221
1005.550, 86.93476
1006.032, 90.36634
1006.514, 94.79422
1006.996, 100.0700
1007.478, 105.9680
1007.960, 112.2785
1008.442, 119.5103
1008.924, 127.5263
1009.407, 136.9680
1009.889, 148.5159
1010.371, 162.1676
1010.853, 176.7669
1011.335, 192.4915
1011.817, 209.2610
1012.299, 227.8745
1012.781, 246.9888
1013.263, 264.9220
1013.746, 282.3659
1014.228, 302.0889
1014.710, 324.9011
1015.192, 348.9374
1015.674, 373.4369
1016.156, 399.6964
1016.638, 429.6930
1017.120, 463.4365
1017.603, 500.8324
1018.085, 542.1978
1018.567, 587.2064
1019.049, 639.4445
1019.531, 692.1417
1020.013, 742.1237
1020.495, 789.2835
1020.977, 833.1136
1021.459, 874.9467
1021.942, 902.1411
1022.424, 912.1379
1022.906, 900.3422
1023.388, 855.1233
1023.870, 784.5280
1024.352, 704.2844
1024.834, 606.6407
1025.316, 517.1183
1025.799, 436.0092
1026.281, 365.5371
1026.763, 308.6784
1027.245, 265.3458
1027.727, 229.6385
1028.209, 201.1611
1028.691, 178.2485
1029.173, 161.8798
1029.656, 148.7200
1030.138, 136.8444
1030.620, 126.4422
1031.102, 118.5352
1031.584, 113.4278
1032.066, 109.6026
1032.548, 106.7691
1033.030, 104.7317
1033.512, 103.3858
1033.995, 102.5942
1034.477, 102.1392
1034.959, 101.9395
1035.441, 102.1976
1035.923, 102.8682
1036.405, 104.1319
1036.887, 106.2315
1037.369, 109.0654
1037.851, 111.6451
1038.334, 114.0523
1038.816, 117.4586
1039.298, 122.4992
1039.780, 128.7767
1040.262, 136.2345
1040.744, 144.7773
1041.226, 154.2698
1041.708, 165.1113
1042.191, 175.8696
1042.673, 186.5810
1043.155, 197.2488
1043.637, 210.3490
1044.119, 222.5234
1044.601, 228.6770
1045.083, 228.3878
1045.565, 221.6897
1046.047, 204.4323
1046.530, 185.2504
1047.012, 165.6166
1047.494, 146.8586
1047.976, 132.9636
1048.458, 123.4708
1048.940, 116.1397
1049.422, 110.5569
1049.904, 106.0216
1050.386, 103.0720
1050.869, 100.1843
1051.351, 95.59846
1051.833, 88.93903
1052.315, 82.53177
1052.797, 76.29729
1053.279, 70.61404
1053.761, 65.35395
1054.243, 60.87898
1054.726, 58.05976
1055.208, 56.50376
1055.690, 55.17184
1056.172, 53.73645
1056.654, 52.43523
1057.136, 51.11050
1057.618, 50.13439
1058.100, 50.17940
1058.583, 51.04718
1059.065, 51.47169
1059.547, 51.35878
1060.029, 50.90265
1060.511, 50.25545
1060.993, 49.30368
1061.475, 47.80933
1061.957, 45.92583
1062.439, 44.27340
1062.922, 42.87434
1063.404, 41.55041
1063.886, 40.24235
1064.368, 39.06863
1064.850, 38.29680
1065.332, 37.68115
1065.814, 36.78758
1066.296, 35.34978
1066.778, 34.59929
1067.261, 35.02224
1067.743, 35.39870
1068.225, 34.98439
1068.707, 34.11169
1069.189, 33.98629
1069.671, 34.40543
1070.153, 34.64360
1070.635, 34.25107
1071.118, 33.78923
1071.600, 33.44991
1072.082, 33.18029
1072.564, 32.93798
1073.046, 32.72646
1073.528, 32.52074
1074.010, 32.32144
1074.492, 32.13141
1074.974, 32.01773
1075.457, 31.86226
1075.939, 31.49840
1076.421, 30.99271
1076.903, 30.59524
1077.385, 30.22896
1077.867, 30.25891
1078.349, 30.84635
1078.831, 31.57150
1079.313, 31.94832
1079.796, 32.04397
1080.278, 31.92858
1080.760, 31.60150
1081.242, 31.29011
1081.724, 31.09265
1082.206, 30.89496
1082.688, 30.64871
1083.170, 30.38327
1083.652, 30.16775
1084.135, 30.01345
1084.617, 30.01426
1085.099, 30.28696
1085.581, 30.49496
1086.063, 30.39951
1086.545, 30.16277
1087.027, 29.90886
1087.509, 29.62587
1087.992, 29.52056
1088.474, 29.60367
1088.956, 29.70429
1089.438, 29.87521
1089.920, 29.87518
1090.402, 29.13519
1090.884, 28.08703
1091.366, 27.68940
1091.849, 28.66871
1092.331, 29.07637
1092.813, 28.64797
1093.295, 28.10176
1093.777, 28.26572
1094.259, 28.78931
1094.741, 28.93404
1095.223, 28.70823
1095.705, 28.48291
1096.188, 28.48519
1096.670, 28.40118
1097.152, 28.10934
1097.634, 27.73671
1098.116, 27.46529
1098.598, 27.30749
1099.080, 27.42325
1099.562, 27.87844
1100.044, 28.13505
1100.527, 27.56032
1101.009, 26.91778
1101.491, 26.76021
1101.973, 26.99982
1102.455, 27.12055
1102.937, 27.12167
1103.419, 27.01560
1103.901, 26.73063
1104.384, 26.53254
1104.866, 26.85189
1105.348, 27.33603
1105.830, 27.53405
1106.312, 27.27193
1106.794, 27.25515
1107.276, 27.59488
1107.758, 27.77384
1108.240, 27.30146
1108.723, 26.64533
1109.205, 26.69521
1109.687, 27.20283
1110.169, 27.59402
1110.651, 27.85152
1111.133, 27.66768
1111.615, 26.74941
1112.097, 25.86619
1112.579, 25.87037
1113.062, 26.48686
1113.544, 26.69893
1114.026, 26.52603
1114.508, 26.29358
1114.990, 25.84825
1115.472, 25.78013
1115.954, 26.58682
1116.436, 27.66687
1116.919, 28.07749
1117.401, 27.86531
1117.883, 27.75319
1118.365, 27.82725
1118.847, 27.82804
1119.329, 27.32028
1119.811, 26.88798
1120.293, 26.99637
1120.776, 27.54431
1121.258, 28.17287
1121.740, 28.92530
1122.222, 29.33966
1122.704, 29.28754
1123.186, 28.95553
1123.668, 28.21305
1124.150, 27.49977
1124.632, 27.38329
1125.115, 28.02260
1125.597, 28.37625
1126.079, 28.34640
1126.561, 28.32028
1127.043, 28.46611
1127.525, 28.67062
1128.007, 28.75878
1128.489, 28.76885
1128.971, 28.75663
1129.454, 28.70692
1129.936, 28.72608
1130.418, 28.86571
1130.900, 28.98479
1131.382, 28.93681
1131.864, 28.83503
1132.346, 29.12604
1132.828, 29.66250
1133.311, 29.97643
1133.793, 29.62731
1134.275, 29.38111
1134.757, 29.45164
1135.239, 29.63083
1135.721, 29.85500
1136.203, 30.06811
1136.685, 29.64387
1137.167, 28.66234
1137.650, 27.91934
1138.132, 27.93878
1138.614, 28.23071
1139.096, 28.79071
1139.578, 29.37366
1140.060, 29.64734
1140.542, 29.61186
1141.024, 29.33439
1141.506, 28.81505
1141.989, 28.39683
1142.471, 28.47317
1142.953, 28.61309
1143.435, 28.53458
1143.917, 28.26026
1144.399, 27.90605
1144.881, 27.46624
1145.363, 26.98519
1145.846, 26.45988
1146.328, 26.01307
1146.810, 25.85793
1147.292, 25.78787
1147.774, 25.51497
1148.256, 25.05016
1148.738, 25.02514
1149.220, 25.57731
1149.703, 26.06366
1150.185, 26.31835
1150.667, 26.40972
1151.149, 26.45222
1151.631, 26.37684
1152.113, 25.96275
1152.595, 25.06458
1153.077, 24.84809
1153.559, 25.71622
1154.042, 26.33228
1154.524, 26.05905
1155.006, 25.37850
1155.488, 25.17911
1155.970, 25.23634
1156.452, 25.06510
1156.934, 24.31600
1157.416, 24.10513
1157.898, 24.86676
1158.381, 25.53695
1158.863, 25.39349
1159.345, 24.81315
1159.827, 24.93002
1160.309, 25.52006
1160.791, 25.97843
1161.273, 26.13193
1161.755, 26.02392
1162.238, 25.37648
1162.720, 24.87223
1163.202, 25.15687
1163.684, 26.03586
1164.166, 26.51613
1164.648, 26.64555
1165.130, 26.62198
1165.612, 26.50887
1166.094, 26.28904
1166.577, 25.83511
1167.059, 25.39118
1167.541, 25.16794
1168.023, 25.16606
1168.505, 25.50122
1168.987, 26.13316
1169.469, 26.69526
1169.951, 27.02861
1170.433, 27.18011
1170.916, 27.11723
1171.398, 26.91673
1171.880, 26.62442
1172.362, 26.24848
1172.844, 25.88086
1173.326, 25.54080
1173.808, 25.60505
1174.290, 26.97585
1174.773, 28.17290
1175.255, 28.01673
1175.737, 27.19641
1176.219, 27.10032
1176.701, 27.73378
1177.183, 27.73438
1177.665, 26.88252
1178.147, 26.21984
1178.630, 26.90586
1179.112, 27.76369
1179.594, 27.85586
1180.076, 27.43559
1180.558, 27.41358
1181.040, 27.81435
1181.522, 28.10512
1182.004, 28.16443
1182.486, 28.23965
1182.969, 28.70315
1183.451, 29.14939
1183.933, 29.17722
1184.415, 28.84661
1184.897, 28.66805
1185.379, 28.65784
1185.861, 28.59203
1186.343, 28.39968
1186.825, 28.19669
1187.308, 28.06352
1187.790, 27.99925
1188.272, 28.05688
1188.754, 28.22497
1189.236, 28.16465
1189.718, 27.83084
1190.200, 27.71278
1190.682, 28.01041
1191.165, 28.45627
1191.647, 28.91876
1192.129, 29.27871
1192.611, 29.32751
1193.093, 29.58042
1193.575, 29.07151
1194.057, 29.56936
1194.539, 29.79844
1195.021, 29.39529
1195.504, 28.77809
1195.986, 28.16376
1196.468, 27.75205
1196.950, 27.89335
1197.432, 28.71701
1197.914, 29.33210
1198.396, 29.71979
1198.878, 30.03541
1199.360, 30.42279
1199.843, 30.65941
1200.325, 30.27810
1200.807, 29.67023
1201.289, 29.42697
1201.771, 29.72279
1202.253, 29.82266
1202.735, 29.67759
1203.217, 29.66962
1203.700, 30.18814
1204.182, 30.73927
1204.664, 30.71017
1205.146, 30.34404
1205.628, 30.00912
1206.110, 29.70162
1206.592, 29.59969
1207.074, 29.72306
1207.557, 29.91969
1208.039, 30.09399
1208.521, 30.28774
1209.003, 30.63666
1209.485, 31.01425
1209.967, 31.18075
1210.449, 31.13403
1210.931, 30.76852
1211.413, 29.99807
1211.896, 29.44781
1212.378, 29.72132
1212.860, 30.28286
1213.342, 30.73878
1213.824, 31.01040
1214.306, 30.86608
1214.788, 30.07685
1215.270, 29.75664
1215.752, 29.99520
1216.235, 30.16589
1216.717, 29.45974
1217.199, 28.75833
1217.681, 29.13600
1218.163, 30.15741
1218.645, 30.83142
1219.127, 31.11149
1219.609, 30.94629
1220.092, 30.26992
1220.574, 29.76174
1221.056, 30.22962
1221.538, 30.86606
1222.020, 30.83035
1222.502, 30.40414
1222.984, 30.30468
1223.466, 30.63737
1223.948, 30.89037
1224.431, 31.03373
1224.913, 31.09224
1225.395, 30.95160
1225.877, 30.85948
1226.359, 31.25447
1226.841, 31.79000
1227.323, 31.56311
1227.805, 30.38229
1228.287, 29.78628
1228.770, 29.90037
1229.252, 30.27382
1229.734, 30.84949
1230.216, 31.25317
1230.698, 31.06207
1231.180, 30.52059
1231.662, 30.18203
1232.144, 30.04783
1232.627, 30.14371
1233.109, 30.48143
1233.591, 30.67397
1234.073, 30.22947
1234.555, 29.74907
1235.037, 29.64926
1235.519, 29.78220
1236.001, 29.88150
1236.484, 29.94671
1236.966, 30.00579
1237.448, 30.06025
1237.930, 30.01529
1238.412, 29.60660
1238.894, 29.29441
1239.376, 29.48463
1239.858, 29.86251
1240.340, 29.86694
1240.823, 29.54622
1241.305, 29.51921
1241.787, 29.83173
1242.269, 30.06016
1242.751, 29.78965
1243.233, 29.55372
1243.715, 29.61769
1244.197, 29.81840
1244.679, 29.90999
1245.162, 29.91340
1245.644, 29.94537
1246.126, 30.01249
1246.608, 30.03525
1247.090, 30.04645
1247.572, 29.89272
1248.054, 29.50255
1248.536, 28.99086
1249.019, 28.35489
1249.501, 27.76900
1249.983, 27.95722
1250.465, 28.90422
1250.947, 29.66940
1251.429, 29.72585
1251.911, 29.71374
1252.393, 29.76615
1252.875, 29.81155
1253.358, 29.78454
1253.840, 29.66602
1254.322, 29.28602
1254.804, 28.69755
1255.286, 28.47193
1255.768, 29.15063
1256.250, 29.51563
1256.732, 29.30311
1257.214, 28.93111
1257.697, 28.86972
1258.179, 29.01352
1258.661, 29.28110
1259.143, 29.62193
1259.625, 29.73260
1260.107, 29.37179
1260.589, 29.40287
1261.071, 30.04163
1261.554, 30.70057
1262.036, 30.67666
1262.518, 30.37516
1263.000, 30.20351
1263.482, 30.18479
1263.964, 30.26438
1264.446, 30.43348
1264.928, 30.78765
1265.411, 31.39193
1265.893, 31.73562
1266.375, 31.08200
1266.857, 30.21840
1267.339, 29.65203
1267.821, 29.48001
1268.303, 29.95806
1268.785, 31.18893
1269.267, 31.61790
1269.750, 31.05244
1270.232, 30.52275
1270.714, 31.02001
1271.196, 31.57306
1271.678, 31.45292
1272.160, 31.02642
1272.642, 30.91553
1273.124, 31.08480
1273.606, 30.95496
1274.089, 30.50180
1274.571, 30.13030
1275.053, 30.06578
1275.535, 30.16658
1276.017, 30.45063
1276.499, 30.77689
1276.981, 31.07721
1277.463, 31.25872
1277.946, 30.72893
1278.428, 29.60285
1278.910, 28.89658
1279.392, 29.56536
1279.874, 29.99017
1280.356, 29.83519
1280.838, 29.45523
1281.320, 29.12425
1281.802, 28.90311
1282.285, 29.10314
1282.767, 29.56787
1283.249, 29.56253
1283.731, 28.34533
1284.213, 27.81670
1284.695, 28.27917
1285.177, 28.84305
1285.659, 28.67590
1286.141, 28.15203
1286.624, 27.44426
1287.106, 26.80909
1287.588, 27.03059
1288.070, 28.49565
1288.552, 29.22901
1289.034, 29.08523
1289.516, 28.74277
1289.998, 28.69140
1290.481, 28.67944
1290.963, 28.45275
1291.445, 28.42843
1291.927, 28.05824
1292.409, 28.18355
1292.891, 28.12301
1293.373, 27.87374
1293.855, 27.54309
1294.338, 26.90998
1294.820, 26.55631
1295.302, 27.11252
1295.784, 27.77760
1296.266, 27.73767
1296.748, 27.14787
1297.230, 27.16687
1297.712, 27.65411
1298.194, 27.95781
1298.677, 27.48076
1299.159, 27.23782
1299.641, 27.41928
1300.123, 27.75858
1300.605, 28.13930
1301.087, 28.48680
1301.569, 28.67382
1302.051, 28.66593
1302.533, 28.39710
1303.016, 27.80746
##END=



