##NAMES=Lithiophilite
##RRUFFID=R070303
##IDEAL CHEMISTRY=LiMn^2+^PO_4_
##LOCALITY=Vittaniemi, Erajarvi, Orivesi, Etela-Suomen Laani, Finland
##OWNER=RRUFF
##SOURCE=James Shigley
##DESCRIPTION=Yellowish brown massive associated with muscovite
##STATUS=The identification of this mineral is confirmed by single-crystal X-ray diffraction and chemical analysis.
##URL=rruff.info/R070303
##MEASURED CHEMISTRY=Li_1.00_(Mn^2+^_0.67_Fe^2+^_0.33_)_Î£=1_P_1.00_O_4_; trace amounts of Ca and Mg; Li estimated by difference and charge balance
133.2699, 413.1988
133.7520, 429.8107
134.2341, 447.4795
134.7162, 468.1556
135.1983, 491.9407
135.6804, 511.8542
136.1626, 526.6714
136.6447, 538.9799
137.1268, 553.5848
137.6089, 570.7577
138.0910, 588.9045
138.5731, 606.9223
139.0553, 624.9980
139.5374, 643.4116
140.0195, 663.3742
140.5016, 683.4677
140.9837, 696.0241
141.4658, 695.8392
141.9480, 696.4969
142.4301, 708.7961
142.9122, 741.8287
143.3943, 766.7373
143.8764, 776.7661
144.3585, 772.2833
144.8407, 776.3550
145.3228, 793.7145
145.8049, 816.0254
146.2870, 835.5208
146.7691, 850.4599
147.2512, 864.5873
147.7334, 879.0971
148.2155, 895.1983
148.6976, 906.8288
149.1797, 915.4082
149.6618, 919.0834
150.1439, 915.4269
150.6261, 900.8407
151.1082, 882.1935
151.5903, 860.4971
152.0724, 833.6066
152.5545, 808.7616
153.0366, 784.0805
153.5188, 762.0036
154.0009, 747.3870
154.4830, 745.8480
154.9651, 748.1061
155.4472, 750.2491
155.9293, 752.6692
156.4115, 753.5973
156.8936, 752.7071
157.3757, 750.0580
157.8578, 745.8880
158.3399, 735.8757
158.8221, 726.8982
159.3042, 723.3679
159.7863, 733.7117
160.2684, 742.4485
160.7505, 742.8298
161.2326, 735.9794
161.7148, 730.5326
162.1969, 731.3035
162.6790, 734.7771
163.1611, 737.5406
163.6432, 739.3145
164.1253, 739.4511
164.6075, 735.6094
165.0896, 727.6351
165.5717, 723.2348
166.0538, 730.5226
166.5359, 743.4464
167.0180, 753.3524
167.5002, 753.4572
167.9823, 751.2833
168.4644, 752.6443
168.9465, 758.3073
169.4286, 765.1229
169.9107, 772.1460
170.3929, 778.6578
170.8750, 783.3239
171.3571, 784.3168
171.8392, 783.5532
172.3213, 782.7183
172.8034, 781.7230
173.2856, 781.6725
173.7677, 783.6600
174.2498, 787.4976
174.7319, 792.4781
175.2140, 800.5630
175.6961, 808.9873
176.1783, 812.8148
176.6604, 809.4329
177.1425, 804.2221
177.6246, 804.0225
178.1067, 808.2325
178.5888, 812.9486
179.0710, 815.0206
179.5531, 815.4728
180.0352, 816.6141
180.5173, 819.4097
180.9994, 822.7095
181.4815, 824.1555
181.9637, 823.8268
182.4458, 823.8068
182.9279, 826.0754
183.4100, 830.2015
183.8921, 834.5178
184.3742, 838.0656
184.8564, 841.7191
185.3385, 848.1127
185.8206, 857.5329
186.3027, 866.8791
186.7848, 872.0922
187.2669, 873.8292
187.7491, 877.3722
188.2312, 886.5066
188.7133, 898.9315
189.1954, 905.2623
189.6775, 904.4568
190.1596, 902.0248
190.6418, 903.9214
191.1239, 910.1329
191.6060, 919.5743
192.0881, 932.3774
192.5702, 948.3273
193.0524, 966.6902
193.5345, 988.6255
194.0166, 1009.861
194.4987, 1020.592
194.9808, 1019.844
195.4629, 1023.319
195.9451, 1041.885
196.4272, 1075.340
196.9093, 1099.884
197.3914, 1113.656
197.8735, 1120.276
198.3556, 1125.991
198.8378, 1130.834
199.3199, 1134.487
199.8020, 1138.612
200.2841, 1143.806
200.7662, 1139.432
201.2483, 1123.002
201.7305, 1098.389
202.2126, 1074.497
202.6947, 1051.347
203.1768, 1028.846
203.6589, 1006.857
204.1410, 985.5688
204.6232, 964.3925
205.1053, 941.9029
205.5874, 920.0958
206.0695, 906.0894
206.5516, 901.2016
207.0337, 900.6567
207.5159, 902.6017
207.9980, 908.2662
208.4801, 909.9677
208.9622, 904.9229
209.4443, 895.2309
209.9264, 891.6121
210.4086, 895.7512
210.8907, 902.6085
211.3728, 908.7379
211.8549, 914.4835
212.3370, 918.4686
212.8191, 920.3519
213.3013, 920.2564
213.7834, 918.9697
214.2655, 915.5441
214.7476, 912.4470
215.2297, 912.0071
215.7118, 915.0757
216.1940, 918.3052
216.6761, 920.3210
217.1582, 921.3514
217.6403, 927.2806
218.1224, 940.7328
218.6045, 955.4803
219.0867, 965.0712
219.5688, 966.8032
220.0509, 969.6332
220.5330, 975.6718
221.0151, 985.0836
221.4972, 993.5018
221.9794, 1000.863
222.4615, 1007.386
222.9436, 1012.518
223.4257, 1013.013
223.9078, 1019.320
224.3899, 1036.444
224.8721, 1066.198
225.3542, 1084.723
225.8363, 1084.884
226.3184, 1080.732
226.8005, 1091.077
227.2827, 1127.892
227.7648, 1155.901
228.2469, 1163.003
228.7290, 1145.157
229.2111, 1138.454
229.6932, 1149.175
230.1754, 1166.021
230.6575, 1174.213
231.1396, 1170.105
231.6217, 1163.596
232.1038, 1157.068
232.5859, 1150.583
233.0681, 1143.358
233.5502, 1133.167
234.0323, 1123.846
234.5144, 1121.628
234.9965, 1131.316
235.4786, 1139.969
235.9608, 1142.667
236.4429, 1136.922
236.9250, 1137.093
237.4071, 1146.827
237.8892, 1160.220
238.3713, 1167.000
238.8535, 1160.730
239.3356, 1158.743
239.8177, 1168.487
240.2998, 1195.302
240.7819, 1212.880
241.2640, 1217.074
241.7462, 1214.730
242.2283, 1218.552
242.7104, 1235.093
243.1925, 1246.989
243.6746, 1247.713
244.1567, 1233.825
244.6389, 1220.451
245.1210, 1208.919
245.6031, 1197.155
246.0852, 1180.480
246.5673, 1153.296
247.0494, 1130.850
247.5316, 1120.680
248.0137, 1129.489
248.4958, 1127.118
248.9779, 1108.357
249.4600, 1081.333
249.9421, 1061.409
250.4243, 1050.353
250.9064, 1042.946
251.3885, 1037.386
251.8706, 1033.457
252.3527, 1032.581
252.8348, 1037.035
253.3170, 1043.134
253.7991, 1043.165
254.2812, 1033.655
254.7633, 1024.742
255.2454, 1020.579
255.7275, 1022.830
256.2097, 1023.835
256.6918, 1023.410
257.1739, 1021.860
257.6560, 1019.264
258.1381, 1014.234
258.6202, 1011.051
259.1024, 1012.088
259.5845, 1019.036
260.0666, 1023.281
260.5487, 1024.969
261.0308, 1023.823
261.5129, 1017.531
261.9951, 1001.655
262.4772, 991.4640
262.9593, 995.6595
263.4414, 1019.326
263.9235, 1032.753
264.4056, 1033.198
264.8878, 1026.070
265.3699, 1019.551
265.8520, 1012.011
266.3341, 1009.650
266.8162, 1017.126
267.2983, 1036.979
267.7805, 1049.976
268.2626, 1055.343
268.7447, 1054.535
269.2268, 1048.679
269.7089, 1036.079
270.1910, 1024.521
270.6732, 1016.503
271.1553, 1012.085
271.6374, 1012.220
272.1195, 1019.026
272.6016, 1027.279
273.0837, 1027.085
273.5659, 1016.554
274.0480, 1007.235
274.5301, 1002.923
275.0122, 1003.682
275.4943, 1010.301
275.9764, 1025.095
276.4586, 1041.394
276.9407, 1049.182
277.4228, 1047.828
277.9049, 1042.794
278.3870, 1033.815
278.8691, 1021.323
279.3513, 1016.137
279.8334, 1019.607
280.3155, 1026.917
280.7976, 1031.877
281.2798, 1034.353
281.7619, 1036.668
282.2440, 1039.309
282.7261, 1042.392
283.2082, 1047.411
283.6903, 1054.940
284.1725, 1062.293
284.6546, 1066.289
285.1367, 1066.950
285.6188, 1065.612
286.1009, 1061.261
286.5830, 1055.144
287.0652, 1053.062
287.5473, 1055.428
288.0294, 1059.478
288.5115, 1061.590
288.9936, 1062.231
289.4757, 1065.268
289.9579, 1073.965
290.4400, 1085.511
290.9221, 1092.840
291.4042, 1095.931
291.8863, 1095.059
292.3684, 1085.931
292.8506, 1071.565
293.3327, 1065.323
293.8148, 1076.310
294.2969, 1095.137
294.7790, 1102.486
295.2611, 1098.349
295.7433, 1092.639
296.2254, 1094.966
296.7075, 1102.703
297.1896, 1108.024
297.6717, 1106.210
298.1538, 1103.082
298.6360, 1108.609
299.1181, 1122.208
299.6002, 1136.389
300.0823, 1146.290
300.5644, 1152.716
301.0465, 1157.151
301.5287, 1159.385
302.0108, 1160.542
302.4929, 1160.876
302.9750, 1160.753
303.4571, 1162.247
303.9392, 1164.854
304.4214, 1170.474
304.9035, 1182.868
305.3856, 1206.765
305.8677, 1231.020
306.3498, 1244.706
306.8319, 1249.935
307.3141, 1254.403
307.7962, 1263.131
308.2783, 1272.965
308.7604, 1280.722
309.2425, 1284.809
309.7246, 1288.485
310.2068, 1294.406
310.6889, 1301.630
311.1710, 1307.774
311.6531, 1315.014
312.1352, 1318.722
312.6173, 1313.639
313.0995, 1295.231
313.5816, 1279.096
314.0637, 1275.879
314.5458, 1279.762
315.0279, 1279.750
315.5100, 1270.183
315.9922, 1256.705
316.4743, 1241.019
316.9564, 1221.981
317.4385, 1206.337
317.9206, 1196.774
318.4027, 1191.831
318.8849, 1189.467
319.3670, 1196.825
319.8491, 1199.907
320.3312, 1190.011
320.8133, 1162.974
321.2954, 1144.648
321.7776, 1145.739
322.2597, 1155.639
322.7418, 1163.042
323.2239, 1165.723
323.7060, 1166.365
324.1881, 1165.660
324.6703, 1163.698
325.1524, 1159.481
325.6345, 1149.571
326.1166, 1139.206
326.5987, 1132.521
327.0808, 1131.838
327.5630, 1132.145
328.0451, 1133.429
328.5272, 1135.607
329.0093, 1137.034
329.4914, 1139.586
329.9735, 1139.684
330.4557, 1134.303
330.9378, 1117.015
331.4199, 1105.521
331.9020, 1102.409
332.3841, 1106.299
332.8662, 1110.920
333.3484, 1117.601
333.8305, 1122.924
334.3126, 1124.169
334.7947, 1118.645
335.2768, 1117.730
335.7589, 1123.952
336.2411, 1134.005
336.7232, 1139.851
337.2053, 1140.957
337.6874, 1139.261
338.1695, 1134.026
338.6516, 1124.288
339.1338, 1120.131
339.6159, 1122.641
340.0980, 1129.380
340.5801, 1137.552
341.0622, 1147.703
341.5443, 1154.984
342.0265, 1156.686
342.5086, 1153.369
342.9907, 1149.847
343.4728, 1145.810
343.9549, 1142.905
344.4370, 1145.277
344.9192, 1152.065
345.4013, 1154.749
345.8834, 1147.432
346.3655, 1134.639
346.8476, 1128.444
347.3297, 1128.952
347.8119, 1133.118
348.2940, 1139.717
348.7761, 1147.944
349.2582, 1155.343
349.7403, 1161.820
350.2225, 1166.729
350.7046, 1168.279
351.1867, 1166.881
351.6688, 1165.594
352.1509, 1168.602
352.6331, 1172.626
353.1152, 1171.975
353.5973, 1162.838
354.0794, 1153.549
354.5615, 1152.449
355.0436, 1157.513
355.5258, 1162.570
356.0079, 1164.170
356.4900, 1164.316
356.9721, 1165.395
357.4542, 1168.909
357.9363, 1169.503
358.4185, 1159.391
358.9006, 1144.825
359.3827, 1136.623
359.8648, 1144.911
360.3469, 1155.966
360.8290, 1162.267
361.3112, 1162.398
361.7933, 1163.569
362.2754, 1170.127
362.7575, 1178.156
363.2396, 1183.425
363.7217, 1184.173
364.2039, 1182.803
364.6860, 1177.233
365.1681, 1167.421
365.6502, 1164.664
366.1323, 1178.901
366.6144, 1195.312
367.0966, 1203.689
367.5787, 1197.366
368.0608, 1190.571
368.5429, 1181.580
369.0250, 1171.966
369.5071, 1170.366
369.9893, 1183.133
370.4714, 1196.497
370.9535, 1203.425
371.4356, 1199.755
371.9177, 1199.345
372.3998, 1204.776
372.8820, 1212.334
373.3641, 1212.130
373.8462, 1199.489
374.3283, 1191.325
374.8104, 1197.012
375.2925, 1218.519
375.7747, 1230.534
376.2568, 1231.203
376.7389, 1226.274
377.2210, 1221.752
377.7031, 1217.366
378.1852, 1217.602
378.6674, 1225.895
379.1495, 1239.790
379.6316, 1249.288
380.1137, 1254.156
380.5958, 1256.023
381.0779, 1254.454
381.5601, 1250.458
382.0422, 1249.110
382.5243, 1251.723
383.0064, 1257.253
383.4885, 1265.557
383.9706, 1276.150
384.4528, 1284.878
384.9349, 1287.956
385.4170, 1287.632
385.8991, 1288.125
386.3812, 1290.752
386.8633, 1291.994
387.3455, 1286.183
387.8276, 1276.374
388.3097, 1269.482
388.7918, 1271.193
389.2739, 1275.900
389.7560, 1278.610
390.2382, 1278.615
390.7203, 1280.579
391.2024, 1290.593
391.6845, 1302.716
392.1666, 1310.209
392.6487, 1303.130
393.1309, 1298.160
393.6130, 1303.700
394.0951, 1318.858
394.5772, 1332.150
395.0593, 1338.521
395.5414, 1343.474
396.0236, 1350.392
396.5057, 1365.128
396.9878, 1375.486
397.4699, 1376.911
397.9520, 1372.638
398.4341, 1372.851
398.9163, 1381.254
399.3984, 1390.325
399.8805, 1397.613
400.3626, 1403.118
400.8447, 1406.516
401.3268, 1405.720
401.8090, 1404.359
402.2911, 1408.116
402.7732, 1419.133
403.2553, 1429.472
403.7374, 1436.286
404.2195, 1439.934
404.7017, 1448.132
405.1838, 1462.964
405.6659, 1476.794
406.1480, 1479.577
406.6301, 1471.035
407.1122, 1471.437
407.5944, 1487.140
408.0765, 1511.117
408.5586, 1525.323
409.0407, 1530.018
409.5228, 1535.496
410.0049, 1550.348
410.4871, 1571.186
410.9692, 1588.808
411.4513, 1602.175
411.9334, 1612.917
412.4155, 1620.568
412.8976, 1626.962
413.3798, 1636.969
413.8619, 1659.329
414.3440, 1682.822
414.8261, 1695.531
415.3082, 1697.228
415.7903, 1694.683
416.2725, 1686.426
416.7546, 1678.627
417.2367, 1678.245
417.7188, 1691.237
418.2009, 1707.982
418.6830, 1726.100
419.1652, 1744.940
419.6473, 1761.408
420.1294, 1775.552
420.6115, 1786.424
421.0937, 1793.002
421.5758, 1791.897
422.0579, 1793.234
422.5400, 1801.851
423.0221, 1812.967
423.5042, 1818.798
423.9864, 1811.093
424.4685, 1807.045
424.9506, 1811.601
425.4327, 1825.512
425.9148, 1838.032
426.3969, 1850.638
426.8791, 1860.177
427.3612, 1863.312
427.8433, 1858.419
428.3254, 1851.920
428.8075, 1843.606
429.2896, 1834.701
429.7718, 1829.593
430.2539, 1828.544
430.7360, 1829.693
431.2181, 1834.129
431.7002, 1841.259
432.1823, 1840.552
432.6645, 1829.466
433.1466, 1817.274
433.6287, 1820.786
434.1108, 1836.266
434.5929, 1844.755
435.0750, 1831.145
435.5572, 1808.747
436.0393, 1803.922
436.5214, 1815.800
437.0035, 1825.976
437.4856, 1816.469
437.9677, 1797.318
438.4499, 1782.995
438.9320, 1780.370
439.4141, 1777.962
439.8962, 1765.357
440.3783, 1746.425
440.8604, 1730.770
441.3426, 1725.557
441.8247, 1722.817
442.3068, 1718.433
442.7889, 1711.880
443.2710, 1704.012
443.7531, 1693.888
444.2353, 1683.038
444.7174, 1672.976
445.1995, 1664.618
445.6816, 1656.443
446.1637, 1647.802
446.6458, 1638.919
447.1280, 1631.427
447.6101, 1625.399
448.0922, 1620.667
448.5743, 1618.238
449.0564, 1621.981
449.5385, 1616.636
450.0207, 1597.982
450.5028, 1573.627
450.9849, 1559.005
451.4670, 1556.314
451.9491, 1552.783
452.4312, 1542.176
452.9134, 1525.937
453.3955, 1516.097
453.8776, 1513.479
454.3597, 1511.586
454.8418, 1501.085
455.3239, 1485.054
455.8061, 1477.577
456.2882, 1484.749
456.7703, 1497.165
457.2524, 1502.129
457.7345, 1500.759
458.2166, 1497.665
458.6988, 1497.001
459.1809, 1495.323
459.6630, 1486.999
460.1451, 1470.095
460.6272, 1456.198
461.1093, 1456.294
461.5915, 1462.578
462.0736, 1465.360
462.5557, 1455.969
463.0378, 1447.888
463.5199, 1447.880
464.0020, 1454.709
464.4842, 1458.662
464.9663, 1456.147
465.4484, 1451.377
465.9305, 1446.608
466.4126, 1443.072
466.8947, 1437.104
467.3769, 1423.572
467.8590, 1409.853
468.3411, 1409.702
468.8232, 1433.109
469.3053, 1449.884
469.7874, 1449.547
470.2696, 1433.379
470.7517, 1426.046
471.2338, 1429.815
471.7159, 1435.472
472.1980, 1435.664
472.6801, 1430.428
473.1623, 1421.376
473.6444, 1406.709
474.1265, 1392.191
474.6086, 1388.134
475.0907, 1393.600
475.5728, 1402.513
476.0550, 1413.973
476.5371, 1426.072
477.0192, 1436.123
477.5013, 1444.107
477.9834, 1449.018
478.4655, 1449.744
478.9477, 1447.019
479.4298, 1441.466
479.9119, 1428.793
480.3940, 1418.920
480.8761, 1419.994
481.3582, 1428.396
481.8404, 1433.724
482.3225, 1428.429
482.8046, 1422.726
483.2867, 1421.563
483.7688, 1426.797
484.2509, 1431.575
484.7331, 1438.092
485.2152, 1442.423
485.6973, 1440.521
486.1794, 1427.630
486.6615, 1416.415
487.1436, 1407.636
487.6258, 1401.773
488.1079, 1402.420
488.5900, 1412.280
489.0721, 1421.170
489.5542, 1422.042
490.0363, 1414.806
490.5185, 1412.044
491.0006, 1414.780
491.4827, 1419.722
491.9648, 1424.178
492.4470, 1427.679
492.9291, 1426.917
493.4112, 1417.058
493.8933, 1405.560
494.3754, 1405.229
494.8575, 1414.733
495.3397, 1425.687
495.8218, 1436.297
496.3039, 1443.791
496.7860, 1443.664
497.2681, 1433.078
497.7502, 1423.701
498.2324, 1420.058
498.7145, 1421.775
499.1966, 1428.282
499.6787, 1447.341
500.1608, 1463.170
500.6429, 1470.049
501.1251, 1468.365
501.6072, 1465.976
502.0893, 1462.124
502.5714, 1458.817
503.0535, 1456.879
503.5356, 1456.061
504.0178, 1457.535
504.4999, 1462.924
504.9820, 1469.106
505.4641, 1471.327
505.9462, 1469.122
506.4283, 1465.039
506.9105, 1458.136
507.3926, 1450.302
507.8747, 1451.497
508.3568, 1462.335
508.8389, 1470.889
509.3210, 1464.630
509.8032, 1449.324
510.2853, 1441.051
510.7674, 1442.425
511.2495, 1448.251
511.7316, 1457.454
512.2137, 1466.980
512.6959, 1470.540
513.1780, 1454.618
513.6601, 1440.990
514.1422, 1448.649
514.6243, 1474.165
515.1064, 1493.376
515.5886, 1492.897
516.0707, 1485.949
516.5528, 1480.188
517.0349, 1476.349
517.5170, 1474.112
517.9991, 1475.595
518.4813, 1477.849
518.9634, 1476.589
519.4455, 1466.700
519.9276, 1462.357
520.4097, 1468.593
520.8918, 1483.227
521.3740, 1492.484
521.8561, 1495.529
522.3382, 1495.956
522.8203, 1495.743
523.3024, 1494.880
523.7845, 1492.785
524.2667, 1489.011
524.7488, 1485.542
525.2309, 1484.725
525.7130, 1486.190
526.1951, 1488.987
526.6772, 1496.178
527.1594, 1501.323
527.6415, 1491.398
528.1236, 1470.740
528.6057, 1458.263
529.0878, 1473.262
529.5699, 1495.135
530.0521, 1508.295
530.5342, 1509.445
531.0163, 1508.322
531.4984, 1504.622
531.9805, 1501.697
532.4626, 1503.076
532.9448, 1517.671
533.4269, 1526.309
533.9090, 1523.518
534.3911, 1512.854
534.8732, 1508.572
535.3553, 1513.548
535.8375, 1519.469
536.3196, 1522.316
536.8017, 1521.866
537.2838, 1524.349
537.7659, 1530.577
538.2480, 1537.128
538.7302, 1540.972
539.2123, 1542.116
539.6944, 1539.890
540.1765, 1532.917
540.6586, 1524.783
541.1407, 1517.919
541.6229, 1513.479
542.1050, 1515.396
542.5871, 1534.691
543.0692, 1555.462
543.5513, 1560.737
544.0334, 1549.744
544.5156, 1540.641
544.9977, 1544.059
545.4798, 1551.634
545.9619, 1556.580
546.4440, 1553.158
546.9261, 1553.716
547.4083, 1564.097
547.8904, 1578.717
548.3725, 1587.080
548.8546, 1584.608
549.3367, 1583.453
549.8188, 1586.401
550.3010, 1593.270
550.7831, 1603.981
551.2652, 1621.376
551.7473, 1633.140
552.2294, 1624.296
552.7115, 1597.993
553.1937, 1588.622
553.6758, 1601.555
554.1579, 1620.415
554.6400, 1622.885
555.1221, 1614.615
555.6042, 1611.897
556.0864, 1624.161
556.5685, 1640.807
557.0506, 1653.379
557.5327, 1662.088
558.0148, 1667.440
558.4969, 1665.366
558.9791, 1663.272
559.4612, 1664.846
559.9433, 1670.013
560.4254, 1681.183
560.9075, 1705.238
561.3896, 1731.864
561.8718, 1752.270
562.3539, 1763.391
562.8360, 1772.916
563.3181, 1778.123
563.8002, 1783.513
564.2823, 1802.891
564.7645, 1840.101
565.2466, 1872.960
565.7287, 1888.614
566.2108, 1892.269
566.6929, 1910.289
567.1750, 1942.931
567.6572, 1980.910
568.1393, 2019.938
568.6214, 2057.642
569.1035, 2086.887
569.5856, 2105.405
570.0677, 2121.385
570.5499, 2139.239
571.0320, 2159.774
571.5141, 2184.353
571.9962, 2212.583
572.4783, 2245.818
572.9604, 2288.664
573.4426, 2338.240
573.9247, 2381.088
574.4068, 2414.193
574.8889, 2440.304
575.3710, 2459.458
575.8531, 2470.308
576.3353, 2480.472
576.8174, 2491.188
577.2995, 2499.229
577.7816, 2503.809
578.2637, 2505.834
578.7458, 2491.297
579.2280, 2453.238
579.7101, 2406.804
580.1922, 2378.976
580.6743, 2367.453
581.1564, 2359.241
581.6385, 2344.335
582.1207, 2331.441
582.6028, 2334.649
583.0849, 2352.288
583.5670, 2371.439
584.0491, 2382.436
584.5313, 2393.200
585.0134, 2412.396
585.4955, 2447.162
585.9776, 2470.938
586.4597, 2472.733
586.9418, 2461.583
587.4240, 2447.865
587.9061, 2438.248
588.3882, 2416.515
588.8703, 2378.579
589.3524, 2328.057
589.8345, 2273.780
590.3167, 2213.835
590.7988, 2157.070
591.2809, 2108.692
591.7630, 2067.293
592.2451, 2027.486
592.7272, 1989.163
593.2094, 1955.077
593.6915, 1932.343
594.1736, 1914.500
594.6557, 1886.321
595.1378, 1842.476
595.6199, 1803.015
596.1021, 1785.520
596.5842, 1781.415
597.0663, 1778.460
597.5485, 1770.160
598.0306, 1764.962
598.5127, 1768.221
598.9948, 1777.551
599.4769, 1782.523
599.9590, 1780.073
600.4412, 1776.221
600.9233, 1772.350
601.4054, 1768.308
601.8875, 1765.930
602.3696, 1764.529
602.8517, 1766.564
603.3339, 1778.141
603.8160, 1797.919
604.2981, 1803.731
604.7802, 1789.787
605.2623, 1773.084
605.7444, 1777.494
606.2266, 1797.021
606.7087, 1815.251
607.1908, 1824.143
607.6729, 1831.811
608.1550, 1846.696
608.6371, 1866.098
609.1193, 1881.759
609.6014, 1878.520
610.0835, 1880.874
610.5656, 1902.217
611.0477, 1945.757
611.5298, 1989.461
612.0120, 2029.087
612.4941, 2071.593
612.9762, 2122.004
613.4583, 2182.863
613.9404, 2241.205
614.4225, 2294.786
614.9047, 2348.333
615.3868, 2409.966
615.8689, 2479.684
616.3510, 2550.585
616.8331, 2620.916
617.3152, 2690.905
617.7974, 2759.129
618.2795, 2826.856
618.7616, 2902.374
619.2437, 2988.999
619.7258, 3085.525
620.2079, 3197.965
620.6901, 3325.701
621.1722, 3444.364
621.6543, 3541.014
622.1364, 3629.376
622.6185, 3717.256
623.1006, 3808.323
623.5828, 3895.923
624.0649, 3996.437
624.5470, 4078.443
625.0291, 4104.883
625.5112, 4072.972
625.9933, 3997.250
626.4755, 3874.586
626.9576, 3718.654
627.4397, 3551.059
627.9218, 3373.353
628.4039, 3197.373
628.8860, 3023.058
629.3682, 2856.271
629.8503, 2704.555
630.3324, 2567.864
630.8145, 2450.340
631.2966, 2359.882
631.7787, 2287.064
632.2609, 2228.393
632.7430, 2187.227
633.2251, 2144.681
633.7072, 2090.113
634.1893, 2037.669
634.6714, 1999.515
635.1536, 1983.583
635.6357, 1963.944
636.1178, 1936.802
636.5999, 1907.440
637.0820, 1885.688
637.5641, 1871.843
638.0463, 1861.110
638.5284, 1851.454
639.0105, 1844.250
639.4926, 1845.909
639.9747, 1854.216
640.4568, 1856.426
640.9390, 1836.095
641.4211, 1811.792
641.9032, 1802.937
642.3853, 1810.885
642.8674, 1816.520
643.3495, 1810.982
643.8317, 1801.285
644.3138, 1791.912
644.7959, 1782.058
645.2780, 1775.425
645.7601, 1774.318
646.2422, 1774.429
646.7244, 1769.585
647.2065, 1758.029
647.6886, 1751.122
648.1707, 1751.793
648.6528, 1756.850
649.1349, 1761.161
649.6171, 1764.533
650.0992, 1765.802
650.5813, 1761.796
651.0634, 1757.019
651.5455, 1757.548
652.0276, 1762.596
652.5098, 1767.910
652.9919, 1773.277
653.4740, 1776.618
653.9561, 1776.459
654.4382, 1772.361
654.9203, 1766.469
655.4025, 1754.285
655.8846, 1744.254
656.3667, 1743.528
656.8488, 1758.007
657.3309, 1762.995
657.8130, 1754.789
658.2952, 1742.193
658.7773, 1736.617
659.2594, 1737.789
659.7415, 1744.243
660.2236, 1759.261
660.7057, 1773.257
661.1879, 1767.144
661.6700, 1748.083
662.1521, 1736.132
662.6342, 1751.312
663.1163, 1767.805
663.5984, 1767.572
664.0806, 1752.438
664.5627, 1740.468
665.0448, 1736.830
665.5269, 1736.877
666.0090, 1739.216
666.4911, 1744.294
666.9733, 1747.978
667.4554, 1749.496
667.9375, 1751.150
668.4196, 1755.986
668.9017, 1763.792
669.3839, 1767.469
669.8660, 1766.190
670.3481, 1761.687
670.8302, 1753.738
671.3123, 1744.251
671.7944, 1737.296
672.2766, 1734.271
672.7587, 1734.003
673.2408, 1735.938
673.7229, 1740.034
674.2050, 1746.233
674.6871, 1761.331
675.1693, 1771.086
675.6514, 1768.486
676.1335, 1756.504
676.6156, 1750.691
677.0977, 1753.266
677.5798, 1757.001
678.0620, 1758.901
678.5441, 1759.165
679.0262, 1759.302
679.5083, 1759.265
679.9904, 1759.920
680.4725, 1764.159
680.9547, 1768.917
681.4368, 1766.875
681.9189, 1756.193
682.4010, 1748.544
682.8831, 1755.096
683.3652, 1767.111
683.8474, 1775.979
684.3295, 1781.023
684.8116, 1780.846
685.2937, 1770.220
685.7758, 1756.506
686.2579, 1749.687
686.7401, 1752.433
687.2222, 1754.676
687.7043, 1754.225
688.1864, 1752.631
688.6685, 1754.013
689.1506, 1758.183
689.6328, 1762.116
690.1149, 1764.533
690.5970, 1765.912
691.0791, 1766.930
691.5612, 1767.561
692.0433, 1767.667
692.5255, 1766.329
693.0076, 1765.124
693.4897, 1765.240
693.9718, 1766.896
694.4539, 1768.168
694.9360, 1766.181
695.4182, 1766.189
695.9003, 1772.584
696.3824, 1788.878
696.8645, 1795.234
697.3466, 1789.406
697.8287, 1779.527
698.3109, 1771.896
698.7930, 1767.184
699.2751, 1771.005
699.7572, 1786.864
700.2393, 1801.925
700.7214, 1800.341
701.2036, 1789.240
701.6857, 1780.440
702.1678, 1776.864
702.6499, 1777.802
703.1320, 1787.884
703.6141, 1802.202
704.0963, 1808.148
704.5784, 1799.968
705.0605, 1791.396
705.5426, 1784.256
706.0247, 1779.017
706.5068, 1778.800
706.9890, 1784.216
707.4711, 1789.505
707.9532, 1791.963
708.4353, 1792.038
708.9174, 1788.667
709.3995, 1782.528
709.8817, 1780.584
710.3638, 1792.719
710.8459, 1807.874
711.3280, 1816.326
711.8101, 1816.689
712.2922, 1814.178
712.7744, 1808.107
713.2565, 1801.203
713.7386, 1794.550
714.2207, 1785.066
714.7028, 1785.206
715.1849, 1799.343
715.6671, 1815.511
716.1492, 1818.916
716.6313, 1810.755
717.1134, 1805.916
717.5955, 1807.434
718.0776, 1811.417
718.5598, 1814.100
719.0419, 1815.651
719.5240, 1816.380
720.0061, 1816.281
720.4882, 1815.543
720.9703, 1812.432
721.4525, 1808.859
721.9346, 1809.237
722.4167, 1820.426
722.8988, 1827.179
723.3809, 1824.469
723.8630, 1815.433
724.3452, 1813.351
724.8273, 1819.159
725.3094, 1825.247
725.7915, 1828.747
726.2736, 1829.693
726.7557, 1827.037
727.2379, 1821.248
727.7200, 1816.021
728.2021, 1810.799
728.6842, 1809.240
729.1663, 1817.831
729.6484, 1837.488
730.1306, 1849.423
730.6127, 1841.831
731.0948, 1830.240
731.5769, 1823.229
732.0590, 1821.989
732.5411, 1820.160
733.0233, 1817.619
733.5054, 1814.763
733.9875, 1811.240
734.4696, 1807.403
734.9517, 1805.542
735.4338, 1805.631
735.9160, 1809.260
736.3981, 1824.312
736.8802, 1841.975
737.3623, 1848.031
737.8444, 1831.051
738.3266, 1816.898
738.8087, 1817.979
739.2908, 1826.852
739.7729, 1832.695
740.2551, 1833.482
740.7372, 1834.030
741.2193, 1834.743
741.7014, 1835.622
742.1835, 1835.910
742.6656, 1835.580
743.1478, 1838.724
743.6299, 1848.958
744.1120, 1860.507
744.5941, 1864.039
745.0762, 1861.123
745.5583, 1856.744
746.0405, 1847.104
746.5226, 1842.532
747.0047, 1855.043
747.4868, 1880.256
747.9689, 1892.169
748.4510, 1877.985
748.9332, 1862.570
749.4153, 1852.646
749.8974, 1848.073
750.3795, 1846.976
750.8616, 1849.572
751.3438, 1853.883
751.8259, 1860.693
752.3080, 1867.873
752.7901, 1871.397
753.2722, 1871.019
753.7543, 1865.078
754.2365, 1840.979
754.7186, 1818.774
755.2007, 1817.650
755.6828, 1843.968
756.1649, 1865.505
756.6470, 1876.649
757.1292, 1881.951
757.6113, 1883.181
758.0934, 1879.127
758.5755, 1876.840
759.0576, 1876.973
759.5397, 1876.628
760.0219, 1869.383
760.5040, 1859.001
760.9861, 1859.809
761.4682, 1876.165
761.9503, 1891.834
762.4324, 1889.694
762.9146, 1881.498
763.3967, 1881.878
763.8788, 1906.650
764.3609, 1920.035
764.8430, 1909.323
765.3251, 1888.126
765.8073, 1869.803
766.2894, 1853.091
766.7715, 1844.939
767.2536, 1847.798
767.7357, 1856.985
768.2178, 1866.374
768.7000, 1875.657
769.1821, 1883.722
769.6642, 1892.094
770.1463, 1896.205
770.6284, 1886.571
771.1105, 1870.563
771.5927, 1862.434
772.0748, 1874.415
772.5569, 1885.752
773.0390, 1892.033
773.5211, 1894.205
774.0032, 1894.585
774.4854, 1893.589
774.9675, 1888.561
775.4496, 1875.954
775.9317, 1861.217
776.4138, 1859.970
776.8959, 1870.057
777.3781, 1879.710
777.8602, 1882.082
778.3423, 1881.952
778.8244, 1880.970
779.3065, 1880.381
779.7886, 1885.071
780.2708, 1909.128
780.7529, 1925.023
781.2350, 1920.266
781.7171, 1897.875
782.1992, 1887.086
782.6813, 1890.482
783.1635, 1895.563
783.6456, 1895.551
784.1277, 1892.398
784.6098, 1892.279
785.0919, 1895.091
785.5740, 1899.662
786.0562, 1908.948
786.5383, 1917.019
787.0204, 1917.641
787.5025, 1910.540
787.9846, 1904.426
788.4667, 1899.092
788.9489, 1897.657
789.4310, 1903.648
789.9131, 1917.909
790.3952, 1920.648
790.8773, 1909.153
791.3594, 1898.682
791.8416, 1903.839
792.3237, 1918.423
792.8058, 1926.689
793.2879, 1927.930
793.7700, 1924.267
794.2521, 1911.608
794.7343, 1898.446
795.2164, 1892.147
795.6985, 1894.692
796.1806, 1898.980
796.6627, 1904.859
797.1448, 1911.397
797.6270, 1918.504
798.1091, 1926.607
798.5912, 1931.992
799.0733, 1934.742
799.5554, 1934.395
800.0375, 1927.064
800.5197, 1917.243
801.0018, 1914.757
801.4839, 1921.836
801.9660, 1928.626
802.4481, 1927.271
802.9302, 1924.182
803.4124, 1925.205
803.8945, 1935.048
804.3766, 1939.710
804.8587, 1935.824
805.3408, 1931.199
805.8229, 1935.029
806.3051, 1947.214
806.7872, 1950.466
807.2693, 1942.106
807.7514, 1932.208
808.2335, 1930.922
808.7156, 1934.923
809.1978, 1939.884
809.6799, 1945.993
810.1620, 1949.329
810.6441, 1945.531
811.1262, 1939.710
811.6083, 1937.202
812.0905, 1941.244
812.5726, 1940.747
813.0547, 1933.476
813.5368, 1925.562
814.0189, 1925.542
814.5010, 1931.860
814.9832, 1934.536
815.4653, 1931.000
815.9474, 1928.419
816.4295, 1936.648
816.9116, 1948.368
817.3937, 1954.125
817.8759, 1948.039
818.3580, 1942.846
818.8401, 1939.489
819.3222, 1939.287
819.8043, 1945.268
820.2864, 1960.380
820.7686, 1967.025
821.2507, 1961.854
821.7328, 1953.233
822.2149, 1951.799
822.6970, 1955.506
823.1791, 1959.916
823.6613, 1965.088
824.1434, 1967.146
824.6255, 1960.360
825.1076, 1950.448
825.5897, 1943.863
826.0718, 1940.203
826.5540, 1942.886
827.0361, 1955.186
827.5182, 1970.045
828.0003, 1979.043
828.4824, 1982.175
828.9645, 1985.615
829.4467, 1990.848
829.9288, 1993.949
830.4109, 1989.101
830.8930, 1979.615
831.3751, 1969.761
831.8572, 1958.133
832.3394, 1952.224
832.8215, 1958.310
833.3036, 1969.563
833.7857, 1979.009
834.2678, 1988.461
834.7499, 1988.897
835.2321, 1976.257
835.7142, 1962.645
836.1963, 1965.401
836.6784, 1980.357
837.1605, 1992.586
837.6426, 1999.249
838.1248, 2002.460
838.6069, 2001.178
839.0890, 1998.595
839.5711, 1996.825
840.0532, 1994.757
840.5353, 2005.702
841.0175, 2012.324
841.4996, 2014.856
841.9817, 2001.047
842.4638, 2008.339
842.9459, 2007.175
843.4280, 2005.664
843.9102, 2015.926
844.3923, 1998.737
844.8744, 2010.987
845.3565, 2011.595
845.8386, 1993.089
846.3207, 1979.825
846.8029, 1986.217
847.2850, 1999.317
847.7671, 2008.105
848.2492, 2012.501
848.7313, 2011.140
849.2134, 2001.608
849.6956, 1992.513
850.1777, 1995.209
850.6598, 2005.660
851.1419, 2008.905
851.6240, 2002.608
852.1061, 1994.957
852.5883, 1987.791
853.0704, 1984.825
853.5525, 1990.880
854.0346, 2011.390
854.5167, 2025.830
854.9988, 2031.291
855.4810, 2032.892
855.9631, 2034.327
856.4452, 2035.630
856.9273, 2033.607
857.4094, 2028.030
857.8915, 2021.465
858.3737, 2012.434
858.8558, 2005.703
859.3379, 2010.568
859.8200, 2029.190
860.3021, 2041.521
860.7842, 2030.545
861.2664, 2019.261
861.7485, 2022.304
862.2306, 2042.049
862.7127, 2050.560
863.1948, 2045.308
863.6769, 2040.255
864.1591, 2050.106
864.6412, 2066.435
865.1233, 2066.296
865.6054, 2050.381
866.0875, 2037.264
866.5696, 2038.846
867.0518, 2046.000
867.5339, 2056.416
868.0160, 2070.112
868.4981, 2070.051
868.9802, 2047.672
869.4623, 2029.640
869.9445, 2030.388
870.4266, 2045.705
870.9087, 2057.632
871.3908, 2066.291
871.8729, 2071.568
872.3550, 2071.363
872.8372, 2069.543
873.3193, 2069.680
873.8014, 2071.310
874.2835, 2071.303
874.7656, 2065.680
875.2477, 2062.345
875.7299, 2063.883
876.2120, 2069.078
876.6941, 2074.251
877.1762, 2079.387
877.6583, 2080.996
878.1404, 2073.727
878.6226, 2066.104
879.1047, 2074.135
879.5869, 2090.976
880.0690, 2099.228
880.5511, 2082.041
881.0332, 2067.138
881.5153, 2062.815
881.9974, 2065.904
882.4796, 2070.956
882.9617, 2078.407
883.4438, 2085.755
883.9259, 2093.154
884.4080, 2098.536
884.8901, 2095.947
885.3723, 2088.899
885.8544, 2085.823
886.3365, 2092.303
886.8186, 2098.950
887.3007, 2098.757
887.7828, 2097.534
888.2650, 2104.417
888.7471, 2125.975
889.2292, 2137.276
889.7113, 2134.248
890.1934, 2125.103
890.6755, 2119.865
891.1577, 2117.335
891.6398, 2112.927
892.1219, 2105.081
892.6040, 2099.267
893.0861, 2101.255
893.5682, 2105.987
894.0504, 2108.377
894.5325, 2105.215
895.0146, 2106.748
895.4967, 2115.135
895.9788, 2124.213
896.4609, 2127.595
896.9431, 2126.610
897.4252, 2129.880
897.9073, 2137.901
898.3894, 2146.750
898.8715, 2157.749
899.3536, 2165.385
899.8358, 2161.716
900.3179, 2144.560
900.8000, 2137.989
901.2821, 2150.846
901.7642, 2164.880
902.2463, 2173.233
902.7285, 2175.820
903.2106, 2169.973
903.6927, 2156.160
904.1748, 2146.003
904.6569, 2147.975
905.1390, 2155.974
905.6212, 2167.026
906.1033, 2179.349
906.5854, 2186.670
907.0675, 2181.778
907.5496, 2177.896
908.0317, 2177.610
908.5139, 2180.664
908.9960, 2187.987
909.4781, 2199.578
909.9602, 2207.734
910.4423, 2209.128
910.9244, 2206.722
911.4066, 2200.666
911.8887, 2194.025
912.3708, 2192.405
912.8529, 2200.232
913.3350, 2210.386
913.8171, 2224.155
914.2993, 2237.611
914.7814, 2243.727
915.2635, 2241.517
915.7456, 2247.623
916.2277, 2267.154
916.7098, 2283.384
917.1920, 2264.914
917.6741, 2235.130
918.1562, 2232.290
918.6383, 2274.001
919.1204, 2306.893
919.6025, 2301.267
920.0847, 2292.585
920.5668, 2307.624
921.0489, 2352.531
921.5310, 2375.627
922.0131, 2375.038
922.4952, 2368.000
922.9774, 2361.776
923.4595, 2361.174
923.9416, 2379.693
924.4237, 2415.949
924.9058, 2441.276
925.3879, 2427.795
925.8701, 2418.244
926.3522, 2433.552
926.8343, 2469.817
927.3164, 2492.805
927.7985, 2500.758
928.2806, 2512.642
928.7628, 2537.764
929.2449, 2571.016
929.7270, 2605.422
930.2091, 2641.470
930.6912, 2681.500
931.1733, 2724.150
931.6555, 2773.249
932.1376, 2833.931
932.6197, 2899.756
933.1018, 2954.783
933.5839, 2994.290
934.0660, 3061.215
934.5482, 3163.558
935.0303, 3296.837
935.5124, 3457.846
935.9945, 3647.649
936.4766, 3860.950
936.9587, 4086.562
937.4409, 4371.876
937.9230, 4731.291
938.4051, 5164.354
938.8872, 5670.906
939.3693, 6259.499
939.8514, 6896.450
940.3336, 7573.653
940.8157, 8315.717
941.2978, 9152.854
941.7799, 10069.67
942.2620, 11047.21
942.7441, 12080.68
943.2263, 13194.15
943.7084, 14384.13
944.1905, 15647.37
944.6726, 16981.40
945.1547, 18381.67
945.6368, 19826.89
946.1190, 21331.94
946.6011, 22837.13
947.0832, 24393.20
947.5653, 25854.64
948.0474, 27231.48
948.5295, 28368.34
949.0117, 28903.86
949.4938, 28682.08
949.9759, 27841.74
950.4580, 26297.95
950.9401, 24281.07
951.4222, 22063.70
951.9044, 19631.21
952.3865, 17325.10
952.8686, 15189.14
953.3507, 13240.53
953.8328, 11491.01
954.3149, 9942.950
954.7971, 8596.010
955.2792, 7488.395
955.7613, 6546.297
956.2434, 5774.039
956.7255, 5134.837
957.2076, 4619.333
957.6898, 4224.675
958.1719, 3914.474
958.6540, 3685.733
959.1361, 3500.671
959.6182, 3340.115
960.1003, 3202.840
960.5825, 3086.577
961.0646, 2991.036
961.5467, 2916.064
962.0288, 2875.252
962.5109, 2834.096
962.9930, 2782.717
963.4752, 2728.833
963.9573, 2694.292
964.4394, 2676.923
964.9215, 2662.183
965.4036, 2647.392
965.8857, 2629.340
966.3679, 2599.097
966.8500, 2566.735
967.3321, 2545.745
967.8142, 2549.633
968.2963, 2543.015
968.7784, 2522.047
969.2606, 2498.139
969.7427, 2486.392
970.2248, 2481.648
970.7069, 2459.054
971.1890, 2417.198
971.6711, 2388.619
972.1533, 2412.304
972.6354, 2442.126
973.1175, 2443.612
973.5996, 2416.403
974.0817, 2401.347
974.5638, 2400.764
975.0460, 2404.497
975.5281, 2410.381
976.0102, 2416.031
976.4923, 2415.052
976.9744, 2409.490
977.4565, 2405.357
977.9387, 2407.474
978.4208, 2408.890
978.9029, 2406.019
979.3850, 2401.619
979.8671, 2399.282
980.3492, 2399.209
980.8314, 2400.293
981.3135, 2402.567
981.7956, 2405.318
982.2777, 2408.190
982.7598, 2410.874
983.2419, 2412.854
983.7241, 2413.989
984.2062, 2414.996
984.6883, 2413.362
985.1704, 2414.611
985.6525, 2421.958
986.1346, 2434.794
986.6168, 2446.466
987.0989, 2457.045
987.5810, 2468.702
988.0631, 2484.403
988.5452, 2500.362
989.0273, 2509.339
989.5095, 2515.735
989.9916, 2530.932
990.4737, 2561.894
990.9558, 2594.886
991.4379, 2628.990
991.9200, 2663.057
992.4022, 2691.377
992.8843, 2717.091
993.3664, 2756.603
993.8485, 2814.086
994.3306, 2875.642
994.8127, 2931.891
995.2949, 2987.957
995.7770, 3046.606
996.2591, 3106.673
996.7412, 3177.406
997.2233, 3258.584
997.7054, 3349.000
998.1876, 3459.255
998.6697, 3573.259
999.1518, 3654.446
999.6339, 3708.365
1000.116, 3758.563
1000.598, 3809.723
1001.080, 3866.627
1001.562, 3942.561
1002.044, 4020.342
1002.527, 4074.165
1003.009, 4104.374
1003.491, 4099.741
1003.973, 4058.007
1004.455, 3982.261
1004.937, 3861.582
1005.419, 3716.333
1005.901, 3571.387
1006.384, 3429.778
1006.866, 3295.702
1007.348, 3165.733
1007.830, 3049.363
1008.312, 2953.766
1008.794, 2876.942
1009.276, 2806.668
1009.758, 2742.781
1010.240, 2681.470
1010.723, 2613.542
1011.205, 2554.364
1011.687, 2515.207
1012.169, 2492.638
1012.651, 2476.315
1013.133, 2468.194
1013.615, 2458.472
1014.097, 2445.092
1014.580, 2431.200
1015.062, 2422.594
1015.544, 2416.417
1016.026, 2406.535
1016.508, 2391.084
1016.990, 2376.690
1017.472, 2363.278
1017.954, 2354.745
1018.436, 2356.639
1018.919, 2367.829
1019.401, 2359.890
1019.883, 2332.768
1020.365, 2306.829
1020.847, 2293.373
1021.329, 2287.068
1021.811, 2286.566
1022.293, 2288.809
1022.776, 2286.006
1023.258, 2268.880
1023.740, 2260.433
1024.222, 2266.134
1024.704, 2275.816
1025.186, 2273.366
1025.668, 2263.046
1026.150, 2261.073
1026.632, 2270.434
1027.115, 2277.674
1027.597, 2271.986
1028.079, 2263.611
1028.561, 2258.905
1029.043, 2257.882
1029.525, 2260.552
1030.007, 2267.756
1030.489, 2270.988
1030.972, 2262.318
1031.454, 2252.045
1031.936, 2258.552
1032.418, 2273.992
1032.900, 2281.478
1033.382, 2269.205
1033.864, 2257.325
1034.346, 2246.570
1034.828, 2238.817
1035.311, 2236.698
1035.793, 2239.742
1036.275, 2246.023
1036.757, 2255.453
1037.239, 2263.730
1037.721, 2267.955
1038.203, 2269.845
1038.685, 2268.846
1039.167, 2265.772
1039.650, 2268.319
1040.132, 2278.504
1040.614, 2285.442
1041.096, 2285.183
1041.578, 2280.095
1042.060, 2267.403
1042.542, 2254.134
1043.024, 2254.545
1043.507, 2283.493
1043.989, 2305.092
1044.471, 2310.834
1044.953, 2310.073
1045.435, 2309.931
1045.917, 2310.097
1046.399, 2302.962
1046.881, 2289.124
1047.364, 2282.568
1047.846, 2299.638
1048.328, 2320.866
1048.810, 2333.291
1049.292, 2338.234
1049.774, 2344.723
1050.256, 2353.980
1050.738, 2360.309
1051.220, 2361.754
1051.703, 2362.058
1052.185, 2363.008
1052.667, 2367.711
1053.149, 2382.958
1053.631, 2412.528
1054.113, 2440.821
1054.595, 2460.013
1055.077, 2481.239
1055.559, 2510.051
1056.042, 2545.722
1056.524, 2582.002
1057.006, 2620.326
1057.488, 2672.409
1057.970, 2746.387
1058.452, 2834.377
1058.934, 2937.900
1059.416, 3051.540
1059.899, 3160.946
1060.381, 3258.296
1060.863, 3382.302
1061.345, 3540.841
1061.827, 3707.815
1062.309, 3853.007
1062.791, 3993.732
1063.273, 4154.528
1063.755, 4338.583
1064.238, 4527.908
1064.720, 4729.664
1065.202, 4924.428
1065.684, 5109.505
1066.166, 5279.470
1066.648, 5441.841
1067.130, 5577.925
1067.612, 5610.918
1068.094, 5502.013
1068.577, 5317.210
1069.059, 5062.936
1069.541, 4771.370
1070.023, 4465.001
1070.505, 4132.678
1070.987, 3846.101
1071.469, 3602.882
1071.951, 3393.403
1072.434, 3212.070
1072.916, 3056.946
1073.398, 2920.849
1073.880, 2806.318
1074.362, 2723.824
1074.844, 2693.310
1075.326, 2661.468
1075.808, 2617.579
1076.291, 2577.059
1076.773, 2565.994
1077.255, 2575.250
1077.737, 2579.925
1078.219, 2576.401
1078.701, 2569.816
1079.183, 2559.090
1079.665, 2549.773
1080.147, 2544.921
1080.630, 2543.742
1081.112, 2541.577
1081.594, 2538.443
1082.076, 2534.986
1082.558, 2531.944
1083.040, 2527.717
1083.522, 2517.280
1084.004, 2506.388
1084.486, 2504.326
1084.969, 2520.334
1085.451, 2519.321
1085.933, 2497.160
1086.415, 2473.592
1086.897, 2464.537
1087.379, 2463.764
1087.861, 2462.368
1088.343, 2459.723
1088.826, 2454.357
1089.308, 2442.825
1089.790, 2432.347
1090.272, 2423.844
1090.754, 2417.424
1091.236, 2414.139
1091.718, 2413.247
1092.200, 2411.683
1092.682, 2409.097
1093.165, 2404.626
1093.647, 2393.965
1094.129, 2384.846
1094.611, 2385.391
1095.093, 2392.802
1095.575, 2382.274
1096.057, 2352.629
1096.539, 2335.708
1097.022, 2349.617
1097.504, 2368.914
1097.986, 2362.595
1098.468, 2347.445
1098.950, 2348.484
1099.432, 2382.623
1099.914, 2394.955
1100.396, 2379.294
1100.879, 2361.286
1101.361, 2360.746
1101.843, 2369.961
1102.325, 2374.384
1102.807, 2375.149
1103.289, 2376.984
1103.771, 2384.036
1104.253, 2389.202
1104.735, 2391.931
1105.218, 2391.682
1105.700, 2387.021
1106.182, 2378.573
1106.664, 2368.637
1107.146, 2357.305
1107.628, 2348.184
1108.110, 2339.068
1108.592, 2337.293
1109.074, 2351.032
1109.557, 2375.186
1110.039, 2389.580
1110.521, 2394.229
1111.003, 2395.202
1111.485, 2392.550
1111.967, 2391.990
1112.449, 2406.036
1112.931, 2421.002
1113.414, 2420.159
1113.896, 2398.097
1114.378, 2379.803
1114.860, 2364.916
1115.342, 2355.421
1115.824, 2353.259
1116.306, 2356.471
1116.788, 2364.511
1117.271, 2375.136
1117.753, 2383.465
1118.235, 2384.918
1118.717, 2388.596
1119.199, 2395.905
1119.681, 2403.987
1120.163, 2412.293
1120.645, 2418.763
1121.127, 2413.363
1121.609, 2397.602
1122.092, 2388.867
1122.574, 2406.184
1123.056, 2419.265
1123.538, 2415.563
1124.020, 2403.904
1124.502, 2402.528
1124.984, 2410.075
1125.466, 2415.027
1125.949, 2415.128
1126.431, 2413.644
1126.913, 2412.741
1127.395, 2411.119
1127.877, 2406.161
1128.359, 2398.918
1128.841, 2399.199
1129.323, 2407.422
1129.806, 2416.536
1130.288, 2425.862
1130.770, 2431.001
1131.252, 2420.009
1131.734, 2405.649
1132.216, 2407.248
1132.698, 2435.702
1133.180, 2445.104
1133.662, 2431.196
1134.145, 2415.905
1134.627, 2412.316
1135.109, 2416.459
1135.591, 2427.040
1136.073, 2440.052
1136.555, 2445.074
1137.037, 2429.244
1137.519, 2420.503
1138.001, 2422.494
1138.484, 2427.598
1138.966, 2427.689
1139.448, 2424.835
1139.930, 2423.009
1140.412, 2422.745
1140.894, 2426.208
1141.376, 2442.573
1141.858, 2451.873
1142.341, 2447.860
1142.823, 2435.652
1143.305, 2421.965
1143.787, 2407.963
1144.269, 2399.387
1144.751, 2397.629
1145.233, 2396.383
1145.715, 2389.909
1146.198, 2385.286
1146.680, 2387.407
1147.162, 2394.315
1147.644, 2395.485
1148.126, 2391.578
1148.608, 2391.399
1149.090, 2398.107
1149.572, 2408.345
1150.054, 2424.854
1150.536, 2439.905
1151.019, 2446.422
1151.501, 2444.214
1151.983, 2433.732
1152.465, 2414.380
1152.947, 2400.280
1153.429, 2400.471
1153.911, 2407.708
1154.393, 2417.069
1154.876, 2428.118
1155.358, 2441.115
1155.840, 2460.582
1156.322, 2466.444
1156.804, 2456.213
1157.286, 2444.034
1157.768, 2441.204
1158.250, 2443.043
1158.733, 2441.371
1159.215, 2438.884
1159.697, 2447.705
1160.179, 2482.041
1160.661, 2498.305
1161.143, 2487.091
1161.625, 2469.259
1162.107, 2471.421
1162.589, 2482.219
1163.072, 2481.674
1163.554, 2468.923
1164.036, 2457.464
1164.518, 2449.057
1165.000, 2444.985
1165.482, 2445.875
1165.964, 2450.879
1166.446, 2462.292
1166.928, 2475.706
1167.411, 2479.606
1167.893, 2470.108
1168.375, 2464.387
1168.857, 2474.614
1169.339, 2480.701
1169.821, 2471.302
1170.303, 2455.097
1170.785, 2461.352
1171.268, 2482.863
1171.750, 2496.014
1172.232, 2491.637
1172.714, 2482.361
1173.196, 2466.870
1173.678, 2454.098
1174.160, 2449.516
1174.642, 2452.538
1175.125, 2462.085
1175.607, 2476.936
1176.089, 2489.991
1176.571, 2501.165
1177.053, 2505.660
1177.535, 2493.015
1178.017, 2478.984
1178.499, 2479.315
1178.981, 2493.813
1179.464, 2506.234
1179.946, 2516.147
1180.428, 2520.214
1180.910, 2511.559
1181.392, 2501.762
1181.874, 2494.955
1182.356, 2491.957
1182.838, 2494.425
1183.320, 2502.542
1183.803, 2512.818
1184.285, 2525.178
1184.767, 2533.307
1185.249, 2533.543
1185.731, 2527.061
1186.213, 2507.904
1186.695, 2483.616
1187.177, 2475.490
1187.660, 2484.529
1188.142, 2494.768
1188.624, 2503.671
1189.106, 2512.531
1189.588, 2528.490
1190.070, 2539.879
1190.552, 2532.330
1191.034, 2509.352
1191.516, 2498.858
1191.999, 2502.375
1192.481, 2502.317
1192.963, 2492.369
1193.445, 2484.409
1193.927, 2492.747
1194.409, 2507.415
1194.891, 2520.751
1195.373, 2532.171
1195.855, 2529.753
1196.338, 2511.357
1196.820, 2498.198
1197.302, 2501.443
1197.784, 2507.416
1198.266, 2497.802
1198.748, 2483.823
1199.230, 2480.298
1199.712, 2490.117
1200.195, 2502.446
1200.677, 2518.761
1201.159, 2526.787
1201.641, 2514.623
1202.123, 2497.490
1202.605, 2491.215
1203.087, 2492.588
1203.569, 2496.734
1204.052, 2504.796
1204.534, 2509.535
1205.016, 2510.397
1205.498, 2511.478
1205.980, 2520.084
1206.462, 2526.850
1206.944, 2514.507
1207.426, 2492.992
1207.908, 2486.470
1208.391, 2501.594
1208.873, 2518.687
1209.355, 2538.510
1209.837, 2552.643
1210.319, 2551.835
1210.801, 2543.048
1211.283, 2530.466
1211.765, 2516.499
1212.247, 2509.098
1212.730, 2509.994
1213.212, 2513.439
1213.694, 2519.671
1214.176, 2524.403
1214.658, 2520.836
1215.140, 2515.480
1215.622, 2514.825
1216.104, 2519.300
1216.587, 2529.411
1217.069, 2548.940
1217.551, 2560.321
1218.033, 2560.374
1218.515, 2553.127
1218.997, 2536.477
1219.479, 2519.467
1219.961, 2512.586
1220.443, 2516.515
1220.926, 2524.350
1221.408, 2537.807
1221.890, 2545.570
1222.372, 2543.471
1222.854, 2540.234
1223.336, 2550.371
1223.818, 2562.638
1224.300, 2561.039
1224.782, 2543.285
1225.265, 2540.044
1225.747, 2555.518
1226.229, 2565.112
1226.711, 2559.628
1227.193, 2549.858
1227.675, 2545.768
1228.157, 2546.701
1228.639, 2554.764
1229.122, 2571.460
1229.604, 2572.313
1230.086, 2553.487
1230.568, 2545.785
1231.050, 2566.985
1231.532, 2591.865
1232.014, 2588.503
1232.496, 2573.425
1232.979, 2567.162
1233.461, 2572.206
1233.943, 2578.033
1234.425, 2584.677
1234.907, 2591.800
1235.389, 2602.555
1235.871, 2608.294
1236.353, 2593.574
1236.835, 2572.523
1237.318, 2565.707
1237.800, 2576.528
1238.282, 2576.179
1238.764, 2563.835
1239.246, 2557.583
1239.728, 2573.007
1240.210, 2591.634
1240.692, 2600.599
1241.175, 2601.552
1241.657, 2594.790
1242.139, 2577.021
1242.621, 2577.666
1243.103, 2596.920
1243.585, 2614.543
1244.067, 2615.686
1244.549, 2613.867
1245.031, 2619.958
1245.514, 2627.628
1245.996, 2627.630
1246.478, 2619.101
1246.960, 2612.113
1247.442, 2606.984
1247.924, 2607.142
1248.406, 2619.233
1248.888, 2632.339
1249.370, 2643.144
1249.853, 2649.589
1250.335, 2645.852
1250.817, 2632.651
1251.299, 2635.988
1251.781, 2655.505
1252.263, 2669.331
1252.745, 2653.357
1253.227, 2641.482
1253.710, 2657.975
1254.192, 2679.286
1254.674, 2671.572
1255.156, 2639.961
1255.638, 2620.500
1256.120, 2614.973
1256.602, 2616.197
1257.084, 2625.508
1257.567, 2634.104
1258.049, 2636.707
1258.531, 2640.018
1259.013, 2660.327
1259.495, 2689.094
1259.977, 2690.612
1260.459, 2664.727
1260.941, 2641.237
1261.423, 2627.631
1261.906, 2628.960
1262.388, 2652.801
1262.870, 2680.352
1263.352, 2680.627
1263.834, 2664.717
1264.316, 2657.862
1264.798, 2661.813
1265.280, 2666.317
1265.762, 2669.092
1266.245, 2670.951
1266.727, 2672.110
1267.209, 2672.251
1267.691, 2668.327
1268.173, 2664.355
1268.655, 2668.846
1269.137, 2681.816
1269.619, 2690.063
1270.102, 2691.179
1270.584, 2691.077
1271.066, 2691.541
1271.548, 2689.188
1272.030, 2676.295
1272.512, 2660.582
1272.994, 2648.472
1273.476, 2641.982
1273.958, 2650.580
1274.441, 2678.351
1274.923, 2701.680
1275.405, 2716.023
1275.887, 2721.070
1276.369, 2713.366
1276.851, 2698.661
1277.333, 2674.254
1277.815, 2646.146
1278.297, 2652.984
1278.780, 2697.078
1279.262, 2723.905
1279.744, 2718.816
1280.226, 2707.131
1280.708, 2705.849
1281.190, 2709.035
1281.672, 2716.202
1282.154, 2723.484
1282.637, 2711.681
1283.119, 2683.920
1283.601, 2672.706
1284.083, 2687.190
1284.565, 2700.509
1285.047, 2693.209
1285.529, 2683.942
1286.011, 2681.570
1286.494, 2684.255
1286.976, 2687.963
1287.458, 2692.311
1287.940, 2695.195
1288.422, 2695.605
1288.904, 2699.661
1289.386, 2719.106
1289.868, 2728.212
1290.350, 2713.200
1290.833, 2690.590
1291.315, 2696.708
1291.797, 2719.014
1292.279, 2733.988
1292.761, 2737.344
1293.243, 2731.868
1293.725, 2713.026
1294.207, 2700.747
1294.689, 2702.906
1295.172, 2711.206
1295.654, 2715.848
1296.136, 2717.891
1296.618, 2718.551
1297.100, 2717.844
1297.582, 2715.606
1298.064, 2711.056
1298.546, 2710.830
1299.029, 2719.058
1299.511, 2725.614
1299.993, 2716.315
1300.475, 2702.746
1300.957, 2697.362
1301.439, 2698.897
1301.921, 2694.912
1302.403, 2685.713
1302.885, 2681.210
1303.368, 2685.094
##END=



