##NAMES=Livingstonite
##RRUFFID=R050427
##IDEAL CHEMISTRY=HgSb_4_S_8_
##LOCALITY=Huitzuco, Guerrero, Mexico
##OWNER=RRUFF
##SOURCE=University of Arizona Mineral Museum
##DESCRIPTION=Aggregate of blackish-gray elongated crystals
##STATUS=The identification of this mineral has been confirmed by X-ray diffraction and chemical analysis
##URL=rruff.info/R050427
##MEASURED CHEMISTRY=Hg_1.00_Sb_4.00_S_8.00_
106.577, 1954.676
107.060, 2170.350
107.542, 2396.694
108.024, 2624.225
108.506, 2851.366
108.988, 3064.388
109.470, 3293.860
109.952, 3553.775
110.434, 3833.465
110.916, 4091.042
111.399, 4286.670
111.881, 4482.249
112.363, 4714.204
112.845, 5005.134
113.327, 5311.678
113.809, 5636.501
114.291, 5978.912
114.773, 6313.326
115.256, 6648.559
115.738, 6966.703
116.220, 7241.753
116.702, 7478.759
117.184, 7661.903
117.666, 7775.530
118.148, 7807.443
118.630, 7810.114
119.113, 7788.624
119.595, 7755.068
120.077, 7736.687
120.559, 7771.454
121.041, 7816.215
121.523, 7830.927
122.005, 7796.721
122.487, 7741.792
122.969, 7684.731
123.451, 7625.621
123.934, 7566.835
124.416, 7498.733
124.898, 7433.016
125.380, 7390.101
125.862, 7385.097
126.344, 7404.905
126.826, 7428.151
127.308, 7453.132
127.791, 7495.013
128.273, 7578.726
128.755, 7696.622
129.237, 7816.247
129.719, 7911.549
130.201, 7994.523
130.683, 8102.031
131.165, 8238.947
131.648, 8398.980
132.130, 8579.010
132.612, 8779.041
133.094, 8993.781
133.576, 9217.389
134.058, 9448.609
134.540, 9702.935
135.022, 9984.573
135.504, 10293.060
135.986, 10612.730
136.469, 10947.160
136.951, 11291.580
137.433, 11646.030
137.915, 12009.620
138.397, 12368.970
138.879, 12719.600
139.361, 13059.640
139.844, 13409.660
140.326, 13777.670
140.808, 14145.200
141.290, 14485.850
141.772, 14801.530
142.254, 15080.820
142.736, 15320.190
143.218, 15533.320
143.700, 15676.130
144.182, 15744.440
144.665, 15744.100
145.147, 15695.110
145.629, 15596.700
146.111, 15449.160
146.593, 15251.700
147.075, 14973.310
147.557, 14686.070
148.039, 14390.130
148.522, 14085.910
149.004, 13789.430
149.486, 13493.530
149.968, 13208.170
150.450, 12936.890
150.932, 12685.550
151.414, 12446.170
151.896, 12218.680
152.378, 12004.020
152.861, 11800.760
153.343, 11515.600
153.825, 11340.659
154.307, 11223.449
154.789, 11092.255
155.271, 10947.788
155.753, 10750.313
156.235, 10621.287
156.717, 10464.829
157.200, 10307.214
157.682, 10187.827
158.164, 10023.520
158.646, 9893.286
159.128, 9802.351
159.610, 9724.139
160.092, 9656.157
160.574, 9596.947
161.057, 9545.169
161.539, 9501.109
162.021, 9467.753
162.503, 9454.518
162.985, 9448.192
163.467, 9437.693
163.949, 9413.649
164.431, 9389.503
164.913, 9370.464
165.396, 9356.704
165.878, 9348.731
166.360, 9348.319
166.842, 9353.929
167.324, 9363.539
167.806, 9385.682
168.288, 9406.175
168.770, 9410.844
169.253, 9396.203
169.735, 9386.293
170.217, 9397.317
170.699, 9425.316
171.181, 9462.090
171.663, 9508.328
172.145, 9559.436
172.627, 9605.145
173.109, 9635.783
173.592, 9684.240
174.074, 9786.347
174.556, 9934.637
175.038, 10097.860
175.520, 10234.590
176.002, 10380.480
176.484, 10590.890
176.966, 10895.080
177.449, 11247.840
177.931, 11593.200
178.413, 11931.510
178.895, 12295.260
179.377, 12724.700
179.859, 13199.280
180.341, 13671.010
180.823, 14104.320
181.305, 14537.570
181.788, 15027.280
182.270, 15569.100
182.752, 16174.300
183.234, 16835.480
183.716, 17563.010
184.198, 18370.391
184.680, 19356.270
185.162, 20421.570
185.645, 21433.910
186.127, 22427.779
186.609, 23150.090
187.091, 23265.461
187.573, 22794.160
188.055, 21926.359
188.537, 20571.779
189.019, 18841.580
189.501, 17244.971
189.984, 15778.980
190.466, 14476.100
190.948, 13391.170
191.430, 12515.680
191.912, 11800.490
192.394, 11244.830
192.876, 10840.070
193.358, 10493.170
193.840, 10197.550
194.323, 9953.226
194.805, 9764.113
195.287, 9634.882
195.769, 9533.882
196.251, 9443.451
196.733, 9362.637
197.215, 9288.247
197.697, 9217.437
198.180, 9153.081
198.662, 9106.089
199.144, 9077.797
199.626, 9062.052
200.108, 9059.120
200.590, 9071.371
201.072, 9068.557
201.554, 9086.704
202.036, 9099.764
202.519, 9108.007
203.001, 9097.014
203.483, 9110.861
203.965, 9114.755
204.447, 9118.238
204.929, 9135.582
205.411, 9136.626
205.893, 9142.771
206.376, 9153.803
206.858, 9172.679
207.340, 9191.429
207.822, 9187.765
208.304, 9204.619
208.786, 9216.493
209.268, 9223.654
209.750, 9211.985
210.232, 9224.632
210.715, 9227.533
211.197, 9230.035
211.679, 9246.104
212.161, 9237.173
212.643, 9251.695
213.125, 9249.849
213.607, 9239.529
214.089, 9235.542
214.572, 9240.360
215.054, 9250.077
215.536, 9253.878
216.018, 9245.624
216.500, 9243.008
216.982, 9256.486
217.464, 9292.025
217.946, 9323.509
218.428, 9347.874
218.911, 9367.038
219.393, 9386.360
219.875, 9400.979
220.357, 9423.205
220.839, 9463.931
221.321, 9536.164
221.803, 9592.179
222.285, 9621.877
222.768, 9631.147
223.250, 9652.711
223.732, 9694.146
224.214, 9738.317
224.696, 9772.202
225.178, 9786.131
225.660, 9810.942
226.142, 9848.053
226.624, 9898.322
227.107, 9971.751
227.589, 10089.200
228.071, 10206.430
228.553, 10282.880
229.035, 10291.030
229.517, 10313.510
229.999, 10363.460
230.481, 10440.660
230.964, 10532.250
231.446, 10645.920
231.928, 10767.420
232.410, 10882.510
232.892, 10983.660
233.374, 11091.690
233.856, 11203.760
234.338, 11316.540
234.820, 11473.560
235.303, 11680.710
235.785, 11926.360
236.267, 12195.950
236.749, 12477.420
237.231, 12803.750
237.713, 13169.520
238.195, 13569.060
238.677, 14060.020
239.159, 14655.520
239.642, 15333.170
240.124, 16059.160
240.606, 16829.070
241.088, 17673.939
241.570, 18603.430
242.052, 19636.990
242.534, 20685.750
243.016, 21731.449
243.499, 22803.971
243.981, 23946.689
244.463, 25154.900
244.945, 26439.330
245.427, 27800.609
245.909, 29209.240
246.391, 30764.230
246.873, 32550.510
247.355, 34435.012
247.837, 36223.219
248.320, 38031.910
248.802, 39519.551
249.284, 40621.961
249.766, 41452.301
250.248, 41497.699
250.730, 40651.191
251.212, 39069.891
251.695, 37031.570
252.177, 34289.141
252.659, 31495.580
253.141, 28860.830
253.623, 26356.020
254.105, 24148.420
254.587, 22239.660
255.069, 20609.740
255.551, 19220.730
256.034, 18120.119
256.516, 17199.070
256.998, 16421.020
257.480, 15812.740
257.962, 15291.560
258.444, 14864.600
258.926, 14517.960
259.408, 14207.710
259.890, 13929.770
260.373, 13693.850
260.855, 13506.100
261.337, 13380.090
261.819, 13263.970
262.301, 13155.310
262.783, 13055.690
263.265, 12972.950
263.747, 12907.580
264.229, 12856.260
264.712, 12819.780
265.194, 12804.170
265.676, 12782.670
266.158, 12753.940
266.640, 12719.190
267.122, 12679.620
267.604, 12628.300
268.086, 12588.410
268.569, 12575.410
269.051, 12595.590
269.533, 12616.560
270.015, 12638.610
270.497, 12659.460
270.979, 12672.730
271.461, 12678.680
271.943, 12677.420
272.426, 12665.730
272.908, 12640.710
273.390, 12625.970
273.872, 12627.630
274.354, 12637.920
274.836, 12633.330
275.318, 12608.790
275.800, 12587.240
276.282, 12585.770
276.764, 12606.960
277.247, 12621.120
277.729, 12627.280
278.211, 12623.490
278.693, 12602.420
279.175, 12561.330
279.657, 12515.820
280.139, 12472.450
280.621, 12430.910
281.104, 12400.700
281.586, 12387.770
282.068, 12380.690
282.550, 12346.860
283.032, 12282.610
283.514, 12224.450
283.996, 12201.110
284.478, 12210.540
284.961, 12210.620
285.443, 12194.280
285.925, 12170.750
286.407, 12160.160
286.889, 12162.840
287.371, 12168.370
287.853, 12163.592
288.335, 12180.938
288.817, 12192.914
289.299, 12199.808
289.782, 12186.397
290.264, 12199.206
290.746, 12201.508
291.228, 12203.378
291.710, 12219.876
292.192, 12219.170
292.674, 12213.730
293.156, 12211.610
293.639, 12202.990
294.121, 12171.940
294.603, 12120.060
295.085, 12055.330
295.567, 11973.600
296.049, 11883.370
296.531, 11808.400
297.013, 11756.740
297.496, 11705.810
297.978, 11621.360
298.460, 11508.650
298.942, 11396.160
299.424, 11299.490
299.906, 11213.660
300.388, 11129.790
300.870, 11048.480
301.352, 10961.250
301.835, 10858.700
302.317, 10742.100
302.799, 10613.920
303.281, 10474.120
303.763, 10324.070
304.245, 10166.010
304.727, 9996.430
305.209, 9827.716
305.691, 9676.166
306.174, 9534.005
306.656, 9377.746
307.138, 9178.598
307.620, 8968.141
308.102, 8774.041
308.584, 8601.253
309.066, 8440.610
309.548, 8284.405
310.030, 8135.536
310.513, 7995.278
310.995, 7868.686
311.477, 7746.831
311.959, 7620.470
312.441, 7488.124
312.923, 7362.446
313.405, 7254.689
313.888, 7158.141
314.370, 7064.833
314.852, 6963.560
315.334, 6868.781
315.816, 6793.274
316.298, 6739.813
316.780, 6680.011
317.262, 6589.202
317.744, 6488.869
318.227, 6405.090
318.709, 6357.185
319.191, 6316.034
319.673, 6271.267
320.155, 6222.219
320.637, 6174.218
321.119, 6129.342
321.601, 6085.659
322.083, 6041.890
322.566, 5997.295
323.048, 5952.334
323.530, 5904.568
324.012, 5853.931
324.494, 5810.801
324.976, 5784.471
325.458, 5761.708
325.940, 5732.718
326.422, 5680.113
326.905, 5639.679
327.387, 5624.374
327.869, 5632.049
328.351, 5623.416
328.833, 5583.649
329.315, 5538.255
329.797, 5502.028
330.279, 5481.392
330.762, 5461.355
331.244, 5441.006
331.726, 5420.639
332.208, 5402.584
332.690, 5390.980
333.172, 5376.987
333.654, 5353.982
334.136, 5311.575
334.618, 5283.260
335.101, 5274.375
335.583, 5279.672
336.065, 5284.755
336.547, 5291.898
337.029, 5294.121
337.511, 5286.031
337.993, 5263.974
338.475, 5246.464
338.957, 5233.804
339.440, 5225.807
339.922, 5224.269
340.404, 5231.036
340.886, 5235.648
341.368, 5231.782
341.850, 5218.918
342.332, 5210.675
342.815, 5208.694
343.297, 5207.829
343.779, 5198.936
344.261, 5181.960
344.743, 5166.300
345.225, 5157.512
345.707, 5154.031
346.189, 5142.456
346.671, 5120.224
347.154, 5104.515
347.636, 5124.874
348.118, 5173.598
348.600, 5209.905
349.082, 5213.770
349.564, 5196.007
350.046, 5175.993
350.528, 5153.461
351.010, 5134.491
351.493, 5130.308
351.975, 5133.699
352.457, 5127.829
352.939, 5100.598
353.421, 5067.802
353.903, 5050.872
354.385, 5047.792
354.867, 5042.593
355.349, 5015.240
355.832, 4982.395
356.314, 4966.770
356.796, 4983.324
357.278, 5005.062
357.760, 5010.687
358.242, 5004.353
358.724, 5000.515
359.206, 5000.125
359.689, 5008.950
360.171, 5033.228
360.653, 5080.240
361.135, 5129.047
361.617, 5167.722
362.099, 5201.424
362.581, 5241.693
363.063, 5291.908
363.546, 5349.712
364.028, 5414.859
364.510, 5488.814
364.992, 5564.858
365.474, 5643.540
365.956, 5723.666
366.438, 5801.302
366.920, 5883.814
367.402, 5957.860
367.884, 6021.410
368.367, 6075.360
368.849, 6114.031
369.331, 6139.071
369.813, 6147.981
370.295, 6138.561
370.777, 6112.756
371.259, 6065.246
371.741, 5990.996
372.224, 5890.659
372.706, 5789.123
373.188, 5689.839
373.670, 5586.192
374.152, 5470.234
374.634, 5333.917
375.116, 5210.575
375.598, 5103.385
376.081, 5011.377
376.563, 4928.009
377.045, 4853.265
377.527, 4786.698
378.009, 4729.375
378.491, 4682.850
378.973, 4634.058
379.455, 4581.854
379.937, 4527.773
380.419, 4470.675
380.902, 4411.034
381.384, 4357.832
381.866, 4316.395
382.348, 4285.476
382.830, 4262.861
383.312, 4249.033
383.794, 4240.013
384.276, 4232.309
384.759, 4225.783
385.241, 4220.300
385.723, 4217.646
386.205, 4215.002
386.687, 4206.547
387.169, 4192.263
387.651, 4178.904
388.133, 4174.269
388.616, 4173.345
389.098, 4168.234
389.580, 4152.316
390.062, 4135.944
390.544, 4127.540
391.026, 4125.790
391.508, 4124.231
391.990, 4126.420
392.472, 4123.702
392.955, 4106.759
393.437, 4062.124
393.919, 4025.409
394.401, 4015.316
394.883, 4023.456
395.365, 4032.149
395.847, 4039.534
396.329, 4044.073
396.811, 4044.521
397.294, 4039.442
397.776, 4034.556
398.258, 4034.478
398.740, 4033.596
399.222, 4024.865
399.704, 4001.557
400.186, 3977.452
400.668, 3952.350
401.151, 3925.554
401.633, 3910.443
402.115, 3910.418
402.597, 3918.765
403.079, 3931.996
403.561, 3955.559
404.043, 3970.350
404.525, 3972.624
405.008, 3964.475
405.490, 3953.265
405.972, 3936.856
406.454, 3923.749
406.936, 3920.779
407.418, 3928.503
407.900, 3932.674
408.382, 3931.624
408.864, 3927.988
409.346, 3926.467
409.829, 3926.970
410.311, 3926.635
410.793, 3919.778
411.275, 3910.902
411.757, 3917.226
412.239, 3940.345
412.721, 3964.911
413.203, 3975.495
413.686, 3975.165
414.168, 3971.608
414.650, 3961.193
415.132, 3953.899
415.614, 3966.396
416.096, 3995.594
416.578, 4019.544
417.060, 4018.116
417.543, 4006.257
418.025, 4000.647
418.507, 4011.916
418.989, 4017.881
419.471, 3997.638
419.953, 3962.737
420.435, 3941.122
420.917, 3950.326
421.399, 3969.337
421.882, 3990.146
422.364, 4014.680
422.846, 4031.189
423.328, 4031.132
423.810, 4024.401
424.292, 4023.069
424.774, 4030.662
425.256, 4041.070
425.738, 4053.884
426.221, 4068.959
426.703, 4084.790
427.185, 4099.390
427.667, 4116.839
428.149, 4141.390
428.631, 4178.508
429.113, 4205.885
429.595, 4213.713
430.078, 4213.624
430.560, 4243.135
431.042, 4308.084
431.524, 4377.325
432.006, 4431.974
432.488, 4472.521
432.970, 4520.198
433.452, 4574.186
433.934, 4639.425
434.417, 4729.055
434.899, 4839.629
435.381, 4945.863
435.863, 5031.186
436.345, 5109.156
436.827, 5201.953
437.309, 5310.320
437.791, 5439.472
438.273, 5613.420
438.756, 5807.278
439.238, 5978.012
439.720, 6094.976
440.202, 6220.026
440.684, 6415.158
441.166, 6659.734
441.648, 6896.269
442.130, 7070.275
442.612, 7243.412
443.095, 7458.194
443.577, 7731.497
444.059, 7999.495
444.541, 8266.517
445.023, 8508.996
445.505, 8699.457
445.987, 8803.215
446.470, 8882.559
446.952, 8966.870
447.434, 9055.844
447.916, 9066.364
448.398, 8971.996
448.880, 8824.117
449.362, 8651.605
449.844, 8457.807
450.326, 8232.701
450.809, 7964.225
451.291, 7667.562
451.773, 7381.670
452.255, 7103.345
452.737, 6839.867
453.219, 6596.604
453.701, 6370.604
454.183, 6163.332
454.665, 5972.013
455.148, 5800.167
455.630, 5663.383
456.112, 5555.326
456.594, 5441.230
457.076, 5301.239
457.558, 5157.159
458.040, 5050.302
458.522, 4977.230
459.004, 4909.413
459.487, 4823.618
459.969, 4733.332
460.451, 4658.884
460.933, 4606.361
461.415, 4560.727
461.897, 4514.243
462.379, 4467.570
462.862, 4423.085
463.344, 4378.350
463.826, 4338.793
464.308, 4309.984
464.790, 4292.587
465.272, 4272.697
465.754, 4241.316
466.236, 4209.676
466.718, 4185.710
467.201, 4181.955
467.683, 4171.916
468.165, 4150.439
468.647, 4121.564
469.129, 4096.771
469.611, 4073.297
470.093, 4058.412
470.575, 4058.306
471.057, 4077.410
471.539, 4082.104
472.022, 4069.164
472.504, 4047.026
472.986, 4021.295
473.468, 3990.769
473.950, 3975.931
474.432, 3988.859
474.914, 4016.438
475.397, 4020.214
475.879, 4000.797
476.361, 3980.457
476.843, 3979.585
477.325, 3989.020
477.807, 3988.238
478.289, 3972.984
478.771, 3953.737
479.253, 3940.627
479.736, 3930.974
480.218, 3919.271
480.700, 3901.236
481.182, 3881.578
481.664, 3859.854
482.146, 3836.776
482.628, 3823.953
483.110, 3836.227
483.592, 3854.249
484.075, 3863.912
484.557, 3860.214
485.039, 3850.870
485.521, 3828.599
486.003, 3801.460
486.485, 3789.537
486.967, 3809.792
487.449, 3823.761
487.931, 3817.010
488.414, 3786.357
488.896, 3767.457
489.378, 3764.421
489.860, 3766.989
490.342, 3767.166
490.824, 3765.674
491.306, 3755.633
491.788, 3732.917
492.271, 3704.074
492.753, 3684.894
493.235, 3675.073
493.717, 3670.100
494.199, 3669.170
494.681, 3670.659
495.163, 3670.746
495.645, 3669.031
496.128, 3667.027
496.610, 3666.046
497.092, 3665.702
497.574, 3665.501
498.056, 3668.428
498.538, 3668.350
499.020, 3658.619
499.502, 3641.719
499.984, 3627.829
500.466, 3625.018
500.949, 3623.286
501.431, 3615.091
501.913, 3593.028
502.395, 3582.300
502.877, 3598.930
503.359, 3623.434
503.841, 3631.371
504.323, 3606.211
504.806, 3590.123
505.288, 3595.300
505.770, 3617.367
506.252, 3624.911
506.734, 3614.748
507.216, 3597.780
507.698, 3576.518
508.180, 3550.504
508.663, 3539.877
509.145, 3548.425
509.627, 3564.809
510.109, 3574.930
510.591, 3579.330
511.073, 3580.865
511.555, 3580.697
512.037, 3578.326
512.519, 3572.340
513.002, 3563.113
513.484, 3552.829
513.966, 3536.665
514.448, 3523.329
514.930, 3523.701
515.412, 3544.717
515.894, 3564.283
516.376, 3572.006
516.859, 3571.625
517.341, 3568.882
517.823, 3560.805
518.305, 3554.872
518.787, 3555.839
519.269, 3563.586
519.751, 3563.148
520.233, 3546.292
520.715, 3529.767
521.198, 3523.051
521.680, 3529.138
522.162, 3536.851
522.644, 3547.795
523.126, 3558.231
523.608, 3562.036
524.090, 3558.906
524.572, 3552.459
525.054, 3541.407
525.537, 3528.961
526.019, 3526.401
526.501, 3533.501
526.983, 3541.788
527.465, 3549.844
527.947, 3553.506
528.429, 3541.165
528.911, 3505.629
529.393, 3475.708
529.876, 3484.315
530.358, 3511.847
530.840, 3526.632
531.322, 3503.492
531.804, 3477.160
532.286, 3463.236
532.768, 3461.148
533.250, 3458.332
533.732, 3454.959
534.215, 3448.199
534.697, 3435.685
535.179, 3411.287
535.661, 3394.750
536.143, 3385.870
536.625, 3384.982
537.107, 3394.865
537.589, 3420.449
538.072, 3439.413
538.554, 3446.207
539.036, 3442.804
539.518, 3435.543
540.000, 3424.096
540.482, 3412.399
540.964, 3401.416
541.446, 3392.274
541.929, 3391.172
542.411, 3400.312
542.893, 3405.184
543.375, 3384.875
543.857, 3351.509
544.339, 3326.860
544.821, 3322.251
545.303, 3324.555
545.786, 3331.211
546.268, 3339.714
546.750, 3340.858
547.232, 3318.550
547.714, 3298.984
548.196, 3297.937
548.678, 3326.273
549.160, 3338.493
549.642, 3321.144
550.125, 3296.884
550.607, 3286.973
551.089, 3297.092
551.571, 3307.610
552.053, 3317.995
552.535, 3326.049
553.017, 3325.681
553.499, 3316.509
553.981, 3302.889
554.464, 3281.316
554.946, 3256.361
555.428, 3249.693
555.910, 3261.834
556.392, 3273.994
556.874, 3267.437
557.356, 3250.833
557.838, 3237.633
558.320, 3230.501
558.803, 3228.466
559.285, 3234.574
559.767, 3245.041
560.249, 3252.506
560.731, 3251.549
561.213, 3249.976
561.695, 3251.412
562.177, 3255.987
562.659, 3257.747
563.142, 3255.452
563.624, 3251.001
564.106, 3244.522
564.588, 3232.611
565.070, 3228.759
565.552, 3237.385
566.034, 3247.999
566.516, 3242.975
566.999, 3221.042
567.481, 3203.863
567.963, 3197.672
568.445, 3199.656
568.927, 3205.134
569.409, 3213.731
569.891, 3221.707
570.373, 3229.866
570.856, 3234.662
571.338, 3228.450
571.820, 3209.431
572.302, 3194.019
572.784, 3195.466
573.266, 3204.604
573.748, 3212.044
574.230, 3218.095
574.713, 3218.781
575.195, 3208.461
575.677, 3191.870
576.159, 3182.599
576.641, 3187.779
577.123, 3190.894
577.605, 3185.854
578.087, 3172.803
578.569, 3165.901
579.052, 3166.705
579.534, 3169.881
580.016, 3173.075
580.498, 3175.986
580.980, 3170.576
581.462, 3153.134
581.944, 3137.420
582.426, 3146.764
582.908, 3173.205
583.391, 3192.699
583.873, 3195.434
584.355, 3187.996
584.837, 3168.139
585.319, 3140.720
585.801, 3124.958
586.283, 3146.374
586.765, 3169.309
587.247, 3171.862
587.730, 3147.084
588.212, 3123.494
588.694, 3097.163
589.176, 3078.179
589.658, 3076.154
590.140, 3102.154
590.622, 3121.764
591.104, 3137.368
591.586, 3140.802
592.069, 3100.179
592.551, 3008.997
593.033, 2953.619
593.515, 2985.958
593.997, 3070.942
594.479, 3116.231
594.961, 3123.297
595.443, 3114.506
595.925, 3092.829
596.408, 3070.584
596.890, 3067.216
597.372, 3089.552
597.854, 3108.132
598.336, 3105.181
598.818, 3089.682
599.300, 3072.319
599.782, 3040.559
600.265, 3024.191
600.747, 3040.452
601.229, 3076.349
601.711, 3096.137
602.193, 3091.547
602.675, 3084.480
603.157, 3081.633
603.639, 3082.822
604.122, 3083.733
604.604, 3083.958
605.086, 3085.799
605.568, 3092.931
606.050, 3070.865
606.532, 3099.358
607.014, 3115.579
607.496, 3120.186
607.979, 3078.397
608.461, 3096.519
608.943, 3090.631
609.425, 3083.759
609.907, 3110.313
610.389, 3075.272
610.871, 3101.297
611.353, 3102.945
611.835, 3115.749
612.318, 3104.396
612.800, 3100.504
613.282, 3120.778
613.764, 3127.671
614.246, 3113.536
614.728, 3127.050
615.210, 3091.165
615.692, 3098.628
616.174, 3124.794
616.657, 3111.874
617.139, 3125.830
617.621, 3129.549
618.103, 3086.753
618.585, 3124.853
619.067, 3127.968
619.549, 3106.343
620.031, 3111.655
620.513, 3111.249
620.996, 3111.447
621.478, 3118.942
621.960, 3125.014
622.442, 3122.753
622.924, 3111.362
623.406, 3103.070
623.888, 3105.486
624.370, 3107.449
624.852, 3101.638
625.335, 3080.302
625.817, 3071.146
626.299, 3080.982
626.781, 3094.117
627.263, 3085.653
627.745, 3054.488
628.227, 3034.504
628.709, 3037.506
629.192, 3050.000
629.674, 3048.539
630.156, 3035.110
630.638, 3018.178
631.120, 2992.558
631.602, 2972.158
632.084, 2975.898
632.566, 3001.891
633.049, 3021.638
633.531, 3011.305
634.013, 2998.313
634.495, 3002.125
634.977, 3037.395
635.459, 3057.155
635.941, 3053.602
636.423, 3039.249
636.906, 3023.800
637.388, 3003.313
637.870, 2998.257
638.352, 3017.749
638.834, 3044.976
639.316, 3041.093
639.798, 3009.110
640.280, 2981.552
640.762, 2973.611
641.245, 2977.667
641.727, 2987.939
642.209, 3002.223
642.691, 3008.462
643.173, 2985.009
643.655, 2961.205
644.137, 2963.224
644.619, 2998.968
645.101, 3024.726
645.584, 3022.312
646.066, 3011.344
646.548, 3006.628
647.030, 3010.090
647.512, 3016.716
647.994, 3029.634
648.476, 3041.759
648.958, 3038.062
649.440, 3017.364
649.923, 3005.048
650.405, 3011.114
650.887, 3025.059
651.369, 3025.342
651.851, 3015.186
652.333, 3009.678
652.815, 3025.440
653.297, 3043.866
653.779, 3047.246
654.262, 3035.901
654.744, 3022.380
655.226, 3006.500
655.708, 2994.050
656.190, 2989.357
656.672, 2997.488
657.154, 3000.762
657.636, 2995.109
658.119, 2988.906
658.601, 2991.428
659.083, 3004.692
659.565, 3013.275
660.047, 3013.900
660.529, 3011.712
661.011, 3017.304
661.493, 3028.554
661.976, 3034.468
662.458, 3025.893
662.940, 3015.107
663.422, 3019.470
663.904, 3033.915
664.386, 3040.376
664.868, 3019.052
665.350, 2997.609
665.833, 2991.216
666.315, 3001.889
666.797, 3011.621
667.279, 3021.066
667.761, 3027.190
668.243, 3026.285
668.725, 3014.119
669.207, 3013.836
669.689, 3027.719
670.171, 3046.394
670.654, 3065.042
671.136, 3080.916
671.618, 3075.611
672.100, 3037.938
672.582, 2997.950
673.064, 2993.889
673.546, 3012.455
674.028, 3027.357
674.510, 3028.224
674.993, 3023.328
675.475, 3011.619
675.957, 2996.292
676.439, 2989.621
676.921, 3003.018
677.403, 3014.338
677.885, 3016.301
678.367, 3009.294
678.849, 3005.322
679.332, 3003.838
679.814, 3007.063
680.296, 3019.686
680.778, 3039.149
681.260, 3051.568
681.742, 3055.788
682.224, 3057.629
682.706, 3057.044
683.189, 3059.172
683.671, 3073.900
684.153, 3111.750
684.635, 3141.834
685.117, 3146.191
685.599, 3136.064
686.081, 3126.297
686.563, 3109.358
687.045, 3106.349
687.528, 3126.440
688.010, 3159.502
688.492, 3176.531
688.974, 3174.090
689.456, 3174.717
689.938, 3187.954
690.420, 3209.020
690.903, 3224.701
691.385, 3235.301
691.867, 3244.963
692.349, 3258.548
692.831, 3271.033
693.313, 3275.483
693.795, 3271.581
694.277, 3267.903
694.759, 3259.765
695.242, 3259.058
695.724, 3276.351
696.206, 3325.596
696.688, 3359.100
697.170, 3369.755
697.652, 3372.798
698.134, 3383.087
698.616, 3401.535
699.098, 3420.262
699.581, 3439.954
700.063, 3455.698
700.545, 3454.795
701.027, 3443.195
701.509, 3439.629
701.991, 3456.087
702.473, 3475.532
702.955, 3480.988
703.438, 3478.678
703.920, 3483.261
704.402, 3512.212
704.884, 3535.799
705.366, 3542.661
705.848, 3534.726
706.330, 3522.996
706.812, 3503.489
707.294, 3488.569
707.777, 3489.189
708.259, 3501.981
708.741, 3487.724
709.223, 3445.128
709.705, 3401.908
710.187, 3386.182
710.669, 3382.597
711.151, 3360.345
711.633, 3314.271
712.116, 3275.498
712.598, 3272.632
713.080, 3280.129
713.562, 3274.324
714.044, 3241.917
714.526, 3212.570
715.008, 3189.133
715.490, 3169.660
715.972, 3152.145
716.455, 3137.122
716.937, 3122.089
717.419, 3106.566
717.901, 3091.252
718.383, 3080.175
718.865, 3071.520
719.347, 3056.268
719.830, 3023.251
720.312, 2990.688
720.794, 2976.399
721.276, 2977.241
721.758, 2983.891
722.240, 3004.096
722.722, 3018.182
723.204, 3014.089
723.686, 2993.568
724.169, 2980.956
724.651, 2980.548
725.133, 2980.287
725.615, 2975.790
726.097, 2966.970
726.579, 2950.710
727.061, 2926.500
727.543, 2905.645
728.026, 2897.838
728.508, 2899.473
728.990, 2907.783
729.472, 2923.341
729.954, 2931.534
730.436, 2912.815
730.918, 2888.916
731.400, 2879.192
731.882, 2895.870
732.365, 2907.258
732.847, 2909.717
733.329, 2907.385
733.811, 2903.357
734.293, 2896.521
734.775, 2894.256
735.257, 2898.888
735.739, 2904.659
736.221, 2901.887
736.704, 2892.643
737.186, 2884.173
737.668, 2878.075
738.150, 2874.773
738.632, 2878.520
739.114, 2885.036
739.596, 2885.698
740.078, 2863.441
740.560, 2850.717
741.043, 2864.056
741.525, 2894.681
742.007, 2914.755
742.489, 2923.763
742.971, 2921.963
743.453, 2904.672
743.935, 2877.727
744.417, 2863.001
744.899, 2860.228
745.382, 2865.993
745.864, 2884.047
746.346, 2905.819
746.828, 2922.665
747.310, 2933.968
747.792, 2940.070
748.274, 2943.469
748.756, 2925.653
749.239, 2938.913
749.721, 2944.630
750.203, 2943.209
750.685, 2913.269
751.167, 2920.154
751.649, 2912.282
752.131, 2903.805
752.613, 2915.874
753.096, 2890.082
753.578, 2901.825
754.060, 2898.584
754.542, 2902.202
755.024, 2890.970
755.506, 2884.324
755.988, 2892.533
756.470, 2892.517
756.952, 2872.027
757.435, 2871.591
757.917, 2869.112
758.399, 2866.224
758.881, 2862.557
759.363, 2858.838
759.845, 2856.878
760.327, 2856.994
760.809, 2853.308
761.291, 2842.595
761.774, 2832.570
762.256, 2837.720
762.738, 2852.468
763.220, 2862.655
763.702, 2857.791
764.184, 2852.779
764.666, 2857.110
765.148, 2867.287
765.630, 2874.820
766.113, 2879.303
766.595, 2879.369
767.077, 2872.914
767.559, 2862.045
768.041, 2853.364
768.523, 2846.524
769.005, 2844.285
769.487, 2848.763
769.969, 2857.720
770.452, 2869.729
770.934, 2883.335
771.416, 2892.040
771.898, 2887.604
772.380, 2880.964
772.862, 2879.897
773.344, 2884.166
773.826, 2886.597
774.309, 2890.949
774.791, 2887.562
775.273, 2876.955
775.755, 2882.487
776.237, 2884.100
776.719, 2882.008
777.201, 2865.104
777.683, 2867.326
778.166, 2861.883
778.648, 2856.126
779.130, 2861.038
779.612, 2846.289
780.094, 2851.033
780.576, 2847.995
781.058, 2848.519
781.540, 2841.332
782.023, 2836.525
782.505, 2832.906
782.987, 2823.405
783.469, 2824.711
783.951, 2838.990
784.433, 2847.418
784.915, 2849.832
785.397, 2846.736
785.879, 2833.517
786.362, 2816.290
786.844, 2809.286
787.326, 2816.104
787.808, 2822.650
788.290, 2817.322
788.772, 2808.989
789.254, 2805.785
789.736, 2812.790
790.218, 2818.006
790.701, 2820.386
791.183, 2821.627
791.665, 2824.114
792.147, 2828.034
792.629, 2827.201
793.111, 2819.824
793.593, 2811.760
794.075, 2812.266
794.557, 2816.701
795.040, 2814.890
795.522, 2799.392
796.004, 2788.545
796.486, 2796.349
796.968, 2812.156
797.450, 2822.184
797.932, 2822.445
798.414, 2822.217
798.896, 2822.980
799.379, 2822.489
799.861, 2815.083
800.343, 2801.298
800.825, 2793.716
801.307, 2796.644
801.789, 2802.723
802.271, 2802.217
802.753, 2798.367
803.236, 2797.291
803.718, 2806.486
804.200, 2812.049
804.682, 2804.490
805.164, 2791.438
805.646, 2787.173
806.128, 2795.266
806.610, 2804.020
807.093, 2811.730
807.575, 2818.984
808.057, 2830.694
808.539, 2844.790
809.021, 2846.897
809.503, 2825.834
809.985, 2800.311
810.467, 2785.976
810.950, 2781.455
811.432, 2783.640
811.914, 2803.917
812.396, 2816.120
812.878, 2806.882
813.360, 2787.201
813.842, 2782.535
814.324, 2796.823
814.806, 2810.340
815.289, 2818.423
815.771, 2821.747
816.253, 2817.789
816.735, 2809.269
817.217, 2806.273
817.699, 2825.656
818.181, 2840.204
818.663, 2823.983
819.145, 2788.943
819.628, 2765.886
820.110, 2768.728
820.592, 2774.206
821.074, 2778.839
821.556, 2783.425
822.038, 2791.599
822.520, 2803.689
823.002, 2811.548
823.484, 2810.451
823.967, 2805.699
824.449, 2806.839
824.931, 2811.195
825.413, 2811.372
825.895, 2801.022
826.377, 2788.747
826.859, 2769.643
827.341, 2750.941
827.823, 2758.463
828.306, 2810.857
828.788, 2847.470
829.270, 2848.337
829.752, 2826.109
830.234, 2812.369
830.716, 2807.119
831.198, 2809.639
831.680, 2827.227
832.163, 2844.993
832.645, 2846.964
833.127, 2837.704
833.609, 2828.850
834.091, 2827.404
834.573, 2822.860
835.055, 2810.010
835.537, 2793.006
836.019, 2784.403
836.502, 2784.679
836.984, 2791.207
837.466, 2807.696
837.948, 2824.299
838.430, 2818.426
838.912, 2796.966
839.394, 2780.481
839.877, 2779.045
840.359, 2784.951
840.841, 2804.083
841.323, 2827.821
841.805, 2829.127
842.287, 2789.392
842.769, 2761.429
843.251, 2757.128
843.733, 2769.622
844.216, 2786.617
844.698, 2807.054
845.180, 2820.430
845.662, 2818.808
846.144, 2813.522
846.626, 2816.971
847.108, 2825.667
847.590, 2832.301
848.072, 2838.397
848.555, 2837.124
849.037, 2822.821
849.519, 2802.228
850.001, 2789.035
850.483, 2784.977
850.965, 2776.404
851.447, 2756.073
851.929, 2737.009
852.411, 2746.304
852.894, 2773.927
853.376, 2794.551
853.858, 2794.781
854.340, 2790.860
854.822, 2787.684
855.304, 2786.161
855.786, 2788.107
856.268, 2795.101
856.750, 2802.431
857.233, 2810.184
857.715, 2816.997
858.197, 2819.810
858.679, 2819.197
859.161, 2818.571
859.643, 2818.178
860.125, 2819.497
860.607, 2827.787
861.089, 2837.206
861.572, 2839.783
862.054, 2824.590
862.536, 2814.562
863.018, 2812.130
863.500, 2814.979
863.982, 2823.286
864.464, 2838.055
864.946, 2840.793
865.429, 2827.328
865.911, 2809.155
866.393, 2793.524
866.875, 2784.247
867.357, 2790.630
867.839, 2823.697
868.321, 2846.569
868.803, 2837.679
869.286, 2817.166
869.768, 2804.016
870.250, 2800.673
870.732, 2797.418
871.214, 2793.917
871.696, 2791.292
872.178, 2786.908
872.660, 2784.605
873.143, 2801.116
873.625, 2840.385
874.107, 2868.694
874.589, 2848.756
875.071, 2817.138
875.553, 2806.255
876.035, 2828.900
876.517, 2838.694
876.999, 2831.006
877.482, 2818.552
877.964, 2809.103
878.446, 2802.572
878.928, 2795.259
879.410, 2787.286
879.892, 2790.467
880.374, 2835.808
880.856, 2881.385
881.338, 2877.761
881.821, 2820.679
882.303, 2787.088
882.785, 2812.985
883.267, 2842.043
883.749, 2851.942
884.231, 2844.776
884.713, 2846.503
885.195, 2857.374
885.677, 2866.943
886.160, 2871.533
886.642, 2869.498
887.124, 2850.932
887.606, 2821.465
888.088, 2806.093
888.570, 2824.721
889.052, 2848.965
889.534, 2872.549
890.016, 2893.805
890.499, 2905.912
890.981, 2908.518
891.463, 2903.336
891.945, 2886.638
892.427, 2867.905
892.909, 2863.455
893.391, 2870.647
893.873, 2882.339
894.356, 2902.518
894.838, 2918.369
895.320, 2925.195
895.802, 2904.638
896.284, 2928.585
896.766, 2941.730
897.248, 2944.652
897.730, 2906.734
898.213, 2921.552
898.695, 2915.236
899.177, 2908.053
899.659, 2930.294
900.141, 2898.316
900.623, 2920.090
901.105, 2920.407
901.587, 2930.545
902.070, 2919.417
902.552, 2914.858
903.034, 2931.571
903.516, 2936.505
903.998, 2922.929
904.480, 2933.691
904.962, 2900.970
905.444, 2906.406
905.926, 2928.305
906.409, 2915.799
906.891, 2926.949
907.373, 2929.090
907.855, 2906.308
908.337, 2890.910
908.819, 2882.457
909.301, 2882.329
909.783, 2888.654
910.265, 2905.075
910.748, 2928.457
911.230, 2935.521
911.712, 2926.938
912.194, 2911.727
912.676, 2888.601
913.158, 2867.387
913.640, 2855.705
914.122, 2853.311
914.604, 2856.426
915.087, 2873.962
915.569, 2881.647
916.051, 2868.025
916.533, 2841.920
917.015, 2834.593
917.497, 2844.437
917.979, 2853.937
918.461, 2854.668
918.943, 2853.514
919.426, 2856.957
919.908, 2863.322
920.390, 2869.282
920.872, 2877.040
921.354, 2879.790
921.836, 2876.135
922.318, 2867.930
922.800, 2853.103
923.283, 2832.752
923.765, 2830.800
924.247, 2854.342
924.729, 2884.850
925.211, 2913.187
925.693, 2933.740
926.175, 2938.023
926.657, 2918.502
927.140, 2898.966
927.622, 2879.511
928.104, 2864.478
928.586, 2857.253
929.068, 2857.845
929.550, 2865.929
930.032, 2881.916
930.514, 2896.123
930.997, 2901.250
931.479, 2900.723
931.961, 2897.354
932.443, 2891.480
932.925, 2884.344
933.407, 2866.122
933.889, 2860.058
934.371, 2881.817
934.853, 2921.063
935.336, 2920.859
935.818, 2882.928
936.300, 2853.690
936.782, 2864.815
937.264, 2884.712
937.746, 2875.437
938.228, 2850.656
938.710, 2841.325
939.192, 2879.901
939.674, 2902.362
940.157, 2894.653
940.639, 2873.133
941.121, 2864.043
941.603, 2866.654
942.085, 2869.541
942.567, 2869.518
943.049, 2873.939
943.531, 2903.032
944.013, 2934.096
944.496, 2937.976
944.978, 2895.527
945.460, 2864.574
945.942, 2849.111
946.424, 2846.227
946.906, 2858.546
947.388, 2884.478
947.870, 2901.015
948.353, 2907.954
948.835, 2908.167
949.317, 2896.592
949.799, 2884.761
950.281, 2885.612
950.763, 2898.033
951.245, 2901.766
951.727, 2883.537
952.209, 2876.502
952.692, 2897.032
953.174, 2931.249
953.656, 2933.177
954.138, 2907.768
954.620, 2886.921
955.102, 2886.402
955.584, 2889.971
956.067, 2883.091
956.549, 2872.807
957.031, 2871.089
957.513, 2883.964
957.995, 2898.666
958.477, 2918.266
958.959, 2932.512
959.441, 2923.468
959.923, 2897.788
960.406, 2879.233
960.888, 2870.614
961.370, 2872.366
961.852, 2898.373
962.334, 2924.746
962.816, 2929.707
963.298, 2908.090
963.780, 2899.094
964.263, 2905.981
964.745, 2916.126
965.227, 2925.762
965.709, 2932.682
966.191, 2925.376
966.673, 2908.008
967.155, 2898.871
967.637, 2919.441
968.119, 2937.487
968.602, 2932.562
969.084, 2914.758
969.566, 2909.315
970.048, 2918.778
970.530, 2931.967
971.012, 2949.879
971.494, 2962.536
971.976, 2948.051
972.458, 2919.523
972.941, 2901.744
973.423, 2900.805
973.905, 2909.692
974.387, 2940.900
974.869, 2968.607
975.351, 2972.284
975.833, 2948.479
976.315, 2933.414
976.797, 2927.457
977.280, 2927.119
977.762, 2940.543
978.244, 2951.264
978.726, 2925.854
979.208, 2872.865
979.690, 2845.468
980.172, 2887.558
980.654, 2924.376
981.136, 2934.743
981.619, 2928.376
982.101, 2929.640
982.583, 2938.047
983.065, 2947.503
983.547, 2957.960
984.029, 2964.638
984.511, 2964.608
984.994, 2957.188
985.476, 2940.261
985.958, 2896.799
986.440, 2877.547
986.922, 2891.947
987.404, 2914.356
987.886, 2924.955
988.368, 2924.941
988.850, 2917.015
989.333, 2901.845
989.815, 2889.848
990.297, 2883.250
990.779, 2885.839
991.261, 2908.850
991.743, 2947.289
992.225, 2959.942
992.707, 2938.813
993.190, 2920.260
993.672, 2915.772
994.154, 2919.984
994.636, 2928.313
995.118, 2937.426
995.600, 2938.773
996.082, 2924.986
996.564, 2911.675
997.046, 2902.673
997.529, 2897.602
998.011, 2896.559
998.493, 2900.001
998.975, 2904.467
999.457, 2910.107
999.939, 2914.219
1000.421, 2911.344
1000.903, 2907.655
1001.385, 2911.686
1001.868, 2923.173
1002.350, 2932.436
1002.832, 2939.670
1003.314, 2940.208
1003.796, 2929.884
1004.278, 2913.801
1004.760, 2904.153
1005.242, 2901.639
1005.724, 2913.663
1006.207, 2954.188
1006.689, 2986.634
1007.171, 2970.244
1007.653, 2935.512
1008.135, 2922.643
1008.617, 2947.871
1009.099, 2961.920
1009.581, 2962.993
1010.064, 2958.384
1010.546, 2953.351
1011.028, 2947.846
1011.510, 2941.951
1011.992, 2935.502
1012.474, 2927.515
1012.956, 2909.269
1013.438, 2898.360
1013.920, 2905.166
1014.403, 2924.657
1014.885, 2943.004
1015.367, 2960.780
1015.849, 2961.148
1016.331, 2929.332
1016.813, 2900.624
1017.295, 2931.500
1017.777, 2986.559
1018.260, 3011.922
1018.742, 2972.322
1019.224, 2955.015
1019.706, 2975.938
1020.188, 3001.877
1020.670, 3005.945
1021.152, 2991.936
1021.634, 2980.340
1022.116, 2971.394
1022.599, 2961.825
1023.081, 2940.218
1023.563, 2926.368
1024.045, 2941.088
1024.527, 2974.168
1025.009, 2984.748
1025.491, 2966.034
1025.973, 2953.347
1026.455, 2956.343
1026.938, 2962.930
1027.420, 2954.033
1027.902, 2937.333
1028.384, 2925.626
1028.866, 2922.244
1029.348, 2922.605
1029.830, 2928.161
1030.312, 2934.313
1030.795, 2937.103
1031.277, 2937.285
1031.759, 2949.348
1032.241, 2972.210
1032.723, 2988.474
1033.205, 2981.923
1033.687, 2969.478
1034.169, 2959.793
1034.651, 2954.163
1035.134, 2955.702
1035.616, 2968.068
1036.098, 2978.362
1036.580, 2986.052
1037.062, 2988.125
1037.544, 2974.930
1038.026, 2954.850
1038.508, 2945.118
1038.990, 2949.000
1039.473, 2957.011
1039.955, 2972.801
1040.437, 2983.891
1040.919, 2983.968
1041.401, 2974.063
1041.883, 2958.703
1042.365, 2938.588
1042.847, 2927.964
1043.330, 2940.244
1043.812, 2956.582
1044.294, 2959.721
1044.776, 2954.932
1045.258, 2950.537
1045.740, 2944.593
1046.222, 2945.743
1046.704, 2955.185
1047.187, 2969.527
1047.669, 2992.754
1048.151, 3016.195
1048.633, 3014.979
1049.115, 2989.445
1049.597, 2969.749
1050.079, 2973.973
1050.561, 2983.449
1051.043, 2992.903
1051.526, 3000.836
1052.008, 2999.368
1052.490, 2988.852
1052.972, 2985.637
1053.454, 2997.306
1053.936, 3009.209
1054.418, 2999.081
1054.900, 2985.194
1055.382, 2993.006
1055.865, 3041.887
1056.347, 3057.041
1056.829, 3026.673
1057.311, 2994.798
1057.793, 2995.295
1058.275, 3014.587
1058.757, 3020.580
1059.239, 3015.220
1059.722, 3005.730
1060.204, 2988.836
1060.686, 2976.435
1061.168, 2971.182
1061.650, 2972.787
1062.132, 2985.842
1062.614, 3009.613
1063.096, 3016.382
1063.578, 3001.406
1064.061, 2983.332
1064.543, 2973.483
1065.025, 2970.441
1065.507, 2975.089
1065.989, 2987.701
1066.471, 2997.364
1066.953, 3004.507
1067.435, 3006.920
1067.917, 3001.619
1068.400, 2994.390
1068.882, 2997.479
1069.364, 3006.060
1069.846, 3010.124
1070.328, 3002.463
1070.810, 2998.065
1071.292, 3002.413
1071.774, 3007.241
1072.256, 3005.693
1072.739, 2998.334
1073.221, 2991.240
1073.703, 2984.585
1074.185, 2979.909
1074.667, 2972.935
1075.149, 2973.410
1075.631, 2997.225
1076.113, 3031.258
1076.596, 3040.788
1077.078, 3020.245
1077.560, 3004.261
1078.042, 2998.312
1078.524, 2995.957
1079.006, 2990.433
1079.488, 2984.006
1079.970, 2978.801
1080.453, 2974.920
1080.935, 2975.812
1081.417, 2982.906
1081.899, 2992.612
1082.381, 3005.960
1082.863, 3018.805
1083.345, 3015.885
1083.827, 3002.605
1084.309, 2996.506
1084.792, 3008.957
1085.274, 3019.696
1085.756, 3018.205
1086.238, 3013.363
1086.720, 3012.330
1087.202, 3015.317
1087.684, 3018.926
1088.166, 3023.158
1088.648, 3025.222
1089.131, 3020.152
1089.613, 3015.153
1090.095, 3018.669
1090.577, 3026.744
1091.059, 3025.961
1091.541, 3011.338
1092.023, 3003.151
1092.505, 3004.750
1092.988, 3011.371
1093.470, 3015.196
1093.952, 3021.413
1094.434, 3044.530
1094.916, 3087.037
1095.398, 3107.470
1095.880, 3081.627
1096.362, 3052.160
1096.844, 3029.765
1097.327, 3014.950
1097.809, 3011.432
1098.291, 3017.008
1098.773, 3023.570
1099.255, 3028.149
1099.737, 3034.675
1100.219, 3051.420
1100.701, 3065.561
1101.183, 3065.208
1101.666, 3049.532
1102.148, 3044.032
1102.630, 3048.607
1103.112, 3058.300
1103.594, 3075.882
1104.076, 3091.669
1104.558, 3099.107
1105.040, 3098.583
1105.523, 3090.363
1106.005, 3070.415
1106.487, 3056.931
1106.969, 3052.077
1107.451, 3050.847
1107.933, 3051.761
1108.415, 3051.180
1108.897, 3040.667
1109.380, 3021.275
1109.862, 3009.870
1110.344, 3014.606
1110.826, 3020.959
1111.308, 3025.729
1111.790, 3030.633
1112.272, 3039.264
1112.754, 3050.609
1113.236, 3063.195
1113.719, 3078.332
1114.201, 3085.156
1114.683, 3065.229
1115.165, 3049.268
1115.647, 3057.034
1116.129, 3083.144
1116.611, 3091.661
1117.093, 3083.829
1117.575, 3070.850
1118.058, 3054.347
1118.540, 3039.367
1119.022, 3027.648
1119.504, 3020.525
1119.986, 3019.593
1120.468, 3025.849
1120.950, 3033.486
1121.432, 3042.663
1121.915, 3052.284
1122.397, 3063.698
1122.879, 3073.683
1123.361, 3077.410
1123.843, 3076.924
1124.325, 3078.673
1124.807, 3084.249
1125.289, 3090.656
1125.771, 3098.820
1126.254, 3103.623
1126.736, 3096.474
1127.218, 3083.108
1127.700, 3071.856
1128.182, 3063.563
1128.664, 3059.312
1129.146, 3056.639
1129.628, 3063.447
1130.110, 3086.406
1130.593, 3113.952
1131.075, 3120.488
1131.557, 3111.929
1132.039, 3107.905
1132.521, 3114.984
1133.003, 3114.327
1133.485, 3079.459
1133.967, 3054.201
1134.450, 3068.044
1134.932, 3111.024
1135.414, 3120.419
1135.896, 3100.253
1136.378, 3080.339
1136.860, 3070.011
1137.342, 3067.661
1137.824, 3080.045
1138.307, 3094.660
1138.789, 3096.495
1139.271, 3082.149
1139.753, 3084.366
1140.235, 3103.597
1140.717, 3118.724
1141.199, 3109.265
1141.681, 3096.088
1142.163, 3100.025
1142.646, 3112.695
1143.128, 3114.334
1143.610, 3099.849
1144.092, 3087.883
1144.574, 3078.982
1145.056, 3076.992
1145.538, 3096.536
1146.020, 3117.748
1146.502, 3109.602
1146.985, 3076.678
1147.467, 3062.171
1147.949, 3081.803
1148.431, 3094.027
1148.913, 3090.281
1149.395, 3079.386
1149.877, 3074.126
1150.359, 3070.246
1150.842, 3054.280
1151.324, 3022.754
1151.806, 3015.604
1152.288, 3061.230
1152.770, 3103.502
1153.252, 3126.458
1153.734, 3132.476
1154.216, 3116.640
1154.698, 3089.247
1155.181, 3079.966
1155.663, 3101.803
1156.145, 3123.333
1156.627, 3135.999
1157.109, 3142.346
1157.591, 3144.528
1158.073, 3141.076
1158.555, 3116.166
1159.037, 3076.651
1159.520, 3055.366
1160.002, 3080.563
1160.484, 3102.593
1160.966, 3091.942
1161.448, 3074.015
1161.930, 3069.187
1162.412, 3077.479
1162.894, 3095.087
1163.376, 3121.046
1163.859, 3140.882
1164.341, 3140.797
1164.823, 3138.069
1165.305, 3148.972
1165.787, 3160.145
1166.269, 3145.807
1166.751, 3101.603
1167.233, 3092.148
1167.716, 3122.292
1168.198, 3152.163
1168.680, 3148.518
1169.162, 3134.170
1169.644, 3121.040
1170.126, 3112.236
1170.608, 3115.942
1171.090, 3135.945
1171.573, 3143.701
1172.055, 3133.723
1172.537, 3120.285
1173.019, 3112.935
1173.501, 3112.315
1173.983, 3124.086
1174.465, 3146.320
1174.947, 3152.799
1175.429, 3138.396
1175.911, 3130.566
1176.394, 3137.893
1176.876, 3148.044
1177.358, 3146.937
1177.840, 3139.625
1178.322, 3129.423
1178.804, 3115.898
1179.286, 3117.731
1179.768, 3142.804
1180.251, 3156.469
1180.733, 3140.111
1181.215, 3116.461
1181.697, 3120.927
1182.179, 3141.275
1182.661, 3159.385
1183.143, 3172.096
1183.625, 3179.383
1184.108, 3181.013
1184.590, 3178.102
1185.072, 3169.699
1185.554, 3158.660
1186.036, 3149.240
1186.518, 3141.413
1187.000, 3135.047
1187.482, 3130.490
1187.964, 3126.979
1188.447, 3124.817
1188.929, 3122.847
1189.411, 3117.169
1189.893, 3112.435
1190.375, 3125.150
1190.857, 3148.301
1191.339, 3160.814
1191.821, 3146.417
1192.303, 3133.363
1192.786, 3121.068
1193.268, 3116.618
1193.750, 3131.153
1194.232, 3157.136
1194.714, 3180.128
1195.196, 3197.661
1195.678, 3202.478
1196.160, 3178.676
1196.643, 3159.909
1197.125, 3151.943
1197.607, 3149.214
1198.089, 3143.461
1198.571, 3138.113
1199.053, 3147.420
1199.535, 3169.312
1200.017, 3179.117
1200.500, 3146.052
1200.982, 3129.740
1201.464, 3150.920
1201.946, 3183.064
1202.428, 3177.777
1202.910, 3151.170
1203.392, 3153.552
1203.874, 3189.368
1204.356, 3210.410
1204.839, 3171.222
1205.321, 3148.389
1205.803, 3171.047
1206.285, 3211.768
1206.767, 3216.268
1207.249, 3196.301
1207.731, 3184.931
1208.213, 3203.076
1208.695, 3214.056
1209.178, 3218.261
1209.660, 3195.377
1210.142, 3207.468
1210.624, 3205.542
1211.106, 3203.042
1211.588, 3220.055
1212.070, 3201.110
1212.552, 3217.814
1213.035, 3220.291
1213.517, 3229.277
1213.999, 3221.248
1214.481, 3213.363
1214.963, 3191.756
1215.445, 3190.756
1215.927, 3203.811
1216.409, 3211.400
1216.891, 3206.292
1217.374, 3201.365
1217.856, 3203.402
1218.338, 3202.013
1218.820, 3187.903
1219.302, 3168.771
1219.784, 3174.535
1220.266, 3196.467
1220.748, 3208.077
1221.230, 3193.295
1221.713, 3184.466
1222.195, 3189.338
1222.677, 3201.145
1223.159, 3220.032
1223.641, 3241.182
1224.123, 3244.685
1224.605, 3236.121
1225.087, 3232.201
1225.570, 3245.844
1226.052, 3252.885
1226.534, 3252.025
1227.016, 3240.911
1227.498, 3204.582
1227.980, 3160.130
1228.462, 3171.798
1228.944, 3221.858
1229.427, 3254.414
1229.909, 3227.687
1230.391, 3212.117
1230.873, 3217.487
1231.355, 3231.337
1231.837, 3247.520
1232.319, 3262.446
1232.801, 3264.921
1233.283, 3257.578
1233.766, 3249.897
1234.248, 3242.646
1234.730, 3240.555
1235.212, 3247.449
1235.694, 3251.441
1236.176, 3236.206
1236.658, 3212.279
1237.140, 3199.781
1237.622, 3197.877
1238.105, 3200.270
1238.587, 3199.369
1239.069, 3216.598
1239.551, 3261.818
1240.033, 3302.849
1240.515, 3299.304
1240.997, 3273.682
1241.479, 3258.490
1241.962, 3254.708
1242.444, 3260.097
1242.926, 3280.755
1243.408, 3295.527
1243.890, 3302.119
1244.372, 3303.053
1244.854, 3300.662
1245.336, 3294.347
1245.818, 3277.068
1246.301, 3253.409
1246.783, 3249.354
1247.265, 3274.542
1247.747, 3292.501
1248.229, 3297.970
1248.711, 3297.967
1249.193, 3298.689
1249.675, 3298.534
1250.157, 3293.279
1250.640, 3285.170
1251.122, 3286.173
1251.604, 3298.961
1252.086, 3310.419
1252.568, 3319.231
1253.050, 3322.692
1253.532, 3310.703
1254.014, 3298.576
1254.496, 3305.292
1254.979, 3325.304
1255.461, 3327.939
1255.943, 3310.875
1256.425, 3297.017
1256.907, 3289.348
1257.389, 3292.852
1257.871, 3325.741
1258.353, 3358.800
1258.836, 3367.687
1259.318, 3358.504
1259.800, 3348.260
1260.282, 3336.854
1260.764, 3321.696
1261.246, 3301.659
1261.728, 3284.159
1262.210, 3307.583
1262.693, 3321.074
1263.175, 3325.164
1263.657, 3291.699
1264.139, 3306.728
1264.621, 3302.323
1265.103, 3297.121
1265.585, 3318.976
1266.067, 3290.973
1266.549, 3312.398
1267.031, 3314.093
1267.514, 3324.820
1267.996, 3315.990
1268.478, 3313.201
1268.960, 3329.972
1269.442, 3314.156
1269.924, 3303.539
1270.406, 3287.721
1270.888, 3252.896
1271.371, 3237.358
1271.853, 3256.730
1272.335, 3294.392
1272.817, 3327.735
1273.299, 3351.939
1273.781, 3349.182
1274.263, 3314.644
1274.745, 3299.703
1275.228, 3324.652
1275.710, 3346.422
1276.192, 3352.420
1276.674, 3351.016
1277.156, 3354.611
1277.638, 3359.408
1278.120, 3358.302
1278.602, 3350.275
1279.084, 3349.413
1279.567, 3359.215
1280.049, 3365.037
1280.531, 3362.207
1281.013, 3356.120
1281.495, 3353.338
1281.977, 3339.379
1282.459, 3360.011
1282.941, 3372.247
1283.423, 3376.536
1283.906, 3349.086
1284.388, 3362.622
1284.870, 3359.732
1285.352, 3356.168
1285.834, 3375.474
1286.316, 3352.637
1286.798, 3371.580
1287.280, 3373.846
1287.763, 3383.747
1288.245, 3377.117
1288.727, 3375.592
1289.209, 3390.601
1289.691, 3396.455
1290.173, 3387.922
1290.655, 3380.974
1291.137, 3355.728
1291.620, 3318.755
1292.102, 3336.474
1292.584, 3391.267
1293.066, 3416.343
1293.548, 3396.747
1294.030, 3379.192
1294.512, 3390.348
1294.994, 3394.919
1295.476, 3379.337
1295.958, 3356.438
1296.441, 3353.751
1296.923, 3361.207
1297.405, 3361.472
1297.887, 3348.307
1298.369, 3345.658
1298.851, 3373.943
1299.333, 3393.816
1299.815, 3395.072
1300.298, 3384.137
1300.780, 3367.312
##END=



