##NAMES=Livingstonite
##RRUFFID=R050453
##IDEAL CHEMISTRY=HgSb_4_S_8_
##LOCALITY=Huitzuco, Guerrero, Mexico
##OWNER=RRUFF
##SOURCE=University of Arizona Mineral Museum
##DESCRIPTION=Aggregate of gray columnar crystals
##STATUS=The identification of this mineral has been confirmed by X-ray diffraction and chemical analysis
##URL=rruff.info/R050453
##MEASURED CHEMISTRY=Hg_1.00_Sb_4.00_S_8.00_
94.74744, 17548.50
95.22955, 17819.22
95.71167, 18208.38
96.19379, 18488.47
96.67590, 18690.92
97.15802, 18837.39
97.64014, 18932.64
98.12226, 18977.19
98.60438, 18973.04
99.08649, 18927.05
99.56861, 18836.37
100.0507, 18703.29
100.5328, 18497.93
101.0150, 18257.45
101.4971, 18007.07
101.9792, 17746.08
102.4613, 17485.50
102.9434, 17222.72
103.4255, 16958.88
103.9077, 16692.06
104.3898, 16418.96
104.8719, 16146.19
105.3540, 15886.03
105.8361, 15633.55
106.3182, 15398.91
106.8004, 15179.22
107.2825, 14974.04
107.7646, 14781.07
108.2467, 14598.28
108.7288, 14425.32
109.2109, 14265.85
109.6931, 14122.76
110.1752, 13987.52
110.6573, 13860.33
111.1394, 13739.16
111.6215, 13619.87
112.1037, 13499.33
112.5858, 13375.89
113.0679, 13259.28
113.5500, 13160.22
114.0321, 13060.34
114.5142, 12947.25
114.9964, 12818.93
115.4785, 12679.80
115.9606, 12538.19
116.4427, 12394.55
116.9248, 12227.78
117.4069, 12029.33
117.8891, 11804.76
118.3712, 11563.39
118.8533, 11309.08
119.3354, 11033.17
119.8175, 10728.60
120.2996, 10396.29
120.7818, 10054.15
121.2639, 9709.439
121.7460, 9361.646
122.2281, 9024.362
122.7102, 8693.924
123.1923, 8380.313
123.6745, 8092.380
124.1566, 7830.859
124.6387, 7591.809
125.1208, 7367.879
125.6029, 7158.861
126.0850, 6968.706
126.5672, 6800.472
127.0493, 6644.815
127.5314, 6497.776
128.0135, 6356.581
128.4956, 6219.230
128.9778, 6076.578
129.4599, 5930.725
129.9420, 5777.747
130.4241, 5607.700
130.9062, 5431.409
131.3883, 5263.626
131.8705, 5111.306
132.3526, 4974.204
132.8347, 4848.552
133.3168, 4731.698
133.7989, 4625.158
134.2810, 4530.915
134.7632, 4447.962
135.2453, 4370.919
135.7274, 4294.536
136.2095, 4222.419
136.6916, 4163.142
137.1737, 4122.411
137.6559, 4091.311
138.1380, 4060.900
138.6201, 4030.803
139.1022, 4002.990
139.5843, 3982.808
140.0664, 3965.048
140.5486, 3942.182
141.0307, 3911.622
141.5128, 3873.658
141.9949, 3829.913
142.4770, 3781.635
142.9591, 3723.851
143.4413, 3656.122
143.9234, 3579.366
144.4055, 3494.401
144.8876, 3400.953
145.3697, 3299.173
145.8518, 3196.560
146.3340, 3094.791
146.8161, 2990.811
147.2982, 2881.919
147.7803, 2769.450
148.2624, 2657.006
148.7445, 2546.626
149.2267, 2437.643
149.7088, 2338.135
150.1909, 2250.182
150.6730, 2167.571
151.1551, 2086.174
151.6372, 2005.614
152.1194, 1929.534
152.6015, 1862.057
153.0836, 1807.036
153.5657, 1753.345
154.0478, 1699.355
154.5300, 1647.360
155.0121, 1600.551
155.4942, 1559.988
155.9763, 1522.505
156.4584, 1483.716
156.9405, 1443.527
157.4227, 1403.803
157.9048, 1363.725
158.3869, 1324.503
158.8690, 1288.934
159.3511, 1258.084
159.8332, 1230.596
160.3154, 1204.097
160.7975, 1178.459
161.2796, 1154.842
161.7617, 1134.557
162.2438, 1117.297
162.7259, 1100.649
163.2081, 1083.904
163.6902, 1067.713
164.1723, 1052.632
164.6544, 1038.593
165.1365, 1025.454
165.6186, 1012.571
166.1008, 999.5493
166.5829, 988.9312
167.0650, 982.2292
167.5471, 977.3042
168.0292, 973.2765
168.5113, 969.8578
168.9935, 966.9987
169.4756, 964.5348
169.9577, 962.0111
170.4398, 960.9336
170.9219, 962.0818
171.4040, 964.0804
171.8862, 965.6541
172.3683, 966.3561
172.8504, 966.8473
173.3325, 968.6985
173.8146, 971.4283
174.2967, 976.4550
174.7789, 985.2417
175.2610, 995.8651
175.7431, 1006.195
176.2252, 1015.375
176.7073, 1023.581
177.1894, 1031.276
177.6716, 1036.992
178.1537, 1044.031
178.6358, 1054.184
179.1179, 1066.073
179.6000, 1077.232
180.0822, 1086.400
180.5643, 1093.985
181.0464, 1101.246
181.5285, 1107.516
182.0106, 1114.541
182.4927, 1123.649
182.9749, 1134.428
183.4570, 1145.259
183.9391, 1156.319
184.4212, 1166.098
184.9033, 1172.189
185.3854, 1173.606
185.8676, 1172.900
186.3497, 1171.900
186.8318, 1170.618
187.3139, 1168.671
187.7960, 1165.699
188.2781, 1161.979
188.7603, 1157.605
189.2424, 1152.267
189.7245, 1146.971
190.2066, 1143.407
190.6887, 1142.285
191.1708, 1140.252
191.6530, 1134.549
192.1351, 1128.135
192.6172, 1123.232
193.0993, 1120.493
193.5814, 1120.185
194.0635, 1123.073
194.5457, 1130.076
195.0278, 1138.754
195.5099, 1147.868
195.9920, 1158.263
196.4741, 1170.784
196.9562, 1185.815
197.4384, 1203.071
197.9205, 1221.756
198.4026, 1240.149
198.8847, 1262.876
199.3668, 1292.171
199.8489, 1325.151
200.3311, 1358.432
200.8132, 1390.264
201.2953, 1421.708
201.7774, 1456.564
202.2595, 1497.644
202.7416, 1539.480
203.2238, 1580.757
203.7059, 1622.808
204.1880, 1668.307
204.6701, 1718.625
205.1522, 1772.816
205.6344, 1826.565
206.1165, 1881.200
206.5986, 1934.693
207.0807, 1984.233
207.5628, 2032.477
208.0449, 2084.524
208.5271, 2143.191
209.0092, 2207.328
209.4913, 2271.374
209.9734, 2335.289
210.4555, 2399.138
210.9376, 2461.410
211.4198, 2523.244
211.9019, 2588.752
212.3840, 2659.901
212.8661, 2735.458
213.3482, 2811.517
213.8303, 2889.146
214.3125, 2965.082
214.7946, 3035.564
215.2767, 3101.761
215.7588, 3168.484
216.2409, 3239.421
216.7230, 3311.078
217.2052, 3378.983
217.6873, 3442.753
218.1694, 3502.566
218.6515, 3557.235
219.1336, 3607.146
219.6157, 3656.772
220.0979, 3711.002
220.5800, 3763.646
221.0621, 3808.546
221.5442, 3844.740
222.0263, 3874.306
222.5084, 3900.139
222.9906, 3922.816
223.4727, 3936.448
223.9548, 3934.435
224.4369, 3924.704
224.9190, 3911.908
225.4011, 3896.732
225.8833, 3879.479
226.3654, 3860.941
226.8475, 3841.872
227.3296, 3818.081
227.8117, 3787.136
228.2939, 3752.109
228.7760, 3713.695
229.2581, 3672.121
229.7402, 3629.838
230.2223, 3590.213
230.7044, 3554.029
231.1866, 3517.676
231.6687, 3480.932
232.1508, 3443.928
232.6329, 3405.678
233.1150, 3366.313
233.5971, 3328.502
234.0793, 3297.072
234.5614, 3277.171
235.0435, 3250.719
235.5256, 3214.119
236.0077, 3174.277
236.4898, 3135.226
236.9720, 3097.910
237.4541, 3060.661
237.9362, 3021.238
238.4183, 2979.318
238.9004, 2936.267
239.3825, 2894.822
239.8647, 2850.790
240.3468, 2801.466
240.8289, 2746.441
241.3110, 2688.029
241.7931, 2628.106
242.2752, 2566.757
242.7574, 2504.243
243.2395, 2439.092
243.7216, 2374.161
244.2037, 2311.603
244.6858, 2251.602
245.1679, 2192.108
245.6501, 2130.420
246.1322, 2064.936
246.6143, 2004.997
247.0964, 1952.375
247.5785, 1903.057
248.0606, 1853.858
248.5428, 1804.918
249.0249, 1758.437
249.5070, 1716.502
249.9891, 1679.447
250.4712, 1647.296
250.9533, 1622.178
251.4355, 1599.882
251.9176, 1577.281
252.3997, 1554.348
252.8818, 1533.173
253.3639, 1515.689
253.8461, 1502.171
254.3282, 1489.884
254.8103, 1477.354
255.2924, 1467.127
255.7745, 1461.542
256.2566, 1460.417
256.7387, 1461.422
257.2209, 1463.194
257.7030, 1465.868
258.1851, 1469.417
258.6672, 1472.278
259.1493, 1477.234
259.6314, 1486.193
260.1136, 1499.047
260.5957, 1514.825
261.0778, 1533.853
261.5599, 1555.432
262.0420, 1576.701
262.5241, 1595.473
263.0063, 1616.487
263.4884, 1644.010
263.9705, 1677.481
264.4526, 1712.047
264.9348, 1744.957
265.4169, 1777.996
265.8990, 1813.676
266.3811, 1852.887
266.8632, 1893.629
267.3453, 1935.405
267.8275, 1977.906
268.3096, 2019.259
268.7917, 2057.540
269.2738, 2095.272
269.7559, 2135.570
270.2380, 2178.873
270.7202, 2222.653
271.2023, 2266.830
271.6844, 2310.713
272.1665, 2349.646
272.6486, 2379.456
273.1307, 2406.747
273.6129, 2439.204
274.0950, 2476.965
274.5771, 2513.290
275.0592, 2542.780
275.5413, 2566.731
276.0234, 2592.222
276.5056, 2620.751
276.9877, 2650.703
277.4698, 2680.726
277.9519, 2710.841
278.4340, 2741.454
278.9161, 2772.729
279.3983, 2804.662
279.8804, 2838.199
280.3625, 2874.444
280.8446, 2910.400
281.3267, 2944.240
281.8088, 2976.310
282.2910, 3007.835
282.7731, 3041.489
283.2552, 3074.880
283.7373, 3100.821
284.2194, 3120.973
284.7015, 3129.319
285.1837, 3123.559
285.6658, 3106.034
286.1479, 3079.635
286.6300, 3046.056
287.1121, 3004.208
287.5942, 2950.792
288.0764, 2883.059
288.5585, 2809.546
289.0406, 2732.688
289.5227, 2652.714
290.0048, 2568.953
290.4869, 2479.156
290.9691, 2389.440
291.4512, 2309.282
291.9333, 2239.525
292.4154, 2177.407
292.8975, 2124.629
293.3796, 2077.649
293.8618, 2034.868
294.3439, 1995.840
294.8260, 1960.214
295.3081, 1927.503
295.7902, 1897.668
296.2723, 1871.177
296.7545, 1848.884
297.2366, 1829.632
297.7187, 1812.428
298.2008, 1797.442
298.6829, 1786.553
299.1650, 1781.572
299.6472, 1782.469
300.1293, 1789.233
300.6114, 1804.445
301.0935, 1823.835
301.5756, 1846.200
302.0577, 1871.191
302.5399, 1898.744
303.0220, 1929.211
303.5041, 1962.403
303.9862, 1995.321
304.4683, 2025.221
304.9504, 2058.448
305.4326, 2097.110
305.9147, 2140.534
306.3968, 2187.113
306.8789, 2235.369
307.3610, 2286.377
307.8431, 2344.799
308.3253, 2417.650
308.8074, 2486.923
309.2895, 2547.418
309.7716, 2602.372
310.2537, 2657.031
310.7358, 2715.128
311.2180, 2768.810
311.7001, 2802.200
312.1822, 2819.076
312.6643, 2804.827
313.1464, 2758.494
313.6285, 2683.835
314.1107, 2577.397
314.5928, 2439.227
315.0749, 2283.645
315.5570, 2128.708
316.0392, 1972.198
316.5213, 1825.072
317.0034, 1684.915
317.4855, 1556.158
317.9676, 1442.462
318.4497, 1343.972
318.9319, 1258.550
319.4140, 1185.241
319.8961, 1124.669
320.3782, 1071.087
320.8603, 1028.486
321.3424, 990.1375
321.8246, 953.2834
322.3067, 918.5135
322.7888, 887.5031
323.2709, 862.2645
323.7530, 842.1165
324.2351, 822.8068
324.7173, 803.7483
325.1994, 786.4968
325.6815, 771.5255
326.1636, 758.3299
326.6457, 746.0185
327.1278, 734.1923
327.6100, 723.1073
328.0921, 713.3566
328.5742, 705.1602
329.0563, 697.8954
329.5384, 691.8846
330.0205, 686.3413
330.5027, 680.0782
330.9848, 672.7501
331.4669, 666.3217
331.9490, 664.3633
332.4311, 668.3802
332.9132, 670.2448
333.3954, 668.5595
333.8775, 664.4537
334.3596, 659.1307
334.8417, 652.2719
335.3238, 641.6625
335.8059, 624.3903
336.2881, 600.3457
336.7702, 575.8051
337.2523, 550.1871
337.7344, 524.8554
338.2165, 499.6450
338.6986, 475.1300
339.1808, 452.2065
339.6629, 431.2354
340.1450, 412.3495
340.6271, 396.0350
341.1092, 382.9568
341.5913, 371.3857
342.0735, 360.5624
342.5556, 350.6615
343.0377, 341.8484
343.5198, 334.1305
344.0019, 327.6773
344.4840, 323.4961
344.9662, 322.4328
345.4483, 319.8006
345.9304, 312.0510
346.4125, 303.3951
346.8946, 296.6957
347.3767, 292.3692
347.8589, 289.3199
348.3410, 286.7759
348.8231, 284.7172
349.3052, 282.7891
349.7873, 281.2488
350.2694, 279.4426
350.7516, 276.9871
351.2337, 273.9228
351.7158, 270.5038
352.1979, 266.2340
352.6800, 261.6624
353.1621, 258.8637
353.6443, 258.5710
354.1264, 258.4623
354.6085, 257.0279
355.0906, 254.8979
355.5727, 253.0467
356.0548, 251.8756
356.5370, 251.0212
357.0191, 250.2334
357.5012, 249.5932
357.9833, 248.1589
358.4654, 244.7519
358.9475, 240.8029
359.4297, 238.1556
359.9118, 237.1964
360.3939, 236.4146
360.8760, 234.4468
361.3581, 231.6014
361.8402, 229.5361
362.3224, 229.0489
362.8045, 228.8040
363.2866, 227.0527
363.7687, 223.9939
364.2509, 221.6713
364.7330, 221.8119
365.2151, 222.9032
365.6972, 222.0199
366.1793, 218.5666
366.6614, 215.2793
367.1436, 214.6193
367.6257, 215.7949
368.1078, 216.3367
368.5899, 215.7670
369.0720, 214.5951
369.5541, 213.0698
370.0363, 211.2356
370.5184, 209.3859
371.0005, 207.6170
371.4826, 205.9596
371.9647, 204.4803
372.4468, 203.2587
372.9290, 202.0074
373.4111, 200.8500
373.8932, 199.5459
374.3753, 197.5114
374.8574, 194.5082
375.3395, 191.2966
375.8217, 188.8080
376.3038, 187.0797
376.7859, 185.8119
377.2680, 185.2387
377.7501, 184.9404
378.2322, 184.7071
378.7144, 184.4660
379.1965, 183.9336
379.6786, 182.7965
380.1607, 181.1454
380.6428, 179.9975
381.1249, 180.0590
381.6071, 179.7829
382.0892, 178.1265
382.5713, 175.8020
383.0534, 174.2030
383.5355, 173.9424
384.0176, 174.5514
384.4998, 175.0386
384.9819, 175.4727
385.4640, 175.6425
385.9461, 175.6491
386.4282, 175.3231
386.9103, 174.3939
387.3925, 172.8944
387.8746, 171.1723
388.3567, 169.5490
388.8388, 167.9527
389.3209, 167.0299
389.8030, 166.7091
390.2852, 167.0005
390.7673, 168.5822
391.2494, 170.7354
391.7315, 172.0572
392.2136, 171.6799
392.6957, 170.0459
393.1779, 168.8488
393.6600, 168.2725
394.1421, 167.9242
394.6242, 168.3009
395.1063, 168.5694
395.5884, 167.5008
396.0706, 164.9926
396.5527, 162.6691
397.0348, 163.1454
397.5169, 167.6423
397.9990, 170.0438
398.4811, 168.3714
398.9633, 166.3208
399.4454, 165.0249
399.9275, 164.5513
400.4096, 164.7410
400.8917, 165.7541
401.3738, 167.2132
401.8560, 167.3616
402.3381, 165.4132
402.8202, 163.6306
403.3023, 163.0287
403.7844, 162.7595
404.2665, 161.7720
404.7487, 159.6973
405.2308, 157.6154
405.7129, 157.0441
406.1950, 158.0758
406.6771, 158.8152
407.1592, 158.7009
407.6414, 158.4333
408.1235, 158.8871
408.6056, 159.8171
409.0877, 159.8828
409.5698, 157.3917
410.0519, 153.6273
410.5341, 151.8961
411.0162, 152.8021
411.4983, 153.7203
411.9804, 152.7508
412.4625, 150.8128
412.9447, 149.4435
413.4268, 149.1193
413.9089, 149.0108
414.3910, 148.4538
414.8731, 147.5363
415.3553, 146.6842
415.8374, 146.0403
416.3195, 145.5063
416.8016, 145.0062
417.2837, 144.5699
417.7658, 143.9004
418.2480, 142.6727
418.7301, 141.3017
419.2122, 140.3212
419.6943, 139.7709
420.1764, 139.2063
420.6585, 138.2279
421.1407, 136.8983
421.6228, 135.9601
422.1049, 135.7342
422.5870, 135.4949
423.0691, 134.8123
423.5512, 133.9412
424.0334, 133.3953
424.5155, 133.3930
424.9976, 133.6521
425.4797, 133.6628
425.9618, 133.4050
426.4439, 132.8856
426.9261, 131.7281
427.4082, 130.6071
427.8903, 130.1263
428.3724, 130.2028
428.8545, 130.2716
429.3366, 129.8871
429.8188, 129.0539
430.3009, 127.9433
430.7830, 125.5790
431.2651, 124.0433
431.7472, 124.3986
432.2293, 125.4836
432.7115, 125.7758
433.1936, 124.7329
433.6757, 123.2687
434.1578, 123.0299
434.6399, 124.5340
435.1220, 125.4227
435.6042, 124.9479
436.0863, 124.2929
436.5684, 124.0050
437.0505, 124.0349
437.5326, 124.0555
438.0147, 123.8649
438.4969, 123.4881
438.9790, 122.9881
439.4611, 122.3052
439.9432, 121.6513
440.4253, 120.9923
440.9074, 120.4595
441.3896, 120.3042
441.8717, 120.6553
442.3538, 120.9415
442.8359, 120.4856
443.3180, 119.4416
443.8001, 118.8119
444.2823, 118.9742
444.7644, 119.2447
445.2465, 118.7138
445.7286, 117.6102
446.2107, 117.0714
446.6928, 117.7767
447.1750, 118.9362
447.6571, 119.8938
448.1392, 120.6133
448.6213, 120.9880
449.1034, 120.8908
449.5855, 120.4655
450.0677, 120.1065
450.5498, 119.8288
451.0319, 119.5697
451.5140, 119.2885
451.9961, 119.0291
452.4782, 118.7649
452.9604, 118.5147
453.4425, 118.5372
453.9246, 119.1845
454.4067, 120.5704
454.8888, 121.3482
455.3709, 120.6524
455.8531, 120.3897
456.3352, 121.6117
456.8173, 123.6616
457.2994, 125.5111
457.7815, 126.6821
458.2636, 127.2283
458.7458, 127.1736
459.2279, 126.0044
459.7100, 125.3144
460.1921, 125.1499
460.6742, 125.4049
461.1563, 126.1208
461.6385, 127.2252
462.1206, 128.5904
462.6027, 130.3771
463.0848, 132.2930
463.5670, 132.5536
464.0491, 129.9561
464.5312, 128.1568
465.0133, 128.8845
465.4954, 130.7120
465.9775, 132.3413
466.4597, 133.4925
466.9418, 134.3699
467.4239, 135.0569
467.9060, 135.5982
468.3881, 136.3647
468.8702, 137.5846
469.3524, 138.7003
469.8345, 139.0245
470.3166, 138.8369
470.7987, 138.9450
471.2808, 139.8526
471.7629, 140.9046
472.2451, 141.6442
472.7272, 142.0538
473.2093, 142.0302
473.6914, 141.5072
474.1735, 140.5766
474.6556, 139.4594
475.1378, 138.4001
475.6199, 136.4280
476.1020, 132.8125
476.5841, 128.6212
477.0662, 124.6317
477.5483, 120.9817
478.0305, 117.5451
478.5126, 114.2478
478.9947, 111.0882
479.4768, 108.1858
479.9589, 104.7738
480.4410, 102.5488
480.9232, 102.7577
481.4053, 103.7257
481.8874, 103.6480
482.3695, 102.1390
482.8516, 100.2238
483.3337, 99.13280
483.8159, 98.95605
484.2980, 98.83598
484.7801, 98.64000
485.2622, 98.67049
485.7443, 99.41453
486.2264, 100.3568
486.7086, 100.5621
487.1907, 99.49006
487.6728, 98.08380
488.1549, 97.81593
488.6370, 98.76665
489.1191, 99.60467
489.6013, 100.2616
490.0834, 100.4330
490.5655, 99.59544
491.0476, 97.93464
491.5297, 96.74623
492.0118, 96.84748
492.4940, 97.53361
492.9761, 98.07683
493.4582, 98.44159
493.9403, 98.31706
494.4224, 97.28120
494.9045, 95.89201
495.3867, 95.73173
495.8688, 97.45564
496.3509, 98.54837
496.8330, 98.08726
497.3151, 96.90478
497.7972, 95.68504
498.2794, 94.60249
498.7615, 93.81468
499.2436, 93.46268
499.7257, 93.53931
500.2078, 93.91367
500.6899, 94.87174
501.1721, 95.78316
501.6542, 96.81355
502.1363, 97.61507
502.6184, 97.72203
503.1005, 97.06049
503.5826, 96.10027
504.0648, 95.37629
504.5469, 94.89552
505.0290, 94.58583
505.5111, 94.47083
505.9932, 94.51530
506.4753, 94.90526
506.9575, 95.38274
507.4396, 95.51147
507.9217, 95.07611
508.4038, 94.43370
508.8859, 93.93559
509.3680, 93.58745
509.8502, 93.54857
510.3323, 94.01199
510.8144, 94.54053
511.2965, 94.71695
511.7787, 94.58504
512.2607, 94.31937
512.7429, 94.03288
513.2250, 93.57509
513.7071, 92.43847
514.1892, 90.90928
514.6713, 90.35302
515.1534, 91.59193
515.6356, 93.47529
516.1177, 93.62920
516.5998, 90.75320
517.0819, 89.06403
517.5640, 89.25586
518.0461, 90.18641
518.5283, 91.56898
519.0104, 93.03673
519.4925, 93.75901
519.9746, 93.10446
520.4567, 91.53757
520.9388, 90.81578
521.4210, 91.41663
521.9031, 91.99425
522.3852, 92.43790
522.8673, 92.77103
523.3494, 92.94894
523.8315, 93.00713
524.3137, 93.09860
524.7958, 93.37635
525.2779, 93.77368
525.7600, 94.02193
526.2421, 94.05871
526.7242, 94.18498
527.2064, 94.69869
527.6885, 95.28172
528.1706, 95.48669
528.6527, 95.20949
529.1348, 94.96471
529.6169, 95.23179
530.0991, 95.62389
530.5812, 95.34046
531.0633, 94.29967
531.5454, 93.38907
532.0275, 93.28632
532.5096, 93.87727
532.9918, 94.37298
533.4739, 94.83151
533.9560, 95.13760
534.4381, 95.38756
534.9202, 95.40969
535.4023, 94.83986
535.8845, 93.71268
536.3666, 92.61314
536.8488, 92.15927
537.3309, 92.34746
537.8130, 92.45959
538.2951, 92.41866
538.7772, 92.40023
539.2593, 92.86483
539.7415, 93.15981
540.2236, 92.34357
540.7057, 90.21825
541.1878, 88.01826
541.6699, 87.06406
542.1520, 87.19195
542.6342, 87.29327
543.1163, 87.35621
543.5984, 87.23512
544.0805, 86.57870
544.5626, 85.72353
545.0447, 85.33317
545.5269, 85.67515
546.0090, 86.14877
546.4911, 86.64690
546.9732, 86.98216
547.4553, 86.65314
547.9374, 85.54575
548.4196, 84.31174
548.9017, 83.54800
549.3838, 83.25793
549.8659, 83.19241
550.3480, 83.62514
550.8301, 83.91536
551.3123, 83.83423
551.7944, 83.53650
552.2765, 83.16110
552.7586, 82.77049
553.2407, 82.45763
553.7228, 82.40364
554.2050, 82.64046
554.6871, 82.52525
555.1692, 81.79051
555.6513, 81.07440
556.1334, 80.54506
556.6155, 80.19212
557.0977, 80.03477
557.5798, 80.09948
558.0619, 80.19598
558.5440, 80.01936
559.0261, 79.71437
559.5082, 79.98981
559.9904, 81.12495
560.4725, 81.99837
560.9546, 81.57650
561.4367, 80.11664
561.9188, 79.10339
562.4009, 78.84911
562.8831, 78.66991
563.3652, 78.14799
563.8473, 77.61537
564.3294, 77.73045
564.8115, 78.54621
565.2936, 79.21797
565.7758, 78.82744
566.2579, 77.36803
566.7400, 76.41909
567.2221, 76.26064
567.7042, 76.31581
568.1863, 76.72081
568.6685, 77.16553
569.1506, 77.30593
569.6327, 77.08534
570.1148, 76.77236
570.5969, 76.72729
571.0790, 76.85757
571.5612, 76.51523
572.0433, 75.53638
572.5254, 74.52251
573.0075, 73.60348
573.4896, 72.92394
573.9717, 72.74330
574.4539, 73.20553
574.9360, 73.73285
575.4181, 74.19041
575.9002, 74.48774
576.3823, 74.46931
576.8644, 74.13112
577.3466, 73.60930
577.8287, 72.97473
578.3108, 72.25505
578.7929, 71.58620
579.2750, 70.75520
579.7571, 70.26860
580.2393, 70.59099
580.7214, 70.94645
581.2035, 70.53333
581.6856, 69.48164
582.1677, 68.66739
582.6498, 68.82708
583.1320, 69.64494
583.6141, 70.07533
584.0962, 70.12161
584.5783, 69.75331
585.0604, 68.46603
585.5425, 67.14564
586.0247, 66.72982
586.5068, 67.14586
586.9889, 67.24080
587.4710, 65.92059
587.9531, 64.40966
588.4352, 64.44158
588.9174, 65.74897
589.3995, 66.58675
589.8816, 66.13582
590.3637, 65.03893
590.8458, 64.40705
591.3279, 64.48286
591.8101, 64.35017
592.2922, 63.63906
592.7743, 63.08437
593.2564, 63.21053
593.7385, 63.76131
594.2206, 64.28950
594.7028, 64.59309
595.1849, 64.57845
595.6670, 63.93769
596.1491, 62.53135
596.6312, 61.56217
597.1133, 61.39475
597.5955, 61.29715
598.0776, 60.75914
598.5597, 60.02401
599.0418, 59.53271
599.5239, 59.35518
600.0060, 59.54814
600.4882, 60.56961
600.9703, 61.95429
601.4524, 62.39436
601.9345, 61.60312
602.4166, 60.68263
602.8987, 60.60140
603.3809, 61.29852
603.8630, 61.88773
604.3451, 62.53045
604.8272, 62.87844
605.3093, 62.87897
605.7914, 62.54684
606.2736, 61.56074
606.7557, 60.11204
607.2378, 59.20105
607.7199, 59.89636
608.2020, 61.74159
608.6841, 62.33993
609.1663, 61.17891
609.6484, 60.25384
610.1305, 60.44225
610.6126, 60.90844
611.0947, 60.89635
611.5768, 60.40076
612.0590, 59.99775
612.5411, 60.06400
613.0232, 60.25540
613.5053, 60.17985
613.9874, 59.87070
614.4695, 59.48079
614.9517, 59.03006
615.4338, 58.72059
615.9159, 58.96310
616.3980, 60.13528
616.8801, 60.52574
617.3622, 59.52086
617.8444, 58.48090
618.3265, 57.98602
618.8086, 57.83610
619.2907, 57.68965
619.7728, 57.41773
620.2549, 57.07177
620.7371, 56.55574
621.2192, 55.89917
621.7013, 56.01470
622.1834, 57.39471
622.6655, 58.52605
623.1476, 58.27803
623.6298, 57.29012
624.1119, 56.62084
624.5940, 56.51625
625.0761, 56.25113
625.5582, 55.04975
626.0403, 53.75294
626.5225, 53.76403
627.0046, 54.95787
627.4867, 55.68821
627.9688, 54.80392
628.4509, 52.91577
628.9330, 52.03738
629.4152, 52.86504
629.8973, 53.46230
630.3794, 53.62119
630.8615, 53.70656
631.3436, 54.01893
631.8257, 54.42591
632.3079, 54.55829
632.7900, 54.19906
633.2721, 53.59660
633.7542, 53.01090
634.2363, 52.46004
634.7184, 52.15353
635.2006, 52.18414
635.6827, 52.30891
636.1649, 52.31151
636.6470, 52.21713
637.1291, 52.22266
637.6112, 52.50826
638.0933, 52.67603
638.5754, 52.39357
639.0576, 52.03715
639.5397, 52.10611
640.0218, 52.61710
640.5039, 53.18182
640.9860, 53.51752
641.4681, 53.61069
641.9503, 53.36297
642.4324, 52.60514
642.9145, 51.92945
643.3966, 51.37717
643.8787, 51.01932
644.3608, 50.90588
644.8430, 51.03573
645.3251, 51.40014
645.8072, 52.45382
646.2893, 53.32597
646.7714, 52.79729
647.2535, 51.31707
647.7357, 50.37371
648.2178, 50.41752
648.6999, 50.88675
649.1820, 51.20328
649.6641, 51.36798
650.1462, 51.38492
650.6284, 50.96618
651.1105, 50.76699
651.5926, 51.34785
652.0747, 51.94941
652.5568, 51.63068
653.0389, 50.38552
653.5211, 49.18312
654.0032, 48.82986
654.4853, 49.08747
654.9674, 49.42821
655.4495, 49.89769
655.9316, 49.88564
656.4138, 48.96937
656.8959, 47.75257
657.3780, 46.95965
657.8601, 46.56735
658.3422, 46.47512
658.8243, 46.84161
659.3065, 47.33169
659.7886, 47.81786
660.2707, 48.28421
660.7528, 48.84832
661.2349, 49.49176
661.7170, 49.80384
662.1992, 49.19499
662.6813, 47.72248
663.1634, 46.78963
663.6455, 46.63158
664.1276, 46.53696
664.6097, 46.18502
665.0919, 45.85801
665.5740, 46.03294
666.0561, 46.68402
666.5382, 46.73720
667.0203, 44.97242
667.5024, 42.92170
667.9846, 42.37745
668.4667, 42.99912
668.9488, 43.50409
669.4309, 43.43110
669.9130, 43.00029
670.3951, 42.45170
670.8773, 41.73473
671.3594, 41.31512
671.8415, 41.55306
672.3236, 41.66886
672.8057, 41.41616
673.2878, 41.00930
673.7700, 40.61632
674.2521, 40.29182
674.7342, 40.12078
675.2163, 40.34914
675.6984, 40.71227
676.1805, 40.58638
676.6627, 39.99002
677.1448, 39.52076
677.6269, 39.47389
678.1090, 39.46343
678.5911, 38.83472
679.0732, 37.34763
679.5554, 36.69798
680.0375, 37.52136
680.5196, 38.42379
681.0017, 38.95153
681.4838, 39.22533
681.9659, 39.44494
682.4481, 39.64399
682.9302, 39.67823
683.4123, 39.39010
683.8944, 38.83211
684.3765, 38.08743
684.8586, 37.05611
685.3408, 36.49903
685.8229, 36.90087
686.3050, 37.63742
686.7871, 37.96689
687.2692, 37.90829
687.7513, 37.66088
688.2335, 36.99435
688.7156, 36.42149
689.1977, 36.19046
689.6798, 36.24604
690.1619, 36.61599
690.6440, 37.24043
691.1262, 37.73050
691.6083, 37.64303
692.0904, 37.08068
692.5725, 36.80273
693.0546, 36.93637
693.5367, 36.98849
694.0189, 36.84403
694.5010, 36.54142
694.9831, 35.96233
695.4652, 35.18475
695.9473, 34.79508
696.4294, 35.26427
696.9116, 35.87713
697.3937, 36.22507
697.8758, 36.34647
698.3579, 36.34243
698.8400, 36.22797
699.3221, 35.85295
699.8043, 34.97893
700.2864, 33.75201
700.7685, 33.34956
701.2506, 34.22245
701.7327, 34.96128
702.2148, 35.19770
702.6970, 35.29269
703.1791, 35.45800
703.6612, 35.67953
704.1433, 35.85239
704.6254, 35.87894
705.1075, 35.92067
705.5897, 36.10577
706.0718, 36.40369
706.5539, 36.92307
707.0360, 37.63267
707.5181, 37.85075
708.0002, 36.92101
708.4824, 35.14014
708.9645, 33.97530
709.4466, 33.43192
709.9287, 33.50941
710.4108, 34.81607
710.8929, 36.14834
711.3751, 36.91540
711.8572, 37.16301
712.3393, 37.06637
712.8214, 36.58675
713.3035, 36.05416
713.7856, 35.75463
714.2678, 35.61201
714.7499, 35.43760
715.2320, 35.21496
715.7141, 35.07163
716.1962, 35.07108
716.6783, 35.25038
717.1605, 35.77772
717.6426, 37.21302
718.1247, 37.88339
718.6068, 36.98290
719.0889, 36.19653
719.5710, 36.64262
720.0532, 37.61587
720.5353, 37.79396
721.0174, 36.71495
721.4995, 35.40122
721.9816, 34.38367
722.4637, 33.80324
722.9459, 34.19168
723.4280, 35.48079
723.9101, 36.56155
724.3922, 36.89143
724.8743, 36.71387
725.3564, 36.46138
725.8386, 36.09255
726.3207, 35.79517
726.8028, 35.47326
727.2849, 35.32924
727.7670, 35.57475
728.2491, 35.95507
728.7313, 36.14603
729.2134, 36.09556
729.6955, 36.04039
730.1776, 36.15602
730.6597, 36.36414
731.1418, 36.56579
731.6240, 36.75285
732.1061, 36.90180
732.5882, 37.00713
733.0703, 37.04341
733.5524, 36.96232
734.0346, 36.75552
734.5167, 36.63605
734.9988, 36.71781
735.4810, 36.73908
735.9631, 36.58958
736.4452, 36.41904
736.9273, 36.32355
737.4094, 36.32274
737.8915, 36.42884
738.3737, 36.68815
738.8558, 37.00236
739.3379, 37.32741
739.8200, 37.61835
740.3021, 37.72837
740.7842, 37.62857
741.2664, 37.40993
741.7485, 37.11717
742.2306, 36.78799
742.7127, 36.60937
743.1948, 36.61978
743.6769, 36.71549
744.1591, 36.79933
744.6412, 37.04966
745.1233, 37.88631
745.6054, 38.89826
746.0875, 39.20842
746.5696, 38.43241
747.0518, 37.39669
747.5339, 36.56922
748.0160, 35.97361
748.4981, 35.60491
748.9802, 35.49098
749.4623, 35.94057
749.9445, 37.20222
750.4266, 38.59492
750.9087, 38.75552
751.3908, 37.28058
751.8729, 36.50311
752.3550, 37.00285
752.8372, 37.43660
753.3193, 37.12206
753.8014, 36.67821
754.2835, 36.91375
754.7656, 37.89873
755.2477, 38.68120
755.7299, 38.74519
756.2120, 38.46824
756.6941, 38.07999
757.1762, 37.65508
757.6583, 37.37973
758.1404, 37.29339
758.6226, 37.19541
759.1047, 36.85757
759.5868, 36.34400
760.0689, 36.12468
760.5510, 36.38495
761.0331, 36.44460
761.5153, 36.03011
761.9974, 35.52349
762.4795, 35.18966
762.9616, 34.99110
763.4437, 34.79983
763.9258, 34.57806
764.4080, 34.38137
764.8901, 34.12934
765.3722, 33.98600
765.8543, 34.25029
766.3364, 34.82677
766.8185, 35.33744
767.3007, 35.58371
767.7828, 35.56915
768.2649, 35.27021
768.7470, 34.68130
769.2291, 33.92093
769.7112, 32.81887
770.1934, 32.00833
770.6755, 31.96041
771.1576, 32.27647
771.6397, 32.25984
772.1218, 31.85239
772.6039, 31.56039
773.0861, 31.48556
773.5682, 31.52277
774.0503, 31.66290
774.5324, 31.85927
775.0145, 32.14000
775.4966, 32.45713
775.9788, 32.52415
776.4609, 31.94954
776.9430, 31.10569
777.4251, 30.96367
777.9072, 31.50611
778.3893, 31.98857
778.8715, 32.26480
779.3536, 32.35809
779.8357, 32.23730
780.3178, 31.94472
780.7999, 31.77149
781.2820, 31.81061
781.7642, 31.83144
782.2463, 31.80415
782.7284, 31.77245
783.2105, 31.75612
783.6926, 31.75794
784.1747, 31.76953
784.6569, 31.78379
785.1390, 31.84617
785.6211, 32.18423
786.1032, 32.52702
786.5853, 32.09232
787.0674, 31.00529
787.5496, 30.53457
788.0317, 31.29009
788.5138, 32.40953
788.9959, 32.61667
789.4780, 31.82142
789.9601, 31.41874
790.4423, 31.74502
790.9244, 31.92334
791.4065, 31.75282
791.8886, 31.35675
792.3707, 30.59269
792.8528, 29.61428
793.3350, 29.17082
793.8171, 29.74243
794.2992, 30.59052
794.7813, 31.55295
795.2634, 32.36207
795.7455, 32.51813
796.2277, 32.09126
796.7098, 31.69753
797.1919, 31.73174
797.6740, 31.84600
798.1561, 31.21636
798.6382, 29.79567
799.1204, 28.92583
799.6025, 28.77639
800.0846, 28.90075
800.5667, 29.11920
801.0488, 29.45068
801.5309, 30.04370
802.0131, 31.02670
802.4952, 31.48178
802.9773, 30.89324
803.4594, 30.26450
803.9415, 30.17340
804.4236, 30.19527
804.9058, 29.59371
805.3879, 28.43296
805.8700, 27.72561
806.3521, 28.37239
806.8342, 29.52262
807.3163, 29.87958
807.7985, 29.59730
808.2806, 29.29314
808.7627, 29.07826
809.2448, 28.87707
809.7269, 28.61166
810.2090, 28.35713
810.6912, 28.35650
811.1733, 28.73076
811.6554, 29.07173
812.1375, 29.42861
812.6196, 29.69090
813.1017, 29.93095
813.5839, 29.99767
814.0660, 29.49593
814.5481, 28.34289
815.0302, 27.69692
815.5123, 28.39186
815.9944, 29.45892
816.4766, 30.33205
816.9587, 30.94889
817.4408, 31.15496
817.9229, 30.97107
818.4050, 30.73440
818.8871, 30.75931
819.3693, 30.86700
819.8514, 30.46130
820.3335, 29.50791
820.8156, 28.91017
821.2977, 28.86543
821.7798, 29.01991
822.2620, 29.20636
822.7441, 29.38740
823.2262, 29.43132
823.7083, 29.16430
824.1904, 29.16693
824.6725, 29.86801
825.1547, 30.38567
825.6368, 30.04854
826.1189, 29.42456
826.6010, 29.36484
827.0831, 29.98107
827.5652, 30.52145
828.0474, 30.45865
828.5295, 30.09528
829.0116, 29.63757
829.4937, 29.19095
829.9758, 29.12640
830.4579, 29.48391
830.9401, 29.75595
831.4222, 29.52569
831.9043, 28.98878
832.3865, 28.70372
832.8686, 28.67234
833.3507, 28.93123
833.8328, 29.66715
834.3149, 30.35575
834.7971, 30.82882
835.2792, 31.00951
835.7613, 30.68263
836.2434, 29.70674
836.7255, 29.03251
837.2076, 29.02013
837.6898, 29.10961
838.1719, 29.11883
838.6540, 29.02623
839.1361, 28.70465
839.6182, 28.22856
840.1003, 27.99891
840.5825, 28.32914
841.0646, 28.93314
841.5467, 29.63913
842.0288, 30.28806
842.5109, 30.17384
842.9930, 29.25020
843.4752, 28.49125
843.9573, 28.50631
844.4394, 28.99939
844.9215, 29.40722
845.4036, 29.80445
845.8857, 29.69634
846.3679, 28.71267
846.8500, 27.87726
847.3321, 27.58090
847.8142, 27.60473
848.2963, 27.75876
848.7784, 28.03431
849.2606, 28.35535
849.7427, 28.92795
850.2248, 29.26942
850.7069, 29.02476
851.1890, 28.57703
851.6711, 28.27429
852.1533, 28.13676
852.6354, 28.01980
853.1175, 27.83432
853.5996, 27.79125
854.0817, 28.39209
854.5638, 29.26862
855.0460, 29.28057
855.5281, 28.46413
856.0102, 27.81741
856.4923, 27.73314
856.9744, 28.04798
857.4565, 28.66581
857.9387, 29.55081
858.4208, 29.54020
858.9029, 28.04469
859.3850, 27.09084
859.8671, 27.41539
860.3492, 28.01402
860.8314, 28.11811
861.3135, 27.91601
861.7956, 27.92853
862.2777, 28.28489
862.7598, 28.66716
863.2419, 29.22087
863.7241, 29.55067
864.2062, 29.19778
864.6883, 28.50428
865.1704, 28.07248
865.6525, 28.03932
866.1346, 28.02904
866.6168, 27.59570
867.0989, 27.12743
867.5810, 27.38561
868.0631, 28.14206
868.5452, 28.65114
869.0273, 28.75911
869.5095, 28.50264
869.9916, 27.83731
870.4737, 27.05460
870.9558, 27.00507
871.4379, 27.87878
871.9200, 28.38320
872.4022, 28.33240
872.8843, 28.22520
873.3664, 28.24074
873.8485, 28.34602
874.3306, 28.49902
874.8127, 28.69820
875.2949, 28.94402
875.7770, 29.24041
876.2591, 29.57731
876.7412, 30.18587
877.2233, 30.64395
877.7054, 30.50160
878.1876, 29.88497
878.6697, 29.18734
879.1518, 28.51317
879.6339, 28.03366
880.1160, 27.93462
880.5981, 28.08197
881.0803, 28.35491
881.5624, 28.70359
882.0445, 29.03257
882.5266, 29.30532
883.0087, 29.52919
883.4908, 29.73410
883.9730, 29.87737
884.4551, 29.70480
884.9372, 29.18562
885.4193, 28.92249
885.9014, 29.07115
886.3835, 29.33136
886.8657, 29.53117
887.3478, 29.66384
887.8299, 29.71872
888.3120, 29.72999
888.7941, 29.57002
889.2762, 28.68740
889.7584, 28.30767
890.2405, 29.37045
890.7226, 30.72156
891.2047, 31.13789
891.6868, 30.61954
892.1689, 30.03839
892.6511, 29.59739
893.1332, 29.25639
893.6153, 28.90751
894.0974, 28.71026
894.5795, 29.00725
895.0616, 29.60054
895.5438, 29.89944
896.0259, 29.66259
896.5080, 29.26777
896.9901, 29.04039
897.4722, 28.98357
897.9543, 29.16199
898.4365, 29.53664
898.9186, 29.90241
899.4007, 30.20072
899.8828, 30.48647
900.3649, 30.83577
900.8470, 31.16616
901.3292, 31.14122
901.8113, 30.67027
902.2934, 30.28625
902.7755, 30.02251
903.2576, 29.84354
903.7397, 29.58470
904.2219, 29.51696
904.7040, 30.24221
905.1861, 31.93972
905.6682, 33.03009
906.1503, 33.17191
906.6324, 33.12234
907.1146, 32.85980
907.5967, 32.65051
908.0788, 32.72338
908.5609, 33.02932
909.0430, 33.38671
909.5251, 33.74206
910.0073, 34.13095
910.4894, 34.77318
910.9715, 35.29185
911.4536, 35.09447
911.9357, 34.53486
912.4178, 34.24659
912.9000, 34.44680
913.3821, 35.30563
913.8642, 37.29867
914.3463, 39.46828
914.8284, 39.57128
915.3105, 38.18134
915.7927, 38.14833
916.2748, 39.80837
916.7569, 41.20830
917.2390, 41.24231
917.7211, 40.62980
918.2032, 40.47687
918.6854, 40.77631
919.1675, 41.94514
919.6496, 44.48743
920.1317, 46.27179
920.6138, 46.34611
921.0959, 46.11456
921.5781, 46.77591
922.0602, 48.16552
922.5423, 49.49564
923.0244, 50.96229
923.5065, 52.02227
923.9886, 52.36665
924.4708, 52.62693
924.9529, 52.84178
925.4350, 53.26849
925.9171, 54.23775
926.3992, 55.76061
926.8813, 57.51937
927.3635, 59.66704
927.8456, 61.68592
928.3277, 63.06071
928.8098, 64.30644
929.2919, 66.15261
929.7740, 68.39042
930.2562, 70.28455
930.7383, 71.52516
931.2205, 72.62550
931.7026, 74.21077
932.1847, 75.93700
932.6668, 77.12797
933.1489, 77.87483
933.6310, 78.35474
934.1132, 78.67019
934.5953, 79.56996
935.0774, 81.75341
935.5595, 84.32369
936.0416, 84.91673
936.5237, 83.51309
937.0059, 82.75600
937.4880, 82.76598
937.9701, 83.49943
938.4522, 85.17827
938.9343, 87.01336
939.4164, 88.04791
939.8986, 88.33438
940.3807, 88.79530
940.8628, 89.55268
941.3449, 90.24648
941.8270, 90.92348
942.3091, 91.43641
942.7913, 91.90562
943.2734, 92.08201
943.7555, 91.60848
944.2376, 90.48029
944.7197, 88.60343
945.2018, 85.54413
945.6840, 82.25676
946.1661, 79.13344
946.6482, 75.93127
947.1303, 72.23096
947.6124, 68.23989
948.0945, 64.65599
948.5767, 61.78303
949.0588, 58.90345
949.5409, 55.32259
950.0230, 51.69971
950.5051, 48.55000
950.9872, 45.87986
951.4694, 43.61071
951.9515, 41.71828
952.4336, 40.36110
952.9157, 39.80342
953.3978, 39.36295
953.8799, 37.68092
954.3621, 35.41259
954.8442, 34.52441
955.3263, 34.96380
955.8084, 35.29835
956.2905, 34.95970
956.7726, 34.15833
957.2548, 32.99624
957.7369, 31.67480
958.2190, 31.28787
958.7011, 31.91803
959.1832, 31.55209
959.6653, 29.64675
960.1475, 27.95649
960.6296, 27.50108
961.1117, 27.86365
961.5938, 28.36827
962.0759, 29.08510
962.5580, 29.23418
963.0402, 28.48559
963.5223, 27.85317
964.0044, 27.49070
964.4865, 27.38566
964.9686, 27.79121
965.4507, 28.42709
965.9329, 28.34451
966.4150, 27.05256
966.8971, 26.37371
967.3792, 26.93176
967.8613, 27.50687
968.3434, 27.57437
968.8256, 27.50745
969.3077, 27.77935
969.7898, 28.30491
970.2719, 28.54203
970.7540, 28.26091
971.2361, 27.85750
971.7183, 27.31723
972.2004, 26.88868
972.6825, 26.70499
973.1646, 26.79808
973.6467, 27.31301
974.1288, 28.19713
974.6110, 29.00180
975.0931, 29.62396
975.5752, 29.79639
976.0573, 28.86026
976.5394, 27.55569
977.0215, 27.04183
977.5037, 27.20369
977.9858, 27.26339
978.4679, 26.95727
978.9500, 26.81141
979.4321, 27.55991
979.9142, 28.59627
980.3964, 28.60878
980.8785, 27.84785
981.3606, 27.10073
981.8427, 26.52315
982.3248, 26.35071
982.8069, 26.73162
983.2891, 27.23452
983.7712, 27.17101
984.2533, 26.64715
984.7354, 26.40579
985.2175, 26.44681
985.6996, 26.89979
986.1818, 27.89370
986.6639, 28.60936
987.1460, 28.41055
987.6281, 27.68312
988.1102, 27.31497
988.5923, 27.37847
989.0745, 27.22430
989.5566, 26.75034
990.0387, 26.34467
990.5208, 26.05043
991.0029, 25.98529
991.4850, 26.38238
991.9672, 27.06278
992.4493, 27.32747
992.9314, 27.01406
993.4135, 26.66727
993.8956, 26.16306
994.3777, 25.79529
994.8599, 25.61205
995.3420, 25.63677
995.8241, 26.09804
996.3062, 26.85065
996.7883, 27.05903
997.2704, 26.10274
997.7526, 25.59367
998.2347, 26.19304
998.7168, 26.78428
999.1989, 26.78836
999.6810, 26.48570
1000.163, 26.10740
1000.645, 25.74481
1001.127, 25.77484
1001.609, 26.60656
1002.092, 27.36782
1002.574, 27.90360
1003.056, 28.05165
1003.538, 27.32209
1004.020, 26.26525
1004.502, 25.75799
1004.984, 25.95622
1005.466, 26.44292
1005.949, 27.30093
1006.431, 27.94094
1006.913, 27.87019
1007.395, 27.38794
1007.877, 26.43486
1008.359, 25.45974
1008.841, 25.60370
1009.323, 27.09709
1009.805, 28.51699
1010.288, 28.75462
1010.770, 28.34789
1011.252, 27.75737
1011.734, 27.07609
1012.216, 26.28344
1012.698, 25.55675
1013.180, 25.59163
1013.662, 26.63329
1014.145, 27.71561
1014.627, 27.91973
1015.109, 27.43950
1015.591, 26.24416
1016.073, 24.72423
1016.555, 24.30800
1017.037, 25.05208
1017.519, 25.87337
1018.001, 26.22770
1018.484, 26.40316
1018.966, 26.76416
1019.448, 27.25605
1019.930, 27.80166
1020.412, 28.34535
1020.894, 28.29107
1021.376, 27.54693
1021.858, 26.84274
1022.341, 26.60362
1022.823, 26.57487
1023.305, 26.30468
1023.787, 25.85226
1024.269, 25.84892
1024.751, 26.31955
1025.233, 26.79882
1025.715, 27.22672
1026.198, 27.41770
1026.680, 27.22612
1027.162, 26.79988
1027.644, 26.34097
1028.126, 25.83584
1028.608, 26.08554
1029.090, 27.39393
1029.572, 27.90362
1030.054, 26.94989
1030.536, 25.90766
1031.019, 25.66558
1031.501, 26.03657
1031.983, 26.73611
1032.465, 27.90802
1032.947, 28.14696
1033.429, 26.92253
1033.911, 26.19662
1034.393, 26.70363
1034.876, 27.23046
1035.358, 26.75809
1035.840, 25.80179
1036.322, 25.64196
1036.804, 26.51742
1037.286, 27.04150
1037.768, 27.12281
1038.250, 27.01099
1038.733, 26.66486
1039.215, 26.24427
1039.697, 25.62632
1040.179, 25.09044
1040.661, 25.49469
1041.143, 27.36095
1041.625, 28.23224
1042.107, 27.25301
1042.589, 26.45447
1043.072, 26.26327
1043.554, 26.34498
1044.036, 26.53792
1044.518, 26.81890
1045.000, 27.19641
1045.482, 27.79175
1045.964, 27.98694
1046.446, 24.51435
1046.928, 24.99161
1047.411, 38.04075
1047.893, 49.46546
1048.375, 44.59344
1048.857, 30.95143
1049.339, 28.45430
1049.821, 42.43383
1050.303, 49.45022
1050.785, 39.71023
1051.268, 30.73697
1051.750, 28.51606
1052.232, 28.77962
1052.714, 28.76535
1053.196, 28.35121
1053.678, 27.72535
1054.160, 26.82714
1054.642, 26.34625
1055.125, 26.86699
1055.607, 27.27676
1056.089, 27.02677
1056.571, 26.62737
1057.053, 26.51841
1057.535, 26.59037
1058.017, 26.51401
1058.499, 26.20794
1058.981, 26.02615
1059.464, 26.12708
1059.946, 26.30664
1060.428, 26.46465
1060.910, 26.68342
1061.392, 27.05444
1061.874, 27.53579
1062.356, 28.16128
1062.838, 28.96006
1063.320, 29.21159
1063.803, 28.18590
1064.285, 27.17347
1064.767, 26.68412
1065.249, 26.50754
1065.731, 26.51788
1066.213, 26.67699
1066.695, 27.07023
1067.177, 27.69937
1067.660, 27.94913
1068.142, 27.38313
1068.624, 26.63114
1069.106, 25.59499
1069.588, 24.86091
1070.070, 25.12635
1070.552, 25.97167
1071.034, 26.63409
1071.516, 26.96532
1071.999, 27.21771
1072.481, 27.57947
1072.963, 27.77341
1073.445, 27.36608
1073.927, 27.03015
1074.409, 27.67287
1074.891, 28.61413
1075.373, 28.56462
1075.855, 27.42341
1076.338, 26.45031
1076.820, 26.08721
1077.302, 26.09252
1077.784, 26.71704
1078.266, 27.30027
1078.748, 27.16232
1079.230, 26.72303
1079.713, 26.74581
1080.195, 27.23307
1080.677, 27.40615
1081.159, 26.65204
1081.641, 26.23057
1082.123, 27.29175
1082.605, 28.32226
1083.087, 27.99252
1083.569, 27.08589
1084.052, 26.62260
1084.534, 26.71250
1085.016, 27.10384
1085.498, 27.92639
1085.980, 28.40327
1086.462, 27.94641
1086.944, 27.30750
1087.426, 26.68522
1087.908, 26.36192
1088.391, 27.02572
1088.873, 28.27330
1089.355, 28.51162
1089.837, 26.93602
1090.319, 25.89793
1090.801, 26.99217
1091.283, 28.10456
1091.765, 27.81913
1092.248, 27.15435
1092.730, 27.23632
1093.212, 27.87305
1093.694, 28.29305
1094.176, 28.31337
1094.658, 28.15894
1095.140, 27.86548
1095.622, 27.46861
1096.104, 26.62091
1096.587, 26.00037
1097.069, 26.41967
1097.551, 27.44325
1098.033, 28.15957
1098.515, 28.40717
1098.997, 28.43208
1099.479, 28.11712
1099.961, 27.84823
1100.443, 27.72631
1100.926, 27.72404
1101.408, 27.99583
1101.890, 28.28864
1102.372, 28.11282
1102.854, 27.45359
1103.336, 27.05508
1103.818, 27.51834
1104.300, 27.61231
1104.783, 26.64882
1105.265, 25.72538
1105.747, 25.36705
1106.229, 25.42936
1106.711, 25.82697
1107.193, 26.48379
1107.675, 26.97267
1108.157, 27.05959
1108.640, 27.33044
1109.122, 28.41046
1109.604, 29.00014
1110.086, 28.13701
1110.568, 26.92517
1111.050, 26.29592
1111.532, 26.22660
1112.014, 26.56528
1112.496, 27.68828
1112.979, 28.16294
1113.461, 27.25175
1113.943, 26.61858
1114.425, 26.93444
1114.907, 27.37532
1115.389, 27.17568
1115.871, 26.74777
1116.353, 27.15114
1116.835, 28.66207
1117.318, 29.33910
1117.800, 28.57477
1118.282, 28.09819
1118.764, 28.27247
1119.246, 28.63877
1119.728, 29.18701
1120.210, 29.53521
1120.692, 28.92621
1121.175, 27.39310
1121.657, 26.77476
1122.139, 27.45192
1122.621, 28.00739
1123.103, 28.39294
1123.585, 28.43491
1124.067, 27.80914
1124.549, 27.32584
1125.031, 28.05998
1125.514, 29.61605
1125.996, 30.05081
1126.478, 29.11136
1126.960, 28.39156
1127.442, 27.92771
1127.924, 27.74433
1128.406, 27.90637
1128.888, 28.10381
1129.370, 28.05527
1129.853, 27.95224
1130.335, 28.32173
1130.817, 29.16285
1131.299, 29.48698
1131.781, 29.26316
1132.263, 29.33778
1132.745, 29.91552
1133.227, 30.10901
1133.710, 29.33635
1134.192, 28.48124
1134.674, 29.01055
1135.156, 30.41668
1135.638, 30.42784
1136.120, 29.25354
1136.602, 28.46184
1137.084, 28.23482
1137.567, 28.49865
1138.049, 29.20350
1138.531, 29.60567
1139.013, 28.84042
1139.495, 27.70774
1139.977, 27.94383
1140.459, 29.04211
1140.941, 29.59657
1141.423, 29.63530
1141.906, 29.57799
1142.388, 29.56980
1142.870, 29.75706
1143.352, 30.26896
1143.834, 30.75951
1144.316, 30.81735
1144.798, 30.59761
1145.280, 30.15285
1145.762, 29.69280
1146.245, 29.78821
1146.727, 30.27639
1147.209, 30.23166
1147.691, 29.30438
1148.173, 28.61670
1148.655, 29.43133
1149.137, 30.38479
1149.619, 30.10496
1150.102, 29.44700
1150.584, 29.48318
1151.066, 29.90867
1151.548, 29.80297
1152.030, 29.08844
1152.512, 28.75203
1152.994, 29.35643
1153.476, 30.14840
1153.958, 31.04139
1154.441, 31.68691
1154.923, 31.66239
1155.405, 31.39262
1155.887, 31.38134
1156.369, 31.60716
1156.851, 31.82224
1157.333, 32.04601
1157.815, 31.99597
1158.297, 31.17974
1158.780, 30.66825
1159.262, 31.05461
1159.744, 31.60966
1160.226, 31.93965
1160.708, 32.02036
1161.190, 31.73200
1161.672, 31.03370
1162.154, 30.70595
1162.637, 30.87025
1163.119, 31.18297
1163.601, 31.65902
1164.083, 32.23310
1164.565, 33.03085
1165.047, 33.71096
1165.529, 33.97784
1166.011, 33.79934
1166.494, 32.88828
1166.976, 30.88543
1167.458, 30.04477
1167.940, 30.60100
1168.422, 31.16996
1168.904, 31.42444
1169.386, 31.60687
1169.868, 31.86778
1170.350, 32.17592
1170.833, 32.47517
1171.315, 32.77401
1171.797, 33.23220
1172.279, 33.79388
1172.761, 33.74085
1173.243, 33.03851
1173.725, 32.29282
1174.207, 31.74833
1174.689, 31.60002
1175.172, 32.12211
1175.654, 32.84461
1176.136, 32.94260
1176.618, 32.63209
1177.100, 32.22095
1177.582, 31.87607
1178.064, 32.13547
1178.547, 32.92400
1179.029, 33.34792
1179.511, 32.94633
1179.993, 32.51982
1180.475, 32.92049
1180.957, 33.45258
1181.439, 33.44187
1181.921, 33.14519
1182.403, 32.62484
1182.885, 32.19449
1183.368, 32.62199
1183.850, 33.94399
1184.332, 34.80925
1184.814, 34.44921
1185.296, 33.92803
1185.778, 33.49113
1186.260, 33.23671
1186.742, 33.27332
1187.225, 33.48602
1187.707, 33.76438
1188.189, 34.10809
1188.671, 34.60598
1189.153, 35.42251
1189.635, 35.78715
1190.117, 35.20438
1190.599, 34.85706
1191.082, 35.18438
1191.564, 35.39728
1192.046, 34.94306
1192.528, 34.29153
1193.010, 34.07080
1193.492, 34.24813
1193.974, 34.58980
1194.456, 35.18066
1194.938, 35.50651
1195.421, 35.55489
1195.903, 35.17902
1196.385, 34.25887
1196.867, 33.41531
1197.349, 33.07106
1197.831, 33.26828
1198.313, 34.42732
1198.795, 36.13974
1199.277, 36.16947
1199.760, 34.86150
1200.242, 33.88827
1200.724, 33.48611
1201.206, 33.58748
1201.688, 34.12206
1202.170, 34.62816
1202.652, 34.70609
1203.134, 34.61878
1203.617, 34.60328
1204.099, 34.70544
1204.581, 35.27821
1205.063, 35.88025
1205.545, 35.38808
1206.027, 34.09174
1206.509, 33.62949
1206.991, 34.65880
1207.474, 35.64650
1207.956, 35.69409
1208.438, 35.60220
1208.920, 35.77470
1209.402, 35.98026
1209.884, 36.00013
1210.366, 35.94373
1210.848, 36.07848
1211.330, 36.36809
1211.813, 36.28187
1212.295, 35.33645
1212.777, 34.88972
1213.259, 35.30505
1213.741, 35.66194
1214.223, 35.57259
1214.705, 35.63324
1215.187, 36.37763
1215.669, 37.37827
1216.152, 37.85279
1216.634, 37.82339
1217.116, 37.61839
1217.598, 37.23280
1218.080, 36.58517
1218.562, 35.61767
1219.044, 35.67062
1219.526, 37.24892
1220.009, 38.62762
1220.491, 38.35378
1220.973, 37.34945
1221.455, 37.10778
1221.937, 37.42027
1222.419, 37.96842
1222.901, 38.55462
1223.383, 38.58476
1223.865, 38.13617
1224.348, 37.85545
1224.830, 37.93111
1225.312, 37.72005
1225.794, 36.40934
1226.276, 35.37656
1226.758, 35.96905
1227.240, 37.00041
1227.722, 37.57978
1228.204, 37.83165
1228.687, 37.93589
1229.169, 37.95246
1229.651, 37.90874
1230.133, 37.74411
1230.615, 37.91542
1231.097, 39.17749
1231.579, 39.77510
1232.061, 38.71333
1232.544, 37.74555
1233.026, 37.63768
1233.508, 38.05215
1233.990, 38.75604
1234.472, 39.60167
1234.954, 39.94468
1235.436, 39.72993
1235.918, 39.25610
1236.401, 38.43488
1236.883, 38.42865
1237.365, 39.51360
1237.847, 40.52256
1238.329, 40.83724
1238.811, 40.83439
1239.293, 40.96418
1239.775, 41.03812
1240.257, 40.46264
1240.740, 39.61504
1241.222, 39.54556
1241.704, 39.94520
1242.186, 39.67542
1242.668, 38.74597
1243.150, 38.25822
1243.632, 38.70550
1244.114, 39.41961
1244.596, 40.24474
1245.079, 40.82979
1245.561, 40.71349
1246.043, 40.49920
1246.525, 40.88219
1247.007, 41.39979
1247.489, 41.19915
1247.971, 40.35996
1248.453, 39.89177
1248.936, 40.08138
1249.418, 40.16984
1249.900, 39.89841
1250.382, 40.05383
1250.864, 41.06789
1251.346, 41.93663
1251.828, 42.07108
1252.310, 41.81817
1252.792, 41.58157
1253.275, 41.41131
1253.757, 41.61342
1254.239, 42.13316
1254.721, 42.14396
1255.203, 41.71166
1255.685, 41.79720
1256.167, 42.53153
1256.649, 43.05051
1257.131, 42.90413
1257.614, 42.69545
1258.096, 43.14424
1258.578, 43.69308
1259.060, 43.66254
1259.542, 43.37536
1260.024, 43.18294
1260.506, 43.05677
1260.988, 42.73011
1261.471, 42.34048
1261.953, 42.65600
1262.435, 44.15705
1262.917, 45.03785
1263.399, 44.26520
1263.881, 43.65769
1264.363, 43.84780
1264.845, 44.15104
1265.328, 44.38719
1265.810, 44.35112
1266.292, 43.62101
1266.774, 42.52000
1267.256, 42.47445
1267.738, 43.64251
1268.220, 44.08762
1268.702, 43.77186
1269.184, 44.03466
1269.667, 45.09313
1270.149, 45.95174
1270.631, 46.15347
1271.113, 45.76912
1271.595, 44.62589
1272.077, 43.55442
1272.559, 43.97063
1273.041, 45.11716
1273.523, 46.09619
1274.006, 46.82282
1274.488, 47.26466
1274.970, 47.43692
1275.452, 47.38160
1275.934, 47.11008
1276.416, 46.68711
1276.898, 45.62877
1277.380, 45.19637
1277.863, 46.28601
1278.345, 47.38568
1278.827, 47.75375
1279.309, 47.85648
1279.791, 48.03009
1280.273, 48.23683
1280.755, 48.38127
1281.237, 48.46506
1281.719, 48.62531
1282.202, 48.85931
1282.684, 49.30608
1283.166, 49.97537
1283.648, 50.04716
1284.130, 49.28762
1284.612, 48.62385
1285.094, 48.72069
1285.576, 48.92800
1286.059, 48.06116
1286.541, 47.12782
1287.023, 47.27674
1287.505, 48.53461
##END=



