##NAMES=Lizardite
##RRUFFID=R060006
##IDEAL CHEMISTRY=Mg_3_Si_2_O_5_(OH)_4_
##LOCALITY=Snarum, Norway
##OWNER=RRUFF
##SOURCE=University of Arizona Mineral Museum
##DESCRIPTION=Green blebs of fine-grained serpentine habit, polytype 1T, associated with pearly hydrotalcite
##STATUS=The identification of this mineral has been confirmed by X-ray diffraction and chemical analysis
##URL=rruff.info/R060006
##MEASURED CHEMISTRY=(Mg_0.94_Fe^2+^_0.04_Al_0.02_)_3_(Si_0.97_Al_0.03_)_2_O_5_(OH)_4_
105.5988, 3035.198
106.0809, 3033.375
106.5630, 3033.413
107.0451, 3035.463
107.5272, 3037.305
108.0093, 3036.910
108.4915, 3036.113
108.9736, 3036.253
109.4557, 3037.896
109.9378, 3040.475
110.4199, 3042.567
110.9020, 3043.767
111.3842, 3044.819
111.8663, 3046.012
112.3484, 3047.084
112.8305, 3047.573
113.3126, 3047.021
113.7947, 3045.344
114.2769, 3044.687
114.7590, 3045.567
115.2411, 3046.808
115.7232, 3047.958
116.2053, 3049.059
116.6874, 3050.479
117.1695, 3052.687
117.6517, 3055.978
118.1338, 3058.619
118.6159, 3060.327
119.0980, 3061.578
119.5801, 3062.692
120.0622, 3063.718
120.5444, 3064.748
121.0265, 3065.818
121.5086, 3066.867
121.9907, 3068.315
122.4728, 3070.397
122.9549, 3072.957
123.4371, 3075.510
123.9192, 3077.573
124.4013, 3080.116
124.8834, 3084.025
125.3655, 3089.328
125.8476, 3095.267
126.3298, 3101.558
126.8119, 3108.240
127.2940, 3114.325
127.7761, 3120.380
128.2582, 3125.161
128.7404, 3128.135
129.2225, 3129.165
129.7046, 3127.694
130.1867, 3122.639
130.6688, 3112.972
131.1509, 3101.115
131.6331, 3087.071
132.1152, 3071.653
132.5973, 3054.671
133.0794, 3036.053
133.5615, 3016.981
134.0436, 3002.823
134.5258, 2997.660
135.0079, 2993.413
135.4900, 2989.233
135.9721, 2985.238
136.4542, 2981.841
136.9363, 2979.354
137.4184, 2977.728
137.9006, 2976.096
138.3827, 2974.744
138.8648, 2973.137
139.3469, 2970.641
139.8290, 2967.453
140.3111, 2964.740
140.7933, 2963.706
141.2754, 2964.161
141.7575, 2963.874
142.2396, 2962.376
142.7217, 2960.271
143.2038, 2957.940
143.6860, 2955.235
144.1681, 2953.084
144.6502, 2952.789
145.1323, 2953.680
145.6144, 2954.370
146.0965, 2954.055
146.5787, 2953.073
147.0608, 2952.473
147.5429, 2952.295
148.0250, 2952.558
148.5071, 2953.783
148.9892, 2955.505
149.4714, 2956.455
149.9535, 2955.102
150.4356, 2951.174
150.9177, 2948.446
151.3998, 2948.240
151.8819, 2948.289
152.3641, 2947.841
152.8462, 2946.846
153.3283, 2945.661
153.8104, 2944.778
154.2925, 2944.617
154.7746, 2943.539
155.2568, 2940.652
155.7389, 2937.689
156.2210, 2935.815
156.7031, 2935.229
157.1852, 2935.259
157.6673, 2934.881
158.1495, 2933.863
158.6316, 2932.743
159.1137, 2931.727
159.5958, 2930.512
160.0779, 2928.482
160.5600, 2925.365
161.0422, 2922.082
161.5243, 2920.777
162.0064, 2922.407
162.4885, 2923.451
162.9706, 2922.948
163.4527, 2921.340
163.9349, 2919.370
164.4170, 2917.129
164.8991, 2914.965
165.3812, 2913.548
165.8633, 2913.076
166.3454, 2912.650
166.8276, 2911.781
167.3097, 2910.519
167.7918, 2909.137
168.2739, 2907.584
168.7560, 2906.114
169.2381, 2905.109
169.7203, 2904.763
170.2024, 2904.417
170.6845, 2903.225
171.1666, 2900.995
171.6487, 2899.093
172.1308, 2898.164
172.6130, 2897.685
173.0951, 2897.350
173.5772, 2897.080
174.0593, 2896.824
174.5414, 2896.664
175.0235, 2897.177
175.5057, 2896.404
175.9878, 2892.871
176.4699, 2888.565
176.9520, 2885.277
177.4341, 2883.839
177.9162, 2883.819
178.3984, 2883.912
178.8805, 2884.518
179.3626, 2884.678
179.8447, 2884.057
180.3268, 2883.013
180.8089, 2881.987
181.2911, 2881.234
181.7732, 2880.700
182.2553, 2880.014
182.7374, 2879.138
183.2195, 2878.190
183.7016, 2877.276
184.1838, 2876.318
184.6659, 2875.114
185.1480, 2873.487
185.6301, 2871.522
186.1122, 2870.096
186.5943, 2869.447
187.0765, 2868.954
187.5586, 2868.236
188.0407, 2867.423
188.5228, 2867.020
189.0049, 2867.469
189.4870, 2868.612
189.9692, 2869.332
190.4513, 2869.572
190.9334, 2869.442
191.4155, 2868.917
191.8976, 2868.008
192.3797, 2866.917
192.8619, 2865.531
193.3440, 2864.116
193.8261, 2863.372
194.3082, 2863.980
194.7903, 2864.915
195.2724, 2864.834
195.7546, 2863.525
196.2367, 2862.688
196.7188, 2864.391
197.2009, 2867.111
197.6830, 2868.724
198.1651, 2867.935
198.6473, 2866.160
199.1294, 2865.935
199.6115, 2867.808
200.0936, 2869.916
200.5757, 2871.638
201.0578, 2872.988
201.5400, 2873.951
202.0221, 2874.500
202.5042, 2874.638
202.9863, 2874.272
203.4684, 2872.745
203.9505, 2871.781
204.4327, 2871.913
204.9148, 2872.829
205.3969, 2874.134
205.8790, 2875.644
206.3611, 2877.335
206.8432, 2879.128
207.3254, 2881.103
207.8075, 2883.104
208.2896, 2884.604
208.7717, 2886.190
209.2538, 2888.883
209.7359, 2893.459
210.2181, 2899.632
210.7002, 2904.506
211.1823, 2906.231
211.6644, 2908.542
212.1465, 2912.774
212.6286, 2918.069
213.1108, 2922.744
213.5929, 2925.567
214.0750, 2926.770
214.5571, 2929.698
215.0392, 2935.836
215.5213, 2941.964
216.0035, 2947.041
216.4856, 2951.404
216.9677, 2955.846
217.4498, 2960.918
217.9319, 2966.552
218.4140, 2972.240
218.8961, 2976.519
219.3783, 2982.214
219.8604, 2991.175
220.3425, 3002.634
220.8246, 3014.136
221.3067, 3023.962
221.7888, 3032.580
222.2710, 3043.312
222.7531, 3057.111
223.2352, 3071.756
223.7173, 3086.010
224.1994, 3100.069
224.6815, 3115.226
225.1637, 3132.686
225.6458, 3151.764
226.1279, 3169.599
226.6100, 3185.530
227.0921, 3200.892
227.5742, 3217.762
228.0564, 3235.676
228.5385, 3250.665
229.0206, 3261.214
229.5027, 3266.464
229.9848, 3266.058
230.4669, 3259.535
230.9491, 3247.899
231.4312, 3231.427
231.9133, 3210.086
232.3954, 3185.618
232.8775, 3157.696
233.3596, 3127.468
233.8418, 3096.274
234.3239, 3063.306
234.8060, 3030.803
235.2881, 3000.855
235.7702, 2973.539
236.2523, 2948.062
236.7345, 2925.151
237.2166, 2903.661
237.6987, 2882.808
238.1808, 2862.353
238.6629, 2842.852
239.1451, 2824.882
239.6272, 2808.306
240.1093, 2793.875
240.5914, 2783.347
241.0735, 2774.362
241.5556, 2765.377
242.0378, 2755.956
242.5199, 2747.117
243.0020, 2740.430
243.4841, 2736.683
243.9662, 2732.245
244.4483, 2724.601
244.9305, 2717.203
245.4126, 2712.846
245.8947, 2712.006
246.3768, 2712.095
246.8589, 2709.326
247.3410, 2702.432
247.8232, 2696.627
248.3053, 2692.174
248.7874, 2688.986
249.2695, 2687.670
249.7516, 2688.071
250.2337, 2688.791
250.7159, 2687.938
251.1980, 2684.988
251.6801, 2681.876
252.1622, 2678.018
252.6443, 2674.527
253.1264, 2672.356
253.6086, 2671.448
254.0907, 2670.771
254.5728, 2669.033
255.0549, 2665.845
255.5370, 2662.701
256.0191, 2659.059
256.5013, 2655.853
256.9834, 2653.815
257.4655, 2652.865
257.9476, 2652.277
258.4297, 2651.257
258.9118, 2649.633
259.3940, 2648.198
259.8761, 2647.182
260.3582, 2646.088
260.8403, 2644.642
261.3224, 2642.852
261.8045, 2640.853
262.2867, 2638.700
262.7688, 2636.293
263.2509, 2634.514
263.7330, 2633.948
264.2151, 2633.348
264.6972, 2632.134
265.1794, 2630.356
265.6615, 2628.373
266.1436, 2626.493
266.6257, 2624.732
267.1078, 2622.753
267.5899, 2620.707
268.0721, 2618.370
268.5542, 2615.202
269.0363, 2611.597
269.5184, 2608.683
270.0005, 2607.407
270.4826, 2607.594
270.9648, 2606.670
271.4469, 2603.752
271.9290, 2600.901
272.4111, 2599.132
272.8932, 2598.043
273.3753, 2596.592
273.8575, 2594.157
274.3396, 2590.898
274.8217, 2587.630
275.3038, 2583.831
275.7859, 2580.572
276.2680, 2578.450
276.7502, 2577.096
277.2323, 2575.781
277.7144, 2574.211
278.1965, 2572.396
278.6786, 2570.272
279.1607, 2567.580
279.6429, 2565.151
280.1250, 2563.363
280.6071, 2561.975
281.0892, 2560.660
281.5713, 2559.367
282.0534, 2557.880
282.5356, 2555.530
283.0177, 2551.914
283.4998, 2548.954
283.9819, 2547.323
284.4640, 2546.596
284.9461, 2546.410
285.4283, 2546.824
285.9104, 2546.979
286.3925, 2545.322
286.8746, 2541.706
287.3567, 2538.386
287.8388, 2536.101
288.3210, 2534.229
288.8031, 2531.871
289.2852, 2528.794
289.7673, 2525.761
290.2494, 2523.673
290.7315, 2522.479
291.2137, 2521.385
291.6958, 2520.236
292.1779, 2519.158
292.6600, 2518.402
293.1421, 2518.004
293.6242, 2517.500
294.1064, 2516.486
294.5885, 2515.010
295.0706, 2513.449
295.5527, 2511.538
296.0348, 2509.751
296.5169, 2508.555
296.9991, 2507.938
297.4812, 2507.484
297.9633, 2507.017
298.4454, 2506.490
298.9275, 2505.835
299.4096, 2505.124
299.8918, 2504.175
300.3739, 2502.594
300.8560, 2500.504
301.3381, 2498.889
301.8202, 2498.456
302.3023, 2498.572
302.7845, 2497.954
303.2666, 2496.518
303.7487, 2494.632
304.2308, 2492.228
304.7129, 2489.499
305.1950, 2487.103
305.6772, 2485.279
306.1593, 2483.870
306.6414, 2482.805
307.1235, 2482.192
307.6056, 2481.089
308.0877, 2478.881
308.5699, 2475.900
309.0520, 2472.689
309.5341, 2469.075
310.0162, 2465.966
310.4983, 2464.977
310.9804, 2465.737
311.4626, 2465.857
311.9447, 2463.747
312.4268, 2460.806
312.9089, 2459.438
313.3910, 2460.157
313.8731, 2460.917
314.3553, 2459.550
314.8374, 2456.740
315.3195, 2454.705
315.8016, 2454.578
316.2837, 2454.997
316.7658, 2454.424
317.2480, 2452.804
317.7301, 2451.096
318.2122, 2449.771
318.6943, 2448.811
319.1764, 2448.183
319.6585, 2448.458
320.1407, 2448.372
320.6228, 2446.903
321.1049, 2444.179
321.5870, 2440.939
322.0691, 2437.265
322.5512, 2433.484
323.0334, 2430.018
323.5155, 2426.734
323.9976, 2424.241
324.4797, 2423.580
324.9618, 2424.078
325.4439, 2423.583
325.9261, 2421.266
326.4082, 2418.202
326.8903, 2415.691
327.3724, 2413.711
327.8545, 2411.884
328.3366, 2409.691
328.8188, 2407.657
329.3009, 2406.906
329.7830, 2407.812
330.2651, 2408.939
330.7472, 2408.918
331.2293, 2407.898
331.7115, 2406.554
332.1936, 2404.385
332.6757, 2402.308
333.1578, 2401.594
333.6399, 2402.296
334.1220, 2402.805
334.6042, 2401.915
335.0863, 2399.990
335.5684, 2398.565
336.0505, 2397.656
336.5326, 2397.305
337.0147, 2397.954
337.4969, 2399.344
337.9790, 2400.173
338.4611, 2399.606
338.9432, 2398.400
339.4253, 2398.227
339.9074, 2399.272
340.3896, 2400.660
340.8717, 2402.296
341.3538, 2404.007
341.8359, 2405.420
342.3180, 2406.399
342.8001, 2407.177
343.2822, 2408.090
343.7643, 2409.156
344.2465, 2410.135
344.7286, 2410.692
345.2107, 2411.288
345.6928, 2412.667
346.1749, 2414.922
346.6570, 2417.040
347.1392, 2418.082
347.6213, 2417.968
348.1034, 2417.822
348.5855, 2418.873
349.0676, 2418.861
349.5497, 2415.782
350.0319, 2410.083
350.5140, 2404.177
350.9961, 2399.681
351.4782, 2395.958
351.9603, 2390.056
352.4424, 2380.249
352.9246, 2370.754
353.4067, 2362.324
353.8888, 2355.117
354.3709, 2349.574
354.8530, 2345.913
355.3351, 2343.682
355.8173, 2342.163
356.2994, 2341.708
356.7815, 2341.163
357.2636, 2339.938
357.7457, 2338.865
358.2278, 2338.889
358.7100, 2340.122
359.1921, 2341.795
359.6742, 2343.015
360.1563, 2343.600
360.6384, 2344.966
361.1205, 2346.802
361.6027, 2349.582
362.0848, 2353.653
362.5669, 2358.897
363.0490, 2365.058
363.5311, 2371.997
364.0132, 2379.626
364.4954, 2387.169
364.9775, 2395.116
365.4596, 2402.374
365.9417, 2408.375
366.4238, 2413.630
366.9059, 2418.733
367.3881, 2423.952
367.8702, 2429.309
368.3523, 2434.864
368.8344, 2440.517
369.3165, 2446.571
369.7986, 2453.390
370.2808, 2460.342
370.7629, 2466.800
371.2450, 2472.783
371.7271, 2478.925
372.2092, 2485.840
372.6913, 2493.619
373.1735, 2501.936
373.6556, 2511.438
374.1377, 2520.791
374.6198, 2528.841
375.1019, 2536.404
375.5840, 2544.862
376.0662, 2555.029
376.5483, 2566.952
377.0304, 2580.767
377.5125, 2598.086
377.9946, 2615.031
378.4767, 2630.300
378.9589, 2645.153
379.4410, 2661.164
379.9231, 2678.791
380.4052, 2696.617
380.8873, 2713.031
381.3694, 2728.641
381.8516, 2740.504
382.3337, 2746.916
382.8158, 2750.738
383.2979, 2754.327
383.7800, 2756.990
384.2621, 2755.492
384.7443, 2746.993
385.2264, 2731.771
385.7085, 2712.520
386.1906, 2687.735
386.6727, 2660.708
387.1548, 2631.837
387.6370, 2602.188
388.1191, 2573.591
388.6012, 2546.753
389.0833, 2521.164
389.5654, 2496.005
390.0475, 2471.150
390.5297, 2447.346
391.0118, 2424.847
391.4939, 2403.435
391.9760, 2383.041
392.4581, 2363.638
392.9402, 2345.484
393.4224, 2328.907
393.9045, 2313.802
394.3866, 2299.496
394.8687, 2285.578
395.3508, 2273.053
395.8329, 2262.729
396.3151, 2254.310
396.7972, 2247.094
397.2793, 2241.614
397.7614, 2236.840
398.2435, 2230.996
398.7256, 2223.994
399.2078, 2217.535
399.6899, 2212.830
400.1720, 2209.348
400.6541, 2205.725
401.1362, 2201.715
401.6183, 2197.979
402.1005, 2195.160
402.5826, 2192.957
403.0647, 2190.457
403.5468, 2187.315
404.0289, 2183.985
404.5110, 2180.986
404.9932, 2178.246
405.4753, 2176.117
405.9574, 2175.489
406.4395, 2174.979
406.9216, 2172.932
407.4037, 2169.336
407.8859, 2165.837
408.3680, 2163.735
408.8501, 2162.927
409.3322, 2161.981
409.8143, 2161.485
410.2964, 2160.237
410.7786, 2157.269
411.2607, 2153.369
411.7428, 2149.795
412.2249, 2147.079
412.7070, 2145.075
413.1891, 2143.544
413.6713, 2142.977
414.1534, 2142.048
414.6355, 2140.435
415.1176, 2138.725
415.5997, 2137.563
416.0818, 2136.842
416.5640, 2135.764
417.0461, 2133.515
417.5282, 2130.074
418.0103, 2127.184
418.4924, 2125.077
418.9745, 2123.297
419.4567, 2121.938
419.9388, 2120.781
420.4209, 2119.513
420.9030, 2118.000
421.3851, 2116.390
421.8672, 2114.949
422.3494, 2113.527
422.8315, 2112.664
423.3136, 2113.020
423.7957, 2113.435
424.2778, 2113.336
424.7599, 2112.633
425.2421, 2111.404
425.7242, 2109.540
426.2063, 2107.120
426.6884, 2105.018
427.1705, 2103.537
427.6526, 2101.872
428.1348, 2099.431
428.6169, 2096.675
429.0990, 2094.226
429.5811, 2092.279
430.0632, 2090.767
430.5453, 2089.790
431.0275, 2089.369
431.5096, 2088.660
431.9917, 2087.164
432.4738, 2085.560
432.9559, 2084.558
433.4380, 2084.151
433.9202, 2083.906
434.4023, 2084.216
434.8844, 2084.374
435.3665, 2082.807
435.8486, 2079.201
436.3307, 2075.429
436.8129, 2072.655
437.2950, 2070.874
437.7771, 2069.755
438.2592, 2070.320
438.7413, 2070.412
439.2234, 2068.171
439.7056, 2064.569
440.1877, 2062.169
440.6698, 2062.053
441.1519, 2062.797
441.6340, 2062.008
442.1161, 2058.987
442.5983, 2056.463
443.0804, 2054.840
443.5625, 2053.563
444.0446, 2052.077
444.5267, 2050.475
445.0089, 2049.356
445.4910, 2049.248
445.9731, 2050.020
446.4552, 2050.377
446.9373, 2050.687
447.4194, 2050.117
447.9016, 2047.534
448.3837, 2044.464
448.8658, 2042.672
449.3479, 2042.653
449.8300, 2043.505
450.3121, 2044.086
450.7943, 2044.521
451.2764, 2044.203
451.7585, 2042.361
452.2406, 2040.462
452.7227, 2039.067
453.2048, 2038.065
453.6870, 2037.058
454.1691, 2035.714
454.6512, 2034.349
455.1333, 2033.933
455.6154, 2034.920
456.0975, 2035.496
456.5797, 2034.906
457.0618, 2033.771
457.5439, 2032.294
458.0260, 2030.521
458.5081, 2029.096
458.9902, 2028.931
459.4724, 2029.573
459.9545, 2029.168
460.4366, 2027.098
460.9187, 2025.179
461.4008, 2025.353
461.8829, 2026.754
462.3651, 2027.236
462.8472, 2026.103
463.3293, 2024.305
463.8114, 2022.029
464.2935, 2019.576
464.7756, 2018.231
465.2578, 2018.709
465.7399, 2019.870
466.2220, 2019.806
466.7041, 2018.366
467.1862, 2016.460
467.6683, 2013.820
468.1505, 2010.995
468.6326, 2008.187
469.1147, 2005.544
469.5968, 2003.660
470.0789, 2003.112
470.5610, 2003.540
471.0432, 2002.567
471.5253, 1998.544
472.0074, 1995.105
472.4895, 1993.021
472.9716, 1991.493
473.4537, 1989.839
473.9359, 1987.857
474.4180, 1985.600
474.9001, 1983.084
475.3822, 1980.276
475.8643, 1977.646
476.3464, 1975.981
476.8286, 1973.634
477.3107, 1969.167
477.7928, 1963.883
478.2749, 1960.062
478.7570, 1958.931
479.2391, 1958.854
479.7213, 1956.978
480.2034, 1953.017
480.6855, 1949.642
481.1676, 1948.012
481.6497, 1946.558
482.1318, 1943.671
482.6140, 1939.558
483.0961, 1936.095
483.5782, 1934.471
484.0603, 1933.902
484.5424, 1933.368
485.0245, 1932.851
485.5067, 1931.841
485.9888, 1929.959
486.4709, 1927.430
486.9530, 1924.903
487.4351, 1922.329
487.9172, 1919.874
488.3994, 1917.453
488.8815, 1915.238
489.3636, 1913.637
489.8457, 1912.686
490.3278, 1911.702
490.8099, 1909.874
491.2921, 1907.128
491.7742, 1905.724
492.2563, 1907.301
492.7384, 1908.122
493.2205, 1906.377
493.7026, 1903.405
494.1848, 1901.252
494.6669, 1900.655
495.1490, 1900.574
495.6311, 1899.222
496.1132, 1895.974
496.5953, 1893.491
497.0775, 1892.502
497.5596, 1891.586
498.0417, 1890.101
498.5238, 1888.250
499.0059, 1886.551
499.4880, 1885.263
499.9702, 1884.275
500.4523, 1883.585
500.9344, 1883.360
501.4165, 1882.286
501.8986, 1879.203
502.3807, 1875.810
502.8629, 1873.922
503.3450, 1873.502
503.8271, 1872.690
504.3092, 1869.997
504.7913, 1866.632
505.2734, 1864.526
505.7556, 1863.783
506.2377, 1863.506
506.7198, 1863.478
507.2019, 1863.386
507.6840, 1862.166
508.1661, 1858.880
508.6482, 1856.416
509.1303, 1856.466
509.6125, 1857.251
510.0946, 1856.432
510.5767, 1853.794
511.0588, 1851.204
511.5409, 1850.508
512.0231, 1851.685
512.5052, 1851.708
512.9873, 1849.352
513.4694, 1847.268
513.9515, 1846.055
514.4337, 1845.324
514.9158, 1844.797
515.3979, 1844.325
515.8800, 1843.541
516.3621, 1841.686
516.8442, 1838.574
517.3264, 1836.508
517.8085, 1836.445
518.2906, 1836.208
518.7727, 1834.624
519.2548, 1832.284
519.7369, 1830.207
520.2191, 1828.801
520.7012, 1827.579
521.1833, 1825.721
521.6654, 1823.400
522.1475, 1822.168
522.6296, 1822.859
523.1118, 1823.791
523.5939, 1822.839
524.0760, 1820.292
524.5581, 1818.207
525.0402, 1817.506
525.5223, 1816.857
526.0045, 1815.317
526.4866, 1813.040
526.9687, 1810.430
527.4508, 1807.629
527.9329, 1804.863
528.4150, 1802.534
528.8972, 1800.562
529.3793, 1799.339
529.8614, 1799.696
530.3435, 1799.996
530.8256, 1799.402
531.3077, 1797.975
531.7899, 1795.988
532.2720, 1793.531
532.7541, 1790.919
533.2362, 1789.083
533.7183, 1788.427
534.2004, 1787.367
534.6826, 1785.162
535.1647, 1782.841
535.6468, 1781.149
536.1289, 1779.953
536.6110, 1778.500
537.0931, 1776.100
537.5753, 1773.288
538.0574, 1771.113
538.5395, 1769.596
539.0216, 1768.148
539.5037, 1766.400
539.9858, 1764.719
540.4680, 1763.887
540.9501, 1764.130
541.4322, 1763.804
541.9143, 1762.106
542.3964, 1759.864
542.8785, 1757.741
543.3607, 1755.846
543.8428, 1754.249
544.3249, 1753.033
544.8070, 1752.101
545.2891, 1751.082
545.7712, 1750.098
546.2534, 1748.837
546.7355, 1747.080
547.2176, 1745.216
547.6997, 1743.591
548.1818, 1742.168
548.6639, 1740.565
549.1461, 1738.414
549.6282, 1735.912
550.1103, 1734.010
550.5924, 1732.947
551.0745, 1731.816
551.5566, 1730.158
552.0388, 1728.412
552.5209, 1726.777
553.0030, 1725.300
553.4851, 1724.342
553.9672, 1724.761
554.4493, 1725.606
554.9315, 1725.058
555.4136, 1723.029
555.8957, 1720.626
556.3778, 1718.379
556.8599, 1716.240
557.3420, 1714.078
557.8242, 1711.753
558.3063, 1709.747
558.7884, 1708.236
559.2705, 1707.038
559.7526, 1706.047
560.2347, 1705.224
560.7169, 1704.538
561.1990, 1703.998
561.6811, 1703.507
562.1632, 1702.649
562.6453, 1701.105
563.1274, 1699.681
563.6096, 1698.738
564.0917, 1697.698
564.5738, 1695.956
565.0559, 1693.620
565.5380, 1691.464
566.0201, 1690.214
566.5023, 1689.458
566.9844, 1688.007
567.4665, 1685.721
567.9486, 1683.723
568.4307, 1682.784
568.9128, 1682.094
569.3950, 1680.342
569.8771, 1677.392
570.3592, 1675.111
570.8413, 1674.673
571.3234, 1674.828
571.8055, 1674.423
572.2877, 1673.414
572.7698, 1671.955
573.2519, 1670.041
573.7340, 1668.006
574.2161, 1666.765
574.6982, 1667.119
575.1804, 1666.830
575.6625, 1665.347
576.1446, 1663.720
576.6267, 1662.585
577.1088, 1661.849
577.5909, 1661.098
578.0731, 1660.089
578.5552, 1658.913
579.0373, 1657.721
579.5194, 1656.462
580.0015, 1655.498
580.4836, 1655.398
580.9658, 1655.086
581.4479, 1653.563
581.9300, 1651.095
582.4121, 1648.839
582.8942, 1647.094
583.3763, 1645.849
583.8585, 1645.478
584.3406, 1645.690
584.8227, 1645.296
585.3048, 1643.827
585.7869, 1641.942
586.2690, 1640.482
586.7512, 1639.463
587.2333, 1638.964
587.7154, 1639.763
588.1975, 1640.218
588.6796, 1639.582
589.1617, 1638.157
589.6438, 1636.370
590.1259, 1634.413
590.6080, 1632.434
591.0901, 1630.387
591.5723, 1628.104
592.0544, 1627.470
592.5365, 1629.785
593.0186, 1631.859
593.5007, 1632.076
593.9828, 1631.162
594.4650, 1630.114
594.9471, 1629.103
595.4292, 1628.211
595.9113, 1627.730
596.3934, 1627.389
596.8755, 1626.444
597.3577, 1624.767
597.8398, 1623.094
598.3219, 1622.054
598.8040, 1621.523
599.2861, 1620.587
599.7682, 1618.678
600.2504, 1617.215
600.7325, 1616.539
601.2146, 1616.343
601.6967, 1616.756
602.1788, 1617.492
602.6609, 1617.460
603.1431, 1615.571
603.6252, 1612.440
604.1073, 1610.956
604.5894, 1611.855
605.0715, 1612.458
605.5536, 1611.625
606.0358, 1610.602
606.5179, 1610.403
607.0000, 1610.956
607.4821, 1611.310
607.9642, 1610.638
608.4464, 1609.766
608.9285, 1610.031
609.4106, 1611.171
609.8927, 1611.455
610.3748, 1610.036
610.8569, 1608.116
611.3391, 1607.539
611.8212, 1608.798
612.3033, 1609.538
612.7854, 1609.016
613.2675, 1608.793
613.7496, 1609.728
614.2318, 1611.391
614.7139, 1613.213
615.1960, 1614.955
615.6781, 1616.246
616.1602, 1616.311
616.6423, 1615.064
617.1245, 1614.605
617.6066, 1615.433
618.0887, 1616.227
618.5708, 1616.678
619.0529, 1616.574
619.5350, 1615.423
620.0172, 1612.912
620.4993, 1610.348
620.9814, 1608.483
621.4635, 1607.025
621.9456, 1605.523
622.4277, 1603.936
622.9099, 1602.485
623.3920, 1601.394
623.8741, 1600.444
624.3562, 1598.865
624.8383, 1595.906
625.3204, 1593.411
625.8026, 1591.744
626.2847, 1590.221
626.7668, 1588.437
627.2489, 1586.404
627.7310, 1584.238
628.2131, 1581.914
628.6953, 1579.738
629.1774, 1578.343
629.6595, 1577.767
630.1416, 1577.141
630.6237, 1576.565
631.1058, 1575.478
631.5880, 1572.957
632.0701, 1569.449
632.5522, 1566.366
633.0343, 1563.982
633.5164, 1561.987
633.9985, 1560.193
634.4807, 1558.695
634.9628, 1557.841
635.4449, 1557.610
635.9270, 1557.243
636.4091, 1555.998
636.8912, 1553.980
637.3734, 1552.380
637.8555, 1551.622
638.3376, 1550.604
638.8197, 1549.078
639.3018, 1547.324
639.7839, 1545.365
640.2661, 1543.331
640.7482, 1541.657
641.2303, 1540.800
641.7124, 1540.321
642.1945, 1539.506
642.6766, 1538.388
643.1588, 1537.410
643.6409, 1536.798
644.1230, 1536.142
644.6051, 1534.833
645.0872, 1532.746
645.5693, 1531.194
646.0515, 1530.642
646.5336, 1530.105
647.0157, 1529.295
647.4978, 1528.230
647.9799, 1526.627
648.4620, 1524.583
648.9442, 1523.176
649.4263, 1523.915
649.9084, 1526.445
650.3905, 1527.196
650.8726, 1525.505
651.3547, 1523.804
651.8369, 1522.843
652.3190, 1522.352
652.8011, 1522.270
653.2832, 1522.592
653.7653, 1522.418
654.2474, 1520.767
654.7296, 1518.966
655.2117, 1518.435
655.6938, 1518.853
656.1759, 1519.119
656.6580, 1518.805
657.1401, 1518.121
657.6223, 1517.307
658.1044, 1516.259
658.5865, 1515.688
659.0686, 1516.049
659.5507, 1516.388
660.0328, 1516.447
660.5150, 1516.375
660.9971, 1516.258
661.4792, 1516.136
661.9613, 1516.290
662.4434, 1517.065
662.9255, 1518.246
663.4077, 1519.381
663.8898, 1520.454
664.3719, 1521.410
664.8540, 1522.220
665.3361, 1522.905
665.8182, 1523.368
666.3004, 1523.275
666.7825, 1524.281
667.2646, 1527.071
667.7467, 1530.306
668.2288, 1533.455
668.7109, 1536.567
669.1931, 1539.712
669.6752, 1542.954
670.1573, 1546.520
670.6394, 1550.924
671.1215, 1556.071
671.6036, 1560.441
672.0858, 1563.810
672.5679, 1566.976
673.0500, 1569.575
673.5321, 1572.629
674.0142, 1577.749
674.4963, 1585.213
674.9785, 1592.751
675.4606, 1600.406
675.9427, 1607.248
676.4248, 1611.447
676.9069, 1614.226
677.3890, 1618.880
677.8712, 1626.720
678.3533, 1635.664
678.8354, 1642.566
679.3175, 1647.116
679.7996, 1652.565
680.2817, 1658.971
680.7639, 1666.281
681.2460, 1675.366
681.7281, 1684.790
682.2102, 1692.801
682.6923, 1699.183
683.1744, 1705.768
683.6566, 1714.458
684.1387, 1723.370
684.6208, 1729.936
685.1029, 1734.465
685.5850, 1739.157
686.0671, 1744.989
686.5493, 1750.686
687.0314, 1754.440
687.5135, 1756.266
687.9956, 1756.018
688.4777, 1752.886
688.9598, 1748.551
689.4420, 1743.328
689.9241, 1737.140
690.4062, 1730.012
690.8883, 1721.902
691.3704, 1712.443
691.8525, 1701.293
692.3347, 1688.658
692.8168, 1673.962
693.2989, 1657.417
693.7810, 1642.363
694.2631, 1630.254
694.7452, 1619.401
695.2274, 1607.359
695.7095, 1593.697
696.1916, 1581.472
696.6737, 1571.413
697.1558, 1561.834
697.6379, 1551.894
698.1201, 1542.345
698.6022, 1534.212
699.0843, 1527.550
699.5664, 1521.442
700.0485, 1514.968
700.5306, 1508.554
701.0128, 1503.899
701.4949, 1501.100
701.9770, 1496.830
702.4591, 1489.347
702.9412, 1481.422
703.4233, 1476.589
703.9055, 1475.044
704.3876, 1472.689
704.8697, 1468.644
705.3518, 1464.748
705.8339, 1461.788
706.3160, 1459.239
706.7982, 1456.581
707.2803, 1453.691
707.7624, 1450.614
708.2445, 1447.327
708.7266, 1443.979
709.2087, 1441.125
709.6909, 1438.836
710.1730, 1436.278
710.6551, 1433.102
711.1372, 1429.858
711.6193, 1427.125
712.1014, 1424.803
712.5836, 1422.307
713.0657, 1419.443
713.5478, 1416.581
714.0299, 1413.942
714.5120, 1411.307
714.9941, 1408.183
715.4763, 1404.723
715.9584, 1401.802
716.4405, 1400.036
716.9226, 1399.011
717.4047, 1397.866
717.8868, 1396.618
718.3690, 1395.007
718.8511, 1392.886
719.3332, 1390.583
719.8153, 1387.877
720.2974, 1385.229
720.7795, 1383.966
721.2617, 1385.222
721.7438, 1385.712
722.2259, 1383.985
722.7080, 1381.249
723.1901, 1378.190
723.6722, 1375.169
724.1544, 1372.767
724.6365, 1371.305
725.1186, 1370.395
725.6007, 1369.481
726.0828, 1368.597
726.5649, 1367.286
727.0471, 1365.376
727.5292, 1363.348
728.0113, 1361.100
728.4934, 1359.035
728.9755, 1357.968
729.4576, 1358.257
729.9398, 1357.913
730.4219, 1355.758
730.9040, 1353.302
731.3861, 1351.522
731.8682, 1350.422
732.3503, 1349.982
732.8325, 1350.147
733.3146, 1350.390
733.7967, 1350.084
734.2788, 1349.248
734.7609, 1348.117
735.2430, 1346.569
735.7252, 1345.099
736.2073, 1343.839
736.6894, 1342.781
737.1715, 1342.067
737.6536, 1341.669
738.1357, 1340.775
738.6179, 1338.501
739.1000, 1336.462
739.5821, 1335.955
740.0642, 1336.028
740.5463, 1335.031
741.0284, 1332.849
741.5106, 1331.065
741.9927, 1331.229
742.4748, 1332.456
742.9569, 1331.473
743.4390, 1327.751
743.9211, 1325.135
744.4033, 1324.732
744.8854, 1325.027
745.3675, 1324.900
745.8496, 1324.480
746.3317, 1324.227
746.8138, 1324.803
747.2960, 1324.543
747.7781, 1322.324
748.2602, 1319.499
748.7423, 1316.997
749.2244, 1315.088
749.7065, 1314.175
750.1887, 1314.511
750.6708, 1315.322
751.1529, 1315.344
751.6350, 1314.601
752.1171, 1314.018
752.5992, 1313.732
753.0814, 1313.304
753.5635, 1312.390
754.0456, 1311.251
754.5277, 1310.437
755.0098, 1310.032
755.4919, 1309.487
755.9741, 1308.485
756.4562, 1307.570
756.9383, 1307.333
757.4204, 1307.250
757.9025, 1306.292
758.3846, 1304.328
758.8668, 1302.585
759.3489, 1302.388
759.8310, 1303.207
760.3131, 1303.592
760.7952, 1303.545
761.2773, 1302.847
761.7595, 1301.191
762.2416, 1299.503
762.7237, 1298.892
763.2058, 1299.306
763.6879, 1298.870
764.1700, 1296.471
764.6522, 1294.805
765.1343, 1295.515
765.6164, 1296.187
766.0985, 1294.270
766.5806, 1290.518
767.0627, 1287.774
767.5449, 1287.616
768.0270, 1288.335
768.5091, 1287.917
768.9912, 1286.670
769.4733, 1285.716
769.9554, 1285.195
770.4376, 1284.449
770.9197, 1283.085
771.4018, 1281.276
771.8839, 1279.353
772.3660, 1276.979
772.8481, 1275.461
773.3303, 1275.485
773.8124, 1275.514
774.2945, 1274.830
774.7766, 1273.965
775.2587, 1273.813
775.7408, 1274.448
776.2230, 1274.580
776.7051, 1272.861
777.1872, 1270.634
777.6693, 1269.677
778.1514, 1269.594
778.6335, 1269.009
779.1157, 1267.562
779.5978, 1266.101
780.0799, 1265.486
780.5620, 1265.568
781.0441, 1265.343
781.5262, 1264.729
782.0084, 1263.992
782.4905, 1263.107
782.9726, 1262.164
783.4547, 1261.113
783.9368, 1260.049
784.4189, 1259.273
784.9011, 1259.066
785.3832, 1258.582
785.8653, 1257.278
786.3474, 1255.594
786.8295, 1253.582
787.3116, 1251.614
787.7938, 1250.756
788.2759, 1251.469
788.7580, 1252.629
789.2401, 1252.626
789.7222, 1251.514
790.2043, 1250.422
790.6865, 1249.259
791.1686, 1248.577
791.6507, 1249.069
792.1328, 1249.591
792.6149, 1248.312
793.0970, 1245.221
793.5792, 1243.325
794.0613, 1243.917
794.5434, 1244.335
795.0255, 1243.647
795.5076, 1242.463
795.9897, 1241.173
796.4719, 1239.968
796.9540, 1239.148
797.4361, 1238.916
797.9182, 1239.025
798.4003, 1239.266
798.8824, 1239.570
799.3646, 1239.908
799.8467, 1240.293
800.3288, 1239.379
800.8109, 1235.995
801.2930, 1231.638
801.7751, 1229.636
802.2573, 1230.880
802.7394, 1231.481
803.2215, 1230.975
803.7036, 1230.329
804.1857, 1229.960
804.6678, 1229.477
805.1500, 1228.213
805.6321, 1226.195
806.1142, 1224.618
806.5963, 1224.529
807.0784, 1224.655
807.5605, 1223.515
808.0427, 1221.946
808.5248, 1221.872
809.0069, 1223.424
809.4890, 1224.790
809.9711, 1224.603
810.4532, 1223.367
810.9354, 1222.424
811.4175, 1221.865
811.8996, 1220.861
812.3817, 1218.959
812.8638, 1217.434
813.3459, 1217.166
813.8281, 1217.684
814.3102, 1218.142
814.7923, 1218.773
815.2744, 1218.373
815.7565, 1215.565
816.2386, 1212.976
816.7208, 1212.153
817.2029, 1212.270
817.6850, 1212.244
818.1671, 1211.821
818.6492, 1211.228
819.1313, 1210.536
819.6135, 1209.887
820.0956, 1209.704
820.5777, 1209.816
821.0598, 1209.327
821.5419, 1208.043
822.0240, 1206.655
822.5062, 1205.632
822.9883, 1204.950
823.4704, 1204.600
823.9525, 1205.030
824.4346, 1204.682
824.9167, 1202.728
825.3989, 1200.974
825.8810, 1200.408
826.3631, 1200.322
826.8452, 1199.760
827.3273, 1198.595
827.8094, 1197.402
828.2916, 1196.520
828.7737, 1195.564
829.2558, 1193.873
829.7379, 1192.079
830.2200, 1191.323
830.7021, 1191.701
831.1843, 1192.377
831.6664, 1192.808
832.1485, 1192.897
832.6306, 1192.199
833.1127, 1190.769
833.5948, 1189.972
834.0770, 1190.130
834.5591, 1190.121
835.0412, 1189.078
835.5233, 1187.573
836.0054, 1187.072
836.4875, 1188.205
836.9697, 1188.485
837.4518, 1187.034
837.9339, 1185.827
838.4160, 1185.762
838.8981, 1186.104
839.3802, 1186.160
839.8624, 1185.815
840.3445, 1185.088
840.8266, 1183.774
841.3087, 1182.347
841.7908, 1181.007
842.2729, 1179.920
842.7551, 1179.458
843.2372, 1179.593
843.7193, 1179.978
844.2014, 1180.444
844.6835, 1180.736
845.1656, 1180.390
845.6478, 1179.402
846.1299, 1177.807
846.6120, 1175.344
847.0941, 1173.315
847.5762, 1172.389
848.0583, 1172.012
848.5405, 1171.452
849.0226, 1170.689
849.5047, 1169.813
849.9868, 1168.611
850.4689, 1167.565
850.9510, 1166.977
851.4332, 1166.420
851.9153, 1165.259
852.3974, 1163.812
852.8795, 1163.220
853.3616, 1164.294
853.8438, 1165.107
854.3259, 1163.802
854.8080, 1161.518
855.2901, 1159.788
855.7722, 1158.642
856.2543, 1157.552
856.7365, 1156.310
857.2186, 1155.189
857.7007, 1154.562
858.1828, 1154.353
858.6649, 1153.996
859.1470, 1153.473
859.6292, 1152.942
860.1113, 1152.523
860.5934, 1151.917
861.0755, 1150.685
861.5576, 1149.041
862.0397, 1148.114
862.5219, 1148.654
863.0040, 1148.640
863.4861, 1147.450
863.9682, 1146.267
864.4503, 1145.793
864.9324, 1145.669
865.4146, 1145.250
865.8967, 1144.418
866.3788, 1143.779
866.8609, 1143.995
867.3430, 1144.273
867.8251, 1143.699
868.3073, 1142.661
868.7894, 1142.028
869.2715, 1141.873
869.7536, 1141.533
870.2357, 1140.513
870.7178, 1139.128
871.2000, 1138.029
871.6821, 1137.209
872.1642, 1136.209
872.6463, 1134.921
873.1284, 1133.886
873.6105, 1133.434
874.0927, 1133.254
874.5748, 1132.877
875.0569, 1132.274
875.5390, 1131.753
876.0211, 1131.578
876.5032, 1131.143
876.9854, 1129.985
877.4675, 1128.856
877.9496, 1128.500
878.4317, 1128.651
878.9138, 1128.433
879.3959, 1127.534
879.8781, 1126.470
880.3602, 1125.195
880.8423, 1124.140
881.3244, 1124.117
881.8065, 1124.561
882.2886, 1124.180
882.7708, 1122.617
883.2529, 1120.608
883.7350, 1118.622
884.2171, 1116.861
884.6992, 1115.816
885.1813, 1115.448
885.6635, 1115.679
886.1456, 1116.544
886.6277, 1117.067
887.1098, 1116.505
887.5919, 1115.267
888.0740, 1114.416
888.5562, 1114.102
889.0383, 1113.629
889.5204, 1113.044
890.0025, 1112.214
890.4846, 1110.723
890.9667, 1109.221
891.4489, 1108.378
891.9310, 1108.172
892.4131, 1108.260
892.8952, 1109.357
893.3773, 1109.731
893.8594, 1108.052
894.3416, 1106.143
894.8237, 1105.498
895.3058, 1105.882
895.7879, 1106.603
896.2700, 1107.451
896.7521, 1107.797
897.2343, 1106.925
897.7164, 1105.397
898.1985, 1104.001
898.6806, 1102.642
899.1627, 1100.583
899.6448, 1097.829
900.1270, 1096.029
900.6091, 1096.747
901.0912, 1098.862
901.5733, 1099.354
902.0554, 1098.191
902.5375, 1097.338
903.0197, 1097.054
903.5018, 1096.646
903.9839, 1095.631
904.4660, 1094.557
904.9481, 1094.448
905.4302, 1095.505
905.9124, 1095.531
906.3945, 1093.354
906.8766, 1091.839
907.3587, 1092.042
907.8408, 1092.477
908.3229, 1091.972
908.8051, 1090.886
909.2872, 1090.263
909.7693, 1090.373
910.2514, 1090.705
910.7335, 1091.623
911.2156, 1092.147
911.6978, 1091.283
912.1799, 1089.661
912.6620, 1088.212
913.1441, 1087.164
913.6262, 1086.378
914.1083, 1085.756
914.5905, 1085.349
915.0726, 1085.589
915.5547, 1086.014
916.0368, 1085.097
916.5189, 1082.980
917.0010, 1081.762
917.4832, 1082.537
917.9652, 1083.858
918.4473, 1083.544
918.9294, 1081.771
919.4116, 1080.281
919.8937, 1079.018
920.3758, 1078.637
920.8579, 1079.619
921.3400, 1080.624
921.8221, 1080.495
922.3043, 1079.536
922.7864, 1078.913
923.2685, 1078.755
923.7506, 1078.631
924.2327, 1078.791
924.7148, 1078.674
925.1970, 1077.828
925.6791, 1076.791
926.1612, 1076.319
926.6433, 1076.351
927.1254, 1075.820
927.6075, 1073.635
928.0897, 1071.961
928.5718, 1072.129
929.0539, 1072.698
929.5360, 1072.216
930.0181, 1071.162
930.5002, 1071.049
930.9824, 1072.321
931.4645, 1073.163
931.9466, 1071.498
932.4287, 1069.144
932.9108, 1068.596
933.3929, 1069.112
933.8751, 1068.778
934.3572, 1067.401
934.8393, 1066.299
935.3214, 1066.350
935.8035, 1066.883
936.2856, 1066.812
936.7678, 1066.180
937.2499, 1065.231
937.7320, 1063.969
938.2141, 1062.688
938.6962, 1061.474
939.1783, 1060.409
939.6605, 1059.598
940.1426, 1059.022
940.6247, 1058.535
941.1068, 1058.070
941.5889, 1057.952
942.0710, 1058.524
942.5532, 1058.913
943.0353, 1058.634
943.5174, 1057.945
943.9995, 1057.152
944.4816, 1056.210
944.9637, 1055.657
945.4459, 1056.094
945.9280, 1056.123
946.4101, 1054.795
946.8922, 1053.529
947.3743, 1053.964
947.8564, 1055.156
948.3386, 1054.625
948.8207, 1051.446
949.3028, 1048.919
949.7849, 1049.151
950.2670, 1049.947
950.7491, 1049.653
951.2313, 1048.914
951.7134, 1048.914
952.1955, 1049.594
952.6776, 1049.860
953.1597, 1049.061
953.6418, 1047.849
954.1240, 1046.857
954.6061, 1045.982
955.0882, 1044.944
955.5703, 1043.836
956.0524, 1043.038
956.5345, 1042.667
957.0167, 1042.484
957.4988, 1042.293
957.9809, 1042.099
958.4630, 1041.933
958.9451, 1041.789
959.4272, 1041.447
959.9094, 1040.870
960.3915, 1040.492
960.8736, 1040.575
961.3557, 1040.733
961.8378, 1040.357
962.3199, 1039.478
962.8021, 1039.099
963.2842, 1039.522
963.7663, 1039.451
964.2484, 1038.545
964.7305, 1037.327
965.2126, 1035.994
965.6948, 1034.653
966.1769, 1033.576
966.6590, 1032.820
967.1411, 1032.098
967.6232, 1031.094
968.1053, 1030.541
968.5875, 1030.984
969.0696, 1031.593
969.5517, 1031.861
970.0338, 1031.737
970.5159, 1031.115
970.9980, 1029.729
971.4802, 1028.616
971.9623, 1028.325
972.4444, 1028.113
972.9265, 1027.347
973.4086, 1026.539
973.8907, 1026.634
974.3729, 1027.427
974.8550, 1027.527
975.3371, 1026.091
975.8192, 1024.431
976.3013, 1023.417
976.7834, 1022.749
977.2656, 1022.307
977.7477, 1021.877
978.2298, 1020.956
978.7119, 1019.508
979.1940, 1018.181
979.6761, 1017.510
980.1583, 1017.099
980.6404, 1016.445
981.1225, 1015.581
981.6046, 1014.437
982.0867, 1013.121
982.5688, 1012.205
983.0510, 1011.905
983.5331, 1011.708
984.0152, 1010.882
984.4973, 1009.865
984.9794, 1010.475
985.4615, 1012.517
985.9437, 1013.223
986.4258, 1012.147
986.9079, 1010.929
987.3900, 1010.423
987.8721, 1010.301
988.3542, 1010.098
988.8364, 1009.802
989.3185, 1009.187
989.8006, 1008.080
990.2827, 1007.507
990.7648, 1007.854
991.2469, 1008.263
991.7291, 1008.234
992.2112, 1007.832
992.6933, 1007.175
993.1754, 1006.246
993.6575, 1005.220
994.1396, 1003.970
994.6218, 1002.890
995.1039, 1002.149
995.5860, 1001.535
996.0681, 1000.798
996.5502, 1000.085
997.0323, 999.8675
997.5145, 1000.466
997.9966, 1000.583
998.4787, 999.8420
998.9608, 998.9691
999.4429, 998.1288
999.9250, 997.2926
1000.407, 996.0984
1000.889, 994.8680
1001.371, 994.8024
1001.854, 996.7196
1002.336, 998.0080
1002.818, 997.4168
1003.300, 996.4864
1003.782, 996.1859
1004.264, 995.9959
1004.746, 994.9576
1005.228, 993.3192
1005.710, 992.5410
1006.193, 993.4624
1006.675, 994.4622
1007.157, 994.6513
1007.639, 994.4154
1008.121, 993.9504
1008.603, 993.3800
1009.085, 992.8138
1009.567, 992.3032
1010.049, 991.9598
1010.532, 991.8940
1011.014, 991.8594
1011.496, 991.6505
1011.978, 991.3021
1012.460, 990.9027
1012.942, 990.3999
1013.424, 989.4832
1013.906, 988.1943
1014.389, 987.3022
1014.871, 987.4793
1015.353, 988.0587
1015.835, 988.1361
1016.317, 987.8630
1016.799, 987.6536
1017.281, 987.4596
1017.763, 986.8098
1018.245, 985.6022
1018.728, 984.4877
1019.210, 984.0881
1019.692, 984.1136
1020.174, 983.9105
1020.656, 983.5730
1021.138, 983.6143
1021.620, 984.0475
1022.102, 984.5003
1022.585, 984.8304
1023.067, 985.0556
1023.549, 985.1812
1024.031, 985.2316
1024.513, 985.3876
1024.995, 985.6318
1025.477, 985.3398
1025.959, 984.4379
1026.442, 983.0441
1026.924, 981.0305
1027.406, 979.5790
1027.888, 980.2278
1028.370, 982.4838
1028.852, 983.6912
1029.334, 983.7324
1029.816, 983.5714
1030.298, 983.2829
1030.781, 982.7731
1031.263, 981.8646
1031.745, 981.0722
1032.227, 981.1089
1032.709, 981.8455
1033.191, 982.1863
1033.673, 982.0971
1034.155, 981.6678
1034.637, 980.7424
1035.120, 979.8535
1035.602, 979.2310
1036.084, 978.7859
1036.566, 978.5027
1037.048, 978.3469
1037.530, 977.6135
1038.012, 975.4602
1038.494, 974.6914
1038.977, 976.4359
1039.459, 978.0975
1039.941, 978.5283
1040.423, 978.2871
1040.905, 978.0613
1041.387, 977.8380
1041.869, 977.2490
1042.351, 975.8804
1042.833, 974.8281
1043.316, 974.0355
1043.798, 973.6766
1044.280, 974.4135
1044.762, 975.2267
1045.244, 974.5427
1045.726, 972.4976
1046.208, 971.5760
1046.690, 972.8110
1047.172, 973.7276
1047.655, 974.3218
1048.137, 974.3505
1048.619, 973.2621
1049.101, 971.8461
1049.583, 971.0931
1050.065, 970.9726
1050.547, 970.5952
1051.029, 968.7340
1051.512, 968.4405
1051.994, 972.3549
1052.476, 975.4111
1052.958, 974.0350
1053.440, 971.1250
1053.922, 970.5234
1054.404, 971.9902
1054.886, 972.0214
1055.369, 968.7153
1055.851, 966.2460
1056.333, 966.0095
1056.815, 966.3222
1057.297, 966.6180
1057.779, 966.7642
1058.261, 966.4722
1058.743, 965.8973
1059.225, 965.9395
1059.708, 967.5513
1060.190, 968.0908
1060.672, 965.5786
1061.154, 963.1470
1061.636, 962.6096
1062.118, 963.0687
1062.600, 963.5629
1063.082, 963.9818
1063.564, 964.5007
1064.047, 965.3578
1064.529, 965.7509
1065.011, 965.0309
1065.493, 964.1717
1065.975, 963.8347
1066.457, 963.5828
1066.939, 962.6085
1067.421, 961.2343
1067.904, 960.8357
1068.386, 962.1000
1068.868, 963.0011
1069.350, 962.4341
1069.832, 961.5888
1070.314, 961.1088
1070.796, 960.7523
1071.278, 960.1469
1071.760, 959.4113
1072.243, 959.0028
1072.725, 959.1015
1073.207, 959.1487
1073.689, 958.5704
1074.171, 958.2703
1074.653, 959.1730
1075.135, 960.2822
1075.617, 960.5916
1076.099, 960.2289
1076.582, 959.6945
1077.064, 959.1029
1077.546, 958.6135
1078.028, 958.1711
1078.510, 958.0018
1078.992, 958.9169
1079.474, 959.5726
1079.956, 958.0120
1080.439, 955.4040
1080.921, 954.5418
1081.403, 955.9869
1081.885, 956.9717
1082.367, 955.4431
1082.849, 954.2546
1083.331, 955.3660
1083.813, 956.9444
1084.295, 957.5359
1084.778, 957.3769
1085.260, 957.0143
1085.742, 956.5843
1086.224, 956.2302
1086.706, 956.2037
1087.188, 955.9638
1087.670, 955.1719
1088.152, 954.1699
1088.635, 952.9247
1089.117, 951.8118
1089.599, 951.4731
1090.081, 951.8544
1090.563, 952.1063
1091.045, 951.8400
1091.527, 951.6260
1092.009, 952.0327
1092.491, 952.2124
1092.974, 951.2234
1093.456, 949.9394
1093.938, 949.5145
1094.420, 949.8691
1094.902, 950.1292
1095.384, 950.0418
1095.866, 949.8642
1096.348, 949.8365
1096.830, 949.5580
1097.313, 948.4661
1097.795, 947.2852
1098.277, 947.0407
1098.759, 947.3173
1099.241, 946.6164
1099.723, 944.3445
1100.205, 942.8701
1100.687, 944.1144
1101.170, 944.7491
1101.652, 942.7230
1102.134, 940.1836
1102.616, 938.9540
1103.098, 938.5530
1103.580, 937.7469
1104.062, 936.3438
1104.544, 935.0690
1105.026, 934.4651
1105.509, 933.4844
1105.991, 931.3450
1106.473, 929.2532
1106.955, 928.0930
1107.437, 927.3969
1107.919, 926.4919
1108.401, 925.3174
1108.883, 923.9631
1109.365, 921.6414
1109.848, 920.3564
1110.330, 921.5864
1110.812, 922.4738
1111.294, 921.3632
1111.776, 919.5002
1112.258, 918.0687
1112.740, 917.1258
1113.222, 916.7081
1113.705, 917.6472
1114.187, 917.3008
1114.669, 914.0599
1115.151, 911.4858
1115.633, 911.1933
1116.115, 911.4099
1116.597, 910.5975
1117.079, 909.2275
1117.562, 908.6284
1118.044, 909.0674
1118.526, 909.1289
1119.008, 908.5170
1119.490, 908.0497
1119.972, 908.0452
1120.454, 907.9512
1120.936, 907.2408
1121.418, 906.4014
1121.901, 906.3591
1122.383, 907.1359
1122.865, 907.2679
1123.347, 906.3895
1123.829, 905.7738
1124.311, 905.4594
1124.793, 905.6367
1125.275, 906.6216
1125.757, 907.7474
1126.240, 908.3770
1126.722, 908.4183
1127.204, 907.1328
1127.686, 903.9059
1128.168, 902.5358
1128.650, 903.6915
1129.132, 904.4217
1129.614, 903.7506
1130.097, 902.6462
1130.579, 901.7966
1131.061, 901.2772
1131.543, 901.3647
1132.025, 902.0739
1132.507, 902.4683
1132.989, 902.5549
1133.471, 902.2322
1133.953, 901.4397
1134.436, 900.8795
1134.918, 901.0070
1135.400, 901.2017
1135.882, 900.5006
1136.364, 899.1674
1136.846, 898.3134
1137.328, 897.9012
1137.810, 897.5502
1138.292, 897.2375
1138.775, 897.3879
1139.257, 898.1431
1139.739, 898.5809
1140.221, 897.7469
1140.703, 896.3657
1141.185, 895.7980
1141.667, 895.8727
1142.149, 896.1942
1142.632, 896.6879
1143.114, 897.3275
1143.596, 898.0198
1144.078, 898.3035
1144.560, 897.8984
1145.042, 897.0912
1145.524, 896.0754
1146.006, 894.9924
1146.489, 893.9658
1146.971, 893.0847
1147.453, 892.6214
1147.935, 892.4748
1148.417, 892.2938
1148.899, 891.9378
1149.381, 891.2482
1149.863, 889.6215
1150.345, 888.3049
1150.828, 888.8134
1151.310, 889.9309
1151.792, 890.4787
1152.274, 890.4590
1152.756, 889.9813
1153.238, 889.1633
1153.720, 888.3582
1154.202, 887.6255
1154.684, 887.1697
1155.167, 887.2286
1155.649, 887.4344
1156.131, 887.6229
1156.613, 887.7692
1157.095, 887.8901
1157.577, 887.9521
1158.059, 887.7841
1158.541, 887.2800
1159.024, 887.2220
1159.506, 888.6713
1159.988, 889.3541
1160.470, 887.6741
1160.952, 886.0823
1161.434, 886.6990
1161.916, 887.9852
1162.398, 887.5196
1162.880, 885.3471
1163.363, 883.6191
1163.845, 882.2386
1164.327, 881.5259
1164.809, 881.6400
1165.291, 882.1951
1165.773, 883.4785
1166.255, 884.5600
1166.737, 884.5948
1167.219, 883.9205
1167.702, 883.3601
1168.184, 882.9041
1168.666, 882.7039
1169.148, 882.9542
1169.630, 882.4023
1170.112, 880.6403
1170.594, 878.9949
1171.076, 878.0761
1171.559, 877.9379
1172.041, 878.8504
1172.523, 880.3361
1173.005, 880.4102
1173.487, 879.2095
1173.969, 878.3652
1174.451, 877.9885
1174.933, 878.1730
1175.416, 878.9012
1175.898, 879.3295
1176.380, 878.8293
1176.862, 878.0687
1177.344, 878.0673
1177.826, 878.5083
1178.308, 878.8050
1178.790, 878.8995
1179.272, 878.5214
1179.755, 877.8019
1180.237, 877.3306
1180.719, 877.3064
1181.201, 877.3643
1181.683, 877.2856
1182.165, 877.0748
1182.647, 876.7723
1183.129, 876.3096
1183.611, 875.2764
1184.094, 874.2037
1184.576, 874.1934
1185.058, 875.0801
1185.540, 875.5856
1186.022, 875.2860
1186.504, 874.5162
1186.986, 872.7596
1187.468, 871.4185
1187.951, 871.4724
1188.433, 871.9339
1188.915, 871.8440
1189.397, 871.6360
1189.879, 872.4941
1190.361, 874.4813
1190.843, 875.2001
1191.325, 873.4102
1191.807, 872.0156
1192.290, 871.0672
1192.772, 870.6806
1193.254, 871.2994
1193.736, 871.9716
1194.218, 871.9471
1194.700, 871.2994
1195.182, 870.0977
1195.664, 868.2358
1196.146, 867.2428
1196.629, 867.3286
1197.111, 867.0641
1197.593, 866.1333
1198.075, 865.5259
1198.557, 865.7506
1199.039, 866.2305
1199.521, 866.3530
1200.003, 866.1970
1200.486, 866.0231
1200.968, 865.7695
1201.450, 864.8668
1201.932, 863.5112
1202.414, 862.9783
1202.896, 863.4169
1203.378, 863.7902
1203.860, 863.5338
1204.343, 863.0348
1204.825, 862.7342
1205.307, 862.3906
1205.789, 861.4352
1206.271, 860.3894
1206.753, 860.1513
1207.235, 860.4426
1207.717, 860.4123
1208.199, 859.9797
1208.682, 860.0146
1209.164, 861.2711
1209.646, 861.8792
1210.128, 860.2989
1210.610, 858.5369
1211.092, 857.4998
1211.574, 857.0857
1212.056, 857.6348
1212.538, 858.5444
1213.021, 858.4227
1213.503, 857.0536
1213.985, 856.3181
1214.467, 857.2667
1214.949, 857.2734
1215.431, 855.1399
1215.913, 853.9141
1216.395, 855.2239
1216.878, 856.9554
1217.360, 857.1987
1217.842, 856.4601
1218.324, 856.0775
1218.806, 856.0627
1219.288, 855.5505
1219.770, 854.4844
1220.252, 853.9604
1220.734, 854.1533
1221.217, 854.0556
1221.699, 853.2230
1222.181, 852.2159
1222.663, 851.5825
1223.145, 851.1340
1223.627, 850.2937
1224.109, 849.4718
1224.591, 849.9221
1225.073, 851.1633
1225.556, 851.9860
1226.038, 852.1399
1226.520, 851.6145
1227.002, 850.4207
1227.484, 849.2029
1227.966, 848.1688
1228.448, 847.6007
1228.930, 848.3393
1229.413, 848.9961
1229.895, 847.7843
1230.377, 846.0536
1230.859, 846.1316
1231.341, 847.6400
1231.823, 847.8625
1232.305, 845.7587
1232.787, 844.5262
1233.270, 845.1993
1233.752, 845.8312
1234.234, 846.1144
1234.716, 846.1873
1235.198, 846.1423
1235.680, 845.8638
1236.162, 845.0906
1236.644, 844.0110
1237.126, 843.5360
1237.609, 843.6951
1238.091, 844.3151
1238.573, 845.4490
1239.055, 845.8942
1239.537, 845.3879
1240.019, 844.5689
1240.501, 843.7766
1240.983, 843.1334
1241.465, 842.9961
1241.948, 842.7586
1242.430, 840.4863
1242.912, 837.6465
1243.394, 838.1196
1243.876, 840.4430
1244.358, 840.2126
1244.840, 837.3148
1245.322, 835.2140
1245.805, 835.3694
1246.287, 836.1072
1246.769, 836.9268
1247.251, 837.3967
1247.733, 836.8342
1248.215, 836.2772
1248.697, 836.7635
1249.179, 837.6165
1249.661, 837.9150
1250.144, 837.6241
1250.626, 836.9573
1251.108, 835.6995
1251.590, 834.7798
1252.072, 834.2356
1252.554, 834.0458
1253.036, 834.5726
1253.518, 834.3147
1254.000, 832.1013
1254.483, 830.0354
1254.965, 830.9176
1255.447, 833.4272
1255.929, 833.0137
1256.411, 830.2668
1256.893, 829.6934
1257.375, 830.9680
1257.857, 831.2601
1258.340, 830.2448
1258.822, 829.5722
1259.304, 829.9698
1259.786, 830.5878
1260.268, 830.8332
1260.750, 830.7738
1261.232, 830.2144
1261.714, 829.6295
1262.197, 829.6700
1262.679, 829.9115
1263.161, 829.7446
1263.643, 829.1786
1264.125, 828.4443
1264.607, 827.5335
1265.089, 826.9163
1265.571, 826.9748
1266.053, 826.8516
1266.536, 826.0379
1267.018, 825.6160
1267.500, 826.3089
1267.982, 827.0594
1268.464, 826.8376
1268.946, 826.0659
1269.428, 825.8049
1269.910, 826.0249
1270.392, 825.8250
1270.875, 825.2330
1271.357, 825.0502
1271.839, 825.3265
1272.321, 825.5074
1272.803, 825.3928
1273.285, 824.9345
1273.767, 823.9874
1274.249, 823.3279
1274.732, 824.1433
1275.214, 825.4696
1275.696, 826.2195
1276.178, 826.6710
1276.660, 827.5108
1277.142, 828.2841
1277.624, 827.7814
1278.106, 825.9840
1278.589, 824.4420
1279.071, 823.4190
1279.553, 823.0317
1280.035, 823.9121
1280.517, 824.5737
1280.999, 824.8265
1281.481, 824.4603
1281.963, 823.0608
1282.445, 821.3921
1282.927, 820.4362
1283.410, 820.1539
1283.892, 820.6644
1284.374, 821.9561
1284.856, 821.4551
1285.338, 819.2996
1285.820, 818.0850
1286.302, 818.2361
1286.784, 818.6769
1287.267, 818.9169
1287.749, 819.3205
1288.231, 820.1406
1288.713, 821.3499
##END=



