##NAMES=Lollingite
##RRUFFID=R070592
##IDEAL CHEMISTRY=FeAs_2_
##LOCALITY=Ebisu mine, Hirukawa, Gifu Prefecture, Honshu, Japan
##OWNER=RRUFF
##SOURCE=James Shigley
##DESCRIPTION=Steel gray massive associated with quartz
##STATUS=The identification of this mineral is confirmed by single-crystal X-ray diffraction and chemical analysis.
##URL=rruff.info/R070592
##MEASURED CHEMISTRY=Fe_1.05_Bi_0.01_As_2_
89.85687, 57833.23
90.33899, 57753.75
90.82111, 57759.41
91.30322, 57907.11
91.78534, 58051.07
92.26746, 57864.35
92.74957, 57138.62
93.23169, 56380.85
93.71381, 55663.10
94.19592, 55007.00
94.67804, 54421.49
95.16016, 53906.24
95.64227, 53457.88
96.12439, 53203.57
96.60651, 53175.55
97.08862, 53294.44
97.57074, 53613.27
98.05286, 54091.84
98.53497, 54596.44
99.01709, 54975.01
99.49921, 55172.21
99.98132, 55349.64
100.4634, 55545.40
100.9456, 55706.46
101.4277, 55774.30
101.9098, 55465.61
102.3919, 53839.46
102.8740, 52256.81
103.3561, 50667.05
103.8383, 49159.14
104.3204, 47708.30
104.8025, 46329.82
105.2846, 45146.34
105.7667, 44263.93
106.2488, 43564.68
106.7310, 42840.50
107.2131, 42074.01
107.6952, 41271.86
108.1773, 40419.62
108.6594, 39492.52
109.1415, 38593.23
109.6237, 37752.71
110.1058, 36963.07
110.5879, 36229.64
111.0700, 35537.79
111.5521, 34894.63
112.0342, 34347.15
112.5164, 33954.79
112.9985, 33601.57
113.4806, 33251.10
113.9627, 32901.16
114.4448, 32556.69
114.9269, 32224.63
115.4091, 31904.35
115.8912, 31589.18
116.3733, 31256.61
116.8554, 30939.65
117.3375, 30669.74
117.8196, 30446.96
118.3018, 30239.52
118.7839, 29991.40
119.2660, 29634.99
119.7481, 29326.75
120.2302, 29066.85
120.7123, 28854.49
121.1945, 28702.58
121.6766, 28622.91
122.1587, 28588.45
122.6408, 28491.28
123.1229, 28297.79
123.6050, 28095.70
124.0872, 27912.96
124.5693, 27745.37
125.0514, 27576.23
125.5335, 27390.65
126.0156, 27195.12
126.4977, 27020.69
126.9799, 26888.34
127.4620, 26764.78
127.9441, 26618.45
128.4262, 26444.45
128.9083, 26261.43
129.3905, 26077.47
129.8726, 25893.66
130.3547, 25716.05
130.8368, 25561.96
131.3189, 25418.12
131.8010, 25229.87
132.2832, 24949.32
132.7653, 24683.18
133.2474, 24506.99
133.7295, 24404.67
134.2116, 24308.82
134.6937, 24153.05
135.1759, 23925.42
135.6580, 23728.85
136.1401, 23585.89
136.6222, 23466.50
137.1043, 23368.59
137.5864, 23287.95
138.0686, 23207.23
138.5507, 23101.21
139.0328, 22966.07
139.5149, 22807.84
139.9970, 22610.04
140.4791, 22402.38
140.9613, 22212.29
141.4434, 22052.58
141.9255, 21910.21
142.4076, 21742.76
142.8897, 21491.98
143.3718, 21280.33
143.8540, 21144.23
144.3361, 21055.28
144.8182, 20967.62
145.3003, 20852.42
145.7824, 20712.71
146.2645, 20586.09
146.7467, 20480.82
147.2288, 20377.83
147.7109, 20266.98
148.1930, 20149.45
148.6751, 20032.42
149.1572, 19918.88
149.6394, 19810.33
150.1215, 19718.37
150.6036, 19672.30
151.0857, 19626.68
151.5678, 19526.29
152.0499, 19357.55
152.5321, 19181.68
153.0142, 19065.96
153.4963, 18997.27
153.9784, 18932.49
154.4605, 18865.44
154.9426, 18792.55
155.4248, 18704.69
155.9069, 18600.73
156.3890, 18479.51
156.8711, 18334.02
157.3532, 18166.61
157.8354, 18009.35
158.3175, 17883.46
158.7996, 17788.79
159.2817, 17711.98
159.7638, 17671.57
160.2459, 17634.21
160.7281, 17581.49
161.2102, 17510.87
161.6923, 17426.56
162.1744, 17329.12
162.6565, 17211.99
163.1386, 17103.52
163.6208, 17002.56
164.1029, 16913.67
164.5850, 16846.13
165.0671, 16803.11
165.5492, 16770.66
166.0313, 16716.24
166.5135, 16617.81
166.9956, 16531.49
167.4777, 16460.13
167.9598, 16404.98
168.4419, 16372.68
168.9240, 16368.02
169.4062, 16381.54
169.8883, 16366.17
170.3704, 16306.92
170.8525, 16231.98
171.3346, 16129.37
171.8167, 16014.57
172.2989, 15914.31
172.7810, 15848.15
173.2631, 15815.17
173.7452, 15760.55
174.2273, 15662.84
174.7094, 15569.18
175.1916, 15497.01
175.6737, 15445.28
176.1558, 15404.88
176.6379, 15370.41
177.1200, 15342.58
177.6021, 15305.78
178.0843, 15260.08
178.5664, 15206.18
179.0485, 15140.25
179.5306, 15062.71
180.0127, 14984.68
180.4948, 14916.38
180.9770, 14858.06
181.4591, 14805.39
181.9412, 14769.38
182.4233, 14734.45
182.9054, 14675.22
183.3875, 14582.41
183.8697, 14487.80
184.3518, 14435.11
184.8339, 14418.28
185.3160, 14400.05
185.7981, 14364.82
186.2802, 14318.83
186.7624, 14279.57
187.2445, 14258.97
187.7266, 14231.41
188.2087, 14164.98
188.6908, 14061.47
189.1729, 13962.88
189.6551, 13893.83
190.1372, 13852.64
190.6193, 13825.60
191.1014, 13829.61
191.5835, 13828.60
192.0656, 13786.88
192.5478, 13701.49
193.0299, 13615.37
193.5120, 13582.02
193.9941, 13610.69
194.4762, 13602.43
194.9583, 13491.69
195.4405, 13360.56
195.9226, 13253.35
196.4047, 13179.72
196.8868, 13126.76
197.3689, 13078.38
197.8510, 13033.41
198.3332, 12996.39
198.8153, 12982.71
199.2974, 12968.50
199.7795, 12931.61
200.2616, 12864.15
200.7438, 12784.86
201.2259, 12729.60
201.7080, 12706.93
202.1901, 12695.80
202.6722, 12707.76
203.1543, 12721.22
203.6365, 12714.86
204.1186, 12679.01
204.6007, 12622.09
205.0828, 12568.25
205.5649, 12527.24
206.0470, 12476.37
206.5292, 12393.56
207.0113, 12305.95
207.4934, 12249.38
207.9755, 12244.94
208.4576, 12278.81
208.9397, 12284.61
209.4219, 12222.08
209.9040, 12173.43
210.3861, 12167.32
210.8682, 12180.76
211.3503, 12174.33
211.8324, 12121.96
212.3146, 12030.94
212.7967, 11970.23
213.2788, 11961.38
213.7609, 11955.95
214.2430, 11942.55
214.7251, 11922.74
215.2073, 11901.96
215.6894, 11883.56
216.1715, 11867.50
216.6536, 11851.97
217.1357, 11837.61
217.6178, 11822.97
218.1000, 11804.41
218.5821, 11784.13
219.0642, 11770.40
219.5463, 11771.67
220.0284, 11786.80
220.5105, 11785.03
220.9927, 11757.64
221.4748, 11723.29
221.9569, 11690.25
222.4390, 11659.12
222.9211, 11627.68
223.4032, 11591.10
223.8854, 11551.40
224.3675, 11531.64
224.8496, 11559.64
225.3317, 11586.96
225.8138, 11570.68
226.2959, 11510.85
226.7781, 11448.99
227.2602, 11417.77
227.7423, 11416.04
228.2244, 11416.88
228.7065, 11419.46
229.1886, 11423.49
229.6708, 11428.82
230.1529, 11435.42
230.6350, 11443.41
231.1171, 11457.30
231.5992, 11473.87
232.0813, 11476.88
232.5635, 11458.92
233.0456, 11428.41
233.5277, 11395.28
234.0098, 11360.59
234.4919, 11320.42
234.9740, 11267.96
235.4562, 11206.94
235.9383, 11147.47
236.4204, 11083.79
236.9025, 11026.05
237.3846, 10995.65
237.8667, 11001.00
238.3489, 11006.86
238.8310, 10979.13
239.3131, 10929.92
239.7952, 10886.58
240.2773, 10868.22
240.7595, 10859.46
241.2416, 10827.44
241.7237, 10761.38
242.2058, 10696.50
242.6879, 10661.75
243.1700, 10646.94
243.6522, 10630.09
244.1343, 10593.85
244.6164, 10549.83
245.0985, 10529.98
245.5806, 10548.37
246.0627, 10562.07
246.5449, 10540.92
247.0270, 10495.30
247.5091, 10445.75
247.9912, 10398.51
248.4733, 10354.54
248.9554, 10317.29
249.4376, 10289.41
249.9197, 10264.17
250.4018, 10241.99
250.8839, 10219.72
251.3660, 10189.69
251.8481, 10139.36
252.3303, 10077.97
252.8124, 10037.61
253.2945, 10023.41
253.7766, 10023.81
254.2587, 10040.75
254.7408, 10065.67
255.2230, 10081.54
255.7051, 10076.32
256.1872, 10054.66
256.6693, 10034.18
257.1514, 10016.97
257.6335, 9997.550
258.1157, 9973.329
258.5978, 9945.488
259.0799, 9915.748
259.5620, 9882.652
260.0441, 9848.581
260.5262, 9822.530
261.0084, 9804.957
261.4905, 9795.685
261.9726, 9798.028
262.4547, 9806.774
262.9368, 9813.845
263.4189, 9816.981
263.9011, 9814.425
264.3832, 9797.188
264.8653, 9753.359
265.3474, 9712.803
265.8295, 9690.552
266.3116, 9677.724
266.7938, 9660.410
267.2759, 9630.141
267.7580, 9590.040
268.2401, 9552.068
268.7222, 9520.581
269.2043, 9484.077
269.6865, 9431.160
270.1686, 9373.370
270.6507, 9327.881
271.1328, 9305.992
271.6149, 9300.513
272.0970, 9288.752
272.5792, 9272.201
273.0613, 9245.502
273.5434, 9195.444
274.0255, 9139.270
274.5076, 9101.433
274.9897, 9097.739
275.4719, 9114.335
275.9540, 9110.070
276.4361, 9070.544
276.9182, 9034.951
277.4003, 9011.653
277.8824, 8998.318
278.3646, 8995.587
278.8467, 9006.659
279.3288, 9020.798
279.8109, 9008.514
280.2930, 8950.167
280.7751, 8902.940
281.2573, 8881.890
281.7394, 8876.165
282.2215, 8877.186
282.7036, 8882.416
283.1857, 8888.266
283.6678, 8887.252
284.1500, 8877.812
284.6321, 8864.421
285.1142, 8847.051
285.5963, 8827.213
286.0784, 8804.614
286.5605, 8778.883
287.0427, 8753.961
287.5248, 8738.211
288.0069, 8736.323
288.4890, 8731.064
288.9711, 8715.433
289.4532, 8697.705
289.9354, 8683.240
290.4175, 8673.597
290.8996, 8668.558
291.3817, 8671.277
291.8638, 8688.647
292.3459, 8690.834
292.8281, 8664.137
293.3102, 8627.557
293.7923, 8588.055
294.2744, 8548.269
294.7565, 8515.862
295.2386, 8502.875
295.7208, 8513.798
296.2029, 8522.979
296.6850, 8534.069
297.1671, 8537.534
297.6492, 8523.206
298.1313, 8491.887
298.6135, 8458.404
299.0956, 8436.961
299.5777, 8428.419
300.0598, 8426.053
300.5419, 8445.837
301.0240, 8457.684
301.5062, 8438.898
301.9883, 8393.879
302.4704, 8350.974
302.9525, 8340.578
303.4347, 8363.588
303.9168, 8369.646
304.3989, 8340.521
304.8810, 8310.883
305.3631, 8300.309
305.8452, 8304.334
306.3274, 8306.023
306.8095, 8289.609
307.2916, 8257.728
307.7737, 8236.913
308.2558, 8236.231
308.7379, 8234.985
309.2201, 8217.278
309.7022, 8191.521
310.1843, 8177.104
310.6664, 8194.046
311.1485, 8230.222
311.6306, 8239.222
312.1128, 8206.620
312.5949, 8172.467
313.0770, 8156.075
313.5591, 8150.174
314.0412, 8143.870
314.5233, 8131.431
315.0055, 8116.406
315.4876, 8106.578
315.9697, 8103.727
316.4518, 8101.208
316.9339, 8098.982
317.4160, 8094.543
317.8982, 8082.570
318.3803, 8056.825
318.8624, 8031.202
319.3445, 8029.134
319.8266, 8055.396
320.3087, 8077.489
320.7909, 8086.084
321.2730, 8082.196
321.7551, 8062.036
322.2372, 8020.545
322.7193, 7978.315
323.2014, 7958.079
323.6836, 7959.985
324.1657, 7961.794
324.6478, 7955.699
325.1299, 7947.680
325.6120, 7946.736
326.0941, 7955.202
326.5763, 7956.958
327.0584, 7931.479
327.5405, 7885.408
328.0226, 7857.832
328.5047, 7863.804
328.9868, 7883.195
329.4690, 7897.911
329.9511, 7908.162
330.4332, 7908.456
330.9153, 7891.414
331.3974, 7862.599
331.8795, 7833.792
332.3617, 7804.654
332.8438, 7781.487
333.3259, 7777.959
333.8080, 7789.436
334.2901, 7790.508
334.7722, 7755.359
335.2544, 7712.960
335.7365, 7711.003
336.2186, 7757.794
336.7007, 7805.102
337.1828, 7809.071
337.6649, 7777.942
338.1471, 7756.482
338.6292, 7764.503
339.1113, 7773.582
339.5934, 7752.710
340.0755, 7704.162
340.5576, 7661.789
341.0398, 7647.658
341.5219, 7657.904
342.0040, 7667.176
342.4861, 7675.076
342.9682, 7682.362
343.4503, 7697.728
343.9325, 7714.220
344.4146, 7706.109
344.8967, 7653.680
345.3788, 7577.787
345.8609, 7545.870
346.3430, 7576.297
346.8252, 7609.124
347.3073, 7635.375
347.7894, 7653.045
348.2715, 7657.689
348.7536, 7647.386
349.2357, 7627.139
349.7179, 7605.455
350.2000, 7582.485
350.6821, 7557.356
351.1642, 7526.114
351.6463, 7495.062
352.1284, 7465.545
352.6106, 7439.451
353.0927, 7426.530
353.5748, 7441.299
354.0569, 7496.005
354.5390, 7531.654
355.0211, 7545.719
355.5033, 7545.839
355.9854, 7529.770
356.4675, 7501.954
356.9496, 7473.382
357.4317, 7451.769
357.9138, 7436.893
358.3960, 7439.589
358.8781, 7479.728
359.3602, 7515.439
359.8423, 7542.477
360.3244, 7555.543
360.8065, 7543.400
361.2887, 7496.837
361.7708, 7427.233
362.2529, 7382.300
362.7350, 7377.672
363.2171, 7379.097
363.6992, 7387.689
364.1814, 7396.996
364.6635, 7399.800
365.1456, 7393.497
365.6277, 7382.767
366.1098, 7377.061
366.5919, 7381.378
367.0741, 7377.569
367.5562, 7354.231
368.0383, 7329.662
368.5204, 7315.925
369.0025, 7314.348
369.4846, 7317.777
369.9668, 7319.686
370.4489, 7320.068
370.9310, 7319.743
371.4131, 7327.595
371.8952, 7324.731
372.3773, 7290.625
372.8595, 7235.909
373.3416, 7193.576
373.8237, 7188.796
374.3058, 7213.729
374.7879, 7240.231
375.2701, 7273.103
375.7522, 7296.969
376.2343, 7297.933
376.7164, 7286.304
377.1985, 7278.659
377.6806, 7286.280
378.1628, 7293.940
378.6449, 7276.701
379.1270, 7232.514
379.6091, 7194.100
380.0912, 7178.891
380.5733, 7176.279
381.0555, 7169.495
381.5376, 7155.705
382.0197, 7142.684
382.5018, 7134.686
382.9839, 7131.450
383.4660, 7133.579
383.9482, 7143.962
384.4303, 7154.678
384.9124, 7152.966
385.3945, 7138.455
385.8766, 7123.491
386.3588, 7107.344
386.8409, 7094.381
387.3230, 7093.341
387.8051, 7105.604
388.2872, 7117.363
388.7693, 7115.225
389.2515, 7097.420
389.7336, 7081.299
390.2157, 7066.302
390.6978, 7053.338
391.1799, 7039.284
391.6620, 7026.875
392.1442, 7027.428
392.6263, 7051.012
393.1084, 7091.140
393.5905, 7105.560
394.0726, 7072.312
394.5547, 7041.780
395.0369, 7022.053
395.5190, 7010.340
396.0011, 7004.489
396.4832, 7003.460
396.9653, 7003.925
397.4474, 6998.859
397.9296, 6980.908
398.4117, 6971.104
398.8938, 6977.051
399.3759, 6984.413
399.8580, 6984.664
400.3401, 6976.471
400.8223, 6962.166
401.3044, 6942.228
401.7865, 6915.685
402.2686, 6895.745
402.7507, 6886.655
403.2328, 6880.421
403.7150, 6871.780
404.1971, 6864.143
404.6792, 6865.519
405.1613, 6883.852
405.6434, 6910.656
406.1255, 6921.141
406.6077, 6909.091
407.0898, 6896.131
407.5719, 6887.520
408.0540, 6882.832
408.5361, 6883.657
409.0182, 6891.598
409.5004, 6898.685
409.9825, 6894.555
410.4646, 6880.066
410.9467, 6870.342
411.4288, 6871.553
411.9109, 6875.661
412.3931, 6872.354
412.8752, 6861.875
413.3573, 6856.229
413.8394, 6866.935
414.3215, 6883.799
414.8036, 6888.449
415.2858, 6877.965
415.7679, 6863.777
416.2500, 6852.267
416.7321, 6844.623
417.2142, 6846.278
417.6964, 6876.202
418.1785, 6898.770
418.6606, 6882.706
419.1427, 6839.130
419.6248, 6804.771
420.1069, 6798.978
420.5891, 6813.143
421.0712, 6821.115
421.5533, 6816.888
422.0354, 6815.173
422.5175, 6819.813
422.9996, 6826.633
423.4818, 6832.313
423.9639, 6835.696
424.4460, 6835.617
424.9281, 6830.141
425.4102, 6817.579
425.8923, 6805.957
426.3745, 6786.812
426.8566, 6776.387
427.3387, 6791.671
427.8208, 6822.637
428.3029, 6842.973
428.7850, 6831.852
429.2672, 6797.093
429.7493, 6780.284
430.2314, 6799.327
430.7135, 6806.665
431.1956, 6777.106
431.6777, 6737.922
432.1599, 6720.187
432.6420, 6734.431
433.1241, 6759.482
433.6062, 6772.032
434.0883, 6772.113
434.5704, 6757.518
435.0526, 6712.940
435.5347, 6669.006
436.0168, 6649.455
436.4989, 6653.241
436.9810, 6666.049
437.4631, 6690.094
437.9453, 6715.927
438.4274, 6723.327
438.9095, 6708.896
439.3916, 6690.308
439.8737, 6677.587
440.3558, 6670.753
440.8380, 6668.138
441.3201, 6673.514
441.8022, 6679.465
442.2843, 6681.384
442.7664, 6680.631
443.2485, 6680.852
443.7307, 6683.631
444.2128, 6687.581
444.6949, 6689.690
445.1770, 6686.692
445.6591, 6688.534
446.1412, 6697.968
446.6234, 6710.854
447.1055, 6729.636
447.5876, 6751.060
448.0697, 6760.193
448.5518, 6739.848
449.0339, 6687.931
449.5161, 6657.162
449.9982, 6675.377
450.4803, 6685.169
450.9624, 6658.235
451.4445, 6617.890
451.9266, 6602.006
452.4088, 6629.715
452.8909, 6678.438
453.3730, 6703.739
453.8551, 6700.323
454.3372, 6690.925
454.8193, 6677.309
455.3015, 6660.426
455.7836, 6636.066
456.2657, 6605.819
456.7478, 6583.461
457.2299, 6582.463
457.7120, 6598.070
458.1942, 6615.312
458.6763, 6635.838
459.1584, 6650.839
459.6405, 6652.568
460.1226, 6644.170
460.6047, 6631.028
461.0869, 6603.157
461.5690, 6581.948
462.0511, 6592.452
462.5332, 6625.542
463.0153, 6643.876
463.4974, 6629.324
463.9796, 6600.380
464.4617, 6594.889
464.9438, 6626.960
465.4259, 6643.788
465.9080, 6627.518
466.3902, 6601.216
466.8723, 6582.483
467.3544, 6574.205
467.8365, 6573.882
468.3186, 6581.115
468.8008, 6595.866
469.2829, 6599.335
469.7650, 6580.083
470.2471, 6562.040
470.7292, 6547.292
471.2113, 6537.636
471.6935, 6536.442
472.1756, 6545.084
472.6577, 6557.671
473.1398, 6564.820
473.6219, 6566.213
474.1040, 6563.293
474.5862, 6552.288
475.0683, 6540.115
475.5504, 6527.792
476.0325, 6516.894
476.5146, 6513.215
476.9967, 6523.107
477.4789, 6542.100
477.9610, 6563.806
478.4431, 6590.886
478.9252, 6605.270
479.4073, 6591.431
479.8894, 6559.155
480.3716, 6530.693
480.8537, 6505.178
481.3358, 6486.769
481.8179, 6479.363
482.3000, 6480.270
482.7821, 6486.327
483.2643, 6497.224
483.7464, 6506.686
484.2285, 6505.901
484.7106, 6490.875
485.1927, 6482.425
485.6748, 6485.391
486.1570, 6489.918
486.6391, 6489.402
487.1212, 6485.992
487.6033, 6487.609
488.0854, 6500.056
488.5675, 6516.661
489.0497, 6512.844
489.5318, 6468.313
490.0139, 6440.410
490.4960, 6451.119
490.9781, 6468.157
491.4602, 6462.636
491.9424, 6433.022
492.4245, 6405.912
492.9066, 6412.196
493.3887, 6445.754
493.8708, 6457.878
494.3529, 6435.487
494.8351, 6416.088
495.3172, 6434.071
495.7993, 6468.296
496.2814, 6480.634
496.7635, 6449.235
497.2456, 6413.128
497.7278, 6409.449
498.2099, 6428.484
498.6920, 6432.587
499.1741, 6406.787
499.6562, 6371.499
500.1383, 6357.013
500.6205, 6369.368
501.1026, 6377.864
501.5847, 6371.057
502.0668, 6367.720
502.5489, 6391.343
503.0310, 6432.438
503.5132, 6455.555
503.9953, 6435.523
504.4774, 6384.262
504.9595, 6356.224
505.4416, 6369.607
505.9237, 6379.633
506.4059, 6381.198
506.8880, 6378.014
507.3701, 6371.556
507.8522, 6362.849
508.3343, 6355.135
508.8164, 6351.741
509.2986, 6352.399
509.7807, 6355.210
510.2628, 6364.473
510.7449, 6367.571
511.2270, 6348.690
511.7091, 6320.660
512.1913, 6305.677
512.6734, 6312.852
513.1555, 6327.743
513.6376, 6344.074
514.1198, 6359.281
514.6019, 6362.956
515.0840, 6349.999
515.5661, 6331.938
516.0482, 6325.107
516.5303, 6334.014
517.0125, 6332.579
517.4946, 6309.544
517.9767, 6285.334
518.4588, 6268.376
518.9409, 6260.725
519.4230, 6267.843
519.9052, 6294.421
520.3873, 6330.237
520.8694, 6341.846
521.3515, 6309.702
521.8336, 6289.928
522.3157, 6297.708
522.7979, 6310.159
523.2800, 6310.546
523.7621, 6298.679
524.2442, 6286.693
524.7263, 6289.940
525.2084, 6301.118
525.6906, 6284.543
526.1727, 6227.157
526.6548, 6186.797
527.1369, 6209.578
527.6190, 6261.254
528.1011, 6286.325
528.5833, 6273.377
529.0654, 6250.367
529.5475, 6221.965
530.0296, 6195.974
530.5117, 6191.279
530.9938, 6211.773
531.4760, 6234.608
531.9581, 6235.270
532.4402, 6211.184
532.9223, 6205.433
533.4044, 6236.401
533.8865, 6262.179
534.3687, 6268.372
534.8508, 6260.930
535.3329, 6248.268
535.8150, 6233.708
536.2971, 6217.792
536.7792, 6199.752
537.2614, 6177.710
537.7435, 6163.078
538.2256, 6156.492
538.7077, 6158.130
539.1898, 6170.721
539.6719, 6191.329
540.1541, 6213.227
540.6362, 6237.233
541.1183, 6257.220
541.6004, 6265.152
542.0825, 6261.435
542.5646, 6246.766
543.0468, 6212.292
543.5289, 6181.138
544.0110, 6197.779
544.4931, 6270.892
544.9752, 6329.252
545.4573, 6368.320
545.9395, 6384.841
546.4216, 6364.284
546.9037, 6316.458
547.3858, 6269.948
547.8679, 6241.275
548.3500, 6230.319
548.8322, 6239.806
549.3143, 6297.879
549.7964, 6325.994
550.2785, 6292.806
550.7606, 6250.635
551.2427, 6235.465
551.7249, 6248.711
552.2070, 6270.127
552.6891, 6291.287
553.1712, 6308.001
553.6533, 6301.452
554.1354, 6264.650
554.6176, 6239.083
555.0997, 6255.560
555.5818, 6288.379
556.0639, 6290.246
556.5460, 6248.708
557.0281, 6213.831
557.5103, 6215.555
557.9924, 6229.835
558.4745, 6223.236
558.9566, 6193.271
559.4387, 6160.982
559.9208, 6141.931
560.4030, 6135.915
560.8851, 6140.304
561.3672, 6176.095
561.8493, 6196.723
562.3314, 6187.399
562.8135, 6165.867
563.2957, 6145.105
563.7778, 6129.540
564.2599, 6122.782
564.7420, 6135.407
565.2241, 6164.188
565.7062, 6173.018
566.1884, 6154.275
566.6705, 6132.846
567.1526, 6114.937
567.6347, 6104.685
568.1168, 6111.279
568.5989, 6142.349
569.0811, 6174.382
569.5632, 6198.240
570.0453, 6213.210
570.5274, 6219.073
571.0095, 6215.693
571.4916, 6198.749
571.9738, 6158.598
572.4559, 6095.504
572.9380, 6069.194
573.4201, 6113.515
573.9022, 6151.389
574.3843, 6168.707
574.8665, 6170.023
575.3486, 6157.542
575.8307, 6133.363
576.3128, 6107.591
576.7949, 6092.774
577.2770, 6088.443
577.7592, 6078.674
578.2413, 6055.303
578.7234, 6041.729
579.2055, 6057.265
579.6876, 6089.235
580.1697, 6121.953
580.6519, 6161.059
581.1340, 6182.281
581.6161, 6155.984
582.0982, 6105.150
582.5803, 6072.633
583.0624, 6067.136
583.5446, 6076.473
584.0267, 6092.364
584.5088, 6114.885
584.9909, 6123.364
585.4730, 6102.938
585.9551, 6087.201
586.4373, 6085.085
586.9194, 6090.304
587.4015, 6097.243
587.8836, 6103.800
588.3657, 6107.684
588.8478, 6104.359
589.3300, 6094.629
589.8121, 6090.187
590.2942, 6093.188
590.7763, 6096.961
591.2584, 6098.402
591.7405, 6098.045
592.2227, 6096.031
592.7048, 6090.394
593.1869, 6087.757
593.6690, 6098.083
594.1511, 6111.097
594.6332, 6105.018
595.1154, 6078.403
595.5975, 6059.867
596.0796, 6078.405
596.5617, 6129.736
597.0438, 6147.715
597.5259, 6084.054
598.0081, 6046.244
598.4902, 6079.341
598.9723, 6124.627
599.4544, 6118.187
599.9365, 6054.561
600.4186, 5989.462
600.9008, 5977.227
601.3829, 6005.630
601.8650, 6021.572
602.3471, 6021.358
602.8292, 6025.632
603.3113, 6051.160
603.7935, 6083.922
604.2756, 6095.940
604.7577, 6082.089
605.2398, 6063.247
605.7219, 6038.515
606.2040, 6016.327
606.6862, 6006.728
607.1683, 6009.079
607.6504, 6016.091
608.1325, 6023.478
608.6146, 6030.070
609.0967, 6029.518
609.5789, 6011.223
610.0610, 6006.457
610.5431, 6029.418
611.0252, 6057.664
611.5073, 6081.115
611.9894, 6096.839
612.4716, 6099.489
612.9537, 6074.313
613.4358, 6041.103
613.9179, 6035.202
614.4000, 6055.075
614.8821, 6073.291
615.3643, 6080.393
615.8464, 6078.841
616.3285, 6070.695
616.8106, 6052.539
617.2927, 6040.852
617.7748, 6041.328
618.2570, 6043.785
618.7391, 6040.022
619.2212, 6033.985
619.7033, 6036.933
620.1854, 6054.583
620.6675, 6075.042
621.1497, 6073.564
621.6318, 6044.850
622.1139, 6033.674
622.5960, 6059.742
623.0781, 6082.973
623.5602, 6072.243
624.0424, 6040.430
624.5245, 6019.266
625.0066, 6021.347
625.4887, 6029.006
625.9708, 6032.477
626.4529, 6032.167
626.9351, 6026.525
627.4172, 6015.400
627.8993, 6007.722
628.3814, 6013.691
628.8635, 6033.657
629.3456, 6046.315
629.8278, 6052.300
630.3099, 6049.444
630.7920, 6027.161
631.2741, 6001.529
631.7562, 5988.028
632.2383, 5989.767
632.7205, 6000.683
633.2026, 6024.610
633.6847, 6053.130
634.1668, 6055.552
634.6489, 6027.491
635.1310, 6007.864
635.6132, 6021.551
636.0953, 6051.231
636.5774, 6054.834
637.0595, 6019.496
637.5416, 5998.371
638.0237, 6010.960
638.5059, 6031.492
638.9880, 6043.440
639.4701, 6046.039
639.9522, 6043.579
640.4343, 6038.264
640.9164, 6030.555
641.3986, 6018.822
641.8807, 5999.352
642.3628, 5994.991
642.8449, 6022.901
643.3270, 6050.058
643.8091, 6050.995
644.2913, 6032.856
644.7734, 6018.216
645.2555, 6015.881
645.7376, 6015.870
646.2197, 6005.949
646.7018, 5994.286
647.1840, 6003.248
647.6661, 6037.479
648.1482, 6071.273
648.6303, 6076.484
649.1124, 6052.900
649.5945, 6032.833
650.0767, 6016.863
650.5588, 6003.976
651.0409, 5992.412
651.5230, 5984.639
652.0051, 5984.960
652.4872, 5993.408
652.9694, 6001.686
653.4515, 6003.551
653.9336, 6001.270
654.4157, 5995.727
654.8978, 5987.341
655.3799, 5992.132
655.8621, 6022.541
656.3442, 6061.736
656.8263, 6076.905
657.3084, 6057.615
657.7905, 6036.202
658.2726, 5998.773
658.7548, 5972.676
659.2369, 5983.195
659.7190, 6014.526
660.2011, 6033.819
660.6832, 6025.756
661.1653, 6007.875
661.6475, 6007.975
662.1296, 6024.471
662.6117, 6025.804
663.0938, 6000.483
663.5759, 5980.704
664.0580, 5995.889
664.5402, 6034.618
665.0223, 6054.103
665.5044, 6037.062
665.9865, 6025.512
666.4686, 6042.775
666.9507, 6065.663
667.4329, 6065.332
667.9150, 6043.004
668.3971, 6024.073
668.8792, 6028.868
669.3613, 6048.904
669.8434, 6054.422
670.3256, 6041.104
670.8077, 6027.603
671.2898, 6007.104
671.7719, 5998.598
672.2541, 6029.754
672.7362, 6091.185
673.2183, 6125.499
673.7004, 6100.793
674.1826, 6058.824
674.6647, 6020.492
675.1468, 5987.928
675.6289, 5964.072
676.1110, 5949.825
676.5931, 5946.093
677.0753, 5956.395
677.5574, 5980.859
678.0395, 5991.266
678.5216, 5974.626
679.0037, 5964.661
679.4858, 5976.335
679.9680, 5994.282
680.4501, 6005.254
680.9322, 6007.507
681.4143, 6003.990
681.8964, 5987.052
682.3785, 5971.012
682.8607, 5979.868
683.3428, 6008.237
683.8249, 6027.149
684.3070, 6023.436
684.7891, 6009.738
685.2712, 6007.051
685.7534, 6019.557
686.2355, 6027.064
686.7176, 6025.921
687.1997, 6023.672
687.6818, 6020.882
688.1639, 6019.030
688.6461, 6020.924
689.1282, 6027.638
689.6103, 6033.229
690.0924, 6030.078
690.5745, 6023.286
691.0566, 6025.815
691.5388, 6038.044
692.0209, 6046.119
692.5030, 6041.454
692.9851, 6029.272
693.4672, 6023.247
693.9493, 6033.827
694.4315, 6029.671
694.9136, 5994.351
695.3957, 5961.915
695.8778, 5945.944
696.3599, 5946.552
696.8420, 5966.462
697.3242, 6011.319
697.8063, 6050.458
698.2884, 6041.356
698.7705, 5998.455
699.2526, 5971.851
699.7347, 5968.357
700.2169, 5973.196
700.6990, 5977.014
701.1811, 5980.961
701.6632, 5989.709
702.1453, 6007.506
702.6274, 6024.283
703.1096, 6048.818
703.5917, 6064.549
704.0738, 6056.379
704.5559, 6030.034
705.0380, 5999.902
705.5201, 5969.176
706.0023, 5948.692
706.4844, 5960.237
706.9665, 5997.319
707.4486, 6024.072
707.9307, 6034.217
708.4128, 6035.515
708.8950, 6031.955
709.3771, 6024.652
709.8592, 6021.022
710.3413, 6029.850
710.8234, 6030.036
711.3055, 6006.359
711.7877, 5983.814
712.2698, 5986.780
712.7519, 6009.321
713.2340, 6025.232
713.7161, 6017.062
714.1982, 6000.299
714.6804, 5998.911
715.1625, 6010.985
715.6446, 6024.753
716.1267, 6039.500
716.6088, 6047.875
717.0909, 6042.356
717.5731, 6024.298
718.0552, 6007.592
718.5373, 5982.228
719.0194, 5971.736
719.5015, 5993.260
719.9836, 6020.172
720.4658, 6028.824
720.9479, 6021.402
721.4300, 6017.432
721.9121, 6031.319
722.3942, 6050.020
722.8763, 6053.222
723.3585, 6042.601
723.8406, 6027.173
724.3227, 6006.892
724.8048, 5993.290
725.2869, 5998.962
725.7690, 6022.053
726.2512, 6037.717
726.7333, 6048.896
727.2154, 6048.687
727.6975, 6021.183
728.1796, 5993.414
728.6617, 5990.298
729.1439, 6008.595
729.6260, 6026.045
730.1081, 6030.211
730.5902, 6027.167
731.0723, 6022.334
731.5544, 6016.986
732.0366, 6020.185
732.5187, 6035.328
733.0008, 6045.643
733.4829, 6033.989
733.9650, 6003.256
734.4471, 5983.796
734.9293, 5973.924
735.4114, 5978.679
735.8935, 6019.226
736.3756, 6057.422
736.8577, 6059.982
737.3398, 6033.455
737.8220, 6010.720
738.3041, 6010.591
738.7862, 6016.410
739.2683, 6008.065
739.7504, 5990.357
740.2325, 5976.423
740.7147, 5968.940
741.1968, 5969.096
741.6789, 5980.085
742.1610, 5998.604
742.6431, 6003.717
743.1252, 5985.174
743.6074, 5971.189
744.0895, 5968.285
744.5716, 5967.030
745.0537, 5956.375
745.5358, 5942.179
746.0179, 5944.154
746.5001, 5980.970
746.9822, 6016.035
747.4643, 6013.922
747.9464, 5991.239
748.4285, 5977.582
748.9106, 5977.671
749.3928, 5986.198
749.8749, 6001.218
750.3570, 6017.581
750.8391, 6015.282
751.3212, 5984.181
751.8033, 5962.673
752.2855, 5955.097
752.7676, 5957.892
753.2497, 5978.271
753.7318, 6006.140
754.2139, 6015.951
754.6960, 5994.660
755.1782, 5970.702
755.6603, 5953.230
756.1424, 5944.036
756.6245, 5950.153
757.1066, 5967.885
757.5887, 5981.608
758.0709, 5981.688
758.5530, 5974.610
759.0351, 5975.750
759.5172, 5987.144
759.9993, 5984.715
760.4814, 5958.075
760.9636, 5934.742
761.4457, 5935.189
761.9278, 5950.074
762.4099, 5955.050
762.8920, 5940.288
763.3741, 5939.233
763.8563, 5981.565
764.3384, 6021.241
764.8205, 6014.650
765.3026, 5978.376
765.7847, 5955.739
766.2668, 5965.682
766.7490, 5984.757
767.2311, 5982.282
767.7132, 5962.341
768.1953, 5947.193
768.6774, 5937.921
769.1595, 5933.337
769.6417, 5933.878
770.1238, 5937.334
770.6059, 5939.281
771.0880, 5937.870
771.5701, 5940.611
772.0522, 5952.745
772.5344, 5963.051
773.0165, 5967.134
773.4986, 5966.713
773.9807, 5962.938
774.4628, 5956.391
774.9449, 5951.564
775.4271, 5954.667
775.9092, 5960.061
776.3913, 5956.200
776.8734, 5945.246
777.3555, 5940.890
777.8376, 5948.466
778.3198, 5957.939
778.8019, 5955.677
779.2840, 5940.994
779.7661, 5934.907
780.2482, 5945.674
780.7303, 5951.242
781.2125, 5941.037
781.6946, 5927.380
782.1767, 5919.275
782.6588, 5917.244
783.1409, 5919.651
783.6230, 5935.687
784.1052, 5945.979
784.5873, 5926.563
785.0694, 5897.464
785.5515, 5895.554
786.0336, 5923.327
786.5157, 5949.649
786.9979, 5949.399
787.4800, 5929.257
787.9621, 5903.501
788.4442, 5869.313
788.9263, 5860.399
789.4084, 5894.579
789.8906, 5930.974
790.3727, 5934.077
790.8548, 5910.723
791.3369, 5900.060
791.8190, 5911.247
792.3011, 5921.246
792.7833, 5926.723
793.2654, 5929.865
793.7475, 5932.428
794.2296, 5933.996
794.7117, 5932.165
795.1938, 5924.962
795.6760, 5919.375
796.1581, 5924.701
796.6402, 5937.155
797.1223, 5949.350
797.6044, 5960.049
798.0865, 5959.347
798.5687, 5939.269
799.0508, 5914.385
799.5329, 5916.942
800.0150, 5961.308
800.4971, 5976.104
800.9792, 5931.233
801.4614, 5896.911
801.9435, 5905.921
802.4256, 5933.548
802.9077, 5952.593
803.3898, 5959.940
803.8719, 5960.375
804.3541, 5949.536
804.8362, 5938.182
805.3183, 5935.985
805.8004, 5938.819
806.2825, 5937.079
806.7646, 5929.130
807.2468, 5924.537
807.7289, 5936.299
808.2110, 5956.140
808.6931, 5952.237
809.1752, 5922.949
809.6573, 5891.936
810.1395, 5860.800
810.6216, 5840.090
811.1037, 5842.949
811.5858, 5867.252
812.0679, 5884.816
812.5500, 5884.899
813.0322, 5893.541
813.5143, 5931.351
813.9964, 5963.106
814.4785, 5956.927
814.9606, 5923.623
815.4427, 5896.254
815.9249, 5887.553
816.4070, 5886.842
816.8891, 5886.230
817.3712, 5887.042
817.8533, 5891.555
818.3354, 5899.786
818.8176, 5912.142
819.2997, 5929.343
819.7818, 5945.493
820.2639, 5949.405
820.7460, 5939.973
821.2281, 5926.882
821.7103, 5903.830
822.1924, 5892.668
822.6745, 5909.173
823.1566, 5937.820
823.6387, 5957.512
824.1208, 5968.343
824.6030, 5970.374
825.0851, 5951.189
825.5672, 5937.559
826.0493, 5947.581
826.5314, 5965.371
827.0135, 5973.613
827.4957, 5969.038
827.9778, 5955.076
828.4599, 5927.528
828.9420, 5899.381
829.4241, 5888.540
829.9063, 5892.642
830.3884, 5908.211
830.8705, 5933.867
831.3526, 5952.308
831.8347, 5948.167
832.3168, 5929.464
832.7990, 5925.265
833.2811, 5941.039
833.7632, 5953.140
834.2453, 5959.756
834.7274, 5962.175
835.2095, 5961.454
835.6917, 5956.897
836.1738, 5944.005
836.6559, 5914.733
837.1381, 5902.474
837.6202, 5931.867
838.1023, 5964.371
838.5844, 5978.297
839.0665, 5976.156
839.5486, 5959.749
840.0308, 5931.625
840.5129, 5911.231
840.9950, 5918.573
841.4771, 5944.163
841.9592, 5980.071
842.4413, 6020.488
842.9235, 6025.496
843.4056, 5982.515
843.8877, 5932.339
844.3698, 5916.041
844.8519, 5929.522
845.3340, 5943.472
845.8162, 5962.292
846.2983, 5969.781
846.7804, 5955.035
847.2625, 5937.965
847.7446, 5931.242
848.2267, 5932.960
848.7089, 5938.750
849.1910, 5950.926
849.6731, 5961.542
850.1552, 5969.785
850.6373, 5974.536
851.1194, 5969.025
851.6016, 5960.816
852.0837, 5969.083
852.5658, 6000.180
853.0479, 6025.525
853.5300, 6014.195
854.0121, 5980.635
854.4943, 5947.687
854.9764, 5918.073
855.4585, 5907.028
855.9406, 5920.227
856.4227, 5932.540
856.9048, 5910.942
857.3870, 5861.936
857.8691, 5859.085
858.3512, 5923.950
858.8333, 5969.148
859.3154, 5972.213
859.7975, 5958.143
860.2797, 5940.656
860.7618, 5921.918
861.2439, 5910.696
861.7260, 5908.783
862.2081, 5912.229
862.6902, 5929.781
863.1724, 5943.700
863.6545, 5933.946
864.1366, 5913.276
864.6187, 5910.131
865.1008, 5934.502
865.5829, 5959.286
866.0651, 5960.588
866.5472, 5950.670
867.0293, 5944.621
867.5114, 5943.188
867.9935, 5948.110
868.4756, 5959.509
868.9578, 5968.961
869.4399, 5966.405
869.9220, 5954.885
870.4041, 5951.462
870.8862, 5957.846
871.3683, 5959.807
871.8505, 5952.567
872.3326, 5944.455
872.8147, 5941.365
873.2968, 5943.080
873.7789, 5948.505
874.2610, 5959.605
874.7432, 5971.619
875.2253, 5987.549
875.7074, 6001.313
876.1895, 6008.916
876.6716, 6012.514
877.1537, 6017.341
877.6359, 6025.227
878.1180, 6024.728
878.6001, 5998.235
879.0822, 5971.807
879.5643, 5974.657
880.0464, 5992.114
880.5286, 5994.219
881.0107, 5975.352
881.4928, 5953.335
881.9749, 5941.200
882.4570, 5938.027
882.9391, 5944.788
883.4213, 5960.006
883.9034, 5972.096
884.3855, 5979.101
884.8676, 5982.242
885.3497, 5981.141
885.8318, 5978.956
886.3140, 5986.475
886.7961, 6011.783
887.2782, 6019.106
887.7603, 5994.814
888.2424, 5973.611
888.7245, 5970.666
889.2067, 5979.238
889.6888, 5994.095
890.1709, 6016.591
890.6530, 6027.015
891.1351, 6014.545
891.6172, 5999.096
892.0994, 5983.010
892.5815, 5971.528
893.0636, 5971.614
893.5457, 5981.725
894.0278, 5993.392
894.5099, 6004.291
894.9921, 6011.252
895.4742, 6011.063
895.9563, 6005.200
896.4384, 5992.718
896.9205, 5976.286
897.4026, 5965.885
897.8848, 5966.244
898.3669, 5972.669
898.8490, 5978.984
899.3311, 5985.424
899.8132, 5994.453
900.2953, 6006.302
900.7775, 6017.005
901.2596, 6025.697
901.7417, 6031.245
902.2238, 6032.581
902.7059, 6029.641
903.1880, 6020.804
903.6702, 5996.813
904.1523, 5985.317
904.6344, 6001.879
905.1165, 6018.637
905.5986, 6012.629
906.0807, 5996.455
906.5629, 6001.694
907.0450, 6045.271
907.5271, 6065.617
908.0092, 6013.315
908.4913, 5969.702
908.9734, 6001.494
909.4556, 6064.231
909.9377, 6091.004
910.4198, 6070.493
910.9019, 6041.395
911.3840, 6021.373
911.8661, 6011.307
912.3483, 6020.926
912.8304, 6038.214
913.3125, 6035.453
913.7946, 6012.358
914.2767, 5992.870
914.7589, 5991.873
915.2410, 6001.438
915.7231, 6009.325
916.2052, 6015.579
916.6873, 6021.017
917.1694, 6025.811
917.6516, 6025.906
918.1337, 6017.786
918.6158, 6011.157
919.0979, 6022.522
919.5800, 6051.979
920.0621, 6051.348
920.5443, 5995.596
921.0264, 5965.698
921.5085, 5993.099
921.9906, 6032.944
922.4727, 6057.360
922.9548, 6066.929
923.4370, 6061.285
923.9191, 6028.600
924.4012, 6004.708
924.8833, 5993.087
925.3654, 5992.912
925.8475, 6011.335
926.3297, 6037.240
926.8118, 6056.280
927.2939, 6065.605
927.7760, 6068.507
928.2581, 6069.429
928.7402, 6061.740
929.2224, 6029.351
929.7045, 5990.441
930.1866, 5972.268
930.6687, 5976.667
931.1508, 5991.905
931.6329, 6012.957
932.1151, 6032.800
932.5972, 6041.816
933.0793, 6042.222
933.5614, 6038.735
934.0435, 6032.357
934.5256, 6027.707
935.0078, 6026.672
935.4899, 6026.089
935.9720, 6020.610
936.4541, 6012.087
936.9362, 6017.855
937.4183, 6041.328
937.9005, 6055.088
938.3826, 6052.148
938.8647, 6041.980
939.3468, 6029.564
939.8289, 6016.656
940.3110, 6009.333
940.7932, 6007.023
941.2753, 6012.037
941.7574, 6037.615
942.2395, 6053.521
942.7216, 6036.962
943.2037, 6012.566
943.6859, 6012.601
944.1680, 6037.934
944.6501, 6051.478
945.1322, 6039.128
945.6143, 6024.715
946.0964, 6008.361
946.5786, 5999.342
947.0607, 6013.561
947.5428, 6040.864
948.0249, 6052.676
948.5070, 6036.312
948.9891, 6020.223
949.4713, 6022.183
949.9534, 6033.396
950.4355, 6053.179
950.9176, 6072.740
951.3997, 6069.901
951.8818, 6043.573
952.3640, 6026.658
952.8461, 6051.849
953.3282, 6089.255
953.8103, 6082.546
954.2924, 6049.300
954.7745, 6047.866
955.2567, 6081.555
955.7388, 6109.240
956.2209, 6108.640
956.7030, 6094.442
957.1851, 6089.710
957.6672, 6093.415
958.1494, 6089.816
958.6315, 6077.856
959.1136, 6074.301
959.5957, 6086.190
960.0778, 6099.479
960.5599, 6101.476
961.0421, 6093.440
961.5242, 6079.633
962.0063, 6054.029
962.4884, 6041.117
962.9705, 6045.591
963.4526, 6057.667
963.9348, 6077.566
964.4169, 6099.080
964.8990, 6110.659
965.3811, 6109.481
965.8632, 6115.717
966.3453, 6147.336
966.8275, 6162.173
967.3096, 6132.441
967.7917, 6098.927
968.2738, 6097.048
968.7559, 6118.005
969.2380, 6131.519
969.7202, 6131.729
970.2023, 6123.438
970.6844, 6100.087
971.1665, 6077.200
971.6486, 6063.688
972.1307, 6058.035
972.6129, 6056.974
973.0950, 6060.011
973.5771, 6069.246
974.0592, 6093.622
974.5413, 6114.345
975.0234, 6110.093
975.5056, 6096.473
975.9877, 6097.425
976.4698, 6109.552
976.9519, 6112.960
977.4340, 6099.214
977.9161, 6079.668
978.3983, 6057.725
978.8804, 6042.284
979.3625, 6055.705
979.8446, 6090.407
980.3267, 6126.136
980.8088, 6155.670
981.2910, 6161.914
981.7731, 6127.303
982.2552, 6078.770
982.7373, 6074.797
983.2194, 6109.193
983.7015, 6137.046
984.1837, 6155.272
984.6658, 6154.657
985.1479, 6128.391
985.6300, 6103.866
986.1121, 6118.747
986.5942, 6165.041
987.0764, 6173.861
987.5585, 6136.118
988.0406, 6113.083
988.5227, 6116.249
989.0048, 6129.412
989.4869, 6145.928
989.9691, 6161.590
990.4512, 6166.090
990.9333, 6155.819
991.4154, 6153.278
991.8975, 6165.824
992.3796, 6172.132
992.8618, 6158.986
993.3439, 6145.681
993.8260, 6154.825
994.3081, 6180.447
994.7902, 6188.657
995.2723, 6168.093
995.7545, 6149.914
996.2366, 6126.890
996.7187, 6116.070
997.2008, 6134.658
997.6829, 6163.888
998.1650, 6179.910
998.6472, 6181.247
999.1293, 6183.564
999.6114, 6202.066
1000.094, 6206.225
1000.576, 6163.325
1001.058, 6123.067
1001.540, 6131.323
1002.022, 6171.101
1002.504, 6203.476
1002.986, 6218.695
1003.468, 6226.857
1003.951, 6230.158
1004.433, 6230.876
1004.915, 6233.236
1005.397, 6232.295
1005.879, 6214.029
1006.361, 6185.181
1006.843, 6175.155
1007.325, 6201.268
1007.807, 6232.663
1008.290, 6246.542
1008.772, 6250.455
1009.254, 6247.894
1009.736, 6244.175
1010.218, 6253.523
1010.700, 6276.016
1011.182, 6288.673
1011.664, 6270.267
1012.146, 6243.287
1012.629, 6240.939
1013.111, 6250.724
1013.593, 6244.517
1014.075, 6224.021
1014.557, 6205.550
1015.039, 6195.973
1015.521, 6199.651
1016.003, 6227.133
1016.486, 6266.581
1016.968, 6293.010
1017.450, 6306.333
1017.932, 6299.584
1018.414, 6274.312
1018.896, 6259.074
1019.378, 6271.319
1019.860, 6291.012
1020.342, 6279.518
1020.825, 6244.430
1021.307, 6243.354
1021.789, 6274.784
1022.271, 6296.880
1022.753, 6298.779
1023.235, 6291.497
1023.717, 6282.468
1024.199, 6273.593
1024.682, 6269.173
1025.164, 6269.209
1025.646, 6276.865
1026.128, 6293.820
1026.610, 6305.375
1027.092, 6304.142
1027.574, 6305.394
1028.056, 6328.625
1028.538, 6366.162
1029.021, 6372.169
1029.503, 6335.203
1029.985, 6325.115
1030.467, 6358.407
1030.949, 6385.099
1031.431, 6381.352
1031.913, 6360.117
1032.395, 6336.486
1032.877, 6310.652
1033.360, 6300.918
1033.842, 6315.383
1034.324, 6324.301
1034.806, 6320.994
1035.288, 6315.605
1035.770, 6311.128
1036.252, 6310.845
1036.734, 6323.660
1037.217, 6354.513
1037.699, 6367.927
1038.181, 6352.278
1038.663, 6339.493
1039.145, 6338.389
1039.627, 6338.913
1040.109, 6332.135
1040.591, 6321.756
1041.073, 6319.171
1041.556, 6330.166
1042.038, 6332.964
1042.520, 6315.695
1043.002, 6305.814
1043.484, 6318.480
1043.966, 6334.523
1044.448, 6336.882
1044.930, 6328.257
1045.412, 6321.508
1045.895, 6317.435
1046.377, 6314.961
1046.859, 6316.214
1047.341, 6316.419
1047.823, 6307.980
1048.305, 6301.509
1048.787, 6314.190
1049.269, 6342.545
1049.752, 6355.268
1050.234, 6332.101
1050.716, 6317.824
1051.198, 6327.115
1051.680, 6339.215
1052.162, 6341.300
1052.644, 6340.467
1053.126, 6349.756
1053.609, 6369.214
1054.091, 6378.659
1054.573, 6365.063
1055.055, 6353.057
1055.537, 6348.827
1056.019, 6348.639
1056.501, 6352.378
1056.983, 6357.311
1057.465, 6359.346
1057.948, 6357.873
1058.430, 6355.613
1058.912, 6349.829
1059.394, 6348.110
1059.876, 6362.324
1060.358, 6373.516
1060.840, 6364.035
1061.322, 6340.620
1061.804, 6316.195
1062.287, 6292.774
1062.769, 6279.323
1063.251, 6279.521
1063.733, 6289.801
1064.215, 6326.343
1064.697, 6357.184
1065.179, 6337.112
1065.661, 6289.747
1066.144, 6281.467
1066.626, 6334.514
1067.108, 6381.281
1067.590, 6397.563
1068.072, 6397.446
1068.554, 6376.259
1069.036, 6352.155
1069.518, 6343.739
1070.000, 6349.094
1070.483, 6357.426
1070.965, 6366.208
1071.447, 6374.712
1071.929, 6387.951
1072.411, 6394.751
1072.893, 6383.649
1073.375, 6365.303
1073.857, 6349.806
1074.339, 6338.875
1074.822, 6332.962
1075.304, 6333.602
1075.786, 6334.021
1076.268, 6326.702
1076.750, 6322.888
1077.232, 6335.196
1077.714, 6351.986
1078.196, 6356.778
1078.679, 6351.128
1079.161, 6350.979
1079.643, 6365.549
1080.125, 6374.893
1080.607, 6363.406
1081.089, 6350.064
1081.571, 6346.748
1082.053, 6350.466
1082.536, 6358.875
1083.018, 6369.897
1083.500, 6377.948
1083.982, 6381.343
1084.464, 6380.682
1084.946, 6368.932
1085.428, 6360.799
1085.910, 6373.976
1086.392, 6392.705
1086.875, 6395.611
1087.357, 6381.522
1087.839, 6361.214
1088.321, 6328.553
1088.803, 6311.625
1089.285, 6339.325
1089.767, 6369.506
1090.249, 6371.656
1090.732, 6358.997
1091.214, 6351.087
1091.696, 6349.568
1092.178, 6344.233
1092.660, 6325.995
1093.142, 6314.966
1093.624, 6325.839
1094.106, 6338.877
1094.589, 6339.541
1095.071, 6335.075
1095.553, 6337.096
1096.035, 6345.715
1096.517, 6350.908
1096.999, 6348.251
1097.481, 6344.512
1097.963, 6336.968
1098.445, 6334.257
1098.927, 6347.885
1099.410, 6365.870
1099.892, 6373.903
1100.374, 6370.427
1100.856, 6358.103
1101.338, 6322.188
1101.820, 6303.335
1102.302, 6324.358
1102.784, 6351.160
1103.267, 6371.505
1103.749, 6382.304
1104.231, 6377.186
1104.713, 6358.071
1105.195, 6343.977
1105.677, 6335.372
1106.159, 6336.597
1106.641, 6358.432
1107.124, 6378.760
1107.606, 6385.969
1108.088, 6386.134
1108.570, 6389.767
1109.052, 6395.521
1109.534, 6385.969
1110.016, 6333.297
1110.498, 6307.016
1110.980, 6336.530
1111.463, 6366.108
1111.945, 6377.498
1112.427, 6373.354
1112.909, 6344.790
1113.391, 6297.445
1113.873, 6285.686
1114.355, 6345.348
1114.837, 6383.765
1115.319, 6391.810
1115.802, 6390.380
1116.284, 6383.986
1116.766, 6373.929
1117.248, 6358.563
1117.730, 6339.933
1118.212, 6332.508
1118.694, 6344.380
1119.176, 6349.178
1119.659, 6339.020
1120.141, 6335.959
1120.623, 6349.677
1121.105, 6371.179
1121.587, 6396.615
1122.069, 6421.335
1122.551, 6423.100
1123.033, 6393.749
1123.516, 6365.898
1123.998, 6334.549
1124.480, 6322.120
1124.962, 6344.263
1125.444, 6367.515
1125.926, 6358.394
1126.408, 6329.865
1126.890, 6326.012
1127.372, 6351.339
1127.854, 6373.086
1128.337, 6391.250
1128.819, 6405.028
1129.301, 6414.818
1129.783, 6416.357
1130.265, 6404.660
1130.747, 6385.798
1131.229, 6370.754
1131.711, 6359.537
1132.194, 6379.307
1132.676, 6431.751
1133.158, 6449.590
1133.640, 6414.892
1134.122, 6382.564
1134.604, 6392.606
1135.086, 6420.359
1135.568, 6416.817
1136.051, 6390.113
1136.533, 6389.697
1137.015, 6411.946
1137.497, 6429.656
1137.979, 6436.762
1138.461, 6430.094
1138.943, 6406.701
1139.425, 6382.747
1139.907, 6382.877
1140.390, 6398.548
1140.872, 6413.095
1141.354, 6423.904
1141.836, 6415.691
1142.318, 6392.750
1142.800, 6388.867
1143.282, 6419.729
1143.764, 6451.907
1144.246, 6446.194
1144.729, 6425.511
1145.211, 6421.184
1145.693, 6426.457
1146.175, 6429.515
1146.657, 6430.448
1147.139, 6438.380
1147.621, 6455.340
1148.103, 6461.038
1148.586, 6425.537
1149.068, 6390.604
1149.550, 6396.881
1150.032, 6419.840
1150.514, 6435.037
1150.996, 6442.490
1151.478, 6446.908
1151.960, 6450.021
1152.443, 6456.250
1152.925, 6476.265
1153.407, 6486.854
1153.889, 6468.062
1154.371, 6444.162
1154.853, 6431.270
1155.335, 6426.462
1155.817, 6424.070
1156.299, 6423.429
1156.781, 6426.143
1157.264, 6434.211
1157.746, 6442.683
1158.228, 6453.756
1158.710, 6461.121
1159.192, 6456.622
1159.674, 6450.937
1160.156, 6458.037
1160.638, 6475.028
1161.121, 6483.896
1161.603, 6479.382
1162.085, 6477.898
1162.567, 6482.108
1163.049, 6485.071
1163.531, 6484.350
1164.013, 6482.662
1164.495, 6482.058
1164.978, 6482.037
1165.460, 6480.520
1165.942, 6476.095
1166.424, 6481.918
1166.906, 6503.417
1167.388, 6512.529
1167.870, 6500.567
1168.352, 6486.608
1168.834, 6481.808
1169.317, 6483.878
1169.799, 6491.468
1170.281, 6502.564
1170.763, 6495.593
1171.245, 6471.386
1171.727, 6466.296
1172.209, 6484.812
1172.691, 6500.232
1173.173, 6500.254
1173.656, 6497.976
1174.138, 6509.118
1174.620, 6526.249
1175.102, 6530.244
1175.584, 6526.297
1176.066, 6532.239
1176.548, 6545.983
1177.030, 6551.217
1177.513, 6544.164
1177.995, 6538.432
1178.477, 6544.363
1178.959, 6554.234
1179.441, 6562.548
1179.923, 6566.928
1180.405, 6562.243
1180.887, 6551.958
1181.370, 6541.974
1181.852, 6533.511
1182.334, 6524.478
1182.816, 6511.876
1183.298, 6508.130
1183.780, 6533.217
1184.262, 6554.782
1184.744, 6537.751
1185.226, 6516.980
1185.708, 6537.173
1186.191, 6584.749
1186.673, 6613.947
1187.155, 6613.833
1187.637, 6615.334
1188.119, 6636.967
1188.601, 6643.440
1189.083, 6612.085
1189.565, 6577.594
1190.048, 6556.490
1190.530, 6548.884
1191.012, 6562.034
1191.494, 6595.497
1191.976, 6597.441
1192.458, 6545.970
1192.940, 6522.281
1193.422, 6538.889
1193.905, 6568.252
1194.387, 6606.662
1194.869, 6634.190
1195.351, 6627.615
1195.833, 6597.826
1196.315, 6579.434
1196.797, 6572.419
1197.279, 6580.726
1197.761, 6604.094
1198.244, 6615.528
1198.726, 6608.434
1199.208, 6604.874
1199.690, 6620.320
1200.172, 6640.161
1200.654, 6640.700
1201.136, 6629.756
1201.618, 6623.718
1202.100, 6622.663
1202.583, 6629.613
1203.065, 6641.572
1203.547, 6645.558
1204.029, 6636.919
1204.511, 6628.789
1204.993, 6634.104
1205.475, 6641.076
1205.957, 6638.529
1206.440, 6632.806
1206.922, 6626.807
1207.404, 6624.689
1207.886, 6639.341
1208.368, 6667.872
1208.850, 6675.063
1209.332, 6629.213
1209.814, 6601.846
1210.297, 6630.795
1210.779, 6662.597
1211.261, 6676.255
1211.743, 6676.992
1212.225, 6659.070
1212.707, 6634.018
1213.189, 6643.658
1213.671, 6704.211
1214.153, 6726.894
1214.635, 6690.801
1215.118, 6667.982
1215.600, 6675.276
1216.082, 6688.918
1216.564, 6698.347
1217.046, 6699.070
1217.528, 6680.788
1218.010, 6649.629
1218.492, 6646.105
1218.975, 6668.832
1219.457, 6681.729
1219.939, 6682.064
1220.421, 6680.473
1220.903, 6680.683
1221.385, 6682.303
1221.867, 6685.056
1222.349, 6688.818
1222.832, 6696.203
1223.314, 6702.693
1223.796, 6692.687
1224.278, 6677.831
1224.760, 6692.189
1225.242, 6729.507
1225.724, 6743.958
1226.206, 6715.309
1226.688, 6686.153
1227.171, 6677.501
1227.653, 6683.021
1228.135, 6717.699
1228.617, 6747.246
1229.099, 6730.097
1229.581, 6690.895
1230.063, 6674.641
1230.545, 6686.113
1231.027, 6704.744
1231.510, 6739.449
1231.992, 6762.648
1232.474, 6773.897
1232.956, 6771.761
1233.438, 6747.521
1233.920, 6722.122
1234.402, 6714.201
1234.884, 6718.626
1235.367, 6721.187
1235.849, 6721.491
1236.331, 6727.085
1236.813, 6738.036
1237.295, 6755.026
1237.777, 6778.153
1238.259, 6783.187
1238.741, 6757.028
1239.224, 6728.692
1239.706, 6734.054
1240.188, 6755.585
1240.670, 6760.275
1241.152, 6754.111
1241.634, 6748.470
1242.116, 6743.655
1242.598, 6732.036
1243.080, 6716.222
1243.563, 6720.926
1244.045, 6766.540
1244.527, 6805.077
1245.009, 6805.922
1245.491, 6790.387
1245.973, 6756.637
1246.455, 6727.257
1246.937, 6729.403
1247.419, 6752.314
1247.902, 6767.537
1248.384, 6771.348
1248.866, 6774.230
1249.348, 6776.254
1249.830, 6778.880
1250.312, 6787.132
1250.794, 6784.775
1251.276, 6757.427
1251.759, 6732.637
1252.241, 6740.122
1252.723, 6770.843
1253.205, 6801.277
1253.687, 6830.839
1254.169, 6829.543
1254.651, 6800.125
1255.133, 6785.562
1255.615, 6793.158
1256.098, 6801.493
1256.580, 6799.354
1257.062, 6795.743
1257.544, 6802.482
1258.026, 6810.633
1258.508, 6802.877
1258.990, 6792.553
1259.472, 6807.992
1259.955, 6832.697
1260.437, 6821.572
1260.919, 6775.768
1261.401, 6757.491
1261.883, 6804.575
1262.365, 6839.637
1262.847, 6818.312
1263.329, 6805.254
1263.812, 6839.094
1264.294, 6880.454
1264.776, 6901.921
1265.258, 6906.474
1265.740, 6896.369
1266.222, 6871.416
1266.704, 6865.196
1267.186, 6884.272
1267.668, 6884.891
1268.151, 6859.895
1268.633, 6843.023
1269.115, 6846.877
1269.597, 6853.639
1270.079, 6847.063
1270.561, 6838.614
1271.043, 6853.751
1271.525, 6879.763
1272.007, 6883.951
1272.490, 6875.634
1272.972, 6883.139
1273.454, 6902.331
1273.936, 6901.370
1274.418, 6870.562
1274.900, 6848.184
1275.382, 6863.271
##END=



