##NAMES=Lomonosovite
##RRUFFID=R070465
##IDEAL CHEMISTRY=Na_6_Na_2_Ti^4+^_2_Na_2_Ti^4+^_2_(Si_2_O_7_)_2_(PO_4_)_2_O_4_
##LOCALITY=Apatitovyi Tsirk (Apatite Circus), Rasvumchorr Mountain, Khibiny Massif, Kola Peninsula, Murmanskaja Oblast', Northern Region, Russia
##OWNER=RRUFF
##SOURCE=Michael Scott
##DESCRIPTION=Light tan platy crystals associated with orthoclase and lamprophyllite
##STATUS=The identification of this mineral is confirmed by single-crystal X-ray diffraction and chemical analysis.
##URL=rruff.info/R070465
##MEASURED CHEMISTRY=(Na_4.77_Ca_0.20_Mn_0.03_)_Σ=5_(Ti_1.79_Fe^3+^_0.19_Mg_0.02_)_Σ=2_(Si_2.00_O_7_)(P_1.00_O_4_)O_2_
145.5055, 9101.281
145.9876, 9462.577
146.4697, 9789.598
146.9518, 10068.99
147.4340, 10331.05
147.9161, 10647.52
148.3982, 11050.28
148.8803, 11413.41
149.3624, 11703.58
149.8445, 11935.13
150.3267, 12129.17
150.8088, 12287.86
151.2909, 12424.22
151.7730, 12571.95
152.2551, 12749.68
152.7372, 12884.03
153.2194, 12927.18
153.7015, 12903.61
154.1836, 12874.36
154.6657, 12857.44
155.1478, 12847.26
155.6299, 12836.44
156.1121, 12827.47
156.5942, 12810.10
157.0763, 12763.60
157.5584, 12699.95
158.0405, 12666.89
158.5226, 12687.22
159.0048, 12739.97
159.4869, 12791.55
159.9690, 12840.33
160.4511, 12894.54
160.9332, 12960.10
161.4153, 13007.55
161.8975, 12982.51
162.3796, 12933.24
162.8617, 12874.78
163.3438, 12825.24
163.8259, 12787.13
164.3080, 12748.69
164.7902, 12705.82
165.2723, 12658.59
165.7544, 12598.29
166.2365, 12510.34
166.7186, 12421.56
167.2007, 12361.57
167.6829, 12334.99
168.1650, 12306.23
168.6471, 12246.90
169.1292, 12158.03
169.6113, 12059.27
170.0934, 11949.46
170.5756, 11836.81
171.0577, 11724.10
171.5398, 11611.84
172.0219, 11506.80
172.5040, 11414.59
172.9861, 11334.85
173.4683, 11265.53
173.9504, 11208.47
174.4325, 11159.25
174.9146, 11121.09
175.3967, 11092.86
175.8788, 11057.59
176.3610, 10988.67
176.8431, 10880.01
177.3252, 10796.19
177.8073, 10767.11
178.2894, 10751.89
178.7715, 10729.34
179.2537, 10696.85
179.7358, 10662.61
180.2179, 10636.89
180.7000, 10621.48
181.1821, 10598.85
181.6642, 10553.70
182.1464, 10510.37
182.6285, 10484.70
183.1106, 10476.43
183.5927, 10469.94
184.0748, 10446.45
184.5569, 10402.23
185.0391, 10367.37
185.5212, 10360.91
186.0033, 10351.82
186.4854, 10321.12
186.9675, 10270.42
187.4496, 10219.24
187.9318, 10185.49
188.4139, 10170.55
188.8960, 10165.33
189.3781, 10186.53
189.8602, 10203.77
190.3423, 10201.57
190.8245, 10181.45
191.3066, 10156.57
191.7887, 10141.25
192.2708, 10138.10
192.7529, 10125.64
193.2350, 10091.52
193.7172, 10058.05
194.1993, 10031.05
194.6814, 10011.95
195.1635, 10001.61
195.6456, 10003.53
196.1277, 10019.64
196.6099, 10028.26
197.0920, 10023.80
197.5741, 10016.65
198.0562, 10005.76
198.5383, 9994.414
199.0204, 9990.295
199.5026, 10002.57
199.9847, 10032.31
200.4668, 10050.16
200.9489, 10049.70
201.4310, 10042.37
201.9131, 10026.46
202.3953, 10005.78
202.8774, 9987.378
203.3595, 9976.551
203.8416, 9973.056
204.3237, 9971.566
204.8058, 9973.889
205.2880, 9976.414
205.7701, 9984.403
206.2522, 9991.473
206.7343, 9985.245
207.2164, 9954.647
207.6985, 9903.511
208.1807, 9866.879
208.6628, 9853.778
209.1449, 9846.321
209.6270, 9849.234
210.1091, 9853.424
210.5912, 9843.719
211.0734, 9808.723
211.5555, 9756.293
212.0376, 9725.243
212.5197, 9741.009
213.0018, 9746.336
213.4839, 9720.598
213.9661, 9681.873
214.4482, 9653.721
214.9303, 9648.373
215.4124, 9658.819
215.8945, 9663.893
216.3766, 9669.530
216.8587, 9659.158
217.3409, 9617.627
217.8230, 9566.401
218.3051, 9527.840
218.7872, 9511.243
219.2693, 9508.849
219.7514, 9505.299
220.2336, 9509.746
220.7157, 9494.986
221.1978, 9444.007
221.6799, 9383.808
222.1620, 9337.071
222.6441, 9310.560
223.1263, 9296.785
223.6084, 9284.283
224.0905, 9276.117
224.5726, 9261.999
225.0547, 9240.315
225.5368, 9214.189
226.0190, 9181.236
226.5011, 9142.968
226.9832, 9109.008
227.4653, 9096.340
227.9474, 9117.058
228.4296, 9121.653
228.9117, 9091.224
229.3938, 9059.263
229.8759, 9049.758
230.3580, 9060.836
230.8401, 9068.409
231.3223, 9041.745
231.8044, 8970.899
232.2865, 8919.762
232.7686, 8902.439
233.2507, 8893.427
233.7328, 8882.696
234.2150, 8871.310
234.6971, 8867.041
235.1792, 8881.486
235.6613, 8915.104
236.1434, 8924.277
236.6255, 8870.089
237.1077, 8830.908
237.5898, 8848.993
238.0719, 8900.805
238.5540, 8935.244
239.0361, 8911.755
239.5182, 8842.745
240.0004, 8807.008
240.4825, 8830.196
240.9646, 8853.755
241.4467, 8857.933
241.9288, 8852.188
242.4109, 8851.097
242.8931, 8863.486
243.3752, 8882.981
243.8573, 8889.318
244.3394, 8869.730
244.8215, 8862.875
245.3036, 8894.366
245.7858, 8935.276
246.2679, 8954.074
246.7500, 8938.077
247.2321, 8904.818
247.7142, 8879.558
248.1963, 8858.283
248.6785, 8858.420
249.1606, 8912.398
249.6427, 8971.484
250.1248, 8994.814
250.6069, 8972.920
251.0890, 8943.105
251.5712, 8955.173
252.0533, 9016.338
252.5354, 9055.221
253.0175, 9030.787
253.4996, 9003.102
253.9817, 9014.912
254.4639, 9066.213
254.9460, 9119.260
255.4281, 9137.674
255.9102, 9124.615
256.3923, 9126.163
256.8745, 9152.476
257.3566, 9187.507
257.8387, 9225.985
258.3208, 9265.188
258.8029, 9294.877
259.2850, 9301.549
259.7672, 9293.473
260.2493, 9300.915
260.7314, 9332.960
261.2135, 9362.493
261.6956, 9366.468
262.1777, 9356.772
262.6599, 9356.353
263.1420, 9378.883
263.6241, 9412.420
264.1062, 9442.014
264.5883, 9469.677
265.0704, 9483.164
265.5526, 9461.558
266.0347, 9425.958
266.5168, 9407.474
266.9989, 9419.490
267.4810, 9438.082
267.9631, 9441.590
268.4453, 9430.551
268.9274, 9414.685
269.4095, 9395.297
269.8916, 9374.625
270.3737, 9355.644
270.8558, 9338.022
271.3380, 9322.918
271.8201, 9312.340
272.3022, 9304.806
272.7843, 9297.216
273.2664, 9291.403
273.7485, 9279.729
274.2307, 9246.470
274.7128, 9190.522
275.1949, 9142.047
275.6770, 9117.896
276.1591, 9104.336
276.6412, 9077.089
277.1234, 9030.021
277.6055, 8987.926
278.0876, 8983.409
278.5697, 9016.128
279.0518, 9024.640
279.5339, 8974.351
280.0161, 8918.586
280.4982, 8908.989
280.9803, 8943.466
281.4624, 8976.681
281.9445, 8975.759
282.4266, 8943.872
282.9088, 8920.330
283.3909, 8912.174
283.8730, 8904.324
284.3551, 8882.805
284.8372, 8856.307
285.3193, 8849.324
285.8015, 8877.978
286.2836, 8926.133
286.7657, 8940.663
287.2478, 8882.679
287.7299, 8844.454
288.2120, 8853.669
288.6942, 8882.802
289.1763, 8896.404
289.6584, 8883.816
290.1405, 8864.369
290.6226, 8869.480
291.1047, 8916.331
291.5869, 8952.084
292.0690, 8966.795
292.5511, 8978.711
293.0332, 9007.000
293.5153, 9049.069
293.9974, 9080.504
294.4796, 9071.732
294.9617, 9013.222
295.4438, 8995.604
295.9259, 9064.015
296.4080, 9125.141
296.8901, 9138.981
297.3723, 9120.256
297.8544, 9103.128
298.3365, 9109.275
298.8186, 9135.035
299.3007, 9161.167
299.7828, 9186.962
300.2650, 9214.057
300.7471, 9246.452
301.2292, 9278.482
301.7113, 9303.505
302.1934, 9318.983
302.6755, 9328.458
303.1577, 9336.580
303.6398, 9341.046
304.1219, 9351.605
304.6040, 9384.153
305.0861, 9412.846
305.5682, 9417.193
306.0504, 9397.009
306.5325, 9373.498
307.0146, 9368.354
307.4967, 9381.038
307.9788, 9387.581
308.4609, 9383.313
308.9431, 9376.748
309.4252, 9376.819
309.9073, 9379.394
310.3894, 9372.747
310.8715, 9347.408
311.3536, 9309.877
311.8358, 9272.014
312.3179, 9231.240
312.8000, 9199.125
313.2821, 9190.043
313.7642, 9191.540
314.2463, 9186.276
314.7285, 9169.375
315.2106, 9147.473
315.6927, 9125.053
316.1748, 9102.336
316.6569, 9080.392
317.1390, 9059.284
317.6212, 9039.549
318.1033, 9019.416
318.5854, 8995.695
319.0675, 8984.954
319.5496, 9014.311
320.0317, 9055.309
320.5139, 9051.314
320.9960, 8986.971
321.4781, 8914.562
321.9602, 8893.099
322.4423, 8928.985
322.9244, 8953.408
323.4066, 8958.126
323.8887, 8954.394
324.3708, 8944.978
324.8529, 8932.799
325.3350, 8927.356
325.8171, 8935.814
326.2993, 8956.450
326.7814, 8975.951
327.2635, 9000.021
327.7456, 9016.645
328.2277, 9016.760
328.7098, 9009.502
329.1920, 9007.632
329.6741, 9016.145
330.1562, 9030.657
330.6383, 9042.955
331.1204, 9053.211
331.6025, 9060.771
332.0847, 9063.292
332.5668, 9065.446
333.0489, 9068.568
333.5310, 9073.948
334.0131, 9084.596
334.4952, 9104.623
334.9774, 9134.618
335.4595, 9161.685
335.9416, 9192.052
336.4237, 9212.087
336.9058, 9201.570
337.3879, 9180.767
337.8701, 9185.974
338.3522, 9241.104
338.8343, 9322.159
339.3164, 9370.433
339.7985, 9372.901
340.2806, 9380.536
340.7627, 9415.268
341.2448, 9457.343
341.7270, 9492.385
342.2091, 9517.780
342.6912, 9535.569
343.1733, 9538.423
343.6554, 9530.472
344.1375, 9548.559
344.6197, 9615.824
345.1018, 9682.852
345.5839, 9701.605
346.0660, 9681.298
346.5481, 9663.696
347.0302, 9670.750
347.5124, 9684.860
347.9945, 9677.265
348.4766, 9646.733
348.9587, 9626.993
349.4408, 9644.717
349.9229, 9688.402
350.4051, 9711.952
350.8872, 9705.615
351.3693, 9692.755
351.8514, 9687.571
352.3335, 9682.605
352.8156, 9658.059
353.2978, 9605.303
353.7799, 9545.417
354.2620, 9514.056
354.7441, 9532.211
355.2262, 9532.345
355.7083, 9501.444
356.1905, 9461.778
356.6726, 9428.969
357.1547, 9403.716
357.6368, 9378.979
358.1189, 9348.838
358.6010, 9313.378
359.0832, 9277.016
359.5653, 9234.460
360.0474, 9196.761
360.5295, 9171.918
361.0116, 9151.609
361.4937, 9125.383
361.9759, 9088.811
362.4580, 9044.229
362.9401, 8992.688
363.4222, 8927.279
363.9043, 8875.883
364.3864, 8854.010
364.8686, 8837.506
365.3507, 8810.781
365.8328, 8774.598
366.3149, 8742.052
366.7970, 8725.771
367.2791, 8722.567
367.7613, 8716.887
368.2434, 8710.191
368.7255, 8697.276
369.2076, 8670.974
369.6897, 8637.381
370.1718, 8605.514
370.6540, 8577.051
371.1361, 8551.885
371.6182, 8529.174
372.1003, 8509.289
372.5824, 8494.908
373.0645, 8487.521
373.5467, 8485.416
374.0288, 8485.605
374.5109, 8487.310
374.9930, 8493.928
375.4751, 8511.699
375.9572, 8532.097
376.4394, 8544.384
376.9215, 8547.691
377.4036, 8550.064
377.8857, 8558.615
378.3678, 8573.364
378.8499, 8584.115
379.3321, 8590.749
379.8142, 8594.261
380.2963, 8594.005
380.7784, 8591.002
381.2605, 8586.888
381.7426, 8582.366
382.2248, 8576.585
382.7069, 8566.128
383.1890, 8540.420
383.6711, 8533.087
384.1532, 8554.083
384.6353, 8583.516
385.1175, 8618.158
385.5996, 8652.117
386.0817, 8671.382
386.5638, 8659.471
387.0459, 8622.070
387.5280, 8595.265
388.0102, 8577.216
388.4923, 8574.049
388.9744, 8605.402
389.4565, 8645.367
389.9386, 8656.935
390.4207, 8622.403
390.9029, 8585.070
391.3850, 8598.871
391.8671, 8655.257
392.3492, 8687.356
392.8313, 8674.690
393.3134, 8639.879
393.7956, 8598.875
394.2777, 8552.210
394.7598, 8526.900
395.2419, 8543.979
395.7240, 8576.176
396.2061, 8602.664
396.6883, 8620.829
397.1704, 8625.487
397.6525, 8611.190
398.1346, 8582.074
398.6167, 8557.120
399.0988, 8529.813
399.5810, 8514.336
400.0631, 8529.149
400.5452, 8549.545
401.0273, 8543.371
401.5094, 8504.816
401.9915, 8459.376
402.4737, 8439.488
402.9558, 8452.232
403.4379, 8453.114
403.9200, 8427.476
404.4021, 8404.551
404.8842, 8398.274
405.3664, 8400.915
405.8485, 8396.101
406.3306, 8373.818
406.8127, 8344.007
407.2948, 8328.997
407.7769, 8332.720
408.2591, 8333.490
408.7412, 8319.032
409.2233, 8304.733
409.7054, 8305.044
410.1875, 8320.308
410.6696, 8334.689
411.1518, 8339.640
411.6339, 8337.251
412.1160, 8326.168
412.5981, 8303.790
413.0802, 8296.698
413.5623, 8334.740
414.0445, 8403.694
414.5266, 8437.334
415.0087, 8412.143
415.4908, 8379.738
415.9729, 8358.635
416.4550, 8345.498
416.9372, 8333.512
417.4193, 8320.474
417.9014, 8311.903
418.3835, 8317.199
418.8656, 8344.783
419.3477, 8356.723
419.8299, 8340.162
420.3120, 8322.820
420.7941, 8327.935
421.2762, 8342.380
421.7583, 8332.357
422.2404, 8274.654
422.7226, 8191.341
423.2047, 8144.424
423.6868, 8148.394
424.1689, 8154.176
424.6510, 8159.304
425.1331, 8158.375
425.6153, 8140.514
426.0974, 8107.567
426.5795, 8083.933
427.0616, 8100.277
427.5437, 8139.357
428.0258, 8145.131
428.5080, 8108.324
428.9901, 8067.346
429.4722, 8048.170
429.9543, 8041.179
430.4364, 8020.912
430.9185, 7969.107
431.4007, 7929.506
431.8828, 7936.500
432.3649, 7968.818
432.8470, 7987.139
433.3291, 7980.858
433.8112, 7960.455
434.2934, 7935.900
434.7755, 7903.688
435.2576, 7888.357
435.7397, 7903.020
436.2218, 7919.041
436.7039, 7924.014
437.1861, 7921.193
437.6682, 7918.769
438.1503, 7920.934
438.6324, 7924.504
439.1145, 7921.129
439.5966, 7905.909
440.0788, 7898.205
440.5609, 7917.115
441.0430, 7930.393
441.5251, 7910.074
442.0072, 7864.099
442.4893, 7831.125
442.9715, 7846.772
443.4536, 7887.137
443.9357, 7896.474
444.4178, 7870.517
444.8999, 7849.375
445.3820, 7856.914
445.8642, 7876.984
446.3463, 7878.252
446.8284, 7855.807
447.3105, 7830.251
447.7926, 7806.469
448.2747, 7785.324
448.7569, 7769.125
449.2390, 7757.868
449.7211, 7746.749
450.2032, 7730.305
450.6853, 7709.162
451.1674, 7701.453
451.6496, 7729.241
452.1317, 7743.275
452.6138, 7723.595
453.0959, 7689.465
453.5780, 7664.535
454.0602, 7655.075
454.5423, 7648.091
455.0244, 7620.440
455.5065, 7567.132
455.9886, 7548.086
456.4707, 7601.334
456.9529, 7639.393
457.4350, 7605.562
457.9171, 7532.505
458.3992, 7481.084
458.8813, 7475.620
459.3634, 7490.992
459.8456, 7510.633
460.3277, 7531.343
460.8098, 7534.046
461.2919, 7511.809
461.7740, 7473.653
462.2561, 7423.485
462.7383, 7358.912
463.2204, 7317.327
463.7025, 7320.431
464.1846, 7331.341
464.6667, 7329.629
465.1488, 7316.352
465.6310, 7296.582
466.1131, 7272.400
466.5952, 7247.515
467.0773, 7230.105
467.5594, 7220.891
468.0415, 7218.466
468.5237, 7231.698
469.0058, 7243.249
469.4879, 7247.549
469.9700, 7242.023
470.4521, 7220.858
470.9342, 7172.417
471.4164, 7113.785
471.8985, 7089.985
472.3806, 7106.892
472.8627, 7120.209
473.3448, 7114.634
473.8269, 7098.315
474.3091, 7078.295
474.7912, 7053.286
475.2733, 7040.423
475.7554, 7061.791
476.2375, 7089.627
476.7196, 7087.017
477.2018, 7055.078
477.6839, 7022.741
478.1660, 7007.184
478.6481, 7005.608
479.1302, 7006.994
479.6123, 7017.303
480.0945, 7022.575
480.5766, 7019.013
481.0587, 7012.493
481.5408, 7006.839
482.0229, 7002.905
482.5050, 7000.455
482.9872, 6999.164
483.4693, 6999.201
483.9514, 7002.771
484.4335, 7013.982
484.9156, 7019.042
485.3977, 7004.921
485.8799, 6986.764
486.3620, 6978.339
486.8441, 6981.701
487.3262, 6990.528
487.8083, 7005.846
488.2904, 7022.691
488.7726, 7032.839
489.2547, 7035.473
489.7368, 7028.803
490.2189, 7006.167
490.7010, 6974.545
491.1831, 6970.242
491.6653, 7027.115
492.1474, 7062.968
492.6295, 7054.033
493.1116, 7025.054
493.5937, 6996.743
494.0758, 6973.657
494.5580, 6950.439
495.0401, 6918.816
495.5222, 6881.893
496.0043, 6877.208
496.4864, 6931.158
496.9685, 6969.132
497.4507, 6959.195
497.9328, 6928.939
498.4149, 6901.834
498.8970, 6881.695
499.3791, 6868.100
499.8612, 6862.085
500.3434, 6862.049
500.8255, 6868.588
501.3076, 6882.470
501.7897, 6885.167
502.2718, 6857.506
502.7539, 6810.391
503.2361, 6793.631
503.7182, 6831.937
504.2003, 6861.273
504.6824, 6863.745
505.1645, 6855.319
505.6466, 6849.807
506.1288, 6849.991
506.6109, 6854.099
507.0930, 6861.981
507.5751, 6872.204
508.0572, 6871.944
508.5393, 6850.558
509.0215, 6838.946
509.5036, 6858.644
509.9857, 6882.558
510.4678, 6882.963
510.9499, 6856.649
511.4320, 6832.914
511.9142, 6836.357
512.3963, 6853.736
512.8784, 6858.465
513.3605, 6848.991
513.8427, 6837.086
514.3248, 6829.759
514.8069, 6824.485
515.2890, 6812.223
515.7711, 6778.632
516.2532, 6764.485
516.7354, 6792.255
517.2175, 6828.737
517.6996, 6847.959
518.1817, 6848.580
518.6638, 6840.007
519.1459, 6826.634
519.6281, 6813.087
520.1102, 6818.133
520.5923, 6849.192
521.0744, 6879.679
521.5565, 6904.040
522.0386, 6925.433
522.5208, 6949.159
523.0029, 6973.789
523.4850, 6986.380
523.9671, 6965.127
524.4492, 6937.248
524.9313, 6938.136
525.4135, 6966.608
525.8956, 7010.540
526.3777, 7069.010
526.8598, 7129.856
527.3419, 7169.624
527.8240, 7176.524
528.3062, 7189.157
528.7883, 7200.467
529.2704, 7223.963
529.7525, 7278.606
530.2346, 7350.695
530.7167, 7409.706
531.1989, 7439.632
531.6810, 7454.833
532.1631, 7482.459
532.6452, 7524.679
533.1273, 7562.465
533.6094, 7590.167
534.0916, 7616.894
534.5737, 7650.369
535.0558, 7688.405
535.5379, 7723.772
536.0200, 7751.899
536.5021, 7779.716
536.9843, 7815.997
537.4664, 7855.083
537.9485, 7880.686
538.4306, 7887.943
538.9127, 7896.364
539.3948, 7931.179
539.8770, 7996.977
540.3591, 8039.274
540.8412, 8031.030
541.3233, 8031.203
541.8054, 8064.063
542.2875, 8107.481
542.7697, 8136.976
543.2518, 8145.859
543.7339, 8141.234
544.2160, 8119.768
544.6981, 8088.796
545.1802, 8087.966
545.6624, 8127.917
546.1445, 8157.104
546.6266, 8141.738
547.1087, 8097.623
547.5908, 8064.678
548.0729, 8043.030
548.5551, 8030.962
549.0372, 8040.466
549.5193, 8050.731
550.0014, 8038.927
550.4835, 8006.675
550.9656, 7970.855
551.4478, 7941.879
551.9299, 7919.691
552.4120, 7905.484
552.8941, 7905.527
553.3762, 7897.754
553.8583, 7868.950
554.3405, 7839.404
554.8226, 7823.868
555.3047, 7818.877
555.7868, 7808.497
556.2689, 7787.616
556.7510, 7756.365
557.2332, 7706.149
557.7153, 7643.716
558.1974, 7597.550
558.6795, 7577.151
559.1616, 7571.237
559.6437, 7566.338
560.1259, 7561.973
560.6080, 7562.802
561.0901, 7578.341
561.5722, 7587.629
562.0543, 7580.780
562.5364, 7565.222
563.0186, 7545.481
563.5007, 7524.435
563.9828, 7515.532
564.4649, 7543.566
564.9470, 7600.646
565.4291, 7630.848
565.9113, 7626.158
566.3934, 7618.800
566.8755, 7622.583
567.3576, 7635.871
567.8397, 7654.509
568.3218, 7679.821
568.8040, 7706.174
569.2861, 7734.433
569.7682, 7760.954
570.2503, 7780.755
570.7324, 7795.293
571.2145, 7809.840
571.6967, 7827.358
572.1788, 7848.206
572.6609, 7874.977
573.1430, 7912.704
573.6251, 7940.226
574.1072, 7949.705
574.5894, 7953.943
575.0715, 7957.297
575.5536, 7961.049
576.0357, 7968.607
576.5178, 7986.019
576.9999, 7999.780
577.4821, 7997.422
577.9642, 7982.845
578.4463, 7966.060
578.9284, 7949.242
579.4105, 7926.252
579.8926, 7889.058
580.3748, 7838.875
580.8569, 7803.831
581.3390, 7797.123
581.8211, 7789.818
582.3032, 7778.308
582.7853, 7765.180
583.2675, 7756.552
583.7496, 7750.565
584.2317, 7734.184
584.7138, 7691.005
585.1959, 7634.984
585.6780, 7596.836
586.1602, 7576.391
586.6422, 7557.728
587.1243, 7538.109
587.6064, 7512.829
588.0886, 7474.548
588.5707, 7421.132
589.0528, 7365.440
589.5349, 7302.137
590.0170, 7242.313
590.4991, 7187.972
590.9813, 7141.888
591.4634, 7112.140
591.9455, 7099.954
592.4276, 7087.911
592.9097, 7052.660
593.3918, 6996.293
593.8740, 6945.345
594.3561, 6898.477
594.8382, 6861.252
595.3203, 6849.148
595.8024, 6840.951
596.2845, 6798.126
596.7667, 6709.565
597.2488, 6630.436
597.7309, 6580.238
598.2130, 6542.780
598.6951, 6504.020
599.1772, 6465.236
599.6594, 6436.138
600.1415, 6421.898
600.6236, 6413.419
601.1057, 6393.606
601.5878, 6360.635
602.0699, 6326.022
602.5521, 6288.140
603.0342, 6251.726
603.5163, 6218.007
603.9984, 6187.661
604.4805, 6160.817
604.9626, 6136.335
605.4448, 6119.217
605.9269, 6120.431
606.4090, 6126.660
606.8911, 6119.575
607.3732, 6097.640
607.8553, 6066.396
608.3375, 6028.433
608.8196, 5986.906
609.3017, 5950.398
609.7838, 5915.792
610.2659, 5893.245
610.7480, 5888.871
611.2302, 5891.749
611.7123, 5903.854
612.1944, 5918.726
612.6765, 5921.590
613.1586, 5903.950
613.6407, 5880.217
614.1229, 5861.373
614.6050, 5846.185
615.0871, 5831.289
615.5692, 5816.188
616.0513, 5803.086
616.5334, 5794.418
617.0156, 5788.833
617.4977, 5778.546
617.9798, 5753.599
618.4619, 5739.657
618.9440, 5741.024
619.4261, 5750.724
619.9083, 5770.212
620.3904, 5794.368
620.8725, 5809.787
621.3546, 5807.158
621.8367, 5797.501
622.3188, 5796.070
622.8010, 5799.179
623.2831, 5788.567
623.7652, 5758.754
624.2473, 5733.935
624.7294, 5738.028
625.2115, 5767.716
625.6937, 5784.346
626.1758, 5771.299
626.6579, 5766.994
627.1400, 5783.462
627.6221, 5803.309
628.1042, 5812.501
628.5864, 5811.706
629.0685, 5809.722
629.5506, 5810.223
630.0327, 5814.143
630.5148, 5823.370
630.9969, 5837.496
631.4791, 5854.934
631.9612, 5876.203
632.4433, 5895.820
632.9254, 5908.767
633.4075, 5915.151
633.8896, 5917.126
634.3718, 5908.801
634.8539, 5904.048
635.3360, 5911.862
635.8181, 5918.955
636.3002, 5904.833
636.7823, 5876.163
637.2645, 5867.276
637.7466, 5909.517
638.2287, 5970.428
638.7108, 5992.083
639.1929, 5980.284
639.6750, 5982.869
640.1572, 6014.500
640.6393, 6048.379
641.1214, 6056.102
641.6035, 6038.989
642.0856, 6039.904
642.5677, 6078.368
643.0499, 6107.719
643.5320, 6105.788
644.0141, 6102.627
644.4962, 6130.759
644.9783, 6185.422
645.4604, 6231.568
645.9426, 6243.344
646.4247, 6240.408
646.9068, 6253.519
647.3889, 6280.393
647.8710, 6306.806
648.3531, 6330.190
648.8353, 6347.116
649.3174, 6350.711
649.7995, 6342.882
650.2816, 6353.669
650.7637, 6397.769
651.2458, 6440.223
651.7280, 6478.979
652.2101, 6512.651
652.6922, 6537.553
653.1743, 6556.116
653.6564, 6577.735
654.1385, 6609.631
654.6207, 6643.666
655.1028, 6670.380
655.5849, 6689.954
656.0670, 6700.595
656.5491, 6700.828
657.0313, 6701.935
657.5134, 6711.632
657.9955, 6730.643
658.4776, 6764.257
658.9597, 6840.274
659.4418, 6891.968
659.9240, 6889.980
660.4061, 6885.066
660.8882, 6917.258
661.3703, 6977.340
661.8524, 7029.451
662.3345, 7054.413
662.8167, 7071.247
663.2988, 7101.292
663.7809, 7139.344
664.2630, 7167.223
664.7451, 7182.000
665.2272, 7205.891
665.7094, 7259.008
666.1915, 7329.845
666.6736, 7371.210
667.1557, 7359.683
667.6378, 7361.181
668.1199, 7392.282
668.6021, 7422.560
669.0842, 7432.162
669.5663, 7429.148
670.0484, 7431.963
670.5305, 7446.759
671.0126, 7468.176
671.4948, 7498.990
671.9769, 7531.000
672.4590, 7551.192
672.9411, 7558.115
673.4232, 7552.346
673.9053, 7533.026
674.3875, 7506.116
674.8696, 7484.402
675.3517, 7466.158
675.8338, 7459.421
676.3159, 7482.699
676.7980, 7495.184
677.2802, 7470.780
677.7623, 7428.305
678.2444, 7397.330
678.7265, 7384.793
679.2086, 7374.396
679.6907, 7359.406
680.1729, 7341.638
680.6550, 7320.736
681.1371, 7298.667
681.6192, 7281.501
682.1013, 7271.986
682.5834, 7265.390
683.0656, 7258.481
683.5477, 7252.545
684.0298, 7219.000
684.5119, 7142.003
684.9940, 7072.649
685.4761, 7024.021
685.9583, 7000.033
686.4404, 7017.855
686.9225, 7085.496
687.4046, 7111.851
687.8867, 7038.697
688.3688, 6956.187
688.8510, 6925.423
689.3331, 6921.652
689.8152, 6899.035
690.2973, 6846.844
690.7794, 6790.478
691.2615, 6754.075
691.7437, 6733.861
692.2258, 6717.631
692.7079, 6706.152
693.1900, 6689.527
693.6721, 6662.318
694.1542, 6634.125
694.6364, 6618.024
695.1185, 6614.543
695.6006, 6596.191
696.0827, 6545.803
696.5648, 6503.310
697.0469, 6484.103
697.5291, 6472.696
698.0112, 6452.130
698.4933, 6424.303
698.9754, 6405.717
699.4575, 6408.388
699.9396, 6420.328
700.4218, 6430.267
700.9039, 6436.036
701.3860, 6426.534
701.8681, 6399.391
702.3502, 6369.473
702.8323, 6347.663
703.3145, 6332.411
703.7966, 6317.695
704.2787, 6299.726
704.7608, 6289.911
705.2429, 6294.103
705.7250, 6301.049
706.2072, 6310.904
706.6893, 6318.439
707.1714, 6312.537
707.6535, 6286.975
708.1356, 6262.286
708.6177, 6253.619
709.0999, 6251.088
709.5820, 6239.777
710.0641, 6222.467
710.5462, 6213.261
711.0283, 6218.624
711.5104, 6232.654
711.9926, 6251.322
712.4747, 6275.999
712.9568, 6270.874
713.4389, 6221.746
713.9210, 6179.158
714.4031, 6165.504
714.8853, 6167.069
715.3674, 6165.403
715.8495, 6160.137
716.3316, 6157.404
716.8137, 6169.636
717.2958, 6171.635
717.7780, 6140.798
718.2601, 6098.417
718.7422, 6071.865
719.2243, 6065.152
719.7064, 6063.747
720.1885, 6058.362
720.6707, 6049.282
721.1528, 6036.121
721.6349, 6019.307
722.1170, 6002.042
722.5991, 5984.720
723.0812, 5969.906
723.5634, 5961.771
724.0455, 5957.648
724.5276, 5940.865
725.0097, 5900.605
725.4918, 5865.585
725.9739, 5834.273
726.4561, 5811.438
726.9382, 5802.968
727.4203, 5804.585
727.9024, 5807.711
728.3845, 5810.548
728.8666, 5812.466
729.3488, 5811.974
729.8309, 5811.051
730.3130, 5813.347
730.7951, 5817.753
731.2772, 5820.023
731.7593, 5818.259
732.2415, 5812.486
732.7236, 5800.932
733.2057, 5783.538
733.6878, 5772.422
734.1699, 5767.786
734.6520, 5769.679
735.1342, 5785.305
735.6163, 5800.063
736.0984, 5787.048
736.5805, 5743.636
737.0626, 5725.805
737.5447, 5759.952
738.0269, 5791.632
738.5090, 5803.140
738.9911, 5802.521
739.4732, 5792.987
739.9553, 5779.178
740.4374, 5774.509
740.9196, 5791.833
741.4017, 5813.578
741.8838, 5817.268
742.3659, 5806.874
742.8480, 5793.142
743.3301, 5777.970
743.8123, 5760.790
744.2944, 5739.136
744.7765, 5720.305
745.2586, 5729.114
745.7407, 5784.132
746.2228, 5805.290
746.7050, 5764.734
747.1871, 5725.621
747.6692, 5722.305
748.1513, 5736.598
748.6334, 5744.215
749.1155, 5742.889
749.5977, 5736.963
750.0798, 5723.149
750.5619, 5709.582
751.0440, 5698.906
751.5261, 5693.247
752.0082, 5697.852
752.4904, 5712.491
752.9725, 5727.062
753.4546, 5731.907
753.9367, 5731.410
754.4188, 5737.796
754.9009, 5749.518
755.3831, 5750.144
755.8652, 5734.593
756.3473, 5716.959
756.8294, 5709.995
757.3115, 5711.014
757.7936, 5704.642
758.2758, 5681.731
758.7579, 5669.057
759.2400, 5677.129
759.7221, 5687.147
760.2042, 5691.309
760.6863, 5690.852
761.1685, 5688.538
761.6506, 5684.646
762.1327, 5679.634
762.6148, 5671.004
763.0969, 5663.624
763.5790, 5662.133
764.0612, 5665.246
764.5433, 5671.594
765.0254, 5680.075
765.5075, 5685.109
765.9896, 5682.387
766.4717, 5671.316
766.9539, 5642.481
767.4360, 5596.997
767.9181, 5575.453
768.4002, 5592.777
768.8823, 5620.071
769.3644, 5630.511
769.8466, 5626.012
770.3287, 5621.941
770.8108, 5617.368
771.2929, 5614.923
771.7750, 5623.404
772.2571, 5625.485
772.7393, 5606.414
773.2214, 5575.000
773.7035, 5551.247
774.1856, 5542.060
774.6677, 5529.689
775.1498, 5497.188
775.6320, 5465.575
776.1141, 5454.650
776.5962, 5459.603
777.0783, 5471.542
777.5604, 5486.144
778.0425, 5492.389
778.5247, 5472.803
779.0068, 5438.498
779.4889, 5425.040
779.9710, 5431.026
780.4531, 5430.800
780.9352, 5416.076
781.4174, 5403.973
781.8995, 5413.532
782.3816, 5439.047
782.8637, 5442.619
783.3458, 5413.995
783.8279, 5384.362
784.3101, 5345.671
784.7922, 5318.129
785.2743, 5322.384
785.7564, 5342.064
786.2385, 5344.284
786.7206, 5319.977
787.2028, 5296.599
787.6849, 5280.722
788.1670, 5271.244
788.6491, 5269.535
789.1312, 5272.677
789.6133, 5279.637
790.0955, 5288.349
790.5776, 5287.366
791.0597, 5259.660
791.5418, 5222.026
792.0239, 5206.857
792.5060, 5210.589
792.9882, 5221.033
793.4703, 5235.654
793.9524, 5235.912
794.4345, 5203.114
794.9166, 5152.433
795.3987, 5138.168
795.8809, 5175.165
796.3630, 5192.829
796.8451, 5178.894
797.3272, 5158.306
797.8093, 5137.871
798.2914, 5121.467
798.7736, 5118.062
799.2557, 5131.737
799.7378, 5136.653
800.2199, 5116.904
800.7020, 5102.312
801.1841, 5112.815
801.6663, 5131.224
802.1484, 5140.261
802.6305, 5136.565
803.1126, 5120.592
803.5947, 5083.020
804.0768, 5032.285
804.5590, 5055.500
805.0411, 5067.972
805.5232, 5070.276
806.0053, 5031.960
806.4874, 5046.096
806.9695, 5039.212
807.4517, 5031.465
807.9338, 5052.984
808.4159, 5020.576
808.8980, 5041.631
809.3801, 5041.344
809.8622, 5050.825
810.3444, 5039.155
810.8265, 5034.019
811.3086, 5050.039
811.7907, 5054.344
812.2728, 5040.240
812.7549, 5050.341
813.2371, 5017.194
813.7192, 5021.999
814.2013, 5043.177
814.6834, 5030.137
815.1655, 5040.625
815.6476, 5042.152
816.1298, 5002.954
816.6119, 5034.582
817.0940, 5035.579
817.5761, 5005.127
818.0582, 5034.327
818.5403, 5008.211
819.0225, 5001.839
819.5046, 5010.327
819.9867, 5003.324
820.4688, 5020.743
820.9509, 5014.635
821.4330, 5006.425
821.9152, 5007.388
822.3973, 4982.356
822.8794, 5024.877
823.3615, 5051.202
823.8436, 5047.651
824.3257, 5024.739
824.8079, 5010.215
825.2900, 5003.720
825.7721, 5011.536
826.2542, 5042.328
826.7363, 5064.443
827.2184, 5055.088
827.7006, 5034.940
828.1827, 5041.250
828.6648, 5082.345
829.1469, 5104.931
829.6290, 5090.847
830.1111, 5082.667
830.5933, 5101.960
831.0754, 5121.910
831.5575, 5113.794
832.0396, 5084.188
832.5217, 5066.193
833.0038, 5075.233
833.4860, 5086.691
833.9681, 5083.823
834.4502, 5080.373
834.9323, 5092.170
835.4144, 5114.652
835.8965, 5135.137
836.3787, 5149.077
836.8608, 5159.780
837.3429, 5172.876
837.8250, 5183.817
838.3071, 5178.053
838.7892, 5160.941
839.2714, 5156.083
839.7535, 5168.918
840.2356, 5191.076
840.7177, 5217.247
841.1998, 5243.908
841.6819, 5258.582
842.1641, 5259.383
842.6462, 5266.321
843.1283, 5281.325
843.6104, 5301.378
844.0925, 5327.058
844.5746, 5354.410
845.0568, 5375.419
845.5389, 5387.421
846.0210, 5409.874
846.5031, 5460.737
846.9852, 5497.836
847.4673, 5499.260
847.9495, 5496.181
848.4316, 5515.111
848.9137, 5550.910
849.3958, 5581.255
849.8779, 5599.950
850.3600, 5616.191
850.8422, 5633.128
851.3243, 5649.042
851.8064, 5661.236
852.2885, 5672.107
852.7706, 5688.597
853.2527, 5711.414
853.7349, 5728.103
854.2170, 5724.684
854.6991, 5713.785
855.1812, 5712.910
855.6633, 5716.005
856.1454, 5704.859
856.6276, 5680.144
857.1097, 5666.907
857.5918, 5682.700
858.0739, 5708.231
858.5560, 5710.965
859.0381, 5692.694
859.5203, 5662.583
860.0024, 5620.482
860.4845, 5586.981
860.9666, 5570.628
861.4487, 5564.489
861.9308, 5562.663
862.4130, 5563.964
862.8951, 5549.847
863.3772, 5511.385
863.8593, 5483.974
864.3414, 5478.346
864.8235, 5477.023
865.3057, 5472.957
865.7878, 5463.727
866.2699, 5440.969
866.7520, 5397.324
867.2341, 5362.821
867.7162, 5340.633
868.1984, 5325.252
868.6805, 5317.666
869.1626, 5313.911
869.6447, 5310.710
870.1268, 5307.632
870.6089, 5304.780
871.0911, 5304.837
871.5732, 5301.103
872.0553, 5288.588
872.5374, 5272.368
873.0195, 5249.952
873.5016, 5229.340
873.9838, 5229.461
874.4659, 5255.962
874.9480, 5284.252
875.4301, 5289.618
875.9122, 5288.693
876.3943, 5305.115
876.8765, 5332.756
877.3586, 5357.980
877.8407, 5377.507
878.3228, 5390.026
878.8049, 5393.147
879.2870, 5396.672
879.7692, 5422.638
880.2513, 5465.581
880.7334, 5492.421
881.2155, 5501.823
881.6976, 5521.203
882.1797, 5562.466
882.6619, 5607.151
883.1440, 5632.455
883.6261, 5641.641
884.1082, 5661.290
884.5903, 5694.677
885.0724, 5722.440
885.5546, 5738.268
886.0367, 5757.024
886.5188, 5789.981
887.0009, 5830.292
887.4830, 5861.946
887.9651, 5880.444
888.4473, 5907.835
888.9294, 5947.321
889.4115, 5991.263
889.8936, 6046.375
890.3757, 6097.909
890.8578, 6132.042
891.3400, 6151.510
891.8221, 6169.979
892.3042, 6177.473
892.7863, 6205.061
893.2684, 6279.994
893.7505, 6355.489
894.2327, 6400.599
894.7148, 6429.466
895.1969, 6465.461
895.6790, 6512.616
896.1611, 6558.396
896.6432, 6591.514
897.1254, 6627.571
897.6075, 6676.170
898.0896, 6733.919
898.5717, 6801.307
899.0538, 6873.509
899.5359, 6937.136
900.0181, 6986.307
900.5002, 7037.521
900.9823, 7111.601
901.4644, 7192.981
901.9465, 7257.022
902.4286, 7309.299
902.9108, 7364.729
903.3929, 7426.740
903.8750, 7491.414
904.3571, 7558.011
904.8392, 7619.078
905.3214, 7655.017
905.8035, 7674.240
906.2856, 7714.351
906.7677, 7777.151
907.2498, 7850.029
907.7319, 7929.069
908.2141, 8005.128
908.6962, 8066.666
909.1783, 8117.371
909.6604, 8175.842
910.1425, 8243.054
910.6246, 8306.913
911.1068, 8363.891
911.5889, 8428.460
912.0710, 8513.646
912.5531, 8601.283
913.0352, 8655.691
913.5173, 8673.644
913.9995, 8686.473
914.4816, 8685.032
914.9637, 8702.153
915.4458, 8756.541
915.9279, 8815.449
916.4100, 8851.104
916.8922, 8869.911
917.3743, 8895.321
917.8564, 8923.772
918.3385, 8966.401
918.8206, 9048.003
919.3027, 9113.167
919.7849, 9137.090
920.2670, 9142.024
920.7491, 9148.665
921.2312, 9157.619
921.7133, 9165.084
922.1954, 9167.110
922.6776, 9172.799
923.1597, 9191.784
923.6418, 9206.881
924.1239, 9204.941
924.6060, 9193.323
925.0881, 9186.219
925.5703, 9185.582
926.0524, 9174.156
926.5345, 9120.735
927.0166, 9084.963
927.4987, 9128.072
927.9808, 9179.713
928.4630, 9155.496
928.9451, 9080.379
929.4272, 9033.989
929.9093, 9044.104
930.3914, 9063.622
930.8735, 9070.724
931.3557, 9064.433
931.8378, 9041.224
932.3199, 9005.283
932.8020, 8960.513
933.2841, 8909.592
933.7662, 8857.111
934.2484, 8804.983
934.7305, 8753.292
935.2126, 8698.482
935.6947, 8645.926
936.1768, 8607.250
936.6589, 8577.639
937.1411, 8546.740
937.6232, 8510.513
938.1053, 8461.715
938.5874, 8391.334
939.0695, 8316.358
939.5516, 8266.502
940.0338, 8233.743
940.5159, 8198.814
940.9980, 8157.990
941.4801, 8099.440
941.9622, 8019.159
942.4443, 7932.647
942.9265, 7855.170
943.4086, 7784.665
943.8907, 7710.632
944.3728, 7635.217
944.8549, 7582.063
945.3370, 7553.309
945.8192, 7517.173
946.3013, 7456.880
946.7834, 7386.808
947.2655, 7330.320
947.7476, 7282.597
948.2297, 7200.695
948.7119, 7081.826
949.1940, 6975.144
949.6761, 6888.555
950.1582, 6825.511
950.6403, 6793.477
951.1224, 6772.199
951.6046, 6719.601
952.0867, 6633.744
952.5688, 6562.624
953.0509, 6508.604
953.5330, 6461.155
954.0151, 6422.823
954.4973, 6375.641
954.9794, 6299.836
955.4615, 6211.144
955.9436, 6159.516
956.4257, 6162.453
956.9078, 6126.108
957.3900, 6029.706
957.8721, 5944.597
958.3542, 5892.997
958.8363, 5858.698
959.3184, 5832.135
959.8005, 5809.214
960.2827, 5768.822
960.7648, 5693.479
961.2469, 5639.755
961.7290, 5617.162
962.2111, 5601.437
962.6932, 5585.313
963.1754, 5570.758
963.6575, 5564.316
964.1396, 5563.928
964.6217, 5545.504
965.1038, 5494.422
965.5859, 5449.462
966.0681, 5413.820
966.5502, 5382.261
967.0323, 5350.979
967.5144, 5323.870
967.9965, 5306.979
968.4786, 5300.196
968.9608, 5293.370
969.4429, 5289.314
969.9250, 5280.316
970.4071, 5264.667
970.8892, 5244.734
971.3713, 5217.693
971.8535, 5189.151
972.3356, 5168.181
972.8177, 5155.453
973.2998, 5142.194
973.7819, 5125.420
974.2640, 5110.516
974.7462, 5107.177
975.2283, 5097.483
975.7104, 5056.788
976.1925, 5006.660
976.6746, 4992.068
977.1567, 5022.245
977.6389, 5029.812
978.1210, 4973.631
978.6031, 4928.165
979.0852, 4930.407
979.5673, 4940.811
980.0494, 4929.211
980.5316, 4901.963
981.0137, 4874.636
981.4958, 4848.921
981.9779, 4832.305
982.4600, 4839.729
982.9421, 4840.187
983.4243, 4809.686
983.9064, 4776.084
984.3885, 4767.577
984.8706, 4775.658
985.3527, 4776.325
985.8348, 4764.395
986.3170, 4744.550
986.7991, 4701.565
987.2812, 4671.498
987.7633, 4688.984
988.2454, 4715.076
988.7275, 4705.313
989.2097, 4671.208
989.6918, 4656.340
990.1739, 4677.042
990.6560, 4688.165
991.1381, 4662.771
991.6202, 4633.125
992.1024, 4613.364
992.5845, 4601.767
993.0666, 4602.907
993.5487, 4609.368
994.0308, 4598.355
994.5129, 4558.145
994.9951, 4525.718
995.4772, 4516.541
995.9593, 4520.600
996.4414, 4541.974
996.9235, 4565.939
997.4056, 4575.057
997.8878, 4571.562
998.3699, 4570.959
998.8520, 4581.399
999.3341, 4579.766
999.8162, 4533.370
1000.298, 4496.161
1000.780, 4519.642
1001.263, 4559.796
1001.745, 4562.430
1002.227, 4531.107
1002.709, 4502.326
1003.191, 4488.171
1003.673, 4474.719
1004.155, 4451.710
1004.637, 4431.598
1005.120, 4429.839
1005.602, 4430.323
1006.084, 4408.347
1006.566, 4369.727
1007.048, 4344.206
1007.530, 4343.656
1008.012, 4346.643
1008.494, 4348.834
1008.976, 4345.491
1009.459, 4327.389
1009.941, 4306.429
1010.423, 4302.441
1010.905, 4309.095
1011.387, 4293.227
1011.869, 4231.187
1012.351, 4198.675
1012.833, 4264.586
1013.315, 4327.737
1013.798, 4313.045
1014.280, 4272.479
1014.762, 4270.934
1015.244, 4301.645
1015.726, 4316.385
1016.208, 4299.159
1016.690, 4275.509
1017.172, 4245.251
1017.655, 4222.837
1018.137, 4220.315
1018.619, 4226.704
1019.101, 4231.263
1019.583, 4233.611
1020.065, 4236.857
1020.547, 4241.300
1021.029, 4248.424
1021.511, 4268.093
1021.994, 4279.193
1022.476, 4261.339
1022.958, 4238.013
1023.440, 4233.101
1023.922, 4243.292
1024.404, 4253.024
1024.886, 4259.545
1025.368, 4264.682
1025.851, 4268.344
1026.333, 4271.381
1026.815, 4281.236
1027.297, 4284.561
1027.779, 4259.212
1028.261, 4219.018
1028.743, 4205.577
1029.225, 4233.387
1029.708, 4248.694
1030.190, 4226.312
1030.672, 4210.754
1031.154, 4230.261
1031.636, 4249.495
1032.118, 4235.896
1032.600, 4201.249
1033.082, 4175.545
1033.564, 4161.964
1034.047, 4153.604
1034.529, 4154.886
1035.011, 4154.139
1035.493, 4145.495
1035.975, 4137.097
1036.457, 4134.010
1036.939, 4135.219
1037.421, 4140.948
1037.903, 4154.563
1038.386, 4153.108
1038.868, 4117.097
1039.350, 4095.894
1039.832, 4109.833
1040.314, 4123.975
1040.796, 4112.151
1041.278, 4091.803
1041.760, 4095.828
1042.243, 4127.400
1042.725, 4141.139
1043.207, 4126.710
1043.689, 4116.443
1044.171, 4119.233
1044.653, 4117.624
1045.135, 4099.729
1045.617, 4075.692
1046.099, 4059.368
1046.582, 4050.644
1047.064, 4050.579
1047.546, 4065.429
1048.028, 4066.652
1048.510, 4042.916
1048.992, 4030.673
1049.474, 4051.290
1049.956, 4080.647
1050.438, 4090.111
1050.921, 4081.784
1051.403, 4067.301
1051.885, 4045.332
1052.367, 4026.144
1052.849, 4009.995
1053.331, 3999.700
1053.813, 3996.987
1054.295, 3998.669
1054.778, 4004.132
1055.260, 4007.240
1055.742, 3981.138
1056.224, 3925.998
1056.706, 3898.028
1057.188, 3900.091
1057.670, 3913.992
1058.152, 3935.164
1058.635, 3942.877
1059.117, 3917.875
1059.599, 3877.280
1060.081, 3854.775
1060.563, 3848.370
1061.045, 3853.105
1061.527, 3865.602
1062.009, 3857.887
1062.491, 3826.321
1062.974, 3807.966
1063.456, 3828.092
1063.938, 3857.260
1064.420, 3849.956
1064.902, 3821.362
1065.384, 3803.288
1065.866, 3796.263
1066.348, 3805.399
1066.830, 3826.964
1067.313, 3842.523
1067.795, 3843.382
1068.277, 3832.748
1068.759, 3803.388
1069.241, 3773.235
1069.723, 3770.902
1070.205, 3783.101
1070.687, 3790.002
1071.170, 3789.105
1071.652, 3780.858
1072.134, 3766.062
1072.616, 3753.049
1073.098, 3747.001
1073.580, 3745.954
1074.062, 3752.485
1074.544, 3759.705
1075.026, 3759.080
1075.509, 3753.802
1075.991, 3751.450
1076.473, 3753.047
1076.955, 3753.192
1077.437, 3749.843
1077.919, 3744.158
1078.401, 3730.317
1078.883, 3721.197
1079.365, 3732.916
1079.848, 3749.858
1080.330, 3747.883
1080.812, 3730.100
1081.294, 3724.222
1081.776, 3742.767
1082.258, 3755.793
1082.740, 3753.108
1083.222, 3749.777
1083.704, 3754.209
1084.187, 3758.005
1084.669, 3751.447
1085.151, 3738.384
1085.633, 3732.184
1086.115, 3737.380
1086.597, 3731.044
1087.079, 3702.045
1087.561, 3682.102
1088.044, 3678.780
1088.526, 3682.903
1089.008, 3689.724
1089.490, 3699.960
1089.972, 3717.122
1090.454, 3740.877
1090.936, 3746.758
1091.418, 3730.601
1091.901, 3716.397
1092.383, 3706.330
1092.865, 3702.356
1093.347, 3706.814
1093.829, 3710.883
1094.311, 3704.245
1094.793, 3689.372
1095.275, 3675.082
1095.757, 3661.126
1096.240, 3637.763
1096.722, 3606.576
1097.204, 3602.630
1097.686, 3635.027
1098.168, 3666.095
1098.650, 3667.655
1099.132, 3651.189
1099.614, 3628.393
1100.096, 3604.747
1100.579, 3593.821
1101.061, 3593.381
1101.543, 3598.409
1102.025, 3606.250
1102.507, 3610.864
1102.989, 3609.247
1103.471, 3608.227
1103.953, 3618.128
1104.436, 3627.493
1104.918, 3625.431
1105.400, 3614.625
1105.882, 3591.667
1106.364, 3565.217
1106.846, 3556.805
1107.328, 3570.255
1107.810, 3578.862
1108.292, 3568.497
1108.775, 3552.621
1109.257, 3524.946
1109.739, 3507.152
1110.221, 3524.284
1110.703, 3554.229
1111.185, 3569.539
1111.667, 3568.360
1112.149, 3557.899
1112.631, 3532.348
1113.114, 3512.479
1113.596, 3493.517
1114.078, 3490.055
1114.560, 3521.532
1115.042, 3552.233
1115.524, 3553.811
1116.006, 3535.807
1116.488, 3518.936
1116.971, 3502.437
1117.453, 3495.564
1117.935, 3501.729
1118.417, 3503.929
1118.899, 3497.656
1119.381, 3496.120
1119.863, 3507.632
1120.345, 3520.436
1120.828, 3518.662
1121.310, 3506.864
1121.792, 3505.817
1122.274, 3513.106
1122.756, 3498.433
1123.238, 3463.206
1123.720, 3445.250
1124.202, 3454.806
1124.684, 3469.406
1125.167, 3473.331
1125.649, 3469.547
1126.131, 3457.532
1126.613, 3443.660
1127.095, 3440.591
1127.577, 3444.334
1128.059, 3446.902
1128.541, 3446.828
1129.023, 3445.293
1129.506, 3442.797
1129.988, 3436.703
1130.470, 3422.959
1130.952, 3407.818
1131.434, 3393.918
1131.916, 3382.047
1132.398, 3365.853
1132.880, 3355.657
1133.363, 3377.491
1133.845, 3429.200
1134.327, 3456.438
1134.809, 3429.578
1135.291, 3409.476
1135.773, 3412.464
1136.255, 3414.813
1136.737, 3410.527
1137.219, 3398.618
1137.702, 3372.335
1138.184, 3340.352
1138.666, 3327.533
1139.148, 3337.004
1139.630, 3342.044
1140.112, 3341.918
1140.594, 3340.512
1141.076, 3338.415
1141.558, 3334.346
1142.041, 3326.282
1142.523, 3323.823
1143.005, 3342.522
1143.487, 3371.167
1143.969, 3368.391
1144.451, 3341.447
1144.933, 3328.425
1145.415, 3330.131
1145.898, 3336.398
1146.380, 3343.685
1146.862, 3349.142
1147.344, 3350.886
1147.826, 3350.789
1148.308, 3353.375
1148.790, 3353.060
1149.272, 3340.245
1149.755, 3321.725
1150.237, 3305.193
1150.719, 3293.067
1151.201, 3286.286
1151.683, 3285.250
1152.165, 3294.356
1152.647, 3331.711
1153.129, 3356.350
1153.611, 3346.354
1154.094, 3327.615
1154.576, 3310.510
1155.058, 3296.997
1155.540, 3288.952
1156.022, 3285.914
1156.504, 3285.242
1156.986, 3289.655
1157.468, 3286.663
1157.950, 3270.622
1158.433, 3261.879
1158.915, 3265.164
1159.397, 3276.981
1159.879, 3299.265
1160.361, 3315.865
1160.843, 3298.203
1161.325, 3257.319
1161.807, 3246.131
1162.290, 3261.372
1162.772, 3281.090
1163.254, 3301.333
1163.736, 3309.763
1164.218, 3303.395
1164.700, 3289.187
1165.182, 3269.691
1165.664, 3256.308
1166.146, 3268.996
1166.629, 3289.434
1167.111, 3297.783
1167.593, 3295.976
1168.075, 3282.768
1168.557, 3264.339
1169.039, 3256.255
1169.521, 3262.250
1170.003, 3263.943
1170.485, 3243.272
1170.968, 3233.371
1171.450, 3253.977
1171.932, 3276.960
1172.414, 3294.119
1172.896, 3299.859
1173.378, 3280.277
1173.860, 3246.013
1174.342, 3236.286
1174.825, 3257.593
1175.307, 3270.373
1175.789, 3273.720
1176.271, 3271.291
1176.753, 3262.629
1177.235, 3255.611
1177.717, 3254.914
1178.199, 3252.835
1178.682, 3237.674
1179.164, 3218.471
1179.646, 3220.767
1180.128, 3238.560
1180.610, 3258.680
1181.092, 3275.649
1181.574, 3272.083
1182.056, 3248.813
1182.538, 3228.553
1183.021, 3221.814
1183.503, 3227.106
1183.985, 3254.800
1184.467, 3280.315
1184.949, 3286.681
1185.431, 3280.658
1185.913, 3257.746
1186.395, 3233.046
1186.877, 3239.891
1187.360, 3277.101
1187.842, 3281.792
1188.324, 3200.318
1188.806, 3172.889
1189.288, 3242.292
1189.770, 3288.777
1190.252, 3270.395
1190.734, 3242.754
1191.217, 3244.547
1191.699, 3260.558
1192.181, 3264.642
1192.663, 3258.132
1193.145, 3247.230
1193.627, 3233.165
1194.109, 3227.862
1194.591, 3231.900
1195.073, 3241.936
1195.556, 3256.008
1196.038, 3268.308
1196.520, 3275.427
1197.002, 3276.194
1197.484, 3263.938
1197.966, 3250.146
1198.448, 3249.565
1198.930, 3253.057
1199.412, 3242.940
1199.895, 3228.262
1200.377, 3237.066
1200.859, 3273.081
1201.341, 3292.523
1201.823, 3266.521
1202.305, 3252.998
1202.787, 3274.586
1203.269, 3288.052
1203.752, 3274.943
1204.234, 3257.919
1204.716, 3255.154
1205.198, 3259.656
1205.680, 3256.407
1206.162, 3246.387
1206.644, 3244.595
1207.126, 3250.382
1207.609, 3247.615
1208.091, 3235.796
1208.573, 3228.475
1209.055, 3230.025
1209.537, 3235.851
1210.019, 3244.484
1210.501, 3247.257
1210.983, 3222.259
1211.465, 3198.157
1211.948, 3215.879
1212.430, 3247.911
1212.912, 3257.900
1213.394, 3249.698
1213.876, 3240.931
1214.358, 3234.822
1214.840, 3227.984
1215.322, 3221.401
1215.804, 3211.036
1216.287, 3187.846
1216.769, 3174.843
1217.251, 3183.905
1217.733, 3196.707
1218.215, 3200.875
1218.697, 3197.538
1219.179, 3186.527
1219.661, 3170.277
1220.144, 3168.435
1220.626, 3179.082
1221.108, 3186.009
1221.590, 3188.255
1222.072, 3190.726
1222.554, 3194.630
1223.036, 3197.086
1223.518, 3196.269
1224.000, 3193.775
1224.483, 3188.285
1224.965, 3184.859
1225.447, 3189.124
1225.929, 3196.684
1226.411, 3202.700
1226.893, 3208.519
1227.375, 3221.583
1227.857, 3240.776
1228.339, 3240.897
1228.822, 3203.410
1229.304, 3183.004
1229.786, 3184.406
1230.268, 3191.670
1230.750, 3202.499
1231.232, 3215.065
1231.714, 3229.772
1232.196, 3238.445
1232.679, 3228.256
1233.161, 3206.424
1233.643, 3192.111
1234.125, 3183.623
1234.607, 3173.268
1235.089, 3164.707
1235.571, 3172.958
1236.053, 3196.157
1236.536, 3215.545
1237.018, 3223.674
1237.500, 3224.073
1237.982, 3214.073
1238.464, 3203.052
1238.946, 3191.359
1239.428, 3184.472
1239.910, 3186.804
1240.392, 3195.477
1240.875, 3211.706
1241.357, 3229.284
1241.839, 3226.714
1242.321, 3201.292
1242.803, 3187.707
1243.285, 3187.065
1243.767, 3181.696
1244.249, 3169.433
1244.731, 3165.205
1245.214, 3174.436
1245.696, 3182.810
1246.178, 3178.059
1246.660, 3170.924
1247.142, 3180.134
1247.624, 3189.144
1248.106, 3171.823
1248.588, 3146.705
1249.071, 3138.233
1249.553, 3143.092
1250.035, 3148.918
1250.517, 3153.706
1250.999, 3159.155
1251.481, 3166.905
1251.963, 3173.298
1252.445, 3182.889
1252.927, 3179.597
1253.410, 3154.085
1253.892, 3130.911
1254.374, 3124.375
1254.856, 3130.989
1255.338, 3150.208
1255.820, 3172.080
1256.302, 3163.167
1256.784, 3136.522
1257.266, 3128.659
1257.749, 3135.212
1258.231, 3139.307
1258.713, 3138.748
1259.195, 3139.070
1259.677, 3142.187
##END=



