##NAMES=Lomonosovite
##RRUFFID=R070465
##IDEAL CHEMISTRY=Na_6_Na_2_Ti^4+^_2_Na_2_Ti^4+^_2_(Si_2_O_7_)_2_(PO_4_)_2_O_4_
##LOCALITY=Apatitovyi Tsirk (Apatite Circus), Rasvumchorr Mountain, Khibiny Massif, Kola Peninsula, Murmanskaja Oblast', Northern Region, Russia
##OWNER=RRUFF
##SOURCE=Michael Scott
##DESCRIPTION=Light tan platy crystals associated with orthoclase and lamprophyllite
##STATUS=The identification of this mineral is confirmed by single-crystal X-ray diffraction and chemical analysis.
##URL=rruff.info/R070465
##MEASURED CHEMISTRY=(Na_4.77_Ca_0.20_Mn_0.03_)_Σ=5_(Ti_1.79_Fe^3+^_0.19_Mg_0.02_)_Σ=2_(Si_2.00_O_7_)(P_1.00_O_4_)O_2_
138.5845, 9944.661
139.0667, 10361.02
139.5488, 10772.73
140.0309, 11180.43
140.5130, 11592.85
140.9951, 12020.80
141.4772, 12450.07
141.9594, 12839.26
142.4415, 13181.68
142.9236, 13506.19
143.4057, 13833.95
143.8878, 14166.36
144.3699, 14492.17
144.8521, 14814.44
145.3342, 15130.51
145.8163, 15410.55
146.2984, 15643.65
146.7805, 15855.27
147.2626, 16066.17
147.7448, 16274.53
148.2269, 16482.60
148.7090, 16696.03
149.1911, 16917.07
149.6732, 17107.26
150.1553, 17249.23
150.6375, 17370.86
151.1196, 17492.10
151.6017, 17599.54
152.0838, 17722.62
152.5659, 17870.29
153.0480, 18049.68
153.5302, 18223.26
154.0123, 18378.44
154.4944, 18530.02
154.9765, 18695.81
155.4586, 18908.77
155.9408, 19109.18
156.4229, 19274.63
156.9050, 19313.05
157.3871, 19263.62
157.8692, 19220.11
158.3513, 19183.94
158.8335, 19139.58
159.3156, 19090.22
159.7977, 19029.54
160.2798, 18955.66
160.7619, 18871.86
161.2440, 18771.68
161.7262, 18640.93
162.2083, 18490.87
162.6904, 18352.38
163.1725, 18253.85
163.6546, 18162.15
164.1367, 18053.58
164.6189, 17894.10
165.1010, 17746.22
165.5831, 17641.22
166.0652, 17573.58
166.5473, 17515.62
167.0294, 17457.47
167.5116, 17400.13
167.9937, 17345.10
168.4758, 17303.97
168.9579, 17255.93
169.4400, 17176.05
169.9221, 17065.56
170.4043, 16969.09
170.8864, 16937.94
171.3685, 16935.44
171.8506, 16906.51
172.3327, 16785.73
172.8148, 16653.46
173.2970, 16595.76
173.7791, 16621.14
174.2612, 16650.98
174.7433, 16615.51
175.2254, 16536.19
175.7076, 16457.90
176.1897, 16406.05
176.6718, 16366.83
177.1539, 16322.89
177.6360, 16273.27
178.1181, 16218.14
178.6003, 16144.25
179.0824, 16059.79
179.5645, 15997.67
180.0466, 15997.42
180.5287, 16027.73
181.0108, 16027.93
181.4930, 15986.46
181.9751, 15923.28
182.4572, 15853.01
182.9393, 15778.19
183.4214, 15722.48
183.9035, 15719.96
184.3857, 15749.93
184.8678, 15752.65
185.3499, 15709.96
185.8320, 15645.40
186.3141, 15596.99
186.7962, 15564.01
187.2784, 15543.69
187.7605, 15535.01
188.2426, 15537.18
188.7247, 15549.11
189.2068, 15576.72
189.6889, 15609.46
190.1711, 15619.66
190.6532, 15605.95
191.1353, 15585.18
191.6174, 15571.30
192.0995, 15564.11
192.5816, 15559.49
193.0638, 15554.86
193.5459, 15552.35
194.0280, 15563.27
194.5101, 15590.44
194.9922, 15618.58
195.4743, 15631.85
195.9565, 15630.44
196.4386, 15621.63
196.9207, 15602.96
197.4028, 15577.43
197.8849, 15566.24
198.3671, 15570.23
198.8492, 15586.63
199.3313, 15616.80
199.8134, 15662.98
200.2955, 15702.40
200.7776, 15722.47
201.2598, 15723.53
201.7419, 15744.06
202.2240, 15795.88
202.7061, 15845.09
203.1882, 15823.53
203.6703, 15711.48
204.1525, 15624.64
204.6346, 15624.80
205.1167, 15724.24
205.5988, 15775.25
206.0809, 15763.72
206.5630, 15720.72
207.0452, 15709.21
207.5273, 15742.39
208.0094, 15762.38
208.4915, 15731.70
208.9736, 15635.49
209.4557, 15582.24
209.9379, 15585.94
210.4200, 15624.65
210.9021, 15649.09
211.3842, 15656.94
211.8663, 15657.54
212.3484, 15653.31
212.8306, 15641.38
213.3127, 15640.36
213.7948, 15660.25
214.2769, 15687.93
214.7590, 15679.69
215.2411, 15619.83
215.7233, 15557.17
216.2054, 15523.85
216.6875, 15533.86
217.1696, 15524.59
217.6517, 15485.92
218.1338, 15425.13
218.6160, 15370.28
219.0981, 15316.60
219.5802, 15275.58
220.0623, 15259.02
220.5444, 15280.42
221.0265, 15287.70
221.5087, 15272.10
221.9908, 15237.93
222.4729, 15209.28
222.9550, 15185.74
223.4371, 15168.40
223.9192, 15160.88
224.4014, 15173.74
224.8835, 15169.62
225.3656, 15133.00
225.8477, 15071.34
226.3298, 15052.58
226.8119, 15109.33
227.2941, 15165.61
227.7762, 15158.77
228.2583, 15050.35
228.7404, 14963.26
229.2225, 14915.65
229.7046, 14905.05
230.1868, 14905.54
230.6689, 14926.21
231.1510, 14946.55
231.6331, 14950.28
232.1152, 14933.17
232.5973, 14907.38
233.0795, 14869.59
233.5616, 14821.21
234.0437, 14789.72
234.5258, 14787.05
235.0079, 14789.47
235.4900, 14775.20
235.9722, 14733.06
236.4543, 14697.83
236.9364, 14674.59
237.4185, 14663.50
237.9006, 14664.42
238.3828, 14683.00
238.8649, 14707.46
239.3470, 14727.54
239.8291, 14742.12
240.3112, 14752.59
240.7933, 14756.09
241.2755, 14751.93
241.7576, 14757.05
242.2397, 14777.19
242.7218, 14799.94
243.2039, 14812.43
243.6860, 14807.03
244.1682, 14805.59
244.6503, 14814.80
245.1324, 14835.38
245.6145, 14844.90
246.0966, 14832.50
246.5787, 14820.34
247.0609, 14834.13
247.5430, 14895.77
248.0251, 14940.84
248.5072, 14948.90
248.9893, 14917.21
249.4714, 14910.28
249.9536, 14941.91
250.4357, 14984.14
250.9178, 15005.50
251.3999, 14989.17
251.8820, 14986.31
252.3641, 15014.27
252.8463, 15075.05
253.3284, 15114.80
253.8105, 15130.91
254.2926, 15128.81
254.7747, 15107.67
255.2568, 15044.80
255.7390, 15012.51
256.2211, 15035.32
256.7032, 15115.41
257.1853, 15174.91
257.6674, 15205.00
258.1495, 15224.29
258.6317, 15255.04
259.1138, 15309.02
259.5959, 15344.61
260.0780, 15345.03
260.5601, 15308.96
261.0422, 15294.72
261.5244, 15308.32
262.0065, 15335.45
262.4886, 15360.54
262.9707, 15380.97
263.4528, 15408.20
263.9349, 15452.04
264.4171, 15512.71
264.8992, 15537.01
265.3813, 15509.32
265.8634, 15469.66
266.3455, 15465.47
266.8276, 15514.46
267.3098, 15540.23
267.7919, 15515.16
268.2740, 15442.92
268.7561, 15408.51
269.2382, 15424.10
269.7203, 15456.55
270.2025, 15475.33
270.6846, 15479.30
271.1667, 15472.44
271.6488, 15451.46
272.1309, 15418.25
272.6130, 15397.90
273.0952, 15396.81
273.5773, 15394.39
274.0594, 15367.64
274.5415, 15312.22
275.0236, 15259.24
275.5057, 15213.08
275.9879, 15175.03
276.4700, 15156.88
276.9521, 15163.75
277.4342, 15175.98
277.9163, 15171.87
278.3984, 15148.72
278.8806, 15139.20
279.3627, 15157.37
279.8448, 15193.67
280.3269, 15197.86
280.8090, 15161.63
281.2911, 15124.30
281.7733, 15123.29
282.2554, 15159.24
282.7375, 15194.03
283.2196, 15221.79
283.7017, 15241.75
284.1838, 15247.80
284.6660, 15237.45
285.1481, 15228.32
285.6302, 15234.90
286.1123, 15256.65
286.5944, 15284.45
287.0765, 15318.69
287.5587, 15356.63
288.0408, 15393.83
288.5229, 15431.14
289.0050, 15460.33
289.4871, 15466.93
289.9692, 15456.36
290.4514, 15463.00
290.9335, 15498.24
291.4156, 15547.28
291.8977, 15571.87
292.3798, 15573.23
292.8619, 15588.19
293.3441, 15659.77
293.8262, 15770.20
294.3083, 15852.22
294.7904, 15895.05
295.2725, 15908.11
295.7546, 15888.00
296.2368, 15840.54
296.7189, 15813.63
297.2010, 15858.81
297.6831, 15947.17
298.1652, 16010.58
298.6474, 16036.46
299.1295, 16044.13
299.6116, 16052.98
300.0937, 16063.67
300.5758, 16079.60
301.0580, 16102.57
301.5401, 16131.92
302.0222, 16172.78
302.5043, 16231.08
302.9864, 16279.23
303.4685, 16274.61
303.9507, 16233.18
304.4328, 16201.11
304.9149, 16205.86
305.3970, 16232.24
305.8791, 16268.88
306.3612, 16317.99
306.8434, 16356.24
307.3255, 16359.55
307.8076, 16337.14
308.2897, 16307.27
308.7718, 16268.67
309.2539, 16232.17
309.7361, 16209.92
310.2182, 16203.72
310.7003, 16197.72
311.1824, 16175.07
311.6645, 16146.63
312.1466, 16128.88
312.6288, 16147.13
313.1109, 16164.03
313.5930, 16151.14
314.0751, 16106.97
314.5572, 16063.12
315.0393, 16033.36
315.5215, 16014.05
316.0036, 16001.14
316.4857, 15987.97
316.9678, 15985.92
317.4499, 16009.66
317.9320, 16057.18
318.4142, 16090.69
318.8963, 16094.05
319.3784, 16078.54
319.8605, 16053.26
320.3426, 15984.36
320.8247, 15942.17
321.3069, 15963.59
321.7890, 16037.83
322.2711, 16097.11
322.7532, 16119.36
323.2353, 16124.44
323.7174, 16124.36
324.1996, 16112.33
324.6817, 16104.59
325.1638, 16106.29
325.6459, 16114.68
326.1280, 16119.81
326.6101, 16112.76
327.0923, 16108.51
327.5744, 16114.96
328.0565, 16152.52
328.5386, 16171.42
329.0207, 16153.37
329.5028, 16117.63
329.9850, 16108.90
330.4671, 16143.17
330.9492, 16188.94
331.4313, 16238.97
331.9134, 16301.86
332.3955, 16347.84
332.8777, 16371.33
333.3598, 16380.36
333.8419, 16389.58
334.3240, 16406.98
334.8061, 16408.94
335.2882, 16373.02
335.7704, 16281.50
336.2525, 16276.37
336.7346, 16398.43
337.2167, 16559.60
337.6988, 16646.26
338.1809, 16633.64
338.6631, 16626.07
339.1452, 16651.15
339.6273, 16707.14
340.1094, 16761.02
340.5915, 16816.72
341.0736, 16862.31
341.5558, 16878.32
342.0379, 16861.34
342.5200, 16856.94
343.0021, 16877.40
343.4842, 16916.52
343.9663, 16952.63
344.4485, 16985.20
344.9306, 17018.37
345.4127, 17056.13
345.8948, 17097.96
346.3769, 17141.03
346.8590, 17191.59
347.3412, 17233.62
347.8233, 17218.73
348.3054, 17151.09
348.7875, 17095.77
349.2696, 17112.77
349.7517, 17175.64
350.2339, 17212.55
350.7160, 17212.33
351.1981, 17191.27
351.6802, 17157.47
352.1623, 17115.81
352.6444, 17085.46
353.1266, 17084.90
353.6087, 17098.04
354.0908, 17105.89
354.5729, 17107.65
355.0550, 17096.96
355.5371, 17058.88
356.0193, 17005.33
356.5014, 16958.79
356.9835, 16947.54
357.4656, 16935.91
357.9477, 16884.15
358.4298, 16793.77
358.9120, 16720.14
359.3941, 16715.06
359.8762, 16737.28
360.3583, 16742.82
360.8404, 16698.37
361.3225, 16651.94
361.8047, 16624.52
362.2868, 16613.71
362.7689, 16606.86
363.2510, 16618.36
363.7331, 16619.59
364.2152, 16587.98
364.6974, 16479.85
365.1795, 16395.54
365.6616, 16367.32
366.1437, 16379.14
366.6258, 16388.63
367.1079, 16381.94
367.5901, 16377.71
368.0722, 16388.14
368.5543, 16437.05
369.0364, 16450.36
369.5185, 16386.62
370.0006, 16298.20
370.4828, 16262.28
370.9649, 16324.40
371.4470, 16383.88
371.9291, 16415.57
372.4112, 16415.10
372.8933, 16419.20
373.3755, 16425.33
373.8576, 16437.57
374.3397, 16458.14
374.8218, 16481.42
375.3039, 16526.86
375.7860, 16610.14
376.2682, 16720.62
376.7503, 16785.27
377.2324, 16790.17
377.7145, 16783.10
378.1966, 16803.85
378.6787, 16856.21
379.1609, 16888.02
379.6430, 16886.91
380.1251, 16869.74
380.6072, 16874.15
381.0894, 16901.27
381.5715, 16940.27
382.0536, 16992.48
382.5357, 17054.55
383.0178, 17106.43
383.4999, 17148.63
383.9821, 17177.00
384.4642, 17172.69
384.9463, 17144.38
385.4284, 17133.09
385.9105, 17156.58
386.3926, 17207.83
386.8748, 17288.04
387.3569, 17397.98
387.8390, 17493.39
388.3211, 17519.42
388.8032, 17508.29
389.2853, 17514.82
389.7675, 17574.62
390.2496, 17640.44
390.7317, 17672.81
391.2138, 17676.29
391.6959, 17672.21
392.1780, 17660.52
392.6602, 17653.46
393.1423, 17663.88
393.6244, 17705.28
394.1065, 17743.18
394.5886, 17763.02
395.0707, 17769.61
395.5529, 17773.09
396.0350, 17768.03
396.5171, 17767.35
396.9992, 17780.42
397.4813, 17814.24
397.9634, 17834.25
398.4456, 17830.53
398.9277, 17812.08
399.4098, 17789.25
399.8919, 17749.66
400.3740, 17719.81
400.8561, 17708.60
401.3383, 17715.90
401.8204, 17714.75
402.3025, 17708.19
402.7846, 17690.63
403.2667, 17652.18
403.7488, 17568.58
404.2310, 17526.98
404.7131, 17548.34
405.1952, 17611.49
405.6773, 17654.37
406.1594, 17672.58
406.6415, 17684.24
407.1237, 17696.13
407.6058, 17707.71
408.0879, 17724.45
408.5700, 17746.05
409.0521, 17772.85
409.5342, 17809.90
410.0164, 17856.02
410.4985, 17892.14
410.9806, 17904.37
411.4627, 17902.65
411.9448, 17916.62
412.4269, 17946.40
412.9091, 17982.38
413.3912, 18031.27
413.8733, 18079.06
414.3554, 18086.78
414.8375, 18022.82
415.3196, 17949.36
415.8018, 17952.22
416.2839, 18011.11
416.7660, 18050.05
417.2481, 18001.38
417.7302, 17923.85
418.2123, 17870.65
418.6945, 17852.04
419.1766, 17848.53
419.6587, 17868.02
420.1408, 17892.26
420.6229, 17893.62
421.1050, 17837.22
421.5872, 17779.57
422.0693, 17744.62
422.5514, 17733.97
423.0335, 17724.13
423.5156, 17709.15
423.9977, 17693.09
424.4799, 17678.54
424.9620, 17660.88
425.4441, 17650.43
425.9262, 17650.17
426.4083, 17657.33
426.8904, 17663.76
427.3726, 17678.37
427.8547, 17680.54
428.3368, 17658.14
428.8189, 17598.31
429.3010, 17559.52
429.7831, 17552.20
430.2653, 17554.46
430.7474, 17529.62
431.2295, 17468.54
431.7116, 17424.37
432.1937, 17415.39
432.6758, 17437.01
433.1580, 17466.27
433.6401, 17505.88
434.1222, 17536.35
434.6043, 17528.37
435.0864, 17490.70
435.5685, 17479.02
436.0507, 17509.72
436.5328, 17554.70
437.0149, 17564.42
437.4970, 17546.62
437.9791, 17537.91
438.4612, 17571.20
438.9434, 17621.12
439.4255, 17652.48
439.9076, 17661.82
440.3897, 17664.14
440.8718, 17675.17
441.3539, 17686.10
441.8361, 17684.57
442.3182, 17653.55
442.8003, 17621.42
443.2824, 17596.62
443.7645, 17581.39
444.2466, 17586.78
444.7288, 17652.69
445.2109, 17716.43
445.6930, 17735.43
446.1751, 17666.72
446.6572, 17618.28
447.1393, 17611.41
447.6215, 17632.22
448.1036, 17655.21
448.5857, 17693.45
449.0678, 17717.09
449.5499, 17714.98
450.0320, 17684.59
450.5142, 17659.99
450.9963, 17641.59
451.4784, 17629.07
451.9605, 17626.16
452.4426, 17639.25
452.9247, 17634.94
453.4069, 17603.07
453.8890, 17554.82
454.3711, 17520.67
454.8532, 17500.40
455.3353, 17491.39
455.8174, 17503.07
456.2996, 17527.76
456.7817, 17520.30
457.2638, 17473.97
457.7459, 17418.89
458.2280, 17395.32
458.7101, 17391.46
459.1923, 17371.97
459.6744, 17315.35
460.1565, 17243.22
460.6386, 17180.16
461.1207, 17125.22
461.6028, 17075.70
462.0850, 17039.95
462.5671, 17004.56
463.0492, 16956.44
463.5313, 16888.32
464.0135, 16819.71
464.4956, 16750.65
464.9777, 16689.01
465.4598, 16649.19
465.9419, 16669.95
466.4240, 16679.59
466.9062, 16640.49
467.3883, 16543.81
467.8704, 16485.21
468.3525, 16501.29
468.8346, 16533.21
469.3167, 16541.55
469.7989, 16508.81
470.2810, 16483.83
470.7631, 16475.11
471.2452, 16473.54
471.7273, 16452.09
472.2094, 16402.69
472.6916, 16358.50
473.1737, 16337.70
473.6558, 16339.94
474.1379, 16329.02
474.6200, 16303.56
475.1021, 16273.29
475.5843, 16247.77
476.0664, 16227.02
476.5485, 16207.82
477.0306, 16186.08
477.5127, 16170.28
477.9948, 16173.58
478.4770, 16194.86
478.9591, 16228.95
479.4412, 16292.13
479.9233, 16356.89
480.4054, 16383.00
480.8875, 16360.04
481.3697, 16335.88
481.8518, 16331.58
482.3339, 16346.35
482.8160, 16379.28
483.2981, 16454.93
483.7802, 16524.53
484.2624, 16566.44
484.7445, 16584.14
485.2266, 16598.68
485.7087, 16611.81
486.1908, 16624.46
486.6729, 16637.05
487.1551, 16649.88
487.6372, 16663.41
488.1193, 16685.43
488.6014, 16703.80
489.0835, 16696.01
489.5656, 16641.15
490.0478, 16616.74
490.5299, 16658.50
491.0120, 16750.54
491.4941, 16767.63
491.9762, 16695.49
492.4583, 16618.02
492.9405, 16608.05
493.4226, 16654.43
493.9047, 16673.42
494.3868, 16652.68
494.8689, 16614.40
495.3510, 16579.12
495.8332, 16548.94
496.3153, 16531.03
496.7974, 16539.34
497.2795, 16554.47
497.7616, 16555.22
498.2437, 16542.16
498.7259, 16524.02
499.2080, 16506.80
499.6901, 16486.12
500.1722, 16455.70
500.6543, 16403.92
501.1364, 16364.58
501.6186, 16359.31
502.1007, 16372.36
502.5828, 16375.95
503.0649, 16358.71
503.5470, 16339.12
504.0291, 16321.49
504.5113, 16305.88
504.9934, 16291.80
505.4755, 16270.96
505.9576, 16262.06
506.4397, 16283.36
506.9218, 16349.98
507.4040, 16389.88
507.8861, 16390.88
508.3682, 16372.41
508.8503, 16367.83
509.3324, 16376.98
509.8145, 16396.23
510.2967, 16427.56
510.7788, 16466.67
511.2609, 16503.55
511.7430, 16537.94
512.2252, 16564.41
512.7073, 16574.71
513.1894, 16574.77
513.6715, 16570.85
514.1536, 16557.20
514.6357, 16559.62
515.1179, 16626.27
515.6000, 16721.68
516.0821, 16777.70
516.5642, 16728.46
517.0463, 16669.44
517.5284, 16645.07
518.0106, 16656.39
518.4927, 16673.17
518.9748, 16697.43
519.4569, 16719.13
519.9390, 16730.54
520.4211, 16711.00
520.9033, 16718.13
521.3854, 16769.41
521.8675, 16837.88
522.3496, 16874.40
522.8317, 16865.84
523.3138, 16864.93
523.7960, 16889.07
524.2781, 16933.94
524.7602, 16970.23
525.2423, 16997.31
525.7244, 17023.92
526.2065, 17051.62
526.6887, 17083.52
527.1708, 17137.61
527.6529, 17220.55
528.1350, 17305.71
528.6171, 17356.45
529.0992, 17387.12
529.5814, 17429.83
530.0635, 17504.26
530.5456, 17590.81
531.0277, 17682.75
531.5098, 17776.76
531.9919, 17858.18
532.4741, 17906.12
532.9562, 17949.71
533.4383, 18009.72
533.9204, 18099.22
534.4025, 18175.69
534.8846, 18222.55
535.3668, 18257.94
535.8489, 18302.10
536.3310, 18369.65
536.8131, 18422.90
537.2952, 18452.35
537.7773, 18464.11
538.2595, 18484.40
538.7416, 18514.78
539.2237, 18551.50
539.7058, 18595.14
540.1879, 18645.59
540.6700, 18693.16
541.1522, 18738.81
541.6343, 18774.31
542.1164, 18778.08
542.5985, 18762.46
543.0806, 18765.97
543.5627, 18810.17
544.0449, 18858.94
544.5270, 18871.95
545.0091, 18858.47
545.4912, 18845.04
545.9733, 18852.40
546.4554, 18857.88
546.9376, 18842.10
547.4197, 18802.00
547.9018, 18772.84
548.3839, 18788.09
548.8660, 18804.08
549.3481, 18787.80
549.8303, 18704.50
550.3124, 18636.32
550.7945, 18587.91
551.2766, 18554.76
551.7587, 18529.51
552.2408, 18517.59
552.7230, 18497.23
553.2051, 18453.48
553.6872, 18393.98
554.1693, 18380.35
554.6514, 18418.52
555.1335, 18447.60
555.6157, 18397.66
556.0978, 18299.22
556.5799, 18255.63
557.0620, 18288.50
557.5441, 18330.30
558.0262, 18306.72
558.5084, 18242.75
558.9905, 18185.30
559.4726, 18143.16
559.9547, 18120.80
560.4368, 18130.62
560.9189, 18165.46
561.4011, 18196.23
561.8832, 18211.09
562.3653, 18222.53
562.8474, 18237.44
563.3295, 18259.05
563.8116, 18272.96
564.2938, 18266.95
564.7759, 18263.91
565.2580, 18287.67
565.7401, 18351.09
566.2222, 18400.44
566.7043, 18426.14
567.1865, 18438.22
567.6686, 18454.45
568.1507, 18474.59
568.6328, 18510.11
569.1149, 18575.17
569.5970, 18657.34
570.0792, 18721.21
570.5613, 18767.55
571.0434, 18816.19
571.5255, 18890.49
572.0076, 18972.17
572.4897, 19041.44
572.9719, 19094.86
573.4540, 19132.57
573.9361, 19141.42
574.4182, 19138.01
574.9003, 19144.49
575.3824, 19200.00
575.8646, 19229.17
576.3467, 19198.04
576.8288, 19121.11
577.3109, 19066.79
577.7930, 19045.34
578.2751, 19032.85
578.7573, 19023.15
579.2394, 19017.56
579.7215, 18999.67
580.2036, 18967.16
580.6857, 18929.64
581.1678, 18898.90
581.6500, 18873.34
582.1321, 18838.08
582.6142, 18790.18
583.0963, 18733.58
583.5784, 18663.56
584.0605, 18587.95
584.5427, 18526.19
585.0248, 18504.20
585.5069, 18487.51
585.9890, 18448.85
586.4711, 18390.49
586.9532, 18328.68
587.4354, 18263.66
587.9175, 18201.58
588.3996, 18145.46
588.8817, 18095.10
589.3638, 18052.30
589.8459, 18024.93
590.3281, 17998.32
590.8102, 17957.21
591.2923, 17898.23
591.7744, 17832.42
592.2565, 17755.63
592.7386, 17677.36
593.2208, 17626.05
593.7029, 17602.34
594.1850, 17571.88
594.6671, 17511.21
595.1492, 17435.59
595.6313, 17381.97
596.1135, 17349.41
596.5956, 17323.00
597.0777, 17298.69
597.5598, 17271.42
598.0419, 17233.34
598.5240, 17179.42
599.0062, 17130.94
599.4883, 17106.84
599.9704, 17089.49
600.4525, 17058.79
600.9346, 16983.62
601.4167, 16927.40
601.8989, 16901.85
602.3810, 16900.05
602.8631, 16903.46
603.3452, 16915.00
603.8273, 16924.45
604.3094, 16930.18
604.7916, 16931.12
605.2737, 16915.76
605.7558, 16882.18
606.2379, 16844.10
606.7200, 16805.39
607.2021, 16770.17
607.6843, 16756.33
608.1664, 16770.13
608.6485, 16781.58
609.1306, 16757.46
609.6127, 16714.18
610.0948, 16675.76
610.5770, 16646.48
611.0591, 16628.96
611.5412, 16635.76
612.0233, 16656.07
612.5054, 16661.12
612.9875, 16633.29
613.4697, 16600.94
613.9518, 16565.77
614.4339, 16527.43
614.9160, 16522.76
615.3981, 16566.76
615.8802, 16614.98
616.3624, 16637.48
616.8445, 16633.51
617.3266, 16631.63
617.8087, 16634.34
618.2908, 16634.29
618.7729, 16613.57
619.2551, 16582.24
619.7372, 16571.87
620.2193, 16600.52
620.7014, 16637.43
621.1835, 16652.49
621.6656, 16653.28
622.1478, 16658.08
622.6299, 16682.89
623.1120, 16705.79
623.5941, 16714.40
624.0762, 16709.08
624.5583, 16708.67
625.0405, 16706.92
625.5226, 16719.03
626.0047, 16756.71
626.4868, 16830.21
626.9689, 16880.13
627.4510, 16899.25
627.9332, 16909.20
628.4153, 16935.74
628.8974, 16977.14
629.3795, 17007.50
629.8616, 17020.76
630.3438, 17024.95
630.8259, 17021.83
631.3080, 17017.63
631.7901, 17029.71
632.2722, 17066.42
632.7543, 17122.20
633.2365, 17217.01
633.7186, 17335.67
634.2007, 17408.95
634.6828, 17358.67
635.1649, 17305.71
635.6470, 17315.52
636.1292, 17406.59
636.6113, 17464.98
637.0934, 17469.64
637.5755, 17468.31
638.0576, 17500.12
638.5397, 17572.71
639.0219, 17624.06
639.5040, 17645.29
639.9861, 17658.16
640.4682, 17691.56
640.9503, 17742.79
641.4324, 17799.99
641.9146, 17855.70
642.3967, 17919.97
642.8788, 18017.97
643.3609, 18134.16
643.8430, 18229.58
644.3251, 18278.10
644.8073, 18306.43
645.2894, 18317.03
645.7715, 18312.00
646.2536, 18328.74
646.7357, 18391.77
647.2178, 18460.62
647.7000, 18517.45
648.1821, 18556.78
648.6642, 18610.65
649.1463, 18681.90
649.6284, 18762.12
650.1105, 18848.12
650.5927, 18938.00
651.0748, 19009.50
651.5569, 19055.41
652.0390, 19091.03
652.5211, 19124.86
653.0032, 19163.79
653.4854, 19223.88
653.9675, 19323.00
654.4496, 19434.59
654.9317, 19555.00
655.4138, 19675.68
655.8959, 19773.07
656.3781, 19818.35
656.8602, 19857.52
657.3423, 19903.55
657.8244, 19956.18
658.3065, 20023.13
658.7886, 20111.70
659.2708, 20201.03
659.7529, 20271.94
660.2350, 20323.33
660.7171, 20411.05
661.1992, 20543.02
661.6813, 20673.15
662.1635, 20734.89
662.6456, 20755.34
663.1277, 20805.92
663.6098, 20913.06
664.0919, 21025.60
664.5740, 21107.55
665.0562, 21167.46
665.5383, 21218.94
666.0204, 21260.88
666.5025, 21301.40
666.9846, 21343.12
667.4667, 21385.88
667.9489, 21425.37
668.4310, 21452.43
668.9131, 21494.67
669.3953, 21574.05
669.8774, 21681.99
670.3595, 21717.74
670.8416, 21669.93
671.3237, 21632.35
671.8058, 21696.99
672.2880, 21819.09
672.7701, 21875.29
673.2522, 21855.43
673.7343, 21824.91
674.2164, 21832.59
674.6985, 21859.19
675.1807, 21886.08
675.6628, 21916.15
676.1449, 21929.26
676.6270, 21912.33
677.1091, 21877.54
677.5912, 21840.27
678.0734, 21796.24
678.5555, 21759.00
679.0376, 21734.26
679.5197, 21714.28
680.0018, 21679.29
680.4839, 21627.96
680.9661, 21573.14
681.4482, 21521.85
681.9303, 21468.12
682.4124, 21387.29
682.8945, 21285.58
683.3766, 21199.76
683.8588, 21163.67
684.3409, 21145.82
684.8230, 21127.80
685.3051, 21108.09
685.7872, 21065.09
686.2693, 20960.75
686.7515, 20853.46
687.2336, 20787.10
687.7157, 20784.40
688.1978, 20751.60
688.6799, 20674.14
689.1620, 20586.93
689.6442, 20528.28
690.1263, 20499.11
690.6084, 20465.63
691.0905, 20421.43
691.5726, 20375.82
692.0547, 20346.27
692.5369, 20324.81
693.0190, 20290.88
693.5011, 20227.93
693.9832, 20161.95
694.4653, 20113.41
694.9474, 20076.45
695.4296, 20036.89
695.9117, 19992.22
696.3938, 19943.40
696.8759, 19883.92
697.3580, 19818.46
697.8401, 19776.74
698.3223, 19765.18
698.8044, 19763.71
699.2865, 19770.87
699.7686, 19782.85
700.2507, 19754.52
700.7328, 19683.19
701.2150, 19623.09
701.6971, 19640.37
702.1792, 19689.18
702.6613, 19684.64
703.1434, 19611.57
703.6255, 19547.54
704.1077, 19562.78
704.5898, 19595.82
705.0719, 19590.60
705.5540, 19517.85
706.0361, 19438.18
706.5182, 19341.08
707.0004, 19250.68
707.4825, 19197.44
707.9646, 19190.71
708.4467, 19188.75
708.9288, 19190.78
709.4109, 19187.16
709.8931, 19145.77
710.3752, 19076.66
710.8573, 19035.48
711.3394, 19066.54
711.8215, 19112.05
712.3036, 19112.46
712.7858, 19076.18
713.2679, 19027.77
713.7500, 18945.32
714.2321, 18883.59
714.7142, 18879.38
715.1964, 18930.89
715.6785, 18949.16
716.1606, 18915.29
716.6427, 18876.31
717.1248, 18854.56
717.6069, 18849.55
718.0891, 18833.37
718.5712, 18805.71
719.0533, 18772.38
719.5354, 18726.96
720.0175, 18682.48
720.4996, 18675.48
720.9818, 18713.37
721.4639, 18745.07
721.9460, 18738.63
722.4281, 18707.70
722.9102, 18662.27
723.3923, 18584.82
723.8745, 18532.01
724.3566, 18522.12
724.8387, 18533.24
725.3208, 18545.02
725.8029, 18559.46
726.2850, 18565.49
726.7672, 18559.77
727.2493, 18546.73
727.7314, 18530.18
728.2135, 18511.32
728.6956, 18500.15
729.1777, 18500.95
729.6599, 18508.05
730.1420, 18520.28
730.6241, 18533.88
731.1062, 18540.50
731.5883, 18541.00
732.0704, 18530.22
732.5526, 18496.13
733.0347, 18445.70
733.5168, 18422.51
733.9989, 18446.16
734.4810, 18461.47
734.9631, 18442.47
735.4453, 18397.05
735.9274, 18391.90
736.4095, 18429.35
736.8916, 18451.46
737.3737, 18385.40
737.8558, 18291.17
738.3380, 18282.90
738.8201, 18361.72
739.3022, 18428.32
739.7843, 18397.16
740.2664, 18349.87
740.7485, 18350.63
741.2307, 18426.52
741.7128, 18479.36
742.1949, 18498.04
742.6770, 18499.32
743.1591, 18493.26
743.6412, 18478.75
744.1234, 18463.84
744.6055, 18447.58
745.0876, 18436.57
745.5697, 18442.68
746.0518, 18459.97
746.5339, 18473.49
747.0161, 18479.95
747.4982, 18480.34
747.9803, 18474.37
748.4624, 18462.44
748.9445, 18445.58
749.4266, 18395.79
749.9088, 18377.38
750.3909, 18430.39
750.8730, 18506.20
751.3551, 18519.42
751.8372, 18450.78
752.3193, 18397.32
752.8015, 18385.92
753.2836, 18396.51
753.7657, 18383.32
754.2478, 18352.95
754.7299, 18336.49
755.2120, 18368.32
755.6942, 18401.77
756.1763, 18376.08
756.6584, 18313.06
757.1405, 18281.22
757.6226, 18341.44
758.1047, 18395.93
758.5869, 18403.17
759.0690, 18370.63
759.5511, 18350.14
760.0332, 18346.08
760.5153, 18341.42
760.9974, 18330.52
761.4796, 18313.39
761.9617, 18288.08
762.4438, 18255.66
762.9259, 18220.75
763.4080, 18181.76
763.8901, 18146.51
764.3723, 18121.69
764.8544, 18108.27
765.3365, 18109.46
765.8186, 18147.58
766.3007, 18183.60
766.7828, 18190.88
767.2650, 18162.58
767.7471, 18141.78
768.2292, 18126.21
768.7113, 18121.15
769.1934, 18140.22
769.6755, 18177.85
770.1577, 18183.97
770.6398, 18153.89
771.1219, 18114.33
771.6040, 18087.29
772.0861, 18067.20
772.5682, 18044.37
773.0504, 18012.29
773.5325, 17997.54
774.0146, 18043.77
774.4967, 18092.11
774.9788, 18083.88
775.4609, 17967.25
775.9431, 17913.43
776.4252, 17948.85
776.9073, 18006.78
777.3894, 17997.50
777.8715, 17929.97
778.3536, 17884.57
778.8358, 17880.14
779.3179, 17885.16
779.8000, 17862.40
780.2821, 17827.22
780.7642, 17804.04
781.2463, 17815.02
781.7285, 17817.06
782.2106, 17784.07
782.6927, 17737.87
783.1748, 17712.68
783.6569, 17714.30
784.1390, 17724.09
784.6212, 17742.59
785.1033, 17762.98
785.5854, 17772.93
786.0675, 17772.56
786.5496, 17763.98
787.0317, 17744.39
787.5139, 17722.22
787.9960, 17711.18
788.4781, 17703.96
788.9602, 17685.17
789.4423, 17629.28
789.9244, 17583.56
790.4066, 17573.09
790.8887, 17582.43
791.3708, 17573.32
791.8529, 17543.00
792.3350, 17501.61
792.8171, 17443.13
793.2993, 17384.17
793.7814, 17385.21
794.2635, 17435.22
794.7456, 17461.77
795.2277, 17402.03
795.7098, 17326.40
796.1920, 17300.09
796.6741, 17311.39
797.1562, 17323.09
797.6383, 17325.29
798.1204, 17323.05
798.6025, 17307.79
799.0847, 17287.61
799.5668, 17310.39
800.0489, 17389.28
800.5310, 17456.44
801.0131, 17484.02
801.4952, 17478.60
801.9774, 17440.38
802.4595, 17377.83
802.9416, 17340.82
803.4237, 17382.13
803.9058, 17440.04
804.3879, 17472.70
804.8701, 17480.18
805.3522, 17477.27
805.8343, 17452.01
806.3164, 17434.12
806.7985, 17434.97
807.2806, 17452.78
807.7628, 17471.12
808.2449, 17492.82
808.7270, 17494.84
809.2091, 17444.13
809.6912, 17371.18
810.1733, 17336.14
810.6555, 17336.68
811.1376, 17354.65
811.6197, 17392.63
812.1018, 17432.98
812.5839, 17474.12
813.0660, 17515.27
813.5482, 17509.97
814.0303, 17415.71
814.5124, 17343.92
814.9945, 17360.82
815.4766, 17453.55
815.9587, 17474.32
816.4409, 17422.42
816.9230, 17372.63
817.4051, 17392.21
817.8872, 17437.46
818.3693, 17449.75
818.8514, 17429.59
819.3336, 17415.60
819.8157, 17436.12
820.2978, 17457.46
820.7799, 17455.97
821.2620, 17430.08
821.7441, 17424.08
822.2263, 17440.81
822.7084, 17467.25
823.1905, 17499.11
823.6726, 17534.05
824.1547, 17566.08
824.6368, 17594.29
825.1190, 17606.00
825.6011, 17573.10
826.0832, 17533.73
826.5653, 17522.88
827.0474, 17543.26
827.5295, 17568.45
828.0117, 17599.79
828.4938, 17629.00
828.9759, 17655.09
829.4580, 17678.52
829.9401, 17688.20
830.4222, 17683.53
830.9044, 17672.62
831.3865, 17652.70
831.8686, 17633.36
832.3507, 17637.92
832.8328, 17664.88
833.3149, 17687.96
833.7971, 17686.57
834.2792, 17681.61
834.7614, 17682.52
835.2435, 17689.90
835.7256, 17715.29
836.2077, 17768.36
836.6898, 17821.42
837.1719, 17862.33
837.6541, 17891.39
838.1362, 17905.65
838.6183, 17905.88
839.1004, 17909.41
839.5825, 17925.93
840.0646, 17953.86
840.5468, 17995.58
841.0289, 18049.69
841.5110, 18099.96
841.9931, 18123.15
842.4752, 18159.66
842.9573, 18236.34
843.4395, 18350.08
843.9216, 18409.47
844.4037, 18404.04
844.8858, 18399.54
845.3679, 18434.77
845.8500, 18497.95
846.3322, 18573.56
846.8143, 18657.24
847.2964, 18722.45
847.7785, 18734.19
848.2606, 18740.52
848.7427, 18773.08
849.2249, 18831.89
849.7070, 18877.66
850.1891, 18902.92
850.6712, 18929.47
851.1533, 18971.47
851.6354, 19021.77
852.1176, 19035.98
852.5997, 19018.25
853.0818, 19012.36
853.5639, 19064.25
854.0460, 19125.22
854.5281, 19150.30
855.0103, 19142.86
855.4924, 19121.88
855.9745, 19058.50
856.4566, 19022.85
856.9387, 19048.81
857.4208, 19117.21
857.9030, 19141.36
858.3851, 19115.88
858.8672, 19087.75
859.3493, 19075.99
859.8314, 19073.06
860.3135, 19069.81
860.7957, 19064.39
861.2778, 19051.05
861.7599, 19010.77
862.2420, 18979.04
862.7241, 18981.32
863.2062, 19004.90
863.6884, 19006.67
864.1705, 18979.80
864.6526, 18946.75
865.1347, 18910.84
865.6168, 18872.89
866.0989, 18829.79
866.5811, 18784.38
867.0632, 18753.54
867.5453, 18748.02
868.0274, 18752.35
868.5095, 18769.14
868.9916, 18785.46
869.4738, 18776.69
869.9559, 18703.26
870.4380, 18651.57
870.9201, 18630.86
871.4022, 18636.85
871.8843, 18667.61
872.3665, 18722.75
872.8486, 18785.16
873.3307, 18856.53
873.8128, 18917.51
874.2949, 18929.88
874.7770, 18919.32
875.2592, 18926.00
875.7413, 18974.16
876.2234, 19018.01
876.7055, 19031.48
877.1876, 19044.52
877.6697, 19090.65
878.1519, 19176.86
878.6340, 19258.94
879.1161, 19335.46
879.5982, 19398.74
880.0803, 19433.21
880.5624, 19449.79
881.0446, 19469.55
881.5267, 19497.86
882.0088, 19524.27
882.4909, 19527.83
882.9730, 19538.92
883.4551, 19587.37
883.9373, 19690.55
884.4194, 19772.01
884.9015, 19828.59
885.3836, 19873.03
885.8657, 19916.61
886.3478, 19957.49
886.8300, 19982.68
887.3121, 19991.81
887.7942, 20018.80
888.2763, 20091.89
888.7584, 20188.17
889.2405, 20296.80
889.7227, 20418.85
890.2048, 20524.06
890.6869, 20608.19
891.1690, 20681.49
891.6511, 20746.03
892.1332, 20802.51
892.6154, 20859.63
893.0975, 20917.68
893.5796, 20981.19
894.0617, 21052.67
894.5438, 21132.58
895.0259, 21226.97
895.5081, 21332.95
895.9902, 21428.42
896.4723, 21502.71
896.9544, 21575.12
897.4365, 21645.36
897.9186, 21720.11
898.4008, 21829.40
898.8829, 21972.89
899.3650, 22092.06
899.8471, 22148.44
900.3292, 22187.30
900.8113, 22255.99
901.2935, 22347.62
901.7756, 22448.36
902.2577, 22545.22
902.7398, 22659.26
903.2219, 22796.82
903.7040, 22947.87
904.1862, 23101.43
904.6683, 23257.73
905.1504, 23396.79
905.6325, 23512.55
906.1146, 23621.78
906.5967, 23743.22
907.0789, 23874.77
907.5610, 24014.53
908.0431, 24181.51
908.5252, 24316.29
909.0073, 24370.89
909.4894, 24409.67
909.9716, 24494.92
910.4537, 24640.48
910.9358, 24757.12
911.4179, 24838.92
911.9000, 24908.65
912.3821, 24987.25
912.8643, 25069.79
913.3464, 25144.26
913.8285, 25208.12
914.3106, 25281.85
914.7927, 25396.80
915.2748, 25504.67
915.7570, 25568.45
916.2391, 25582.99
916.7212, 25649.30
917.2033, 25781.01
917.6854, 25899.63
918.1675, 25940.73
918.6497, 25939.10
919.1318, 25974.40
919.6139, 26038.53
920.0960, 26086.88
920.5781, 26069.59
921.0602, 26058.65
921.5424, 26105.89
922.0245, 26190.10
922.5066, 26219.86
922.9887, 26179.33
923.4708, 26140.12
923.9529, 26117.79
924.4351, 26117.03
924.9172, 26166.85
925.3993, 26247.01
925.8814, 26299.89
926.3635, 26294.44
926.8456, 26269.84
927.3278, 26238.60
927.8099, 26200.28
928.2920, 26152.02
928.7741, 26083.95
929.2562, 26038.15
929.7383, 26022.09
930.2205, 26017.42
930.7026, 26016.12
931.1847, 26005.93
931.6668, 25948.72
932.1489, 25829.61
932.6310, 25719.18
933.1132, 25676.25
933.5953, 25644.22
934.0774, 25576.61
934.5595, 25464.34
935.0416, 25357.53
935.5237, 25250.03
936.0059, 25166.29
936.4880, 25154.67
936.9701, 25171.86
937.4522, 25091.36
937.9343, 24923.07
938.4164, 24773.82
938.8986, 24735.75
939.3807, 24694.55
939.8628, 24573.20
940.3449, 24390.64
940.8270, 24257.48
941.3091, 24185.10
941.7913, 24119.08
942.2734, 24047.19
942.7555, 23963.90
943.2376, 23836.75
943.7197, 23686.80
944.2018, 23571.78
944.6840, 23548.97
945.1661, 23519.55
945.6482, 23446.35
946.1303, 23341.38
946.6124, 23223.44
947.0945, 23094.21
947.5767, 22938.32
948.0588, 22744.16
948.5409, 22563.79
949.0230, 22491.82
949.5051, 22472.19
949.9872, 22385.44
950.4694, 22204.00
950.9515, 22039.19
951.4336, 21962.11
951.9157, 21901.83
952.3978, 21808.44
952.8799, 21678.24
953.3621, 21578.76
953.8442, 21514.41
954.3263, 21454.49
954.8084, 21373.04
955.2905, 21286.29
955.7726, 21232.30
956.2548, 21200.47
956.7369, 21145.01
957.2190, 21007.13
957.7011, 20886.84
958.1832, 20822.63
958.6653, 20795.86
959.1475, 20762.04
959.6296, 20721.03
960.1117, 20679.30
960.5938, 20640.92
961.0759, 20597.63
961.5580, 20522.38
962.0402, 20440.06
962.5223, 20392.77
963.0044, 20423.22
963.4865, 20426.54
963.9686, 20366.07
964.4507, 20288.34
964.9329, 20232.62
965.4150, 20198.94
965.8971, 20162.22
966.3792, 20121.18
966.8613, 20085.28
967.3434, 20054.87
967.8256, 20038.77
968.3077, 20065.42
968.7898, 20132.91
969.2719, 20145.92
969.7540, 20036.20
970.2361, 19942.09
970.7183, 19920.81
971.2004, 19946.99
971.6825, 19915.52
972.1646, 19833.88
972.6467, 19764.35
973.1288, 19739.72
973.6110, 19730.45
974.0931, 19726.87
974.5752, 19719.31
975.0573, 19688.65
975.5394, 19605.11
976.0215, 19550.39
976.5037, 19539.66
976.9858, 19538.04
977.4679, 19498.43
977.9500, 19430.67
978.4321, 19370.12
978.9142, 19320.96
979.3964, 19284.23
979.8785, 19267.63
980.3606, 19258.86
980.8427, 19254.09
981.3248, 19254.66
981.8069, 19230.79
982.2891, 19176.46
982.7712, 19119.74
983.2533, 19071.74
983.7354, 19033.86
984.2175, 19014.58
984.6996, 19007.91
985.1818, 18993.47
985.6639, 18941.76
986.1460, 18902.29
986.6281, 18906.54
987.1102, 18928.15
987.5923, 18924.24
988.0745, 18891.03
988.5566, 18852.83
989.0387, 18807.95
989.5208, 18779.26
990.0029, 18817.90
990.4850, 18879.56
990.9672, 18895.90
991.4493, 18844.32
991.9314, 18800.74
992.4135, 18790.29
992.8956, 18784.27
993.3777, 18767.96
993.8599, 18742.67
994.3420, 18721.21
994.8241, 18703.92
995.3062, 18690.35
995.7883, 18683.32
996.2704, 18677.27
996.7526, 18664.32
997.2347, 18648.33
997.7168, 18642.85
998.1990, 18662.21
998.6811, 18665.82
999.1632, 18642.31
999.6453, 18608.91
1000.127, 18590.75
1000.610, 18586.89
1001.092, 18598.67
1001.574, 18630.84
1002.056, 18657.08
1002.538, 18662.70
1003.020, 18654.54
1003.502, 18635.65
1003.984, 18604.88
1004.466, 18579.74
1004.949, 18561.69
1005.431, 18543.58
1005.913, 18511.05
1006.395, 18480.84
1006.877, 18493.66
1007.359, 18537.20
1007.841, 18564.12
1008.323, 18541.55
1008.806, 18515.23
1009.288, 18489.75
1009.770, 18472.39
1010.252, 18485.44
1010.734, 18527.17
1011.216, 18541.76
1011.698, 18514.19
1012.180, 18475.10
1012.662, 18451.91
1013.145, 18434.43
1013.627, 18410.42
1014.109, 18374.11
1014.591, 18347.12
1015.073, 18328.61
1015.555, 18323.26
1016.037, 18343.67
1016.519, 18378.96
1017.002, 18385.54
1017.484, 18367.65
1017.966, 18343.84
1018.448, 18312.93
1018.930, 18290.24
1019.412, 18290.73
1019.894, 18302.99
1020.376, 18303.84
1020.858, 18292.83
1021.341, 18269.16
1021.823, 18226.88
1022.305, 18196.06
1022.787, 18224.46
1023.269, 18282.29
1023.751, 18328.58
1024.233, 18356.88
1024.715, 18371.24
1025.198, 18350.50
1025.680, 18344.10
1026.162, 18387.56
1026.644, 18466.05
1027.126, 18476.44
1027.608, 18426.43
1028.090, 18395.35
1028.572, 18443.10
1029.054, 18505.46
1029.536, 18545.44
1030.019, 18565.51
1030.501, 18571.02
1030.983, 18561.30
1031.465, 18541.42
1031.947, 18511.48
1032.429, 18475.70
1032.911, 18439.31
1033.393, 18402.04
1033.876, 18359.36
1034.358, 18311.07
1034.840, 18272.44
1035.322, 18248.15
1035.804, 18239.86
1036.286, 18256.87
1036.768, 18290.44
1037.250, 18281.61
1037.733, 18231.91
1038.215, 18187.08
1038.697, 18161.98
1039.179, 18153.25
1039.661, 18166.51
1040.143, 18189.66
1040.625, 18204.22
1041.107, 18200.84
1041.589, 18202.25
1042.072, 18215.18
1042.554, 18217.22
1043.036, 18165.83
1043.518, 18091.91
1044.000, 18081.38
1044.482, 18134.09
1044.964, 18181.22
1045.446, 18182.40
1045.928, 18178.41
1046.411, 18195.72
1046.893, 18219.63
1047.375, 18189.50
1047.857, 18104.57
1048.339, 18057.82
1048.821, 18086.37
1049.303, 18130.83
1049.785, 18133.31
1050.268, 18113.05
1050.750, 18092.34
1051.232, 18072.93
1051.714, 18061.17
1052.196, 18061.44
1052.678, 18060.02
1053.160, 18044.57
1053.642, 18021.24
1054.125, 18010.62
1054.607, 18010.02
1055.089, 18006.87
1055.571, 17988.43
1056.053, 17974.64
1056.535, 17979.77
1057.017, 17990.93
1057.499, 17986.85
1057.981, 17967.23
1058.464, 17940.30
1058.946, 17905.07
1059.428, 17876.75
1059.910, 17873.61
1060.392, 17882.21
1060.874, 17884.71
1061.356, 17876.60
1061.838, 17905.06
1062.320, 17990.39
1062.803, 18062.89
1063.285, 18091.54
1063.767, 18088.87
1064.249, 18069.73
1064.731, 18042.06
1065.213, 18028.97
1065.695, 18055.11
1066.177, 18071.10
1066.660, 18043.77
1067.142, 18015.45
1067.624, 18032.79
1068.106, 18096.20
1068.588, 18117.64
1069.070, 18093.80
1069.552, 18057.92
1070.034, 18015.02
1070.516, 17987.10
1070.999, 17999.76
1071.481, 18046.30
1071.963, 18085.67
1072.445, 18121.25
1072.927, 18133.81
1073.409, 18115.38
1073.891, 18083.94
1074.373, 18062.21
1074.855, 18047.24
1075.338, 18032.60
1075.820, 18014.40
1076.302, 18009.64
1076.784, 18021.49
1077.266, 18049.18
1077.748, 18093.98
1078.230, 18154.98
1078.712, 18254.07
1079.195, 18376.88
1079.677, 18428.01
1080.159, 18292.59
1080.641, 18150.64
1081.123, 18092.84
1081.605, 18094.94
1082.087, 18118.73
1082.569, 18172.35
1083.052, 18205.14
1083.534, 18211.90
1084.016, 18214.31
1084.498, 18239.75
1084.980, 18265.88
1085.462, 18262.34
1085.944, 18231.04
1086.426, 18206.85
1086.908, 18203.19
1087.391, 18188.49
1087.873, 18146.09
1088.355, 18104.68
1088.837, 18129.57
1089.319, 18196.42
1089.801, 18241.50
1090.283, 18246.46
1090.765, 18248.16
1091.248, 18277.55
1091.730, 18292.03
1092.212, 18255.97
1092.694, 18177.73
1093.176, 18159.71
1093.658, 18197.99
1094.140, 18238.19
1094.622, 18255.40
1095.104, 18260.00
1095.587, 18254.67
1096.069, 18242.96
1096.551, 18230.29
1097.033, 18215.88
1097.515, 18200.19
1097.997, 18179.80
1098.479, 18173.47
1098.961, 18207.91
1099.443, 18260.05
1099.926, 18309.67
1100.408, 18351.01
1100.890, 18358.98
1101.372, 18297.90
1101.854, 18251.85
1102.336, 18245.04
1102.818, 18251.27
1103.300, 18219.39
1103.783, 18164.38
1104.265, 18130.11
1104.747, 18130.34
1105.229, 18124.62
1105.711, 18084.15
1106.193, 18044.34
1106.675, 18021.00
1107.157, 18014.95
1107.640, 18036.95
1108.122, 18083.84
1108.604, 18116.74
1109.086, 18105.46
1109.568, 18094.57
1110.050, 18124.48
1110.532, 18169.41
1111.014, 18193.51
1111.496, 18187.58
1111.979, 18184.76
1112.461, 18183.96
1112.943, 18187.69
1113.425, 18204.28
1113.907, 18220.98
1114.389, 18212.26
1114.871, 18188.45
1115.353, 18194.53
1115.835, 18277.90
1116.318, 18313.74
1116.800, 18274.04
1117.282, 18208.42
1117.764, 18177.27
1118.246, 18170.51
1118.728, 18169.76
1119.210, 18173.39
1119.692, 18168.61
1120.175, 18137.33
1120.657, 18113.34
1121.139, 18110.88
1121.621, 18122.54
1122.103, 18128.45
1122.585, 18128.81
1123.067, 18123.12
1123.549, 18107.79
1124.031, 18096.54
1124.514, 18106.83
1124.996, 18116.81
1125.478, 18105.97
1125.960, 18073.69
1126.442, 18053.04
1126.924, 18043.93
1127.406, 18058.12
1127.888, 18130.48
1128.370, 18198.56
1128.853, 18207.64
1129.335, 18176.73
1129.817, 18135.64
1130.299, 18068.46
1130.781, 18056.33
1131.263, 18113.31
1131.745, 18169.22
1132.227, 18154.73
1132.710, 18109.18
1133.192, 18077.70
1133.674, 18062.33
1134.156, 18058.01
1134.638, 18065.89
1135.120, 18083.45
1135.602, 18114.99
1136.084, 18146.61
1136.567, 18159.65
1137.049, 18156.90
1137.531, 18138.71
1138.013, 18103.59
1138.495, 18080.13
1138.977, 18086.35
1139.459, 18096.47
1139.941, 18101.46
1140.423, 18104.19
1140.906, 18114.57
1141.388, 18130.54
1141.870, 18145.50
1142.352, 18160.82
1142.834, 18165.73
1143.316, 18144.59
1143.798, 18121.01
1144.280, 18111.63
1144.762, 18116.10
1145.245, 18121.18
1145.727, 18127.21
1146.209, 18134.81
1146.691, 18147.43
1147.173, 18158.38
1147.655, 18160.56
1148.137, 18159.66
1148.619, 18164.67
1149.102, 18177.64
1149.584, 18182.79
1150.066, 18179.15
1150.548, 18171.03
1151.030, 18157.12
1151.512, 18143.73
1151.994, 18135.61
1152.476, 18133.02
1152.958, 18135.63
1153.441, 18143.32
1153.923, 18159.00
1154.405, 18186.56
1154.887, 18208.08
1155.369, 18199.43
1155.851, 18176.02
1156.333, 18155.18
1156.815, 18138.40
1157.297, 18124.61
1157.780, 18113.20
1158.262, 18104.02
1158.744, 18095.64
1159.226, 18092.19
1159.708, 18103.75
1160.190, 18124.02
1160.672, 18143.40
1161.154, 18161.59
1161.637, 18167.36
1162.119, 18147.42
1162.601, 18136.07
1163.083, 18156.58
1163.565, 18188.85
1164.047, 18161.46
1164.529, 18101.65
1165.011, 18088.11
1165.494, 18183.26
1165.976, 18246.89
1166.458, 18226.24
1166.940, 18183.72
1167.422, 18147.82
1167.904, 18123.44
1168.386, 18161.81
1168.868, 18246.87
1169.350, 18301.49
1169.833, 18250.31
1170.315, 18205.44
1170.797, 18210.31
1171.279, 18237.31
1171.761, 18263.19
1172.243, 18287.73
1172.725, 18313.58
1173.207, 18340.24
1173.689, 18356.75
1174.172, 18339.57
1174.654, 18327.90
1175.136, 18363.00
1175.618, 18409.38
1176.100, 18395.40
1176.582, 18321.38
1177.064, 18287.13
1177.546, 18306.06
1178.029, 18337.30
1178.511, 18355.97
1178.993, 18369.33
1179.475, 18374.78
1179.957, 18379.28
1180.439, 18418.40
1180.921, 18496.51
1181.403, 18521.51
1181.885, 18462.38
1182.368, 18396.03
1182.850, 18401.73
1183.332, 18429.88
1183.814, 18429.31
1184.296, 18399.97
1184.778, 18417.48
1185.260, 18488.68
1185.742, 18536.92
1186.224, 18529.48
1186.707, 18500.37
1187.189, 18468.82
1187.671, 18446.05
1188.153, 18453.28
1188.635, 18502.71
1189.117, 18505.60
1189.599, 18452.64
1190.081, 18412.90
1190.564, 18430.27
1191.046, 18468.16
1191.528, 18491.96
1192.010, 18502.95
1192.492, 18501.18
1192.974, 18477.30
1193.456, 18470.92
1193.938, 18487.14
1194.421, 18496.25
1194.903, 18467.30
1195.385, 18427.03
1195.867, 18405.34
1196.349, 18401.06
1196.831, 18412.28
1197.313, 18451.42
1197.795, 18476.05
1198.277, 18482.33
1198.760, 18482.25
1199.242, 18481.32
1199.724, 18483.69
1200.206, 18502.32
1200.688, 18530.93
1201.170, 18539.67
1201.652, 18513.10
1202.134, 18491.19
1202.616, 18477.35
1203.099, 18472.31
1203.581, 18480.85
1204.063, 18496.61
1204.545, 18514.63
1205.027, 18533.01
1205.509, 18533.75
1205.991, 18500.46
1206.473, 18485.93
1206.956, 18506.12
1207.438, 18535.02
1207.920, 18531.88
1208.402, 18516.15
1208.884, 18524.71
1209.366, 18562.94
1209.848, 18569.81
1210.330, 18520.62
1210.813, 18483.91
1211.295, 18482.24
1211.777, 18497.18
1212.259, 18498.78
1212.741, 18496.09
1213.223, 18505.17
1213.705, 18530.96
1214.187, 18554.86
1214.669, 18579.63
1215.151, 18590.09
1215.634, 18572.73
1216.116, 18548.66
1216.598, 18544.35
1217.080, 18564.06
1217.562, 18623.14
1218.044, 18746.93
1218.526, 18826.03
1219.008, 18843.02
1219.491, 18835.73
1219.973, 18811.06
1220.455, 18786.30
1220.937, 18806.54
1221.419, 18849.52
1221.901, 18872.27
1222.383, 18857.10
1222.865, 18831.75
1223.348, 18792.63
1223.830, 18757.70
1224.312, 18738.95
1224.794, 18732.49
1225.276, 18737.36
1225.758, 18748.12
1226.240, 18751.93
1226.722, 18742.66
1227.204, 18732.47
1227.687, 18723.65
1228.169, 18709.25
1228.651, 18674.51
1229.133, 18636.46
1229.615, 18627.93
1230.097, 18640.17
1230.579, 18647.15
1231.061, 18632.80
1231.543, 18634.57
1232.026, 18658.08
1232.508, 18682.61
1232.990, 18688.27
1233.472, 18683.87
1233.954, 18679.43
1234.436, 18676.21
1234.918, 18678.09
1235.400, 18689.40
1235.883, 18693.05
1236.365, 18683.30
1236.847, 18682.28
1237.329, 18728.21
1237.811, 18784.17
1238.293, 18800.86
1238.775, 18783.96
1239.257, 18773.63
1239.740, 18775.37
1240.222, 18778.14
1240.704, 18780.98
1241.186, 18782.38
1241.668, 18784.74
1242.150, 18782.16
1242.632, 18759.04
1243.114, 18721.84
1243.596, 18718.14
1244.078, 18762.14
1244.561, 18782.26
1245.043, 18762.73
1245.525, 18735.22
1246.007, 18722.44
1246.489, 18725.45
1246.971, 18755.84
1247.453, 18807.55
1247.936, 18823.90
1248.418, 18796.30
1248.900, 18799.90
1249.382, 18856.89
1249.864, 18913.43
1250.346, 18903.98
1250.828, 18878.57
1251.310, 18888.68
1251.792, 18927.69
1252.275, 18939.46
1252.757, 18923.54
1253.239, 18895.34
1253.721, 18855.04
1254.203, 18821.46
1254.685, 18808.24
1255.167, 18811.84
1255.649, 18837.53
1256.131, 18878.27
1256.614, 18901.13
1257.096, 18906.57
1257.578, 18895.46
1258.060, 18860.35
1258.542, 18840.25
1259.024, 18882.96
1259.506, 18930.50
1259.988, 18934.11
1260.471, 18908.30
1260.953, 18943.89
##END=



