##NAMES=Lorenzenite
##RRUFFID=R060960
##IDEAL CHEMISTRY=Na_2_Ti^4+^_2_O_3_(Si_2_O_6_)
##LOCALITY=Khibiny Massif, Kola Peninsula, Russia
##OWNER=RRUFF
##SOURCE=Michael Scott
##DESCRIPTION=Dark brown prismatic single crystal
##STATUS=The identification of this mineral has been confirmed by X-ray diffraction and chemical analysis
##URL=rruff.info/R060960
##MEASURED CHEMISTRY=Na_2.00_(Ti_1.93_Nb^5+^_0.04_Fe^3+^_0.03_)_Σ=2_O_3_((Si_1.99_Al_0.01_)_Σ=2_O_6_) ; trace amounts of Ca
122.9694, 1261.889
123.4515, 1346.093
123.9336, 1429.383
124.4157, 1513.099
124.8979, 1589.926
125.3800, 1648.660
125.8621, 1684.147
126.3442, 1706.362
126.8263, 1723.376
127.3084, 1735.799
127.7905, 1749.593
128.2727, 1768.470
128.7548, 1792.050
129.2369, 1819.024
129.7190, 1848.530
130.2011, 1881.506
130.6832, 1922.662
131.1654, 1973.039
131.6475, 2022.722
132.1296, 2057.163
132.6117, 2078.391
133.0938, 2106.807
133.5759, 2152.631
134.0581, 2213.538
134.5402, 2267.538
135.0223, 2310.882
135.5044, 2357.395
135.9865, 2431.715
136.4686, 2536.783
136.9508, 2643.490
137.4329, 2747.398
137.9150, 2851.085
138.3971, 2914.240
138.8792, 2926.716
139.3613, 2904.949
139.8434, 2889.708
140.3256, 2884.063
140.8077, 2877.449
141.2898, 2867.100
141.7719, 2859.528
142.2540, 2825.755
142.7361, 2748.949
143.2183, 2639.859
143.7004, 2573.313
144.1825, 2562.745
144.6646, 2578.424
145.1467, 2599.457
145.6288, 2626.459
146.1110, 2658.744
146.5931, 2704.381
147.0752, 2766.238
147.5573, 2793.719
148.0394, 2761.852
148.5215, 2709.927
149.0037, 2676.522
149.4858, 2670.490
149.9679, 2673.865
150.4500, 2684.621
150.9321, 2704.389
151.4142, 2726.010
151.8964, 2753.092
152.3785, 2781.361
152.8606, 2804.776
153.3427, 2829.375
153.8248, 2844.353
154.3069, 2845.772
154.7890, 2829.717
155.2712, 2808.597
155.7533, 2780.058
156.2354, 2747.708
156.7175, 2718.977
157.1996, 2684.031
157.6817, 2660.517
158.1639, 2657.861
158.6460, 2687.988
159.1281, 2724.625
159.6102, 2760.110
160.0923, 2796.088
160.5744, 2839.097
161.0566, 2891.528
161.5387, 2951.505
162.0208, 3017.635
162.5029, 3089.017
162.9850, 3166.662
163.4671, 3250.125
163.9493, 3338.990
164.4314, 3436.872
164.9135, 3546.344
165.3956, 3665.168
165.8777, 3791.065
166.3598, 3930.732
166.8420, 4071.700
167.3241, 4205.937
167.8062, 4333.833
168.2883, 4460.270
168.7704, 4588.683
169.2525, 4718.885
169.7346, 4851.108
170.2168, 4974.220
170.6989, 5104.538
171.1810, 5256.542
171.6631, 5432.929
172.1452, 5623.269
172.6273, 5832.795
173.1095, 6051.640
173.5916, 6262.568
174.0737, 6497.708
174.5558, 6705.411
175.0379, 6828.674
175.5201, 6870.086
176.0022, 6801.033
176.4843, 6555.448
176.9664, 6164.027
177.4485, 5727.934
177.9306, 5259.443
178.4128, 4796.360
178.8949, 4396.339
179.3770, 4069.579
179.8591, 3805.195
180.3412, 3595.210
180.8233, 3435.857
181.3055, 3314.273
181.7876, 3231.184
182.2697, 3178.771
182.7518, 3133.496
183.2339, 3089.736
183.7160, 3052.344
184.1982, 3028.843
184.6803, 3019.288
185.1624, 3025.890
185.6445, 3054.738
186.1266, 3102.592
186.6087, 3157.052
187.0908, 3215.652
187.5730, 3278.072
188.0551, 3342.182
188.5372, 3408.870
189.0193, 3476.395
189.5014, 3524.041
189.9835, 3559.332
190.4657, 3653.580
190.9478, 3857.654
191.4299, 4137.631
191.9120, 4343.542
192.3941, 4466.278
192.8762, 4558.563
193.3584, 4693.666
193.8405, 4870.229
194.3226, 5002.508
194.8047, 5032.336
195.2868, 4976.875
195.7689, 4993.785
196.2511, 5100.345
196.7332, 5234.462
197.2153, 5323.946
197.6974, 5371.320
198.1795, 5353.916
198.6616, 5240.688
199.1438, 5030.340
199.6259, 4846.290
200.1080, 4688.386
200.5901, 4556.390
201.0722, 4449.466
201.5543, 4365.203
202.0364, 4315.202
202.5186, 4299.284
203.0007, 4315.129
203.4828, 4392.050
203.9649, 4536.306
204.4470, 4736.093
204.9291, 4966.907
205.4113, 5231.262
205.8934, 5520.498
206.3755, 5835.496
206.8576, 6180.687
207.3397, 6522.042
207.8218, 6852.774
208.3040, 7182.246
208.7861, 7535.796
209.2682, 7911.871
209.7503, 8306.450
210.2324, 8707.550
210.7145, 9095.150
211.1967, 9558.424
211.6788, 10103.73
212.1609, 10728.46
212.6430, 11432.89
213.1251, 12228.82
213.6072, 13069.44
214.0894, 14015.72
214.5715, 15240.93
215.0536, 16018.66
215.5357, 16296.56
216.0178, 16077.05
216.4999, 15275.68
216.9820, 13662.68
217.4642, 11868.76
217.9463, 10248.30
218.4284, 8785.146
218.9105, 7589.366
219.3926, 6701.829
219.8747, 6104.824
220.3569, 5644.837
220.8390, 5350.185
221.3211, 5153.119
221.8032, 5001.027
222.2853, 4894.605
222.7674, 4835.720
223.2496, 4829.074
223.7317, 4872.832
224.2138, 4947.725
224.6959, 5061.066
225.1780, 5197.467
225.6601, 5350.585
226.1423, 5526.283
226.6244, 5702.826
227.1065, 5871.605
227.5886, 6035.029
228.0707, 6216.108
228.5528, 6419.136
229.0350, 6638.417
229.5171, 6866.432
229.9992, 7107.097
230.4813, 7355.643
230.9634, 7607.643
231.4455, 7865.243
231.9276, 8145.975
232.4098, 8464.250
232.8919, 8792.163
233.3740, 9110.307
233.8561, 9483.049
234.3382, 9727.463
234.8203, 9813.850
235.3025, 9740.475
235.7846, 9522.692
236.2667, 9096.313
236.7488, 8587.112
237.2309, 8114.600
237.7130, 7663.897
238.1952, 7286.006
238.6773, 6991.192
239.1594, 6780.107
239.6415, 6643.320
240.1236, 6594.808
240.6057, 6606.950
241.0879, 6649.660
241.5700, 6710.027
242.0521, 6823.939
242.5342, 7003.843
243.0163, 7252.889
243.4984, 7524.662
243.9806, 7796.965
244.4627, 8111.655
244.9448, 8511.893
245.4269, 8999.785
245.9090, 9571.637
246.3911, 10231.88
246.8732, 10981.46
247.3554, 11806.17
247.8375, 12722.82
248.3196, 13697.92
248.8017, 14706.59
249.2838, 15771.77
249.7659, 16806.90
250.2481, 17781.69
250.7302, 18685.48
251.2123, 19651.44
251.6944, 20677.91
252.1765, 21768.90
252.6586, 22936.22
253.1408, 24159.06
253.6229, 25507.52
254.1050, 27010.69
254.5871, 28656.54
255.0692, 30471.19
255.5513, 32578.59
256.0334, 34730.20
256.5156, 36779.07
256.9977, 39044.81
257.4798, 40533.70
257.9619, 41001.93
258.4440, 40430.63
258.9261, 39106.32
259.4083, 36700.02
259.8904, 33895.07
260.3725, 31429.17
260.8546, 29216.74
261.3367, 27500.59
261.8188, 26387.57
262.3010, 25880.06
262.7831, 25616.63
263.2652, 25635.79
263.7473, 25844.59
264.2294, 26161.34
264.7115, 26608.47
265.1937, 27089.68
265.6758, 27565.47
266.1579, 28031.14
266.6400, 28616.99
267.1221, 29319.20
267.6042, 30140.57
268.0864, 31077.38
268.5685, 32149.92
269.0506, 33301.76
269.5327, 34521.21
270.0148, 35809.28
270.4969, 37196.73
270.9791, 38715.24
271.4612, 40266.45
271.9433, 41782.36
272.4254, 43306.84
272.9075, 44586.62
273.3896, 45603.65
273.8718, 46329.87
274.3539, 46594.87
274.8360, 46403.51
275.3181, 45741.46
275.8002, 44514.15
276.2823, 42661.18
276.7645, 40649.04
277.2466, 38477.89
277.7287, 36200.82
278.2108, 34150.03
278.6929, 32314.15
279.1750, 30698.70
279.6572, 29314.09
280.1393, 28162.10
280.6214, 27216.45
281.1035, 26484.09
281.5856, 25951.02
282.0677, 25572.28
282.5499, 25353.27
283.0320, 25261.15
283.5141, 25271.91
283.9962, 25385.64
284.4783, 25605.40
284.9604, 25937.10
285.4425, 26374.38
285.9247, 26894.92
286.4068, 27496.96
286.8889, 28172.70
287.3710, 28955.80
287.8531, 29830.73
288.3352, 30660.39
288.8174, 31440.27
289.2995, 32140.30
289.7816, 32683.04
290.2637, 33058.84
290.7458, 33345.04
291.2279, 33564.76
291.7101, 33730.20
292.1922, 33886.29
292.6743, 34013.13
293.1564, 34174.13
293.6385, 34473.21
294.1206, 34907.99
294.6028, 35451.83
295.0849, 36133.90
295.5670, 36918.29
296.0491, 37708.27
296.5312, 38487.45
297.0133, 39258.30
297.4955, 40043.61
297.9776, 40822.91
298.4597, 41558.57
298.9418, 42178.79
299.4239, 42738.98
299.9060, 43345.48
300.3882, 44012.65
300.8703, 44703.86
301.3524, 45409.75
301.8345, 46106.12
302.3166, 46710.24
302.7987, 47191.57
303.2809, 47548.65
303.7630, 47809.32
304.2451, 47986.79
304.7272, 47984.55
305.2093, 47733.64
305.6914, 47228.85
306.1736, 46479.07
306.6557, 45385.61
307.1378, 44090.90
307.6199, 42727.22
308.1020, 41291.34
308.5841, 39801.59
309.0663, 38245.18
309.5484, 36633.60
310.0305, 35038.24
310.5126, 33455.31
310.9947, 31902.45
311.4768, 30389.22
311.9590, 28920.51
312.4411, 27550.87
312.9232, 26343.60
313.4053, 25254.53
313.8874, 24248.22
314.3695, 23287.53
314.8517, 22400.92
315.3337, 21598.79
315.8159, 20881.32
316.2980, 20250.53
316.7801, 19707.54
317.2622, 19245.35
317.7443, 18853.21
318.2264, 18522.27
318.7086, 18272.23
319.1907, 18117.07
319.6728, 18053.27
320.1549, 18054.43
320.6370, 18118.88
321.1191, 18242.01
321.6013, 18421.45
322.0834, 18667.09
322.5655, 18954.63
323.0476, 19271.16
323.5297, 19623.04
324.0118, 20036.89
324.4940, 20558.06
324.9761, 21111.89
325.4582, 21659.10
325.9403, 22142.60
326.4224, 22697.01
326.9045, 23364.82
327.3867, 24114.14
327.8688, 24858.62
328.3509, 25659.97
328.8330, 26399.90
329.3151, 27046.75
329.7972, 27603.75
330.2794, 28067.13
330.7615, 28509.34
331.2436, 28839.28
331.7257, 28892.02
332.2078, 28614.88
332.6899, 28137.12
333.1721, 27481.17
333.6542, 26636.55
334.1363, 25671.57
334.6184, 24530.64
335.1005, 23312.35
335.5826, 22107.41
336.0648, 20872.35
336.5469, 19745.32
337.0290, 18748.12
337.5111, 17877.24
337.9932, 17142.08
338.4753, 16559.79
338.9575, 16081.89
339.4396, 15654.76
339.9217, 15270.43
340.4038, 14976.37
340.8859, 14792.65
341.3680, 14704.46
341.8502, 14626.31
342.3323, 14550.76
342.8144, 14525.81
343.2965, 14597.13
343.7786, 14764.42
344.2607, 14975.05
344.7429, 15228.43
345.2250, 15516.32
345.7071, 15840.23
346.1892, 16205.57
346.6713, 16539.71
347.1534, 16834.98
347.6355, 17072.38
348.1176, 17187.03
348.5998, 17178.00
349.0819, 17027.67
349.5640, 16703.40
350.0461, 16206.96
350.5282, 15583.61
351.0103, 14781.02
351.4925, 13884.52
351.9746, 13017.64
352.4567, 12189.39
352.9388, 11418.75
353.4209, 10726.36
353.9030, 10106.15
354.3852, 9544.271
354.8673, 9045.017
355.3494, 8595.723
355.8315, 8182.676
356.3136, 7807.443
356.7957, 7476.513
357.2779, 7209.943
357.7600, 6989.139
358.2421, 6793.509
358.7242, 6619.661
359.2063, 6462.972
359.6884, 6316.652
360.1706, 6182.899
360.6527, 6075.629
361.1348, 6018.785
361.6169, 5980.834
362.0990, 5937.604
362.5811, 5875.071
363.0633, 5818.400
363.5454, 5775.312
364.0275, 5743.886
364.5096, 5718.805
364.9917, 5694.792
365.4738, 5679.843
365.9560, 5678.820
366.4381, 5698.057
366.9202, 5718.780
367.4023, 5743.279
367.8844, 5767.514
368.3665, 5784.870
368.8487, 5797.750
369.3308, 5801.171
369.8129, 5795.935
370.2950, 5784.401
370.7771, 5751.548
371.2592, 5686.660
371.7414, 5608.150
372.2235, 5534.209
372.7056, 5471.495
373.1877, 5399.676
373.6698, 5310.318
374.1519, 5206.275
374.6341, 5116.652
375.1162, 5041.965
375.5983, 4982.139
376.0804, 4941.455
376.5625, 4925.265
377.0446, 4902.195
377.5267, 4867.049
378.0089, 4824.077
378.4910, 4785.391
378.9731, 4751.312
379.4552, 4720.714
379.9373, 4693.420
380.4194, 4669.327
380.9016, 4650.380
381.3837, 4638.173
381.8658, 4626.904
382.3479, 4609.237
382.8300, 4585.356
383.3121, 4555.066
383.7943, 4520.320
384.2764, 4479.172
384.7585, 4422.095
385.2406, 4348.566
385.7227, 4274.007
386.2048, 4221.285
386.6870, 4179.576
387.1691, 4124.504
387.6512, 4033.388
388.1333, 3939.111
388.6154, 3878.876
389.0975, 3848.790
389.5797, 3821.410
390.0618, 3775.938
390.5439, 3725.893
391.0260, 3686.696
391.5081, 3666.739
391.9902, 3648.908
392.4724, 3620.274
392.9545, 3586.501
393.4366, 3560.529
393.9187, 3544.516
394.4008, 3540.234
394.8829, 3553.399
395.3651, 3591.762
395.8472, 3618.442
396.3293, 3612.399
396.8114, 3593.423
397.2935, 3585.294
397.7756, 3597.979
398.2578, 3615.521
398.7399, 3634.371
399.2220, 3654.242
399.7041, 3678.408
400.1862, 3708.519
400.6683, 3741.551
401.1505, 3774.903
401.6326, 3802.966
402.1147, 3842.145
402.5968, 3901.401
403.0789, 3972.377
403.5610, 4022.055
404.0432, 4037.498
404.5253, 4057.461
405.0074, 4105.018
405.4895, 4188.716
405.9716, 4255.001
406.4537, 4297.394
406.9359, 4331.847
407.4180, 4385.707
407.9001, 4461.217
408.3822, 4532.138
408.8643, 4585.719
409.3464, 4626.812
409.8285, 4677.583
410.3106, 4737.731
410.7928, 4808.487
411.2749, 4897.635
411.7570, 5000.782
412.2391, 5098.428
412.7212, 5184.628
413.2033, 5266.261
413.6855, 5351.354
414.1676, 5439.330
414.6497, 5529.896
415.1318, 5620.710
415.6139, 5714.017
416.0960, 5811.075
416.5782, 5912.792
417.0603, 6017.791
417.5424, 6121.303
418.0245, 6226.934
418.5066, 6340.606
418.9887, 6479.659
419.4709, 6616.111
419.9530, 6728.474
420.4351, 6814.069
420.9172, 6916.646
421.3993, 7057.232
421.8814, 7217.920
422.3636, 7383.904
422.8457, 7545.529
423.3278, 7720.078
423.8099, 7914.443
424.2920, 8126.162
424.7741, 8334.727
425.2563, 8528.429
425.7384, 8730.157
426.2205, 8946.326
426.7026, 9182.885
427.1847, 9419.118
427.6668, 9642.135
428.1490, 9871.743
428.6311, 10136.40
429.1132, 10441.03
429.5953, 10777.24
430.0774, 11145.16
430.5595, 11542.29
431.0417, 11940.11
431.5238, 12333.19
432.0059, 12736.93
432.4880, 13161.96
432.9701, 13608.39
433.4522, 14081.57
433.9344, 14593.89
434.4165, 15126.68
434.8986, 15648.41
435.3807, 16162.80
435.8628, 16709.79
436.3449, 17327.60
436.8271, 17992.75
437.3092, 18661.62
437.7913, 19325.09
438.2734, 19991.56
438.7555, 20663.42
439.2376, 21342.23
439.7197, 22030.88
440.2018, 22756.21
440.6840, 23471.81
441.1661, 24147.46
441.6482, 24778.73
442.1303, 25381.61
442.6124, 25965.85
443.0945, 26524.02
443.5767, 27042.49
444.0588, 27511.17
444.5409, 27960.84
445.0230, 28418.22
445.5051, 28863.05
445.9872, 29247.73
446.4694, 29595.86
446.9515, 29853.62
447.4336, 30001.79
447.9157, 30037.15
448.3978, 29989.29
448.8799, 29841.80
449.3621, 29625.06
449.8442, 29371.01
450.3263, 29097.18
450.8084, 28745.59
451.2905, 28295.48
451.7726, 27765.12
452.2548, 27204.76
452.7369, 26608.13
453.2190, 25995.79
453.7011, 25369.90
454.1832, 24732.91
454.6653, 24079.40
455.1475, 23394.05
455.6296, 22723.38
456.1117, 22120.93
456.5938, 21584.66
457.0759, 21068.72
457.5580, 20561.82
458.0402, 20067.31
458.5223, 19588.67
459.0044, 19122.98
459.4865, 18684.97
459.9686, 18263.89
460.4507, 17880.53
460.9329, 17555.83
461.4150, 17309.46
461.8971, 17103.21
462.3792, 16909.57
462.8613, 16738.63
463.3434, 16605.66
463.8256, 16515.61
464.3077, 16468.13
464.7898, 16467.67
465.2719, 16517.18
465.7540, 16588.97
466.2361, 16646.30
466.7183, 16740.87
467.2004, 16914.36
467.6825, 17227.38
468.1646, 17544.01
468.6467, 17841.46
469.1288, 18138.97
469.6110, 18499.24
470.0930, 18931.98
470.5752, 19410.89
471.0573, 19929.46
471.5394, 20484.01
472.0215, 21087.21
472.5036, 21741.11
472.9857, 22438.10
473.4679, 23173.31
473.9500, 23940.41
474.4321, 24744.01
474.9142, 25591.77
475.3963, 26470.54
475.8784, 27352.85
476.3606, 28239.27
476.8427, 29134.87
477.3248, 30020.82
477.8069, 30917.37
478.2890, 31870.00
478.7711, 32899.32
479.2533, 33911.62
479.7354, 34858.12
480.2175, 35728.19
480.6996, 36506.09
481.1817, 37189.35
481.6638, 37764.32
482.1460, 38232.92
482.6281, 38586.27
483.1102, 38796.46
483.5923, 38892.08
484.0744, 38810.67
484.5565, 38509.91
485.0387, 37956.61
485.5208, 37228.43
486.0029, 36258.36
486.4850, 35131.68
486.9671, 33969.85
487.4492, 32772.24
487.9314, 31560.00
488.4135, 30312.13
488.8956, 29038.42
489.3777, 27872.93
489.8598, 26808.21
490.3419, 25849.83
490.8241, 24996.39
491.3062, 24246.64
491.7883, 23574.71
492.2704, 22963.97
492.7525, 22444.40
493.2346, 22066.91
493.7168, 21829.48
494.1989, 21664.86
494.6810, 21532.05
495.1631, 21455.42
495.6452, 21499.35
496.1273, 21660.48
496.6095, 21848.31
497.0916, 22047.69
497.5737, 22208.53
498.0558, 22278.28
498.5379, 22272.53
499.0201, 22118.35
499.5022, 21782.64
499.9843, 21268.37
500.4664, 20584.11
500.9485, 19645.15
501.4306, 18625.28
501.9127, 17567.80
502.3948, 16468.16
502.8770, 15440.31
503.3591, 14487.42
503.8412, 13623.81
504.3233, 12850.85
504.8054, 12171.95
505.2875, 11587.46
505.7697, 11108.13
506.2518, 10711.56
506.7339, 10361.68
507.2160, 10064.20
507.6981, 9791.015
508.1802, 9537.347
508.6624, 9300.567
509.1445, 9057.700
509.6266, 8807.902
510.1087, 8559.773
510.5908, 8330.432
511.0729, 8110.588
511.5551, 7866.442
512.0372, 7581.489
512.5193, 7289.959
513.0014, 7027.764
513.4835, 6792.081
513.9656, 6578.728
514.4478, 6394.343
514.9299, 6224.992
515.4120, 6055.541
515.8941, 5885.229
516.3762, 5740.146
516.8583, 5643.154
517.3405, 5569.903
517.8226, 5502.407
518.3047, 5430.746
518.7868, 5373.729
519.2689, 5330.072
519.7510, 5302.763
520.2332, 5298.659
520.7153, 5318.661
521.1974, 5360.595
521.6795, 5426.935
522.1616, 5517.628
522.6437, 5612.528
523.1259, 5707.299
523.6080, 5815.511
524.0901, 5948.426
524.5722, 6107.251
525.0543, 6279.837
525.5364, 6465.181
526.0186, 6667.979
526.5007, 6894.285
526.9828, 7142.731
527.4649, 7416.523
527.9470, 7731.212
528.4291, 8062.754
528.9113, 8378.428
529.3934, 8680.995
529.8755, 9024.963
530.3576, 9467.691
530.8397, 9952.124
531.3218, 10431.78
531.8040, 10877.46
532.2861, 11357.01
532.7682, 11896.07
533.2503, 12476.47
533.7324, 13057.67
534.2145, 13657.33
534.6967, 14238.45
535.1788, 14814.10
535.6609, 15374.61
536.1430, 15877.25
536.6251, 16343.90
537.1072, 16701.77
537.5894, 16907.59
538.0715, 16959.81
538.5536, 16873.51
539.0357, 16647.79
539.5178, 16286.49
539.9999, 15754.42
540.4821, 15070.06
540.9642, 14343.69
541.4463, 13578.98
541.9284, 12809.95
542.4105, 12078.99
542.8926, 11389.40
543.3748, 10738.40
543.8569, 10121.64
544.3390, 9553.852
544.8211, 9047.013
545.3032, 8600.009
545.7853, 8194.456
546.2675, 7822.756
546.7495, 7486.428
547.2316, 7186.972
547.7137, 6940.037
548.1959, 6713.425
548.6780, 6497.177
549.1601, 6295.460
549.6422, 6117.830
550.1243, 5972.049
550.6064, 5839.295
551.0886, 5714.820
551.5707, 5598.692
552.0528, 5488.253
552.5349, 5384.211
553.0170, 5286.808
553.4991, 5195.500
553.9813, 5110.553
554.4634, 5037.751
554.9455, 4979.685
555.4276, 4928.888
555.9097, 4875.777
556.3918, 4821.606
556.8740, 4769.520
557.3561, 4722.259
557.8382, 4677.056
558.3203, 4630.808
558.8024, 4583.730
559.2845, 4538.723
559.7667, 4488.713
560.2488, 4446.720
560.7309, 4424.177
561.2130, 4431.309
561.6951, 4432.405
562.1772, 4418.707
562.6594, 4396.211
563.1415, 4371.126
563.6236, 4335.042
564.1057, 4310.533
564.5878, 4303.233
565.0699, 4308.893
565.5521, 4311.145
566.0342, 4307.495
566.5163, 4309.666
566.9984, 4328.532
567.4805, 4360.700
567.9626, 4373.205
568.4448, 4364.042
568.9269, 4357.188
569.4090, 4379.321
569.8911, 4420.159
570.3732, 4457.787
570.8553, 4487.539
571.3375, 4512.295
571.8196, 4526.399
572.3017, 4537.625
572.7838, 4560.269
573.2659, 4618.115
573.7480, 4671.927
574.2302, 4699.104
574.7123, 4701.494
575.1944, 4713.301
575.6765, 4752.345
576.1586, 4792.032
576.6407, 4818.586
577.1229, 4824.257
577.6050, 4843.090
578.0871, 4883.040
578.5692, 4926.180
579.0513, 4951.227
579.5334, 4957.238
580.0156, 4951.732
580.4977, 4929.714
580.9798, 4905.506
581.4619, 4915.329
581.9440, 4954.440
582.4261, 4989.218
582.9083, 5003.257
583.3904, 5000.804
583.8725, 4980.560
584.3546, 4943.940
584.8367, 4914.955
585.3188, 4909.675
585.8010, 4917.770
586.2831, 4930.462
586.7652, 4946.547
587.2473, 4966.055
587.7294, 4993.822
588.2115, 5023.578
588.6937, 5046.186
589.1758, 5052.366
589.6579, 5064.798
590.1400, 5088.886
590.6221, 5121.830
591.1042, 5150.437
591.5864, 5171.716
592.0685, 5198.406
592.5506, 5240.243
593.0327, 5294.887
593.5148, 5341.041
593.9969, 5378.476
594.4791, 5411.788
594.9612, 5439.562
595.4433, 5467.311
595.9254, 5506.384
596.4075, 5560.493
596.8896, 5622.569
597.3718, 5687.171
597.8539, 5755.352
598.3360, 5828.452
598.8181, 5905.224
599.3002, 5989.160
599.7823, 6085.253
600.2645, 6191.618
600.7466, 6293.250
601.2287, 6379.694
601.7108, 6469.983
602.1929, 6568.082
602.6750, 6670.887
603.1572, 6803.727
603.6393, 6975.587
604.1214, 7160.035
604.6035, 7334.679
605.0856, 7500.700
605.5677, 7667.544
606.0499, 7836.041
606.5320, 8012.157
607.0141, 8205.148
607.4962, 8412.590
607.9783, 8631.708
608.4604, 8859.860
608.9425, 9098.006
609.4246, 9335.063
609.9067, 9578.656
610.3889, 9852.510
610.8710, 10185.80
611.3531, 10536.43
611.8352, 10879.16
612.3173, 11208.91
612.7994, 11558.79
613.2816, 11930.70
613.7637, 12326.03
614.2458, 12744.85
614.7279, 13182.29
615.2100, 13663.79
615.6921, 14197.35
616.1743, 14765.02
616.6564, 15317.82
617.1385, 15858.93
617.6206, 16442.54
618.1027, 17102.36
618.5848, 17808.62
619.0670, 18521.12
619.5491, 19246.90
620.0312, 20014.68
620.5133, 20868.31
620.9954, 21761.62
621.4775, 22650.25
621.9597, 23531.99
622.4418, 24461.84
622.9239, 25488.14
623.4060, 26553.71
623.8881, 27630.81
624.3702, 28714.28
624.8524, 29799.48
625.3345, 30862.68
625.8166, 31949.86
626.2987, 33118.90
626.7808, 34391.62
627.2629, 35667.23
627.7451, 36930.16
628.2272, 38177.14
628.7093, 39403.02
629.1914, 40607.42
629.6735, 41794.02
630.1556, 42967.57
630.6378, 44099.25
631.1199, 45135.30
631.6020, 46077.44
632.0841, 46951.82
632.5662, 47809.76
633.0483, 48583.92
633.5305, 49234.64
634.0126, 49753.55
634.4947, 50115.02
634.9768, 50304.38
635.4589, 50333.18
635.9410, 50214.70
636.4232, 49933.82
636.9053, 49536.38
637.3874, 49023.95
637.8695, 48395.03
638.3516, 47648.02
638.8337, 46776.21
639.3159, 45780.02
639.7980, 44616.80
640.2801, 43342.63
640.7622, 42090.82
641.2443, 40849.95
641.7264, 39614.59
642.2086, 38372.97
642.6907, 37135.93
643.1728, 35932.38
643.6549, 34754.71
644.1370, 33607.99
644.6191, 32485.88
645.1013, 31386.42
645.5834, 30302.20
646.0655, 29189.40
646.5476, 28167.32
647.0297, 27268.51
647.5118, 26440.99
647.9940, 25632.43
648.4761, 24829.19
648.9582, 24074.68
649.4403, 23373.36
649.9224, 22716.30
650.4045, 22060.28
650.8867, 21403.76
651.3688, 20781.33
651.8509, 20219.11
652.3330, 19693.57
652.8151, 19186.16
653.2972, 18702.21
653.7794, 18229.49
654.2615, 17758.67
654.7436, 17306.85
655.2257, 16892.25
655.7078, 16521.45
656.1899, 16148.24
656.6721, 15754.67
657.1542, 15363.14
657.6363, 14992.10
658.1184, 14640.25
658.6005, 14309.93
659.0826, 14006.16
659.5648, 13719.53
660.0469, 13434.48
660.5290, 13151.87
661.0111, 12884.71
661.4932, 12641.45
661.9753, 12413.35
662.4575, 12189.61
662.9396, 11972.07
663.4217, 11765.83
663.9038, 11579.79
664.3859, 11400.34
664.8680, 11217.39
665.3502, 11031.71
665.8323, 10861.25
666.3144, 10722.29
666.7965, 10588.99
667.2786, 10447.58
667.7607, 10294.24
668.2429, 10151.85
668.7250, 10020.53
669.2071, 9897.652
669.6892, 9784.567
670.1713, 9679.953
670.6534, 9563.731
671.1355, 9430.229
671.6176, 9297.936
672.0997, 9195.174
672.5818, 9112.573
673.0640, 9027.820
673.5461, 8931.905
674.0282, 8835.666
674.5103, 8739.056
674.9924, 8647.673
675.4745, 8572.672
675.9567, 8526.454
676.4388, 8489.235
676.9209, 8458.526
677.4030, 8433.470
677.8851, 8406.749
678.3672, 8372.240
678.8494, 8349.649
679.3315, 8347.539
679.8136, 8365.231
680.2957, 8400.117
680.7778, 8452.266
681.2599, 8509.117
681.7421, 8549.745
682.2242, 8589.465
682.7063, 8652.951
683.1884, 8742.569
683.6705, 8865.014
684.1526, 9045.012
684.6348, 9249.997
685.1169, 9447.566
685.5990, 9603.485
686.0811, 9788.110
686.5632, 10015.29
687.0453, 10277.22
687.5275, 10570.70
688.0096, 10899.22
688.4917, 11247.64
688.9738, 11615.39
689.4559, 12007.42
689.9380, 12436.02
690.4202, 12899.64
690.9023, 13410.48
691.3844, 13987.92
691.8665, 14601.87
692.3486, 15209.09
692.8307, 15819.71
693.3129, 16460.38
693.7950, 17148.57
694.2771, 17870.74
694.7592, 18612.15
695.2413, 19375.82
695.7234, 20184.16
696.2056, 21037.87
696.6877, 21931.62
697.1698, 22874.92
697.6519, 23898.65
698.1340, 24855.15
698.6161, 25741.63
699.0983, 26570.20
699.5804, 27363.32
700.0625, 28109.91
700.5446, 28791.36
701.0267, 29412.12
701.5089, 29939.71
701.9910, 30351.89
702.4731, 30644.52
702.9552, 30810.42
703.4373, 30854.77
703.9194, 30762.14
704.4016, 30514.92
704.8837, 30126.65
705.3658, 29625.62
705.8479, 28971.46
706.3300, 28270.27
706.8121, 27537.29
707.2943, 26768.08
707.7764, 25942.33
708.2585, 25043.37
708.7406, 24184.43
709.2227, 23455.77
709.7048, 22812.37
710.1870, 22142.23
710.6691, 21442.62
711.1512, 20758.26
711.6333, 20082.91
712.1154, 19440.17
712.5975, 18862.00
713.0797, 18351.54
713.5618, 17872.78
714.0439, 17427.15
714.5260, 17007.28
715.0081, 16606.40
715.4902, 16239.31
715.9724, 15866.90
716.4545, 15481.62
716.9366, 15108.58
717.4187, 14787.98
717.9008, 14514.43
718.3829, 14248.49
718.8651, 13977.82
719.3472, 13720.48
719.8293, 13488.93
720.3114, 13282.04
720.7935, 13092.53
721.2756, 12931.65
721.7578, 12773.98
722.2399, 12610.45
722.7220, 12441.08
723.2041, 12272.29
723.6862, 12092.50
724.1683, 11927.20
724.6505, 11780.03
725.1326, 11652.36
725.6147, 11556.29
726.0968, 11499.95
726.5789, 11426.77
727.0610, 11292.87
727.5432, 11129.12
728.0253, 11024.98
728.5074, 10974.15
728.9895, 10923.39
729.4716, 10822.24
729.9537, 10717.00
730.4359, 10653.75
730.9180, 10636.69
731.4001, 10617.35
731.8822, 10583.68
732.3643, 10542.12
732.8464, 10493.57
733.3285, 10431.59
733.8106, 10390.68
734.2927, 10376.73
734.7748, 10370.50
735.2570, 10351.89
735.7391, 10323.50
736.2212, 10306.23
736.7033, 10303.60
737.1854, 10304.92
737.6675, 10301.25
738.1497, 10293.88
738.6318, 10284.88
739.1139, 10276.08
739.5960, 10263.81
740.0781, 10245.59
740.5602, 10223.82
741.0424, 10202.62
741.5245, 10193.44
742.0066, 10166.32
742.4887, 10118.22
742.9708, 10050.55
743.4529, 9960.235
743.9351, 9846.678
744.4172, 9732.778
744.8993, 9624.233
745.3814, 9520.038
745.8635, 9413.974
746.3456, 9309.462
746.8278, 9218.549
747.3099, 9159.803
747.7920, 9105.600
748.2741, 9033.134
748.7562, 8948.253
749.2383, 8890.467
749.7205, 8888.938
750.2026, 8885.190
750.6847, 8862.869
751.1668, 8823.284
751.6489, 8774.949
752.1310, 8715.036
752.6132, 8666.604
753.0953, 8654.214
753.5774, 8662.602
754.0595, 8651.701
754.5416, 8621.644
755.0237, 8592.207
755.5059, 8575.286
755.9880, 8564.600
756.4701, 8557.729
756.9522, 8556.428
757.4343, 8543.568
757.9164, 8507.662
758.3986, 8466.583
758.8807, 8432.197
759.3628, 8410.321
759.8449, 8368.540
760.3270, 8303.164
760.8091, 8232.099
761.2913, 8169.899
761.7734, 8117.165
762.2555, 8077.385
762.7376, 8054.879
763.2197, 8023.013
763.7018, 7953.994
764.1840, 7866.198
764.6661, 7778.975
765.1482, 7696.114
765.6303, 7618.076
766.1124, 7538.253
766.5945, 7466.478
767.0767, 7419.793
767.5588, 7409.454
768.0409, 7379.963
768.5230, 7319.244
769.0051, 7244.695
769.4872, 7182.056
769.9694, 7128.678
770.4515, 7075.604
770.9336, 7015.533
771.4157, 6962.123
771.8978, 6939.727
772.3799, 6931.038
772.8621, 6903.309
773.3442, 6820.926
773.8263, 6748.425
774.3084, 6704.140
774.7905, 6679.401
775.2726, 6655.666
775.7548, 6635.470
776.2369, 6607.425
776.7190, 6566.147
777.2011, 6517.256
777.6832, 6473.721
778.1653, 6435.437
778.6475, 6402.772
779.1296, 6379.222
779.6117, 6358.598
780.0938, 6334.058
780.5759, 6307.540
781.0580, 6285.690
781.5402, 6274.843
782.0223, 6264.268
782.5044, 6250.055
782.9865, 6232.763
783.4686, 6217.026
783.9507, 6203.700
784.4329, 6187.917
784.9150, 6161.859
785.3971, 6132.250
785.8792, 6125.351
786.3613, 6138.870
786.8434, 6152.563
787.3256, 6154.679
787.8077, 6150.199
788.2898, 6139.971
788.7719, 6124.604
789.2540, 6115.502
789.7361, 6117.898
790.2183, 6125.238
790.7004, 6136.539
791.1825, 6152.340
791.6646, 6159.928
792.1467, 6157.741
792.6288, 6153.823
793.1110, 6155.128
793.5930, 6158.818
794.0751, 6155.867
794.5573, 6145.997
795.0394, 6137.536
795.5215, 6136.506
796.0036, 6139.530
796.4857, 6145.431
796.9678, 6155.610
797.4500, 6161.016
797.9321, 6166.664
798.4142, 6161.570
798.8963, 6135.938
799.3784, 6085.424
799.8605, 6045.802
800.3427, 6019.078
800.8248, 5990.872
801.3069, 5947.363
801.7890, 5892.461
802.2711, 5831.818
802.7532, 5765.057
803.2354, 5701.018
803.7175, 5645.648
804.1996, 5593.323
804.6817, 5537.699
805.1638, 5469.557
805.6459, 5421.228
806.1281, 5407.818
806.6102, 5394.361
807.0923, 5345.278
807.5744, 5260.975
808.0565, 5189.788
808.5386, 5136.870
809.0208, 5088.162
809.5029, 5026.660
809.9850, 4961.140
810.4671, 4907.050
810.9492, 4870.232
811.4313, 4834.394
811.9135, 4793.631
812.3956, 4750.313
812.8777, 4706.237
813.3598, 4659.110
813.8419, 4616.337
814.3240, 4577.590
814.8062, 4543.768
815.2883, 4517.746
815.7704, 4498.063
816.2525, 4474.555
816.7346, 4445.265
817.2167, 4414.618
817.6989, 4382.718
818.1810, 4353.664
818.6631, 4333.993
819.1452, 4333.921
819.6273, 4324.517
820.1094, 4287.080
820.5916, 4246.174
821.0737, 4225.638
821.5558, 4231.800
822.0379, 4229.771
822.5200, 4214.734
823.0021, 4197.380
823.4843, 4187.349
823.9664, 4185.633
824.4485, 4198.255
824.9306, 4232.626
825.4127, 4259.539
825.8948, 4252.774
826.3770, 4230.977
826.8591, 4214.011
827.3412, 4201.835
827.8233, 4201.579
828.3054, 4219.554
828.7875, 4242.198
829.2697, 4252.042
829.7518, 4249.176
830.2339, 4252.784
830.7160, 4267.855
831.1981, 4279.194
831.6802, 4258.208
832.1624, 4225.827
832.6445, 4216.594
833.1266, 4248.005
833.6087, 4280.757
834.0908, 4301.867
834.5729, 4316.756
835.0551, 4331.741
835.5372, 4347.755
836.0193, 4359.879
836.5014, 4365.420
836.9835, 4372.736
837.4656, 4395.472
837.9478, 4428.995
838.4299, 4457.330
838.9120, 4477.834
839.3941, 4493.113
839.8762, 4499.271
840.3583, 4504.376
840.8405, 4517.695
841.3226, 4545.834
841.8047, 4573.248
842.2868, 4600.654
842.7689, 4625.133
843.2510, 4644.906
843.7332, 4660.293
844.2153, 4662.220
844.6974, 4648.214
845.1795, 4629.449
845.6616, 4621.302
846.1437, 4615.577
846.6259, 4600.199
847.1080, 4573.338
847.5901, 4534.417
848.0722, 4463.297
848.5543, 4393.040
849.0364, 4353.636
849.5186, 4359.001
850.0007, 4354.157
850.4828, 4337.498
850.9649, 4315.044
851.4470, 4293.880
851.9291, 4272.053
852.4113, 4239.896
852.8934, 4195.589
853.3755, 4152.544
853.8576, 4121.137
854.3397, 4095.635
854.8218, 4069.812
855.3040, 4040.529
855.7860, 4019.762
856.2681, 4012.434
856.7502, 4008.112
857.2324, 4001.440
857.7145, 3992.501
858.1966, 3971.222
858.6787, 3935.914
859.1608, 3904.815
859.6429, 3898.935
860.1251, 3903.427
860.6072, 3899.555
861.0893, 3885.002
861.5714, 3866.763
862.0535, 3838.607
862.5356, 3815.310
863.0178, 3806.422
863.4999, 3813.849
863.9820, 3813.296
864.4641, 3802.810
864.9462, 3793.220
865.4283, 3796.477
865.9105, 3805.287
866.3926, 3801.711
866.8747, 3786.024
867.3568, 3766.262
867.8389, 3741.248
868.3210, 3719.471
868.8032, 3707.108
869.2853, 3705.086
869.7674, 3703.061
870.2495, 3701.754
870.7316, 3698.836
871.2137, 3691.600
871.6959, 3682.126
872.1780, 3681.690
872.6601, 3689.255
873.1422, 3694.907
873.6243, 3685.661
874.1064, 3677.541
874.5886, 3691.510
875.0707, 3721.662
875.5528, 3735.500
876.0349, 3702.511
876.5170, 3680.566
876.9991, 3686.411
877.4813, 3713.170
877.9634, 3737.042
878.4455, 3758.048
878.9276, 3772.818
879.4097, 3775.762
879.8918, 3776.339
880.3740, 3785.997
880.8561, 3803.158
881.3382, 3823.873
881.8203, 3848.938
882.3024, 3874.823
882.7845, 3900.123
883.2667, 3925.695
883.7488, 3955.178
884.2309, 3990.387
884.7130, 4018.819
885.1951, 4036.245
885.6772, 4048.603
886.1594, 4059.563
886.6415, 4073.504
887.1236, 4102.333
887.6057, 4162.278
888.0878, 4216.623
888.5699, 4243.629
889.0521, 4257.110
889.5342, 4276.396
890.0163, 4307.715
890.4984, 4328.336
890.9805, 4332.516
891.4626, 4336.229
891.9448, 4369.141
892.4269, 4418.669
892.9090, 4441.602
893.3911, 4425.164
893.8732, 4407.924
894.3553, 4423.761
894.8375, 4447.593
895.3196, 4456.521
895.8017, 4446.386
896.2838, 4422.567
896.7659, 4382.529
897.2480, 4333.042
897.7302, 4275.395
898.2123, 4212.276
898.6944, 4154.136
899.1765, 4102.022
899.6586, 4051.864
900.1407, 4003.241
900.6229, 3954.180
901.1050, 3901.808
901.5871, 3844.740
902.0692, 3796.128
902.5513, 3756.938
903.0334, 3725.335
903.5156, 3705.733
903.9977, 3694.055
904.4798, 3654.996
904.9619, 3589.769
905.4440, 3530.545
905.9261, 3503.739
906.4083, 3487.341
906.8904, 3460.644
907.3725, 3425.069
907.8546, 3388.512
908.3367, 3345.156
908.8188, 3311.325
909.3010, 3294.728
909.7831, 3289.205
910.2652, 3277.981
910.7473, 3261.072
911.2294, 3237.081
911.7115, 3199.342
912.1937, 3164.248
912.6758, 3160.509
913.1579, 3172.644
913.6400, 3171.535
914.1221, 3127.773
914.6042, 3095.654
915.0864, 3090.189
915.5685, 3096.448
916.0506, 3095.571
916.5327, 3086.963
917.0148, 3078.573
917.4969, 3071.424
917.9790, 3064.840
918.4611, 3058.726
918.9432, 3052.481
919.4254, 3044.198
919.9075, 3031.673
920.3896, 3024.199
920.8717, 3027.290
921.3538, 3034.708
921.8359, 3043.547
922.3181, 3054.784
922.8002, 3058.043
923.2823, 3052.087
923.7644, 3046.438
924.2465, 3047.592
924.7286, 3054.567
925.2108, 3069.072
925.6929, 3090.257
926.1750, 3106.621
926.6571, 3111.856
927.1392, 3112.635
927.6213, 3107.657
928.1035, 3099.729
928.5856, 3112.102
929.0677, 3147.785
929.5498, 3179.538
930.0319, 3193.067
930.5140, 3198.358
930.9962, 3210.712
931.4783, 3228.369
931.9604, 3245.815
932.4425, 3264.775
932.9246, 3279.005
933.4067, 3282.879
933.8889, 3282.608
934.3710, 3288.704
934.8531, 3302.053
935.3352, 3315.546
935.8173, 3328.393
936.2994, 3338.658
936.7816, 3346.791
937.2637, 3349.479
937.7458, 3338.693
938.2279, 3305.959
938.7100, 3278.849
939.1921, 3264.348
939.6743, 3261.561
940.1564, 3271.019
940.6385, 3294.830
941.1206, 3319.726
941.6027, 3346.404
942.0848, 3370.510
942.5670, 3380.428
943.0491, 3389.452
943.5312, 3420.319
944.0133, 3473.195
944.4954, 3525.330
944.9775, 3561.265
945.4597, 3601.751
945.9418, 3652.024
946.4239, 3713.347
946.9060, 3794.136
947.3881, 3895.458
947.8702, 4002.379
948.3524, 4105.200
948.8345, 4213.458
949.3166, 4341.955
949.7987, 4486.534
950.2808, 4635.079
950.7629, 4772.601
951.2451, 4925.497
951.7272, 5097.958
952.2093, 5287.931
952.6914, 5494.052
953.1735, 5716.471
953.6556, 5948.706
954.1378, 6187.409
954.6199, 6439.563
955.1020, 6716.585
955.5841, 7012.079
956.0662, 7318.569
956.5483, 7635.187
957.0305, 7961.379
957.5126, 8304.649
957.9947, 8651.049
958.4768, 9006.898
958.9589, 9371.675
959.4410, 9652.531
959.9232, 9850.333
960.4053, 9998.855
960.8874, 10168.98
961.3695, 10268.19
961.8516, 10193.79
962.3337, 9959.204
962.8159, 9661.675
963.2980, 9292.851
963.7801, 8900.085
964.2622, 8489.768
964.7443, 8060.658
965.2264, 7599.143
965.7086, 7114.673
966.1907, 6668.368
966.6728, 6275.086
967.1549, 5928.348
967.6370, 5637.861
968.1191, 5387.465
968.6013, 5161.269
969.0834, 4947.227
969.5655, 4771.418
970.0476, 4639.118
970.5297, 4529.623
971.0118, 4413.805
971.4940, 4301.526
971.9761, 4236.916
972.4582, 4223.008
972.9403, 4212.092
973.4224, 4163.401
973.9045, 4113.857
974.3867, 4089.596
974.8688, 4091.502
975.3509, 4096.952
975.8330, 4104.134
976.3151, 4120.631
976.7972, 4149.378
977.2794, 4189.515
977.7615, 4246.758
978.2436, 4315.401
978.7257, 4378.476
979.2078, 4410.539
979.6899, 4455.980
980.1720, 4538.230
980.6541, 4640.894
981.1362, 4743.835
981.6183, 4848.792
982.1005, 4942.729
982.5826, 5022.748
983.0647, 5096.975
983.5468, 5179.568
984.0289, 5259.467
984.5110, 5320.547
984.9932, 5361.292
985.4753, 5380.146
985.9574, 5346.844
986.4395, 5321.294
986.9216, 5332.348
987.4037, 5377.768
987.8859, 5427.809
988.3680, 5482.182
988.8501, 5546.409
989.3322, 5612.173
989.8143, 5698.580
990.2964, 5831.992
990.7786, 6000.663
991.2607, 6175.294
991.7428, 6336.068
992.2249, 6523.868
992.7070, 6752.770
993.1891, 6999.964
993.6713, 7232.775
994.1534, 7450.243
994.6355, 7642.563
995.1176, 7807.404
995.5997, 7952.332
996.0818, 8109.553
996.5640, 8231.792
997.0461, 8276.088
997.5282, 8240.802
998.0103, 8129.098
998.4924, 7932.258
998.9745, 7683.830
999.4567, 7389.884
999.9388, 7063.712
1000.421, 6739.845
1000.903, 6416.758
1001.385, 6092.183
1001.867, 5753.093
1002.349, 5429.465
1002.831, 5125.609
1003.314, 4849.622
1003.796, 4627.066
1004.278, 4459.862
1004.760, 4299.126
1005.242, 4131.484
1005.724, 3976.965
1006.206, 3859.813
1006.688, 3766.845
1007.171, 3679.239
1007.653, 3592.965
1008.135, 3511.940
1008.617, 3434.793
1009.099, 3363.518
1009.581, 3300.487
1010.063, 3244.088
1010.545, 3186.813
1011.027, 3129.372
1011.510, 3077.859
1011.992, 3037.150
1012.474, 3003.229
1012.956, 2976.833
1013.438, 2955.064
1013.920, 2929.318
1014.402, 2897.352
1014.884, 2867.564
1015.367, 2840.426
1015.849, 2817.592
1016.331, 2806.136
1016.813, 2799.662
1017.295, 2782.400
1017.777, 2748.130
1018.259, 2719.696
1018.741, 2716.687
1019.223, 2712.778
1019.706, 2687.874
1020.188, 2642.019
1020.670, 2623.196
1021.152, 2632.055
1021.634, 2643.975
1022.116, 2645.629
1022.598, 2641.262
1023.080, 2633.012
1023.563, 2622.162
1024.045, 2612.481
1024.527, 2606.183
1025.009, 2598.215
1025.491, 2587.153
1025.973, 2575.525
1026.455, 2564.567
1026.937, 2556.049
1027.419, 2558.485
1027.901, 2574.544
1028.384, 2590.543
1028.866, 2601.463
1029.348, 2606.064
1029.830, 2600.133
1030.312, 2584.079
1030.794, 2578.089
1031.276, 2582.783
1031.758, 2594.157
1032.241, 2614.260
1032.723, 2635.971
1033.205, 2646.729
1033.687, 2651.063
1034.169, 2659.803
1034.651, 2672.108
1035.133, 2696.455
1035.615, 2740.577
1036.098, 2788.390
1036.580, 2817.327
1037.062, 2830.532
1037.544, 2848.475
1038.026, 2872.930
1038.508, 2910.880
1038.990, 2987.521
1039.472, 3063.804
1039.954, 3109.330
1040.437, 3123.411
1040.919, 3132.125
1041.401, 3136.515
1041.883, 3132.617
1042.365, 3121.749
1042.847, 3098.002
1043.329, 3043.856
1043.811, 2970.380
1044.293, 2900.365
1044.776, 2844.524
1045.258, 2787.192
1045.740, 2723.087
1046.222, 2659.721
1046.704, 2602.802
1047.186, 2552.187
1047.668, 2504.490
1048.150, 2459.560
1048.633, 2418.928
1049.115, 2383.583
1049.597, 2353.673
1050.079, 2330.320
1050.561, 2313.189
1051.043, 2297.197
1051.525, 2280.336
1052.007, 2273.200
1052.490, 2281.677
1052.972, 2293.287
1053.454, 2288.040
1053.936, 2272.213
1054.418, 2256.545
1054.900, 2242.543
1055.382, 2232.527
1055.864, 2229.194
1056.346, 2227.812
1056.828, 2227.935
1057.311, 2228.592
1057.793, 2215.105
1058.275, 2188.909
1058.757, 2167.589
1059.239, 2165.059
1059.721, 2167.014
1060.203, 2165.181
1060.685, 2160.709
1061.168, 2156.910
1061.650, 2155.310
1062.132, 2149.843
1062.614, 2139.476
1063.096, 2126.889
1063.578, 2115.091
1064.060, 2103.167
1064.542, 2087.318
1065.025, 2066.829
1065.507, 2054.231
1065.989, 2061.769
1066.471, 2067.412
1066.953, 2061.981
1067.435, 2050.060
1067.917, 2049.428
1068.399, 2057.895
1068.881, 2063.363
1069.364, 2060.205
1069.846, 2055.155
1070.328, 2052.493
1070.810, 2050.040
1071.292, 2045.231
1071.774, 2037.189
1072.256, 2029.366
1072.738, 2021.464
1073.220, 2015.918
1073.703, 2018.146
1074.185, 2021.617
1074.667, 2016.988
1075.149, 2005.746
1075.631, 1996.055
1076.113, 1989.779
1076.595, 1985.624
1077.077, 1984.205
1077.559, 1983.826
1078.042, 1981.116
1078.524, 1977.165
1079.006, 1975.055
1079.488, 1975.419
1079.970, 1977.540
1080.452, 1987.782
1080.934, 1993.028
1081.416, 1984.429
1081.899, 1963.516
1082.381, 1944.392
1082.863, 1927.137
1083.345, 1916.737
1083.827, 1917.547
1084.309, 1923.061
1084.791, 1929.830
1085.273, 1936.409
1085.755, 1940.238
1086.238, 1938.665
1086.720, 1941.084
1087.202, 1950.179
1087.684, 1954.892
1088.166, 1941.826
1088.648, 1919.182
1089.130, 1899.417
1089.612, 1883.783
1090.094, 1875.656
1090.577, 1885.716
1091.059, 1891.408
1091.541, 1884.822
1092.023, 1873.244
1092.505, 1871.382
1092.987, 1877.436
1093.469, 1883.169
1093.951, 1887.796
1094.434, 1886.465
1094.916, 1870.826
1095.398, 1851.958
1095.880, 1836.008
1096.362, 1823.226
1096.844, 1826.220
1097.326, 1846.295
1097.808, 1859.946
1098.291, 1854.016
1098.773, 1840.058
1099.255, 1828.632
1099.737, 1819.160
1100.219, 1810.956
1100.701, 1804.500
1101.183, 1798.266
1101.665, 1792.243
1102.147, 1786.424
1102.630, 1779.552
1103.112, 1773.415
1103.594, 1774.422
1104.076, 1780.712
1104.558, 1781.291
1105.040, 1762.999
1105.522, 1749.714
1106.004, 1748.430
1106.486, 1753.492
1106.969, 1756.868
1107.451, 1758.131
1107.933, 1753.428
1108.415, 1741.399
1108.897, 1731.698
1109.379, 1734.813
1109.861, 1738.990
1110.343, 1735.710
1110.826, 1726.137
1111.308, 1719.120
1111.790, 1714.829
1112.272, 1710.101
1112.754, 1703.461
1113.236, 1696.413
1113.718, 1686.258
1114.200, 1678.530
1114.682, 1682.776
1115.165, 1709.863
1115.647, 1716.798
1116.129, 1697.802
1116.611, 1678.743
1117.093, 1683.852
1117.575, 1697.722
1118.057, 1688.832
1118.539, 1664.861
1119.021, 1651.191
1119.504, 1670.780
1119.986, 1680.181
1120.468, 1670.969
1120.950, 1654.919
1121.432, 1644.124
1121.914, 1639.093
1122.396, 1644.574
1122.878, 1660.536
1123.361, 1670.970
1123.843, 1662.789
1124.325, 1652.198
1124.807, 1645.140
1125.289, 1641.328
1125.771, 1640.168
1126.253, 1641.510
1126.735, 1645.129
1127.218, 1652.845
1127.700, 1654.951
1128.182, 1635.110
1128.664, 1612.673
1129.146, 1605.864
1129.628, 1614.925
1130.110, 1624.351
1130.592, 1634.496
1131.074, 1640.068
1131.557, 1637.518
1132.039, 1630.380
1132.521, 1618.775
1133.003, 1606.778
1133.485, 1601.566
1133.967, 1608.640
1134.449, 1612.864
1134.931, 1613.725
1135.413, 1613.914
1135.896, 1618.701
1136.378, 1622.636
1136.860, 1612.015
1137.342, 1591.429
1137.824, 1579.337
1138.306, 1588.705
1138.788, 1597.878
1139.270, 1606.030
1139.752, 1609.819
1140.235, 1600.781
1140.717, 1584.430
1141.199, 1576.613
1141.681, 1578.946
1142.163, 1580.298
1142.645, 1574.350
1143.127, 1567.737
1143.609, 1562.628
1144.092, 1558.903
1144.574, 1557.063
1145.056, 1556.699
1145.538, 1555.734
1146.020, 1553.996
1146.502, 1550.411
1146.984, 1541.679
1147.466, 1533.395
1147.948, 1529.045
1148.431, 1528.597
1148.913, 1531.468
1149.395, 1537.597
1149.877, 1544.694
1150.359, 1553.090
1150.841, 1559.833
1151.323, 1564.415
1151.805, 1564.985
1152.287, 1558.076
1152.770, 1540.467
1153.252, 1529.327
1153.734, 1524.482
1154.216, 1526.808
1154.698, 1546.718
1155.180, 1565.904
1155.662, 1559.388
1156.144, 1537.225
1156.627, 1528.881
1157.109, 1544.930
1157.591, 1550.000
1158.073, 1538.521
1158.555, 1525.964
1159.037, 1528.750
1159.519, 1539.527
1160.001, 1553.601
1160.484, 1568.340
1160.966, 1564.394
1161.448, 1519.634
1161.930, 1495.743
1162.412, 1510.198
1162.894, 1539.374
1163.376, 1549.469
1163.858, 1546.979
1164.340, 1543.512
1164.823, 1540.736
1165.305, 1539.057
1165.787, 1541.174
1166.269, 1540.104
1166.751, 1531.041
1167.233, 1519.612
1167.715, 1524.612
1168.197, 1538.893
1168.679, 1539.368
1169.162, 1511.472
1169.644, 1494.189
1170.126, 1511.401
1170.608, 1531.702
1171.090, 1538.641
1171.572, 1534.384
1172.054, 1529.439
1172.536, 1523.851
1173.019, 1517.671
1173.501, 1504.475
1173.983, 1499.805
1174.465, 1520.990
1174.947, 1544.599
1175.429, 1549.230
1175.911, 1535.610
1176.393, 1525.636
1176.875, 1519.752
1177.358, 1517.390
1177.840, 1522.066
1178.322, 1526.121
1178.804, 1524.088
1179.286, 1519.680
1179.768, 1518.556
1180.250, 1520.773
1180.732, 1521.505
1181.214, 1520.297
1181.697, 1521.140
1182.179, 1530.242
1182.661, 1539.352
1183.143, 1542.524
1183.625, 1541.094
1184.107, 1539.117
1184.589, 1536.625
1185.071, 1532.652
1185.554, 1526.997
1186.036, 1520.228
1186.518, 1511.735
1187.000, 1503.310
1187.482, 1494.807
1187.964, 1487.290
1188.446, 1490.624
1188.928, 1506.654
1189.411, 1516.008
1189.893, 1512.305
1190.375, 1503.352
1190.857, 1495.525
1191.339, 1488.109
1191.821, 1478.342
1192.303, 1465.336
1192.785, 1467.626
1193.267, 1488.327
1193.750, 1501.747
1194.232, 1494.394
1194.714, 1479.703
1195.196, 1468.078
1195.678, 1461.227
1196.160, 1463.108
1196.642, 1477.801
1197.124, 1485.229
1197.606, 1484.619
1198.089, 1481.218
1198.571, 1474.708
1199.053, 1470.489
1199.535, 1480.365
1200.017, 1496.137
1200.499, 1501.736
1200.981, 1488.327
1201.463, 1480.991
1201.945, 1480.974
1202.428, 1482.655
1202.910, 1479.206
1203.392, 1476.771
1203.874, 1489.128
1204.356, 1509.087
1204.838, 1513.780
1205.320, 1491.640
1205.802, 1475.877
1206.285, 1469.558
1206.767, 1467.096
1207.249, 1463.210
1207.731, 1459.907
1208.213, 1460.682
1208.695, 1464.858
1209.177, 1467.552
1209.659, 1465.821
1210.141, 1469.834
1210.624, 1483.245
1211.106, 1495.227
1211.588, 1492.411
1212.070, 1480.917
1212.552, 1464.451
1213.034, 1444.883
1213.516, 1440.893
1213.998, 1461.699
1214.480, 1475.357
1214.963, 1473.917
1215.445, 1465.226
1215.927, 1456.953
1216.409, 1449.914
1216.891, 1445.228
1217.373, 1443.141
1217.855, 1443.934
1218.337, 1450.139
1218.820, 1451.143
1219.302, 1441.717
1219.784, 1429.744
1220.266, 1426.338
1220.748, 1428.585
1221.230, 1434.172
1221.712, 1444.438
1222.194, 1444.392
1222.677, 1429.016
1223.159, 1418.401
1223.641, 1423.294
1224.123, 1433.333
1224.605, 1433.821
1225.087, 1428.213
1225.569, 1420.593
1226.051, 1408.259
1226.533, 1408.136
1227.016, 1424.078
1227.498, 1439.537
1227.980, 1446.979
1228.462, 1447.589
1228.944, 1438.209
1229.426, 1424.754
1229.908, 1417.893
1230.390, 1424.327
1230.872, 1424.436
1231.355, 1416.181
1231.837, 1410.534
1232.319, 1418.487
1232.801, 1429.997
1233.283, 1430.381
1233.765, 1424.615
1234.247, 1423.207
1234.729, 1431.373
1235.212, 1433.146
1235.694, 1426.895
1236.176, 1422.006
1236.658, 1430.939
1237.140, 1440.835
1237.622, 1434.218
1238.104, 1417.155
1238.586, 1405.008
1239.068, 1398.862
1239.551, 1398.598
1240.033, 1405.013
1240.515, 1411.966
1240.997, 1415.343
1241.479, 1416.102
1241.961, 1414.778
1242.443, 1411.664
1242.925, 1407.306
1243.407, 1401.264
1243.890, 1396.449
1244.372, 1393.084
1244.854, 1391.587
1245.336, 1394.344
1245.818, 1397.354
1246.300, 1397.449
1246.782, 1394.640
1247.264, 1388.014
1247.747, 1375.552
1248.229, 1380.748
1248.711, 1408.846
1249.193, 1430.863
1249.675, 1412.806
1250.157, 1388.511
1250.639, 1386.021
1251.121, 1398.501
1251.604, 1404.269
1252.086, 1403.218
1252.568, 1398.959
1253.050, 1391.580
1253.532, 1387.531
1254.014, 1397.493
1254.496, 1407.202
1254.978, 1405.032
1255.460, 1395.513
1255.943, 1391.575
1256.425, 1392.646
1256.907, 1391.031
1257.389, 1384.620
1257.871, 1380.571
1258.353, 1388.781
1258.835, 1394.986
1259.317, 1388.837
1259.799, 1376.134
1260.281, 1377.623
1260.764, 1389.776
1261.246, 1392.900
1261.728, 1380.885
1262.210, 1371.995
1262.692, 1382.409
1263.174, 1390.106
1263.656, 1383.292
1264.138, 1368.624
1264.621, 1363.767
1265.103, 1367.111
1265.585, 1374.957
1266.067, 1388.109
1266.549, 1396.366
1267.031, 1392.377
1267.513, 1387.830
1267.995, 1387.172
1268.478, 1388.727
1268.960, 1389.191
1269.442, 1388.503
1269.924, 1385.992
1270.406, 1380.209
1270.888, 1378.196
1271.370, 1382.389
1271.852, 1386.543
1272.334, 1388.196
1272.817, 1387.727
1273.299, 1383.123
1273.781, 1377.938
1274.263, 1378.700
1274.745, 1388.608
1275.227, 1399.415
1275.709, 1412.897
1276.191, 1420.044
1276.673, 1415.144
1277.156, 1404.446
1277.638, 1393.890
1278.120, 1384.584
1278.602, 1377.709
1279.084, 1373.315
1279.566, 1373.484
1280.048, 1379.029
1280.530, 1382.058
1281.013, 1375.560
1281.495, 1370.324
1281.977, 1382.678
1282.459, 1398.980
1282.941, 1401.136
1283.423, 1387.802
1283.905, 1378.801
1284.387, 1374.023
1284.870, 1371.630
1285.352, 1368.716
1285.834, 1371.303
1286.316, 1392.851
1286.798, 1414.124
1287.280, 1414.685
1287.762, 1396.291
1288.244, 1391.876
1288.726, 1399.414
1289.208, 1406.245
1289.691, 1406.048
1290.173, 1405.185
1290.655, 1407.047
1291.137, 1408.309
1291.619, 1405.844
##END=



