##NAMES=Lovozerite
##RRUFFID=R120159
##IDEAL CHEMISTRY=Na_3_CaZr^4+^Si_6_O_15_(OH)_3_
##LOCALITY=Poudrette quarry, Mont Saint-Hilaire, Rouville RCM, Montérégie, Québec, Canada
##OWNER=RRUFF
##SOURCE=Donald Doell
##DESCRIPTION=Yellow massive on ussingite (R140806).
##STATUS=The identification of this mineral has been confirmed only by single crystal X-ray diffraction.
##URL=rruff.info/R120159
115.6658, 756.6516
116.1479, 755.5357
116.6300, 754.0646
117.1121, 752.1503
117.5942, 750.3281
118.0763, 750.1580
118.5584, 752.5435
119.0406, 754.3199
119.5227, 754.2603
120.0048, 752.8375
120.4869, 751.2595
120.9690, 749.8067
121.4511, 748.7657
121.9333, 748.5569
122.4154, 749.5821
122.8975, 750.7331
123.3796, 751.0858
123.8617, 750.5920
124.3438, 749.6854
124.8260, 748.0705
125.3081, 746.3105
125.7902, 744.8596
126.2723, 743.8050
126.7544, 743.2473
127.2365, 743.5643
127.7187, 745.4894
128.2008, 747.0771
128.6829, 747.8465
129.1650, 747.9766
129.6471, 747.6726
130.1292, 747.0240
130.6114, 746.0554
131.0935, 745.0924
131.5756, 743.6790
132.0577, 742.7261
132.5398, 742.5847
133.0219, 743.1301
133.5041, 744.0664
133.9862, 745.2013
134.4683, 746.6453
134.9504, 747.4805
135.4325, 747.2208
135.9146, 746.8652
136.3968, 747.0227
136.8789, 747.7326
137.3610, 748.6052
137.8431, 749.2218
138.3252, 749.5443
138.8073, 749.6913
139.2895, 749.3076
139.7716, 748.8879
140.2537, 749.1752
140.7358, 750.4711
141.2179, 751.9222
141.7000, 752.3347
142.1821, 751.8192
142.6643, 751.1810
143.1464, 750.6054
143.6285, 750.1367
144.1106, 749.9612
144.5927, 750.2891
145.0748, 750.7481
145.5570, 751.0127
146.0391, 751.0773
146.5212, 751.0521
147.0033, 750.9908
147.4854, 750.8812
147.9675, 750.8504
148.4497, 750.8294
148.9318, 750.9623
149.4139, 751.4266
149.8960, 752.2385
150.3781, 753.1541
150.8602, 753.8582
151.3424, 754.4730
151.8245, 754.5546
152.3066, 753.5754
152.7887, 752.4345
153.2708, 751.9345
153.7529, 752.3616
154.2351, 753.2815
154.7172, 753.6063
155.1993, 752.6815
155.6814, 751.8859
156.1635, 751.1893
156.6456, 750.6820
157.1278, 750.5293
157.6099, 750.8313
158.0920, 751.4521
158.5741, 751.8138
159.0562, 752.0699
159.5383, 751.9476
160.0205, 751.1657
160.5026, 749.9308
160.9847, 748.6777
161.4668, 747.6108
161.9489, 746.7624
162.4310, 746.1949
162.9131, 745.9024
163.3953, 745.8580
163.8774, 746.3226
164.3595, 747.2164
164.8416, 747.7040
165.3237, 747.0597
165.8058, 745.6633
166.2880, 744.4426
166.7701, 743.4100
167.2522, 742.6522
167.7343, 742.5205
168.2164, 743.2409
168.6985, 743.5126
169.1807, 741.8222
169.6628, 739.3965
170.1449, 737.8109
170.6270, 738.0929
171.1091, 739.3226
171.5912, 739.2431
172.0734, 736.9965
172.5555, 734.9911
173.0376, 734.2164
173.5197, 734.2156
174.0018, 734.3865
174.4839, 734.4539
174.9661, 734.3998
175.4482, 734.0849
175.9303, 733.2220
176.4124, 732.4108
176.8945, 731.8552
177.3766, 731.4654
177.8588, 731.0609
178.3409, 730.4869
178.8230, 729.7390
179.3051, 729.2317
179.7872, 729.4854
180.2693, 729.4676
180.7515, 728.7035
181.2336, 727.3673
181.7157, 725.9245
182.1978, 724.7302
182.6799, 723.7659
183.1620, 723.3041
183.6441, 723.7420
184.1263, 724.2027
184.6084, 724.2947
185.0905, 723.9989
185.5726, 723.4673
186.0547, 722.8083
186.5368, 721.9968
187.0190, 721.2827
187.5011, 720.7737
187.9832, 720.2921
188.4653, 719.6970
188.9474, 718.9796
189.4296, 718.2432
189.9117, 717.6224
190.3938, 717.1107
190.8759, 716.4395
191.3580, 715.1377
191.8401, 713.8713
192.3223, 713.6890
192.8044, 714.9336
193.2865, 716.0727
193.7686, 715.0627
194.2507, 712.5798
194.7328, 710.6837
195.2150, 710.2874
195.6971, 710.8456
196.1792, 711.3685
196.6613, 711.8800
197.1434, 712.1088
197.6255, 711.6398
198.1077, 710.7194
198.5898, 709.9935
199.0719, 710.1235
199.5540, 710.8027
200.0361, 710.5756
200.5182, 708.5186
201.0004, 706.8145
201.4825, 706.8482
201.9646, 708.1348
202.4467, 709.4755
202.9288, 710.1962
203.4109, 710.3022
203.8930, 709.7453
204.3752, 707.7120
204.8573, 705.8428
205.3394, 704.9535
205.8215, 704.7655
206.3036, 704.5032
206.7857, 703.3799
207.2679, 701.3044
207.7500, 700.1672
208.2321, 700.9282
208.7142, 701.8079
209.1963, 702.4745
209.6784, 702.8112
210.1606, 702.6834
210.6427, 701.8336
211.1248, 700.0737
211.6069, 699.3210
212.0890, 700.6003
212.5711, 701.8293
213.0533, 702.1537
213.5354, 701.6534
214.0175, 700.8777
214.4996, 700.2977
214.9817, 699.9191
215.4638, 699.7420
215.9460, 700.1293
216.4281, 700.3588
216.9102, 699.8713
217.3923, 698.7989
217.8744, 697.8337
218.3565, 697.6803
218.8387, 698.4884
219.3208, 698.6700
219.8029, 697.5847
220.2850, 696.4695
220.7671, 696.0662
221.2492, 696.3917
221.7314, 697.0554
222.2135, 697.7907
222.6956, 698.5965
223.1777, 699.2501
223.6598, 699.8329
224.1419, 700.2116
224.6240, 700.1771
225.1062, 699.7449
225.5883, 699.3019
226.0704, 699.2107
226.5525, 699.4141
227.0346, 699.4091
227.5167, 698.8109
227.9989, 698.2149
228.4810, 698.2909
228.9631, 699.0896
229.4452, 699.9051
229.9273, 700.1549
230.4094, 700.0209
230.8916, 700.0172
231.3737, 700.4389
231.8558, 700.9075
232.3379, 700.8510
232.8200, 700.1648
233.3021, 699.6889
233.7843, 700.2839
234.2664, 701.3831
234.7485, 702.1082
235.2306, 701.9933
235.7127, 701.6166
236.1948, 701.8663
236.6770, 702.9273
237.1591, 703.8499
237.6412, 703.9528
238.1233, 703.7058
238.6054, 703.6166
239.0875, 703.8929
239.5697, 704.3187
240.0518, 704.5930
240.5339, 704.7469
241.0160, 704.6400
241.4981, 703.9350
241.9802, 703.0725
242.4624, 702.4055
242.9445, 702.0093
243.4266, 701.9979
243.9087, 702.6934
244.3908, 704.4097
244.8729, 705.9685
245.3550, 707.2332
245.8372, 708.1213
246.3193, 708.4418
246.8014, 708.1072
247.2835, 707.4494
247.7656, 707.0729
248.2477, 707.1961
248.7299, 707.0649
249.2120, 706.3685
249.6941, 705.5079
250.1762, 704.6705
250.6583, 703.9325
251.1404, 703.4786
251.6226, 703.7782
252.1047, 705.5340
252.5868, 706.4147
253.0689, 705.5374
253.5510, 704.3063
254.0331, 703.7361
254.5153, 704.0716
254.9974, 704.8245
255.4795, 705.3096
255.9616, 705.6082
256.4437, 705.4047
256.9258, 704.1031
257.4080, 702.8245
257.8901, 702.3151
258.3722, 702.7007
258.8543, 703.5938
259.3364, 704.5414
259.8185, 705.7492
260.3007, 706.4450
260.7828, 706.6671
261.2649, 706.4777
261.7470, 705.6720
262.2291, 704.3651
262.7112, 703.0781
263.1934, 702.4017
263.6755, 702.4562
264.1576, 702.7495
264.6397, 703.5780
265.1218, 704.3477
265.6039, 704.8101
266.0861, 704.9114
266.5682, 704.6180
267.0503, 703.8080
267.5324, 702.3015
268.0145, 701.5073
268.4966, 701.9404
268.9788, 702.4610
269.4609, 702.6823
269.9430, 702.5201
270.4251, 701.8318
270.9072, 700.3284
271.3893, 697.9448
271.8715, 697.1415
272.3536, 699.2460
272.8357, 701.2683
273.3178, 701.9069
273.7999, 701.3970
274.2820, 700.5527
274.7642, 699.8605
275.2463, 699.3295
275.7284, 699.1218
276.2105, 699.6650
276.6926, 699.9907
277.1747, 699.5837
277.6568, 698.7067
278.1389, 697.9832
278.6211, 697.7789
279.1032, 697.9443
279.5853, 697.8269
280.0674, 696.9979
280.5495, 696.4444
281.0316, 696.6307
281.5138, 697.2355
281.9959, 697.7094
282.4780, 697.8251
282.9601, 697.6589
283.4422, 697.3629
283.9243, 696.8145
284.4065, 696.3886
284.8886, 696.2322
285.3707, 696.2275
285.8528, 696.1600
286.3349, 695.9406
286.8170, 695.7667
287.2992, 696.0783
287.7813, 697.1451
288.2634, 697.7468
288.7455, 697.2127
289.2276, 696.3011
289.7097, 696.0207
290.1919, 696.6179
290.6740, 697.4396
291.1561, 697.6537
291.6382, 697.1560
292.1203, 696.8461
292.6024, 696.9754
293.0846, 697.2363
293.5667, 697.2133
294.0488, 696.8642
294.5309, 696.7255
295.0130, 697.4448
295.4951, 699.0265
295.9773, 700.0593
296.4594, 700.1888
296.9415, 699.9703
297.4236, 699.7054
297.9057, 699.4363
298.3878, 699.3304
298.8700, 699.5890
299.3521, 700.1207
299.8342, 700.3485
300.3163, 699.8318
300.7984, 699.4120
301.2805, 699.7194
301.7627, 700.6066
302.2448, 701.3941
302.7269, 701.7369
303.2090, 701.7255
303.6911, 701.6710
304.1732, 701.5363
304.6554, 701.4294
305.1375, 701.5164
305.6196, 701.6811
306.1017, 701.5372
306.5838, 700.8203
307.0659, 699.9598
307.5481, 699.8773
308.0302, 700.7291
308.5123, 701.5242
308.9944, 701.8796
309.4765, 701.9863
309.9586, 702.2043
310.4408, 702.6570
310.9229, 703.0832
311.4050, 703.0185
311.8871, 702.4344
312.3692, 702.1037
312.8513, 702.2207
313.3335, 702.6447
313.8156, 703.3387
314.2977, 704.3106
314.7798, 705.1510
315.2619, 705.3720
315.7440, 705.0208
316.2262, 704.9384
316.7083, 705.4582
317.1904, 706.0803
317.6725, 706.3807
318.1546, 706.3605
318.6367, 706.2507
319.1188, 706.1187
319.6010, 706.0430
320.0831, 706.2889
320.5652, 707.2713
321.0473, 708.1579
321.5294, 708.4536
322.0115, 708.2645
322.4937, 707.9216
322.9758, 707.4997
323.4579, 707.1160
323.9400, 707.1207
324.4221, 707.7629
324.9042, 708.1983
325.3864, 707.8648
325.8685, 707.1614
326.3506, 706.9147
326.8327, 707.4551
327.3148, 708.2610
327.7969, 708.5011
328.2791, 708.1190
328.7612, 707.6857
329.2433, 707.3965
329.7254, 707.0688
330.2075, 706.2385
330.6896, 704.8251
331.1718, 703.8088
331.6539, 704.4684
332.1360, 706.9641
332.6181, 708.2728
333.1002, 707.1869
333.5823, 705.7230
334.0645, 705.0891
334.5466, 705.3934
335.0287, 706.7021
335.5108, 709.4312
335.9929, 713.2069
336.4750, 715.3292
336.9572, 714.9840
337.4393, 714.0808
337.9214, 712.9192
338.4035, 711.7903
338.8856, 711.5690
339.3677, 712.8541
339.8499, 714.8325
340.3320, 715.1574
340.8141, 712.7590
341.2962, 710.9102
341.7783, 710.4783
342.2604, 710.8424
342.7426, 711.1901
343.2247, 711.2877
343.7068, 711.5032
344.1889, 712.4529
344.6710, 714.6871
345.1531, 715.9588
345.6353, 715.7246
346.1174, 714.8871
346.5995, 713.8180
347.0816, 712.7065
347.5637, 712.0703
348.0458, 712.5030
348.5280, 714.0873
349.0101, 714.9254
349.4922, 714.2613
349.9743, 713.7463
350.4564, 714.4568
350.9385, 715.8858
351.4207, 716.7383
351.9028, 716.1964
352.3849, 714.6409
352.8670, 713.6998
353.3491, 713.8033
353.8312, 713.9871
354.3134, 714.1727
354.7955, 714.3669
355.2776, 714.5910
355.7597, 714.8515
356.2418, 715.1186
356.7239, 715.3289
357.2061, 715.3379
357.6882, 715.6072
358.1703, 716.4551
358.6524, 717.2977
359.1345, 717.5837
359.6166, 717.3678
360.0987, 717.2321
360.5808, 717.7939
361.0630, 719.1597
361.5451, 720.1649
362.0272, 720.6891
362.5093, 721.0016
362.9914, 721.0676
363.4735, 720.9955
363.9557, 720.9389
364.4378, 720.9837
364.9199, 721.1393
365.4020, 721.4326
365.8841, 721.6965
366.3662, 722.3802
366.8484, 723.9222
367.3305, 725.6893
367.8126, 727.0839
368.2947, 727.9081
368.7768, 728.3679
369.2589, 728.8597
369.7411, 729.6853
370.2232, 729.6707
370.7053, 727.6324
371.1874, 725.7537
371.6695, 725.3827
372.1516, 726.3717
372.6338, 727.5598
373.1159, 727.9288
373.5980, 727.5034
374.0801, 727.1231
374.5622, 726.3771
375.0443, 726.2385
375.5265, 727.5458
376.0086, 729.5111
376.4907, 730.9144
376.9728, 731.1269
377.4549, 730.5508
377.9370, 729.9362
378.4192, 729.0529
378.9013, 728.8051
379.3834, 730.1777
379.8655, 731.8304
380.3476, 732.6288
380.8297, 732.3578
381.3119, 731.8847
381.7940, 732.2220
382.2761, 733.3470
382.7582, 733.9703
383.2403, 733.6414
383.7224, 733.0953
384.2046, 732.6169
384.6867, 732.3059
385.1688, 732.4846
385.6509, 733.7073
386.1330, 735.4736
386.6151, 736.5298
387.0973, 736.6328
387.5794, 736.8839
388.0615, 738.2559
388.5436, 740.0749
389.0257, 741.3613
389.5078, 741.7610
389.9900, 741.8942
390.4721, 742.3376
390.9542, 743.0341
391.4363, 743.4915
391.9184, 743.3953
392.4005, 743.1826
392.8827, 743.5319
393.3648, 744.4891
393.8469, 745.3230
394.3290, 745.6867
394.8111, 745.7746
395.2932, 745.8623
395.7754, 745.9894
396.2575, 746.1624
396.7396, 746.4281
397.2217, 746.7712
397.7038, 746.9926
398.1859, 746.7786
398.6681, 746.7144
399.1501, 747.3857
399.6323, 748.5837
400.1144, 749.5269
400.5965, 749.7928
401.0786, 749.5997
401.5607, 749.5676
402.0428, 749.7896
402.5250, 749.9720
403.0071, 749.7421
403.4892, 749.5883
403.9713, 750.2087
404.4534, 751.7195
404.9355, 753.5197
405.4177, 754.9680
405.8998, 756.0773
406.3819, 756.5939
406.8640, 756.0170
407.3461, 755.4058
407.8282, 755.1494
408.3104, 755.2896
408.7925, 755.8704
409.2746, 756.9821
409.7567, 758.4220
410.2388, 759.2590
410.7209, 758.6526
411.2031, 758.5226
411.6852, 759.3105
412.1673, 760.4788
412.6494, 761.6139
413.1315, 762.5677
413.6136, 763.2873
414.0958, 763.6483
414.5779, 763.5363
415.0600, 763.5335
415.5421, 763.4794
416.0242, 763.6966
416.5063, 764.3570
416.9885, 765.4056
417.4706, 766.6998
417.9527, 768.2036
418.4348, 769.8463
418.9169, 771.5007
419.3990, 773.4631
419.8812, 774.7362
420.3633, 774.3835
420.8454, 773.5798
421.3275, 773.4590
421.8096, 774.3041
422.2917, 775.3690
422.7739, 775.7612
423.2560, 775.5294
423.7381, 775.8340
424.2202, 777.2148
424.7023, 778.6515
425.1844, 779.2654
425.6666, 779.2567
426.1487, 779.3614
426.6308, 779.8244
427.1129, 780.6050
427.5950, 781.8608
428.0771, 783.6511
428.5593, 784.9991
429.0414, 785.2800
429.5235, 784.8019
430.0056, 784.3116
430.4877, 783.6597
430.9698, 783.3528
431.4520, 783.9846
431.9341, 785.0922
432.4162, 785.6438
432.8983, 785.3232
433.3804, 784.8603
433.8625, 785.1576
434.3447, 786.3499
434.8268, 787.2333
435.3089, 787.5993
435.7910, 787.7852
436.2731, 787.7861
436.7552, 787.7571
437.2374, 788.3080
437.7195, 789.9552
438.2016, 792.1221
438.6837, 792.5658
439.1658, 788.9949
439.6479, 786.6238
440.1301, 786.2930
440.6122, 787.0371
441.0943, 788.2615
441.5764, 789.6927
442.0585, 790.9301
442.5406, 791.4392
443.0227, 791.0793
443.5049, 791.0551
443.9870, 791.4440
444.4691, 792.1035
444.9512, 793.3719
445.4333, 794.8093
445.9154, 795.6935
446.3976, 795.6094
446.8797, 794.9591
447.3618, 794.5758
447.8439, 794.4321
448.3260, 794.6360
448.8081, 795.7505
449.2903, 796.8209
449.7724, 797.1049
450.2545, 796.6335
450.7366, 796.1561
451.2187, 796.2265
451.7008, 796.7592
452.1830, 797.4689
452.6651, 798.4737
453.1472, 799.3300
453.6293, 799.5739
454.1114, 799.5472
454.5935, 799.7532
455.0757, 800.3963
455.5578, 801.0910
456.0399, 801.5494
456.5220, 801.7933
457.0041, 801.8704
457.4862, 801.6962
457.9684, 801.5720
458.4505, 802.0593
458.9326, 803.1656
459.4147, 803.8834
459.8968, 803.7570
460.3789, 803.3738
460.8611, 803.1566
461.3432, 803.1466
461.8253, 803.3546
462.3074, 803.8347
462.7895, 804.4955
463.2716, 804.9556
463.7538, 804.9513
464.2359, 805.1088
464.7180, 805.5092
465.2001, 806.0994
465.6822, 806.9485
466.1643, 808.0078
466.6465, 808.9222
467.1286, 809.2255
467.6107, 808.7932
468.0928, 808.9421
468.5749, 810.2189
469.0570, 811.4931
469.5392, 812.6689
470.0213, 813.5897
470.5034, 813.9144
470.9855, 813.4630
471.4676, 812.8265
471.9497, 813.0795
472.4319, 814.3805
472.9140, 815.8930
473.3961, 818.2059
473.8782, 820.0765
474.3603, 820.6453
474.8424, 820.0816
475.3246, 819.2230
475.8067, 818.4264
476.2888, 817.7207
476.7709, 817.1052
477.2530, 816.5468
477.7351, 816.3135
478.2173, 816.5516
478.6994, 817.2135
479.1815, 818.2507
479.6636, 819.7904
480.1457, 821.2216
480.6278, 822.0156
481.1100, 822.5470
481.5920, 823.5156
482.0742, 825.0488
482.5563, 826.8666
483.0384, 828.8727
483.5205, 831.0234
484.0026, 832.5284
484.4847, 833.0177
484.9669, 833.2999
485.4490, 833.5432
485.9311, 833.8370
486.4132, 834.2968
486.8953, 834.9664
487.3774, 835.8333
487.8596, 836.8635
488.3417, 838.0290
488.8238, 839.4816
489.3059, 841.6740
489.7880, 843.6755
490.2701, 844.8774
490.7523, 845.5228
491.2344, 846.2077
491.7165, 847.2859
492.1986, 848.6453
492.6807, 849.9428
493.1628, 851.0546
493.6450, 852.4467
494.1271, 854.6571
494.6092, 856.8553
495.0913, 858.3492
495.5734, 859.1719
496.0555, 860.0773
496.5377, 861.5344
497.0198, 863.4631
497.5019, 865.8633
497.9840, 868.9532
498.4661, 871.4669
498.9482, 872.4990
499.4304, 872.5705
499.9125, 872.6537
500.3946, 872.6324
500.8767, 873.0305
501.3588, 874.4699
501.8409, 876.4133
502.3231, 877.7919
502.8052, 878.3772
503.2873, 879.0599
503.7694, 880.8873
504.2515, 883.9285
504.7336, 885.4990
505.2158, 884.5338
505.6979, 883.4691
506.1800, 882.9220
506.6621, 882.9051
507.1442, 883.5168
507.6263, 884.7605
508.1085, 886.2197
508.5906, 887.3043
509.0727, 888.0735
509.5548, 888.2391
510.0369, 886.8900
510.5190, 885.8408
511.0012, 886.3132
511.4833, 887.5173
511.9654, 887.7664
512.4475, 886.0272
512.9296, 883.5775
513.4117, 882.8909
513.8939, 884.2318
514.3760, 885.3071
514.8581, 885.7109
515.3402, 885.5797
515.8223, 884.7800
516.3044, 883.4647
516.7866, 882.5888
517.2687, 883.1071
517.7508, 883.9642
518.2329, 883.7122
518.7150, 882.4030
519.1971, 880.9957
519.6793, 879.9133
520.1614, 879.0334
520.6435, 878.0525
521.1256, 876.7702
521.6077, 875.9452
522.0898, 876.4150
522.5720, 876.8989
523.0541, 875.9431
523.5362, 873.7470
524.0183, 871.7350
524.5004, 870.9137
524.9825, 871.1638
525.4647, 871.9356
525.9468, 874.2645
526.4289, 875.5896
526.9110, 875.0770
527.3931, 873.9669
527.8752, 873.3053
528.3574, 873.1758
528.8395, 872.9221
529.3216, 871.7992
529.8037, 870.0256
530.2858, 868.9820
530.7679, 868.9449
531.2501, 869.0060
531.7322, 868.8428
532.2143, 868.5458
532.6964, 868.1238
533.1785, 867.5328
533.6606, 867.1320
534.1428, 867.5046
534.6249, 868.1654
535.1070, 867.9594
535.5891, 866.6894
536.0712, 865.2005
536.5533, 864.0529
537.0355, 863.2322
537.5176, 862.5963
537.9997, 862.1439
538.4818, 861.8547
538.9639, 861.7029
539.4460, 861.7196
539.9282, 862.0961
540.4103, 862.8005
540.8924, 863.3547
541.3745, 863.2166
541.8566, 862.3620
542.3387, 861.6516
542.8209, 861.4169
543.3029, 860.9271
543.7850, 859.7084
544.2672, 858.3210
544.7493, 857.3850
545.2314, 857.0645
545.7135, 857.1137
546.1956, 857.5494
546.6777, 858.2832
547.1599, 858.1227
547.6420, 856.6103
548.1241, 855.0497
548.6062, 854.0403
549.0883, 853.5706
549.5704, 853.8510
550.0526, 855.4630
550.5347, 856.6615
551.0168, 855.9217
551.4989, 854.0582
551.9810, 852.7183
552.4631, 852.2454
552.9453, 852.2669
553.4274, 852.5013
553.9095, 852.9496
554.3916, 853.3297
554.8737, 853.3214
555.3558, 853.6291
555.8380, 855.1201
556.3201, 856.7294
556.8022, 856.9421
557.2843, 855.4733
557.7664, 853.5068
558.2485, 852.4069
558.7307, 852.2146
559.2128, 851.8391
559.6949, 851.0070
560.1770, 850.3995
560.6591, 850.4504
561.1412, 850.7343
561.6234, 850.6899
562.1055, 850.1522
562.5876, 849.5785
563.0697, 849.4456
563.5518, 849.6046
564.0339, 849.4614
564.5161, 848.8527
564.9982, 848.4717
565.4803, 849.1450
565.9624, 850.4412
566.4445, 850.4905
566.9266, 847.8419
567.4088, 846.0141
567.8909, 847.0200
568.3730, 849.1229
568.8551, 850.0856
569.3372, 849.5640
569.8193, 848.6645
570.3015, 848.3796
570.7836, 848.6859
571.2657, 849.1862
571.7478, 850.2894
572.2299, 851.0217
572.7120, 850.7421
573.1942, 850.3469
573.6763, 850.8381
574.1584, 852.2778
574.6405, 853.6866
575.1226, 854.1309
575.6047, 853.8238
576.0869, 853.6475
576.5690, 853.6287
577.0511, 853.6119
577.5332, 853.4254
578.0153, 853.2616
578.4974, 853.4449
578.9796, 854.0555
579.4617, 854.6755
579.9438, 855.3052
580.4259, 855.7721
580.9080, 855.8582
581.3901, 855.5720
581.8723, 855.0092
582.3544, 854.1555
582.8365, 853.2194
583.3186, 852.8935
583.8007, 853.2927
584.2828, 854.2021
584.7650, 856.2894
585.2471, 858.3016
585.7292, 859.5055
586.2113, 859.8903
586.6934, 859.6129
587.1755, 858.5341
587.6577, 857.3027
588.1398, 857.6691
588.6219, 859.9363
589.1040, 861.7270
589.5861, 862.4281
590.0682, 862.4913
590.5504, 862.0706
591.0325, 861.2961
591.5146, 861.0607
591.9967, 862.2253
592.4788, 863.5353
592.9609, 863.7471
593.4431, 863.2005
593.9252, 862.9715
594.4073, 863.4613
594.8894, 864.2557
595.3715, 864.7474
595.8536, 864.7712
596.3358, 865.2672
596.8179, 867.0070
597.3000, 868.2963
597.7821, 868.4051
598.2642, 867.7411
598.7463, 866.6962
599.2285, 865.4425
599.7106, 864.5573
600.1927, 864.9871
600.6748, 866.6696
601.1569, 867.8990
601.6390, 868.6152
602.1212, 868.8367
602.6033, 868.1371
603.0854, 867.0687
603.5675, 866.5032
604.0496, 866.6616
604.5317, 866.9581
605.0139, 867.4213
605.4960, 867.6995
605.9781, 866.8085
606.4602, 864.8500
606.9423, 863.7300
607.4244, 864.9991
607.9066, 868.0204
608.3887, 869.9239
608.8708, 870.4398
609.3529, 870.1142
609.8350, 867.9158
610.3171, 865.7750
610.7993, 865.2669
611.2814, 866.1237
611.7635, 866.9930
612.2456, 867.0592
612.7277, 866.5509
613.2098, 865.8149
613.6920, 864.8010
614.1741, 864.0576
614.6562, 863.6247
615.1383, 863.6243
615.6204, 864.5412
616.1025, 866.1586
616.5847, 867.0679
617.0668, 866.6494
617.5489, 865.7701
618.0310, 864.4366
618.5131, 863.1432
618.9952, 863.0970
619.4774, 864.6104
619.9595, 866.4327
620.4416, 867.0280
620.9237, 866.2850
621.4058, 866.0746
621.8879, 866.9880
622.3701, 867.7294
622.8522, 867.8829
623.3343, 867.8260
623.8164, 868.0016
624.2985, 868.4728
624.7806, 868.8666
625.2628, 868.6385
625.7448, 868.1348
626.2269, 868.4938
626.7090, 869.8391
627.1912, 870.7875
627.6733, 870.5633
628.1554, 869.7209
628.6375, 869.2830
629.1196, 869.2838
629.6017, 869.3935
630.0839, 869.4327
630.5660, 869.6764
631.0481, 870.8036
631.5302, 872.2516
632.0123, 872.4272
632.4944, 870.5943
632.9766, 868.3239
633.4587, 868.6339
633.9408, 872.3120
634.4229, 874.5045
634.9050, 874.4392
635.3871, 873.7379
635.8693, 872.7484
636.3514, 871.7666
636.8335, 871.2599
637.3156, 871.3846
637.7977, 871.7922
638.2798, 872.4103
638.7620, 873.0886
639.2441, 873.6445
639.7262, 874.0388
640.2083, 873.9379
640.6904, 873.0057
641.1725, 871.5544
641.6547, 870.6187
642.1368, 870.3363
642.6189, 870.4171
643.1010, 871.0813
643.5831, 871.9043
644.0652, 872.6461
644.5474, 873.3165
645.0295, 874.1476
645.5116, 875.3582
645.9937, 876.3049
646.4758, 875.3621
646.9579, 872.5594
647.4401, 871.7247
647.9222, 874.3109
648.4043, 877.0665
648.8864, 877.1511
649.3685, 875.4171
649.8506, 874.5297
650.3328, 875.1881
650.8149, 875.9512
651.2970, 876.4764
651.7791, 876.6890
652.2612, 876.3217
652.7433, 875.4662
653.2255, 874.6630
653.7076, 874.3024
654.1897, 874.3206
654.6718, 874.4167
655.1539, 874.2797
655.6360, 874.9662
656.1182, 878.0476
656.6003, 880.7469
657.0824, 881.0163
657.5645, 879.5660
658.0466, 878.7564
658.5287, 879.7618
659.0109, 881.2563
659.4930, 882.2289
659.9751, 882.6788
660.4572, 882.4537
660.9393, 881.4987
661.4214, 880.5138
661.9036, 880.0990
662.3857, 880.2184
662.8678, 880.4551
663.3499, 880.9202
663.8320, 881.3768
664.3141, 881.7159
664.7963, 882.1231
665.2784, 882.9030
665.7605, 883.9271
666.2426, 884.6448
666.7247, 884.5673
667.2068, 884.2575
667.6890, 884.9368
668.1711, 886.5654
668.6532, 887.6646
669.1353, 887.8235
669.6174, 887.5624
670.0995, 887.2755
670.5817, 886.9633
671.0638, 886.6717
671.5459, 886.1019
672.0280, 885.9100
672.5101, 886.7668
672.9922, 887.8287
673.4744, 888.0651
673.9565, 887.4600
674.4386, 886.7659
674.9207, 886.4996
675.4028, 886.6617
675.8849, 887.3557
676.3671, 888.7480
676.8492, 889.9621
677.3313, 891.1002
677.8134, 891.6844
678.2955, 890.8253
678.7776, 889.0547
679.2598, 888.3436
679.7419, 890.0941
680.2240, 891.7863
680.7061, 891.7593
681.1882, 890.7872
681.6703, 889.6871
682.1525, 888.7958
682.6346, 889.1122
683.1167, 891.7494
683.5988, 895.9244
684.0809, 897.6019
684.5630, 895.2868
685.0452, 893.7439
685.5273, 894.1774
686.0094, 895.0533
686.4915, 895.5637
686.9736, 895.7843
687.4557, 896.0797
687.9379, 896.4908
688.4200, 897.1754
688.9021, 898.5711
689.3842, 900.2921
689.8663, 901.3671
690.3484, 901.6345
690.8306, 901.6989
691.3127, 902.0553
691.7948, 902.5964
692.2769, 902.7658
692.7590, 902.0965
693.2411, 901.8199
693.7233, 902.3140
694.2054, 902.9142
694.6875, 903.2352
695.1696, 903.3365
695.6517, 903.4840
696.1339, 903.8605
696.6160, 904.1298
697.0981, 903.6803
697.5802, 902.7938
698.0623, 902.4269
698.5444, 902.7211
699.0266, 903.6069
699.5087, 905.2340
699.9908, 907.2880
700.4729, 908.5605
700.9550, 908.4872
701.4371, 908.4441
701.9193, 907.9256
702.4014, 907.9164
702.8835, 909.5318
703.3656, 912.0508
703.8477, 913.9988
704.3298, 914.7460
704.8120, 914.6570
705.2941, 913.6144
705.7762, 911.9952
706.2583, 911.9513
706.7404, 913.9488
707.2225, 915.6358
707.7046, 915.4614
708.1867, 914.2034
708.6688, 913.8942
709.1509, 915.0831
709.6331, 915.7523
710.1152, 915.0928
710.5973, 914.5293
711.0794, 914.9896
711.5615, 916.1188
712.0436, 917.3029
712.5258, 918.3077
713.0079, 918.9782
713.4900, 918.9034
713.9721, 918.2791
714.4542, 918.3064
714.9363, 919.1375
715.4185, 919.7982
715.9006, 919.5299
716.3827, 919.1747
716.8648, 920.5457
717.3469, 924.1625
717.8290, 926.2244
718.3112, 925.0800
718.7933, 923.7343
719.2754, 923.6871
719.7575, 924.3796
720.2396, 924.9548
720.7217, 925.1668
721.2039, 925.2288
721.6860, 925.4200
722.1681, 925.6144
722.6502, 925.0529
723.1323, 923.5374
723.6144, 923.0509
724.0966, 924.8666
724.5787, 926.9957
725.0608, 926.7910
725.5429, 924.3160
726.0250, 922.8359
726.5071, 923.2454
726.9893, 923.8155
727.4714, 923.6598
727.9535, 923.4971
728.4356, 924.4058
728.9177, 926.2995
729.3998, 928.0066
729.8820, 928.6657
730.3641, 928.5817
730.8462, 928.2597
731.3283, 927.6710
731.8104, 927.6542
732.2925, 928.4796
732.7747, 929.6487
733.2568, 930.8983
733.7389, 932.1575
734.2210, 933.1133
734.7031, 933.4949
735.1852, 933.9690
735.6674, 934.8087
736.1495, 935.6738
736.6316, 936.4816
737.1137, 937.0604
737.5958, 936.9411
738.0779, 935.8268
738.5601, 934.5490
739.0422, 934.6404
739.5243, 935.8838
740.0064, 935.8666
740.4885, 934.0050
740.9706, 932.7734
741.4528, 933.9089
741.9349, 936.2996
742.4170, 937.3771
742.8991, 936.6193
743.3812, 936.5018
743.8633, 937.9264
744.3455, 939.3157
744.8276, 939.6804
745.3097, 939.5276
745.7918, 939.7745
746.2739, 940.6441
746.7560, 941.4949
747.2382, 941.6063
747.7203, 941.2347
748.2024, 940.9749
748.6845, 940.8141
749.1666, 941.6607
749.6487, 944.2245
750.1309, 946.8971
750.6130, 947.6667
751.0951, 946.3868
751.5772, 945.7064
752.0593, 945.9210
752.5414, 946.2760
753.0236, 946.2293
753.5057, 946.5078
753.9878, 948.2972
754.4699, 951.1513
754.9520, 953.1160
755.4341, 952.8400
755.9163, 951.6718
756.3984, 951.4646
756.8805, 952.0117
757.3626, 952.5419
757.8447, 952.9600
758.3268, 952.8602
758.8090, 951.7565
759.2911, 950.1239
759.7732, 949.5507
760.2553, 950.6995
760.7374, 951.7653
761.2195, 953.0946
761.7017, 954.0167
762.1838, 953.9688
762.6659, 953.4101
763.1480, 953.0214
763.6301, 952.9903
764.1122, 953.2054
764.5944, 953.5260
765.0765, 954.0707
765.5586, 955.2463
766.0407, 956.8997
766.5228, 958.1420
767.0049, 958.6195
767.4871, 958.6809
767.9692, 958.7020
768.4513, 958.6514
768.9334, 959.1825
769.4155, 960.8987
769.8976, 962.1844
770.3798, 961.8226
770.8619, 961.5851
771.3440, 963.5423
771.8261, 967.1214
772.3082, 969.1233
772.7903, 967.2142
773.2725, 965.0485
773.7546, 965.4211
774.2367, 967.0754
774.7188, 967.9813
775.2009, 967.9851
775.6830, 968.2740
776.1652, 969.6894
776.6473, 971.6336
777.1294, 972.6584
777.6115, 972.6495
778.0936, 972.4877
778.5757, 972.0418
779.0579, 971.7913
779.5400, 971.9443
780.0221, 972.4900
780.5042, 973.5693
780.9863, 975.4356
781.4684, 976.6211
781.9506, 976.3339
782.4327, 975.6960
782.9148, 974.9945
783.3969, 974.5947
783.8790, 975.2501
784.3611, 977.0133
784.8433, 978.7719
785.3254, 979.4111
785.8075, 979.3198
786.2896, 979.7402
786.7717, 980.6821
787.2538, 981.1845
787.7360, 980.8052
788.2181, 980.5632
788.7002, 981.5253
789.1823, 983.5107
789.6644, 984.9446
790.1465, 985.5494
790.6286, 986.0407
791.1107, 986.6876
791.5928, 987.0385
792.0750, 986.3463
792.5571, 985.2219
793.0392, 985.0080
793.5213, 986.2579
794.0034, 987.8609
794.4855, 988.8994
794.9677, 989.6047
795.4498, 990.4141
795.9319, 991.3238
796.4140, 992.0648
796.8961, 992.5148
797.3782, 992.8952
797.8604, 993.5831
798.3425, 994.6172
798.8246, 994.8928
799.3067, 993.8817
799.7888, 993.0544
800.2709, 992.3895
800.7531, 992.3464
801.2352, 993.7286
801.7173, 996.1869
802.1994, 998.0154
802.6815, 998.3701
803.1636, 998.5922
803.6458, 999.2271
804.1279, 1000.202
804.6100, 1001.600
805.0921, 1003.273
805.5742, 1004.873
806.0563, 1006.222
806.5385, 1007.167
807.0206, 1007.235
807.5027, 1006.523
807.9848, 1006.428
808.4669, 1007.173
808.9490, 1007.614
809.4312, 1006.922
809.9133, 1006.121
810.3954, 1006.966
810.8775, 1009.884
811.3596, 1011.615
811.8417, 1011.491
812.3239, 1011.050
812.8060, 1009.896
813.2881, 1009.195
813.7702, 1010.474
814.2523, 1013.366
814.7344, 1015.920
815.2166, 1017.163
815.6987, 1017.697
816.1808, 1017.954
816.6629, 1018.004
817.1450, 1017.796
817.6271, 1017.423
818.1093, 1017.664
818.5914, 1019.012
819.0735, 1020.906
819.5556, 1022.268
820.0377, 1023.016
820.5198, 1023.720
821.0020, 1024.519
821.4841, 1024.983
821.9662, 1024.403
822.4483, 1023.792
822.9304, 1024.466
823.4125, 1026.381
823.8947, 1027.912
824.3768, 1028.652
824.8589, 1029.058
825.3410, 1028.704
825.8231, 1028.549
826.3052, 1030.127
826.7874, 1033.043
827.2695, 1035.324
827.7516, 1035.824
828.2337, 1035.473
828.7158, 1035.413
829.1979, 1035.622
829.6801, 1036.019
830.1622, 1036.593
830.6443, 1037.271
831.1264, 1038.008
831.6085, 1038.867
832.0906, 1040.071
832.5728, 1041.785
833.0549, 1042.511
833.5370, 1041.056
834.0191, 1040.318
834.5012, 1041.647
834.9833, 1043.335
835.4655, 1043.762
835.9476, 1043.189
836.4297, 1043.299
836.9118, 1044.960
837.3939, 1046.830
837.8760, 1048.278
838.3582, 1049.491
838.8403, 1050.747
839.3224, 1051.988
839.8045, 1052.967
840.2866, 1053.572
840.7687, 1053.818
841.2509, 1053.470
841.7330, 1052.718
842.2151, 1052.765
842.6972, 1053.680
843.1793, 1054.546
843.6614, 1054.981
844.1436, 1055.390
844.6257, 1056.315
845.1078, 1057.728
845.5899, 1058.613
846.0720, 1058.470
846.5541, 1058.492
847.0363, 1058.616
847.5184, 1059.074
848.0005, 1060.233
848.4826, 1061.793
848.9647, 1063.075
849.4468, 1063.847
849.9290, 1064.605
850.4111, 1065.875
850.8932, 1067.070
851.3753, 1067.507
851.8574, 1067.403
852.3395, 1067.315
852.8217, 1067.419
853.3038, 1067.512
853.7859, 1067.303
854.2680, 1067.019
854.7501, 1067.547
855.2322, 1068.893
855.7144, 1069.524
856.1965, 1068.865
856.6786, 1068.704
857.1607, 1070.667
857.6428, 1073.920
858.1249, 1075.797
858.6071, 1075.890
859.0892, 1075.439
859.5713, 1073.620
860.0534, 1072.217
860.5355, 1071.516
861.0176, 1071.751
861.4998, 1073.662
861.9819, 1077.176
862.4640, 1079.944
862.9461, 1080.755
863.4282, 1080.829
863.9103, 1080.546
864.3925, 1080.285
864.8746, 1080.692
865.3567, 1081.696
865.8388, 1082.682
866.3209, 1083.317
866.8030, 1083.582
867.2852, 1083.216
867.7673, 1082.400
868.2494, 1082.054
868.7315, 1082.232
869.2136, 1082.939
869.6957, 1084.269
870.1779, 1085.824
870.6600, 1087.099
871.1421, 1088.095
871.6242, 1088.764
872.1063, 1088.706
872.5884, 1089.018
873.0705, 1090.658
873.5526, 1091.981
874.0347, 1091.538
874.5168, 1090.068
874.9990, 1089.426
875.4811, 1090.073
875.9632, 1091.046
876.4453, 1092.098
876.9274, 1093.270
877.4095, 1095.077
877.8917, 1096.839
878.3738, 1097.195
878.8559, 1096.009
879.3380, 1094.771
879.8201, 1094.654
880.3022, 1095.142
880.7844, 1095.370
881.2665, 1095.469
881.7486, 1096.078
882.2307, 1097.253
882.7128, 1098.005
883.1949, 1097.598
883.6771, 1096.866
884.1592, 1097.742
884.6413, 1100.558
885.1234, 1102.368
885.6055, 1102.709
886.0876, 1103.224
886.5698, 1105.046
887.0519, 1106.689
887.5340, 1105.990
888.0161, 1103.171
888.4982, 1101.734
888.9803, 1102.212
889.4625, 1103.457
889.9446, 1106.074
890.4267, 1108.653
890.9088, 1110.519
891.3909, 1111.533
891.8730, 1111.373
892.3552, 1109.908
892.8373, 1108.501
893.3194, 1107.809
893.8015, 1107.794
894.2836, 1108.779
894.7657, 1110.316
895.2479, 1111.556
895.7300, 1112.292
896.2121, 1112.649
896.6942, 1112.648
897.1763, 1112.533
897.6584, 1112.666
898.1406, 1113.077
898.6227, 1114.336
899.1048, 1116.573
899.5869, 1118.648
900.0690, 1120.138
900.5511, 1120.839
901.0333, 1120.272
901.5154, 1118.336
901.9975, 1117.340
902.4796, 1117.805
902.9617, 1118.234
903.4438, 1117.976
903.9260, 1117.986
904.4081, 1119.236
904.8902, 1121.216
905.3723, 1122.579
905.8544, 1123.012
906.3365, 1123.318
906.8187, 1123.611
907.3008, 1123.910
907.7829, 1124.104
908.2650, 1124.361
908.7471, 1125.125
909.2292, 1126.299
909.7114, 1126.908
910.1935, 1125.815
910.6756, 1124.794
911.1577, 1125.936
911.6398, 1128.324
912.1219, 1130.765
912.6041, 1132.815
913.0862, 1133.290
913.5683, 1131.626
914.0504, 1129.578
914.5325, 1129.683
915.0146, 1131.507
915.4968, 1132.341
915.9789, 1132.149
916.4610, 1132.523
916.9431, 1134.023
917.4252, 1135.424
917.9073, 1135.532
918.3895, 1134.901
918.8716, 1135.709
919.3537, 1139.178
919.8358, 1140.892
920.3179, 1139.427
920.8000, 1138.212
921.2822, 1139.167
921.7643, 1140.657
922.2464, 1140.487
922.7285, 1138.756
923.2106, 1138.511
923.6927, 1142.031
924.1749, 1144.555
924.6570, 1143.822
925.1391, 1142.427
925.6212, 1142.479
926.1033, 1143.484
926.5854, 1143.947
927.0676, 1143.418
927.5497, 1143.155
928.0318, 1144.326
928.5139, 1145.878
928.9960, 1146.560
929.4781, 1146.898
929.9603, 1148.338
930.4424, 1150.785
930.9245, 1152.281
931.4066, 1151.464
931.8887, 1149.744
932.3708, 1149.115
932.8530, 1149.488
933.3351, 1150.934
933.8172, 1153.328
934.2993, 1154.563
934.7814, 1153.753
935.2635, 1152.485
935.7457, 1152.544
936.2278, 1153.614
936.7099, 1153.679
937.1920, 1152.262
937.6741, 1151.966
938.1563, 1153.411
938.6384, 1155.297
939.1205, 1157.203
939.6026, 1158.898
940.0847, 1159.941
940.5668, 1160.232
941.0490, 1160.468
941.5311, 1160.821
942.0132, 1160.903
942.4953, 1160.194
942.9774, 1159.606
943.4595, 1160.160
943.9417, 1161.332
944.4238, 1161.570
944.9059, 1160.168
945.3880, 1159.407
945.8701, 1160.759
946.3522, 1162.309
946.8344, 1162.716
947.3165, 1162.576
947.7986, 1162.714
948.2807, 1163.252
948.7628, 1163.987
949.2449, 1165.035
949.7271, 1165.652
950.2092, 1164.285
950.6913, 1162.512
951.1734, 1163.288
951.6555, 1165.948
952.1376, 1167.442
952.6198, 1166.861
953.1019, 1166.542
953.5840, 1169.024
954.0661, 1172.986
954.5482, 1175.119
955.0303, 1175.701
955.5124, 1176.845
955.9945, 1178.843
956.4766, 1179.554
956.9587, 1177.577
957.4409, 1175.129
957.9230, 1176.068
958.4051, 1180.307
958.8872, 1182.522
959.3693, 1182.256
959.8514, 1181.920
960.3336, 1182.013
960.8157, 1182.184
961.2978, 1182.143
961.7799, 1182.009
962.2620, 1182.118
962.7441, 1182.507
963.2263, 1183.028
963.7084, 1183.986
964.1905, 1184.667
964.6726, 1184.314
965.1547, 1184.081
965.6368, 1185.273
966.1190, 1187.527
966.6011, 1189.048
967.0832, 1189.016
967.5653, 1189.478
968.0474, 1191.744
968.5295, 1193.675
969.0117, 1193.527
969.4938, 1192.592
969.9759, 1192.398
970.4580, 1193.227
970.9401, 1195.086
971.4222, 1199.398
971.9044, 1202.433
972.3865, 1200.475
972.8686, 1197.125
973.3507, 1196.105
973.8328, 1196.981
974.3149, 1198.062
974.7971, 1198.790
975.2792, 1199.365
975.7613, 1199.839
976.2434, 1200.360
976.7255, 1201.441
977.2076, 1202.609
977.6898, 1202.483
978.1719, 1201.270
978.6540, 1200.806
979.1361, 1201.954
979.6182, 1203.765
980.1003, 1205.116
980.5825, 1206.160
981.0646, 1207.434
981.5467, 1208.883
982.0288, 1210.045
982.5109, 1210.824
982.9930, 1211.650
983.4752, 1212.862
983.9573, 1213.964
984.4394, 1213.758
984.9215, 1212.229
985.4036, 1211.930
985.8857, 1213.010
986.3679, 1214.601
986.8500, 1216.717
987.3321, 1218.547
987.8142, 1219.434
988.2963, 1219.519
988.7784, 1219.165
989.2606, 1218.117
989.7427, 1217.518
990.2248, 1217.406
990.7069, 1217.675
991.1890, 1218.452
991.6711, 1219.429
992.1533, 1220.528
992.6354, 1221.626
993.1175, 1221.932
993.5996, 1220.704
994.0817, 1220.032
994.5638, 1220.255
995.0460, 1220.672
995.5281, 1221.323
996.0102, 1221.822
996.4923, 1221.376
996.9744, 1220.223
997.4565, 1220.225
997.9387, 1222.791
998.4208, 1224.757
998.9029, 1224.891
999.3850, 1224.636
999.8671, 1225.124
1000.349, 1225.664
1000.831, 1224.800
1001.313, 1222.599
1001.796, 1221.383
1002.278, 1222.749
1002.760, 1224.340
1003.242, 1225.360
1003.724, 1225.600
1004.206, 1223.768
1004.688, 1221.377
1005.170, 1221.782
1005.653, 1225.470
1006.135, 1228.614
1006.617, 1228.282
1007.099, 1227.113
1007.581, 1228.118
1008.063, 1229.511
1008.545, 1228.304
1009.027, 1225.161
1009.509, 1222.631
1009.992, 1221.631
1010.474, 1221.380
1010.956, 1221.229
1011.438, 1221.404
1011.920, 1222.673
1012.402, 1224.417
1012.884, 1225.214
1013.366, 1224.972
1013.849, 1223.951
1014.331, 1222.304
1014.813, 1221.158
1015.295, 1222.120
1015.777, 1224.246
1016.259, 1225.260
1016.741, 1225.292
1017.223, 1224.784
1017.705, 1223.858
1018.188, 1222.933
1018.670, 1222.214
1019.152, 1221.757
1019.634, 1221.672
1020.116, 1221.908
1020.598, 1222.497
1021.080, 1223.385
1021.562, 1222.805
1022.044, 1220.348
1022.527, 1218.450
1023.009, 1218.534
1023.491, 1219.874
1023.973, 1221.534
1024.455, 1223.436
1024.937, 1224.122
1025.419, 1223.494
1025.901, 1222.228
1026.384, 1220.075
1026.866, 1219.120
1027.348, 1221.029
1027.830, 1224.132
1028.312, 1225.287
1028.794, 1224.421
1029.276, 1223.712
1029.758, 1223.143
1030.240, 1222.830
1030.723, 1222.921
1031.205, 1222.937
1031.687, 1222.339
1032.169, 1221.730
1032.651, 1222.499
1033.133, 1224.921
1033.615, 1226.308
1034.097, 1226.253
1034.579, 1225.971
1035.062, 1225.319
1035.544, 1225.028
1036.026, 1225.698
1036.508, 1226.983
1036.990, 1228.210
1037.472, 1229.395
1037.954, 1230.396
1038.436, 1231.583
1038.919, 1231.961
1039.401, 1230.892
1039.883, 1229.482
1040.365, 1228.014
1040.847, 1226.843
1041.329, 1226.725
1041.811, 1227.748
1042.293, 1229.407
1042.776, 1233.784
1043.258, 1235.891
1043.740, 1232.958
1044.222, 1229.348
1044.704, 1227.059
1045.186, 1226.361
1045.668, 1228.395
1046.150, 1233.998
1046.632, 1236.747
1047.115, 1233.079
1047.597, 1230.462
1048.079, 1230.719
1048.561, 1232.602
1049.043, 1236.844
1049.525, 1241.469
1050.007, 1242.541
1050.489, 1239.245
1050.971, 1236.927
1051.454, 1237.139
1051.936, 1237.744
1052.418, 1238.146
1052.900, 1238.684
1053.382, 1240.083
1053.864, 1241.624
1054.346, 1241.614
1054.828, 1239.753
1055.311, 1239.205
1055.793, 1242.390
1056.275, 1244.868
1056.757, 1244.440
1057.239, 1243.423
1057.721, 1243.461
1058.203, 1244.203
1058.685, 1244.864
1059.167, 1245.316
1059.650, 1245.769
1060.132, 1246.076
1060.614, 1246.690
1061.096, 1248.370
1061.578, 1249.846
1062.060, 1250.109
1062.542, 1249.507
1063.024, 1248.443
1063.506, 1247.080
1063.989, 1246.360
1064.471, 1247.006
1064.953, 1247.792
1065.435, 1248.115
1065.917, 1248.474
1066.399, 1249.613
1066.881, 1250.863
1067.363, 1250.869
1067.846, 1249.658
1068.328, 1249.165
1068.810, 1250.735
1069.292, 1252.061
1069.774, 1251.550
1070.256, 1250.993
1070.738, 1251.971
1071.220, 1253.645
1071.703, 1254.738
1072.185, 1255.142
1072.667, 1255.592
1073.149, 1256.538
1073.631, 1257.149
1074.113, 1256.439
1074.595, 1255.878
1075.077, 1257.156
1075.559, 1258.838
1076.042, 1258.509
1076.524, 1256.517
1077.006, 1255.729
1077.488, 1257.387
1077.970, 1259.466
1078.452, 1261.651
1078.934, 1263.266
1079.416, 1263.594
1079.898, 1263.290
1080.380, 1262.998
1080.863, 1262.845
1081.345, 1262.779
1081.827, 1262.678
1082.309, 1263.206
1082.791, 1265.411
1083.273, 1267.461
1083.755, 1267.902
1084.237, 1267.847
1084.720, 1268.391
1085.202, 1269.536
1085.684, 1271.027
1086.166, 1272.857
1086.648, 1274.323
1087.130, 1274.833
1087.612, 1275.262
1088.094, 1276.246
1088.577, 1277.209
1089.059, 1277.847
1089.541, 1277.953
1090.023, 1276.869
1090.505, 1274.455
1090.987, 1273.012
1091.469, 1273.335
1091.951, 1274.905
1092.433, 1279.303
1092.916, 1283.135
1093.398, 1283.115
1093.880, 1280.903
1094.362, 1279.371
1094.844, 1278.947
1095.326, 1278.700
1095.808, 1278.023
1096.290, 1277.966
1096.772, 1279.500
1097.255, 1281.083
1097.737, 1281.510
1098.219, 1281.525
1098.701, 1282.220
1099.183, 1283.593
1099.665, 1284.879
1100.147, 1285.970
1100.629, 1286.798
1101.112, 1287.007
1101.594, 1287.331
1102.076, 1288.187
1102.558, 1289.291
1103.040, 1290.508
1103.522, 1291.690
1104.004, 1292.428
1104.486, 1292.686
1104.969, 1292.428
1105.451, 1290.193
1105.933, 1289.335
1106.415, 1292.546
1106.897, 1296.187
1107.379, 1297.254
1107.861, 1296.476
1108.343, 1295.783
1108.825, 1295.265
1109.307, 1295.151
1109.790, 1295.316
1110.272, 1296.095
1110.754, 1298.482
1111.236, 1300.521
1111.718, 1300.745
1112.200, 1300.022
1112.682, 1299.680
1113.164, 1299.738
1113.647, 1300.195
1114.129, 1301.696
1114.611, 1302.519
1115.093, 1301.875
1115.575, 1301.488
1116.057, 1302.508
1116.539, 1303.752
1117.021, 1303.609
1117.504, 1302.373
1117.986, 1302.281
1118.468, 1304.227
1118.950, 1305.077
1119.432, 1303.850
1119.914, 1303.466
1120.396, 1305.108
1120.878, 1307.488
1121.360, 1309.789
1121.843, 1311.796
1122.325, 1312.870
1122.807, 1312.986
1123.289, 1312.101
1123.771, 1309.495
1124.253, 1308.536
1124.735, 1310.466
1125.217, 1312.535
1125.699, 1312.896
1126.182, 1312.612
1126.664, 1313.606
1127.146, 1315.767
1127.628, 1316.953
1128.110, 1317.032
1128.592, 1317.218
1129.074, 1317.656
1129.556, 1318.248
1130.039, 1318.980
1130.521, 1319.594
1131.003, 1319.722
1131.485, 1319.598
1131.967, 1320.049
1132.449, 1321.054
1132.931, 1322.383
1133.413, 1324.015
1133.896, 1325.552
1134.378, 1326.875
1134.860, 1327.708
1135.342, 1327.792
1135.824, 1327.495
1136.306, 1327.373
1136.788, 1327.453
1137.270, 1327.873
1137.752, 1328.593
1138.234, 1329.185
1138.717, 1329.731
1139.199, 1331.758
1139.681, 1336.067
1140.163, 1339.699
1140.645, 1338.618
1141.127, 1335.368
1141.609, 1334.534
1142.091, 1335.207
1142.574, 1335.504
1143.056, 1335.349
1143.538, 1335.275
1144.020, 1335.481
1144.502, 1336.002
1144.984, 1336.879
1145.466, 1338.051
1145.948, 1340.037
1146.431, 1341.807
1146.913, 1341.466
1147.395, 1340.181
1147.877, 1340.053
1148.359, 1341.370
1148.841, 1343.601
1149.323, 1346.782
1149.805, 1349.242
1150.287, 1349.715
1150.770, 1349.326
1151.252, 1348.515
1151.734, 1347.578
1152.216, 1346.244
1152.698, 1345.180
1153.180, 1346.325
1153.662, 1350.059
1154.144, 1352.109
1154.626, 1348.898
1155.109, 1346.859
1155.591, 1349.069
1156.073, 1352.048
1156.555, 1353.807
1157.037, 1354.948
1157.519, 1356.460
1158.001, 1358.301
1158.483, 1359.693
1158.966, 1360.356
1159.448, 1361.032
1159.930, 1361.324
1160.412, 1362.264
1160.894, 1365.276
1161.376, 1367.707
1161.858, 1367.008
1162.340, 1364.679
1162.822, 1364.070
1163.305, 1365.392
1163.787, 1366.083
1164.269, 1365.808
1164.751, 1365.826
1165.233, 1366.153
1165.715, 1367.311
1166.197, 1369.812
1166.679, 1372.596
1167.161, 1374.453
1167.644, 1375.502
1168.126, 1376.178
1168.608, 1376.469
1169.090, 1376.775
1169.572, 1377.115
1170.054, 1377.136
1170.536, 1376.720
1171.018, 1376.931
1171.500, 1378.544
1171.983, 1380.936
1172.465, 1383.398
1172.947, 1385.713
1173.429, 1387.160
1173.911, 1387.828
1174.393, 1387.609
1174.875, 1386.866
1175.357, 1387.537
1175.840, 1390.213
1176.322, 1392.580
1176.804, 1392.600
1177.286, 1391.689
1177.768, 1391.247
1178.250, 1391.258
1178.732, 1391.829
1179.214, 1392.773
1179.697, 1393.966
1180.179, 1395.187
1180.661, 1395.532
1181.143, 1394.402
1181.625, 1394.228
1182.107, 1397.891
1182.589, 1401.295
1183.071, 1401.121
1183.553, 1399.968
1184.036, 1400.193
1184.518, 1401.441
1185.000, 1402.779
1185.482, 1404.041
1185.964, 1405.046
1186.446, 1405.536
1186.928, 1406.139
1187.410, 1407.299
1187.892, 1408.193
1188.375, 1408.614
1188.857, 1408.491
1189.339, 1406.986
1189.821, 1405.115
1190.303, 1406.073
1190.785, 1410.572
1191.267, 1413.717
1191.749, 1415.245
1192.232, 1416.014
1192.714, 1415.790
1193.196, 1415.856
1193.678, 1416.834
1194.160, 1418.474
1194.642, 1420.632
1195.124, 1422.980
1195.606, 1424.016
1196.089, 1423.804
1196.571, 1424.299
1197.053, 1425.544
1197.535, 1426.839
1198.017, 1427.949
1198.499, 1427.768
1198.981, 1425.493
1199.463, 1423.307
1199.945, 1424.306
1200.427, 1427.280
1200.910, 1430.650
1201.392, 1433.756
1201.874, 1434.543
1202.356, 1433.784
1202.838, 1434.345
1203.320, 1436.846
1203.802, 1439.333
1204.284, 1440.552
1204.767, 1441.782
1205.249, 1444.950
1205.731, 1447.490
1206.213, 1446.486
1206.695, 1444.181
1207.177, 1442.727
1207.659, 1442.554
1208.141, 1444.247
1208.624, 1448.077
1209.106, 1450.928
1209.588, 1451.278
1210.070, 1451.739
1210.552, 1452.938
1211.034, 1454.280
1211.516, 1455.433
1211.998, 1456.605
1212.480, 1458.049
1212.963, 1459.672
1213.445, 1461.250
1213.927, 1463.066
1214.409, 1462.968
1214.891, 1459.990
1215.373, 1459.152
1215.855, 1461.848
1216.337, 1464.643
1216.819, 1465.813
1217.302, 1465.656
1217.784, 1464.145
1218.266, 1462.248
1218.748, 1463.438
1219.230, 1466.995
1219.712, 1469.425
1220.194, 1470.613
1220.676, 1470.856
1221.159, 1470.390
1221.641, 1469.768
1222.123, 1469.246
1222.605, 1469.797
1223.087, 1473.219
1223.569, 1477.375
1224.051, 1479.508
1224.533, 1481.094
1225.016, 1484.544
1225.498, 1488.752
1225.980, 1491.047
1226.462, 1491.263
1226.944, 1491.740
1227.426, 1493.539
1227.908, 1494.801
1228.390, 1494.078
1228.872, 1493.718
1229.354, 1494.749
1229.837, 1496.489
1230.319, 1498.882
1230.801, 1501.367
1231.283, 1502.914
1231.765, 1503.570
1232.247, 1504.550
1232.729, 1506.182
1233.211, 1506.975
1233.694, 1506.221
1234.176, 1507.265
1234.658, 1511.590
1235.140, 1515.832
1235.622, 1517.558
1236.104, 1517.817
1236.586, 1518.116
1237.068, 1518.635
1237.551, 1520.637
1238.033, 1523.571
1238.515, 1525.107
1238.997, 1525.107
1239.479, 1523.833
1239.961, 1521.686
1240.443, 1520.581
1240.925, 1521.821
1241.407, 1524.062
1241.890, 1526.345
1242.372, 1528.662
1242.854, 1531.151
1243.336, 1533.593
1243.818, 1535.711
1244.300, 1537.586
1244.782, 1539.401
1245.264, 1541.209
1245.746, 1543.039
1246.229, 1545.710
1246.711, 1546.899
1247.193, 1544.398
1247.675, 1542.825
1248.157, 1544.311
1248.639, 1546.526
1249.121, 1547.909
1249.603, 1548.880
1250.085, 1550.121
1250.568, 1551.652
1251.050, 1554.041
1251.532, 1557.401
1252.014, 1560.403
1252.496, 1562.968
1252.978, 1564.569
1253.460, 1565.054
1253.942, 1565.097
1254.425, 1565.066
1254.907, 1565.838
1255.389, 1569.373
1255.871, 1573.981
1256.353, 1576.291
1256.835, 1577.389
1257.317, 1579.363
1257.799, 1581.876
1258.281, 1583.431
1258.764, 1583.914
1259.246, 1584.722
1259.728, 1586.521
1260.210, 1588.441
1260.692, 1590.461
1261.174, 1592.006
1261.656, 1591.861
1262.138, 1592.099
1262.620, 1595.267
1263.103, 1599.285
1263.585, 1600.182
1264.067, 1598.539
1264.549, 1599.583
1265.031, 1604.781
1265.513, 1607.472
1265.995, 1607.066
1266.477, 1606.173
1266.960, 1605.029
1267.442, 1606.324
1267.924, 1611.889
1268.406, 1617.574
1268.888, 1618.334
1269.370, 1615.921
1269.852, 1613.236
1270.334, 1611.141
1270.817, 1612.714
1271.299, 1616.549
1271.781, 1618.248
1272.263, 1617.814
1272.745, 1618.896
1273.227, 1622.893
1273.709, 1626.001
1274.191, 1625.159
1274.673, 1624.006
1275.156, 1623.498
1275.638, 1624.269
1276.120, 1627.628
1276.602, 1631.776
1277.084, 1635.082
1277.566, 1637.374
1278.048, 1638.301
1278.530, 1637.656
1279.012, 1637.606
1279.495, 1637.967
1279.977, 1639.469
1280.459, 1642.531
1280.941, 1645.326
1281.423, 1647.170
1281.905, 1648.673
1282.387, 1650.338
1282.869, 1651.983
1283.352, 1653.216
1283.834, 1654.059
1284.316, 1654.429
1284.798, 1654.407
##END=



