##NAMES=Ludlockite
##RRUFFID=R100176
##IDEAL CHEMISTRY=Pb^2+^Fe^3+^_4_As^3+^_10_O_22_
##LOCALITY=Tsumeb, Namibia
##OWNER=RRUFF
##SOURCE=William W. Pinch
##DESCRIPTION=Red fibrous crystals that display significant flexibility
##STATUS=The identification of this mineral has been confirmed by single-crystal X-ray diffraction.
##URL=rruff.info/R100176
176.8520, 74.15395
177.3341, 74.96281
177.8163, 75.65932
178.2984, 75.61684
178.7805, 75.19519
179.2626, 74.93879
179.7447, 74.87534
180.2268, 74.79563
180.7090, 74.35355
181.1911, 73.69176
181.6732, 73.26186
182.1553, 73.34191
182.6374, 73.78394
183.1195, 74.29603
183.6017, 74.88034
184.0838, 75.51210
184.5659, 76.12744
185.0480, 76.75085
185.5301, 77.54656
186.0123, 78.87331
186.4944, 80.46040
186.9765, 81.31140
187.4586, 81.29482
187.9407, 80.94824
188.4228, 80.89355
188.9050, 81.12685
189.3871, 81.66460
189.8692, 82.81349
190.3513, 84.36958
190.8334, 85.25790
191.3155, 85.33104
191.7977, 84.97559
192.2798, 84.65639
192.7619, 84.37267
193.2440, 84.35340
193.7261, 84.86370
194.2082, 85.84435
194.6904, 86.56790
195.1725, 86.91518
195.6546, 87.15691
196.1367, 87.96060
196.6188, 89.40124
197.1009, 90.49141
197.5831, 90.34788
198.0652, 88.97757
198.5473, 88.58981
199.0294, 89.52557
199.5115, 91.17847
199.9937, 92.32640
200.4758, 92.89502
200.9579, 93.35242
201.4400, 93.92781
201.9221, 94.62730
202.4042, 95.39192
202.8864, 96.32602
203.3685, 97.21577
203.8506, 97.44925
204.3327, 96.87161
204.8148, 96.26009
205.2969, 95.90775
205.7791, 95.75413
206.2612, 96.37539
206.7433, 98.07539
207.2254, 100.3605
207.7075, 101.9637
208.1896, 102.7689
208.6718, 103.2468
209.1539, 104.0098
209.6360, 105.5140
210.1181, 104.6369
210.6002, 99.99680
211.0823, 93.54394
211.5645, 91.26331
212.0466, 94.73206
212.5287, 98.62662
213.0108, 99.84007
213.4929, 97.47749
213.9750, 95.99753
214.4572, 95.72060
214.9393, 96.44206
215.4214, 97.82826
215.9035, 100.5397
216.3856, 102.5799
216.8678, 102.4899
217.3499, 99.22480
217.8320, 97.29369
218.3141, 97.22457
218.7962, 98.52877
219.2783, 99.71537
219.7605, 100.6432
220.2426, 101.6851
220.7247, 102.8653
221.2068, 103.7498
221.6889, 106.1420
222.1710, 110.9197
222.6532, 117.0620
223.1353, 121.1659
223.6174, 122.6490
224.0995, 123.1484
224.5816, 123.5098
225.0637, 124.0044
225.5459, 123.6065
226.0280, 121.8519
226.5101, 119.2803
226.9922, 117.6242
227.4743, 117.2332
227.9564, 117.1788
228.4386, 116.9809
228.9207, 116.4115
229.4028, 116.2549
229.8849, 116.5625
230.3670, 117.2742
230.8492, 118.2394
231.3313, 119.4223
231.8134, 120.8937
232.2955, 122.7447
232.7776, 125.1107
233.2597, 127.4876
233.7419, 129.9211
234.2240, 132.3605
234.7061, 134.5758
235.1882, 136.3866
235.6703, 138.2455
236.1524, 140.3296
236.6346, 142.5365
237.1167, 145.2231
237.5988, 148.5679
238.0809, 152.3278
238.5630, 156.0039
239.0451, 159.5120
239.5273, 163.0206
240.0094, 166.5433
240.4915, 169.9156
240.9736, 173.8334
241.4557, 178.8463
241.9378, 184.1815
242.4200, 188.1311
242.9021, 189.9632
243.3842, 191.6156
243.8663, 194.0080
244.3484, 197.9044
244.8306, 200.2254
245.3127, 200.6088
245.7948, 199.5990
246.2769, 198.1788
246.7590, 196.5505
247.2411, 194.2011
247.7233, 190.8335
248.2054, 186.1380
248.6875, 181.6050
249.1696, 177.5186
249.6517, 173.4546
250.1338, 168.7063
250.6160, 162.9566
251.0981, 157.0570
251.5802, 151.1606
252.0623, 145.0408
252.5444, 139.9518
253.0265, 136.2734
253.5087, 133.3497
253.9908, 130.3136
254.4729, 126.9579
254.9550, 123.8677
255.4371, 121.2034
255.9192, 119.0116
256.4014, 117.0531
256.8835, 115.3298
257.3656, 113.8383
257.8477, 112.5565
258.3298, 111.5720
258.8120, 110.5840
259.2941, 109.4454
259.7762, 108.1218
260.2583, 107.1799
260.7404, 106.7121
261.2225, 106.4963
261.7047, 106.3097
262.1868, 106.1830
262.6689, 105.9920
263.1510, 105.6748
263.6331, 105.2391
264.1152, 104.8937
264.5974, 104.6188
265.0795, 104.4687
265.5616, 104.5542
266.0437, 104.9940
266.5258, 105.2792
267.0079, 105.2849
267.4901, 105.0454
267.9722, 104.8937
268.4543, 104.9342
268.9364, 104.8567
269.4185, 104.2057
269.9006, 102.6655
270.3828, 102.0282
270.8649, 102.9638
271.3470, 104.9715
271.8291, 105.5740
272.3112, 104.4009
272.7933, 102.7977
273.2755, 101.6610
273.7576, 101.0016
274.2397, 100.7477
274.7218, 101.1099
275.2039, 101.7485
275.6860, 101.4346
276.1682, 99.87035
276.6503, 98.46301
277.1324, 98.38917
277.6145, 99.81250
278.0966, 100.2495
278.5787, 99.12884
279.0609, 97.37881
279.5430, 97.17687
280.0251, 98.74001
280.5072, 100.5433
280.9893, 101.8794
281.4715, 102.7407
281.9536, 103.1985
282.4357, 103.1716
282.9178, 102.9051
283.3999, 102.7433
283.8820, 102.6787
284.3642, 102.8204
284.8463, 103.4202
285.3284, 104.4008
285.8105, 104.7983
286.2926, 104.5212
286.7747, 103.9385
287.2569, 103.5154
287.7390, 103.2461
288.2211, 103.0157
288.7032, 102.9815
289.1853, 102.9796
289.6674, 102.1310
290.1496, 100.3340
290.6317, 98.34919
291.1138, 97.05055
291.5959, 96.35233
292.0780, 95.69680
292.5602, 94.91763
293.0423, 94.04574
293.5244, 93.17104
294.0065, 92.30109
294.4886, 91.35882
294.9707, 90.08066
295.4529, 88.61691
295.9350, 87.55344
296.4171, 87.13456
296.8992, 87.09394
297.3813, 87.05051
297.8634, 86.99852
298.3456, 86.86366
298.8277, 86.50332
299.3098, 86.02319
299.7919, 85.70386
300.2740, 85.72257
300.7561, 85.71351
301.2383, 84.98105
301.7204, 83.69954
302.2025, 82.71375
302.6846, 82.83361
303.1667, 83.49918
303.6488, 83.85093
304.1310, 83.69746
304.6131, 83.40164
305.0952, 83.31139
305.5773, 83.36578
306.0594, 83.40014
306.5415, 83.23685
307.0237, 83.05370
307.5058, 83.07356
307.9879, 83.34460
308.4700, 83.62587
308.9521, 83.77103
309.4343, 83.79685
309.9164, 83.73880
310.3985, 83.54066
310.8806, 83.31176
311.3627, 83.07108
311.8448, 82.81577
312.3270, 82.75597
312.8091, 83.13853
313.2912, 83.74815
313.7733, 84.33057
314.2554, 84.84238
314.7375, 85.26447
315.2197, 85.52729
315.7018, 85.65682
316.1839, 85.84583
316.6660, 86.22889
317.1481, 86.68571
317.6302, 87.13029
318.1124, 87.81876
318.5945, 88.15372
319.0766, 87.55134
319.5587, 86.34341
320.0408, 85.67022
320.5229, 86.19394
321.0051, 87.13583
321.4872, 88.09718
321.9693, 89.07247
322.4514, 89.93852
322.9335, 90.67741
323.4156, 91.28971
323.8978, 91.77621
324.3799, 91.80229
324.8620, 91.99380
325.3441, 92.66318
325.8262, 94.06873
326.3083, 95.18269
326.7905, 95.64783
327.2726, 95.87300
327.7547, 96.35471
328.2368, 97.61466
328.7189, 98.61013
329.2010, 99.07006
329.6832, 98.93686
330.1653, 98.87415
330.6474, 98.92723
331.1295, 99.01848
331.6116, 99.07678
332.0938, 98.99590
332.5759, 99.05772
333.0580, 99.36332
333.5401, 99.86922
334.0222, 100.2339
334.5043, 100.4442
334.9865, 100.5359
335.4686, 100.5415
335.9507, 100.4962
336.4328, 100.2405
336.9149, 99.65310
337.3970, 98.89937
337.8792, 98.45315
338.3613, 98.38046
338.8434, 98.40949
339.3255, 98.47518
339.8076, 98.61174
340.2898, 98.47057
340.7719, 97.93700
341.2540, 97.32380
341.7361, 97.09705
342.2182, 97.28781
342.7003, 97.61245
343.1825, 98.01897
343.6646, 98.48947
344.1467, 98.86419
344.6288, 99.13251
345.1109, 99.37334
345.5930, 99.56815
346.0752, 99.74732
346.5573, 100.2814
347.0394, 101.4273
347.5215, 102.8389
348.0036, 103.7192
348.4857, 104.0740
348.9679, 104.3561
349.4500, 104.9870
349.9321, 105.8194
350.4142, 106.3965
350.8963, 106.5963
351.3784, 106.6651
351.8606, 106.9627
352.3427, 107.4144
352.8248, 107.7490
353.3069, 107.6158
353.7890, 107.3478
354.2711, 107.4197
354.7533, 107.8880
355.2354, 108.5012
355.7175, 109.3298
356.1996, 110.1225
356.6817, 110.4404
357.1638, 109.4193
357.6460, 108.3473
358.1281, 108.3242
358.6102, 109.2865
359.0923, 110.3000
359.5744, 110.8891
360.0565, 111.2429
360.5387, 111.5367
361.0208, 111.7367
361.5029, 111.9902
361.9850, 112.2972
362.4671, 112.6955
362.9492, 113.3010
363.4314, 114.6370
363.9135, 115.8405
364.3956, 116.2914
364.8777, 115.3389
365.3598, 115.0069
365.8419, 116.4411
366.3241, 118.5926
366.8062, 119.8786
367.2883, 119.3567
367.7704, 118.6456
368.2526, 118.0447
368.7347, 117.5009
369.2168, 117.4655
369.6989, 118.6106
370.1810, 119.8488
370.6631, 120.2743
371.1453, 119.2500
371.6274, 118.3585
372.1095, 117.8345
372.5916, 117.6092
373.0737, 117.2381
373.5558, 116.6556
374.0380, 116.0199
374.5201, 115.4595
375.0022, 115.1144
375.4843, 114.3340
375.9664, 112.8569
376.4485, 111.1462
376.9307, 110.1773
377.4128, 110.1342
377.8949, 110.0893
378.3770, 109.6926
378.8591, 108.9582
379.3412, 108.0495
379.8234, 106.9221
380.3055, 105.8038
380.7876, 105.1094
381.2697, 104.7931
381.7518, 104.0963
382.2339, 102.6062
382.7161, 100.7790
383.1982, 99.79417
383.6803, 99.63169
384.1624, 99.45509
384.6445, 98.37093
385.1266, 96.81002
385.6088, 95.95251
386.0909, 96.14381
386.5730, 96.54154
387.0551, 96.01901
387.5372, 94.87888
388.0193, 93.97886
388.5015, 94.01382
388.9836, 94.39299
389.4657, 94.44884
389.9478, 94.13486
390.4299, 93.86053
390.9120, 94.16443
391.3942, 94.58935
391.8763, 94.56236
392.3584, 93.42406
392.8405, 92.22901
393.3226, 91.44261
393.8047, 91.03613
394.2869, 90.87812
394.7690, 90.96369
395.2511, 91.25044
395.7332, 91.75317
396.2154, 92.64907
396.6975, 93.39146
397.1796, 93.90771
397.6617, 94.19823
398.1438, 94.26502
398.6259, 93.65258
399.1081, 93.26168
399.5902, 93.47563
400.0723, 94.43620
400.5544, 95.00859
401.0365, 94.92862
401.5186, 94.65427
402.0008, 94.55448
402.4829, 94.68761
402.9650, 94.88145
403.4471, 95.12841
403.9292, 95.42217
404.4113, 95.71899
404.8935, 95.98859
405.3756, 96.33327
405.8577, 96.90382
406.3398, 97.78098
406.8219, 98.18726
407.3040, 97.98130
407.7862, 97.56285
408.2683, 97.52113
408.7504, 97.86723
409.2325, 98.24660
409.7146, 98.48499
410.1967, 98.67836
410.6789, 99.36237
411.1610, 100.5691
411.6431, 101.4754
412.1252, 100.8266
412.6073, 99.26877
413.0894, 98.81961
413.5716, 100.2492
414.0537, 102.0871
414.5358, 102.3330
415.0179, 101.4180
415.5000, 100.7607
415.9821, 101.2765
416.4643, 102.3655
416.9464, 103.5490
417.4285, 104.8028
417.9106, 105.8125
418.3927, 106.1405
418.8748, 106.1868
419.3570, 106.4204
419.8391, 107.0444
420.3212, 107.8445
420.8033, 108.9511
421.2854, 110.2389
421.7675, 111.1465
422.2497, 111.2705
422.7318, 111.1471
423.2139, 111.0499
423.6960, 111.0431
424.1781, 110.9971
424.6602, 110.9123
425.1424, 110.7787
425.6245, 110.5810
426.1066, 110.3198
426.5887, 109.9959
427.0709, 109.5580
427.5530, 109.0057
428.0351, 108.6531
428.5172, 108.6110
428.9993, 108.6091
429.4814, 108.3912
429.9636, 107.8128
430.4457, 107.6299
430.9278, 108.0741
431.4099, 108.7773
431.8920, 108.9277
432.3741, 108.4839
432.8563, 107.8092
433.3384, 106.8743
433.8205, 105.7780
434.3026, 105.2556
434.7847, 105.3339
435.2668, 105.7324
435.7490, 106.3639
436.2311, 107.1198
436.7132, 107.5844
437.1953, 107.6075
437.6774, 107.3494
438.1595, 106.9410
438.6417, 106.4140
439.1238, 105.8996
439.6059, 105.3987
440.0880, 104.9911
440.5701, 104.7798
441.0522, 104.7909
441.5344, 104.8933
442.0165, 105.0863
442.4986, 105.2963
442.9807, 105.4318
443.4628, 105.3552
443.9449, 105.3031
444.4271, 105.3484
444.9092, 105.4904
445.3913, 105.7196
445.8734, 105.8524
446.3555, 106.2042
446.8376, 107.0368
447.3198, 109.0680
447.8019, 110.1620
448.2840, 109.5892
448.7661, 108.3466
449.2482, 107.8218
449.7303, 108.3860
450.2125, 109.0632
450.6946, 109.7514
451.1767, 110.4286
451.6588, 110.6080
452.1409, 109.9827
452.6230, 109.5753
453.1052, 110.3132
453.5873, 112.3233
454.0694, 113.8153
454.5515, 114.5347
455.0337, 114.9215
455.5158, 115.7001
455.9979, 116.8499
456.4800, 117.9670
456.9621, 118.7463
457.4442, 119.4221
457.9264, 120.7210
458.4085, 122.6102
458.8906, 124.3583
459.3727, 125.0414
459.8548, 125.2596
460.3369, 126.0104
460.8191, 127.6981
461.3012, 129.5335
461.7833, 130.7920
462.2654, 131.7356
462.7475, 132.9028
463.2296, 134.6427
463.7118, 136.5923
464.1939, 138.6746
464.6760, 140.9049
465.1581, 142.8367
465.6402, 144.0478
466.1223, 145.0631
466.6045, 146.2341
467.0866, 147.7630
467.5687, 149.2464
468.0508, 150.6335
468.5329, 151.9688
469.0150, 153.3728
469.4972, 154.8447
469.9793, 156.3667
470.4614, 157.9986
470.9435, 159.7657
471.4256, 161.1108
471.9077, 161.9242
472.3899, 162.5400
472.8720, 163.2099
473.3541, 163.9404
473.8362, 164.8494
474.3183, 166.1078
474.8004, 167.3231
475.2826, 167.4083
475.7647, 166.4652
476.2468, 165.9490
476.7289, 167.0265
477.2110, 168.9741
477.6931, 170.1401
478.1753, 170.5171
478.6574, 170.6847
479.1395, 171.1559
479.6216, 171.7127
480.1037, 171.9999
480.5858, 171.7760
481.0680, 171.5497
481.5501, 171.8752
482.0322, 172.4515
482.5143, 172.6450
482.9964, 171.8749
483.4786, 170.9571
483.9607, 170.3438
484.4428, 170.1071
484.9249, 169.5960
485.4070, 168.2884
485.8892, 166.9192
486.3713, 166.0324
486.8534, 166.4180
487.3355, 166.1231
487.8176, 164.7585
488.2997, 162.8034
488.7819, 161.2493
489.2640, 160.2179
489.7461, 159.3071
490.2282, 158.4456
490.7103, 157.6119
491.1924, 156.5807
491.6746, 155.3279
492.1567, 153.9461
492.6388, 152.3992
493.1209, 150.7214
493.6030, 149.4295
494.0851, 148.6259
494.5673, 148.0713
495.0494, 147.5855
495.5315, 147.0972
496.0136, 146.3698
496.4957, 145.0238
496.9778, 143.5381
497.4600, 142.4157
497.9421, 141.6414
498.4242, 140.9764
498.9063, 140.5369
499.3884, 139.9922
499.8705, 138.9613
500.3527, 137.0975
500.8348, 135.4486
501.3169, 134.6275
501.7990, 134.2061
502.2811, 133.5754
502.7632, 132.5462
503.2454, 131.3978
503.7275, 130.0012
504.2096, 128.4247
504.6917, 127.3763
505.1738, 127.1345
505.6559, 127.0589
506.1381, 126.8410
506.6202, 126.4628
507.1023, 126.0143
507.5844, 125.4845
508.0665, 124.9088
508.5486, 124.3105
509.0308, 123.6845
509.5129, 123.1540
509.9950, 122.7402
510.4771, 122.4423
510.9592, 122.3417
511.4413, 122.4076
511.9235, 122.3627
512.4056, 121.9036
512.8877, 121.2689
513.3698, 120.7640
513.8519, 120.4052
514.3340, 120.2661
514.8162, 120.7365
515.2983, 121.3350
515.7804, 121.4617
516.2625, 120.4690
516.7446, 119.5753
517.2267, 119.2562
517.7089, 119.4021
518.1910, 119.7503
518.6731, 120.4734
519.1552, 121.1808
519.6373, 121.6539
520.1194, 121.8420
520.6016, 122.3894
521.0837, 123.7088
521.5658, 124.9189
522.0479, 125.2923
522.5300, 124.5227
523.0121, 124.0059
523.4943, 123.8337
523.9764, 123.9530
524.4585, 124.3127
524.9406, 124.9093
525.4227, 125.6367
525.9048, 126.6428
526.3870, 127.6598
526.8691, 127.8869
527.3513, 127.3734
527.8334, 126.8540
528.3155, 126.8463
528.7976, 127.1649
529.2797, 127.5582
529.7618, 128.0029
530.2440, 128.4818
530.7261, 129.0619
531.2082, 129.6411
531.6903, 130.0783
532.1724, 130.2628
532.6545, 130.3721
533.1367, 130.2807
533.6188, 130.1250
534.1009, 130.3850
534.5830, 131.8509
535.0651, 133.0440
535.5472, 133.3669
536.0294, 132.6577
536.5115, 132.2556
536.9936, 132.1812
537.4757, 132.3862
537.9578, 132.9586
538.4399, 134.0291
538.9221, 134.5941
539.4042, 134.3951
539.8863, 133.9319
540.3684, 134.1013
540.8505, 134.8642
541.3326, 135.7861
541.8148, 137.0229
542.2969, 138.1074
542.7790, 137.8298
543.2611, 136.3829
543.7432, 135.2947
544.2253, 136.0267
544.7075, 137.4162
545.1896, 138.2778
545.6717, 138.4008
546.1538, 138.2775
546.6359, 138.1306
547.1180, 137.8716
547.6002, 137.4077
548.0823, 136.3782
548.5644, 135.5315
549.0465, 135.3280
549.5286, 135.4144
550.0107, 134.7276
550.4929, 132.6676
550.9750, 130.7375
551.4571, 129.4762
551.9392, 128.8831
552.4213, 128.0565
552.9034, 126.9405
553.3856, 125.7519
553.8677, 124.6425
554.3498, 123.6108
554.8319, 122.7034
555.3140, 121.9913
555.7961, 121.1533
556.2783, 119.6140
556.7604, 117.6017
557.2425, 115.7684
557.7246, 114.3063
558.2067, 113.1750
558.6888, 112.6051
559.1710, 112.4021
559.6531, 111.9063
560.1352, 110.3675
560.6173, 108.7849
561.0994, 107.8284
561.5815, 107.6255
562.0637, 107.3442
562.5458, 106.7334
563.0279, 106.0449
563.5100, 105.4530
563.9921, 104.9656
564.4742, 104.5621
564.9564, 104.2649
565.4385, 104.0312
565.9206, 103.8009
566.4027, 103.5810
566.8848, 103.3378
567.3669, 103.0871
567.8491, 102.7937
568.3312, 102.2413
568.8133, 101.4483
569.2954, 100.8593
569.7775, 100.8142
570.2596, 101.1585
570.7418, 101.7967
571.2239, 102.7481
571.7060, 103.3375
572.1881, 102.5961
572.6702, 101.4198
573.1523, 100.8369
573.6345, 101.4738
574.1166, 102.0692
574.5987, 102.0003
575.0808, 101.6160
575.5629, 101.4953
576.0450, 102.2843
576.5272, 102.7100
577.0093, 102.3223
577.4914, 101.2950
577.9735, 100.7898
578.4556, 100.9832
578.9377, 101.3489
579.4199, 101.7776
579.9020, 102.2757
580.3841, 102.0582
580.8662, 101.0270
581.3483, 99.82478
581.8304, 98.90672
582.3126, 98.33337
582.7947, 98.45717
583.2768, 99.55997
583.7589, 100.7094
584.2410, 100.7575
584.7231, 100.1342
585.2053, 99.69009
585.6874, 99.96262
586.1696, 100.3416
586.6517, 100.5579
587.1338, 100.6151
587.6159, 100.5528
588.0980, 99.96632
588.5801, 99.62836
589.0623, 100.0985
589.5444, 101.6258
590.0265, 102.2066
590.5086, 101.2548
590.9907, 100.1072
591.4728, 99.98220
591.9550, 101.1683
592.4371, 101.3729
592.9192, 100.1343
593.4013, 98.58043
593.8834, 98.54163
594.3655, 99.78336
594.8477, 100.8118
595.3298, 101.0386
595.8119, 100.9444
596.2940, 101.1923
596.7761, 101.6721
597.2582, 102.0207
597.7404, 101.8024
598.2225, 101.5693
598.7046, 101.8745
599.1867, 102.7307
599.6688, 103.1659
600.1509, 102.3811
600.6331, 101.4535
601.1152, 101.1109
601.5973, 101.8103
602.0794, 102.0177
602.5615, 101.3616
603.0436, 100.5679
603.5258, 100.5420
604.0079, 101.4554
604.4900, 102.2046
604.9721, 102.5798
605.4542, 102.7469
605.9363, 103.0890
606.4185, 103.5668
606.9006, 103.8382
607.3827, 103.5323
607.8648, 103.0611
608.3469, 103.1138
608.8290, 103.5989
609.3112, 103.9971
609.7933, 103.6713
610.2754, 103.3724
610.7575, 103.8932
611.2396, 105.4819
611.7217, 106.4640
612.2039, 105.6273
612.6860, 104.4653
613.1681, 104.1418
613.6502, 105.4341
614.1323, 106.2573
614.6144, 106.4852
615.0966, 106.3225
615.5787, 105.9848
616.0608, 105.4200
616.5429, 105.0110
617.0250, 104.8001
617.5071, 104.8520
617.9893, 105.5340
618.4714, 106.7495
618.9535, 107.7100
619.4356, 107.7167
619.9177, 107.4125
620.3998, 107.8177
620.8820, 108.8293
621.3641, 109.4349
621.8462, 108.2429
622.3283, 107.0018
622.8104, 107.1388
623.2925, 109.2150
623.7747, 111.0834
624.2568, 112.5508
624.7389, 113.5232
625.2210, 113.8562
625.7031, 113.0527
626.1852, 112.6910
626.6674, 112.8762
627.1495, 113.5123
627.6316, 114.7507
628.1137, 116.6494
628.5958, 117.6254
629.0779, 116.8140
629.5601, 115.2896
630.0422, 115.2791
630.5243, 116.5189
631.0064, 117.7578
631.4885, 118.1902
631.9706, 118.3768
632.4528, 118.9709
632.9349, 119.9227
633.4170, 120.5198
633.8991, 119.8641
634.3812, 119.2009
634.8633, 119.3961
635.3455, 120.9795
635.8276, 121.9792
636.3097, 122.0736
636.7918, 121.8215
637.2739, 121.6541
637.7560, 121.5671
638.2382, 121.6339
638.7203, 121.9663
639.2024, 122.2442
639.6845, 121.7829
640.1666, 120.6993
640.6487, 119.9849
641.1309, 120.0046
641.6130, 120.4306
642.0951, 121.0562
642.5772, 121.7429
643.0594, 122.0746
643.5415, 121.5294
644.0236, 120.8517
644.5057, 120.5409
644.9879, 120.5568
645.4700, 120.3942
645.9521, 119.4910
646.4342, 118.8022
646.9163, 118.8580
647.3984, 119.8523
647.8806, 120.2320
648.3627, 119.7086
648.8448, 119.1258
649.3269, 119.1944
649.8090, 119.9181
650.2911, 120.7308
650.7733, 121.6573
651.2554, 122.4207
651.7375, 122.4017
652.2196, 121.9793
652.7017, 122.1375
653.1838, 123.3978
653.6660, 124.8217
654.1481, 125.7390
654.6302, 126.3022
655.1123, 126.7931
655.5944, 126.9305
656.0765, 127.3934
656.5587, 128.5970
657.0408, 130.3543
657.5229, 131.8111
658.0050, 132.8128
658.4871, 133.7245
658.9692, 134.6544
659.4514, 135.5992
659.9335, 136.5431
660.4156, 137.4869
660.8977, 138.3944
661.3798, 139.1407
661.8619, 139.8284
662.3441, 140.8974
662.8262, 142.3895
663.3083, 143.6263
663.7904, 143.8090
664.2725, 143.5719
664.7546, 143.6337
665.2368, 144.2668
665.7189, 144.8640
666.2010, 145.2031
666.6831, 145.4167
667.1652, 145.6560
667.6473, 145.9902
668.1295, 146.2527
668.6116, 146.4090
669.0937, 146.5095
669.5758, 146.7141
670.0579, 147.0642
670.5400, 147.1198
671.0222, 146.6883
671.5043, 145.9478
671.9864, 145.1851
672.4685, 144.4143
672.9506, 143.7101
673.4327, 143.1988
673.9149, 142.7160
674.3970, 142.1589
674.8791, 141.5069
675.3612, 140.6800
675.8433, 139.4374
676.3254, 138.1763
676.8076, 137.1333
677.2897, 136.3692
677.7718, 135.5537
678.2539, 134.7941
678.7360, 133.8538
679.2181, 132.4443
679.7003, 130.4908
680.1824, 129.0167
680.6645, 128.0948
681.1466, 127.5081
681.6287, 127.2316
682.1108, 127.0984
682.5930, 126.5796
683.0751, 125.4385
683.5572, 124.3339
684.0393, 123.9355
684.5214, 123.8818
685.0035, 123.6531
685.4857, 123.0498
685.9678, 122.2898
686.4499, 121.2613
686.9320, 120.1381
687.4141, 119.2992
687.8962, 118.9292
688.3784, 118.5008
688.8605, 117.8595
689.3426, 117.0965
689.8247, 116.4978
690.3068, 116.0591
690.7889, 115.8084
691.2711, 115.8700
691.7532, 116.0771
692.2353, 116.1703
692.7174, 116.1313
693.1995, 115.8499
693.6816, 114.8492
694.1638, 113.8835
694.6459, 113.7139
695.1280, 114.4380
695.6101, 114.7578
696.0922, 113.7310
696.5743, 112.7435
697.0565, 112.6102
697.5386, 113.6311
698.0207, 114.2292
698.5028, 114.2973
698.9849, 114.1736
699.4670, 114.1965
699.9492, 114.3379
700.4313, 114.2262
700.9135, 113.7586
701.3956, 113.3734
701.8777, 113.6608
702.3598, 114.3295
702.8419, 114.9076
703.3240, 115.3272
703.8062, 115.4993
704.2883, 115.1520
704.7704, 114.5885
705.2525, 114.2592
705.7346, 114.3180
706.2167, 114.5346
706.6989, 115.0432
707.1810, 115.6292
707.6631, 115.7593
708.1452, 115.3538
708.6273, 114.9366
709.1094, 114.5521
709.5916, 114.3680
710.0737, 115.0188
710.5558, 116.3224
711.0379, 117.3612
711.5200, 117.5709
712.0021, 117.3460
712.4843, 116.8405
712.9664, 116.1480
713.4485, 115.7182
713.9306, 115.7958
714.4127, 116.1057
714.8948, 116.5865
715.3770, 117.2370
715.8591, 117.8476
716.3412, 118.4500
716.8233, 118.9490
717.3054, 119.2897
717.7875, 119.4761
718.2697, 119.5041
718.7518, 119.3680
719.2339, 119.1677
719.7160, 118.8972
720.1981, 118.6536
720.6802, 118.6261
721.1624, 118.8557
721.6445, 119.0951
722.1266, 118.8797
722.6087, 118.7966
723.0908, 119.4377
723.5729, 121.5715
724.0551, 123.0069
724.5372, 123.4183
725.0193, 123.3157
725.5014, 123.0824
725.9835, 122.6248
726.4656, 122.6562
726.9478, 123.3347
727.4299, 124.2980
727.9120, 125.0478
728.3941, 125.6528
728.8762, 126.3120
729.3583, 127.1321
729.8405, 127.9114
730.3226, 128.3894
730.8047, 128.7358
731.2868, 129.2150
731.7689, 130.0454
732.2510, 130.8608
732.7332, 131.4813
733.2153, 132.0513
733.6974, 132.9532
734.1795, 134.4489
734.6616, 135.5062
735.1437, 135.7071
735.6259, 135.4436
736.1080, 135.7990
736.5901, 136.6984
737.0722, 137.4754
737.5543, 137.5978
738.0364, 137.5928
738.5186, 138.0545
739.0007, 138.9131
739.4828, 139.9343
739.9649, 141.2703
740.4470, 142.5030
740.9291, 143.4838
741.4113, 144.1897
741.8934, 144.5976
742.3755, 144.4492
742.8576, 144.4777
743.3397, 145.0451
743.8218, 146.0761
744.3040, 146.9473
744.7861, 147.6493
745.2682, 148.3195
745.7503, 149.0675
746.2324, 149.8400
746.7145, 150.6148
747.1967, 151.3760
747.6788, 151.8466
748.1609, 151.5528
748.6430, 151.1602
749.1251, 151.1154
749.6072, 151.5319
750.0894, 151.9489
750.5715, 152.3893
751.0536, 152.7732
751.5357, 153.0889
752.0178, 153.3589
752.4999, 153.2146
752.9821, 152.5849
753.4642, 152.0062
753.9463, 152.0647
754.4284, 152.5250
754.9105, 152.9689
755.3926, 153.3617
755.8748, 153.5705
756.3569, 153.7930
756.8390, 153.6266
757.3211, 152.5570
757.8032, 149.6124
758.2853, 147.8437
758.7675, 148.0793
759.2496, 148.8486
759.7318, 148.8353
760.2139, 147.9468
760.6960, 146.8697
761.1781, 145.5341
761.6602, 144.4897
762.1423, 144.8481
762.6245, 145.9856
763.1066, 146.3496
763.5887, 145.4849
764.0708, 144.2085
764.5529, 142.4542
765.0350, 140.8799
765.5172, 140.2662
765.9993, 142.2054
766.4814, 143.1566
766.9635, 142.3763
767.4456, 140.9550
767.9277, 140.3664
768.4099, 140.7552
768.8920, 140.9620
769.3741, 140.7708
769.8562, 140.4137
770.3383, 140.1831
770.8204, 140.0633
771.3026, 140.0034
771.7847, 139.9465
772.2668, 140.0267
772.7489, 140.5550
773.2310, 141.2273
773.7131, 141.5595
774.1953, 140.9272
774.6774, 140.6603
775.1595, 141.1822
775.6416, 141.9753
776.1237, 141.9599
776.6058, 140.9862
777.0880, 140.3296
777.5701, 140.2549
778.0522, 140.7160
778.5343, 142.0973
779.0164, 143.9907
779.4985, 145.1799
779.9807, 144.3781
780.4628, 143.6781
780.9449, 144.6720
781.4270, 146.6532
781.9091, 148.1719
782.3912, 148.5026
782.8734, 148.8812
783.3555, 149.5167
783.8376, 150.2854
784.3197, 150.8661
784.8018, 151.2531
785.2839, 151.5766
785.7661, 151.8350
786.2482, 152.1138
786.7303, 152.6172
787.2124, 153.2624
787.6945, 153.8275
788.1766, 154.2121
788.6588, 154.4856
789.1409, 154.5405
789.6230, 154.5116
790.1051, 154.7977
790.5872, 155.6162
791.0693, 156.4798
791.5515, 157.3918
792.0336, 158.2323
792.5157, 158.5367
792.9978, 158.3028
793.4799, 158.1135
793.9620, 158.1716
794.4442, 158.4050
794.9263, 158.8286
795.4084, 159.3485
795.8905, 159.7096
796.3726, 159.8809
796.8547, 159.7800
797.3369, 159.0381
797.8190, 157.9663
798.3011, 157.6529
798.7832, 158.6554
799.2653, 159.3176
799.7474, 159.2055
800.2296, 158.5145
800.7117, 157.6902
801.1938, 156.7498
801.6759, 155.8809
802.1580, 155.1305
802.6401, 154.5266
803.1223, 154.3136
803.6044, 154.2890
804.0865, 153.9290
804.5686, 152.5495
805.0507, 151.3496
805.5328, 151.0669
806.0150, 151.2194
806.4971, 150.3875
806.9792, 148.0958
807.4613, 146.3978
807.9434, 146.0528
808.4255, 146.4279
808.9077, 146.1785
809.3898, 145.3620
809.8719, 144.2240
810.3540, 142.4606
810.8361, 140.8514
811.3182, 140.1137
811.8004, 139.9990
812.2825, 139.9008
812.7646, 139.9124
813.2467, 139.6011
813.7288, 138.7232
814.2109, 137.5430
814.6931, 136.7845
815.1752, 136.4941
815.6573, 136.1471
816.1394, 135.5461
816.6215, 134.8831
817.1037, 134.5473
817.5858, 134.4147
818.0679, 134.1492
818.5500, 133.6252
819.0322, 132.9085
819.5143, 131.6702
819.9964, 130.3184
820.4785, 129.7985
820.9606, 130.7934
821.4427, 131.3711
821.9249, 131.1135
822.4070, 130.4208
822.8891, 130.1067
823.3712, 130.1412
823.8533, 130.2379
824.3354, 130.4272
824.8176, 130.4108
825.2997, 129.6116
825.7818, 128.4218
826.2639, 127.5296
826.7460, 127.2520
827.2281, 127.1827
827.7103, 127.7248
828.1924, 128.1932
828.6745, 127.4493
829.1566, 124.9737
829.6387, 123.4436
830.1208, 123.3942
830.6030, 124.0938
831.0851, 124.6459
831.5672, 125.0349
832.0493, 125.1580
832.5314, 124.8321
833.0135, 124.6440
833.4957, 125.3529
833.9778, 126.2723
834.4599, 126.6046
834.9420, 125.2539
835.4241, 124.7265
835.9063, 125.5245
836.3884, 126.5539
836.8705, 126.4517
837.3526, 125.2493
837.8347, 123.9708
838.3168, 122.6685
838.7990, 121.6305
839.2811, 121.2953
839.7632, 121.3332
840.2453, 121.2910
840.7274, 121.0448
841.2095, 120.8243
841.6917, 120.6114
842.1738, 120.5271
842.6559, 120.7253
843.1380, 121.4343
843.6201, 121.4984
844.1022, 120.7356
844.5844, 119.9546
845.0665, 120.1085
845.5486, 120.8258
846.0307, 121.0073
846.5128, 120.5451
846.9949, 120.1048
847.4771, 120.1953
847.9592, 120.4417
848.4413, 120.5913
848.9234, 120.6246
849.4055, 120.4467
849.8876, 119.8510
850.3698, 119.3814
850.8519, 119.4112
851.3340, 119.8956
851.8161, 120.3494
852.2982, 120.7701
852.7803, 120.9768
853.2625, 120.6457
853.7446, 120.1561
854.2267, 119.9287
854.7088, 119.9593
855.1909, 119.9500
855.6730, 119.5016
856.1552, 119.3397
856.6373, 119.9519
857.1194, 121.1655
857.6015, 121.5337
858.0836, 120.9868
858.5657, 120.1218
859.0479, 118.8776
859.5300, 117.7292
860.0121, 117.8787
860.4942, 118.9909
860.9763, 119.8947
861.4584, 119.9748
861.9406, 119.7256
862.4227, 119.2002
862.9048, 118.5070
863.3869, 117.9836
863.8690, 117.5646
864.3511, 117.4845
864.8333, 117.8603
865.3154, 118.5235
865.7975, 119.3516
866.2796, 120.2161
866.7617, 120.5287
867.2438, 119.7514
867.7260, 118.9271
868.2081, 118.9385
868.6902, 119.3918
869.1723, 119.6677
869.6544, 119.1940
870.1365, 119.2205
870.6187, 120.0832
871.1008, 121.1611
871.5829, 121.6504
872.0650, 121.5623
872.5471, 120.9080
873.0292, 119.5169
873.5114, 118.4728
873.9935, 119.4518
874.4756, 121.1886
874.9577, 122.0102
875.4399, 121.3017
875.9220, 120.6277
876.4041, 120.3309
876.8862, 120.2379
877.3683, 120.2776
877.8505, 120.4734
878.3326, 120.7061
878.8147, 121.0151
879.2968, 121.0661
879.7789, 120.1139
880.2610, 118.9021
880.7432, 118.8827
881.2253, 120.0897
881.7074, 120.9647
882.1895, 120.2530
882.6716, 119.4855
883.1537, 119.6799
883.6359, 120.7637
884.1180, 121.0846
884.6001, 120.4506
885.0822, 119.8871
885.5643, 120.0521
886.0464, 120.5339
886.5286, 120.1322
887.0107, 119.0940
887.4928, 118.4335
887.9749, 119.1358
888.4570, 119.9107
888.9391, 120.0176
889.4213, 119.6684
889.9034, 119.5931
890.3855, 119.8756
890.8676, 120.3020
891.3497, 120.9290
891.8318, 121.5368
892.3140, 121.7162
892.7961, 121.5267
893.2782, 121.1448
893.7603, 120.4560
894.2424, 119.9925
894.7245, 120.4560
895.2067, 121.2450
895.6888, 121.6216
896.1709, 121.0679
896.6530, 120.7341
897.1351, 120.6691
897.6172, 120.7519
898.0994, 120.8780
898.5815, 121.0459
899.0636, 121.2672
899.5457, 121.5457
900.0278, 121.7809
900.5099, 121.9370
900.9921, 121.9819
901.4742, 121.8050
901.9563, 121.3364
902.4384, 121.1794
902.9205, 121.5970
903.4026, 122.0340
903.8848, 122.1911
904.3669, 122.1202
904.8490, 122.3593
905.3311, 122.8899
905.8132, 123.2648
906.2953, 123.0360
906.7775, 122.6578
907.2596, 122.6398
907.7417, 122.8704
908.2238, 122.9364
908.7059, 122.3722
909.1880, 122.0955
909.6702, 122.4618
910.1523, 123.1236
910.6344, 123.1294
911.1165, 122.4997
911.5986, 122.2764
912.0807, 122.9604
912.5629, 123.6170
913.0450, 122.7511
913.5271, 121.3021
914.0092, 120.7032
914.4913, 121.9703
914.9734, 123.0086
915.4556, 123.5286
915.9377, 123.6792
916.4198, 123.4904
916.9019, 122.9319
917.3840, 122.5723
917.8661, 122.4478
918.3483, 122.4468
918.8304, 122.5711
919.3125, 122.7007
919.7946, 122.6053
920.2767, 122.2606
920.7589, 122.1530
921.2410, 122.5106
921.7231, 123.0776
922.2052, 123.8761
922.6873, 124.8351
923.1694, 125.3075
923.6516, 125.2822
924.1337, 125.0083
924.6158, 124.3978
925.0979, 123.7891
925.5800, 123.7174
926.0621, 124.0079
926.5443, 124.2249
927.0264, 124.0163
927.5085, 123.9837
927.9906, 124.3344
928.4727, 124.8596
928.9548, 125.2365
929.4370, 125.4643
929.9191, 125.5407
930.4012, 125.4323
930.8833, 125.3157
931.3654, 125.4760
931.8475, 125.7136
932.3297, 125.6993
932.8118, 125.2311
933.2939, 125.0298
933.7761, 125.5122
934.2582, 126.0594
934.7403, 126.3376
935.2224, 126.3451
935.7045, 126.0882
936.1866, 125.5510
936.6688, 125.1271
937.1509, 125.0977
937.6330, 125.3281
938.1151, 125.8941
938.5972, 126.6577
939.0793, 126.9393
939.5615, 125.6752
940.0436, 125.0054
940.5257, 125.7578
941.0078, 127.2825
941.4899, 127.7608
941.9720, 127.2303
942.4542, 126.6088
942.9363, 126.0140
943.4184, 125.7656
943.9005, 126.6364
944.3826, 127.9002
944.8647, 128.5345
945.3469, 127.8220
945.8290, 127.3580
946.3111, 127.4061
946.7932, 127.5629
947.2753, 127.4426
947.7574, 127.0651
948.2396, 126.8839
948.7217, 126.9144
949.2038, 127.0793
949.6859, 127.5691
950.1680, 127.9809
950.6501, 127.8114
951.1323, 127.0869
951.6144, 126.6949
952.0965, 126.7678
952.5786, 127.1469
953.0607, 127.9200
953.5428, 128.8770
954.0250, 129.3720
954.5071, 129.4560
954.9892, 129.4238
955.4713, 129.3438
955.9534, 129.2579
956.4355, 129.1865
956.9177, 129.1327
957.3998, 129.1006
957.8819, 129.0771
958.3640, 129.0906
958.8461, 129.1186
959.3282, 129.2345
959.8104, 129.7104
960.2925, 130.3399
960.7746, 130.1688
961.2567, 129.1286
961.7388, 128.4473
962.2209, 129.5243
962.7031, 130.7140
963.1852, 130.7733
963.6673, 129.7218
964.1494, 128.9085
964.6315, 128.2527
965.1136, 128.2004
965.5958, 129.2541
966.0779, 130.6439
966.5600, 130.5669
967.0421, 129.5038
967.5242, 128.7647
968.0063, 129.0064
968.4885, 129.4571
968.9706, 130.0994
969.4527, 130.6448
969.9348, 130.6810
970.4169, 130.0304
970.8990, 129.7603
971.3812, 129.9560
971.8633, 130.3936
972.3454, 131.0895
972.8275, 131.7661
973.3096, 131.9799
973.7917, 131.6918
974.2739, 131.2835
974.7560, 130.4491
975.2381, 130.0323
975.7202, 130.5228
976.2023, 131.6785
976.6844, 132.2687
977.1666, 132.3041
977.6487, 132.2458
978.1308, 132.2693
978.6129, 132.3030
979.0950, 132.3642
979.5771, 132.3593
980.0593, 132.1358
980.5414, 131.1668
981.0235, 130.7271
981.5056, 131.0441
981.9877, 131.6299
982.4698, 132.0405
982.9520, 132.2904
983.4341, 132.5178
983.9162, 132.7278
984.3983, 132.7124
984.8804, 131.9772
985.3625, 131.2451
985.8447, 131.0600
986.3268, 131.4436
986.8089, 131.9539
987.2910, 132.7265
987.7731, 133.2293
988.2552, 133.2466
988.7374, 132.9572
989.2195, 132.5926
989.7016, 132.2277
990.1837, 132.0776
990.6658, 132.3307
991.1479, 132.5779
991.6301, 132.5500
992.1122, 132.5032
992.5944, 132.7099
993.0765, 133.2368
993.5586, 133.6764
994.0407, 134.0463
994.5228, 134.1483
995.0049, 133.5882
995.4871, 132.8017
995.9692, 132.2466
996.4513, 131.9691
996.9334, 132.0850
997.4155, 133.0934
997.8976, 133.9174
998.3798, 134.2094
998.8619, 134.2215
999.3440, 134.6263
999.8261, 135.3724
1000.308, 136.0124
1000.790, 136.5227
1001.272, 136.5846
1001.755, 135.3106
1002.237, 133.7928
1002.719, 133.3241
1003.201, 134.5847
1003.683, 135.1583
1004.165, 134.8493
1004.647, 134.3608
1005.129, 134.1738
1005.612, 134.1587
1006.094, 133.7621
1006.576, 133.1289
1007.058, 132.9207
1007.540, 133.8475
1008.022, 134.8622
1008.504, 135.8451
1008.986, 136.5275
1009.468, 136.2377
1009.951, 134.7858
1010.433, 133.9736
1010.915, 134.1496
1011.397, 134.6318
1011.879, 134.5698
1012.361, 134.3987
1012.843, 134.7625
1013.325, 135.8461
1013.807, 136.6220
1014.290, 136.9012
1014.772, 136.8629
1015.254, 136.4397
1015.736, 135.7941
1016.218, 135.6633
1016.700, 135.9601
1017.182, 136.1814
1017.664, 136.0725
1018.147, 135.8569
1018.629, 135.6114
1019.111, 135.3772
1019.593, 135.1662
1020.075, 134.7854
1020.557, 135.1669
1021.039, 136.5811
1021.521, 137.8388
1022.003, 137.3046
1022.486, 136.0448
1022.968, 136.2118
1023.450, 137.7690
1023.932, 138.8685
1024.414, 138.2943
1024.896, 137.7143
1025.378, 137.7489
1025.860, 137.3899
1026.343, 137.1814
1026.825, 137.3344
1027.307, 137.0064
1027.789, 137.2927
1028.271, 137.6403
1028.753, 137.3672
1029.235, 136.9873
1029.717, 137.1246
1030.199, 138.0735
1030.682, 138.8159
1031.164, 139.3940
1031.646, 139.6615
1032.128, 139.4085
1032.610, 138.8247
1033.092, 138.2955
1033.574, 137.8537
1034.056, 137.6371
1034.539, 137.9001
1035.021, 138.1611
1035.503, 138.1316
1035.985, 138.1082
1036.467, 138.5873
1036.949, 139.5836
1037.431, 140.3976
1037.913, 140.9747
1038.396, 141.0804
1038.878, 139.8488
1039.360, 138.5200
1039.842, 138.4269
1040.324, 139.6781
1040.806, 140.5385
1041.288, 140.8314
1041.770, 140.9405
1042.252, 140.9905
1042.734, 140.9360
1043.217, 140.4995
1043.699, 139.8919
1044.181, 139.7104
1044.663, 140.3763
1045.145, 140.9102
1045.627, 140.8111
1046.109, 140.5291
1046.591, 140.4099
1047.074, 140.4660
1047.556, 140.3174
1048.038, 139.9626
1048.520, 139.6382
1049.002, 139.6220
1049.484, 139.6025
1049.966, 139.0230
1050.448, 138.2267
1050.931, 138.2588
1051.413, 139.7802
1051.895, 140.8124
1052.377, 141.0706
1052.859, 140.9603
1053.341, 140.9966
1053.823, 141.0432
1054.305, 140.6351
1054.787, 139.7172
1055.270, 139.2190
1055.752, 140.0403
1056.234, 140.8459
1056.716, 140.9890
1057.198, 140.6867
1057.680, 140.8260
1058.162, 141.3743
1058.644, 141.8252
1059.126, 141.9915
1059.609, 142.0697
1060.091, 142.3404
1060.573, 142.5565
1061.055, 142.3443
1061.537, 141.4345
1062.019, 141.1466
1062.501, 141.6534
1062.983, 142.1529
1063.466, 141.9442
1063.948, 141.4676
1064.430, 141.6299
1064.912, 142.2338
1065.394, 142.6865
1065.876, 142.4008
1066.358, 142.4870
1066.840, 143.5441
1067.323, 144.5567
1067.805, 143.8528
1068.287, 141.7959
1068.769, 141.2114
1069.251, 142.3141
1069.733, 143.5312
1070.215, 143.7015
1070.697, 143.6651
1071.179, 144.0733
1071.661, 144.7611
1072.144, 144.8624
1072.626, 144.2507
1073.108, 143.9787
1073.590, 144.4632
1074.072, 144.9458
1074.554, 144.0400
1075.036, 142.7610
1075.518, 142.6157
1076.001, 144.2630
1076.483, 145.1541
1076.965, 144.8274
1077.447, 144.3212
1077.929, 144.2098
1078.411, 144.2795
1078.893, 143.7422
1079.375, 142.8286
1079.858, 142.2951
1080.340, 142.6171
1080.822, 143.1197
1081.304, 143.6866
1081.786, 144.2449
1082.268, 144.7385
1082.750, 145.1631
1083.232, 145.5145
1083.714, 145.7923
1084.197, 145.7933
1084.679, 144.8354
1085.161, 144.0430
1085.643, 144.5818
1086.125, 145.9962
1086.607, 146.7257
1087.089, 146.5935
1087.571, 146.2431
1088.054, 145.7085
1088.536, 145.2117
1089.018, 145.0871
1089.500, 145.1289
1089.982, 144.9477
1090.464, 144.4938
1090.946, 144.4582
1091.428, 145.3725
1091.911, 146.0336
1092.393, 145.9248
1092.875, 145.4812
1093.357, 145.8160
1093.839, 146.7034
1094.321, 147.5241
1094.803, 148.2628
1095.285, 148.4048
1095.767, 146.8761
1096.250, 145.4233
1096.732, 145.3725
1097.214, 146.6220
1097.696, 147.0257
1098.178, 146.6189
1098.660, 146.1113
1099.142, 145.7039
1099.624, 145.5286
1100.106, 145.7760
1100.589, 146.2930
1101.071, 146.8548
1101.553, 147.5202
1102.035, 148.0119
1102.517, 148.3318
1102.999, 148.4510
1103.481, 148.1257
1103.963, 147.7260
1104.446, 147.8961
1104.928, 148.4679
1105.410, 148.6728
1105.892, 147.8433
1106.374, 147.5404
1106.856, 148.1805
1107.338, 148.9997
1107.820, 148.8640
1108.302, 148.1222
1108.785, 147.5131
1109.267, 147.1296
1109.749, 147.1338
1110.231, 147.8296
1110.713, 148.6946
1111.195, 149.6899
1111.677, 150.6238
1112.159, 150.9070
1112.641, 150.6197
1113.124, 150.1836
1113.606, 149.6117
1114.088, 149.3072
1114.570, 149.1697
1115.052, 149.7539
1115.534, 152.1418
1116.016, 156.1179
1116.498, 156.8995
1116.981, 154.3916
1117.463, 151.7092
1117.945, 150.0071
1118.427, 149.0474
1118.909, 148.7930
1119.391, 149.0440
1119.873, 149.5851
1120.355, 150.6007
1120.838, 151.2208
1121.320, 151.4195
1121.802, 151.3260
1122.284, 150.7317
1122.766, 150.0915
1123.248, 150.1695
1123.730, 150.7704
1124.212, 151.3557
1124.694, 151.9001
1125.177, 152.1877
1125.659, 152.0978
1126.141, 151.9648
1126.623, 152.2524
1127.105, 152.7500
1127.587, 152.7619
1128.069, 152.3503
1128.551, 152.2408
1129.033, 153.4694
1129.516, 154.0682
1129.998, 153.1321
1130.480, 151.6937
1130.962, 151.5973
1131.444, 152.5924
1131.926, 153.4387
1132.408, 153.9670
1132.890, 154.2427
1133.373, 154.0815
1133.855, 153.9086
1134.337, 154.0440
1134.819, 154.3501
1135.301, 154.2387
1135.783, 153.7353
1136.265, 153.5249
1136.747, 153.8363
1137.229, 154.2762
1137.712, 154.7504
1138.194, 155.0248
1138.676, 154.6449
1139.158, 153.6223
1139.640, 153.7280
1140.122, 155.1348
1140.604, 155.9062
1141.086, 154.8203
1141.569, 153.5606
1142.051, 154.2848
1142.533, 155.8812
1143.015, 156.8424
1143.497, 156.7517
1143.979, 156.5951
1144.461, 156.2772
1144.943, 156.2915
1145.426, 157.3229
1145.908, 158.5443
1146.390, 158.4453
1146.872, 157.5249
1147.354, 156.8265
1147.836, 156.5691
1148.318, 156.7784
1148.800, 157.6620
1149.282, 158.5143
1149.765, 158.7133
1150.247, 158.4562
1150.729, 157.9023
1151.211, 157.2425
1151.693, 157.1936
1152.175, 158.9317
1152.657, 160.0024
1153.139, 159.7599
1153.621, 159.1400
1154.104, 159.3963
1154.586, 160.1870
1155.068, 160.1761
1155.550, 159.3792
1156.032, 158.9438
1156.514, 160.2163
1156.996, 160.9095
1157.478, 159.9740
1157.961, 158.4236
1158.443, 158.0740
1158.925, 158.7588
1159.407, 159.6444
1159.889, 160.6194
1160.371, 161.4696
1160.853, 162.3562
1161.335, 162.7258
1161.818, 161.9386
1162.300, 160.5900
1162.782, 160.5443
1163.264, 161.6862
1163.746, 162.6156
1164.228, 163.0258
1164.710, 163.2153
1165.192, 163.2515
1165.674, 163.2793
1166.156, 163.3888
1166.639, 163.5825
1167.121, 164.0846
1167.603, 164.8861
1168.085, 164.7018
1168.567, 162.6425
1169.049, 160.9202
1169.531, 162.0078
1170.013, 163.9871
1170.496, 164.8296
1170.978, 164.4519
1171.460, 164.9034
1171.942, 166.2682
1172.424, 166.8821
1172.906, 165.4590
1173.388, 163.9291
1173.870, 164.6383
1174.353, 166.2102
1174.835, 166.6782
1175.317, 165.5991
1175.799, 165.5379
1176.281, 166.6383
1176.763, 167.6118
1177.245, 167.6373
1177.727, 167.2770
1178.209, 167.0751
1178.692, 166.9708
1179.174, 166.8354
1179.656, 166.4764
1180.138, 166.6467
1180.620, 167.4562
1181.102, 168.2311
1181.584, 168.3168
1182.066, 168.2189
1182.548, 168.7135
1183.031, 168.7967
1183.513, 168.9499
1183.995, 169.4437
1184.477, 169.4119
1184.959, 169.9643
1185.441, 170.5529
1185.923, 170.6148
1186.405, 170.4736
1186.888, 170.6821
1187.370, 171.0947
1187.852, 171.1260
1188.334, 170.3950
1188.816, 169.8486
1189.298, 169.5555
1189.780, 169.5132
1190.262, 169.7903
1190.745, 170.2768
1191.227, 170.9019
1191.709, 171.6042
1192.191, 172.1188
1192.673, 172.3438
1193.155, 172.4144
1193.637, 172.2365
1194.119, 172.2258
1194.601, 173.3252
1195.084, 174.6988
1195.566, 174.6861
1196.048, 173.3562
1196.530, 172.8222
1197.012, 174.0646
1197.494, 174.9663
1197.976, 175.1399
1198.458, 174.8022
1198.941, 173.7978
1199.423, 172.6956
1199.905, 172.6588
1200.387, 173.7726
1200.869, 174.6046
1201.351, 174.6713
1201.833, 174.8790
1202.315, 175.5342
1202.797, 176.2512
1203.280, 176.3415
1203.762, 176.0779
1204.244, 175.9301
1204.726, 175.9757
1205.208, 175.9843
1205.690, 175.7937
1206.172, 175.8119
1206.654, 176.1789
1207.136, 176.7894
1207.619, 177.7521
1208.101, 178.7132
1208.583, 178.9454
1209.065, 178.2009
1209.547, 177.6916
1210.029, 177.5917
1210.511, 177.7098
1210.993, 178.0027
1211.476, 178.4367
1211.958, 179.0821
1212.440, 179.7866
1212.922, 180.2148
1213.404, 180.2190
1213.886, 180.4370
1214.368, 181.0188
1214.850, 181.6350
1215.333, 182.2426
1215.815, 182.6694
1216.297, 182.3746
1216.779, 181.7459
1217.261, 181.4902
1217.743, 181.8361
1218.225, 182.3129
1218.707, 183.0037
1219.189, 183.4483
1219.672, 183.3392
1220.154, 182.9792
1220.636, 182.9950
1221.118, 183.1470
1221.600, 182.9458
1222.082, 182.0172
1222.564, 181.6209
1223.046, 181.8970
1223.528, 182.4474
1224.011, 183.1949
1224.493, 183.9397
1224.975, 184.4316
1225.457, 184.6437
1225.939, 184.4740
1226.421, 183.5613
1226.903, 183.2645
1227.385, 183.7285
1227.868, 184.3385
1228.350, 184.8736
1228.832, 185.2209
1229.314, 185.0085
1229.796, 184.5497
1230.278, 184.3968
1230.760, 184.7997
1231.242, 185.0656
1231.724, 185.1400
1232.207, 185.3440
1232.689, 185.9671
1233.171, 186.7181
1233.653, 187.4095
1234.135, 187.9043
1234.617, 187.9253
1235.099, 187.2659
1235.581, 186.7065
1236.063, 186.2133
1236.546, 186.1076
1237.028, 186.9175
1237.510, 187.8758
1237.992, 188.0281
1238.474, 187.8364
1238.956, 188.1676
1239.438, 188.1455
1239.920, 187.8204
1240.403, 188.4134
1240.885, 187.4946
1241.367, 187.7829
1241.849, 188.5384
1242.331, 189.3052
1242.813, 190.0343
1243.295, 190.6579
1243.777, 191.1944
1244.260, 191.4810
1244.742, 191.5198
1245.224, 191.6387
1245.706, 192.3486
1246.188, 192.8812
1246.670, 192.5239
1247.152, 191.7803
1247.634, 191.2974
1248.116, 191.0599
1248.599, 191.3185
1249.081, 192.0485
1249.563, 192.8855
1250.045, 193.8198
1250.527, 194.5529
1251.009, 195.0052
1251.491, 195.0932
1251.973, 194.5984
1252.455, 193.5587
1252.938, 192.6416
1253.420, 191.9528
1253.902, 192.2072
1254.384, 195.1077
1254.866, 197.3312
1255.348, 197.2376
1255.830, 196.4157
1256.313, 196.1362
1256.795, 196.3314
1257.277, 196.6169
1257.759, 196.9829
1258.241, 197.3949
1258.723, 198.1597
1259.205, 198.4588
1259.687, 197.8238
1260.169, 197.2079
1260.651, 197.5566
1261.134, 198.5711
1261.616, 199.6562
1262.098, 200.5771
1262.580, 200.6066
1263.062, 198.1545
1263.544, 196.9321
1264.026, 197.7128
1264.508, 198.6491
1264.991, 197.7571
1265.473, 196.2001
1265.955, 196.4693
1266.437, 197.9380
1266.919, 198.8991
1267.401, 198.4029
1267.883, 198.3721
1268.365, 198.9446
1268.848, 199.5725
1269.330, 199.7325
1269.812, 199.7832
1270.294, 200.3535
1270.776, 200.3498
1271.258, 200.4848
1271.740, 200.7765
1272.222, 200.6675
1272.704, 201.1507
1273.187, 201.4959
1273.669, 200.9386
1274.151, 200.2749
1274.633, 199.9717
1275.115, 200.1579
1275.597, 201.1148
1276.079, 203.0500
1276.561, 204.1784
1277.043, 204.5033
1277.526, 204.4388
1278.008, 203.8105
1278.490, 203.3606
1278.972, 203.7772
1279.454, 204.4245
1279.936, 204.6643
1280.418, 204.5053
1280.900, 204.1615
1281.383, 203.6861
1281.865, 203.4178
1282.347, 203.5330
1282.829, 203.8780
1283.311, 204.7344
1283.793, 205.3950
1284.275, 205.0816
1284.757, 204.1457
1285.240, 204.1321
1285.722, 204.8031
1286.204, 205.3934
1286.686, 205.6262
1287.168, 205.7369
1287.650, 205.7766
1288.132, 205.6793
1288.614, 205.1484
1289.096, 204.6373
1289.578, 205.4115
1290.061, 206.8469
1290.543, 207.6380
1291.025, 207.0672
1291.507, 206.7322
1291.989, 206.6294
1292.471, 206.7834
1292.953, 207.4250
1293.435, 208.0483
1293.918, 207.8049
1294.400, 208.2691
1294.882, 208.4502
1295.364, 208.3262
1295.846, 208.6318
1296.328, 208.2962
1296.810, 207.8396
1297.292, 207.3371
1297.775, 207.0662
1298.257, 207.5761
1298.739, 208.1859
1299.221, 208.1288
1299.703, 207.5296
1300.185, 207.8219
1300.667, 208.8625
1301.149, 209.8282
1301.631, 210.5329
1302.114, 210.6811
1302.596, 210.3644
##END=



