##NAMES=Ludlamite
##RRUFFID=R090071
##IDEAL CHEMISTRY=Fe^2+^_3_(PO_4_)_2_&#183;4H_2_O
##LOCALITY=Cigana Mine (ex-Jocão Mine), Galiléia, Minas Gerais  Brazil
##OWNER=RRUFF
##SOURCE=Royal Ontario Museum 
##DESCRIPTION=Groups of colorless tabular crystals on reddish-brown reddingite R090069, associated with pink hureaulite R090070.
##STATUS=The identification of this mineral has been confirmed only by single crystal X-ray diffraction.
##URL=rruff.info/R090071
91.82715, 173.6835
92.30927, 173.6186
92.79138, 173.7309
93.27350, 172.3746
93.75562, 170.4841
94.23773, 169.1570
94.71985, 168.5035
95.20197, 167.2859
95.68408, 164.9931
96.16620, 162.2000
96.64832, 159.5781
97.13043, 157.2981
97.61255, 155.0311
98.09467, 152.1321
98.57678, 148.0466
99.05890, 144.5276
99.54102, 143.0096
100.0231, 142.2520
100.5052, 141.1445
100.9874, 139.1448
101.4695, 136.2984
101.9516, 132.9074
102.4337, 127.7010
102.9158, 123.1241
103.3979, 119.4564
103.8801, 116.6664
104.3622, 114.7558
104.8443, 113.8363
105.3264, 114.0493
105.8085, 113.3762
106.2906, 111.8544
106.7728, 109.6186
107.2549, 106.2688
107.7370, 101.9200
108.2191, 97.69347
108.7012, 94.86274
109.1833, 93.49271
109.6655, 92.68649
110.1476, 92.66532
110.6297, 93.06405
111.1118, 93.35653
111.5939, 93.43523
112.0760, 93.37892
112.5582, 93.03056
113.0403, 92.42747
113.5224, 92.36185
114.0045, 93.86362
114.4866, 96.82119
114.9688, 98.76553
115.4509, 98.40669
115.9330, 97.39304
116.4151, 96.40060
116.8972, 95.57799
117.3793, 95.29226
117.8615, 96.22666
118.3436, 99.08536
118.8257, 101.4534
119.3078, 102.1659
119.7899, 102.8328
120.2720, 104.8615
120.7542, 108.7986
121.2363, 113.9633
121.7184, 118.4516
122.2005, 122.2066
122.6826, 125.1628
123.1647, 126.9225
123.6468, 127.9400
124.1290, 128.8836
124.6111, 130.1881
125.0932, 131.7190
125.5753, 132.3232
126.0574, 130.9373
126.5395, 129.9032
127.0217, 130.1745
127.5038, 131.6683
127.9859, 133.9032
128.4680, 137.0726
128.9501, 140.7354
129.4323, 142.8051
129.9144, 141.6198
130.3965, 139.6607
130.8786, 139.6488
131.3607, 141.9837
131.8428, 144.8052
132.3250, 146.8027
132.8071, 148.2889
133.2892, 149.7150
133.7713, 150.9497
134.2534, 152.2199
134.7355, 154.4543
135.2177, 158.4329
135.6998, 162.3481
136.1819, 165.7763
136.6640, 168.5129
137.1461, 170.1000
137.6282, 169.9450
138.1104, 167.8873
138.5925, 165.8510
139.0746, 164.6402
139.5567, 162.7685
140.0388, 159.1384
140.5209, 154.0340
141.0031, 148.7587
141.4852, 144.9867
141.9673, 143.7801
142.4494, 141.2474
142.9315, 136.4389
143.4136, 131.2405
143.8958, 126.9765
144.3779, 123.9487
144.8600, 121.3161
145.3421, 117.6761
145.8242, 112.0385
146.3063, 107.2449
146.7885, 103.5047
147.2706, 100.6149
147.7527, 98.53852
148.2348, 97.38928
148.7169, 96.57258
149.1990, 94.49755
149.6812, 90.41478
150.1633, 87.61905
150.6454, 88.30410
151.1275, 91.45123
151.6096, 93.71769
152.0917, 93.36602
152.5739, 92.01569
153.0560, 92.43192
153.5381, 95.20013
154.0202, 97.88387
154.5023, 98.07387
154.9844, 95.63516
155.4665, 93.78861
155.9487, 94.31809
156.4308, 95.70063
156.9129, 96.81335
157.3950, 97.37978
157.8771, 97.70150
158.3592, 98.16882
158.8414, 98.71265
159.3235, 99.61240
159.8056, 101.3293
160.2877, 103.1970
160.7698, 104.6257
161.2519, 105.3451
161.7341, 105.5507
162.2162, 105.8207
162.6983, 106.4172
163.1804, 106.6990
163.6625, 106.2847
164.1446, 105.6050
164.6268, 105.2318
165.1089, 105.5089
165.5910, 106.2897
166.0731, 106.6257
166.5552, 106.0446
167.0373, 105.5361
167.5195, 105.6117
168.0016, 105.9049
168.4837, 105.6438
168.9658, 104.2625
169.4479, 101.8429
169.9300, 99.87751
170.4122, 98.70445
170.8943, 97.56031
171.3764, 96.37368
171.8585, 95.02180
172.3406, 92.93418
172.8227, 89.29374
173.3049, 84.45855
173.7870, 81.23830
174.2691, 80.39279
174.7512, 80.59413
175.2333, 81.00244
175.7154, 81.59508
176.1976, 82.13635
176.6797, 82.63613
177.1618, 82.93899
177.6439, 82.61061
178.1260, 80.68580
178.6081, 78.39636
179.0903, 77.76176
179.5724, 79.29433
180.0545, 80.99763
180.5366, 81.61458
181.0187, 81.56287
181.5008, 81.42810
181.9830, 81.39757
182.4651, 81.48564
182.9472, 81.68127
183.4293, 81.71384
183.9114, 82.35665
184.3935, 83.91843
184.8757, 86.19715
185.3578, 88.93487
185.8399, 92.20933
186.3220, 95.89219
186.8041, 98.55824
187.2862, 100.1842
187.7684, 100.6278
188.2505, 98.41909
188.7326, 94.97924
189.2147, 93.05187
189.6968, 95.06564
190.1789, 101.2165
190.6611, 106.1081
191.1432, 109.6292
191.6253, 112.0585
192.1074, 112.8996
192.5895, 112.5908
193.0716, 112.1167
193.5538, 112.3598
194.0359, 113.4598
194.5180, 114.1041
195.0001, 114.4473
195.4822, 114.3313
195.9643, 113.6178
196.4465, 112.3507
196.9286, 110.6605
197.4107, 108.5839
197.8928, 106.0311
198.3749, 104.0132
198.8570, 102.7930
199.3392, 101.8476
199.8213, 101.0447
200.3034, 100.3067
200.7855, 99.22946
201.2676, 97.27440
201.7497, 94.38778
202.2319, 92.05266
202.7140, 91.24586
203.1961, 90.47539
203.6782, 87.89999
204.1603, 83.22466
204.6424, 78.72778
205.1246, 76.82964
205.6067, 76.98796
206.0888, 76.76989
206.5709, 75.32867
207.0530, 73.39670
207.5351, 72.09175
208.0173, 71.67002
208.4994, 71.15876
208.9815, 69.49619
209.4636, 67.15396
209.9457, 65.09434
210.4278, 63.84314
210.9100, 63.08749
211.3921, 62.04342
211.8742, 60.44132
212.3563, 59.13945
212.8384, 58.98555
213.3205, 59.44076
213.8027, 59.49868
214.2848, 58.35620
214.7669, 56.43375
215.2490, 55.35845
215.7311, 55.79914
216.2132, 56.06053
216.6954, 55.11538
217.1775, 53.55008
217.6596, 52.40955
218.1417, 52.47895
218.6238, 53.49351
219.1059, 53.84644
219.5881, 52.85376
220.0702, 52.00929
220.5523, 51.82740
221.0344, 52.07886
221.5165, 52.37743
221.9986, 52.47564
222.4808, 52.39548
222.9629, 52.33838
223.4450, 52.11301
223.9271, 52.13592
224.4092, 52.75515
224.8913, 53.65884
225.3735, 54.29183
225.8556, 54.24572
226.3377, 53.61077
226.8198, 53.43003
227.3019, 54.43988
227.7840, 55.14356
228.2662, 54.95216
228.7483, 54.24609
229.2304, 53.73373
229.7125, 53.89068
230.1946, 54.63763
230.6767, 55.10297
231.1589, 55.32698
231.6410, 55.25864
232.1231, 54.44438
232.6052, 53.33709
233.0873, 52.85496
233.5694, 53.62982
234.0516, 55.42947
234.5337, 56.55574
235.0158, 56.79030
235.4979, 56.75692
235.9800, 56.44344
236.4621, 55.99337
236.9443, 55.72483
237.4264, 55.85814
237.9085, 56.25969
238.3906, 56.30338
238.8727, 55.52778
239.3548, 54.97965
239.8370, 55.22615
240.3191, 55.98774
240.8012, 56.56548
241.2833, 56.58425
241.7654, 56.22795
242.2475, 56.03162
242.7297, 55.90573
243.2118, 56.03334
243.6939, 56.72171
244.1760, 57.76767
244.6581, 58.67994
245.1402, 59.50603
245.6224, 59.72554
246.1045, 58.14608
246.5866, 53.96382
247.0687, 50.38063
247.5508, 49.26617
248.0329, 50.13631
248.5151, 51.36505
248.9972, 52.75895
249.4793, 53.84578
249.9614, 53.85136
250.4435, 52.59964
250.9256, 51.49562
251.4078, 51.37390
251.8899, 52.07520
252.3720, 52.97664
252.8541, 54.21111
253.3362, 55.19867
253.8183, 55.30158
254.3005, 54.53304
254.7826, 53.58809
255.2647, 52.43980
255.7468, 51.31343
256.2289, 51.61835
256.7110, 54.83309
257.1931, 57.88279
257.6753, 57.92021
258.1574, 55.36869
258.6395, 52.92845
259.1216, 52.63956
259.6037, 54.06147
260.0858, 54.64339
260.5680, 53.51381
261.0501, 52.39408
261.5322, 52.62273
262.0143, 53.79238
262.4964, 54.65702
262.9785, 54.05187
263.4607, 52.31721
263.9428, 51.50848
264.4249, 52.16944
264.9070, 53.04079
265.3891, 53.30958
265.8712, 53.30934
266.3534, 53.81366
266.8355, 55.81667
267.3176, 58.63247
267.7997, 59.05457
268.2818, 55.08126
268.7639, 51.71467
269.2461, 50.87406
269.7282, 51.68032
270.2103, 52.99703
270.6924, 54.46360
271.1745, 55.77155
271.6566, 55.66966
272.1388, 52.76436
272.6209, 50.84006
273.1030, 51.85454
273.5851, 53.88911
274.0672, 54.48387
274.5493, 52.37928
275.0315, 49.01635
275.5136, 48.19857
275.9957, 51.87844
276.4778, 54.44942
276.9599, 54.39498
277.4420, 53.24499
277.9242, 52.28009
278.4063, 51.95848
278.8884, 52.09760
279.3705, 52.41183
279.8526, 53.07714
280.3347, 53.53092
280.8169, 53.60157
281.2990, 53.55391
281.7811, 53.60615
282.2632, 53.80125
282.7453, 53.99177
283.2274, 53.99483
283.7096, 53.88029
284.1917, 53.36765
284.6738, 52.22036
285.1559, 50.91206
285.6380, 49.54771
286.1201, 48.23907
286.6023, 47.22608
287.0844, 46.87105
287.5665, 47.43496
288.0486, 47.62328
288.5307, 46.75282
289.0128, 46.14014
289.4950, 46.83015
289.9771, 48.46824
290.4592, 49.68401
290.9413, 49.04914
291.4234, 46.32684
291.9055, 44.92850
292.3877, 46.44502
292.8698, 47.67393
293.3519, 47.29995
293.8340, 45.80996
294.3161, 44.39252
294.7982, 43.88974
295.2804, 44.23481
295.7625, 44.58993
296.2446, 45.18357
296.7267, 45.53474
297.2088, 45.53305
297.6909, 45.23220
298.1731, 44.63220
298.6552, 43.71223
299.1373, 42.63544
299.6194, 42.04185
300.1015, 42.77316
300.5836, 42.97324
301.0658, 41.98449
301.5479, 40.60611
302.0300, 39.70821
302.5121, 39.63279
302.9942, 40.07402
303.4763, 40.41230
303.9585, 40.61247
304.4406, 40.74165
304.9227, 40.73665
305.4048, 40.70680
305.8869, 40.81131
306.3690, 41.05484
306.8512, 41.21354
307.3333, 40.91191
307.8154, 39.72838
308.2975, 39.23929
308.7796, 40.39303
309.2617, 41.36408
309.7439, 40.97387
310.2260, 39.23089
310.7081, 36.79976
311.1902, 34.12849
311.6723, 30.87110
312.1544, 29.94062
312.6366, 33.41141
313.1187, 36.80596
313.6008, 38.58381
314.0829, 38.83416
314.5650, 38.12045
315.0471, 36.74297
315.5293, 34.78983
316.0114, 33.43904
316.4935, 32.91914
316.9756, 32.74075
317.4577, 33.23568
317.9398, 33.92573
318.4220, 33.91113
318.9041, 32.68510
319.3862, 30.92280
319.8683, 30.80895
320.3504, 35.00297
320.8326, 37.50996
321.3147, 37.06928
321.7968, 35.31293
322.2789, 33.67356
322.7610, 32.66977
323.2431, 32.11223
323.7253, 31.71225
324.2074, 31.58546
324.6895, 31.39313
325.1716, 30.87401
325.6537, 30.48514
326.1358, 30.61988
326.6180, 31.27037
327.1001, 32.06922
327.5822, 32.60936
328.0643, 32.80755
328.5464, 33.18241
329.0285, 34.15424
329.5107, 34.88244
329.9928, 34.95943
330.4749, 34.48384
330.9570, 33.70198
331.4391, 32.71346
331.9212, 31.58261
332.4034, 31.28325
332.8855, 32.91725
333.3676, 34.22081
333.8497, 34.65439
334.3318, 34.52230
334.8139, 34.34554
335.2961, 34.39579
335.7782, 34.42012
336.2603, 33.60085
336.7424, 30.64342
337.2245, 28.80777
337.7066, 28.97154
338.1888, 29.88300
338.6709, 30.47525
339.1530, 30.44900
339.6351, 30.17395
340.1172, 30.13939
340.5993, 30.21080
341.0815, 30.90886
341.5636, 33.51472
342.0457, 35.60521
342.5278, 35.23111
343.0099, 32.80340
343.4920, 30.52027
343.9742, 30.62815
344.4563, 33.31844
344.9384, 34.82060
345.4205, 33.77802
345.9026, 32.79785
346.3847, 32.80575
346.8669, 33.33730
347.3490, 33.40549
347.8311, 32.32581
348.3132, 30.50286
348.7953, 29.61130
349.2774, 30.30048
349.7596, 30.95047
350.2417, 31.07852
350.7238, 31.10811
351.2059, 31.60335
351.6880, 32.74485
352.1701, 33.95669
352.6523, 34.07810
353.1344, 32.46102
353.6165, 31.75874
354.0986, 33.40562
354.5807, 35.12637
355.0628, 35.52875
355.5450, 34.57664
356.0271, 33.21686
356.5092, 32.21294
356.9913, 31.56692
357.4734, 31.35264
357.9555, 31.96032
358.4377, 32.59037
358.9198, 33.07240
359.4019, 33.32460
359.8840, 33.17151
360.3661, 32.36465
360.8482, 31.18904
361.3304, 30.50536
361.8125, 30.43315
362.2946, 30.61776
362.7767, 31.16986
363.2588, 31.78894
363.7409, 32.21884
364.2231, 32.40868
364.7052, 32.25097
365.1873, 31.34304
365.6694, 29.52887
366.1515, 28.39504
366.6336, 28.74036
367.1158, 29.57128
367.5979, 30.33508
368.0800, 30.96654
368.5621, 31.28644
369.0442, 31.16302
369.5263, 30.61812
370.0085, 29.59460
370.4906, 27.59439
370.9727, 26.04031
371.4548, 26.14667
371.9369, 27.37745
372.4190, 28.61508
372.9012, 29.82528
373.3833, 30.56189
373.8654, 29.78800
374.3475, 27.28913
374.8296, 25.14002
375.3117, 24.46707
375.7939, 24.74158
376.2760, 25.11313
376.7581, 25.41413
377.2402, 26.06842
377.7223, 27.86244
378.2044, 30.41438
378.6866, 32.04890
379.1687, 32.23970
379.6508, 31.44918
380.1329, 30.08975
380.6150, 28.19571
381.0971, 26.24690
381.5793, 23.98663
382.0614, 21.91766
382.5435, 20.80879
383.0256, 20.76118
383.5077, 21.26783
383.9898, 22.07252
384.4720, 23.14398
384.9541, 24.18383
385.4362, 25.48238
385.9183, 26.47121
386.4004, 26.70011
386.8825, 26.30438
387.3647, 25.65664
387.8468, 24.80376
388.3289, 24.01942
388.8110, 24.15506
389.2931, 25.79383
389.7752, 26.91763
390.2574, 26.59631
390.7395, 25.77024
391.2216, 25.62246
391.7037, 26.40042
392.1858, 27.49401
392.6679, 28.25829
393.1501, 28.68702
393.6322, 28.62684
394.1143, 27.63066
394.5964, 26.59420
395.0785, 26.09472
395.5606, 26.00070
396.0428, 25.74068
396.5249, 24.86721
397.0070, 23.64176
397.4891, 23.47873
397.9712, 26.38705
398.4533, 27.92657
398.9355, 26.65685
399.4176, 24.22541
399.8997, 22.35308
400.3818, 21.59255
400.8639, 21.41725
401.3460, 21.00687
401.8282, 20.08631
402.3103, 19.72245
402.7924, 19.99156
403.2745, 20.65958
403.7566, 22.11716
404.2387, 23.94295
404.7209, 25.01701
405.2030, 24.30260
405.6851, 22.13247
406.1672, 21.11826
406.6493, 22.05660
407.1314, 23.08120
407.6136, 23.89871
408.0957, 24.50575
408.5778, 24.88377
409.0599, 25.02295
409.5420, 25.01828
410.0241, 25.25202
410.5063, 26.00235
410.9884, 25.43695
411.4705, 20.84801
411.9526, 16.95413
412.4347, 17.23083
412.9168, 21.01298
413.3990, 24.59190
413.8811, 25.09005
414.3632, 23.31228
414.8453, 22.18091
415.3274, 21.72668
415.8095, 21.85572
416.2917, 23.06999
416.7738, 24.67158
417.2559, 25.72873
417.7380, 25.94807
418.2201, 25.71651
418.7022, 25.33829
419.1844, 24.81751
419.6665, 24.14150
420.1486, 23.14001
420.6307, 22.21266
421.1128, 21.90740
421.5949, 22.20596
422.0771, 22.57870
422.5592, 22.93365
423.0413, 23.20895
423.5234, 23.13367
424.0055, 22.67388
424.4876, 22.62793
424.9698, 23.83449
425.4519, 26.02057
425.9340, 27.33002
426.4161, 27.12003
426.8982, 26.74557
427.3803, 26.87683
427.8625, 27.27517
428.3446, 27.32907
428.8267, 26.76532
429.3088, 26.10938
429.7909, 26.34494
430.2730, 28.29189
430.7552, 29.21920
431.2373, 28.11118
431.7194, 26.72470
432.2015, 26.36834
432.6836, 27.02584
433.1657, 27.90184
433.6479, 28.36555
434.1300, 28.45714
434.6121, 28.72448
435.0942, 29.81223
435.5763, 30.31685
436.0584, 29.22457
436.5406, 27.76674
437.0227, 27.39687
437.5048, 28.60139
437.9869, 30.69784
438.4690, 32.90034
438.9511, 35.71068
439.4333, 36.96637
439.9154, 34.98738
440.3975, 32.91770
440.8796, 32.11574
441.3617, 32.41606
441.8438, 33.04707
442.3260, 33.54335
442.8081, 33.97152
443.2902, 34.47279
443.7723, 34.89716
444.2544, 35.78997
444.7365, 38.17500
445.2187, 40.66863
445.7008, 41.93353
446.1829, 41.67824
446.6650, 40.73033
447.1471, 39.24249
447.6292, 37.48580
448.1114, 37.13483
448.5935, 38.92276
449.0756, 41.19883
449.5577, 42.78032
450.0398, 43.76035
450.5219, 44.28176
451.0041, 43.71343
451.4862, 43.18121
451.9683, 44.03720
452.4504, 46.07294
452.9325, 47.88511
453.4146, 48.91340
453.8968, 49.26994
454.3789, 49.09541
454.8610, 48.30431
455.3431, 47.42284
455.8252, 46.35926
456.3073, 45.37935
456.7895, 44.78465
457.2716, 44.60691
457.7537, 44.68616
458.2358, 44.94722
458.7179, 45.39057
459.2000, 45.43575
459.6822, 44.66588
460.1643, 44.04652
460.6464, 43.88054
461.1285, 44.01500
461.6106, 44.36204
462.0927, 44.86261
462.5748, 45.19570
463.0569, 44.81705
463.5391, 43.59925
464.0212, 41.99448
464.5033, 39.14308
464.9854, 36.73115
465.4675, 35.79269
465.9496, 35.97065
466.4318, 36.22762
466.9139, 35.87261
467.3960, 35.15765
467.8781, 34.90962
468.3602, 35.31567
468.8423, 35.69996
469.3245, 35.92144
469.8066, 36.01170
470.2887, 35.95736
470.7708, 35.76061
471.2529, 35.51842
471.7350, 35.18472
472.2172, 34.84867
472.6993, 34.96758
473.1814, 35.78393
473.6635, 36.45282
474.1456, 35.98712
474.6277, 34.95558
475.1099, 34.69326
475.5920, 36.05133
476.0741, 37.39667
476.5562, 37.39642
477.0383, 36.45171
477.5204, 35.69221
478.0026, 35.45457
478.4847, 35.66676
478.9668, 36.38705
479.4489, 37.84632
479.9310, 38.62027
480.4131, 37.62537
480.8953, 36.76788
481.3774, 37.70936
481.8595, 39.99223
482.3416, 41.93840
482.8237, 42.54316
483.3058, 42.17138
483.7880, 42.07964
484.2701, 42.54368
484.7522, 42.90414
485.2343, 43.12904
485.7164, 43.25620
486.1985, 43.31750
486.6807, 43.31435
487.1628, 43.19521
487.6449, 42.79627
488.1270, 42.18457
488.6091, 42.39701
489.0912, 44.32166
489.5734, 45.64203
490.0555, 45.36555
490.5376, 44.34054
491.0197, 43.41429
491.5018, 42.80455
491.9839, 42.52587
492.4661, 42.94574
492.9482, 43.90760
493.4303, 43.89272
493.9124, 42.33139
494.3945, 40.45764
494.8766, 39.15863
495.3588, 38.31908
495.8409, 37.73589
496.3230, 37.69399
496.8051, 37.57880
497.2872, 36.55647
497.7693, 34.95559
498.2515, 34.05633
498.7336, 34.41454
499.2157, 35.47039
499.6978, 36.53184
500.1799, 37.89382
500.6620, 38.04842
501.1442, 35.66771
501.6263, 33.07232
502.1084, 32.13514
502.5905, 32.47865
503.0726, 32.35089
503.5547, 30.57590
504.0369, 27.90806
504.5190, 27.02586
505.0011, 29.69758
505.4832, 31.38565
505.9653, 31.36572
506.4474, 30.74711
506.9296, 30.19536
507.4117, 29.83579
507.8938, 29.56684
508.3759, 29.27960
508.8580, 29.01108
509.3401, 29.11358
509.8223, 30.05086
510.3044, 30.32940
510.7865, 28.45744
511.2686, 26.17734
511.7507, 25.25843
512.2328, 26.07010
512.7150, 27.40544
513.1971, 28.74848
513.6792, 29.90807
514.1613, 30.13666
514.6434, 29.14220
515.1255, 28.20053
515.6077, 28.32215
516.0898, 29.31140
516.5719, 30.17789
517.0540, 31.12952
517.5361, 31.66361
518.0182, 31.08429
518.5004, 30.05960
518.9825, 29.89462
519.4646, 30.92830
519.9467, 32.13026
520.4288, 32.20423
520.9109, 30.89303
521.3931, 30.18171
521.8752, 29.99932
522.3573, 30.37922
522.8394, 31.99000
523.3215, 33.97390
523.8036, 34.87265
524.2858, 34.12609
524.7679, 32.90179
525.2500, 33.31748
525.7321, 35.88789
526.2142, 37.46882
526.6964, 36.93745
527.1785, 36.37735
527.6606, 36.94703
528.1427, 38.21422
528.6248, 39.13843
529.1069, 39.15068
529.5891, 38.85358
530.0712, 39.21515
530.5533, 40.16808
531.0354, 40.43858
531.5175, 39.30918
531.9996, 37.94641
532.4818, 37.95816
532.9639, 39.21726
533.4460, 40.14528
533.9281, 39.84356
534.4102, 39.58021
534.8923, 40.71028
535.3745, 42.79237
535.8566, 44.25745
536.3387, 44.33299
536.8208, 43.57777
537.3029, 43.11733
537.7850, 43.06286
538.2672, 43.09382
538.7493, 43.19669
539.2314, 43.38916
539.7135, 43.58380
540.1956, 43.87746
540.6777, 44.60057
541.1599, 46.03643
541.6420, 47.70478
542.1241, 48.20966
542.6062, 47.01299
543.0883, 46.39833
543.5704, 47.42297
544.0526, 48.63464
544.5347, 49.11045
545.0168, 48.93196
545.4989, 48.72997
545.9810, 48.97201
546.4631, 49.31064
546.9453, 48.91735
547.4274, 47.82927
547.9095, 47.60878
548.3916, 49.31617
548.8737, 51.69619
549.3558, 52.35357
549.8380, 51.06337
550.3201, 50.08266
550.8022, 49.97979
551.2843, 50.22903
551.7664, 50.62793
552.2485, 51.02118
552.7307, 51.03910
553.2128, 50.45388
553.6949, 49.42698
554.1770, 48.35707
554.6591, 46.78785
555.1412, 46.03939
555.6234, 46.74510
556.1055, 47.63591
556.5876, 47.90264
557.0697, 47.66169
557.5518, 47.57290
558.0339, 48.20683
558.5161, 48.98494
558.9982, 48.43264
559.4803, 46.33820
559.9624, 44.13460
560.4445, 41.56195
560.9266, 39.69692
561.4088, 39.82964
561.8909, 41.78308
562.3730, 43.45362
562.8551, 44.34756
563.3372, 44.39169
563.8193, 42.95133
564.3015, 40.38253
564.7836, 38.60298
565.2657, 38.62731
565.7478, 39.33817
566.2299, 38.54673
566.7120, 35.00440
567.1942, 33.08576
567.6763, 34.19807
568.1584, 35.62530
568.6405, 35.85732
569.1226, 35.13616
569.6047, 34.24025
570.0869, 33.55500
570.5690, 33.17175
571.0511, 33.48965
571.5332, 34.92932
572.0153, 35.42871
572.4974, 33.88968
572.9796, 32.24885
573.4617, 31.54259
573.9438, 31.54808
574.4259, 31.57689
574.9080, 31.20921
575.3901, 30.95868
575.8723, 31.92622
576.3544, 33.73801
576.8365, 33.94942
577.3186, 31.40911
577.8007, 28.55854
578.2828, 28.45537
578.7650, 31.29606
579.2471, 32.81824
579.7292, 32.04879
580.2113, 30.84674
580.6934, 29.72602
581.1755, 28.87163
581.6577, 28.60825
582.1398, 29.01624
582.6219, 29.64470
583.1040, 29.89539
583.5861, 29.73007
584.0682, 29.49543
584.5504, 29.32829
585.0325, 28.90503
585.5146, 27.43164
585.9967, 25.94567
586.4788, 25.96408
586.9609, 27.96735
587.4431, 30.40621
587.9252, 31.98006
588.4073, 32.78979
588.8894, 33.16380
589.3715, 33.08375
589.8536, 32.76505
590.3358, 32.01454
590.8179, 31.21366
591.3000, 31.65898
591.7821, 34.58563
592.2642, 36.53400
592.7463, 35.65150
593.2285, 33.67430
593.7106, 32.30347
594.1927, 31.83546
594.6748, 32.13169
595.1569, 33.24055
595.6390, 34.84620
596.1212, 35.21297
596.6033, 33.58796
597.0854, 32.00159
597.5675, 30.70331
598.0496, 29.52588
598.5317, 28.11230
599.0139, 26.63404
599.4960, 25.85847
599.9781, 26.65723
600.4602, 28.17659
600.9423, 28.73444
601.4244, 28.31973
601.9066, 28.02005
602.3887, 28.46839
602.8708, 28.79649
603.3529, 27.29952
603.8350, 23.91944
604.3171, 21.99681
604.7993, 23.07113
605.2814, 24.69472
605.7635, 25.44880
606.2456, 25.54218
606.7277, 25.64593
607.2098, 26.01008
607.6920, 26.26550
608.1741, 25.79230
608.6562, 24.41553
609.1383, 23.24681
609.6204, 21.65987
610.1025, 21.06727
610.5847, 22.72988
611.0668, 25.30351
611.5489, 27.07994
612.0310, 27.59504
612.5131, 27.24959
612.9952, 26.04110
613.4774, 24.25696
613.9595, 22.73827
614.4416, 21.53737
614.9237, 20.78706
615.4058, 20.65381
615.8879, 21.00249
616.3701, 21.40086
616.8522, 21.95008
617.3343, 22.34425
617.8164, 22.71744
618.2985, 22.77152
618.7806, 21.78208
619.2628, 20.12689
619.7449, 19.29190
620.2270, 20.33204
620.7091, 22.41269
621.1912, 22.99183
621.6733, 21.28360
622.1555, 20.43284
622.6376, 21.54490
623.1197, 22.94248
623.6018, 23.97345
624.0839, 24.55113
624.5660, 24.52842
625.0482, 23.64638
625.5303, 22.46858
626.0124, 21.39059
626.4945, 20.47411
626.9766, 19.97355
627.4587, 19.96039
627.9409, 20.26351
628.4230, 20.81167
628.9051, 21.59311
629.3872, 22.02301
629.8693, 21.70021
630.3514, 21.58932
630.8336, 22.20279
631.3157, 22.93975
631.7978, 23.18459
632.2799, 22.86443
632.7620, 22.29724
633.2441, 21.74694
633.7263, 21.16824
634.2084, 20.26326
634.6905, 18.80578
635.1726, 17.92356
635.6547, 18.05060
636.1368, 18.83468
636.6190, 20.21057
637.1011, 22.08163
637.5832, 23.22648
638.0653, 22.87262
638.5474, 21.98949
639.0295, 21.15090
639.5117, 20.43684
639.9938, 19.89898
640.4759, 19.55641
640.9580, 19.72819
641.4401, 21.05087
641.9222, 23.82495
642.4044, 24.92492
642.8865, 22.33469
643.3686, 20.39940
643.8507, 20.66665
644.3328, 21.68581
644.8149, 21.73309
645.2971, 20.55507
645.7792, 19.47270
646.2613, 19.76516
646.7434, 20.90389
647.2255, 21.62827
647.7076, 21.90889
648.1898, 21.90438
648.6719, 21.56664
649.1540, 21.13113
649.6361, 21.00544
650.1182, 21.22953
650.6003, 21.52642
651.0825, 22.04752
651.5646, 22.46687
652.0467, 22.78760
652.5288, 22.82428
653.0109, 22.04198
653.4930, 20.31311
653.9752, 18.58044
654.4573, 18.32433
654.9394, 19.59817
655.4215, 20.02374
655.9036, 19.14182
656.3857, 18.31754
656.8679, 18.11773
657.3500, 18.33794
657.8321, 18.85308
658.3142, 19.68497
658.7963, 20.49473
659.2784, 21.57883
659.7606, 22.26320
660.2427, 21.40025
660.7248, 19.33849
661.2069, 17.58544
661.6890, 16.83965
662.1711, 16.86462
662.6533, 17.27798
663.1354, 18.19551
663.6175, 19.09929
664.0996, 19.84229
664.5817, 20.74195
665.0638, 22.49799
665.5460, 24.22605
666.0281, 24.47357
666.5102, 22.83703
666.9923, 21.11196
667.4744, 20.97329
667.9565, 21.85615
668.4387, 22.48677
668.9208, 22.79049
669.4029, 22.72943
669.8850, 22.18948
670.3671, 21.40489
670.8492, 20.86281
671.3314, 20.65777
671.8135, 20.45136
672.2956, 19.86709
672.7777, 19.65423
673.2598, 20.76098
673.7419, 22.35403
674.2241, 22.92551
674.7062, 21.93457
675.1883, 20.45639
675.6704, 19.83014
676.1525, 19.95754
676.6346, 19.75763
677.1168, 18.98867
677.5989, 18.67196
678.0810, 19.79313
678.5631, 21.36832
679.0452, 21.54194
679.5273, 20.00258
680.0095, 18.75903
680.4916, 18.39903
680.9737, 18.42172
681.4558, 18.55489
681.9379, 18.75310
682.4200, 19.00622
682.9022, 19.30767
683.3843, 19.62203
683.8664, 20.04304
684.3485, 20.63940
684.8306, 20.14179
685.3127, 17.51748
685.7949, 15.64665
686.2770, 16.37678
686.7591, 18.11216
687.2412, 19.39685
687.7233, 20.10118
688.2054, 19.94726
688.6876, 17.73971
689.1697, 15.40695
689.6518, 15.31375
690.1339, 16.92457
690.6160, 18.18769
691.0981, 18.27828
691.5803, 17.99515
692.0624, 18.58168
692.5445, 20.24943
693.0266, 20.93429
693.5087, 19.46689
693.9908, 18.60507
694.4730, 19.62100
694.9551, 21.21775
695.4372, 22.23072
695.9193, 22.46282
696.4014, 22.02819
696.8835, 20.40003
697.3657, 18.51718
697.8478, 17.66357
698.3299, 17.71201
698.8120, 18.12258
699.2941, 18.78823
699.7762, 18.99100
700.2584, 17.54065
700.7405, 14.14987
701.2226, 12.74620
701.7047, 15.72476
702.1868, 17.77076
702.6689, 17.32320
703.1511, 15.94783
703.6332, 14.91072
704.1153, 14.45475
704.5974, 14.45602
705.0795, 14.81896
705.5616, 15.61521
706.0438, 17.39480
706.5259, 19.89234
707.0080, 21.32961
707.4901, 21.12323
707.9722, 20.16840
708.4543, 19.25945
708.9365, 18.40203
709.4186, 17.90210
709.9007, 17.28968
710.3828, 17.63336
710.8649, 20.46285
711.3470, 23.29049
711.8292, 23.78015
712.3113, 22.18894
712.7934, 20.34304
713.2755, 19.16760
713.7576, 18.58057
714.2397, 18.71246
714.7219, 19.42372
715.2040, 19.63177
715.6861, 19.02510
716.1682, 18.42768
716.6503, 18.54486
717.1324, 19.23226
717.6146, 19.68227
718.0967, 19.87385
718.5788, 19.87570
719.0609, 19.53496
719.5430, 19.14393
720.0251, 18.79518
720.5073, 18.57960
720.9894, 18.68982
721.4715, 19.25092
721.9536, 19.93690
722.4357, 20.29288
722.9178, 20.38111
723.4000, 20.79309
723.8821, 21.77838
724.3642, 21.65571
724.8463, 18.69785
725.3284, 14.51964
725.8105, 13.47683
726.2927, 17.15671
726.7748, 19.86691
727.2569, 20.95429
727.7390, 21.37082
728.2211, 21.28550
728.7032, 21.00225
729.1854, 21.00668
729.6675, 21.43607
730.1496, 21.78443
730.6317, 21.45962
731.1138, 20.61437
731.5959, 19.67761
732.0781, 18.61976
732.5602, 18.05225
733.0423, 18.27990
733.5244, 19.01736
734.0065, 19.88456
734.4886, 20.89513
734.9708, 21.99486
735.4529, 24.04748
735.9350, 25.16320
736.4171, 23.83002
736.8992, 21.72545
737.3813, 20.95028
737.8635, 21.62857
738.3456, 21.95145
738.8277, 20.08947
739.3098, 17.49998
739.7919, 17.70303
740.2740, 20.44905
740.7562, 21.68954
741.2383, 20.08811
741.7204, 18.11836
742.2025, 18.21653
742.6846, 20.10170
743.1667, 20.76395
743.6489, 18.74201
744.1310, 17.63958
744.6131, 18.78668
745.0952, 20.19445
745.5773, 20.24260
746.0594, 19.26863
746.5416, 18.63391
747.0237, 19.07116
747.5058, 19.59517
747.9879, 18.49226
748.4700, 16.43709
748.9521, 16.26719
749.4343, 18.36453
749.9164, 20.38935
750.3985, 21.00046
750.8806, 20.69015
751.3627, 20.59078
751.8448, 20.96125
752.3270, 20.85621
752.8091, 19.28893
753.2912, 18.38537
753.7733, 19.89520
754.2554, 22.14130
754.7375, 22.64713
755.2197, 20.95127
755.7018, 19.18474
756.1839, 19.02463
756.6660, 19.74497
757.1481, 20.18007
757.6302, 20.37977
758.1124, 20.88116
758.5945, 21.93201
759.0766, 22.59709
759.5587, 21.65114
760.0408, 19.15264
760.5229, 17.70778
761.0051, 17.94048
761.4872, 18.31872
761.9693, 18.57136
762.4514, 18.93992
762.9335, 20.06136
763.4156, 21.49064
763.8978, 21.67973
764.3799, 19.36343
764.8620, 16.99745
765.3441, 16.49986
765.8262, 17.36851
766.3083, 19.16559
766.7905, 21.58940
767.2726, 23.27892
767.7547, 23.38560
768.2368, 22.37156
768.7189, 21.13295
769.2010, 19.34133
769.6832, 18.59940
770.1653, 19.74841
770.6474, 20.77591
771.1295, 20.48768
771.6116, 19.76997
772.0938, 19.90583
772.5759, 21.11649
773.0580, 21.81652
773.5401, 21.05957
774.0222, 19.87054
774.5043, 18.71788
774.9865, 17.84992
775.4686, 17.75731
775.9507, 18.51966
776.4328, 19.62674
776.9149, 20.66558
777.3970, 21.58050
777.8792, 22.04897
778.3613, 21.98535
778.8434, 21.95789
779.3255, 22.10510
779.8076, 22.29395
780.2897, 22.41682
780.7719, 22.48645
781.2540, 22.55811
781.7361, 22.71529
782.2182, 22.74368
782.7003, 22.25237
783.1824, 21.89648
783.6646, 22.36079
784.1467, 23.39823
784.6288, 24.50299
785.1109, 25.48225
785.5930, 25.75083
786.0751, 23.94670
786.5573, 20.78375
787.0394, 19.44198
787.5215, 20.13072
788.0036, 20.58746
788.4857, 19.69575
788.9678, 18.50878
789.4500, 18.63507
789.9321, 20.30836
790.4142, 21.42816
790.8963, 21.92795
791.3784, 21.98804
791.8605, 21.29709
792.3427, 20.44139
792.8248, 19.98766
793.3069, 19.88250
793.7890, 19.57481
794.2711, 18.54282
794.7532, 17.67553
795.2354, 17.88435
795.7175, 18.88000
796.1996, 20.45942
796.6817, 22.40141
797.1638, 23.19599
797.6459, 21.77079
798.1281, 19.31905
798.6102, 18.63268
799.0923, 20.18282
799.5744, 21.58735
800.0565, 23.22870
800.5386, 24.11364
801.0208, 23.12064
801.5029, 21.50752
801.9850, 20.69851
802.4671, 20.79306
802.9492, 21.00714
803.4313, 21.39314
803.9135, 21.54738
804.3956, 20.73333
804.8777, 19.76292
805.3598, 20.04266
805.8419, 21.59493
806.3240, 23.04826
806.8062, 23.33728
807.2883, 22.94354
807.7704, 22.83864
808.2525, 23.01473
808.7346, 23.44516
809.2167, 24.27322
809.6989, 24.64742
810.1810, 23.85936
810.6631, 22.32796
811.1452, 21.16639
811.6273, 20.22451
812.1094, 20.05836
812.5916, 21.36949
813.0737, 22.64814
813.5558, 23.56230
814.0379, 23.93206
814.5200, 23.27835
815.0021, 21.64849
815.4843, 20.31954
815.9664, 20.01865
816.4485, 20.47131
816.9306, 21.84615
817.4127, 23.66488
817.8948, 24.63720
818.3770, 24.52939
818.8591, 24.09432
819.3412, 23.92942
819.8233, 23.91813
820.3054, 23.62513
820.7875, 22.90444
821.2697, 22.60732
821.7518, 23.16312
822.2339, 23.53437
822.7160, 22.74442
823.1981, 21.54569
823.6802, 21.40041
824.1624, 22.63051
824.6445, 23.51762
825.1266, 23.65239
825.6087, 23.43384
826.0908, 22.70230
826.5729, 21.93907
827.0551, 21.91718
827.5372, 22.65996
828.0193, 23.33226
828.5014, 23.17706
828.9835, 22.79223
829.4656, 23.41994
829.9478, 24.77420
830.4299, 25.40875
830.9120, 25.05527
831.3941, 24.49074
831.8762, 24.24859
832.3583, 24.16867
832.8404, 23.77574
833.3225, 22.82413
833.8046, 22.25850
834.2867, 22.10303
834.7689, 22.32088
835.2510, 23.25508
835.7331, 24.32198
836.2152, 24.77058
836.6973, 24.54979
837.1794, 24.44193
837.6616, 24.92595
838.1437, 25.34982
838.6258, 25.50846
839.1079, 25.26138
839.5900, 24.18848
840.0721, 22.45350
840.5543, 20.78940
841.0364, 19.55903
841.5185, 19.08426
842.0006, 20.69656
842.4827, 23.83375
842.9648, 24.25171
843.4470, 21.31294
843.9291, 18.92114
844.4112, 19.03183
844.8933, 20.80667
845.3754, 23.14090
845.8575, 26.42981
846.3397, 27.74997
846.8218, 25.09971
847.3039, 23.18755
847.7860, 23.43921
848.2681, 24.33364
848.7502, 24.74061
849.2324, 24.64651
849.7145, 24.39668
850.1966, 23.98928
850.6787, 23.64345
851.1608, 23.35084
851.6429, 23.27812
852.1251, 23.95234
852.6072, 25.01521
853.0893, 25.35817
853.5714, 24.51445
854.0535, 23.19025
854.5356, 22.02619
855.0178, 21.11831
855.4999, 21.02851
855.9820, 21.77440
856.4641, 22.74089
856.9462, 23.85658
857.4283, 24.69361
857.9105, 24.74967
858.3926, 24.13542
858.8747, 23.75341
859.3568, 23.86485
859.8389, 23.75126
860.3210, 23.07405
860.8032, 22.48453
861.2853, 22.48965
861.7674, 22.72460
862.2495, 22.46816
862.7316, 21.51652
863.2137, 20.86524
863.6959, 21.00878
864.1780, 21.52944
864.6601, 22.39523
865.1422, 23.29581
865.6243, 23.71872
866.1064, 23.60432
866.5886, 23.21433
867.0707, 22.60438
867.5528, 22.17064
868.0349, 22.99855
868.5170, 24.78585
868.9991, 25.52579
869.4813, 24.94102
869.9634, 24.27790
870.4455, 24.27205
870.9276, 24.40853
871.4097, 23.68636
871.8918, 21.92698
872.3740, 20.48365
872.8561, 18.81629
873.3382, 18.33696
873.8203, 20.57557
874.3024, 23.22393
874.7845, 24.41433
875.2667, 24.39622
875.7488, 24.54911
876.2309, 25.52857
876.7130, 26.01452
877.1951, 25.08120
877.6772, 23.86387
878.1594, 23.40842
878.6415, 23.42439
879.1236, 23.01128
879.6057, 21.91467
880.0878, 21.00639
880.5699, 21.49732
881.0521, 20.62004
881.5342, 22.00230
882.0163, 20.49867
882.4984, 19.98255
882.9805, 20.89709
883.4626, 22.24361
883.9448, 23.33000
884.4269, 24.03048
884.9090, 23.76667
885.3911, 22.21484
885.8732, 21.59797
886.3553, 22.28803
886.8375, 23.34198
887.3196, 24.70532
887.8017, 25.89806
888.2838, 26.09961
888.7659, 25.21997
889.2480, 24.48894
889.7302, 24.17511
890.2123, 23.69518
890.6944, 22.34138
891.1765, 21.24264
891.6586, 21.57178
892.1407, 22.92448
892.6229, 23.99206
893.1050, 24.25019
893.5871, 24.62310
894.0692, 26.41384
894.5513, 28.12508
895.0334, 27.41416
895.5156, 25.27017
895.9977, 24.33909
896.4798, 25.28926
896.9619, 26.71381
897.4440, 27.50364
897.9261, 27.68228
898.4083, 27.07534
898.8904, 25.77772
899.3725, 24.81718
899.8546, 24.32495
900.3367, 24.40508
900.8188, 25.22758
901.3010, 26.40970
901.7831, 27.24202
902.2652, 27.72703
902.7473, 27.80873
903.2294, 26.97598
903.7115, 26.64723
904.1937, 27.69569
904.6758, 28.95828
905.1579, 29.58481
905.6400, 29.60546
906.1221, 29.15008
906.6042, 27.99578
907.0864, 26.81073
907.5685, 24.91025
908.0506, 23.87667
908.5327, 25.70887
909.0148, 28.75994
909.4969, 30.30135
909.9791, 29.77063
910.4612, 28.92648
910.9433, 28.81354
911.4254, 29.05248
911.9075, 29.19287
912.3896, 29.40133
912.8718, 30.25821
913.3539, 31.63214
913.8360, 32.36117
914.3181, 31.73895
914.8002, 30.90244
915.2823, 32.08945
915.7645, 32.12640
916.2466, 32.37490
916.7287, 34.17455
917.2108, 33.71197
917.6929, 35.48041
918.1750, 37.50773
918.6572, 37.84104
919.1393, 36.74842
919.6214, 35.66842
920.1035, 33.96519
920.5856, 33.91865
921.0677, 37.10846
921.5499, 39.98753
922.0320, 40.42768
922.5141, 39.81389
922.9962, 40.07721
923.4783, 41.34824
923.9604, 41.95314
924.4426, 40.43897
924.9247, 39.81317
925.4068, 41.69495
925.8889, 44.36615
926.3710, 46.43596
926.8531, 47.97119
927.3353, 49.54042
927.8174, 51.35535
928.2995, 53.10584
928.7816, 54.05051
929.2637, 55.26228
929.7458, 58.53235
930.2280, 62.81970
930.7101, 65.70720
931.1922, 66.88701
931.6743, 67.92057
932.1564, 69.77832
932.6385, 72.70095
933.1207, 77.74897
933.6028, 84.27932
934.0849, 89.32798
934.5670, 92.71168
935.0491, 96.30165
935.5313, 100.8654
936.0134, 106.0952
936.4955, 111.7909
936.9776, 117.8197
937.4597, 122.7060
937.9418, 126.0930
938.4240, 129.8559
938.9061, 134.1423
939.3882, 139.2713
939.8703, 145.8836
940.3524, 153.2367
940.8345, 159.7197
941.3167, 165.1590
941.7988, 170.4386
942.2809, 175.7714
942.7630, 180.6459
943.2451, 185.3723
943.7272, 189.2369
944.2094, 191.6868
944.6915, 192.7496
945.1736, 192.4391
945.6557, 189.9790
946.1378, 188.2573
946.6199, 189.7930
947.1021, 190.9313
947.5842, 189.3505
948.0663, 185.5505
948.5484, 180.1664
949.0305, 173.5300
949.5126, 166.2716
949.9948, 158.6318
950.4769, 150.7005
950.9590, 142.0326
951.4411, 133.3097
951.9232, 125.6697
952.4053, 119.0095
952.8875, 112.4846
953.3696, 105.8111
953.8517, 99.68699
954.3338, 95.15426
954.8159, 89.66808
955.2980, 84.99191
955.7802, 81.00528
956.2623, 76.45520
956.7444, 73.42412
957.2265, 70.34461
957.7086, 66.15258
958.1907, 61.92989
958.6729, 59.80867
959.1550, 59.85096
959.6371, 59.29980
960.1192, 58.15786
960.6013, 56.32824
961.0834, 53.53804
961.5656, 50.52263
962.0477, 47.59296
962.5298, 45.05227
963.0119, 44.07697
963.4940, 45.76379
963.9761, 46.23063
964.4583, 44.88806
964.9404, 43.09539
965.4225, 40.61421
965.9046, 38.37397
966.3867, 37.38346
966.8688, 37.49342
967.3510, 37.71695
967.8331, 38.60505
968.3152, 38.42473
968.7973, 35.48293
969.2794, 32.75183
969.7615, 32.21379
970.2437, 32.93176
970.7258, 33.69526
971.2079, 34.22363
971.6900, 34.31047
972.1721, 33.28564
972.6542, 32.58162
973.1364, 34.10248
973.6185, 35.66449
974.1006, 33.94811
974.5827, 30.33667
975.0648, 28.84499
975.5469, 30.65051
976.0291, 32.79489
976.5112, 32.81606
976.9933, 31.81585
977.4754, 31.06224
977.9575, 30.52019
978.4396, 30.22070
978.9218, 30.07415
979.4039, 29.64117
979.8860, 28.69594
980.3681, 27.64621
980.8502, 26.76503
981.3323, 26.27580
981.8145, 27.57496
982.2966, 30.31432
982.7787, 31.39012
983.2608, 30.11760
983.7429, 28.37972
984.2250, 27.36392
984.7072, 27.06497
985.1893, 27.73577
985.6714, 29.43414
986.1535, 30.05813
986.6356, 29.46572
987.1177, 28.55802
987.5999, 27.45926
988.0820, 26.50222
988.5641, 26.09279
989.0462, 25.94888
989.5283, 24.92252
990.0104, 22.10637
990.4926, 21.51084
990.9747, 24.91977
991.4568, 27.05766
991.9389, 24.92488
992.4210, 22.19067
992.9031, 23.19062
993.3853, 27.12206
993.8674, 28.46263
994.3495, 24.96401
994.8316, 22.70024
995.3137, 22.52746
995.7958, 22.71139
996.2780, 23.03654
996.7601, 23.04955
997.2422, 21.82560
997.7243, 19.60895
998.2064, 18.57262
998.6885, 19.85731
999.1707, 21.19902
999.6528, 22.74412
1000.135, 23.43826
1000.617, 21.93734
1001.099, 19.49561
1001.581, 17.80687
1002.063, 17.12583
1002.545, 17.02374
1003.028, 17.57266
1003.510, 18.28702
1003.992, 19.40119
1004.474, 20.13152
1004.956, 19.17785
1005.438, 17.43123
1005.920, 16.86518
1006.402, 17.84950
1006.885, 18.70320
1007.367, 17.93940
1007.849, 17.12716
1008.331, 18.26258
1008.813, 19.94882
1009.295, 20.13690
1009.777, 19.02604
1010.259, 17.59146
1010.741, 16.27456
1011.224, 15.75492
1011.706, 17.12225
1012.188, 19.09602
1012.670, 19.63332
1013.152, 19.29747
1013.634, 19.47982
1014.116, 20.18820
1014.598, 20.56219
1015.081, 20.22705
1015.563, 19.58916
1016.045, 18.92783
1016.527, 18.43829
1017.009, 18.71144
1017.491, 19.61474
1017.973, 20.72355
1018.455, 21.89463
1018.937, 22.36039
1019.420, 21.69898
1019.902, 20.66509
1020.384, 20.21832
1020.866, 20.30118
1021.348, 20.74166
1021.830, 21.52287
1022.312, 22.08755
1022.794, 22.33098
1023.276, 22.66858
1023.759, 23.36399
1024.241, 24.15147
1024.723, 24.61605
1025.205, 24.77311
1025.687, 24.64413
1026.169, 24.08222
1026.651, 24.68235
1027.133, 27.06588
1027.616, 29.02203
1028.098, 29.03196
1028.580, 28.23396
1029.062, 28.75467
1029.544, 30.65130
1030.026, 31.68563
1030.508, 31.46910
1030.990, 31.91040
1031.473, 33.87210
1031.955, 35.25389
1032.437, 34.38113
1032.919, 32.52379
1033.401, 32.18024
1033.883, 33.56679
1034.365, 34.27486
1034.847, 33.92152
1035.329, 33.75755
1035.812, 34.16358
1036.294, 34.52397
1036.776, 34.11300
1037.258, 33.62346
1037.740, 34.55243
1038.222, 37.20066
1038.704, 39.32216
1039.186, 41.24384
1039.668, 42.07578
1040.151, 40.90558
1040.633, 39.46971
1041.115, 38.92558
1041.597, 38.80614
1042.079, 38.12738
1042.561, 36.72134
1043.043, 35.87120
1043.525, 36.08459
1044.008, 36.17678
1044.490, 36.07458
1044.972, 35.67395
1045.454, 34.57199
1045.936, 33.25913
1046.418, 32.91651
1046.900, 33.85233
1047.382, 33.31112
1047.865, 28.93416
1048.347, 25.95716
1048.829, 27.03953
1049.311, 28.37540
1049.793, 26.99903
1050.275, 24.38770
1050.757, 23.39389
1051.239, 24.39745
1051.721, 24.88528
1052.203, 23.86671
1052.686, 22.98601
1053.168, 22.74007
1053.650, 22.74416
1054.132, 23.00116
1054.614, 23.20218
1055.096, 22.79716
1055.578, 21.72716
1056.060, 20.74787
1056.543, 19.62467
1057.025, 19.21939
1057.507, 20.27760
1057.989, 21.67143
1058.471, 23.07618
1058.953, 24.04382
1059.435, 23.66693
1059.917, 21.95583
1060.400, 20.86266
1060.882, 21.27903
1061.364, 22.04325
1061.846, 23.04553
1062.328, 23.94583
1062.810, 24.57533
1063.292, 24.89670
1063.774, 24.83224
1064.256, 24.40257
1064.739, 23.82924
1065.221, 23.18822
1065.703, 22.41898
1066.185, 20.89960
1066.667, 19.85865
1067.149, 20.66391
1067.631, 22.23558
1068.113, 23.14654
1068.595, 23.19138
1069.078, 22.70119
1069.560, 21.57789
1070.042, 20.39711
1070.524, 19.09125
1071.006, 18.15652
1071.488, 18.06324
1071.970, 18.47078
1072.452, 19.15222
1072.935, 19.89416
1073.417, 19.95461
1073.899, 18.54036
1074.381, 18.08068
1074.863, 21.33999
1075.345, 24.16458
1075.827, 23.24508
1076.309, 20.60036
1076.792, 18.29155
1077.274, 16.77665
1077.756, 16.44726
1078.238, 17.75216
1078.720, 18.66311
1079.202, 17.85091
1079.684, 16.78560
1080.166, 16.14379
1080.648, 15.92787
1081.130, 16.46387
1081.613, 17.33127
1082.095, 17.32370
1082.577, 15.98107
1083.059, 14.93585
1083.541, 15.04623
1084.023, 15.47997
1084.505, 15.95098
1084.987, 16.36005
1085.469, 16.66153
1085.952, 16.82495
1086.434, 16.95160
1086.916, 17.07664
1087.398, 16.35370
1087.880, 13.34970
1088.362, 10.81202
1088.844, 10.31827
1089.326, 10.60867
1089.809, 10.58552
1090.291, 10.54016
1090.773, 11.45403
1091.255, 13.38138
1091.737, 14.46222
1092.219, 13.21600
1092.701, 12.13737
1093.183, 12.48992
1093.666, 13.03905
1094.148, 12.89708
1094.630, 12.37080
1095.112, 11.90799
1095.594, 11.58738
1096.076, 11.43071
1096.558, 11.44495
1097.040, 11.62202
1097.522, 12.03124
1098.005, 12.52129
1098.487, 13.24489
1098.969, 13.83189
1099.451, 13.97740
1099.933, 13.60369
1100.415, 12.43077
1100.897, 9.803905
1101.379, 8.171555
1101.861, 8.836385
1102.344, 9.779094
1102.826, 10.25657
1103.308, 10.52546
1103.790, 10.81354
1104.272, 11.12539
1104.754, 11.41096
1105.236, 11.65567
1105.718, 11.92899
1106.201, 12.91329
1106.683, 13.00990
1107.165, 10.62396
1107.647, 8.329760
1108.129, 7.956703
1108.611, 8.933684
1109.093, 10.49509
1109.575, 12.71677
1110.057, 13.41188
1110.540, 11.20227
1111.022, 9.203296
1111.504, 6.904660
1111.986, 5.998037
1112.468, 8.895724
1112.950, 12.68940
1113.432, 13.16006
1113.914, 10.52996
1114.396, 9.083786
1114.879, 9.589152
1115.361, 9.962835
1115.843, 10.04801
1116.325, 10.20197
1116.807, 10.80183
1117.289, 11.24281
1117.771, 10.72703
1118.253, 9.615520
1118.736, 9.408267
1119.218, 10.73311
1119.700, 10.74607
1120.182, 8.027348
1120.664, 7.165613
1121.146, 10.47702
1121.628, 13.76614
1122.110, 13.97830
1122.593, 12.19026
1123.075, 10.43580
1123.557, 8.643480
1124.039, 8.210299
1124.521, 9.582123
1125.003, 10.75893
1125.485, 11.51308
1125.967, 11.79436
1126.449, 11.52745
1126.932, 10.85231
1127.414, 9.800568
1127.896, 8.568597
1128.378, 8.636857
1128.860, 10.18108
1129.342, 11.39654
1129.824, 12.18765
1130.306, 12.07218
1130.788, 10.69663
1131.271, 9.665891
1131.753, 10.60721
1132.235, 12.63313
1132.717, 13.55901
1133.199, 13.41844
1133.681, 12.50000
1134.163, 10.84417
1134.645, 9.136929
1135.128, 7.558472
1135.610, 6.999414
1136.092, 8.084195
1136.574, 9.865418
1137.056, 11.03801
1137.538, 11.71982
1138.020, 12.45298
1138.502, 13.06149
1138.984, 12.71678
1139.467, 11.38146
1139.949, 9.188006
1140.431, 6.293602
1140.913, 4.494381
1141.395, 5.895551
1141.877, 8.607797
1142.359, 9.594281
1142.841, 9.599050
1143.323, 10.26217
1143.806, 11.30317
1144.288, 11.44176
1144.770, 10.51692
1145.252, 9.479979
1145.734, 8.800117
1146.216, 8.686715
1146.698, 9.863189
1147.180, 11.24660
1147.663, 11.54348
1148.145, 11.19541
1148.627, 10.74807
1149.109, 10.44058
1149.591, 10.83997
1150.073, 12.16253
1150.555, 12.66349
1151.037, 10.10775
1151.520, 7.866301
1152.002, 8.669187
1152.484, 10.27594
1152.966, 10.65144
1153.448, 10.22631
1153.930, 9.873458
1154.412, 9.802686
1154.894, 10.29785
1155.376, 11.93152
1155.859, 13.18451
1156.341, 13.67731
1156.823, 13.58631
1157.305, 12.73863
1157.787, 11.56171
1158.269, 10.32308
1158.751, 9.126494
1159.233, 8.203439
1159.715, 7.547346
1160.198, 7.232589
1160.680, 7.030179
1161.162, 7.525799
1161.644, 9.373577
1162.126, 11.28660
1162.608, 13.03866
1163.090, 13.99301
1163.572, 12.84475
1164.055, 9.739819
1164.537, 8.080961
1165.019, 8.322539
1165.501, 8.568007
1165.983, 8.611149
1166.465, 9.046039
1166.947, 10.28011
1167.429, 11.35594
1167.911, 11.36917
1168.394, 10.71923
1168.876, 10.58214
1169.358, 10.96393
1169.840, 9.483221
1170.322, 6.087956
1170.804, 5.358730
1171.286, 8.181768
1171.768, 11.03070
1172.250, 12.07799
1172.733, 12.14421
1173.215, 12.11351
1173.697, 12.00350
1174.179, 11.91340
1174.661, 11.77466
1175.143, 11.11592
1175.625, 10.15712
1176.107, 10.02558
1176.590, 10.92647
1177.072, 11.84525
1177.554, 12.11602
1178.036, 12.21759
1178.518, 12.88967
1179.000, 13.52833
1179.482, 13.31532
1179.964, 12.51177
1180.447, 11.29193
1180.929, 9.972676
1181.411, 9.244345
1181.893, 9.311004
1182.375, 9.674170
1182.857, 10.18901
1183.339, 10.74050
1183.821, 12.22827
1184.303, 12.74137
1184.786, 8.880397
1185.268, 4.248489
1185.750, 4.633427
1186.232, 9.418540
1186.714, 12.56385
1187.196, 12.46738
1187.678, 12.13180
1188.160, 12.13828
1188.642, 11.85706
1189.125, 10.51551
1189.607, 9.444457
1190.089, 9.824820
1190.571, 10.87051
1191.053, 11.27710
1191.535, 11.04955
1192.017, 10.64635
1192.499, 9.933895
1192.982, 9.462739
1193.464, 9.335536
1193.946, 9.246441
1194.428, 9.100997
1194.910, 8.977034
1195.392, 9.070309
1195.874, 8.924121
1196.356, 6.888873
1196.839, 7.080448
1197.321, 7.227862
1197.803, 6.306658
1198.285, 8.439823
1198.767, 8.954012
1199.249, 9.499659
1199.731, 10.80449
1200.213, 11.61010
1200.695, 10.23110
1201.177, 8.533194
1201.660, 10.55890
1202.142, 14.00914
1202.624, 13.99867
1203.106, 11.62557
1203.588, 10.20300
1204.070, 10.14926
1204.552, 9.766923
1205.034, 8.198293
1205.517, 7.411764
1205.999, 9.675761
1206.481, 12.14305
1206.963, 12.84106
1207.445, 12.69308
1207.927, 12.60783
1208.409, 12.38030
1208.891, 11.20130
1209.374, 9.182413
1209.856, 8.066934
1210.338, 8.567856
1210.820, 9.293078
1211.302, 11.64897
1211.784, 12.03362
1212.266, 6.061327
1212.748, 1.079732
1213.230, 3.427793
1213.713, 9.439291
1214.195, 11.96286
1214.677, 10.96465
1215.159, 10.27815
1215.641, 9.913363
1216.123, 9.780585
1216.605, 9.831313
1217.087, 10.51625
1217.569, 12.16059
1218.052, 13.27628
1218.534, 12.46678
1219.016, 10.69320
1219.498, 9.878499
1219.980, 9.808158
1220.462, 9.441245
1220.944, 8.941226
1221.426, 9.353765
1221.909, 10.47588
1222.391, 10.46245
1222.873, 8.725955
1223.355, 7.058702
1223.837, 6.941643
1224.319, 7.230908
1224.801, 6.332044
1225.283, 5.588275
1225.766, 7.117787
1226.248, 9.454852
1226.730, 10.31542
1227.212, 9.819915
1227.694, 9.187006
1228.176, 8.674300
1228.658, 8.862658
1229.140, 11.31958
1229.622, 12.50113
1230.104, 10.16194
1230.587, 7.630339
1231.069, 6.989783
1231.551, 5.277659
1232.033, 5.715658
1232.515, 3.833265
1232.997, 3.125318
1233.479, 3.498537
1233.961, 5.983365
1234.444, 11.83586
1234.926, 14.54857
1235.408, 12.44233
1235.890, 9.788410
1236.372, 8.568637
1236.854, 8.472658
1237.336, 9.382847
1237.818, 10.62486
1238.301, 10.22532
1238.783, 8.711641
1239.265, 8.083800
1239.747, 8.245147
1240.229, 8.265794
1240.711, 8.173182
1241.193, 9.305676
1241.675, 12.21395
1242.157, 14.53827
1242.640, 13.99409
1243.122, 12.59986
1243.604, 11.68934
1244.086, 11.17249
1244.568, 11.32542
1245.050, 11.57841
1245.532, 10.92742
1246.014, 9.597086
1246.496, 8.882188
1246.979, 9.217485
1247.461, 9.311853
1247.943, 8.661991
1248.425, 8.188305
1248.907, 7.935225
1249.389, 8.070931
1249.871, 8.735745
1250.353, 9.768357
1250.836, 11.14886
1251.318, 12.64186
1251.800, 13.42790
1252.282, 13.49977
1252.764, 12.80534
1253.246, 11.32609
1253.728, 10.31735
1254.210, 9.981201
1254.693, 9.613455
1255.175, 8.893683
1255.657, 7.999660
1256.139, 6.911664
1256.621, 6.269778
1257.103, 7.593848
1257.585, 9.611917
1258.067, 10.22444
1258.549, 9.967319
1259.031, 10.27411
1259.514, 10.85466
1259.996, 9.751623
1260.478, 6.416328
1260.960, 4.507230
1261.442, 6.595428
1261.924, 8.921925
1262.406, 10.51883
1262.888, 11.65551
1263.371, 12.94184
1263.853, 13.40866
1264.335, 11.40223
1264.817, 8.145293
1265.299, 6.657645
1265.781, 7.044944
1266.263, 7.351697
1266.745, 7.544581
1267.228, 7.792720
1267.710, 8.086327
1268.192, 8.846166
1268.674, 10.27342
1269.156, 11.07767
1269.638, 10.10599
1270.120, 8.772970
1270.602, 9.835254
1271.084, 11.92029
1271.567, 11.71033
1272.049, 10.25469
1272.531, 9.786236
1273.013, 10.17480
1273.495, 10.21398
1273.977, 9.769954
1274.459, 10.11978
1274.941, 12.28789
1275.423, 13.66054
1275.906, 12.46918
1276.388, 10.90121
1276.870, 9.594637
1277.352, 8.744866
1277.834, 8.546322
1278.316, 8.847585
1278.798, 9.454892
1279.280, 10.33695
1279.763, 11.36220
1280.245, 12.76919
1280.727, 13.32442
1281.209, 12.98624
1281.691, 11.82971
1282.173, 9.775123
1282.655, 8.104609
1283.137, 7.458179
1283.620, 7.364584
1284.102, 7.311040
1284.584, 7.514018
1285.066, 8.295921
##END=



