##NAMES=Ludwigite
##RRUFFID=R060844
##IDEAL CHEMISTRY=Mg_2_Fe^3+^O_2_(BO_3_)
##LOCALITY=Crestmore, California, USA
##OWNER=RRUFF
##SOURCE=Bob Jenkins
##DESCRIPTION=Black elongated prismatic crystals
##STATUS=The identification of this mineral has been confirmed only by single crystal X-ray diffraction.
##URL=rruff.info/R060844
205.8934, 1012.367
206.3755, 1005.495
206.8576, 1004.811
207.3397, 1003.523
207.8218, 999.2033
208.3040, 991.9107
208.7861, 988.0247
209.2682, 988.0034
209.7503, 990.7795
210.2324, 996.9093
210.7145, 1009.345
211.1967, 1015.242
211.6788, 1008.039
212.1609, 985.8944
212.6430, 974.5685
213.1251, 978.8099
213.6072, 988.6058
214.0893, 988.5991
214.5715, 973.9548
215.0536, 961.7136
215.5357, 958.9504
216.0178, 968.2945
216.4999, 971.2121
216.9820, 964.6708
217.4642, 954.1143
217.9463, 948.8147
218.4284, 950.8729
218.9105, 953.7356
219.3926, 955.1489
219.8747, 954.8739
220.3569, 953.4932
220.8390, 948.9440
221.3211, 944.5182
221.8032, 947.7164
222.2853, 963.5657
222.7674, 977.8144
223.2496, 983.3862
223.7317, 974.8973
224.2138, 973.7415
224.6959, 984.5261
225.1780, 1000.802
225.6601, 1007.094
226.1423, 997.9617
226.6244, 987.6805
227.1065, 982.5563
227.5886, 984.4680
228.0707, 986.9855
228.5528, 990.0012
229.0349, 993.6072
229.5171, 998.1830
229.9992, 1004.595
230.4813, 1010.773
230.9634, 1016.258
231.4455, 1023.375
231.9276, 1024.608
232.4098, 1018.399
232.8919, 1006.129
233.3740, 992.8126
233.8561, 976.5040
234.3382, 961.8131
234.8203, 951.4757
235.3025, 948.8052
235.7846, 943.6068
236.2667, 934.3979
236.7488, 922.2260
237.2309, 911.5012
237.7130, 901.1180
238.1952, 893.7996
238.6773, 891.9958
239.1594, 900.6791
239.6415, 904.2948
240.1236, 899.6015
240.6057, 888.6872
241.0879, 882.2386
241.5700, 883.8514
242.0521, 885.4272
242.5342, 882.2980
243.0163, 873.7463
243.4984, 861.4661
243.9805, 842.5800
244.4627, 819.2775
244.9448, 803.9732
245.4269, 797.5380
245.9090, 798.0214
246.3911, 805.8566
246.8732, 828.8605
247.3554, 842.4796
247.8375, 841.3271
248.3196, 827.9319
248.8017, 819.2347
249.2838, 817.7247
249.7659, 817.8096
250.2481, 815.2460
250.7302, 806.4592
251.2123, 803.4615
251.6944, 811.2341
252.1765, 826.9574
252.6586, 831.3046
253.1408, 818.5128
253.6229, 802.2219
254.1050, 791.5281
254.5871, 788.8048
255.0692, 786.4849
255.5513, 784.5126
256.0334, 782.5189
256.5156, 777.4496
256.9977, 767.0323
257.4798, 756.7032
257.9619, 749.4518
258.4440, 743.4886
258.9261, 745.7601
259.4083, 761.2476
259.8904, 786.8016
260.3725, 799.5809
260.8546, 793.6028
261.3367, 784.4105
261.8188, 784.1739
262.3010, 797.8187
262.7831, 805.6983
263.2652, 802.9810
263.7473, 792.2462
264.2294, 788.4319
264.7115, 792.9726
265.1937, 801.8952
265.6758, 815.0550
266.1579, 836.7480
266.6400, 845.4059
267.1221, 832.6779
267.6042, 804.8533
268.0864, 795.1345
268.5685, 809.9943
269.0506, 828.9138
269.5327, 837.2072
270.0148, 832.7849
270.4969, 826.7650
270.9791, 819.3541
271.4612, 811.5677
271.9433, 808.2357
272.4254, 810.3039
272.9075, 814.2354
273.3896, 818.4097
273.8718, 823.3065
274.3539, 824.8520
274.8360, 821.5426
275.3181, 814.9902
275.8002, 810.7401
276.2823, 809.0954
276.7645, 808.6168
277.2466, 808.1392
277.7287, 807.5050
278.2108, 808.6895
278.6929, 812.5249
279.1750, 817.8396
279.6572, 820.9044
280.1393, 821.2014
280.6214, 821.9224
281.1035, 825.9346
281.5856, 833.2933
282.0677, 839.0319
282.5498, 842.7201
283.0320, 844.3569
283.5141, 843.0941
283.9962, 838.5981
284.4783, 834.4460
284.9604, 834.7973
285.4425, 839.0917
285.9247, 836.9390
286.4068, 825.5474
286.8889, 810.1849
287.3710, 800.7593
287.8531, 797.3162
288.3352, 796.7898
288.8174, 798.6559
289.2995, 802.3633
289.7816, 803.9481
290.2637, 802.1501
290.7458, 800.0422
291.2279, 805.4686
291.7101, 817.6046
292.1922, 824.7742
292.6743, 813.8424
293.1564, 791.5218
293.6385, 782.1870
294.1206, 789.8661
294.6028, 804.7355
295.0849, 815.9101
295.5670, 823.4127
296.0491, 827.2861
296.5312, 825.1171
297.0133, 819.5516
297.4955, 816.6332
297.9776, 817.0154
298.4597, 819.1812
298.9418, 820.7665
299.4239, 822.4975
299.9060, 826.8785
300.3882, 840.4338
300.8703, 855.9354
301.3524, 859.8171
301.8345, 850.3513
302.3166, 837.4877
302.7987, 827.5950
303.2809, 821.3488
303.7630, 820.1299
304.2451, 829.2408
304.7272, 841.5637
305.2093, 848.0837
305.6914, 848.2725
306.1736, 847.3185
306.6557, 848.4508
307.1378, 851.4249
307.6199, 855.7894
308.1020, 865.4208
308.5841, 873.8212
309.0663, 873.3749
309.5484, 864.1346
310.0305, 856.3167
310.5126, 857.0990
310.9947, 862.9537
311.4768, 869.4906
311.9590, 877.6993
312.4411, 884.0621
312.9232, 885.6378
313.4053, 882.7256
313.8874, 878.9622
314.3695, 872.0247
314.8516, 866.8797
315.3337, 868.3329
315.8159, 889.4877
316.2980, 906.0139
316.7801, 903.0184
317.2622, 884.2039
317.7443, 870.5728
318.2264, 873.1198
318.7086, 882.3625
319.1907, 891.9679
319.6728, 904.2197
320.1549, 912.1163
320.6370, 911.6515
321.1191, 904.7888
321.6013, 898.4167
322.0834, 892.4289
322.5655, 888.7126
323.0476, 888.6115
323.5297, 896.0790
324.0118, 901.2216
324.4940, 899.9899
324.9761, 895.2923
325.4582, 894.4140
325.9403, 904.9371
326.4224, 913.7558
326.9045, 915.1991
327.3867, 902.4539
327.8688, 895.4345
328.3509, 898.5659
328.8330, 906.9104
329.3151, 912.0442
329.7972, 909.6772
330.2794, 908.8113
330.7615, 912.5646
331.2436, 922.8547
331.7257, 930.9274
332.2078, 936.7239
332.6899, 940.4297
333.1721, 941.7336
333.6542, 937.4647
334.1363, 936.3734
334.6184, 941.5839
335.1005, 953.6038
335.5826, 963.4493
336.0648, 971.4218
336.5469, 976.8510
337.0290, 977.9739
337.5111, 972.1743
337.9932, 970.4414
338.4753, 976.8632
338.9575, 989.8122
339.4396, 995.9484
339.9217, 993.0492
340.4038, 989.0167
340.8859, 991.4547
341.3680, 1001.226
341.8502, 1007.730
342.3323, 1007.147
342.8144, 1003.367
343.2965, 1009.102
343.7786, 1025.332
344.2607, 1043.588
344.7428, 1060.776
345.2249, 1076.230
345.7071, 1082.385
346.1892, 1075.603
346.6713, 1064.437
347.1534, 1062.984
347.6355, 1070.943
348.1176, 1083.518
348.5998, 1100.319
349.0819, 1119.697
349.5640, 1137.510
350.0461, 1153.841
350.5282, 1167.574
351.0103, 1177.193
351.4925, 1183.198
351.9746, 1187.466
352.4567, 1191.875
352.9388, 1194.620
353.4209, 1189.864
353.9030, 1176.646
354.3852, 1168.641
354.8673, 1184.705
355.3494, 1213.005
355.8315, 1233.278
356.3136, 1232.160
356.7957, 1223.619
357.2779, 1217.845
357.7600, 1214.755
358.2421, 1212.277
358.7242, 1208.697
359.2063, 1205.286
359.6884, 1203.330
360.1706, 1203.377
360.6527, 1204.744
361.1348, 1210.279
361.6169, 1217.950
362.0990, 1219.150
362.5811, 1204.814
363.0633, 1186.813
363.5454, 1172.185
364.0275, 1160.938
364.5096, 1155.210
364.9917, 1160.613
365.4738, 1171.870
365.9560, 1177.349
366.4381, 1170.650
366.9202, 1161.451
367.4023, 1152.644
367.8844, 1143.286
368.3665, 1137.313
368.8487, 1138.575
369.3308, 1142.191
369.8129, 1141.437
370.2950, 1129.588
370.7771, 1122.041
371.2592, 1125.163
371.7414, 1140.822
372.2235, 1144.589
372.7056, 1127.349
373.1877, 1107.250
373.6698, 1102.915
374.1519, 1122.693
374.6340, 1136.453
375.1161, 1137.357
375.5983, 1127.971
376.0804, 1123.335
376.5625, 1124.665
377.0446, 1127.685
377.5267, 1129.514
378.0089, 1130.062
378.4910, 1130.540
378.9731, 1130.974
379.4552, 1131.575
379.9373, 1134.257
380.4194, 1139.385
380.9016, 1140.627
381.3837, 1130.932
381.8658, 1113.160
382.3479, 1102.273
382.8300, 1098.987
383.3121, 1102.467
383.7943, 1116.865
384.2764, 1138.933
384.7585, 1154.996
385.2406, 1153.679
385.7227, 1143.933
386.2048, 1141.941
386.6870, 1147.593
387.1691, 1154.589
387.6512, 1158.839
388.1333, 1160.574
388.6154, 1160.448
389.0975, 1160.980
389.5797, 1157.131
390.0618, 1141.349
390.5439, 1116.073
391.0260, 1092.899
391.5081, 1077.681
391.9902, 1067.707
392.4724, 1061.466
392.9545, 1061.514
393.4366, 1059.480
393.9187, 1047.369
394.4008, 1030.919
394.8829, 1021.225
395.3651, 1029.274
395.8472, 1038.739
396.3293, 1042.568
396.8114, 1039.106
397.2935, 1034.243
397.7756, 1027.054
398.2578, 1019.628
398.7399, 1014.194
399.2220, 1009.652
399.7041, 1008.555
400.1862, 1014.334
400.6683, 1026.783
401.1505, 1030.003
401.6326, 1015.156
402.1147, 999.9584
402.5968, 996.7857
403.0789, 1010.803
403.5610, 1025.377
404.0432, 1041.472
404.5253, 1056.532
405.0074, 1060.713
405.4895, 1049.740
405.9716, 1040.007
406.4537, 1040.649
406.9358, 1052.368
407.4179, 1063.164
407.9001, 1073.275
408.3822, 1081.520
408.8643, 1084.262
409.3464, 1081.709
409.8285, 1083.086
410.3106, 1094.200
410.7928, 1111.360
411.2749, 1123.321
411.7570, 1129.941
412.2391, 1136.198
412.7212, 1149.612
413.2033, 1166.286
413.6855, 1175.237
414.1676, 1169.376
414.6497, 1161.019
415.1318, 1165.281
415.6139, 1179.817
416.0960, 1195.057
416.5782, 1211.606
417.0603, 1222.990
417.5424, 1219.665
418.0245, 1195.859
418.5066, 1174.363
418.9887, 1170.431
419.4709, 1176.678
419.9530, 1181.428
420.4351, 1181.302
420.9172, 1178.065
421.3993, 1171.380
421.8814, 1161.127
422.3636, 1151.864
422.8457, 1144.597
423.3278, 1138.766
423.8099, 1134.053
424.2920, 1134.959
424.7741, 1131.565
425.2563, 1119.335
425.7384, 1101.176
426.2205, 1090.142
426.7026, 1090.901
427.1847, 1092.879
427.6668, 1090.906
428.1490, 1082.018
428.6311, 1079.400
429.1132, 1087.166
429.5953, 1097.148
430.0774, 1094.264
430.5595, 1074.611
431.0417, 1059.801
431.5238, 1058.253
432.0059, 1067.929
432.4880, 1074.052
432.9701, 1076.240
433.4522, 1076.983
433.9344, 1078.502
434.4165, 1080.604
434.8986, 1082.489
435.3807, 1084.846
435.8628, 1085.539
436.3449, 1079.214
436.8270, 1067.142
437.3091, 1056.342
437.7913, 1050.512
438.2734, 1048.801
438.7555, 1052.294
439.2376, 1062.214
439.7197, 1068.646
440.2018, 1058.997
440.6840, 1041.619
441.1661, 1029.388
441.6482, 1032.394
442.1303, 1037.763
442.6124, 1037.073
443.0945, 1031.230
443.5767, 1029.428
444.0588, 1038.862
444.5409, 1051.018
445.0230, 1060.441
445.5051, 1066.973
445.9872, 1069.665
446.4694, 1067.184
446.9515, 1060.881
447.4336, 1053.504
447.9157, 1040.397
448.3978, 1031.562
448.8799, 1031.343
449.3621, 1041.832
449.8442, 1047.349
450.3263, 1044.808
450.8084, 1041.013
451.2905, 1043.903
451.7726, 1056.368
452.2548, 1063.950
452.7369, 1063.418
453.2190, 1056.640
453.7011, 1047.740
454.1832, 1035.802
454.6653, 1029.093
455.1475, 1036.961
455.6296, 1056.047
456.1117, 1066.966
456.5938, 1067.382
457.0759, 1063.230
457.5580, 1059.836
458.0402, 1057.663
458.5223, 1058.228
459.0044, 1064.313
459.4865, 1072.174
459.9686, 1078.571
460.4507, 1083.271
460.9329, 1084.496
461.4150, 1075.255
461.8971, 1064.654
462.3792, 1062.571
462.8613, 1076.308
463.3434, 1089.456
463.8256, 1094.515
464.3077, 1093.586
464.7898, 1090.947
465.2719, 1082.460
465.7540, 1077.316
466.2361, 1081.250
466.7183, 1096.992
467.2004, 1106.375
467.6825, 1100.571
468.1646, 1092.760
468.6467, 1093.910
469.1288, 1115.236
469.6109, 1125.521
470.0930, 1116.583
470.5752, 1095.298
471.0573, 1086.730
471.5394, 1095.349
472.0215, 1105.100
472.5036, 1107.255
472.9857, 1101.291
473.4679, 1098.814
473.9500, 1100.339
474.4321, 1103.778
474.9142, 1107.476
475.3963, 1111.221
475.8784, 1113.150
476.3606, 1111.694
476.8427, 1109.038
477.3248, 1109.308
477.8069, 1112.196
478.2890, 1115.394
478.7711, 1117.946
479.2533, 1119.688
479.7354, 1120.290
480.2175, 1119.549
480.6996, 1118.277
481.1817, 1117.921
481.6638, 1117.195
482.1460, 1114.125
482.6281, 1105.558
483.1102, 1096.717
483.5923, 1087.620
484.0744, 1078.637
484.5565, 1076.332
485.0387, 1092.094
485.5208, 1107.857
486.0029, 1112.595
486.4850, 1094.767
486.9671, 1083.985
487.4492, 1082.116
487.9314, 1086.604
488.4135, 1093.791
488.8956, 1106.486
489.3777, 1115.329
489.8598, 1116.979
490.3419, 1111.875
490.8241, 1104.795
491.3062, 1094.217
491.7883, 1087.481
492.2704, 1096.495
492.7525, 1118.414
493.2346, 1124.889
493.7168, 1106.397
494.1989, 1082.105
494.6810, 1084.096
495.1631, 1106.743
495.6452, 1126.736
496.1273, 1129.974
496.6095, 1124.687
497.0916, 1119.596
497.5737, 1115.031
498.0558, 1111.216
498.5379, 1109.292
499.0200, 1107.801
499.5021, 1104.947
499.9843, 1095.991
500.4664, 1091.728
500.9485, 1099.835
501.4306, 1115.482
501.9127, 1127.103
502.3948, 1131.268
502.8770, 1132.305
503.3591, 1130.427
503.8412, 1124.816
504.3233, 1122.343
504.8054, 1125.063
505.2875, 1128.850
505.7697, 1130.818
506.2518, 1131.673
506.7339, 1127.266
507.2160, 1113.853
507.6981, 1097.600
508.1802, 1095.843
508.6624, 1109.736
509.1445, 1123.809
509.6266, 1132.390
510.1087, 1135.234
510.5908, 1128.057
511.0729, 1110.100
511.5551, 1094.231
512.0372, 1096.302
512.5193, 1108.677
513.0014, 1115.801
513.4835, 1111.055
513.9656, 1104.560
514.4478, 1106.406
514.9299, 1113.149
515.4120, 1116.164
515.8941, 1105.825
516.3762, 1095.311
516.8583, 1093.273
517.3405, 1101.284
517.8226, 1106.690
518.3047, 1103.288
518.7868, 1098.169
519.2689, 1096.958
519.7510, 1102.066
520.2332, 1108.165
520.7153, 1116.955
521.1974, 1125.960
521.6795, 1128.092
522.1616, 1120.217
522.6437, 1113.431
523.1259, 1112.210
523.6080, 1116.220
524.0901, 1120.928
524.5722, 1127.201
525.0543, 1130.147
525.5364, 1121.646
526.0186, 1104.880
526.5007, 1095.389
526.9828, 1097.595
527.4649, 1104.384
527.9470, 1107.783
528.4291, 1108.393
528.9113, 1108.180
529.3934, 1105.890
529.8755, 1104.735
530.3576, 1108.571
530.8397, 1117.201
531.3218, 1124.635
531.8040, 1129.484
532.2861, 1131.162
532.7682, 1128.390
533.2503, 1113.239
533.7324, 1106.394
534.2145, 1119.806
534.6967, 1141.130
535.1788, 1148.533
535.6609, 1128.786
536.1430, 1115.708
536.6251, 1120.695
537.1072, 1141.712
537.5894, 1149.656
538.0715, 1141.293
538.5536, 1129.444
539.0357, 1120.631
539.5178, 1115.096
539.9999, 1120.476
540.4821, 1139.652
540.9642, 1161.696
541.4463, 1173.290
541.9284, 1175.865
542.4105, 1174.790
542.8926, 1171.170
543.3748, 1165.636
543.8569, 1157.580
544.3390, 1147.768
544.8210, 1139.651
545.3032, 1132.887
545.7853, 1129.956
546.2674, 1134.515
546.7495, 1149.877
547.2316, 1160.800
547.7137, 1158.169
548.1959, 1151.209
548.6780, 1149.594
549.1601, 1161.115
549.6422, 1169.046
550.1243, 1171.743
550.6064, 1169.774
551.0886, 1163.811
551.5707, 1150.512
552.0528, 1141.359
552.5349, 1142.690
553.0170, 1154.119
553.4991, 1164.581
553.9813, 1174.495
554.4634, 1181.245
554.9455, 1180.238
555.4276, 1173.455
555.9097, 1168.298
556.3918, 1165.942
556.8740, 1166.366
557.3561, 1172.402
557.8382, 1181.397
558.3203, 1186.847
558.8024, 1179.819
559.2845, 1172.927
559.7667, 1177.705
560.2488, 1193.251
560.7309, 1202.158
561.2130, 1191.215
561.6951, 1177.036
562.1772, 1169.765
562.6594, 1174.224
563.1415, 1178.589
563.6236, 1183.582
564.1057, 1187.794
564.5878, 1188.927
565.0699, 1185.325
565.5521, 1183.368
566.0342, 1184.988
566.5163, 1188.950
566.9984, 1190.411
567.4805, 1189.132
567.9626, 1188.435
568.4448, 1191.410
568.9269, 1196.459
569.4090, 1198.612
569.8911, 1197.516
570.3732, 1195.976
570.8553, 1196.372
571.3375, 1197.989
571.8196, 1199.741
572.3017, 1201.323
572.7838, 1203.045
573.2659, 1205.292
573.7480, 1207.786
574.2302, 1210.019
574.7123, 1214.549
575.1944, 1216.114
575.6765, 1211.014
576.1586, 1199.199
576.6407, 1192.023
577.1229, 1191.769
577.6050, 1193.280
578.0871, 1193.772
578.5692, 1193.064
579.0513, 1191.939
579.5334, 1189.844
580.0156, 1188.569
580.4977, 1190.845
580.9798, 1196.446
581.4619, 1203.503
581.9440, 1214.049
582.4261, 1222.520
582.9083, 1216.007
583.3904, 1197.991
583.8725, 1182.932
584.3546, 1181.614
584.8367, 1185.120
585.3188, 1185.278
585.8010, 1181.385
586.2831, 1180.047
586.7652, 1188.044
587.2473, 1197.308
587.7294, 1201.687
588.2115, 1196.390
588.6937, 1191.966
589.1758, 1188.615
589.6579, 1186.522
590.1400, 1186.757
590.6221, 1192.057
591.1042, 1192.254
591.5864, 1182.093
592.0685, 1165.732
592.5506, 1161.258
593.0327, 1169.350
593.5148, 1180.728
593.9969, 1193.805
594.4791, 1205.457
594.9612, 1204.605
595.4433, 1190.236
595.9254, 1175.134
596.4075, 1168.122
596.8896, 1167.816
597.3718, 1173.567
597.8539, 1191.076
598.3360, 1203.724
598.8181, 1197.959
599.3002, 1182.714
599.7823, 1174.356
600.2645, 1186.342
600.7466, 1194.622
601.2287, 1189.259
601.7108, 1172.560
602.1929, 1169.413
602.6750, 1188.686
603.1572, 1205.514
603.6393, 1205.173
604.1214, 1186.336
604.6035, 1170.873
605.0856, 1158.387
605.5677, 1150.779
606.0498, 1153.683
606.5319, 1163.753
607.0140, 1167.890
607.4962, 1161.031
607.9783, 1152.329
608.4604, 1150.439
608.9425, 1154.155
609.4246, 1160.880
609.9067, 1174.787
610.3889, 1186.634
610.8710, 1191.497
611.3531, 1189.680
611.8352, 1185.019
612.3173, 1175.187
612.7994, 1165.340
613.2816, 1156.624
613.7637, 1147.451
614.2458, 1147.859
614.7279, 1163.863
615.2100, 1180.277
615.6921, 1179.920
616.1743, 1161.689
616.6564, 1146.942
617.1385, 1138.190
617.6206, 1135.264
618.1027, 1141.086
618.5848, 1153.372
619.0670, 1163.265
619.5491, 1170.724
620.0312, 1171.064
620.5133, 1150.747
620.9954, 1115.822
621.4775, 1094.490
621.9597, 1115.203
622.4418, 1141.801
622.9239, 1151.645
623.4060, 1138.231
623.8881, 1131.552
624.3702, 1139.791
624.8524, 1151.922
625.3345, 1160.343
625.8166, 1163.954
626.2987, 1166.549
626.7808, 1167.526
627.2629, 1168.763
627.7451, 1174.759
628.2272, 1185.343
628.7093, 1192.737
629.1914, 1194.611
629.6735, 1191.875
630.1556, 1183.297
630.6378, 1170.616
631.1199, 1161.416
631.6020, 1161.577
632.0841, 1165.986
632.5662, 1170.776
633.0483, 1175.696
633.5305, 1181.762
634.0126, 1191.732
634.4947, 1201.206
634.9768, 1207.086
635.4589, 1207.191
635.9410, 1207.705
636.4232, 1208.953
636.9053, 1210.293
637.3874, 1210.356
637.8695, 1208.348
638.3516, 1209.619
638.8337, 1216.086
639.3159, 1224.870
639.7980, 1231.458
640.2801, 1235.686
640.7622, 1236.316
641.2443, 1227.229
641.7264, 1217.461
642.2086, 1221.073
642.6907, 1235.871
643.1728, 1248.334
643.6549, 1250.259
644.1370, 1248.292
644.6191, 1246.271
645.1013, 1244.443
645.5834, 1243.628
646.0655, 1242.580
646.5476, 1243.598
647.0297, 1249.222
647.5118, 1263.609
647.9940, 1270.673
648.4761, 1266.323
648.9582, 1258.890
649.4403, 1263.826
649.9224, 1280.584
650.4045, 1292.486
650.8867, 1293.224
651.3688, 1288.590
651.8509, 1286.403
652.3330, 1286.751
652.8151, 1290.053
653.2972, 1299.736
653.7794, 1309.962
654.2615, 1315.077
654.7436, 1315.372
655.2257, 1318.693
655.7078, 1331.754
656.1899, 1345.182
656.6721, 1353.215
657.1542, 1353.614
657.6363, 1356.353
658.1184, 1361.698
658.6005, 1368.966
659.0826, 1377.218
659.5648, 1386.331
660.0469, 1399.104
660.5290, 1417.512
661.0111, 1435.434
661.4932, 1442.817
661.9753, 1441.919
662.4575, 1439.209
662.9396, 1432.609
663.4217, 1430.303
663.9038, 1443.640
664.3859, 1467.684
664.8680, 1487.555
665.3502, 1491.405
665.8323, 1496.035
666.3144, 1512.158
666.7965, 1540.652
667.2786, 1554.343
667.7607, 1542.488
668.2428, 1530.294
668.7249, 1532.379
669.2070, 1550.855
669.6891, 1561.522
670.1713, 1562.933
670.6534, 1562.596
671.1355, 1570.289
671.6176, 1582.777
672.0997, 1588.811
672.5818, 1585.692
673.0640, 1578.700
673.5461, 1570.380
674.0282, 1562.040
674.5103, 1555.530
674.9924, 1553.116
675.4745, 1551.022
675.9567, 1549.866
676.4388, 1548.299
676.9209, 1542.300
677.4030, 1530.526
677.8851, 1516.086
678.3672, 1497.027
678.8494, 1475.434
679.3315, 1469.381
679.8136, 1482.128
680.2957, 1489.900
680.7778, 1472.543
681.2599, 1438.951
681.7421, 1416.559
682.2242, 1405.678
682.7063, 1400.060
683.1884, 1402.618
683.6705, 1403.747
684.1526, 1391.318
684.6348, 1359.711
685.1169, 1328.098
685.5990, 1300.054
686.0811, 1277.240
686.5632, 1261.760
687.0453, 1260.250
687.5275, 1254.695
688.0096, 1243.728
688.4917, 1228.798
688.9738, 1209.995
689.4559, 1186.663
689.9380, 1169.367
690.4202, 1163.787
690.9023, 1162.553
691.3844, 1149.883
691.8665, 1128.417
692.3486, 1108.925
692.8307, 1096.483
693.3129, 1088.582
693.7950, 1085.123
694.2771, 1085.242
694.7592, 1083.291
695.2413, 1073.766
695.7234, 1064.820
696.2056, 1062.177
696.6877, 1067.624
697.1698, 1065.014
697.6519, 1050.900
698.1340, 1034.915
698.6161, 1024.179
699.0983, 1018.659
699.5804, 1014.475
700.0625, 1011.825
700.5446, 1008.486
701.0267, 1000.214
701.5089, 989.7881
701.9910, 983.3311
702.4731, 984.3345
702.9552, 984.7150
703.4373, 976.6030
703.9194, 965.3113
704.4016, 958.5275
704.8837, 967.9536
705.3658, 969.8246
705.8479, 954.1882
706.3300, 929.8933
706.8121, 919.8526
707.2943, 929.2315
707.7764, 935.9058
708.2585, 931.3879
708.7406, 919.9637
709.2227, 917.7273
709.7048, 923.7176
710.1870, 926.9890
710.6691, 914.6335
711.1512, 899.5470
711.6333, 899.6755
712.1154, 914.2393
712.5975, 925.3913
713.0797, 919.8181
713.5618, 911.8695
714.0439, 911.4371
714.5260, 923.1313
715.0081, 928.1874
715.4902, 923.9669
715.9724, 915.9487
716.4545, 906.7986
716.9366, 895.6979
717.4187, 891.9389
717.9008, 897.4368
718.3829, 904.9820
718.8651, 905.7967
719.3472, 901.8474
719.8293, 898.0955
720.3114, 895.5443
720.7935, 894.0323
721.2756, 893.7636
721.7578, 894.4041
722.2399, 895.4509
722.7220, 899.9658
723.2041, 901.0746
723.6862, 895.5289
724.1683, 886.0273
724.6505, 878.1555
725.1326, 871.4346
725.6147, 867.9854
726.0968, 869.5402
726.5789, 874.1588
727.0610, 876.2870
727.5432, 875.9726
728.0253, 873.7653
728.5074, 869.0500
728.9895, 863.1711
729.4716, 857.2267
729.9537, 851.4012
730.4358, 846.9271
730.9179, 845.9854
731.4000, 845.1488
731.8821, 841.0751
732.3643, 832.2103
732.8464, 831.6561
733.3285, 846.2571
733.8106, 859.3690
734.2927, 858.9644
734.7748, 844.2068
735.2570, 833.6591
735.7391, 827.6750
736.2212, 824.9520
736.7033, 826.4633
737.1854, 829.8702
737.6675, 829.3455
738.1497, 822.5617
738.6318, 818.4654
739.1139, 828.2411
739.5960, 841.2494
740.0781, 846.0920
740.5602, 831.1125
741.0424, 821.0788
741.5245, 820.6256
742.0066, 823.7808
742.4887, 821.0480
742.9708, 810.1910
743.4529, 806.6307
743.9351, 815.8551
744.4172, 828.7529
744.8993, 826.8012
745.3814, 813.6437
745.8635, 803.8659
746.3456, 805.2806
746.8278, 809.8062
747.3099, 810.8787
747.7920, 809.7881
748.2741, 798.8849
748.7562, 811.9692
749.2383, 818.6843
749.7205, 819.3719
750.2026, 795.9814
750.6847, 803.6833
751.1668, 798.9246
751.6489, 793.6551
752.1310, 805.7333
752.6132, 785.8444
753.0953, 797.6475
753.5774, 796.7998
754.0595, 801.7420
754.5416, 794.1467
755.0237, 790.4240
755.5059, 799.2422
755.9880, 801.1168
756.4701, 792.0782
756.9522, 797.3884
757.4343, 777.0620
757.9164, 777.2800
758.3986, 773.8149
758.8807, 774.7819
759.3628, 782.3001
759.8449, 789.9380
760.3270, 793.3928
760.8091, 792.7625
761.2913, 786.4507
761.7734, 773.6738
762.2555, 764.0195
762.7376, 770.7127
763.2197, 784.2046
763.7018, 790.7923
764.1840, 786.1945
764.6661, 781.5059
765.1482, 783.5190
765.6303, 786.4404
766.1124, 784.2063
766.5945, 771.3506
767.0767, 763.7516
767.5588, 762.7075
768.0409, 765.6354
768.5230, 771.0287
769.0051, 778.3932
769.4872, 781.1242
769.9694, 777.5941
770.4515, 770.1353
770.9336, 755.3934
771.4157, 739.8630
771.8978, 735.9875
772.3799, 762.2874
772.8621, 782.0572
773.3442, 774.4067
773.8263, 752.6186
774.3084, 742.3261
774.7905, 751.7303
775.2726, 758.4081
775.7548, 758.0759
776.2369, 753.6312
776.7190, 752.1144
777.2011, 753.3462
777.6832, 753.6190
778.1653, 750.8703
778.6475, 747.4052
779.1296, 747.1623
779.6117, 748.7525
780.0938, 748.3884
780.5759, 742.3452
781.0580, 736.0734
781.5402, 731.5217
782.0223, 728.6054
782.5044, 726.1604
782.9865, 723.1867
783.4686, 722.8698
783.9507, 727.5674
784.4329, 735.3116
784.9150, 738.7830
785.3971, 738.0436
785.8792, 734.6426
786.3613, 725.5857
786.8434, 716.7018
787.3256, 716.8739
787.8077, 724.6520
788.2898, 731.9581
788.7719, 734.7403
789.2540, 736.6086
789.7361, 740.9920
790.2183, 747.6855
790.7004, 745.5693
791.1825, 730.7921
791.6646, 715.4797
792.1467, 703.9692
792.6288, 696.7993
793.1109, 699.4504
793.5930, 711.6198
794.0751, 724.1140
794.5573, 732.1149
795.0394, 735.6920
795.5215, 733.9144
796.0036, 726.8711
796.4857, 718.2638
796.9678, 703.8866
797.4500, 693.3724
797.9321, 692.6301
798.4142, 702.9448
798.8963, 712.5787
799.3784, 722.7213
799.8605, 729.1649
800.3427, 726.4709
800.8248, 717.3306
801.3069, 713.8452
801.7890, 716.5849
802.2711, 718.6174
802.7532, 712.0947
803.2354, 703.8096
803.7175, 687.6527
804.1996, 701.7865
804.6817, 709.5510
805.1638, 711.2884
805.6459, 688.9471
806.1281, 697.6984
806.6102, 693.9893
807.0923, 689.7692
807.5744, 702.8967
808.0565, 684.0577
808.5386, 696.9101
809.0208, 697.1118
809.5029, 703.1034
809.9850, 696.5576
810.4671, 693.8842
810.9492, 703.7523
811.4313, 706.6761
811.9135, 698.6869
812.3956, 705.0466
812.8777, 685.7696
813.3598, 688.9891
813.8419, 683.9023
814.3240, 684.5295
814.8062, 695.0770
815.2883, 703.6526
815.7704, 710.1205
816.2525, 711.1599
816.7346, 697.2874
817.2167, 677.6723
817.6989, 667.4535
818.1810, 670.1559
818.6631, 678.0809
819.1452, 694.3837
819.6273, 710.2514
820.1094, 717.1072
820.5916, 710.4550
821.0737, 706.4631
821.5558, 706.9470
822.0379, 706.7845
822.5200, 697.7455
823.0021, 682.1938
823.4843, 676.9058
823.9664, 684.8731
824.4485, 694.4546
824.9306, 693.1389
825.4127, 688.2202
825.8948, 688.6815
826.3770, 698.0505
826.8591, 707.6808
827.3412, 716.8552
827.8233, 724.4825
828.3054, 729.8391
828.7875, 733.3423
829.2697, 731.5687
829.7518, 722.7123
830.2339, 714.5302
830.7160, 719.7980
831.1981, 731.4888
831.6802, 729.9402
832.1624, 709.6715
832.6445, 691.8531
833.1266, 693.5623
833.6087, 702.3854
834.0908, 707.0151
834.5729, 703.0580
835.0551, 700.5250
835.5372, 698.7153
836.0193, 699.3414
836.5014, 707.0137
836.9835, 721.2280
837.4656, 722.1995
837.9478, 706.8536
838.4299, 691.4066
838.9120, 693.3325
839.3941, 703.6694
839.8762, 710.6836
840.3583, 711.7569
840.8405, 711.9454
841.3226, 713.7507
841.8047, 714.6324
842.2868, 712.8456
842.7689, 708.0464
843.2510, 700.8524
843.7332, 690.0226
844.2153, 680.8044
844.6974, 678.4742
845.1795, 681.7719
845.6616, 688.6849
846.1437, 699.3737
846.6259, 707.0656
847.1080, 702.5735
847.5901, 696.0076
848.0722, 696.8962
848.5543, 710.6445
849.0364, 717.3091
849.5186, 714.2254
850.0007, 707.3199
850.4828, 697.9206
850.9649, 686.3705
851.4470, 688.3120
851.9291, 704.8969
852.4113, 721.2003
852.8933, 725.3967
853.3754, 722.1204
853.8575, 715.6501
854.3397, 706.3628
854.8218, 697.5107
855.3039, 687.8348
855.7860, 681.1309
856.2681, 680.1089
856.7502, 685.3193
857.2324, 688.6287
857.7145, 689.7634
858.1966, 690.1381
858.6787, 690.0658
859.1608, 690.1213
859.6429, 693.0878
860.1251, 698.5106
860.6072, 700.6616
861.0893, 690.5467
861.5714, 680.7329
862.0535, 680.4545
862.5356, 691.1435
863.0178, 697.0417
863.4999, 696.2512
863.9820, 694.2711
864.4641, 693.1677
864.9462, 693.0430
865.4283, 695.1473
865.9105, 699.2373
866.3926, 702.8224
866.8747, 705.2878
867.3568, 705.7848
867.8389, 700.8198
868.3210, 692.0407
868.8032, 689.2065
869.2853, 702.0154
869.7674, 713.0216
870.2495, 719.1044
870.7316, 719.7154
871.2137, 708.4344
871.6959, 684.6093
872.1780, 668.4507
872.6601, 673.5199
873.1422, 687.4008
873.6243, 694.0265
874.1064, 694.9465
874.5886, 694.8962
875.0707, 696.9833
875.5528, 697.1202
876.0349, 691.9503
876.5170, 684.0610
876.9991, 679.8359
877.4813, 679.8841
877.9634, 680.6976
878.4455, 680.4294
878.9276, 681.9655
879.4097, 693.3458
879.8918, 710.9814
880.3740, 725.1294
880.8561, 733.1261
881.3382, 735.3634
881.8203, 727.3936
882.3024, 715.0862
882.7845, 708.6739
883.2667, 711.6697
883.7488, 713.9399
884.2309, 714.9034
884.7130, 714.0536
885.1951, 708.7844
885.6772, 700.6160
886.1594, 696.5402
886.6415, 698.8525
887.1236, 702.7706
887.6057, 705.0285
888.0878, 706.5412
888.5699, 708.5823
889.0521, 714.6770
889.5342, 714.4319
890.0163, 703.4636
890.4984, 691.5383
890.9805, 687.8030
891.4626, 691.8535
891.9448, 697.7571
892.4269, 705.3923
892.9090, 710.2381
893.3911, 705.2599
893.8732, 696.8572
894.3553, 691.7546
894.8375, 690.8618
895.3196, 693.0350
895.8017, 705.3323
896.2838, 712.9572
896.7659, 705.3276
897.2480, 682.0882
897.7302, 674.2123
898.2123, 682.6446
898.6944, 692.6802
899.1765, 694.1673
899.6586, 690.9040
900.1407, 686.5626
900.6229, 681.6708
901.1050, 678.7457
901.5871, 678.7767
902.0692, 681.1370
902.5513, 687.1848
903.0334, 695.5508
903.5156, 697.7521
903.9977, 693.0259
904.4798, 687.5557
904.9619, 681.5735
905.4440, 678.6998
905.9261, 691.8060
906.4083, 713.5209
906.8904, 723.6417
907.3725, 696.9689
907.8546, 675.0821
908.3367, 678.3652
908.8188, 695.4946
909.3010, 703.0892
909.7831, 698.2266
910.2652, 696.8196
910.7473, 702.9443
911.2294, 711.2966
911.7115, 714.2103
912.1937, 712.9584
912.6758, 710.2653
913.1579, 705.7704
913.6400, 702.7147
914.1221, 704.6948
914.6042, 707.7703
915.0863, 707.5021
915.5684, 702.4066
916.0505, 697.8804
916.5327, 693.9512
917.0148, 690.9080
917.4969, 687.9211
917.9790, 686.1732
918.4611, 690.6796
918.9432, 702.3492
919.4254, 710.4291
919.9075, 701.8892
920.3896, 692.2903
920.8717, 695.4020
921.3538, 713.7931
921.8359, 721.3321
922.3181, 713.2917
922.8002, 708.1942
923.2823, 708.9700
923.7644, 721.9948
924.2465, 728.6503
924.7286, 729.2789
925.2108, 705.8284
925.6929, 713.4710
926.1750, 708.6529
926.6571, 703.3239
927.1392, 715.3424
927.6213, 695.3945
928.1035, 707.1376
928.5856, 706.2306
929.0677, 711.1132
929.5498, 703.4584
930.0319, 699.6761
930.5140, 708.4354
930.9962, 699.8879
931.4783, 699.7566
931.9604, 700.5544
932.4425, 704.8873
932.9246, 709.8882
933.4067, 711.0840
933.8889, 705.3510
934.3710, 703.4330
934.8531, 707.4427
935.3352, 711.8408
935.8173, 707.6731
936.2994, 698.4917
936.7816, 695.8703
937.2637, 701.7780
937.7458, 709.2192
938.2279, 712.9521
938.7100, 716.8556
939.1921, 725.1969
939.6743, 739.3909
940.1564, 747.9711
940.6385, 750.3719
941.1206, 748.5349
941.6027, 740.3277
942.0848, 729.2082
942.5670, 727.8116
943.0491, 734.6370
943.5312, 740.9579
944.0133, 739.1391
944.4954, 738.1027
944.9775, 745.3733
945.4597, 758.0521
945.9418, 762.4105
946.4239, 755.2507
946.9060, 749.5500
947.3881, 749.0325
947.8702, 750.8546
948.3524, 746.6646
948.8345, 740.5703
949.3166, 744.5483
949.7987, 769.7721
950.2808, 792.3007
950.7629, 799.3428
951.2451, 797.5624
951.7272, 794.4962
952.2093, 788.5929
952.6914, 786.8181
953.1735, 789.5507
953.6556, 795.9202
954.1378, 810.0962
954.6199, 825.6319
955.1020, 828.1027
955.5841, 816.0226
956.0662, 803.3209
956.5483, 794.6272
957.0305, 789.3568
957.5126, 788.5789
957.9947, 791.8157
958.4768, 789.8325
958.9589, 781.5439
959.4410, 775.9205
959.9232, 781.5305
960.4053, 789.2383
960.8874, 781.8475
961.3695, 763.5309
961.8516, 746.7361
962.3337, 733.4203
962.8159, 726.2983
963.2980, 731.2330
963.7801, 740.0062
964.2622, 737.8699
964.7443, 723.5915
965.2264, 712.4643
965.7086, 707.0366
966.1907, 705.7928
966.6728, 709.2753
967.1549, 714.8940
967.6370, 719.0825
968.1191, 721.0831
968.6013, 721.9891
969.0834, 721.8666
969.5655, 720.9469
970.0476, 719.5626
970.5297, 717.7064
971.0118, 712.0269
971.4940, 702.5740
971.9761, 697.0969
972.4582, 704.4370
972.9403, 715.4565
973.4224, 723.3394
973.9045, 727.6205
974.3867, 727.6669
974.8688, 719.9232
975.3509, 713.3932
975.8330, 710.1526
976.3151, 709.1096
976.7972, 708.4000
977.2793, 707.8080
977.7614, 705.5323
978.2435, 699.1744
978.7256, 695.5933
979.2078, 702.0750
979.6899, 713.1567
980.1720, 722.9152
980.6541, 732.6191
981.1362, 735.8036
981.6183, 731.5493
982.1005, 723.0753
982.5826, 708.8429
983.0647, 693.1173
983.5468, 691.0668
984.0289, 702.7331
984.5110, 714.6047
984.9932, 722.7715
985.4753, 725.5086
985.9574, 716.5715
986.4395, 699.9918
986.9216, 697.8749
987.4037, 713.2920
987.8859, 727.1333
988.3680, 732.4708
988.8501, 733.2437
989.3322, 736.5381
989.8143, 739.9075
990.2964, 737.9450
990.7786, 721.9653
991.2607, 710.9922
991.7428, 714.2365
992.2249, 720.5972
992.7070, 718.2141
993.1891, 706.2677
993.6713, 702.9240
994.1534, 709.6579
994.6355, 718.4609
995.1176, 721.9630
995.5997, 724.1169
996.0818, 730.9015
996.5640, 742.6240
997.0461, 747.1138
997.5282, 739.3901
998.0103, 729.5198
998.4924, 718.8746
998.9745, 709.6170
999.4567, 709.9739
999.9388, 718.5057
1000.421, 728.1552
1000.903, 739.8650
1001.385, 746.2040
1001.867, 735.3313
1002.349, 718.5737
1002.831, 714.2955
1003.314, 730.5476
1003.796, 738.2502
1004.278, 734.2727
1004.760, 727.9210
1005.242, 729.7997
1005.724, 735.9313
1006.206, 737.4484
1006.688, 733.6229
1007.171, 730.9614
1007.653, 734.7495
1008.135, 738.0162
1008.617, 738.1346
1009.099, 735.1027
1009.581, 725.9146
1010.063, 709.8399
1010.545, 704.2021
1011.027, 721.0370
1011.510, 742.9681
1011.992, 749.8636
1012.474, 747.2932
1012.956, 744.7305
1013.438, 746.1230
1013.920, 744.9968
1014.402, 739.1455
1014.884, 733.7311
1015.367, 736.3787
1015.849, 744.6640
1016.331, 742.6153
1016.813, 729.4208
1017.295, 719.4896
1017.777, 726.5790
1018.259, 737.0253
1018.741, 743.3385
1019.223, 745.0287
1019.706, 741.0632
1020.188, 729.1627
1020.670, 720.6370
1021.152, 719.6871
1021.634, 723.3762
1022.116, 729.3907
1022.598, 735.7239
1023.080, 737.9904
1023.563, 732.5388
1024.045, 726.9595
1024.527, 721.1382
1025.009, 717.6292
1025.491, 718.9173
1025.973, 725.0020
1026.455, 734.4775
1026.937, 747.3895
1027.419, 756.4120
1027.901, 752.6626
1028.384, 745.1055
1028.866, 740.6518
1029.348, 739.4237
1029.830, 739.6086
1030.312, 741.8245
1030.794, 743.3624
1031.276, 743.0618
1031.758, 742.6334
1032.241, 748.1462
1032.723, 755.9100
1033.205, 754.4960
1033.687, 735.2888
1034.169, 723.1949
1034.651, 735.9476
1035.133, 755.2699
1035.615, 768.0316
1036.098, 773.9664
1036.580, 774.4872
1037.062, 769.4412
1037.544, 762.1545
1038.026, 753.1671
1038.508, 744.3714
1038.990, 734.4343
1039.472, 725.9152
1039.954, 728.3733
1040.437, 757.1993
1040.919, 773.1841
1041.401, 767.5059
1041.883, 752.4218
1042.365, 745.1700
1042.847, 744.5581
1043.329, 747.7487
1043.811, 755.1174
1044.293, 759.7510
1044.776, 755.6420
1045.258, 749.1857
1045.740, 744.4097
1046.222, 741.3575
1046.704, 739.2111
1047.186, 738.0126
1047.668, 737.2516
1048.150, 736.6578
1048.633, 736.3502
1049.115, 735.7303
1049.597, 735.6345
1050.079, 737.7620
1050.561, 747.2724
1051.043, 751.3804
1051.525, 746.3303
1052.007, 740.7463
1052.490, 746.0330
1052.972, 758.8724
1053.454, 767.4825
1053.936, 770.8729
1054.418, 770.3290
1054.900, 760.1607
1055.382, 752.5568
1055.864, 756.9305
1056.346, 769.6149
1056.828, 775.9455
1057.311, 775.5629
1057.793, 772.7814
1058.275, 768.1663
1058.757, 763.4873
1059.239, 761.1365
1059.721, 759.8748
1060.203, 758.0006
1060.685, 755.0122
1061.168, 751.7111
1061.650, 747.9001
1062.132, 744.3882
1062.614, 739.9124
1063.096, 736.3546
1063.578, 744.4913
1064.060, 761.4344
1064.542, 771.7836
1065.025, 761.6475
1065.507, 749.8422
1065.989, 743.0638
1066.471, 740.2548
1066.953, 740.7442
1067.435, 744.7292
1067.917, 748.6545
1068.399, 752.2489
1068.881, 754.3511
1069.364, 750.4031
1069.846, 746.7342
1070.328, 752.4794
1070.810, 769.7103
1071.292, 774.4960
1071.774, 760.9233
1072.256, 748.6052
1072.738, 745.3217
1073.220, 748.4188
1073.703, 755.3821
1074.185, 763.8744
1074.667, 767.6212
1075.149, 759.8397
1075.631, 755.1331
1076.113, 760.2613
1076.595, 767.3322
1077.077, 769.6744
1077.559, 767.4833
1078.042, 767.4933
1078.524, 769.7134
1079.006, 770.9642
1079.488, 768.4633
1079.970, 764.7930
1080.452, 762.4781
1080.934, 760.4138
1081.416, 753.3990
1081.899, 738.0714
1082.381, 733.0988
1082.863, 744.3533
1083.345, 758.2628
1083.827, 756.7468
1084.309, 747.5976
1084.791, 740.9553
1085.273, 738.3162
1085.755, 739.5084
1086.238, 748.3862
1086.720, 754.2101
1087.202, 750.7308
1087.684, 742.0435
1088.166, 741.7587
1088.648, 747.8426
1089.130, 752.1387
1089.612, 748.0060
1090.094, 747.1225
1090.577, 761.5613
1091.059, 776.8629
1091.541, 776.7433
1092.023, 758.8483
1092.505, 753.9501
1092.987, 762.8674
1093.469, 771.0829
1093.951, 764.8535
1094.434, 755.9971
1094.916, 756.3811
1095.398, 763.0367
1095.880, 762.0507
1096.362, 746.6703
1096.844, 742.9473
1097.326, 757.7748
1097.808, 776.7211
1098.291, 783.0924
1098.773, 780.0355
1099.255, 769.3646
1099.737, 750.2355
1100.219, 741.6658
1100.701, 760.2010
1101.183, 773.5118
1101.665, 767.3935
1102.147, 749.3475
1102.630, 741.6317
1103.112, 742.9642
1103.594, 748.9473
1104.076, 760.7491
1104.558, 771.0914
1105.040, 777.4675
1105.522, 779.6077
1106.004, 776.1854
1106.486, 766.2961
1106.969, 763.4385
1107.451, 767.6008
1107.933, 769.8065
1108.415, 761.7272
1108.897, 751.3935
1109.379, 743.9030
1109.861, 739.6475
1110.343, 739.0406
1110.826, 741.7773
1111.308, 749.9478
1111.790, 765.6609
1112.272, 779.0740
1112.754, 776.1591
1113.236, 766.2382
1113.718, 763.9554
1114.200, 770.0755
1114.682, 771.3007
1115.165, 758.7732
1115.647, 751.9522
1116.129, 758.3264
1116.611, 770.4946
1117.093, 775.2310
1117.575, 772.9494
1118.057, 762.8303
1118.539, 741.0914
1119.021, 725.5562
1119.504, 726.5912
1119.986, 733.6969
1120.468, 742.8271
1120.950, 753.1918
1121.432, 755.3284
1121.914, 750.6491
1122.396, 751.8583
1122.878, 773.4269
1123.361, 792.0004
1123.843, 790.3451
1124.325, 778.3730
1124.807, 770.1760
1125.289, 767.1435
1125.771, 759.4739
1126.253, 746.1079
1126.735, 738.1231
1127.218, 749.3627
1127.700, 766.0308
1128.182, 775.4248
1128.664, 778.2150
1129.146, 779.2633
1129.628, 777.4946
1130.110, 778.9772
1130.592, 785.7147
1131.074, 792.2441
1131.557, 792.8498
1132.039, 788.2021
1132.521, 775.7173
1133.003, 755.0474
1133.485, 746.6639
1133.967, 763.2199
1134.449, 778.6912
1134.931, 786.2250
1135.413, 787.2452
1135.896, 781.7247
1136.378, 772.5296
1136.860, 768.0665
1137.342, 773.1120
1137.824, 774.4711
1138.306, 762.5543
1138.788, 750.0536
1139.270, 743.5136
1139.752, 742.3336
1140.235, 743.3316
1140.717, 746.0131
1141.199, 747.3885
1141.681, 741.9140
1142.163, 740.3824
1142.645, 754.2538
1143.127, 771.2346
1143.609, 777.1462
1144.092, 771.1633
1144.574, 762.9259
1145.056, 752.5174
1145.538, 748.3273
1146.020, 764.7942
1146.502, 781.8512
1146.984, 782.6366
1147.466, 771.6417
1147.948, 761.7247
1148.431, 751.8475
1148.913, 750.8035
1149.395, 761.2299
1149.877, 770.8363
1150.359, 763.6995
1150.841, 751.6805
1151.323, 746.4280
1151.805, 748.8739
1152.287, 756.0978
1152.770, 771.5145
1153.252, 779.3151
1153.734, 773.1303
1154.216, 763.7040
1154.698, 768.6311
1155.180, 780.3647
1155.662, 787.4391
1156.144, 787.4397
1156.627, 785.0248
1157.109, 778.5343
1157.591, 774.8695
1158.073, 777.6100
1158.555, 784.3661
1159.037, 791.5848
1159.519, 798.3143
1160.001, 802.6912
1160.484, 806.4067
1160.966, 801.5954
1161.448, 778.4510
1161.930, 758.5579
1162.412, 759.4307
1162.894, 774.9594
1163.376, 774.5547
1163.858, 762.6623
1164.340, 758.7463
1164.823, 784.9459
1165.305, 803.4560
1165.787, 797.6592
1166.269, 784.8635
1166.751, 784.4069
1167.233, 793.9565
1167.715, 786.8807
1168.197, 763.8944
1168.679, 749.2551
1169.162, 767.5629
1169.644, 787.0626
1170.126, 791.9935
1170.608, 788.3840
1171.090, 783.4489
1171.572, 777.3887
1172.054, 777.7100
1172.536, 785.6040
1173.019, 794.2280
1173.501, 797.8715
1173.983, 801.0387
1174.465, 809.5172
1174.947, 820.0075
1175.429, 818.1184
1175.911, 803.0885
1176.393, 799.6548
1176.875, 815.8126
1177.358, 832.8942
1177.840, 832.4917
1178.322, 826.1929
1178.804, 823.7289
1179.286, 825.5254
1179.768, 829.6979
1180.250, 836.5849
1180.732, 841.7460
1181.214, 844.1543
1181.697, 842.7676
1182.179, 831.6816
1182.661, 818.7417
1183.143, 814.3391
1183.625, 820.7501
1184.107, 826.0924
1184.589, 829.9669
1185.071, 835.4362
1185.554, 845.7036
1186.036, 856.3527
1186.518, 865.0306
1187.000, 869.1884
1187.482, 862.6858
1187.964, 834.3625
1188.446, 826.3737
1188.928, 842.8412
1189.411, 860.7702
1189.893, 860.5062
1190.375, 854.2781
1190.857, 863.0246
1191.339, 878.9927
1191.821, 881.4325
1192.303, 856.4037
1192.785, 841.0983
1193.267, 838.8064
1193.750, 841.3922
1194.232, 842.6443
1194.714, 843.1353
1195.196, 841.8544
1195.678, 840.1830
1196.160, 844.4813
1196.642, 858.9232
1197.124, 874.0244
1197.606, 890.3098
1198.089, 902.3923
1198.571, 899.4504
1199.053, 890.1577
1199.535, 890.7916
1200.017, 901.1488
1200.499, 901.1885
1200.981, 877.2463
1201.463, 863.7852
1201.945, 870.5481
1202.428, 885.3987
1202.910, 895.1855
1203.392, 898.8464
1203.874, 892.0693
1204.356, 873.6262
1204.838, 860.9081
1205.320, 858.6722
1205.802, 857.8287
1206.285, 854.4495
1206.767, 853.1320
1207.249, 865.0449
1207.731, 884.1495
1208.213, 901.1515
1208.695, 915.8243
1209.177, 916.0231
1209.659, 890.3596
1210.141, 873.0062
1210.624, 883.6020
1211.106, 904.7162
1211.588, 896.0120
1212.070, 871.0274
1212.552, 857.9890
1213.034, 868.7166
1213.516, 879.2105
1213.998, 886.8104
1214.480, 893.3320
1214.963, 902.4117
1215.445, 909.0532
1215.927, 895.5272
1216.409, 871.1006
1216.891, 857.3696
1217.373, 865.2581
1217.855, 877.1249
1218.337, 896.0517
1218.820, 908.4983
1219.302, 899.0493
1219.784, 879.3815
1220.266, 879.7281
1220.748, 893.2564
1221.230, 902.0412
1221.712, 892.2157
1222.194, 890.1392
1222.677, 900.4001
1223.159, 911.6678
1223.641, 913.2231
1224.123, 909.4647
1224.605, 909.7531
1225.087, 912.9978
1225.569, 915.0176
1226.051, 911.6090
1226.533, 911.8752
1227.016, 918.2841
1227.498, 924.1933
1227.980, 922.0746
1228.462, 915.3397
1228.944, 909.0897
1229.426, 903.7845
1229.908, 900.2539
1230.390, 899.9734
1230.872, 898.9382
1231.355, 895.8685
1231.837, 894.3499
1232.319, 901.2955
1232.801, 910.9608
1233.283, 912.7597
1233.765, 907.4711
1234.247, 906.3036
1234.729, 917.1168
1235.212, 916.9066
1235.694, 898.1535
1236.176, 879.0925
1236.658, 886.6384
1237.140, 905.6340
1237.622, 915.6627
1238.104, 915.1791
1238.586, 912.1235
1239.068, 905.4863
1239.551, 902.6540
1240.033, 905.8612
1240.515, 911.1134
1240.997, 915.2071
1241.479, 917.3790
1241.961, 916.0865
1242.443, 911.2786
1242.925, 906.5260
1243.407, 901.3234
1243.890, 899.0219
1244.372, 900.7384
1244.854, 904.8416
1245.336, 911.5378
1245.818, 917.9753
1246.300, 921.1080
1246.782, 920.3409
1247.264, 915.2360
1247.747, 904.4185
1248.229, 897.9194
1248.711, 899.6620
##END=



