##NAMES=Lueshite
##RRUFFID=R090025
##IDEAL CHEMISTRY=NaNb^5+^O_3_
##LOCALITY=Lueshe carbonatite, Kivu Province, Democratic Republic of the Congo
##OWNER=RRUFF
##SOURCE=Karl Russ
##DESCRIPTION=Black cubes
##STATUS=The identification of this mineral is confirmed by single-crystal X-ray diffraction and chemical analysis.
##URL=rruff.info/R090025
##MEASURED CHEMISTRY=(Na_0.87_Ca_0.03_Ce_0.01_La_0.01_Th_0.01_)(Nb_0.94_Ta_0.06_)O_3_; = bright. (Na_0.91_Ca_0.03_Ce_0.01_La_0.01_)(Nb_0.95_Ta_0.05_)O_3_ = dark
92.37695, 2051.231
92.85907, 2034.068
93.34119, 2038.982
93.82330, 2049.174
94.30542, 2051.296
94.78754, 2044.539
95.26965, 2032.960
95.75177, 2018.347
96.23389, 2001.896
96.71600, 1984.001
97.19812, 1966.436
97.68024, 1949.934
98.16235, 1933.906
98.64447, 1916.980
99.12659, 1897.957
99.60870, 1877.070
100.0908, 1859.842
100.5729, 1845.791
101.0551, 1833.918
101.5372, 1823.423
102.0193, 1814.032
102.5014, 1805.744
102.9835, 1799.061
103.4656, 1792.595
103.9478, 1785.943
104.4299, 1779.133
104.9120, 1772.347
105.3941, 1765.678
105.8762, 1758.952
106.3583, 1753.017
106.8405, 1747.676
107.3226, 1742.529
107.8047, 1737.422
108.2868, 1732.318
108.7689, 1727.054
109.2510, 1721.098
109.7332, 1714.258
110.2153, 1709.172
110.6974, 1707.672
111.1795, 1707.732
111.6616, 1706.188
112.1437, 1702.044
112.6259, 1696.882
113.1080, 1692.370
113.5901, 1688.483
114.0722, 1684.707
114.5543, 1680.735
115.0364, 1676.560
115.5185, 1672.527
116.0007, 1668.253
116.4828, 1664.516
116.9649, 1661.957
117.4470, 1660.656
117.9291, 1659.830
118.4112, 1658.359
118.8934, 1655.776
119.3755, 1653.685
119.8576, 1652.580
120.3397, 1651.760
120.8218, 1650.704
121.3039, 1649.196
121.7861, 1647.332
122.2682, 1645.390
122.7503, 1642.576
123.2324, 1637.573
123.7145, 1640.623
124.1966, 1642.072
124.6788, 1642.008
125.1609, 1635.894
125.6430, 1637.591
126.1251, 1636.159
126.6072, 1634.597
127.0893, 1637.394
127.5715, 1632.160
128.0536, 1634.888
128.5357, 1634.438
129.0178, 1635.442
129.4999, 1633.297
129.9821, 1632.124
130.4642, 1634.102
130.9463, 1634.335
131.4284, 1631.827
131.9105, 1632.924
132.3926, 1627.580
132.8748, 1627.888
133.3569, 1630.634
133.8390, 1628.284
134.3211, 1629.439
134.8032, 1629.258
135.2853, 1623.013
135.7674, 1627.316
136.2496, 1627.056
136.7317, 1622.114
137.2138, 1626.055
137.6959, 1621.758
138.1780, 1620.401
138.6601, 1621.257
139.1423, 1621.093
139.6244, 1620.951
140.1065, 1620.722
140.5886, 1620.478
141.0707, 1620.154
141.5528, 1619.533
142.0350, 1618.239
142.5171, 1615.630
142.9992, 1614.069
143.4813, 1614.068
143.9634, 1614.537
144.4455, 1614.716
144.9277, 1614.429
145.4098, 1614.086
145.8919, 1614.421
146.3740, 1616.369
146.8561, 1617.182
147.3382, 1615.579
147.8204, 1613.149
148.3025, 1611.989
148.7846, 1612.960
149.2667, 1615.017
149.7488, 1616.055
150.2309, 1616.035
150.7131, 1615.666
151.1952, 1615.113
151.6773, 1614.403
152.1594, 1613.591
152.6415, 1612.601
153.1236, 1611.626
153.6058, 1610.875
154.0879, 1610.331
154.5700, 1610.083
155.0521, 1610.410
155.5342, 1611.347
156.0163, 1611.985
156.4985, 1611.437
156.9806, 1610.698
157.4627, 1610.578
157.9448, 1611.298
158.4269, 1612.513
158.9090, 1613.931
159.3912, 1615.975
159.8733, 1617.031
160.3554, 1616.149
160.8375, 1614.502
161.3196, 1612.957
161.8017, 1611.867
162.2839, 1611.268
162.7660, 1611.320
163.2481, 1612.622
163.7302, 1613.826
164.2123, 1614.961
164.6944, 1615.838
165.1766, 1616.100
165.6587, 1615.499
166.1408, 1614.268
166.6229, 1613.969
167.1050, 1615.954
167.5871, 1617.413
168.0693, 1617.655
168.5514, 1616.955
169.0335, 1615.864
169.5156, 1614.701
169.9977, 1613.478
170.4798, 1612.466
170.9620, 1611.532
171.4441, 1610.883
171.9262, 1610.672
172.4083, 1610.859
172.8904, 1611.264
173.3725, 1611.799
173.8547, 1612.460
174.3368, 1613.119
174.8189, 1614.129
175.3010, 1614.901
175.7831, 1614.776
176.2652, 1613.707
176.7474, 1612.555
177.2295, 1611.639
177.7116, 1611.137
178.1937, 1611.584
178.6758, 1614.369
179.1579, 1617.713
179.6401, 1618.631
180.1222, 1616.286
180.6043, 1613.930
181.0864, 1613.674
181.5685, 1614.763
182.0506, 1616.143
182.5328, 1617.569
183.0149, 1618.911
183.4970, 1619.760
183.9791, 1620.014
184.4612, 1619.859
184.9433, 1618.711
185.4255, 1617.320
185.9076, 1617.080
186.3897, 1619.382
186.8718, 1623.874
187.3539, 1626.549
187.8360, 1625.503
188.3182, 1624.512
188.8003, 1624.623
189.2824, 1625.641
189.7645, 1627.015
190.2466, 1628.331
190.7287, 1629.589
191.2109, 1630.936
191.6930, 1632.675
192.1751, 1634.221
192.6572, 1635.233
193.1393, 1635.851
193.6214, 1636.479
194.1036, 1637.488
194.5857, 1638.959
195.0678, 1640.157
195.5499, 1640.223
196.0320, 1640.825
196.5141, 1643.694
196.9963, 1648.228
197.4784, 1651.746
197.9605, 1651.374
198.4426, 1646.300
198.9247, 1643.995
199.4068, 1646.215
199.8890, 1649.560
200.3711, 1651.960
200.8532, 1653.216
201.3353, 1654.072
201.8174, 1655.067
202.2995, 1656.234
202.7817, 1657.947
203.2638, 1661.438
203.7459, 1664.783
204.2280, 1665.544
204.7101, 1663.338
205.1922, 1661.313
205.6744, 1663.111
206.1565, 1667.855
206.6386, 1671.283
207.1207, 1671.548
207.6028, 1670.439
208.0849, 1670.590
208.5671, 1672.547
209.0492, 1674.397
209.5313, 1674.280
210.0134, 1672.899
210.4955, 1671.628
210.9776, 1670.663
211.4598, 1670.186
211.9419, 1670.875
212.4240, 1673.482
212.9061, 1675.654
213.3882, 1675.421
213.8703, 1673.828
214.3525, 1672.845
214.8346, 1674.250
215.3167, 1677.029
215.7988, 1677.171
216.2809, 1672.645
216.7630, 1668.546
217.2451, 1667.428
217.7273, 1668.136
218.2094, 1668.682
218.6915, 1667.894
219.1736, 1665.940
219.6557, 1663.744
220.1378, 1660.625
220.6200, 1658.162
221.1021, 1657.278
221.5842, 1657.281
222.0663, 1657.044
222.5484, 1655.802
223.0305, 1653.666
223.5127, 1651.686
223.9948, 1650.408
224.4769, 1648.721
224.9590, 1646.396
225.4411, 1643.499
225.9232, 1640.073
226.4054, 1636.036
226.8875, 1631.526
227.3696, 1627.876
227.8517, 1626.462
228.3338, 1624.523
228.8159, 1621.141
229.2981, 1616.839
229.7802, 1612.676
230.2623, 1609.359
230.7444, 1606.756
231.2265, 1603.392
231.7086, 1597.737
232.1908, 1593.041
232.6729, 1590.723
233.1550, 1589.937
233.6371, 1589.077
234.1192, 1587.216
234.6013, 1584.402
235.0835, 1580.897
235.5656, 1576.048
236.0477, 1571.332
236.5298, 1567.311
237.0119, 1563.757
237.4940, 1559.984
237.9762, 1555.478
238.4583, 1550.602
238.9404, 1547.104
239.4225, 1546.706
239.9046, 1545.521
240.3867, 1541.908
240.8689, 1536.482
241.3510, 1530.633
241.8331, 1524.823
242.3152, 1519.288
242.7973, 1514.713
243.2794, 1511.806
243.7616, 1508.594
244.2437, 1503.712
244.7258, 1497.786
245.2079, 1492.811
245.6900, 1489.904
246.1721, 1488.099
246.6543, 1485.444
247.1364, 1481.944
247.6185, 1477.807
248.1006, 1472.746
248.5827, 1467.051
249.0648, 1461.742
249.5470, 1457.367
250.0291, 1453.237
250.5112, 1448.177
250.9933, 1441.961
251.4754, 1436.121
251.9576, 1431.890
252.4397, 1428.866
252.9218, 1425.152
253.4039, 1420.224
253.8860, 1414.439
254.3681, 1408.055
254.8503, 1401.055
255.3324, 1394.467
255.8145, 1389.043
256.2966, 1384.627
256.7787, 1380.502
257.2608, 1376.830
257.7430, 1373.054
258.2251, 1368.682
258.7072, 1363.797
259.1893, 1358.908
259.6714, 1354.260
260.1535, 1349.870
260.6357, 1345.824
261.1178, 1342.571
261.5999, 1339.084
262.0820, 1334.542
262.5641, 1329.228
263.0462, 1324.013
263.5284, 1319.608
264.0105, 1315.855
264.4926, 1311.630
264.9747, 1306.495
265.4568, 1301.549
265.9389, 1297.644
266.4211, 1294.283
266.9032, 1290.465
267.3853, 1285.489
267.8674, 1279.595
268.3495, 1273.658
268.8316, 1267.076
269.3138, 1261.443
269.7959, 1257.939
270.2780, 1255.489
270.7601, 1252.397
271.2422, 1247.560
271.7243, 1241.684
272.2065, 1237.362
272.6886, 1236.021
273.1707, 1233.864
273.6528, 1229.351
274.1349, 1223.776
274.6170, 1218.678
275.0992, 1214.753
275.5813, 1211.548
276.0634, 1207.979
276.5455, 1203.861
277.0276, 1199.689
277.5097, 1195.511
277.9919, 1191.358
278.4740, 1187.315
278.9561, 1183.394
279.4382, 1179.436
279.9203, 1174.954
280.4024, 1169.254
280.8846, 1164.609
281.3667, 1161.756
281.8488, 1159.525
282.3309, 1157.162
282.8130, 1154.449
283.2951, 1151.550
283.7773, 1148.851
284.2594, 1146.920
284.7415, 1143.687
285.2236, 1137.431
285.7057, 1131.306
286.1878, 1127.493
286.6700, 1126.057
287.1521, 1125.289
287.6342, 1123.140
288.1163, 1119.107
288.5984, 1115.714
289.0805, 1113.113
289.5627, 1110.956
290.0448, 1109.631
290.5269, 1108.750
291.0090, 1107.220
291.4911, 1103.872
291.9732, 1098.495
292.4554, 1094.059
292.9375, 1091.450
293.4196, 1088.867
293.9017, 1085.690
294.3838, 1082.075
294.8659, 1078.399
295.3481, 1074.875
295.8302, 1071.536
296.3123, 1069.044
296.7944, 1068.144
297.2765, 1067.345
297.7586, 1066.748
298.2408, 1066.007
298.7229, 1064.600
299.2050, 1062.224
299.6871, 1059.121
300.1692, 1056.229
300.6513, 1053.844
301.1335, 1051.346
301.6156, 1048.533
302.0977, 1045.668
302.5798, 1042.991
303.0619, 1040.609
303.5440, 1038.520
304.0262, 1036.700
304.5083, 1035.411
304.9904, 1034.035
305.4725, 1032.655
305.9546, 1031.142
306.4367, 1029.304
306.9189, 1027.133
307.4010, 1024.867
307.8831, 1022.810
308.3652, 1020.910
308.8473, 1019.412
309.3294, 1018.833
309.8116, 1018.160
310.2937, 1016.609
310.7758, 1014.255
311.2579, 1011.814
311.7400, 1009.991
312.2221, 1008.825
312.7043, 1007.947
313.1864, 1007.918
313.6685, 1007.586
314.1506, 1006.338
314.6327, 1004.391
315.1148, 1002.356
315.5970, 1000.700
316.0791, 999.3782
316.5612, 997.7194
317.0433, 995.4626
317.5254, 993.1558
318.0075, 990.4843
318.4897, 987.9306
318.9718, 986.2687
319.4539, 985.9196
319.9360, 986.5098
320.4181, 986.8575
320.9002, 987.1789
321.3824, 986.9017
321.8645, 985.6790
322.3466, 984.0103
322.8287, 982.1560
323.3108, 980.2733
323.7929, 978.7213
324.2751, 978.2736
324.7572, 980.2961
325.2393, 980.7178
325.7214, 978.2311
326.2035, 975.3417
326.6856, 973.9352
327.1678, 974.1121
327.6499, 974.5018
328.1320, 973.5011
328.6141, 970.6212
329.0962, 968.7836
329.5783, 969.0887
330.0605, 969.2422
330.5426, 968.0355
331.0247, 965.8100
331.5068, 963.6869
331.9889, 962.5457
332.4710, 962.3066
332.9532, 961.6769
333.4353, 960.1793
333.9174, 958.7833
334.3995, 958.0978
334.8816, 957.5298
335.3637, 956.0358
335.8459, 953.0645
336.3280, 949.3091
336.8101, 946.9301
337.2922, 946.8206
337.7743, 946.8743
338.2564, 947.0671
338.7386, 947.2568
339.2206, 947.4001
339.7028, 947.4597
340.1849, 947.2988
340.6670, 946.6589
341.1491, 945.2918
341.6312, 944.0623
342.1133, 942.9009
342.5955, 941.9167
343.0776, 941.3668
343.5597, 941.1218
344.0418, 940.6962
344.5239, 939.5770
345.0060, 937.7131
345.4882, 936.0566
345.9703, 935.0351
346.4524, 933.8054
346.9345, 931.4349
347.4166, 928.7613
347.8987, 927.3665
348.3809, 928.3672
348.8630, 931.1193
349.3451, 933.0726
349.8272, 934.6000
350.3093, 934.5687
350.7914, 931.5295
351.2736, 927.6282
351.7557, 925.1962
352.2378, 925.0198
352.7199, 925.7606
353.2020, 925.0380
353.6841, 922.1176
354.1663, 919.9716
354.6484, 919.6124
355.1305, 919.5651
355.6126, 918.8452
356.0947, 917.4687
356.5768, 916.2830
357.0590, 916.3849
357.5411, 917.8601
358.0232, 918.4621
358.5053, 917.4062
358.9874, 916.3111
359.4695, 916.2416
359.9517, 916.6409
360.4338, 916.2193
360.9159, 913.8106
361.3980, 910.3330
361.8801, 908.7393
362.3622, 909.8588
362.8444, 911.0844
363.3265, 911.6866
363.8086, 911.8270
364.2907, 911.6193
364.7728, 911.0791
365.2549, 910.2845
365.7371, 909.3137
366.2192, 908.1536
366.7013, 906.8640
367.1834, 905.2242
367.6655, 903.6531
368.1476, 902.3905
368.6298, 901.4586
369.1119, 900.9045
369.5940, 900.9999
370.0761, 901.5754
370.5582, 901.7731
371.0403, 901.3613
371.5225, 900.8662
372.0046, 900.7577
372.4867, 900.8516
372.9688, 900.7023
373.4509, 900.0289
373.9330, 899.0909
374.4152, 898.2504
374.8973, 897.5160
375.3794, 896.8272
375.8615, 896.2838
376.3436, 895.6985
376.8257, 894.7229
377.3079, 893.1177
377.7900, 891.6269
378.2721, 890.9857
378.7542, 890.9733
379.2363, 890.5248
379.7184, 889.0618
380.2006, 887.5301
380.6827, 887.3844
381.1648, 888.5922
381.6469, 889.4033
382.1290, 889.2201
382.6111, 888.3333
383.0933, 886.8695
383.5754, 884.7928
384.0575, 883.1130
384.5396, 882.9244
385.0217, 883.9821
385.5038, 884.1427
385.9860, 882.3096
386.4681, 880.5076
386.9502, 880.2841
387.4323, 881.2059
387.9144, 881.7031
388.3965, 880.9742
388.8787, 879.4520
389.3608, 878.2469
389.8429, 877.4633
390.3250, 876.6899
390.8071, 875.7007
391.2892, 874.7371
391.7714, 874.2808
392.2535, 874.4057
392.7356, 874.3786
393.2177, 873.2235
393.6998, 870.5343
394.1819, 868.7531
394.6641, 868.7419
395.1462, 868.7681
395.6283, 867.6484
396.1104, 865.6903
396.5925, 863.9017
397.0746, 862.8612
397.5568, 862.6217
398.0389, 863.5038
398.5210, 868.0596
399.0031, 870.6354
399.4852, 869.1913
399.9673, 866.1061
400.4495, 863.8243
400.9316, 863.1610
401.4137, 863.5247
401.8958, 864.1385
402.3779, 865.3578
402.8600, 865.8229
403.3422, 864.7353
403.8243, 863.7097
404.3064, 863.6031
404.7885, 864.3043
405.2706, 865.2641
405.7527, 866.1406
406.2349, 866.8901
406.7170, 867.0823
407.1991, 866.1496
407.6812, 865.4592
408.1633, 865.6846
408.6454, 866.1485
409.1276, 865.8919
409.6097, 864.5465
410.0918, 863.1155
410.5739, 863.3840
411.0560, 865.8292
411.5381, 867.4168
412.0203, 866.8623
412.5024, 865.9929
412.9845, 865.7045
413.4666, 866.0330
413.9487, 866.7330
414.4308, 864.9258
414.9130, 868.8625
415.3951, 871.1992
415.8772, 872.0215
416.3593, 866.7947
416.8414, 869.3792
417.3235, 868.8333
417.8057, 868.1591
418.2878, 871.8430
418.7699, 867.4960
419.2520, 871.1108
419.7341, 871.5474
420.2162, 873.4385
420.6984, 872.1801
421.1805, 871.8943
421.6626, 874.7594
422.1447, 875.8799
422.6268, 874.2587
423.1089, 876.2424
423.5911, 871.7855
424.0732, 872.9803
424.5553, 876.6135
425.0374, 875.1508
425.5195, 877.1920
426.0016, 874.2961
426.4838, 874.3817
426.9659, 874.9541
427.4480, 875.2591
427.9301, 874.7182
428.4122, 873.6816
428.8943, 873.0746
429.3765, 873.3259
429.8586, 873.5779
430.3407, 872.1776
430.8228, 867.5247
431.3049, 864.8297
431.7870, 865.9944
432.2692, 867.7520
432.7513, 867.5605
433.2334, 865.5049
433.7155, 863.3622
434.1976, 862.6438
434.6797, 863.1959
435.1619, 862.7282
435.6440, 860.0668
436.1261, 857.6981
436.6082, 856.1989
437.0903, 855.1223
437.5724, 854.0146
438.0546, 852.6966
438.5367, 851.0905
439.0188, 848.9160
439.5009, 845.7545
439.9830, 843.3766
440.4651, 842.3967
440.9473, 841.6857
441.4294, 840.7755
441.9115, 839.7062
442.3936, 838.7730
442.8757, 838.3232
443.3578, 838.0654
443.8400, 836.9490
444.3221, 834.6578
444.8042, 832.2899
445.2863, 829.8593
445.7684, 827.7324
446.2505, 826.4503
446.7327, 826.1687
447.2148, 826.0674
447.6969, 825.3901
448.1790, 824.2526
448.6611, 823.2946
449.1432, 822.6575
449.6254, 822.1327
450.1075, 821.5085
450.5896, 820.8387
451.0717, 820.3080
451.5538, 820.3076
452.0359, 820.2195
452.5181, 819.1791
453.0002, 817.3538
453.4823, 815.9455
453.9644, 815.5424
454.4465, 815.8269
454.9286, 816.2005
455.4108, 816.8497
455.8929, 817.0553
456.3750, 816.3095
456.8571, 815.2228
457.3392, 814.4452
457.8214, 814.0693
458.3035, 813.8288
458.7856, 813.4834
459.2677, 813.0299
459.7498, 812.7383
460.2319, 812.8170
460.7141, 812.7943
461.1962, 812.5409
461.6783, 812.1049
462.1604, 811.5325
462.6425, 810.8472
463.1246, 810.1180
463.6068, 809.4693
464.0889, 808.9606
464.5710, 808.3874
465.0531, 807.2674
465.5352, 806.5332
466.0173, 807.1100
466.4995, 808.4810
466.9816, 809.2325
467.4637, 808.2623
467.9458, 806.2348
468.4279, 805.3881
468.9100, 806.2815
469.3922, 806.9012
469.8743, 806.0762
470.3564, 805.0919
470.8385, 805.1305
471.3206, 806.3502
471.8027, 807.6652
472.2849, 808.0900
472.7670, 807.8942
473.2491, 808.0552
473.7312, 808.6177
474.2133, 809.6649
474.6954, 812.0349
475.1776, 814.9015
475.6597, 816.1766
476.1418, 814.5118
476.6239, 812.4178
477.1060, 811.5172
477.5881, 811.5859
478.0703, 811.9957
478.5524, 812.5743
479.0345, 813.3018
479.5166, 814.2344
479.9987, 815.5226
480.4808, 816.2859
480.9630, 815.9294
481.4451, 815.4949
481.9272, 815.6109
482.4093, 816.2780
482.8914, 817.4518
483.3735, 819.2217
483.8557, 821.1532
484.3378, 821.6514
484.8199, 818.7511
485.3020, 817.2166
485.7841, 817.9993
486.2662, 819.5932
486.7484, 821.0255
487.2305, 822.0742
487.7126, 822.8085
488.1947, 823.1892
488.6768, 823.2632
489.1589, 823.8838
489.6411, 825.7244
490.1232, 827.0218
490.6053, 826.8766
491.0874, 826.1374
491.5695, 825.9027
492.0516, 826.5328
492.5338, 827.0121
493.0159, 825.6506
493.4980, 822.8085
493.9801, 821.9429
494.4622, 824.2148
494.9443, 827.2858
495.4265, 829.6075
495.9086, 831.2478
496.3907, 832.1676
496.8728, 831.5861
497.3549, 830.9681
497.8370, 831.8198
498.3192, 833.7370
498.8013, 835.0367
499.2834, 834.8654
499.7655, 834.4108
500.2476, 835.8461
500.7297, 840.0550
501.2119, 842.9318
501.6940, 842.7292
502.1761, 842.3400
502.6582, 844.4698
503.1403, 848.3669
503.6224, 851.0013
504.1045, 850.3232
504.5866, 847.4982
505.0688, 846.7789
505.5509, 849.9041
506.0330, 852.4807
506.5151, 853.6646
506.9972, 854.7043
507.4793, 856.8342
507.9615, 859.9050
508.4436, 862.5433
508.9257, 863.3018
509.4078, 862.6299
509.8899, 863.3670
510.3720, 866.1833
510.8542, 868.9545
511.3363, 870.5096
511.8184, 871.8210
512.3005, 874.1101
512.7827, 877.7170
513.2648, 880.9246
513.7469, 881.9340
514.2290, 881.5399
514.7111, 882.1789
515.1932, 884.3026
515.6754, 886.7606
516.1575, 888.6995
516.6396, 890.2459
517.1217, 892.0095
517.6038, 893.9706
518.0859, 896.1933
518.5681, 898.9543
519.0502, 901.9372
519.5323, 904.6945
520.0144, 907.1051
520.4965, 908.9586
520.9786, 909.7471
521.4608, 908.9368
521.9429, 910.4456
522.4250, 916.5106
522.9071, 922.0973
523.3892, 925.4148
523.8713, 927.0770
524.3535, 927.8849
524.8356, 928.1827
525.3177, 928.5613
525.7998, 930.0815
526.2819, 932.9690
526.7640, 935.8311
527.2462, 938.3137
527.7283, 941.0445
528.2104, 944.7585
528.6925, 948.9207
529.1746, 952.2692
529.6567, 953.9540
530.1389, 955.0847
530.6210, 956.9865
531.1031, 959.6472
531.5852, 963.0446
532.0673, 967.7715
532.5494, 972.3046
533.0316, 974.2687
533.5137, 973.8492
533.9958, 974.1564
534.4779, 976.1211
534.9600, 978.7800
535.4421, 981.6012
535.9243, 984.4914
536.4064, 987.3998
536.8885, 990.3077
537.3706, 993.1042
537.8527, 995.4793
538.3348, 996.9371
538.8170, 999.0351
539.2991, 1002.615
539.7812, 1006.022
540.2633, 1008.146
540.7454, 1009.277
541.2275, 1010.416
541.7097, 1012.179
542.1918, 1014.318
542.6739, 1016.154
543.1560, 1017.567
543.6381, 1019.098
544.1202, 1020.828
544.6024, 1022.729
545.0845, 1024.933
545.5666, 1027.360
546.0487, 1029.560
546.5308, 1031.221
547.0129, 1032.571
547.4951, 1033.936
547.9772, 1035.318
548.4593, 1036.645
548.9414, 1037.807
549.4235, 1038.982
549.9056, 1040.481
550.3878, 1042.284
550.8699, 1044.312
551.3520, 1046.995
551.8341, 1049.545
552.3162, 1051.146
552.7983, 1051.975
553.2805, 1052.857
553.7626, 1054.291
554.2447, 1056.028
554.7268, 1057.347
555.2089, 1057.958
555.6910, 1058.643
556.1732, 1059.661
556.6553, 1060.547
557.1374, 1060.621
557.6195, 1060.263
558.1016, 1060.695
558.5837, 1062.899
559.0659, 1066.070
559.5480, 1068.432
560.0301, 1069.969
560.5122, 1070.695
560.9943, 1070.214
561.4764, 1069.249
561.9586, 1068.398
562.4407, 1067.683
562.9228, 1067.289
563.4049, 1067.290
563.8870, 1067.645
564.3691, 1068.429
564.8513, 1069.575
565.3334, 1070.953
565.8155, 1072.709
566.2976, 1074.052
566.7797, 1073.283
567.2618, 1068.643
567.7440, 1066.033
568.2261, 1066.934
568.7082, 1068.502
569.1903, 1069.493
569.6724, 1069.769
570.1545, 1069.335
570.6367, 1068.145
571.1188, 1066.663
571.6009, 1065.932
572.0830, 1066.145
572.5651, 1066.339
573.0472, 1066.553
573.5294, 1066.567
574.0115, 1066.362
574.4936, 1065.868
574.9757, 1064.836
575.4578, 1062.681
575.9399, 1060.605
576.4221, 1060.484
576.9042, 1061.886
577.3863, 1062.304
577.8684, 1060.964
578.3505, 1058.586
578.8326, 1055.605
579.3148, 1051.932
579.7969, 1049.744
580.2790, 1050.602
580.7611, 1051.407
581.2432, 1050.808
581.7253, 1049.112
582.2075, 1046.701
582.6896, 1043.778
583.1717, 1040.812
583.6538, 1038.345
584.1359, 1036.275
584.6180, 1035.497
585.1002, 1037.929
585.5823, 1039.343
586.0643, 1038.144
586.5464, 1035.299
587.0286, 1031.814
587.5107, 1027.883
587.9928, 1024.375
588.4749, 1022.336
588.9570, 1021.435
589.4391, 1020.523
589.9213, 1019.567
590.4034, 1018.113
590.8855, 1015.724
591.3676, 1012.566
591.8497, 1009.391
592.3318, 1005.958
592.8140, 1002.869
593.2961, 1000.454
593.7782, 998.4161
594.2603, 996.7057
594.7424, 995.1625
595.2245, 993.1182
595.7067, 989.9851
596.1888, 985.9904
596.6709, 982.3876
597.1530, 979.0775
597.6351, 976.3633
598.1172, 975.0994
598.5994, 973.7485
599.0815, 970.9517
599.5636, 966.8791
600.0457, 962.8608
600.5278, 959.7006
601.0099, 957.1862
601.4921, 955.0308
601.9742, 953.2372
602.4563, 951.3149
602.9384, 949.1959
603.4205, 946.7166
603.9026, 943.3293
604.3848, 938.9464
604.8669, 935.4661
605.3490, 934.1086
605.8311, 932.7942
606.3132, 930.0658
606.7953, 926.3425
607.2775, 922.6163
607.7596, 919.2946
608.2417, 916.1715
608.7238, 913.0407
609.2059, 909.9916
609.6880, 906.4787
610.1702, 901.6729
610.6523, 897.3679
611.1344, 894.3523
611.6165, 892.1061
612.0986, 889.9848
612.5807, 887.8173
613.0629, 885.5470
613.5450, 883.3676
614.0271, 881.0627
614.5092, 877.6672
614.9913, 872.9196
615.4734, 868.2975
615.9556, 864.8189
616.4377, 862.1257
616.9198, 858.9005
617.4019, 854.9338
617.8840, 850.8901
618.3661, 846.7615
618.8483, 842.6928
619.3304, 838.6061
619.8125, 834.6789
620.2946, 831.6938
620.7767, 830.3666
621.2589, 829.6174
621.7410, 825.8126
622.2231, 817.1972
622.7052, 810.7527
623.1873, 809.1914
623.6694, 808.4442
624.1516, 806.4694
624.6337, 803.4387
625.1158, 800.1382
625.5979, 796.6942
626.0800, 793.3730
626.5621, 790.7507
627.0443, 788.5342
627.5264, 785.6741
628.0085, 781.8528
628.4906, 777.7090
628.9727, 773.6115
629.4548, 769.5757
629.9370, 766.9031
630.4191, 767.4009
630.9012, 766.7839
631.3833, 763.6378
631.8654, 759.1786
632.3475, 754.4216
632.8297, 749.6816
633.3118, 745.0641
633.7939, 740.6379
634.2760, 736.4387
634.7581, 732.7812
635.2402, 729.7815
635.7224, 726.8842
636.2045, 724.0157
636.6866, 721.1160
637.1687, 718.0433
637.6508, 714.8344
638.1329, 711.9410
638.6151, 710.1837
639.0972, 708.2086
639.5793, 704.4678
640.0614, 699.6168
640.5435, 695.3922
641.0256, 692.4272
641.5078, 690.0793
641.9899, 687.5445
642.4720, 684.8005
642.9541, 682.0418
643.4362, 679.1911
643.9183, 676.4173
644.4005, 673.8601
644.8826, 671.3553
645.3647, 668.7269
645.8468, 665.9447
646.3289, 663.0724
646.8110, 660.1315
647.2932, 657.1707
647.7753, 654.3300
648.2574, 651.6274
648.7395, 648.9622
649.2216, 646.3030
649.7037, 643.6414
650.1859, 641.0038
650.6680, 638.4215
651.1501, 635.6729
651.6322, 632.8004
652.1143, 629.6810
652.5964, 625.8832
653.0786, 621.8801
653.5607, 618.6557
654.0428, 616.5502
654.5249, 614.7120
655.0070, 611.7970
655.4891, 607.7327
655.9713, 604.6471
656.4534, 603.0027
656.9355, 601.4424
657.4176, 599.5172
657.8997, 597.2429
658.3818, 594.3949
658.8640, 590.8075
659.3461, 587.7327
659.8282, 586.4716
660.3103, 585.5272
660.7924, 582.8908
661.2745, 578.8730
661.7567, 575.1948
662.2388, 572.6888
662.7209, 571.0177
663.2030, 569.6608
663.6851, 569.0075
664.1672, 567.3668
664.6494, 563.5452
665.1315, 560.0042
665.6136, 557.7322
666.0957, 556.1742
666.5778, 554.5740
667.0599, 552.7199
667.5421, 550.6819
668.0242, 548.3362
668.5063, 545.8873
668.9884, 544.1084
669.4705, 543.0673
669.9526, 541.0312
670.4348, 536.5912
670.9169, 531.2951
671.3990, 528.7155
671.8811, 530.5303
672.3632, 530.9415
672.8453, 528.7123
673.3275, 526.1880
673.8096, 524.7116
674.2917, 523.8392
674.7738, 522.6058
675.2559, 520.6484
675.7380, 518.3931
676.2202, 516.2472
676.7023, 514.2332
677.1844, 512.7385
677.6665, 512.0500
678.1486, 510.8986
678.6307, 508.3213
679.1129, 505.0470
679.5950, 502.5946
680.0771, 501.2418
680.5592, 499.3904
681.0413, 495.6456
681.5234, 492.1429
682.0056, 490.9459
682.4877, 491.3116
682.9698, 491.2388
683.4519, 489.8785
683.9340, 488.0138
684.4161, 486.8585
684.8983, 486.5117
685.3804, 485.7335
685.8625, 484.3692
686.3446, 482.8463
686.8267, 481.4434
687.3088, 479.9394
687.7910, 477.9485
688.2731, 475.3808
688.7552, 473.0184
689.2373, 470.9780
689.7194, 469.4734
690.2015, 469.1403
690.6837, 469.6037
691.1658, 469.6625
691.6479, 468.8166
692.1300, 467.3485
692.6121, 465.5484
693.0942, 463.2955
693.5764, 461.6645
694.0585, 461.0216
694.5406, 460.5436
695.0227, 460.3639
695.5048, 460.0142
695.9869, 458.9237
696.4691, 457.0305
696.9512, 454.9260
697.4333, 452.8673
697.9154, 450.8429
698.3975, 448.6263
698.8796, 446.3564
699.3618, 444.7541
699.8439, 444.1234
700.3260, 443.9944
700.8081, 443.8469
701.2902, 443.7419
701.7723, 443.0345
702.2545, 440.9185
702.7366, 439.1811
703.2187, 438.5441
703.7008, 438.2001
704.1829, 437.1575
704.6650, 435.4471
705.1472, 434.1572
705.6293, 434.4652
706.1114, 435.2989
706.5935, 434.7670
707.0756, 433.0927
707.5577, 431.7404
708.0399, 431.1542
708.5220, 430.9244
709.0041, 430.6818
709.4862, 430.4268
709.9683, 429.8871
710.4504, 428.9806
710.9326, 427.9080
711.4147, 426.4312
711.8968, 424.9950
712.3789, 424.2316
712.8610, 423.9458
713.3431, 423.1297
713.8253, 420.7861
714.3074, 418.2368
714.7895, 417.9228
715.2716, 419.4909
715.7537, 420.3823
716.2358, 420.0541
716.7180, 419.0082
717.2001, 417.3324
717.6822, 415.2740
718.1643, 414.5052
718.6464, 416.4868
719.1285, 417.6036
719.6107, 416.7938
720.0928, 415.6143
720.5749, 415.4092
721.0570, 415.8078
721.5391, 415.4260
722.0212, 413.4497
722.5034, 411.1568
722.9855, 410.4183
723.4676, 410.9634
723.9497, 411.2547
724.4318, 411.1451
724.9139, 410.6149
725.3961, 409.5305
725.8782, 408.1005
726.3603, 406.9237
726.8424, 406.0367
727.3245, 405.3015
727.8066, 404.5912
728.2888, 404.1471
728.7709, 404.2903
729.2530, 404.7461
729.7351, 405.0912
730.2172, 405.1734
730.6993, 405.0040
731.1815, 404.3481
731.6636, 403.4403
732.1457, 403.4112
732.6278, 404.3903
733.1099, 404.7490
733.5920, 403.6185
734.0742, 401.7999
734.5563, 400.4770
735.0384, 399.7234
735.5205, 399.1576
736.0026, 398.6613
736.4847, 398.4870
736.9669, 399.0133
737.4490, 399.7485
737.9311, 400.2594
738.4132, 400.3995
738.8953, 400.0308
739.3774, 398.7744
739.8596, 397.1682
740.3417, 396.3806
740.8238, 396.3665
741.3059, 396.4824
741.7880, 396.6081
742.2701, 396.6618
742.7523, 396.5963
743.2344, 396.4004
743.7165, 395.9123
744.1986, 394.2863
744.6807, 393.5570
745.1628, 394.9894
745.6450, 396.5692
746.1271, 396.7472
746.6092, 395.6931
747.0913, 394.2373
747.5734, 392.6219
748.0555, 391.4219
748.5377, 391.7767
749.0198, 393.1975
749.5019, 393.7863
749.9840, 393.2990
750.4661, 392.5426
750.9482, 392.0058
751.4304, 391.5092
751.9125, 390.5338
752.3946, 388.4668
752.8767, 387.4118
753.3588, 388.0283
753.8409, 388.8406
754.3231, 389.4980
754.8052, 389.8597
755.2873, 389.5408
755.7694, 388.5007
756.2515, 387.8860
756.7336, 389.1846
757.2158, 391.1452
757.6979, 391.5266
758.1800, 390.5187
758.6621, 389.3846
759.1442, 388.5132
759.6263, 388.0591
760.1085, 388.3342
760.5906, 389.3427
761.0727, 389.5138
761.5548, 387.8846
762.0369, 386.8555
762.5190, 387.4366
763.0012, 388.1753
763.4833, 387.8654
763.9654, 386.7107
764.4475, 385.7436
764.9296, 385.2105
765.4117, 385.2730
765.8939, 386.4856
766.3760, 388.2450
766.8581, 389.4081
767.3402, 389.8613
767.8223, 390.1003
768.3044, 390.4097
768.7866, 390.8499
769.2687, 391.7079
769.7508, 393.3637
770.2329, 393.9897
770.7150, 392.7902
771.1971, 391.5928
771.6793, 391.0910
772.1614, 391.1375
772.6435, 391.7089
773.1256, 392.8793
773.6077, 393.7757
774.0898, 393.9061
774.5720, 393.7693
775.0541, 393.6104
775.5362, 393.5381
776.0183, 393.7504
776.5004, 394.2887
776.9825, 394.9970
777.4647, 395.8388
777.9468, 396.6612
778.4289, 396.4140
778.9110, 394.7029
779.3931, 394.1268
779.8752, 395.8973
780.3574, 398.0726
780.8395, 398.8281
781.3216, 398.4536
781.8037, 398.4201
782.2858, 399.0244
782.7679, 399.6354
783.2501, 400.1161
783.7322, 400.5319
784.2143, 400.8599
784.6964, 401.1756
785.1785, 401.6563
785.6606, 402.3897
786.1428, 403.2184
786.6249, 403.8009
787.1070, 404.2970
787.5891, 405.5692
788.0712, 407.6967
788.5533, 409.4668
789.0355, 410.2313
789.5176, 410.5658
789.9997, 411.3036
790.4818, 412.4493
790.9639, 413.9829
791.4460, 416.5459
791.9282, 418.6677
792.4103, 419.7662
792.8924, 420.4720
793.3745, 421.2461
793.8566, 422.1925
794.3387, 423.4410
794.8209, 425.3833
795.3030, 427.1490
795.7851, 427.4468
796.2672, 427.0426
796.7493, 427.6867
797.2314, 429.5758
797.7136, 431.8265
798.1957, 433.9310
798.6778, 435.7607
799.1599, 436.7369
799.6420, 436.2890
800.1241, 437.4364
800.6063, 441.2059
801.0884, 445.0634
801.5705, 447.8651
802.0526, 450.0658
802.5347, 452.1652
803.0168, 454.2114
803.4990, 455.9834
803.9811, 457.2281
804.4632, 458.3755
804.9453, 459.2662
805.4274, 460.4223
805.9095, 462.9520
806.3917, 466.7855
806.8738, 470.3516
807.3559, 472.2429
807.8380, 473.3514
808.3201, 475.7991
808.8022, 479.5337
809.2844, 483.0746
809.7665, 486.2821
810.2486, 488.7755
810.7307, 490.0607
811.2128, 490.5692
811.6949, 491.5797
812.1771, 493.0418
812.6592, 495.1427
813.1413, 498.2736
813.6234, 501.5823
814.1055, 504.4836
814.5876, 507.4207
815.0698, 511.2925
815.5519, 516.1697
816.0340, 520.4679
816.5161, 522.5468
816.9982, 524.0142
817.4803, 526.8806
817.9625, 530.6459
818.4446, 533.8841
818.9267, 536.2983
819.4088, 538.5716
819.8909, 541.2469
820.3730, 544.2829
820.8552, 547.7039
821.3373, 551.8568
821.8194, 554.7982
822.3015, 555.4935
822.7836, 556.3487
823.2657, 559.0051
823.7479, 562.7515
824.2300, 566.2162
824.7121, 569.4100
825.1942, 572.1415
825.6763, 574.0316
826.1584, 575.8007
826.6406, 577.4885
827.1227, 579.4988
827.6048, 582.7567
828.0869, 587.1837
828.5690, 591.1522
829.0511, 593.3203
829.5333, 594.3580
830.0154, 595.4750
830.4975, 596.5229
830.9796, 596.4326
831.4617, 594.9476
831.9438, 594.0281
832.4260, 595.2991
832.9081, 597.8544
833.3902, 598.8741
833.8723, 597.4821
834.3544, 596.8357
834.8365, 597.5440
835.3187, 598.2399
835.8008, 598.6445
836.2829, 598.5998
836.7650, 597.6395
837.2471, 595.7031
837.7292, 594.3483
838.2114, 594.7413
838.6935, 595.1566
839.1756, 594.1716
839.6577, 592.7064
840.1398, 592.3387
840.6219, 593.0297
841.1041, 593.2805
841.5862, 592.0321
842.0683, 590.0156
842.5504, 588.4832
843.0325, 587.3595
843.5146, 586.0645
843.9968, 584.5198
844.4789, 583.1569
844.9610, 582.2612
845.4431, 581.5887
845.9252, 580.7426
846.4073, 579.7747
846.8895, 578.3287
847.3716, 575.5179
847.8537, 573.4210
848.3358, 572.9406
848.8179, 572.9767
849.3000, 572.5685
849.7822, 571.7502
850.2643, 571.0945
850.7464, 570.9152
851.2285, 570.7184
851.7106, 570.4481
852.1927, 569.8575
852.6749, 568.5007
853.1570, 566.5443
853.6391, 564.4346
854.1212, 562.3873
854.6033, 560.8190
855.0854, 560.5795
855.5676, 561.3348
856.0497, 561.5023
856.5318, 561.0562
857.0139, 560.3571
857.4960, 559.5469
857.9781, 558.3624
858.4603, 556.2547
858.9424, 553.4257
859.4245, 552.3190
859.9066, 555.0176
860.3887, 555.8417
860.8708, 552.9770
861.3530, 549.6114
861.8351, 547.1214
862.3172, 545.3715
862.7993, 544.0032
863.2814, 542.9471
863.7635, 542.2740
864.2457, 542.6472
864.7278, 542.8044
865.2099, 541.3962
865.6920, 539.1873
866.1741, 537.8774
866.6563, 537.5793
867.1384, 536.5004
867.6205, 533.0477
868.1026, 528.4109
868.5847, 524.8589
869.0668, 522.2277
869.5490, 519.3167
870.0311, 515.9335
870.5132, 512.9773
870.9953, 511.0714
871.4774, 509.5928
871.9595, 507.2717
872.4417, 503.9551
872.9238, 500.5773
873.4059, 496.7952
873.8880, 493.4720
874.3701, 491.4965
874.8522, 489.6137
875.3344, 486.9015
875.8165, 483.3556
876.2986, 479.1151
876.7807, 473.4473
877.2628, 468.2321
877.7449, 464.4268
878.2271, 461.1220
878.7092, 457.5929
879.1913, 453.9348
879.6734, 450.6499
880.1555, 447.9104
880.6376, 445.0216
881.1198, 441.1513
881.6019, 436.8289
882.0840, 433.0619
882.5661, 429.7460
883.0482, 426.3422
883.5303, 422.7179
884.0125, 419.1440
884.4946, 415.7989
884.9767, 412.7835
885.4588, 410.7242
885.9409, 410.0581
886.4230, 407.6376
886.9052, 402.2012
887.3873, 397.3921
887.8694, 395.4746
888.3515, 394.8423
888.8336, 392.8530
889.3157, 389.3514
889.7979, 385.7063
890.2800, 381.7676
890.7621, 377.9075
891.2442, 373.9141
891.7263, 370.2888
892.2084, 367.6394
892.6906, 365.7434
893.1727, 363.9938
893.6548, 362.3347
894.1369, 360.1773
894.6190, 356.5509
895.1011, 352.6289
895.5833, 349.8278
896.0654, 347.9556
896.5475, 346.4805
897.0296, 345.1609
897.5117, 343.4969
897.9938, 340.7967
898.4760, 339.4105
898.9581, 335.9829
899.4402, 335.5929
899.9223, 334.5296
900.4044, 332.4314
900.8865, 329.9434
901.3687, 327.3890
901.8508, 324.8791
902.3329, 322.6837
902.8150, 320.8843
903.2971, 318.9146
903.7792, 316.3662
904.2614, 314.3634
904.7435, 313.8306
905.2256, 313.4936
905.7077, 312.2696
906.1898, 310.2359
906.6719, 307.8438
907.1541, 304.5348
907.6362, 301.8709
908.1183, 300.4507
908.6004, 299.6245
909.0825, 299.5963
909.5646, 299.5963
910.0468, 298.0704
910.5289, 294.7371
911.0110, 291.8018
911.4931, 291.3309
911.9752, 291.5117
912.4573, 290.2738
912.9395, 288.2070
913.4216, 286.4814
913.9037, 285.2857
914.3858, 284.2662
914.8679, 283.2056
915.3500, 282.2612
915.8321, 281.9883
916.3142, 282.1937
916.7963, 281.0543
917.2784, 278.4238
917.7606, 276.4648
918.2427, 276.0333
918.7248, 276.1470
919.2069, 275.8543
919.6890, 275.1501
920.1711, 273.9191
920.6533, 271.8254
921.1354, 270.0234
921.6175, 268.9130
922.0996, 267.7066
922.5817, 265.7392
923.0638, 263.5319
923.5460, 261.7971
924.0281, 260.5544
924.5102, 259.7906
924.9923, 260.3795
925.4744, 260.3320
925.9565, 258.6854
926.4387, 256.2885
926.9208, 253.4780
927.4029, 250.6593
927.8850, 248.8214
928.3671, 248.5011
928.8492, 248.1897
929.3314, 246.5751
929.8135, 244.6469
930.2956, 243.5971
930.7777, 243.1030
931.2598, 242.3485
931.7419, 241.1335
932.2241, 239.7405
932.7062, 238.3438
933.1883, 237.0087
933.6704, 235.9184
934.1525, 235.0060
934.6346, 233.9779
935.1168, 232.8041
935.5989, 231.4780
936.0810, 230.0002
936.5631, 228.3719
937.0452, 226.5003
937.5273, 224.4377
938.0095, 223.0574
938.4916, 222.4530
938.9737, 222.1886
939.4558, 222.4176
939.9379, 222.4788
940.4200, 221.8173
940.9022, 220.7119
941.3843, 219.9011
941.8664, 219.6047
942.3485, 218.9150
942.8306, 217.3067
943.3127, 215.9988
943.7949, 215.4388
944.2770, 215.2114
944.7591, 215.0536
945.2412, 214.9059
945.7233, 214.6365
946.2054, 214.1283
946.6876, 213.6899
947.1697, 213.4500
947.6518, 213.3031
948.1339, 213.4662
948.6160, 213.5367
949.0981, 212.6571
949.5803, 210.8341
950.0624, 209.3726
950.5445, 209.1747
951.0266, 209.5035
951.5087, 209.9040
951.9908, 210.1860
952.4730, 209.8746
952.9551, 209.1133
953.4372, 208.5948
953.9193, 208.6005
954.4014, 208.6840
954.8835, 208.2862
955.3657, 207.6040
955.8478, 207.1878
956.3299, 207.0183
956.8120, 206.9956
957.2941, 207.1006
957.7762, 207.1777
958.2584, 207.1277
958.7405, 206.9766
959.2226, 206.7581
959.7047, 206.4639
960.1868, 206.2832
960.6689, 206.3202
961.1511, 206.0388
961.6332, 205.2334
962.1153, 204.1482
962.5974, 202.8345
963.0795, 201.4680
963.5616, 200.8693
964.0438, 201.7780
964.5259, 201.8518
965.0080, 200.0493
965.4901, 198.7600
965.9722, 199.3680
966.4543, 200.4651
966.9365, 200.4118
967.4186, 199.3482
967.9007, 198.9706
968.3828, 200.2130
968.8649, 201.1190
969.3470, 201.0929
969.8292, 200.7727
970.3113, 200.3834
970.7934, 200.0582
971.2755, 200.0217
971.7576, 200.2826
972.2397, 200.4141
972.7219, 200.4386
973.2040, 200.0080
973.6861, 198.2927
974.1682, 196.4326
974.6503, 195.9776
975.1324, 196.5364
975.6146, 196.6956
976.0967, 195.9578
976.5788, 195.1287
977.0609, 194.8563
977.5430, 194.9412
978.0251, 195.2292
978.5073, 195.6194
978.9894, 195.8911
979.4715, 196.0158
979.9536, 196.0623
980.4357, 196.0672
980.9178, 196.0519
981.4000, 196.1418
981.8821, 196.2312
982.3642, 195.7804
982.8463, 194.8687
983.3284, 194.2669
983.8105, 194.1703
984.2927, 194.0925
984.7748, 193.6660
985.2569, 193.0400
985.7390, 192.4960
986.2211, 192.0254
986.7032, 191.9430
987.1854, 192.3643
987.6675, 192.4823
988.1496, 191.9100
988.6317, 191.3554
989.1138, 191.4898
989.5959, 192.1880
990.0781, 192.9870
990.5602, 194.1929
991.0423, 194.5949
991.5244, 194.0164
992.0065, 192.8723
992.4886, 190.7411
992.9708, 188.6780
993.4529, 187.9422
993.9350, 188.4334
994.4171, 188.9671
994.8992, 189.4666
995.3813, 190.1229
995.8635, 191.3320
996.3456, 192.2524
996.8277, 192.3584
997.3098, 192.0625
997.7919, 191.9529
998.2740, 192.0237
998.7562, 191.6279
999.2383, 189.9409
999.7204, 188.7673
1000.203, 188.8713
1000.685, 189.3504
1001.167, 190.0035
1001.649, 190.4198
1002.131, 189.7448
1002.613, 187.9458
1003.095, 186.7501
1003.577, 187.5461
1004.059, 188.3569
1004.542, 187.8410
1005.024, 187.0150
1005.506, 186.8362
1005.988, 187.2043
1006.470, 187.7787
1006.952, 188.4259
1007.434, 188.8167
1007.916, 188.4834
1008.398, 188.0369
1008.881, 188.1624
1009.363, 188.4952
1009.845, 188.4674
1010.327, 188.1270
1010.809, 187.7980
1011.291, 187.6189
1011.773, 187.6667
1012.255, 188.2104
1012.738, 188.8698
1013.220, 188.9016
1013.702, 188.6112
1014.184, 188.9386
1014.666, 189.8025
1015.148, 190.0592
1015.630, 189.1507
1016.112, 188.0164
1016.594, 188.0100
1017.077, 188.5419
1017.559, 187.5817
1018.041, 185.6089
1018.523, 185.2445
1019.005, 186.8083
1019.487, 188.4129
1019.969, 189.0108
1020.451, 188.9727
1020.934, 188.7450
1021.416, 188.3863
1021.898, 188.1737
1022.380, 188.1144
1022.862, 188.6323
1023.344, 189.8714
1023.826, 190.5879
1024.308, 189.9394
1024.791, 188.5887
1025.273, 187.6452
1025.755, 187.1066
1026.237, 187.1371
1026.719, 187.8677
1027.201, 188.0852
1027.683, 187.4465
1028.165, 186.5812
1028.647, 185.7752
1029.130, 185.2941
1029.612, 185.7912
1030.094, 187.3691
1030.576, 188.6458
1031.058, 189.7112
1031.540, 190.1168
1032.022, 189.5419
1032.504, 188.7870
1032.986, 188.4029
1033.469, 188.2174
1033.951, 187.7721
1034.433, 186.9129
1034.915, 186.7960
1035.397, 187.8303
1035.879, 188.7369
1036.361, 189.3192
1036.843, 189.6092
1037.326, 189.5838
1037.808, 189.3000
1038.290, 188.7655
1038.772, 187.6798
1039.254, 187.7354
1039.736, 190.2657
1040.218, 191.8117
1040.700, 190.9889
1041.182, 189.7478
1041.665, 189.3696
1042.147, 189.5656
1042.629, 189.6767
1043.111, 189.6652
1043.593, 189.7339
1044.075, 189.9208
1044.557, 190.1402
1045.039, 190.6975
1045.521, 190.9690
1046.004, 189.9287
1046.486, 188.4568
1046.968, 188.7215
1047.450, 191.3705
1047.932, 192.7969
1048.414, 191.6006
1048.896, 190.5384
1049.378, 190.1446
1049.861, 190.3081
1050.343, 191.3379
1050.825, 192.7241
1051.307, 193.3890
1051.789, 193.0940
1052.271, 193.1359
1052.753, 194.3859
1053.235, 195.1643
1053.718, 194.3106
1054.200, 193.3906
1054.682, 193.9396
1055.164, 195.1478
1055.646, 195.2017
1056.128, 193.7585
1056.610, 192.8477
1057.092, 193.4225
1057.574, 194.0515
1058.057, 194.0827
1058.539, 194.1245
1059.021, 194.7644
1059.503, 195.7138
1059.985, 196.3618
1060.467, 196.6172
1060.949, 197.0365
1061.431, 198.6012
1061.913, 199.2936
1062.396, 197.2335
1062.878, 195.0700
1063.360, 195.1624
1063.842, 196.4874
1064.324, 197.0166
1064.806, 196.4843
1065.288, 196.3665
1065.770, 198.0513
1066.253, 199.1023
1066.735, 197.5928
1067.217, 195.9815
1067.699, 196.3807
1068.181, 197.8599
1068.663, 198.7316
1069.145, 198.8035
1069.627, 199.1289
1070.109, 200.2917
1070.592, 201.4597
1071.074, 202.8261
1071.556, 203.4872
1072.038, 201.8382
1072.520, 199.5558
1073.002, 199.3819
1073.484, 201.3107
1073.966, 202.7166
1074.448, 202.4924
1074.931, 201.9407
1075.413, 201.1903
1075.895, 200.8424
1076.377, 201.7876
1076.859, 203.1228
1077.341, 203.4978
1077.823, 202.9971
1078.305, 202.8207
1078.788, 203.4390
1079.270, 204.2173
1079.752, 205.1844
1080.234, 205.8495
1080.716, 205.4146
1081.198, 204.8199
1081.680, 205.3955
1082.162, 206.8857
1082.644, 207.9945
1083.127, 208.3271
1083.609, 208.2422
1084.091, 207.2683
1084.573, 206.6639
1085.055, 207.5672
1085.537, 208.9476
1086.019, 209.6320
1086.501, 209.8194
1086.984, 210.3296
1087.466, 211.3855
1087.948, 212.6233
1088.430, 214.6093
1088.912, 215.8411
1089.394, 214.8236
1089.876, 213.3148
1090.358, 212.8902
1090.840, 213.2901
1091.323, 213.7386
1091.805, 214.0746
1092.287, 214.3699
1092.769, 214.6572
1093.251, 214.9033
1093.733, 214.8670
1094.215, 215.0070
1094.697, 216.0762
1095.179, 217.3813
1095.662, 217.4750
1096.144, 216.3280
1096.626, 216.0552
1097.108, 218.1003
1097.590, 219.8797
1098.072, 220.4425
1098.554, 220.6003
1099.036, 220.5932
1099.519, 220.6573
1100.001, 221.0923
1100.483, 221.8669
1100.965, 222.6616
1101.447, 223.4556
1101.929, 224.1390
1102.411, 224.8398
1102.893, 225.2312
1103.375, 224.6959
1103.858, 224.1399
1104.340, 224.6242
1104.822, 225.9063
1105.304, 226.9693
1105.786, 227.6795
1106.268, 228.1619
1106.750, 227.9552
1107.232, 228.1628
1107.714, 229.6358
1108.197, 231.2079
1108.679, 231.8787
1109.161, 231.9708
1109.643, 232.2698
1110.125, 232.8577
1110.607, 233.4670
1111.089, 234.2408
1111.571, 234.7843
1112.054, 234.9270
1112.536, 234.9193
1113.018, 234.5746
1113.500, 234.3368
1113.982, 235.0480
1114.464, 236.7331
1114.946, 237.9859
1115.428, 238.4142
1115.911, 239.0763
1116.393, 240.3642
1116.875, 241.4157
1117.357, 241.6622
1117.839, 241.7267
1118.321, 242.2524
1118.803, 243.1956
1119.285, 244.3057
1119.767, 245.6553
1120.250, 247.0356
1120.732, 248.7688
1121.214, 249.8217
1121.696, 249.5025
1122.178, 249.0891
1122.660, 249.6994
1123.142, 250.8997
1123.624, 251.4717
1124.106, 251.2234
1124.589, 251.9417
1125.071, 254.0903
1125.553, 255.4989
1126.035, 255.4792
1126.517, 255.5151
1126.999, 256.5367
1127.481, 257.9975
1127.963, 259.0473
1128.446, 259.7175
1128.928, 260.3632
1129.410, 260.9729
1129.892, 261.6188
1130.374, 262.2766
1130.856, 263.3140
1131.338, 264.9757
1131.820, 266.4232
1132.302, 266.6375
1132.785, 267.7554
1133.267, 268.2439
1133.749, 268.5421
1134.231, 269.2869
1134.713, 269.0316
1135.195, 269.8148
1135.677, 272.1932
1136.159, 274.3152
1136.641, 274.7882
1137.124, 274.6817
1137.606, 275.8257
1138.088, 277.9337
1138.570, 280.2316
1139.052, 282.5362
1139.534, 283.8008
1140.016, 284.0093
1140.498, 284.1844
1140.981, 284.8118
1141.463, 285.6764
1141.945, 286.5730
1142.427, 287.5375
1142.909, 288.5952
1143.391, 289.7905
1143.873, 291.5620
1144.355, 293.5160
1144.838, 294.1096
1145.320, 293.1624
1145.802, 292.5928
1146.284, 293.6765
1146.766, 295.6250
1147.248, 298.1373
1147.730, 300.6385
1148.212, 302.4442
1148.694, 303.7245
1149.177, 304.8167
1149.659, 305.7780
1150.141, 306.3992
1150.623, 306.5210
1151.105, 307.1828
1151.587, 309.3749
1152.069, 311.9236
1152.551, 314.4404
1153.033, 316.5534
1153.516, 317.7208
1153.998, 318.2406
1154.480, 318.5754
1154.962, 318.8585
1155.444, 319.6481
1155.926, 321.4974
1156.408, 323.3300
1156.890, 324.8126
1157.373, 326.1963
1157.855, 327.3611
1158.337, 328.7012
1158.819, 331.0411
1159.301, 334.0368
1159.783, 335.9091
1160.265, 335.9824
1160.747, 336.3820
1161.229, 337.3112
1161.712, 338.4810
1162.194, 339.8857
1162.676, 341.4611
1163.158, 343.2122
1163.640, 345.0755
1164.122, 346.8866
1164.604, 348.6462
1165.086, 350.9391
1165.568, 352.2887
1166.051, 356.2450
1166.533, 355.4068
1167.015, 355.1704
1167.497, 356.9312
1167.979, 359.7482
1168.461, 362.8317
1168.943, 365.9527
1169.425, 368.4697
1169.908, 370.3677
1170.390, 371.4329
1170.872, 371.6212
1171.354, 372.8537
1171.836, 375.5987
1172.318, 378.1621
1172.800, 379.5045
1173.282, 380.3926
1173.765, 381.9131
1174.247, 383.8180
1174.729, 385.2130
1175.211, 386.3509
1175.693, 388.1771
1176.175, 390.6839
1176.657, 393.5186
1177.139, 396.4796
1177.621, 399.0567
1178.104, 400.9226
1178.586, 402.1229
1179.068, 401.5688
1179.550, 401.2629
1180.032, 405.1982
1180.514, 410.8678
1180.996, 413.2365
1181.478, 412.5821
1181.960, 412.7062
1182.443, 415.0036
1182.925, 417.7260
1183.407, 420.0177
1183.889, 422.2103
1184.371, 424.4048
1184.853, 426.6905
1185.335, 429.1821
1185.817, 431.7990
1186.300, 434.4287
1186.782, 437.0452
1187.264, 439.5351
1187.746, 441.6663
1188.228, 444.1262
1188.710, 447.8999
1189.192, 450.8592
1189.674, 451.2640
1190.156, 451.4753
1190.639, 453.1949
1191.121, 456.1208
1191.603, 459.7735
1192.085, 464.2509
1192.567, 468.0953
1193.049, 471.4912
1193.531, 473.5677
1194.013, 473.7323
1194.495, 474.0110
1194.978, 475.0638
1195.460, 477.2697
1195.942, 481.2672
1196.424, 486.2665
1196.906, 489.7373
1197.388, 491.7802
1197.870, 494.4171
1198.352, 497.6596
1198.835, 501.4919
1199.317, 505.8067
1199.799, 509.2496
1200.281, 511.0886
1200.763, 512.6440
1201.245, 515.3356
1201.727, 518.8224
1202.209, 523.0551
1202.692, 527.3777
1203.174, 530.0118
1203.656, 531.6298
1204.138, 534.5373
1204.620, 538.9385
1205.102, 542.6985
1205.584, 544.5471
1206.066, 546.5485
1206.548, 550.5773
1207.031, 554.8896
1207.513, 557.9811
1207.995, 560.7679
1208.477, 564.4136
1208.959, 568.5533
1209.441, 572.1718
1209.923, 575.1231
1210.405, 578.1334
1210.887, 580.9973
1211.370, 584.5006
1211.852, 589.3029
1212.334, 594.1039
1212.816, 598.5190
1213.298, 602.5440
1213.780, 605.7701
1214.262, 608.8226
1214.744, 613.5367
1215.227, 617.5025
1215.709, 621.4279
1216.191, 626.9637
1216.673, 630.1470
1217.155, 635.1486
1217.637, 640.6830
1218.119, 646.2951
1218.601, 651.3934
1219.083, 655.2092
1219.566, 658.3569
1220.048, 662.3297
1220.530, 666.9095
1221.012, 670.8823
1221.494, 675.8755
1221.976, 681.2474
1222.458, 686.1403
1222.940, 692.6171
1223.422, 698.3392
1223.905, 703.8544
1224.387, 709.7351
1224.869, 715.4835
1225.351, 720.0158
1225.833, 724.6159
1226.315, 731.1445
1226.797, 738.6797
1227.279, 745.4695
1227.762, 751.5060
1228.244, 758.1501
1228.726, 766.0753
1229.208, 772.8987
1229.690, 777.0743
1230.172, 780.9844
1230.654, 784.6591
1231.136, 789.1305
1231.619, 795.5650
1232.101, 802.8264
1232.583, 809.0406
1233.065, 814.6227
1233.547, 822.6151
1234.029, 834.5906
1234.511, 843.4547
1234.993, 848.3963
1235.475, 853.2360
1235.958, 858.6174
1236.440, 865.4245
1236.922, 874.4641
1237.404, 883.7797
1237.886, 890.6858
1238.368, 895.8818
1238.850, 901.1404
1239.332, 906.6934
1239.814, 914.1642
1240.297, 923.0120
1240.779, 930.6432
1241.261, 936.6425
1241.743, 942.4665
1242.225, 948.8565
1242.707, 955.6072
1243.189, 962.1332
1243.671, 969.3928
1244.154, 979.1826
1244.636, 989.4391
1245.118, 998.1054
1245.600, 1005.532
1246.082, 1012.153
1246.564, 1018.361
1247.046, 1025.448
1247.528, 1034.066
1248.010, 1042.412
1248.493, 1050.222
1248.975, 1057.687
1249.457, 1064.579
1249.939, 1071.491
1250.421, 1078.624
1250.903, 1086.124
1251.385, 1094.379
1251.867, 1103.153
1252.349, 1111.275
1252.832, 1118.774
1253.314, 1124.950
1253.796, 1129.736
1254.278, 1134.956
1254.760, 1141.040
1255.242, 1148.356
1255.724, 1157.133
1256.206, 1166.245
1256.689, 1174.772
1257.171, 1182.205
1257.653, 1186.779
1258.135, 1190.235
1258.617, 1195.210
1259.099, 1201.616
1259.581, 1209.169
1260.063, 1217.501
1260.546, 1225.767
1261.028, 1233.707
1261.510, 1241.168
1261.992, 1248.076
1262.474, 1254.473
1262.956, 1259.394
1263.438, 1264.865
1263.920, 1272.910
1264.402, 1281.613
1264.885, 1288.447
1265.367, 1294.030
1265.849, 1300.754
1266.331, 1306.492
1266.813, 1311.138
1267.295, 1317.475
1267.777, 1320.532
1268.259, 1324.629
1268.741, 1330.582
1269.224, 1338.902
1269.706, 1346.926
1270.188, 1352.105
1270.670, 1355.615
1271.152, 1359.069
1271.634, 1362.841
1272.116, 1368.784
1272.598, 1375.424
1273.081, 1378.370
1273.563, 1378.729
1274.045, 1381.637
1274.527, 1388.332
1275.009, 1394.922
1275.491, 1399.550
1275.973, 1403.484
1276.455, 1406.116
1276.938, 1409.790
1277.420, 1416.905
1277.902, 1424.627
1278.384, 1430.796
1278.866, 1435.494
1279.348, 1438.839
1279.830, 1440.895
1280.312, 1443.243
1280.794, 1445.524
1281.276, 1449.974
1281.759, 1457.311
1282.241, 1462.544
1282.723, 1464.187
1283.205, 1465.913
1283.687, 1469.987
1284.169, 1475.112
1284.651, 1479.854
1285.133, 1484.236
1285.616, 1488.069
1286.098, 1491.232
##END=



