##NAMES=Lueshite
##RRUFFID=R090025
##IDEAL CHEMISTRY=NaNb^5+^O_3_
##LOCALITY=Lueshe carbonatite, Kivu Province, Democratic Republic of the Congo
##OWNER=RRUFF
##SOURCE=Karl Russ
##DESCRIPTION=Black cubes
##STATUS=The identification of this mineral is confirmed by single-crystal X-ray diffraction and chemical analysis.
##URL=rruff.info/R090025
##MEASURED CHEMISTRY=(Na_0.87_Ca_0.03_Ce_0.01_La_0.01_Th_0.01_)(Nb_0.94_Ta_0.06_)O_3_; = bright. (Na_0.91_Ca_0.03_Ce_0.01_La_0.01_)(Nb_0.95_Ta_0.05_)O_3_ = dark
90.92609, 0.0000000E+00
91.40820, 51.81276
91.89032, 51.48817
92.37244, 51.61169
92.85455, 52.12495
93.33667, 52.67855
93.81879, 53.06673
94.30090, 53.30293
94.78302, 53.42757
95.26514, 53.41017
95.74725, 53.31649
96.22937, 53.21519
96.71149, 53.08966
97.19360, 53.15295
97.67572, 53.74659
98.15784, 54.85004
98.63995, 55.82742
99.12207, 56.55157
99.60419, 57.01052
100.0863, 56.98680
100.5684, 56.21840
101.0505, 55.49304
101.5327, 55.97679
102.0148, 58.04341
102.4969, 60.02435
102.9790, 60.98059
103.4611, 60.30394
103.9432, 62.17388
104.4253, 67.91005
104.9075, 75.47502
105.3896, 80.41174
105.8717, 80.32630
106.3538, 80.92631
106.8359, 84.46170
107.3180, 92.38857
107.8002, 100.6649
108.2823, 109.0723
108.7644, 117.7682
109.2465, 127.6988
109.7286, 138.8752
110.2107, 151.1507
110.6929, 164.6729
111.1750, 179.0103
111.6571, 194.9046
112.1392, 211.8448
112.6213, 230.0730
113.1034, 251.7144
113.5856, 278.0166
114.0677, 307.6909
114.5498, 339.5496
115.0319, 371.6273
115.5140, 407.7555
115.9961, 449.4272
116.4783, 496.6226
116.9604, 546.1920
117.4425, 599.7263
117.9246, 654.8216
118.4067, 708.3533
118.8888, 758.6777
119.3710, 808.1027
119.8531, 858.8952
120.3352, 911.3973
120.8173, 961.1976
121.2994, 1003.898
121.7815, 1041.669
122.2637, 1078.444
122.7458, 1114.454
123.2279, 1150.776
123.7100, 1187.528
124.1921, 1224.067
124.6742, 1263.794
125.1564, 1310.251
125.6385, 1362.617
126.1206, 1418.533
126.6027, 1475.477
127.0848, 1534.785
127.5669, 1598.937
128.0491, 1669.281
128.5312, 1742.546
129.0133, 1814.967
129.4954, 1885.992
129.9775, 1956.578
130.4596, 2028.815
130.9418, 2101.049
131.4239, 2169.317
131.9060, 2232.140
132.3881, 2291.438
132.8702, 2351.280
133.3523, 2412.206
133.8345, 2470.366
134.3166, 2522.169
134.7987, 2568.035
135.2808, 2610.628
135.7629, 2650.922
136.2450, 2689.100
136.7272, 2724.556
137.2093, 2757.007
137.6914, 2788.263
138.1735, 2819.891
138.6556, 2851.532
139.1377, 2884.451
139.6199, 2919.234
140.1020, 2955.577
140.5841, 2993.530
141.0662, 3032.191
141.5483, 3073.055
142.0304, 3118.606
142.5126, 3170.414
142.9947, 3221.028
143.4768, 3256.913
143.9589, 3269.106
144.4410, 3286.573
144.9231, 3311.064
145.4053, 3339.573
145.8874, 3368.510
146.3695, 3400.120
146.8516, 3429.044
147.3337, 3452.990
147.8158, 3471.031
148.2980, 3487.971
148.7801, 3502.732
149.2622, 3516.729
149.7443, 3532.419
150.2264, 3554.391
150.7085, 3574.273
151.1907, 3588.959
151.6728, 3596.233
152.1549, 3602.810
152.6370, 3608.418
153.1191, 3613.362
153.6012, 3618.297
154.0834, 3623.102
154.5655, 3627.858
155.0476, 3632.639
155.5297, 3637.359
156.0118, 3641.936
156.4939, 3646.418
156.9761, 3650.741
157.4582, 3654.597
157.9403, 3656.844
158.4224, 3659.293
158.9045, 3663.027
159.3866, 3668.788
159.8688, 3675.213
160.3509, 3681.562
160.8330, 3688.120
161.3151, 3696.161
161.7972, 3708.042
162.2793, 3720.648
162.7615, 3731.603
163.2436, 3739.461
163.7257, 3746.337
164.2078, 3752.924
164.6899, 3759.237
165.1720, 3765.474
165.6541, 3771.730
166.1363, 3777.894
166.6184, 3783.859
167.1005, 3790.559
167.5826, 3796.220
168.0647, 3798.498
168.5468, 3797.737
169.0290, 3798.685
169.5111, 3806.500
169.9932, 3817.250
170.4753, 3825.785
170.9574, 3828.108
171.4395, 3828.637
171.9217, 3830.799
172.4038, 3834.640
172.8859, 3839.524
173.3680, 3845.959
173.8501, 3853.050
174.3322, 3859.312
174.8144, 3863.217
175.2965, 3866.442
175.7786, 3870.719
176.2607, 3876.093
176.7428, 3882.428
177.2249, 3890.307
177.7071, 3899.055
178.1892, 3907.248
178.6713, 3913.915
179.1534, 3919.661
179.6355, 3925.630
180.1176, 3931.939
180.5998, 3937.827
181.0819, 3941.586
181.5640, 3943.958
182.0461, 3947.859
182.5282, 3956.929
183.0103, 3968.244
183.4925, 3974.551
183.9746, 3975.031
184.4567, 3973.181
184.9388, 3973.189
185.4209, 3974.749
185.9030, 3975.893
186.3852, 3975.353
186.8673, 3973.650
187.3494, 3972.560
187.8315, 3972.286
188.3136, 3972.378
188.7957, 3971.880
189.2779, 3970.925
189.7600, 3970.906
190.2421, 3973.282
190.7242, 3977.506
191.2063, 3980.485
191.6884, 3981.994
192.1706, 3982.330
192.6527, 3981.458
193.1348, 3979.300
193.6169, 3977.550
194.0990, 3976.923
194.5811, 3977.344
195.0633, 3978.742
195.5454, 3981.467
196.0275, 3984.364
196.5096, 3985.071
196.9917, 3983.445
197.4738, 3981.384
197.9560, 3980.140
198.4381, 3979.769
198.9202, 3978.032
199.4023, 3974.458
199.8844, 3970.226
200.3665, 3967.650
200.8487, 3966.905
201.3308, 3967.100
201.8129, 3968.106
202.2950, 3970.048
202.7771, 3971.505
203.2592, 3972.238
203.7414, 3972.677
204.2235, 3973.663
204.7056, 3975.116
205.1877, 3977.165
205.6698, 3980.037
206.1519, 3983.867
206.6341, 3987.211
207.1162, 3989.793
207.5983, 3991.918
208.0804, 3994.228
208.5625, 3996.642
209.0446, 3999.325
209.5268, 4002.650
210.0089, 4007.028
210.4910, 4010.061
210.9731, 4011.304
211.4552, 4011.510
211.9373, 4012.461
212.4195, 4014.431
212.9016, 4016.575
213.3837, 4018.347
213.8658, 4019.405
214.3479, 4021.651
214.8300, 4025.755
215.3121, 4030.718
215.7943, 4033.818
216.2764, 4033.926
216.7585, 4034.369
217.2406, 4036.940
217.7227, 4042.663
218.2048, 4046.905
218.6870, 4049.491
219.1691, 4050.538
219.6512, 4050.455
220.1333, 4049.289
220.6154, 4046.797
221.0975, 4042.158
221.5797, 4033.413
222.0618, 4028.697
222.5439, 4029.798
223.0260, 4034.186
223.5081, 4036.412
223.9902, 4036.688
224.4724, 4034.629
224.9545, 4029.718
225.4366, 4020.459
225.9187, 4012.821
226.4008, 4007.460
226.8829, 4003.427
227.3651, 3998.624
227.8472, 3992.653
228.3293, 3986.459
228.8114, 3980.484
229.2935, 3975.104
229.7757, 3968.594
230.2578, 3960.377
230.7399, 3951.277
231.2220, 3942.724
231.7041, 3934.552
232.1862, 3927.150
232.6684, 3920.956
233.1505, 3916.833
233.6326, 3910.934
234.1147, 3902.861
234.5968, 3893.186
235.0789, 3883.129
235.5611, 3873.007
236.0432, 3862.055
236.5253, 3849.396
237.0074, 3834.103
237.4895, 3821.459
237.9716, 3812.707
238.4538, 3805.883
238.9359, 3798.065
239.4180, 3789.765
239.9001, 3779.473
240.3822, 3765.865
240.8643, 3747.685
241.3465, 3732.986
241.8286, 3724.094
242.3107, 3717.027
242.7928, 3705.742
243.2749, 3687.065
243.7570, 3669.602
244.2392, 3656.117
244.7213, 3647.428
245.2034, 3637.421
245.6855, 3625.667
246.1676, 3612.917
246.6497, 3599.985
247.1319, 3586.457
247.6140, 3573.657
248.0961, 3562.352
248.5782, 3552.852
249.0603, 3541.735
249.5424, 3527.998
250.0246, 3513.582
250.5067, 3500.456
250.9888, 3489.158
251.4709, 3478.084
251.9530, 3466.728
252.4351, 3454.909
252.9173, 3444.374
253.3994, 3436.103
253.8815, 3427.636
254.3636, 3416.145
254.8457, 3399.731
255.3278, 3384.595
255.8100, 3372.517
256.2921, 3363.283
256.7742, 3351.558
257.2563, 3336.485
257.7384, 3320.091
258.2205, 3304.113
258.7026, 3288.176
259.1848, 3273.553
259.6669, 3261.437
260.1490, 3251.229
260.6311, 3238.090
261.1132, 3220.694
261.5953, 3202.713
262.0775, 3187.426
262.5596, 3176.077
263.0417, 3163.302
263.5238, 3147.546
264.0059, 3129.847
264.4880, 3115.025
264.9702, 3104.791
265.4523, 3094.171
265.9344, 3079.479
266.4165, 3058.926
266.8986, 3040.337
267.3807, 3024.585
267.8629, 3010.967
268.3450, 2997.256
268.8271, 2983.532
269.3092, 2969.233
269.7913, 2953.617
270.2734, 2936.549
270.7556, 2919.375
271.2377, 2901.530
271.7198, 2884.064
272.2019, 2870.055
272.6840, 2860.977
273.1661, 2850.504
273.6483, 2834.067
274.1304, 2810.332
274.6125, 2792.755
275.0946, 2783.560
275.5767, 2777.915
276.0588, 2766.754
276.5410, 2748.942
277.0231, 2731.266
277.5052, 2717.296
277.9873, 2706.992
278.4694, 2694.445
278.9515, 2678.713
279.4337, 2662.553
279.9158, 2650.806
280.3979, 2644.084
280.8800, 2635.580
281.3621, 2622.709
281.8442, 2605.851
282.3264, 2588.748
282.8085, 2571.470
283.2906, 2553.927
283.7727, 2535.237
284.2548, 2515.403
284.7369, 2498.031
285.2191, 2485.236
285.7012, 2475.686
286.1833, 2462.867
286.6654, 2446.349
287.1475, 2429.414
287.6296, 2416.114
288.1118, 2405.929
288.5939, 2394.008
289.0760, 2378.493
289.5581, 2361.069
290.0402, 2345.397
290.5223, 2331.425
291.0045, 2318.593
291.4866, 2306.977
291.9687, 2296.206
292.4508, 2284.532
292.9329, 2271.522
293.4150, 2257.645
293.8972, 2242.836
294.3793, 2227.203
294.8614, 2211.723
295.3435, 2197.290
295.8256, 2183.638
296.3077, 2169.991
296.7899, 2156.226
297.2720, 2142.962
297.7541, 2131.748
298.2362, 2122.216
298.7183, 2112.462
299.2004, 2100.878
299.6826, 2088.509
300.1647, 2077.292
300.6468, 2067.598
301.1289, 2057.863
301.6110, 2046.064
302.0931, 2032.849
302.5753, 2019.598
303.0574, 2006.446
303.5395, 1993.919
304.0216, 1983.352
304.5037, 1974.721
304.9858, 1966.348
305.4680, 1956.971
305.9501, 1946.874
306.4322, 1936.568
306.9143, 1925.871
307.3964, 1915.285
307.8785, 1905.382
308.3607, 1896.112
308.8428, 1886.458
309.3249, 1875.075
309.8070, 1863.176
310.2891, 1852.231
310.7712, 1842.754
311.2534, 1833.991
311.7355, 1825.847
312.2176, 1818.016
312.6997, 1809.673
313.1818, 1800.044
313.6639, 1789.990
314.1461, 1780.076
314.6282, 1770.407
315.1103, 1761.056
315.5924, 1752.218
316.0745, 1743.762
316.5566, 1735.270
317.0388, 1725.999
317.5209, 1717.191
318.0030, 1709.740
318.4851, 1704.178
318.9672, 1698.264
319.4493, 1691.338
319.9315, 1683.641
320.4136, 1675.389
320.8957, 1666.426
321.3778, 1657.202
321.8599, 1647.666
322.3420, 1637.771
322.8242, 1628.160
323.3063, 1619.291
323.7884, 1610.603
324.2705, 1601.605
324.7526, 1590.952
325.2347, 1581.248
325.7169, 1573.536
326.1990, 1567.595
326.6811, 1561.586
327.1632, 1555.917
327.6453, 1549.781
328.1274, 1542.729
328.6096, 1533.389
329.0917, 1524.787
329.5738, 1517.541
330.0559, 1511.205
330.5380, 1504.214
331.0201, 1496.155
331.5023, 1487.888
331.9844, 1479.593
332.4665, 1470.898
332.9486, 1463.374
333.4307, 1458.100
333.9128, 1453.458
334.3950, 1446.619
334.8771, 1436.131
335.3592, 1426.058
335.8413, 1417.867
336.3234, 1411.732
336.8055, 1405.269
337.2877, 1398.526
337.7698, 1391.471
338.2519, 1383.732
338.7340, 1374.994
339.2161, 1367.115
339.6982, 1360.867
340.1803, 1355.868
340.6624, 1350.162
341.1446, 1343.631
341.6267, 1336.576
342.1088, 1328.870
342.5909, 1320.554
343.0730, 1312.302
343.5551, 1304.121
344.0373, 1296.244
344.5194, 1289.735
345.0015, 1284.602
345.4836, 1279.368
345.9657, 1273.001
346.4478, 1265.705
346.9300, 1258.598
347.4121, 1251.687
347.8942, 1244.979
348.3763, 1238.405
348.8584, 1231.982
349.3405, 1225.596
349.8227, 1219.410
350.3048, 1213.204
350.7869, 1206.368
351.2690, 1198.926
351.7511, 1191.438
352.2332, 1184.409
352.7154, 1177.796
353.1975, 1171.565
353.6796, 1166.142
354.1617, 1160.620
354.6438, 1153.199
355.1259, 1144.356
355.6081, 1136.740
356.0902, 1133.412
356.5723, 1131.586
357.0544, 1127.783
357.5365, 1120.531
358.0186, 1113.111
358.5008, 1108.316
358.9829, 1105.026
359.4650, 1100.848
359.9471, 1093.676
360.4292, 1086.004
360.9113, 1079.335
361.3935, 1073.948
361.8756, 1069.159
362.3577, 1065.474
362.8398, 1062.009
363.3219, 1057.760
363.8040, 1051.698
364.2862, 1045.586
364.7683, 1040.093
365.2504, 1035.177
365.7325, 1030.077
366.2146, 1024.074
366.6967, 1018.168
367.1789, 1012.979
367.6610, 1009.514
368.1431, 1005.650
368.6252, 1001.257
369.1073, 996.3231
369.5894, 990.8724
370.0716, 982.8190
370.5537, 976.3595
371.0358, 973.4726
371.5179, 976.2054
372.0000, 976.1352
372.4821, 971.8527
372.9643, 965.7313
373.4464, 960.8177
373.9285, 957.1778
374.4106, 954.7676
374.8927, 954.2023
375.3748, 955.3284
375.8570, 953.9501
376.3391, 949.2286
376.8212, 943.7057
377.3033, 939.3698
377.7854, 936.3561
378.2675, 933.7689
378.7497, 931.6108
379.2318, 929.6762
379.7139, 927.4517
380.1960, 924.9732
380.6781, 922.0943
381.1602, 918.4099
381.6424, 914.1418
382.1245, 910.9041
382.6066, 908.9694
383.0887, 907.1594
383.5708, 903.4607
384.0529, 898.3617
384.5351, 894.0281
385.0172, 891.5500
385.4993, 890.3367
385.9814, 889.6653
386.4635, 889.4977
386.9456, 888.9417
387.4278, 886.9578
387.9099, 884.1823
388.3920, 881.5214
388.8741, 878.9605
389.3562, 877.0270
389.8383, 876.8744
390.3205, 877.8059
390.8026, 877.8740
391.2847, 875.3338
391.7668, 871.9954
392.2489, 869.2734
392.7310, 867.4982
393.2132, 865.5491
393.6953, 862.3754
394.1774, 858.9108
394.6595, 856.2654
395.1416, 855.8564
395.6237, 855.3270
396.1059, 853.3171
396.5880, 849.9812
397.0701, 848.0106
397.5522, 849.7196
398.0343, 851.8040
398.5164, 852.3056
398.9986, 849.3985
399.4807, 847.0701
399.9628, 845.3637
400.4449, 844.3193
400.9270, 844.1029
401.4091, 845.5721
401.8913, 846.7584
402.3734, 846.8743
402.8555, 845.6090
403.3376, 845.0900
403.8197, 845.6874
404.3018, 846.5877
404.7840, 846.7979
405.2661, 845.9702
405.7482, 845.6773
406.2303, 846.4217
406.7124, 847.8669
407.1945, 848.4889
407.6767, 848.0910
408.1588, 847.7848
408.6409, 848.5604
409.1230, 850.3055
409.6051, 851.3167
410.0872, 851.2766
410.5694, 851.0209
411.0515, 851.9820
411.5336, 853.9736
412.0157, 855.7936
412.4978, 856.6798
412.9799, 857.1204
413.4621, 858.0564
413.9442, 859.4998
414.4263, 861.2625
414.9084, 863.4245
415.3905, 865.7733
415.8727, 867.9941
416.3548, 869.9821
416.8369, 871.8860
417.3190, 873.6564
417.8011, 875.4185
418.2832, 877.5418
418.7654, 880.4064
419.2475, 883.5284
419.7296, 886.5161
420.2117, 889.3109
420.6938, 892.2068
421.1759, 895.5953
421.6581, 899.0118
422.1402, 902.0067
422.6223, 903.3097
423.1044, 905.3585
423.5865, 909.3162
424.0686, 914.8397
424.5508, 919.4055
425.0329, 922.1434
425.5150, 924.3562
425.9971, 926.5582
426.4792, 928.4688
426.9613, 930.9955
427.4435, 934.5187
427.9256, 938.4493
428.4077, 941.9234
428.8898, 945.1567
429.3719, 947.4641
429.8540, 948.1251
430.3362, 947.3717
430.8183, 949.2288
431.3004, 954.6317
431.7825, 959.9379
432.2646, 961.4987
432.7467, 959.2958
433.2289, 958.5653
433.7110, 960.3732
434.1931, 963.3238
434.6752, 964.8356
435.1573, 965.0193
435.6394, 965.1433
436.1216, 966.5216
436.6036, 968.1879
437.0858, 967.6389
437.5679, 964.7831
438.0500, 961.5388
438.5321, 959.5768
439.0142, 958.3781
439.4963, 957.0890
439.9785, 955.5411
440.4606, 953.7106
440.9427, 951.2635
441.4248, 948.4844
441.9069, 946.2325
442.3890, 945.8242
442.8712, 945.4587
443.3533, 943.8809
443.8354, 940.7480
444.3175, 937.4408
444.7996, 934.3246
445.2817, 931.3307
445.7639, 928.3582
446.2460, 925.2674
446.7281, 922.2968
447.2102, 919.3141
447.6923, 916.3881
448.1744, 914.1793
448.6566, 913.1389
449.1387, 912.3008
449.6208, 911.1191
450.1029, 909.0927
450.5850, 908.3134
451.0671, 909.4672
451.5493, 911.1678
452.0314, 911.3458
452.5135, 909.6805
452.9956, 907.9032
453.4777, 906.4571
453.9598, 905.2779
454.4420, 903.9903
454.9241, 902.5827
455.4062, 901.3193
455.8883, 900.3702
456.3704, 899.7365
456.8525, 899.4716
457.3347, 899.6236
457.8168, 900.0179
458.2989, 900.7719
458.7810, 901.6485
459.2631, 901.9210
459.7452, 900.2718
460.2274, 898.4651
460.7095, 898.9515
461.1916, 901.4191
461.6737, 903.4230
462.1558, 902.5957
462.6379, 901.1104
463.1201, 901.0521
463.6022, 903.3618
464.0843, 905.8382
464.5664, 907.5997
465.0485, 908.9453
465.5306, 910.3545
466.0128, 912.1097
466.4949, 913.7633
466.9770, 915.0307
467.4591, 915.8861
467.9412, 917.1481
468.4233, 918.9895
468.9055, 921.1263
469.3876, 923.4994
469.8697, 926.5405
470.3518, 928.8222
470.8339, 929.9168
471.3160, 930.5740
471.7982, 932.1791
472.2803, 934.8381
472.7624, 938.1072
473.2445, 942.1058
473.7266, 946.6131
474.2087, 949.9301
474.6909, 951.8752
475.1730, 954.0026
475.6551, 958.3810
476.1372, 964.2101
476.6193, 967.8093
477.1014, 968.0452
477.5836, 967.6229
478.0657, 970.0626
478.5478, 974.6056
479.0299, 979.0262
479.5120, 981.9756
479.9941, 984.5853
480.4763, 987.8759
480.9584, 991.8307
481.4405, 995.9615
481.9226, 1000.200
482.4047, 1004.401
482.8868, 1008.476
483.3690, 1012.407
483.8511, 1016.132
484.3332, 1019.264
484.8153, 1022.241
485.2974, 1025.845
485.7795, 1031.210
486.2617, 1036.062
486.7438, 1039.397
487.2259, 1041.283
487.7080, 1044.852
488.1901, 1050.897
488.6722, 1057.635
489.1544, 1064.313
489.6365, 1071.177
490.1186, 1076.596
490.6007, 1079.970
491.0828, 1082.708
491.5649, 1087.250
492.0471, 1093.634
492.5292, 1100.103
493.0113, 1106.182
493.4934, 1111.805
493.9755, 1116.516
494.4576, 1120.327
494.9398, 1124.630
495.4219, 1130.653
495.9040, 1137.804
496.3861, 1144.865
496.8682, 1151.812
497.3503, 1158.504
497.8325, 1164.718
498.3146, 1170.680
498.7967, 1176.877
499.2788, 1183.424
499.7609, 1190.279
500.2430, 1197.766
500.7252, 1205.653
501.2073, 1213.060
501.6894, 1219.097
502.1715, 1225.044
502.6536, 1231.535
503.1357, 1238.602
503.6179, 1246.235
504.1000, 1254.887
504.5821, 1263.786
505.0642, 1272.113
505.5463, 1279.417
506.0284, 1287.004
506.5106, 1294.771
506.9927, 1302.963
507.4748, 1312.843
507.9569, 1324.861
508.4390, 1336.281
508.9211, 1345.291
509.4033, 1352.241
509.8854, 1360.002
510.3675, 1368.575
510.8496, 1377.903
511.3317, 1388.311
511.8138, 1399.490
512.2960, 1410.401
512.7781, 1421.068
513.2602, 1431.314
513.7423, 1440.202
514.2244, 1448.525
514.7065, 1458.200
515.1887, 1472.276
515.6708, 1486.402
516.1529, 1496.785
516.6350, 1503.518
517.1171, 1511.678
517.5992, 1523.880
518.0814, 1537.451
518.5635, 1550.656
519.0456, 1563.159
519.5277, 1575.557
520.0098, 1587.793
520.4919, 1599.896
520.9741, 1611.744
521.4562, 1622.493
521.9383, 1634.481
522.4204, 1648.632
522.9025, 1664.502
523.3846, 1679.315
523.8668, 1692.809
524.3489, 1705.885
524.8310, 1718.693
525.3131, 1731.470
525.7952, 1746.100
526.2773, 1762.998
526.7595, 1780.236
527.2416, 1795.583
527.7237, 1809.359
528.2058, 1822.599
528.6879, 1835.286
529.1700, 1847.791
529.6522, 1860.027
530.1343, 1872.240
530.6164, 1885.506
531.0985, 1900.780
531.5806, 1916.840
532.0627, 1933.033
532.5449, 1949.278
533.0270, 1965.176
533.5091, 1979.678
533.9912, 1994.255
534.4733, 2009.739
534.9554, 2027.588
535.4376, 2044.686
535.9197, 2060.597
536.4018, 2075.827
536.8839, 2090.640
537.3660, 2104.760
537.8481, 2119.525
538.3303, 2135.820
538.8124, 2153.116
539.2945, 2168.889
539.7766, 2183.023
540.2587, 2196.624
540.7408, 2209.745
541.2230, 2222.946
541.7051, 2238.379
542.1872, 2256.505
542.6693, 2274.435
543.1514, 2289.281
543.6335, 2302.011
544.1157, 2314.753
544.5978, 2327.928
545.0799, 2341.632
545.5620, 2355.755
546.0441, 2370.355
546.5262, 2385.562
547.0084, 2401.979
547.4905, 2418.429
547.9726, 2434.966
548.4547, 2451.565
548.9368, 2467.013
549.4189, 2480.356
549.9011, 2493.177
550.3832, 2506.366
550.8653, 2520.177
551.3474, 2533.688
551.8295, 2546.610
552.3116, 2559.302
552.7938, 2572.510
553.2759, 2586.405
553.7580, 2598.994
554.2401, 2609.452
554.7222, 2618.523
555.2043, 2628.015
555.6865, 2637.831
556.1686, 2647.677
556.6507, 2657.496
557.1328, 2667.180
557.6149, 2676.507
558.0970, 2685.485
558.5792, 2695.063
559.0613, 2707.164
559.5434, 2719.547
560.0255, 2729.782
560.5076, 2735.971
560.9897, 2742.229
561.4719, 2749.333
561.9540, 2757.487
562.4361, 2766.895
562.9182, 2780.544
563.4003, 2792.091
563.8824, 2799.741
564.3646, 2804.014
564.8467, 2809.203
565.3288, 2815.524
565.8109, 2822.226
566.2930, 2829.303
566.7751, 2836.753
567.2573, 2842.632
567.7394, 2846.714
568.2215, 2850.351
568.7036, 2855.485
569.1857, 2861.479
569.6678, 2865.972
570.1500, 2868.004
570.6321, 2869.464
571.1142, 2872.469
571.5963, 2876.551
572.0784, 2880.621
572.5605, 2884.898
573.0427, 2888.493
573.5248, 2891.368
574.0069, 2893.342
574.4890, 2893.382
574.9711, 2888.658
575.4532, 2884.009
575.9354, 2882.039
576.4175, 2883.704
576.8996, 2885.177
577.3817, 2886.409
577.8638, 2887.483
578.3459, 2888.493
578.8281, 2889.445
579.3102, 2890.208
579.7923, 2890.841
580.2744, 2891.110
580.7565, 2890.759
581.2386, 2889.741
581.7208, 2887.524
582.2029, 2883.453
582.6850, 2878.321
583.1671, 2873.215
583.6492, 2868.180
584.1313, 2863.483
584.6134, 2859.598
585.0955, 2855.928
585.5776, 2851.324
586.0598, 2845.419
586.5419, 2841.585
587.0240, 2845.149
587.5061, 2849.155
587.9882, 2847.753
588.4703, 2833.996
588.9525, 2823.232
589.4346, 2817.807
589.9167, 2814.930
590.3988, 2809.965
590.8809, 2801.917
591.3630, 2794.433
591.8452, 2788.686
592.3273, 2783.949
592.8094, 2777.483
593.2915, 2769.202
593.7736, 2760.127
594.2557, 2750.058
594.7379, 2739.756
595.2200, 2731.673
595.7021, 2725.923
596.1842, 2719.350
596.6663, 2708.228
597.1484, 2695.411
597.6306, 2684.397
598.1127, 2676.603
598.5948, 2669.285
599.0769, 2662.595
599.5590, 2655.239
600.0411, 2645.536
600.5233, 2630.050
601.0054, 2616.020
601.4875, 2605.167
601.9696, 2596.583
602.4517, 2587.498
602.9338, 2577.866
603.4160, 2567.677
603.8981, 2556.863
604.3802, 2545.373
604.8623, 2532.943
605.3444, 2519.286
605.8265, 2506.057
606.3087, 2494.583
606.7908, 2484.507
607.2729, 2475.060
607.7550, 2466.265
608.2371, 2456.780
608.7192, 2444.408
609.2014, 2430.817
609.6835, 2418.089
610.1656, 2407.536
610.6477, 2397.200
611.1298, 2385.950
611.6119, 2374.373
612.0941, 2363.265
612.5762, 2354.236
613.0583, 2344.172
613.5404, 2331.618
614.0225, 2317.397
614.5046, 2304.895
614.9868, 2295.014
615.4689, 2285.012
615.9510, 2273.407
616.4331, 2260.326
616.9152, 2247.285
617.3973, 2234.252
617.8795, 2221.849
618.3616, 2212.306
618.8437, 2203.907
619.3258, 2192.022
619.8079, 2175.297
620.2900, 2158.391
620.7722, 2145.595
621.2543, 2134.981
621.7364, 2124.015
622.2185, 2111.544
622.7006, 2098.962
623.1827, 2086.532
623.6649, 2074.262
624.1470, 2062.067
624.6291, 2050.355
625.1112, 2038.064
625.5933, 2024.682
626.0754, 2010.425
626.5576, 1997.415
627.0397, 1985.777
627.5218, 1974.894
628.0039, 1965.092
628.4860, 1956.054
628.9681, 1944.614
629.4503, 1930.554
629.9324, 1916.406
630.4145, 1904.825
630.8966, 1894.456
631.3787, 1882.583
631.8608, 1868.400
632.3430, 1854.711
632.8251, 1844.413
633.3072, 1835.427
633.7893, 1825.041
634.2714, 1810.587
634.7535, 1796.940
635.2357, 1785.548
635.7178, 1775.496
636.1999, 1764.670
636.6820, 1752.718
637.1641, 1740.717
637.6462, 1728.900
638.1284, 1717.240
638.6105, 1706.483
639.0926, 1696.676
639.5747, 1686.613
640.0568, 1675.487
640.5389, 1663.572
641.0211, 1651.781
641.5032, 1640.188
641.9853, 1629.212
642.4674, 1620.075
642.9495, 1611.469
643.4316, 1601.878
643.9138, 1590.952
644.3959, 1579.841
644.8780, 1569.962
645.3601, 1559.897
645.8422, 1548.443
646.3243, 1532.469
646.8065, 1519.046
647.2886, 1509.562
647.7707, 1502.051
648.2528, 1492.626
648.7349, 1480.718
649.2170, 1469.453
649.6992, 1459.677
650.1813, 1450.764
650.6634, 1440.433
651.1455, 1428.917
651.6276, 1418.214
652.1097, 1409.916
652.5919, 1402.684
653.0740, 1394.699
653.5561, 1386.006
654.0382, 1376.957
654.5203, 1367.762
655.0024, 1358.388
655.4846, 1348.621
655.9667, 1338.365
656.4488, 1328.260
656.9309, 1318.417
657.4130, 1308.862
657.8951, 1299.578
658.3773, 1290.746
658.8594, 1281.790
659.3415, 1272.669
659.8236, 1263.456
660.3057, 1254.110
660.7878, 1244.742
661.2700, 1235.749
661.7521, 1227.411
662.2342, 1219.153
662.7163, 1209.870
663.1984, 1199.986
663.6805, 1190.421
664.1627, 1182.092
664.6448, 1173.893
665.1269, 1165.092
665.6090, 1155.846
666.0911, 1146.966
666.5732, 1138.945
667.0554, 1130.932
667.5375, 1122.443
668.0196, 1113.466
668.5017, 1105.466
668.9838, 1098.635
669.4659, 1092.180
669.9481, 1085.682
670.4302, 1079.181
670.9123, 1072.634
671.3944, 1066.047
671.8765, 1059.193
672.3586, 1051.666
672.8408, 1043.863
673.3229, 1036.414
673.8050, 1029.465
674.2871, 1022.662
674.7692, 1016.208
675.2513, 1009.671
675.7335, 1002.524
676.2156, 993.3351
676.6977, 985.4904
677.1798, 980.0822
677.6619, 976.0295
678.1440, 971.6100
678.6262, 966.4806
679.1083, 962.0801
679.5904, 959.3000
680.0725, 956.8430
680.5546, 950.6419
681.0367, 940.8495
681.5189, 931.4148
682.0010, 924.0603
682.4831, 918.0932
682.9652, 912.6124
683.4473, 907.6035
683.9294, 902.5465
684.4116, 897.0658
684.8937, 891.6115
685.3758, 886.6204
685.8579, 882.1976
686.3400, 877.0713
686.8221, 869.8201
687.3043, 862.9500
687.7864, 857.7538
688.2685, 854.5812
688.7506, 851.2206
689.2327, 847.5971
689.7148, 843.9095
690.1970, 840.5402
690.6791, 837.3246
691.1612, 833.2289
691.6433, 828.0422
692.1254, 822.7413
692.6075, 817.8211
693.0897, 813.5507
693.5718, 810.5112
694.0539, 809.9322
694.5360, 808.6108
695.0181, 804.6672
695.5002, 799.2043
695.9824, 793.8576
696.4645, 788.4716
696.9466, 783.7314
697.4287, 779.8229
697.9108, 776.5671
698.3929, 773.4946
698.8751, 770.5166
699.3572, 768.1264
699.8393, 766.8362
700.3214, 765.9181
700.8035, 763.3423
701.2856, 759.3750
701.7678, 755.5770
702.2499, 752.9926
702.7320, 750.8722
703.2141, 748.6010
703.6962, 746.1566
704.1783, 743.6353
704.6605, 741.0722
705.1426, 738.4264
705.6247, 735.5982
706.1068, 732.5316
706.5889, 729.7798
707.0710, 727.6053
707.5532, 725.3211
708.0353, 722.1254
708.5174, 718.0199
708.9995, 715.6751
709.4816, 715.3732
709.9637, 715.1617
710.4459, 712.7861
710.9280, 709.2635
711.4101, 706.5534
711.8922, 705.0682
712.3743, 703.9049
712.8564, 702.9689
713.3386, 701.8409
713.8207, 700.0232
714.3028, 696.2647
714.7849, 693.5790
715.2670, 693.0320
715.7491, 693.0574
716.2313, 691.3500
716.7134, 687.2216
717.1955, 684.3746
717.6776, 683.7654
718.1597, 684.0983
718.6418, 682.7836
719.1240, 680.1761
719.6061, 677.9759
720.0882, 677.0102
720.5703, 676.5041
721.0524, 675.8386
721.5345, 675.0321
722.0167, 674.1310
722.4988, 673.5697
722.9809, 672.5052
723.4630, 670.2396
723.9451, 667.1175
724.4272, 664.7931
724.9094, 663.5765
725.3915, 662.6403
725.8736, 661.7336
726.3557, 660.8958
726.8378, 660.4186
727.3199, 660.3118
727.8021, 659.8848
728.2842, 658.2598
728.7663, 656.2142
729.2484, 655.2800
729.7305, 655.3678
730.2126, 655.0814
730.6948, 652.7294
731.1769, 650.3990
731.6590, 649.6719
732.1411, 650.9796
732.6232, 651.9374
733.1053, 652.3190
733.5875, 652.3679
734.0696, 652.2343
734.5517, 651.9395
735.0338, 651.3289
735.5159, 650.4088
735.9980, 649.1593
736.4802, 647.0298
736.9623, 644.5888
737.4444, 643.7323
737.9265, 644.9052
738.4086, 645.9377
738.8907, 644.9412
739.3729, 643.0314
739.8550, 641.3784
740.3371, 640.1506
740.8192, 639.3143
741.3013, 639.4807
741.7834, 639.6441
742.2656, 638.4461
742.7477, 634.7375
743.2298, 634.0541
743.7119, 637.9515
744.1940, 642.9216
744.6761, 643.1559
745.1583, 639.5920
745.6404, 636.9049
746.1225, 636.6661
746.6046, 636.9312
747.0867, 635.4240
747.5688, 633.2023
748.0510, 632.0851
748.5331, 634.7465
749.0152, 636.2132
749.4973, 634.2088
749.9794, 630.3282
750.4615, 627.6673
750.9437, 626.4367
751.4258, 626.0541
751.9079, 626.7009
752.3900, 627.8460
752.8721, 628.1365
753.3542, 627.6398
753.8364, 627.0447
754.3185, 626.6818
754.8006, 626.3214
755.2827, 625.5588
755.7648, 624.5585
756.2469, 623.8210
756.7291, 623.7122
757.2112, 623.7440
757.6933, 623.9040
758.1754, 624.0839
758.6575, 623.6812
759.1396, 622.1501
759.6218, 621.1561
760.1039, 621.4696
760.5860, 622.7362
761.0681, 623.4246
761.5502, 623.5392
762.0323, 623.3094
762.5145, 622.5534
762.9966, 621.7167
763.4787, 621.4835
763.9608, 621.7764
764.4429, 622.0439
764.9250, 622.0580
765.4072, 621.9540
765.8893, 621.7499
766.3714, 621.4429
766.8535, 621.2540
767.3356, 621.1678
767.8177, 621.2223
768.2999, 621.5509
768.7820, 622.0817
769.2641, 621.9742
769.7462, 621.1995
770.2283, 620.5351
770.7104, 620.5737
771.1926, 621.0549
771.6747, 621.9772
772.1568, 623.2722
772.6389, 623.6571
773.1210, 621.4457
773.6031, 618.9836
774.0853, 617.9148
774.5674, 618.7028
775.0495, 618.5189
775.5316, 616.7507
776.0137, 615.1019
776.4958, 614.8480
776.9780, 615.9128
777.4601, 616.4803
777.9422, 616.5170
778.4243, 616.3470
778.9064, 616.1240
779.3885, 615.9188
779.8707, 615.9291
780.3528, 616.2128
780.8349, 616.1627
781.3170, 614.9905
781.7991, 613.7471
782.2812, 613.3079
782.7633, 614.0920
783.2454, 614.0974
783.7275, 612.9044
784.2097, 611.7308
784.6918, 611.8252
785.1739, 613.0127
785.6560, 613.4704
786.1381, 613.0349
786.6202, 612.5433
787.1024, 612.9804
787.5845, 613.7175
788.0666, 613.7951
788.5487, 612.8405
789.0308, 612.4097
789.5129, 613.4918
789.9951, 615.0266
790.4772, 616.2402
790.9593, 617.2786
791.4414, 617.3142
791.9235, 615.7802
792.4056, 614.5274
792.8878, 615.9641
793.3699, 619.4470
793.8520, 621.4480
794.3341, 621.5105
794.8162, 621.1467
795.2983, 621.4655
795.7805, 622.1979
796.2626, 623.1057
796.7447, 624.2398
797.2268, 625.2294
797.7089, 625.6946
798.1910, 626.2205
798.6732, 627.2633
799.1553, 628.9922
799.6374, 630.6599
800.1195, 632.1992
800.6016, 633.8615
801.0837, 636.2940
801.5659, 639.0871
802.0480, 640.7792
802.5301, 641.0031
803.0122, 641.3309
803.4943, 643.0999
803.9764, 645.4600
804.4586, 647.5488
804.9407, 648.9729
805.4228, 650.7296
805.9049, 653.1161
806.3870, 655.6152
806.8691, 657.8789
807.3513, 659.8804
807.8334, 661.5867
808.3155, 662.8648
808.7976, 664.4922
809.2797, 667.8388
809.7618, 672.0007
810.2440, 675.0047
810.7261, 676.3868
811.2082, 677.8331
811.6903, 680.2672
812.1724, 683.2072
812.6545, 686.2168
813.1367, 689.2156
813.6188, 692.5236
814.1009, 696.4714
814.5830, 700.1463
815.0651, 702.5605
815.5472, 703.8113
816.0294, 705.0523
816.5115, 706.2882
816.9936, 708.2890
817.4757, 712.4115
817.9578, 717.3855
818.4399, 721.5432
818.9221, 724.4033
819.4042, 727.5659
819.8863, 732.0387
820.3684, 736.6448
820.8505, 740.5856
821.3326, 743.6834
821.8148, 746.8319
822.2969, 749.9421
822.7790, 753.3233
823.2611, 757.3736
823.7432, 761.8598
824.2253, 765.7737
824.7075, 768.9893
825.1896, 772.8588
825.6717, 779.2635
826.1538, 786.0986
826.6359, 791.5385
827.1180, 795.0541
827.6002, 798.5836
828.0823, 802.1910
828.5644, 805.9994
829.0465, 810.1784
829.5286, 814.7081
830.0107, 818.6545
830.4929, 821.9153
830.9750, 825.6953
831.4571, 831.9044
831.9392, 838.7955
832.4213, 843.2205
832.9034, 845.0557
833.3856, 847.2464
833.8677, 850.6649
834.3498, 855.2256
834.8319, 861.6316
835.3140, 869.9679
835.7961, 875.8766
836.2783, 878.2486
836.7604, 881.2010
837.2425, 887.7441
837.7246, 896.7197
838.2067, 902.8063
838.6888, 906.3746
839.1710, 910.6848
839.6531, 919.5218
840.1352, 928.7191
840.6173, 934.3623
841.0994, 936.6995
841.5815, 939.6530
842.0637, 944.1881
842.5458, 949.2214
843.0279, 954.5248
843.5100, 960.0660
843.9921, 965.8505
844.4742, 971.8663
844.9564, 977.3846
845.4385, 982.1067
845.9206, 986.0754
846.4027, 988.7210
846.8848, 990.5721
847.3669, 993.3945
847.8491, 998.3209
848.3312, 1004.064
848.8133, 1010.842
849.2954, 1018.132
849.7775, 1024.047
850.2596, 1028.280
850.7418, 1032.210
851.2239, 1036.140
851.7060, 1040.074
852.1881, 1043.879
852.6702, 1047.633
853.1523, 1051.552
853.6345, 1055.670
854.1166, 1060.037
854.5987, 1064.774
855.0808, 1069.720
855.5629, 1074.698
856.0450, 1079.800
856.5272, 1084.715
857.0093, 1089.622
857.4914, 1094.071
857.9735, 1097.019
858.4556, 1098.544
858.9377, 1100.163
859.4199, 1102.145
859.9020, 1104.547
860.3841, 1108.058
860.8662, 1111.833
861.3483, 1114.645
861.8304, 1115.715
862.3126, 1116.621
862.7947, 1117.192
863.2768, 1118.109
863.7589, 1120.178
864.2410, 1123.739
864.7231, 1126.672
865.2053, 1128.934
865.6874, 1130.140
866.1695, 1129.096
866.6516, 1126.875
867.1337, 1126.053
867.6158, 1127.292
868.0980, 1127.407
868.5801, 1123.437
869.0622, 1118.596
869.5443, 1115.524
870.0264, 1114.755
870.5085, 1113.530
870.9907, 1111.988
871.4728, 1109.774
871.9549, 1106.713
872.4370, 1102.808
872.9191, 1097.733
873.4012, 1091.525
873.8834, 1085.398
874.3655, 1080.563
874.8476, 1075.812
875.3297, 1070.330
875.8118, 1064.071
876.2939, 1056.890
876.7761, 1047.969
877.2582, 1039.555
877.7403, 1032.795
878.2224, 1027.127
878.7045, 1019.831
879.1866, 1010.985
879.6688, 1002.032
880.1509, 993.4813
880.6330, 985.4010
881.1151, 978.3273
881.5972, 971.7836
882.0793, 964.5414
882.5615, 955.9182
883.0436, 946.8506
883.5257, 937.6085
884.0078, 928.0552
884.4899, 917.4660
884.9720, 905.7216
885.4542, 895.4883
885.9363, 887.8093
886.4184, 880.9879
886.9005, 872.7185
887.3826, 863.6744
887.8647, 855.0917
888.3469, 847.5724
888.8290, 840.1243
889.3111, 832.9346
889.7932, 825.4456
890.2753, 816.7336
890.7574, 806.0993
891.2396, 797.5879
891.7217, 791.7948
892.2038, 786.4242
892.6859, 778.7113
893.1680, 769.6533
893.6501, 760.9985
894.1323, 752.8604
894.6144, 745.7850
895.0965, 741.4847
895.5786, 737.1586
896.0607, 730.3915
896.5428, 720.7326
897.0250, 712.5147
897.5071, 705.9620
897.9892, 700.1537
898.4713, 694.6035
898.9534, 689.3116
899.4355, 684.2922
899.9177, 679.4938
900.3998, 674.2632
900.8819, 667.4554
901.3640, 660.9434
901.8461, 656.0438
902.3282, 652.5880
902.8104, 649.0361
903.2925, 645.6143
903.7746, 641.5090
904.2567, 636.3147
904.7388, 630.5234
905.2209, 625.3046
905.7031, 620.5240
906.1852, 615.5857
906.6673, 609.6549
907.1494, 604.3588
907.6315, 601.4814
908.1136, 599.7292
908.5958, 597.0404
909.0779, 592.7525
909.5600, 588.3488
910.0421, 583.8406
910.5242, 579.4027
911.0063, 575.0307
911.4885, 570.8447
911.9706, 567.6104
912.4527, 565.6003
912.9348, 563.2549
913.4169, 558.6231
913.8990, 553.5548
914.3812, 549.8188
914.8633, 548.0187
915.3454, 545.9251
915.8275, 543.4905
916.3096, 540.6619
916.7917, 537.2034
917.2739, 533.2456
917.7560, 529.7934
918.2381, 526.7947
918.7202, 523.6697
919.2023, 519.7859
919.6844, 515.8409
920.1666, 512.7602
920.6487, 510.2169
921.1308, 506.3477
921.6129, 499.6042
922.0950, 493.6714
922.5771, 489.5126
923.0593, 486.6619
923.5414, 484.3668
924.0235, 482.5188
924.5056, 480.1438
924.9877, 476.7722
925.4698, 473.1756
925.9520, 470.2558
926.4341, 467.4435
926.9162, 463.9680
927.3983, 459.1327
927.8804, 454.3467
928.3625, 449.4588
928.8447, 444.9374
929.3268, 441.8299
929.8089, 439.8092
930.2910, 435.6633
930.7731, 428.9774
931.2552, 422.5741
931.7374, 419.2676
932.2195, 416.6959
932.7016, 412.5628
933.1837, 406.5244
933.6658, 401.1801
934.1479, 397.0302
934.6301, 393.0341
935.1122, 388.7750
935.5943, 384.3025
936.0764, 379.6705
936.5585, 374.9178
937.0406, 370.6285
937.5228, 367.4814
938.0049, 364.5063
938.4870, 360.8725
938.9691, 356.8574
939.4512, 353.1477
939.9333, 349.9431
940.4155, 346.7751
940.8976, 343.6069
941.3797, 340.4239
941.8618, 337.2081
942.3439, 333.9769
942.8260, 330.8283
943.3082, 327.6459
943.7903, 325.0096
944.2724, 323.9768
944.7545, 323.3068
945.2366, 321.7328
945.7188, 318.6321
946.2009, 316.3751
946.6830, 315.3936
947.1651, 314.2708
947.6472, 311.7122
948.1293, 308.2411
948.6115, 306.1056
949.0936, 305.1826
949.5757, 304.3837
950.0578, 303.0630
950.5399, 301.6756
951.0220, 300.4472
951.5042, 299.3905
951.9863, 298.5443
952.4684, 298.2080
952.9505, 297.1861
953.4326, 294.9165
953.9147, 292.3355
954.3969, 291.2881
954.8790, 291.2682
955.3611, 290.8555
955.8432, 289.5271
956.3253, 288.0944
956.8074, 286.7795
957.2896, 285.6928
957.7717, 284.9414
958.2538, 284.6255
958.7359, 284.2266
959.2180, 283.7188
959.7001, 283.2223
960.1823, 282.9348
960.6644, 282.6851
961.1465, 282.0455
961.6286, 281.0536
962.1107, 280.1900
962.5928, 279.8136
963.0750, 279.4800
963.5571, 279.0215
964.0392, 278.4510
964.5213, 277.7933
965.0034, 277.0405
965.4855, 276.3268
965.9677, 275.6569
966.4498, 275.1259
966.9319, 275.1682
967.4140, 275.3783
967.8961, 275.0227
968.3782, 273.6391
968.8604, 272.1364
969.3425, 270.3519
969.8246, 268.8219
970.3067, 267.9766
970.7888, 267.8291
971.2709, 268.2775
971.7531, 269.3552
972.2352, 270.1411
972.7173, 269.7102
973.1994, 268.7360
973.6815, 267.7677
974.1636, 266.8632
974.6458, 266.1718
975.1279, 265.8607
975.6100, 265.5283
976.0921, 264.9227
976.5742, 264.3260
977.0563, 264.8459
977.5385, 266.2403
978.0206, 266.9544
978.5027, 266.1884
978.9848, 265.1272
979.4669, 264.6905
979.9490, 264.4901
980.4311, 264.0172
980.9132, 263.0475
981.3953, 262.1432
981.8774, 261.2207
982.3596, 260.5815
982.8417, 260.7338
983.3238, 261.3672
983.8059, 261.6122
984.2880, 261.4304
984.7701, 260.9157
985.2523, 259.4048
985.7344, 258.2590
986.2165, 258.6816
986.6986, 260.1579
987.1807, 260.4192
987.6628, 259.1987
988.1450, 258.3953
988.6271, 258.7835
989.1092, 259.4172
989.5913, 258.5766
990.0734, 257.0396
990.5555, 256.2700
991.0377, 257.0593
991.5198, 257.8919
992.0019, 258.7460
992.4840, 259.1957
992.9661, 258.6810
993.4482, 257.1492
993.9304, 256.5604
994.4125, 256.9579
994.8946, 257.2444
995.3767, 256.0622
995.8588, 254.8301
996.3409, 255.2367
996.8231, 256.9798
997.3052, 257.8614
997.7873, 257.0774
998.2694, 256.3038
998.7515, 255.8430
999.2336, 255.6547
999.7158, 255.9503
1000.198, 256.4922
1000.680, 256.2310
1001.162, 254.5506
1001.644, 253.2039
1002.126, 253.9418
1002.608, 255.1175
1003.091, 255.0628
1003.573, 253.3612
1004.055, 252.8421
1004.537, 253.7334
1005.019, 254.7010
1005.501, 254.7220
1005.983, 254.2957
1006.465, 254.4476
1006.948, 254.9712
1007.430, 255.0592
1007.912, 254.0183
1008.394, 252.9281
1008.876, 251.8760
1009.358, 251.0804
1009.840, 251.1440
1010.322, 252.0294
1010.804, 252.3288
1011.287, 251.7146
1011.769, 251.0495
1012.251, 251.2644
1012.733, 251.7683
1013.215, 252.0070
1013.697, 251.8909
1014.179, 251.4347
1014.661, 250.2261
1015.143, 249.6553
1015.626, 250.8825
1016.108, 253.0059
1016.590, 253.0452
1017.072, 251.4977
1017.554, 250.2126
1018.036, 250.1808
1018.518, 250.4404
1019.000, 250.8371
1019.483, 251.1816
1019.965, 251.1047
1020.447, 250.4060
1020.929, 250.5824
1021.411, 251.8724
1021.893, 253.1312
1022.375, 253.2273
1022.857, 252.6611
1023.339, 251.9392
1023.822, 251.1217
1024.304, 250.4319
1024.786, 249.8114
1025.268, 249.5268
1025.750, 249.8056
1026.232, 250.3738
1026.714, 250.4703
1027.196, 250.1586
1027.679, 249.7163
1028.161, 249.1281
1028.643, 248.6982
1029.125, 248.6660
1029.607, 248.8703
1030.089, 249.1966
1030.571, 249.7820
1031.053, 249.7600
1031.536, 248.9516
1032.018, 248.3686
1032.500, 249.2186
1032.982, 250.5153
1033.464, 250.4145
1033.946, 249.2327
1034.428, 248.4216
1034.910, 249.0451
1035.392, 249.4036
1035.875, 248.9849
1036.357, 248.2559
1036.839, 248.0771
1037.321, 248.3803
1037.803, 248.5445
1038.285, 248.4606
1038.767, 248.2977
1039.249, 248.2159
1039.731, 248.0957
1040.214, 247.7037
1040.696, 246.9980
1041.178, 246.9783
1041.660, 247.8565
1042.142, 248.6597
1042.624, 249.1437
1043.106, 249.0964
1043.588, 247.4259
1044.071, 245.0112
1044.553, 243.8546
1045.035, 245.7297
1045.517, 247.3020
1045.999, 248.0625
1046.481, 248.1757
1046.963, 247.5962
1047.445, 246.3758
1047.927, 245.2918
1048.410, 244.3689
1048.892, 243.7693
1049.374, 243.6824
1049.856, 243.8884
1050.338, 244.4155
1050.820, 245.1278
1051.302, 245.4669
1051.784, 245.3676
1052.266, 245.0710
1052.749, 244.5645
1053.231, 244.0481
1053.713, 243.8464
1054.195, 243.8104
1054.677, 243.6846
1055.159, 243.4086
1055.641, 243.1334
1056.123, 242.9049
1056.606, 242.6822
1057.088, 242.4519
1057.570, 242.2108
1058.052, 241.8536
1058.534, 241.4348
1059.016, 241.3261
1059.498, 242.1499
1059.980, 242.7358
1060.463, 241.8661
1060.945, 240.5400
1061.427, 240.2479
1061.909, 241.4338
1062.391, 242.1102
1062.873, 242.1747
1063.355, 241.9614
1063.837, 241.6135
1064.319, 241.2456
1064.802, 241.1131
1065.284, 241.1536
1065.766, 240.9447
1066.248, 239.9753
1066.730, 239.3177
1067.212, 239.2652
1067.694, 239.4853
1068.176, 239.3663
1068.658, 238.9910
1069.141, 238.5517
1069.623, 238.0092
1070.105, 237.9930
1070.587, 239.6307
1071.069, 241.2470
1071.551, 241.6965
1072.033, 241.0564
1072.515, 240.2761
1072.998, 239.3508
1073.480, 238.7973
1073.962, 238.9720
1074.444, 239.4367
1074.926, 240.0659
1075.408, 240.5494
1075.890, 240.3516
1076.372, 238.7045
1076.854, 237.6891
1077.337, 237.3848
1077.819, 237.4999
1078.301, 238.0541
1078.783, 238.7742
1079.265, 239.0342
1079.747, 238.8479
1080.229, 238.3752
1080.711, 237.3453
1081.193, 236.4591
1081.676, 235.8448
1082.158, 235.5002
1082.640, 235.4145
1083.122, 235.5942
1083.604, 236.3132
1084.086, 237.6806
1084.568, 238.6217
1085.050, 238.0461
1085.532, 236.9684
1086.015, 236.0927
1086.497, 235.4212
1086.979, 234.5665
1087.461, 233.4469
1087.943, 232.7449
1088.425, 232.7972
1088.907, 233.1246
1089.389, 233.1262
1089.872, 232.9911
1090.354, 233.0219
1090.836, 233.4384
1091.318, 233.5516
1091.800, 233.2503
1092.282, 232.8200
1092.764, 232.4164
1093.246, 232.0197
1093.729, 231.4727
1094.211, 230.8596
1094.693, 230.5172
1095.175, 230.6188
1095.657, 230.9758
1096.139, 231.8789
1096.621, 232.7078
1097.103, 232.6283
1097.585, 231.6936
1098.068, 231.2739
1098.550, 231.4394
1099.032, 231.6198
1099.514, 231.5261
1099.996, 231.2031
1100.478, 230.3772
1100.960, 229.3469
1101.442, 229.3236
1101.924, 230.6332
1102.407, 230.8853
1102.889, 229.4006
1103.371, 227.7507
1103.853, 227.9890
1104.335, 228.8967
1104.817, 228.8889
1105.299, 227.6281
1105.781, 227.0873
1106.264, 227.6974
1106.746, 228.2873
1107.228, 228.3831
1107.710, 228.2385
1108.192, 228.4924
1108.674, 228.9021
1109.156, 228.8676
1109.638, 227.9342
1110.120, 227.2504
1110.603, 227.2742
1111.085, 227.4395
1111.567, 227.5440
1112.049, 227.5169
1112.531, 226.4984
1113.013, 224.7141
1113.495, 223.5123
1113.977, 224.2186
1114.459, 224.9642
1114.942, 224.6956
1115.424, 224.0510
1115.906, 223.9107
1116.388, 224.3493
1116.870, 224.4827
1117.352, 224.2619
1117.834, 223.8616
1118.316, 223.0770
1118.799, 222.4670
1119.281, 222.6864
1119.763, 223.5255
1120.245, 224.0720
1120.727, 224.3749
1121.209, 223.9990
1121.691, 222.7307
1122.173, 221.3010
1122.656, 220.3411
1123.138, 219.8777
1123.620, 220.1380
1124.102, 221.1684
1124.584, 221.8374
1125.066, 221.9282
1125.548, 221.8430
1126.030, 221.6638
1126.512, 221.4437
1126.995, 221.3331
1127.477, 221.2595
1127.959, 221.0475
1128.441, 220.6284
1128.923, 220.1717
1129.405, 219.5263
1129.887, 219.1059
1130.369, 219.1995
1130.851, 219.6816
1131.334, 220.1502
1131.816, 220.5099
1132.298, 220.2791
1132.780, 218.5219
1133.262, 217.2832
1133.744, 218.0001
1134.226, 219.3165
1134.708, 220.0962
1135.191, 220.3401
1135.673, 219.6054
1136.155, 217.9277
1136.637, 216.6003
1137.119, 216.9603
1137.601, 217.4395
1138.083, 216.6829
1138.565, 215.3429
1139.047, 214.9177
1139.530, 215.6934
1140.012, 215.7733
1140.494, 214.9373
1140.976, 214.1174
1141.458, 214.3820
1141.940, 214.9082
1142.422, 214.7836
1142.904, 214.1079
1143.386, 213.7065
1143.869, 213.6739
1144.351, 213.7768
1144.833, 214.0210
1145.315, 214.2226
1145.797, 214.1184
1146.279, 213.8337
1146.761, 213.5077
1147.243, 213.1572
1147.726, 212.9165
1148.208, 212.8636
1148.690, 212.8028
1149.172, 212.7018
1149.654, 212.5155
1150.136, 212.0396
1150.618, 211.4452
1151.100, 211.1048
1151.583, 211.1594
1152.065, 211.1957
1152.547, 210.8495
1153.029, 210.8646
1153.511, 211.8932
1153.993, 213.3697
1154.475, 213.2290
1154.957, 211.9129
1155.439, 210.8873
1155.922, 210.7067
1156.404, 210.8181
1156.886, 210.8651
1157.368, 211.3390
1157.850, 213.1038
1158.332, 215.8132
1158.814, 215.5193
1159.296, 212.6949
1159.778, 210.4120
1160.261, 211.2238
1160.743, 211.8575
1161.225, 210.3631
1161.707, 208.1820
1162.189, 206.6634
1162.671, 205.8028
1163.153, 205.9341
1163.635, 207.0269
1164.118, 208.0740
1164.600, 208.5403
1165.082, 208.5823
1165.564, 208.1030
1166.046, 207.3210
1166.528, 206.5559
1167.010, 205.7573
1167.492, 205.5742
1167.974, 206.0959
1168.457, 206.7064
1168.939, 207.1574
1169.421, 207.2645
1169.903, 206.6279
1170.385, 205.4855
1170.867, 204.8689
1171.349, 204.8164
1171.831, 205.1690
1172.313, 206.0126
1172.796, 206.5681
1173.278, 205.6411
1173.760, 204.3138
1174.242, 203.5876
1174.724, 203.5666
1175.206, 203.8298
1175.688, 204.4750
1176.170, 204.7907
1176.653, 204.3436
1177.135, 204.2823
1177.617, 207.4191
1178.099, 211.0117
1178.581, 211.2483
1179.063, 207.1725
1179.545, 203.9955
1180.027, 201.8066
1180.510, 200.7917
1180.992, 201.3355
1181.474, 202.5145
1181.956, 202.7916
1182.438, 202.8403
1182.920, 203.9886
1183.402, 207.2298
1183.884, 208.2696
1184.366, 206.2865
1184.849, 204.0752
1185.331, 203.0137
1185.813, 202.5196
1186.295, 201.3551
1186.777, 199.9969
1187.259, 199.4021
1187.741, 200.3723
1188.223, 200.8083
1188.705, 200.3912
1189.188, 199.9656
1189.670, 200.3031
1190.152, 200.8630
1190.634, 200.2401
1191.116, 198.9209
1191.598, 198.0783
1192.080, 198.3497
1192.562, 198.7811
1193.045, 199.4186
1193.527, 199.9666
1194.009, 200.1453
1194.491, 200.0680
1194.973, 200.1288
1195.455, 200.1797
1195.937, 199.7198
1196.419, 197.5979
1196.901, 196.4686
1197.384, 196.9243
1197.866, 197.7998
1198.348, 197.9279
1198.830, 197.6293
1199.312, 197.6931
1199.794, 198.0841
1200.276, 198.4644
1200.758, 198.9764
1201.240, 199.0089
1201.723, 198.2975
1202.205, 197.4258
1202.687, 197.1165
1203.169, 197.1978
1203.651, 197.2683
1204.133, 197.3109
1204.615, 197.4318
1205.097, 198.0024
1205.580, 198.1393
1206.062, 197.5033
1206.544, 196.6621
1207.026, 196.6292
1207.508, 196.9966
1207.990, 196.5847
1208.472, 195.3297
1208.954, 194.4472
1209.437, 194.6457
1209.919, 194.9399
1210.401, 195.1286
1210.883, 195.2745
1211.365, 195.5522
1211.847, 195.8583
1212.329, 195.7250
1212.811, 195.0679
1213.293, 195.2720
1213.776, 197.5522
1214.258, 199.9034
1214.740, 202.2821
1215.222, 203.7927
1215.704, 201.8478
1216.186, 197.8905
1216.668, 195.2320
1217.150, 194.5137
1217.632, 194.2598
1218.115, 194.2674
1218.597, 194.3805
1219.079, 194.6708
1219.561, 194.8717
1220.043, 194.2299
1220.525, 193.1272
1221.007, 192.3956
1221.489, 192.2322
1221.972, 192.2877
1222.454, 192.5467
1222.936, 192.9286
1223.418, 193.5935
1223.900, 194.1273
1224.382, 193.1937
1224.864, 191.5629
1225.346, 191.0119
1225.828, 192.3741
1226.311, 192.9465
1226.793, 192.0036
1227.275, 190.9624
1227.757, 190.3125
1228.239, 190.1409
1228.721, 190.9735
1229.203, 192.3403
1229.685, 193.3360
1230.167, 193.8311
1230.650, 193.4757
1231.132, 191.8847
1231.614, 190.4523
1232.096, 189.8994
1232.578, 189.9306
1233.060, 190.3063
1233.542, 190.7503
1234.024, 190.6648
1234.507, 189.4753
1234.989, 189.0071
1235.471, 189.6062
1235.953, 190.0427
1236.435, 189.3906
1236.917, 188.3951
1237.399, 188.3892
1237.881, 188.9296
1238.364, 189.2077
1238.846, 188.8644
1239.328, 188.7194
1239.810, 188.7961
1240.292, 188.9998
1240.774, 189.4747
1241.256, 189.8459
1241.738, 189.2601
1242.220, 188.3150
1242.703, 188.1616
1243.185, 189.4261
1243.667, 190.0362
1244.149, 189.9216
1244.631, 189.5283
1245.113, 189.0271
1245.595, 188.5092
1246.077, 188.0292
1246.559, 187.6268
1247.042, 187.3517
1247.524, 187.1073
1248.006, 187.4028
1248.488, 188.2858
1248.970, 189.1133
1249.452, 189.6944
1249.934, 189.8155
1250.416, 188.9097
1250.899, 187.5917
1251.381, 186.8038
1251.863, 186.6100
1252.345, 186.8959
1252.827, 187.6605
1253.309, 188.1268
1253.791, 187.3858
1254.273, 186.5888
1254.755, 186.6479
1255.238, 186.2280
1255.720, 186.1413
1256.202, 186.3346
1256.684, 186.3369
1257.166, 186.9416
1257.648, 187.4962
1258.130, 187.6113
1258.612, 187.5585
1259.094, 187.3645
1259.577, 187.1541
1260.059, 187.0620
1260.541, 187.0829
1261.023, 187.0744
1261.505, 187.0587
1261.987, 187.2165
1262.469, 188.1585
1262.951, 188.5974
1263.434, 187.7647
1263.916, 186.6759
1264.398, 186.4661
1264.880, 186.8644
1265.362, 186.3514
1265.844, 185.1662
1266.326, 184.7907
1266.808, 187.0694
1267.291, 188.4559
1267.773, 188.0671
1268.255, 187.2004
1268.737, 187.2599
1269.219, 187.7982
1269.701, 187.6169
1270.183, 186.8626
1270.665, 186.2459
1271.147, 186.1045
1271.630, 185.9785
1272.112, 185.8741
1272.594, 185.6867
1273.076, 185.0489
1273.558, 184.4357
1274.040, 184.8698
1274.522, 184.5347
1275.004, 184.6048
1275.486, 185.2388
1275.969, 185.2130
1276.451, 186.6516
1276.933, 187.9929
1277.415, 187.7194
1277.897, 186.8008
1278.379, 185.9263
1278.861, 185.2868
1279.343, 185.3325
1279.825, 186.2739
1280.308, 186.9045
1280.790, 187.1736
1281.272, 186.9484
1281.754, 185.1363
1282.236, 183.8166
1282.718, 185.3984
1283.200, 188.0057
1283.682, 188.4064
1284.165, 186.5087
1284.647, 185.3535
1285.129, 185.0327
1285.611, 184.9807
1286.093, 184.7747
1286.575, 184.8577
1287.057, 185.8932
1287.539, 186.9191
1288.021, 186.5804
1288.504, 185.2488
1288.986, 185.2895
1289.468, 186.5364
1289.950, 187.5124
1290.432, 187.2408
1290.914, 187.0174
1291.396, 187.2040
1291.878, 187.3524
1292.360, 186.8253
1292.843, 186.0073
1293.325, 186.0708
1293.807, 186.7259
1294.289, 186.8878
1294.771, 185.6072
1295.253, 184.7834
1295.735, 184.5705
1296.217, 184.5472
1296.700, 184.2022
1297.182, 183.9415
1297.664, 184.7110
1298.146, 184.3815
1298.628, 184.3161
1299.110, 184.7003
1299.592, 184.1543
1300.074, 184.6392
1300.557, 185.2760
1301.039, 185.5118
1301.521, 185.5711
1302.003, 185.7930
1302.485, 185.8648
1302.967, 185.4599
1303.449, 184.6860
##END=



