##NAMES=Luzonite
##RRUFFID=R070247
##IDEAL CHEMISTRY=Cu_3_AsS^2-^_4_
##LOCALITY=Huaron Mining District, San Jose de Huayllay district, Cerro de Pasco, Alcides Carrión Province, Pasco department, Peru
##OWNER=RRUFF
##SOURCE=Michael Scott
##DESCRIPTION=Black metallic crystals with pinkish hue. The electron microscope image shows three distinct fine-scale phases related to As and Sb content
##STATUS=The identification of this mineral is confirmed by single-crystal X-ray diffraction and chemical analysis.
##URL=rruff.info/R070247
##MEASURED CHEMISTRY=Cu_3.01_(As_0.67_Sb_0.31_)_Σ=0.98_S_4_; (Light), Cu_3.00_(As_0.74_Sb_0.22_)_Σ=0.96_S_4_ (Inter. gray), Cu_3.01_(As_0.84_Sb_0.16_)_Σ=1.00_S_4_ (Dark)
141.9480, 1279.334
142.4301, 1289.184
142.9122, 1294.645
143.3943, 1298.419
143.8764, 1298.903
144.3585, 1296.283
144.8407, 1301.207
145.3228, 1319.600
145.8049, 1341.009
146.2870, 1355.574
146.7691, 1359.821
147.2512, 1361.486
147.7334, 1359.608
148.2155, 1351.260
148.6976, 1352.673
149.1797, 1373.437
149.6618, 1401.250
150.1439, 1419.696
150.6261, 1415.177
151.1082, 1413.287
151.5903, 1421.352
152.0724, 1444.966
152.5545, 1466.304
153.0366, 1484.933
153.5188, 1500.322
154.0009, 1511.382
154.4830, 1514.887
154.9651, 1516.421
155.4472, 1518.533
155.9293, 1522.667
156.4115, 1525.737
156.8936, 1526.218
157.3757, 1524.930
157.8578, 1524.722
158.3399, 1530.097
158.8221, 1534.692
159.3042, 1534.358
159.7863, 1518.131
160.2684, 1506.594
160.7505, 1509.921
161.2326, 1526.168
161.7148, 1540.099
162.1969, 1546.408
162.6790, 1546.908
163.1611, 1543.329
163.6432, 1528.601
164.1253, 1516.007
164.6075, 1514.579
165.0896, 1524.711
165.5717, 1534.529
166.0538, 1536.079
166.5359, 1533.376
167.0180, 1532.182
167.5002, 1534.241
167.9823, 1539.086
168.4644, 1546.968
168.9465, 1558.221
169.4286, 1570.308
169.9107, 1585.864
170.3929, 1601.026
170.8750, 1608.047
171.3571, 1592.126
171.8392, 1570.639
172.3213, 1564.271
172.8034, 1579.149
173.2856, 1597.663
173.7677, 1603.460
174.2498, 1599.134
174.7319, 1593.524
175.2140, 1592.251
175.6961, 1593.023
176.1783, 1591.986
176.6604, 1587.472
177.1425, 1582.729
177.6246, 1581.822
178.1067, 1584.430
178.5888, 1588.415
179.0710, 1594.003
179.5531, 1599.797
180.0352, 1601.999
180.5173, 1597.488
180.9994, 1591.223
181.4815, 1592.034
181.9637, 1599.755
182.4458, 1608.971
182.9279, 1617.670
183.4100, 1624.743
183.8921, 1625.415
184.3742, 1612.659
184.8564, 1595.112
185.3385, 1595.416
185.8206, 1614.623
186.3027, 1638.917
186.7848, 1658.139
187.2669, 1671.770
187.7491, 1676.496
188.2312, 1665.700
188.7133, 1644.903
189.1954, 1635.254
189.6775, 1638.146
190.1596, 1646.308
190.6418, 1651.929
191.1239, 1655.016
191.6060, 1657.088
192.0881, 1657.640
192.5702, 1657.120
193.0524, 1660.253
193.5345, 1668.029
194.0166, 1676.857
194.4987, 1679.898
194.9808, 1676.653
195.4629, 1675.141
195.9451, 1681.661
196.4272, 1696.017
196.9093, 1702.199
197.3914, 1698.013
197.8735, 1688.311
198.3556, 1680.885
198.8378, 1675.443
199.3199, 1674.149
199.8020, 1681.333
200.2841, 1698.046
200.7662, 1705.590
201.2483, 1700.095
201.7305, 1687.410
202.2126, 1682.061
202.6947, 1685.302
203.1768, 1691.200
203.6589, 1695.939
204.1410, 1698.926
204.6232, 1705.407
205.1053, 1718.172
205.5874, 1733.717
206.0695, 1739.260
206.5516, 1732.009
207.0337, 1722.087
207.5159, 1716.339
207.9980, 1715.753
208.4801, 1714.862
208.9622, 1711.974
209.4443, 1708.295
209.9264, 1710.816
210.4086, 1722.368
210.8907, 1734.469
211.3728, 1739.784
211.8549, 1735.959
212.3370, 1733.750
212.8191, 1735.777
213.3013, 1741.151
213.7834, 1741.700
214.2655, 1734.759
214.7476, 1727.267
215.2297, 1725.899
215.7118, 1733.364
216.1940, 1739.169
216.6761, 1740.029
217.1582, 1736.402
217.6403, 1739.658
218.1224, 1753.617
218.6045, 1769.299
219.0867, 1778.874
219.5688, 1783.027
220.0509, 1778.538
220.5330, 1760.537
221.0151, 1728.202
221.4972, 1710.667
221.9794, 1710.949
222.4615, 1722.446
222.9436, 1740.362
223.4257, 1771.898
223.9078, 1794.896
224.3899, 1801.749
224.8721, 1790.930
225.3542, 1785.287
225.8363, 1785.987
226.3184, 1790.694
226.8005, 1797.538
227.2827, 1809.544
227.7648, 1817.714
228.2469, 1818.900
228.7290, 1812.027
229.2111, 1805.972
229.6932, 1798.270
230.1754, 1793.441
230.6575, 1798.279
231.1396, 1818.089
231.6217, 1838.240
232.1038, 1855.294
232.5859, 1869.281
233.0681, 1879.648
233.5502, 1884.395
234.0323, 1886.931
234.5144, 1892.699
234.9965, 1904.783
235.4786, 1914.748
235.9608, 1919.148
236.4429, 1915.939
236.9250, 1916.113
237.4071, 1918.569
237.8892, 1925.128
238.3713, 1939.921
238.8535, 1969.763
239.3356, 1996.374
239.8177, 2012.728
240.2998, 2015.008
240.7819, 2022.113
241.2640, 2036.880
241.7462, 2054.933
242.2283, 2067.951
242.7104, 2070.096
243.1925, 2076.876
243.6746, 2094.650
244.1567, 2127.838
244.6389, 2157.541
245.1210, 2184.148
245.6031, 2207.016
246.0852, 2224.225
246.5673, 2233.024
247.0494, 2240.827
247.5316, 2250.057
248.0137, 2260.926
248.4958, 2272.471
248.9779, 2284.062
249.4600, 2296.640
249.9421, 2311.646
250.4243, 2329.408
250.9064, 2349.277
251.3885, 2373.350
251.8706, 2407.450
252.3527, 2424.863
252.8348, 2417.263
253.3170, 2398.160
253.7991, 2394.334
254.2812, 2413.735
254.7633, 2433.194
255.2454, 2442.680
255.7275, 2437.221
256.2097, 2440.898
256.6918, 2458.821
257.1739, 2482.328
257.6560, 2494.719
258.1381, 2491.154
258.6202, 2486.450
259.1024, 2486.183
259.5845, 2491.402
260.0666, 2496.067
260.5487, 2497.605
261.0308, 2500.558
261.5129, 2516.760
261.9951, 2555.201
262.4772, 2584.999
262.9593, 2590.979
263.4414, 2566.747
263.9235, 2548.973
264.4056, 2537.429
264.8878, 2532.409
265.3699, 2535.583
265.8520, 2549.952
266.3341, 2564.039
266.8162, 2573.299
267.2983, 2576.844
267.7805, 2580.140
268.2626, 2581.758
268.7447, 2584.713
269.2268, 2596.234
269.7089, 2619.742
270.1910, 2639.421
270.6732, 2646.950
271.1553, 2640.304
271.6374, 2642.079
272.1195, 2655.093
272.6016, 2672.410
273.0837, 2683.627
273.5659, 2689.006
274.0480, 2687.250
274.5301, 2672.893
275.0122, 2645.056
275.4943, 2635.901
275.9764, 2651.537
276.4586, 2674.364
276.9407, 2677.736
277.4228, 2660.093
277.9049, 2636.622
278.3870, 2610.396
278.8691, 2581.813
279.3513, 2561.184
279.8334, 2550.237
280.3155, 2542.807
280.7976, 2533.029
281.2798, 2521.253
281.7619, 2500.915
282.2440, 2464.190
282.7261, 2414.458
283.2082, 2379.066
283.6903, 2360.208
284.1725, 2347.616
284.6546, 2326.937
285.1367, 2298.844
285.6188, 2276.667
286.1009, 2268.468
286.5830, 2270.351
287.0652, 2263.976
287.5473, 2248.076
288.0294, 2231.825
288.5115, 2229.032
288.9936, 2237.482
289.4757, 2238.607
289.9579, 2219.402
290.4400, 2190.084
290.9221, 2181.550
291.4042, 2195.168
291.8863, 2212.486
292.3684, 2212.312
292.8506, 2198.962
293.3327, 2191.249
293.8148, 2196.825
294.2969, 2210.620
294.7790, 2224.287
295.2611, 2237.877
295.7433, 2249.686
296.2254, 2258.298
296.7075, 2264.123
297.1896, 2267.707
297.6717, 2267.065
298.1538, 2266.249
298.6360, 2270.850
299.1181, 2280.812
299.6002, 2294.928
300.0823, 2314.647
300.5644, 2337.730
301.0465, 2360.445
301.5287, 2383.153
302.0108, 2403.403
302.4929, 2413.417
302.9750, 2415.787
303.4571, 2424.790
303.9392, 2454.486
304.4214, 2495.324
304.9035, 2535.640
305.3856, 2572.713
305.8677, 2607.013
306.3498, 2636.449
306.8319, 2662.236
307.3141, 2689.345
307.7962, 2720.912
308.2783, 2754.703
308.7604, 2787.985
309.2425, 2816.684
309.7246, 2851.115
310.2068, 2901.837
310.6889, 2964.099
311.1710, 3026.045
311.6531, 3078.843
312.1352, 3131.128
312.6173, 3189.676
313.0995, 3257.145
313.5816, 3324.319
314.0637, 3384.989
314.5458, 3442.790
315.0279, 3505.035
315.5100, 3580.156
315.9922, 3656.214
316.4743, 3725.160
316.9564, 3783.138
317.4385, 3846.180
317.9206, 3920.852
318.4027, 4003.461
318.8849, 4088.848
319.3670, 4185.508
319.8491, 4276.028
320.3312, 4353.063
320.8133, 4414.903
321.2954, 4471.896
321.7776, 4529.416
322.2597, 4582.283
322.7418, 4624.979
323.2239, 4663.907
323.7060, 4685.402
324.1881, 4685.451
324.6703, 4663.397
325.1524, 4626.618
325.6345, 4573.827
326.1166, 4507.756
326.5987, 4430.184
327.0808, 4344.658
327.5630, 4243.487
328.0451, 4119.790
328.5272, 3974.822
329.0093, 3834.741
329.4914, 3704.187
329.9735, 3577.561
330.4557, 3451.538
330.9378, 3321.000
331.4199, 3199.403
331.9020, 3085.726
332.3841, 2980.941
332.8662, 2889.139
333.3484, 2809.885
333.8305, 2745.640
334.3126, 2700.342
334.7947, 2682.878
335.2768, 2657.318
335.7589, 2617.205
336.2411, 2570.677
336.7232, 2536.813
337.2053, 2516.969
337.6874, 2506.616
338.1695, 2506.537
338.6516, 2518.542
339.1338, 2524.771
339.6159, 2524.003
340.0980, 2518.765
340.5801, 2509.153
341.0622, 2493.338
341.5443, 2489.791
342.0265, 2512.473
342.5086, 2557.518
342.9907, 2589.906
343.4728, 2607.887
343.9549, 2618.976
344.4370, 2630.093
344.9192, 2641.372
345.4013, 2654.593
345.8834, 2668.023
346.3655, 2684.327
346.8476, 2714.350
347.3297, 2758.526
347.8119, 2800.476
348.2940, 2817.462
348.7761, 2818.631
349.2582, 2832.144
349.7403, 2874.445
350.2225, 2924.431
350.7046, 2951.186
351.1867, 2956.980
351.6688, 2957.442
352.1509, 2964.497
352.6331, 2973.301
353.1152, 2975.814
353.5973, 2967.563
354.0794, 2957.689
354.5615, 2952.446
355.0436, 2951.886
355.5258, 2956.169
356.0079, 2974.092
356.4900, 2992.068
356.9721, 2996.688
357.4542, 2982.499
357.9363, 2966.487
358.4185, 2955.505
358.9006, 2949.423
359.3827, 2948.021
359.8648, 2957.811
360.3469, 2967.029
360.8290, 2968.542
361.3112, 2960.621
361.7933, 2953.271
362.2754, 2952.196
362.7575, 2952.352
363.2396, 2948.241
363.7217, 2937.625
364.2039, 2923.673
364.6860, 2907.277
365.1681, 2888.385
365.6502, 2866.101
366.1323, 2833.099
366.6144, 2800.871
367.0966, 2777.372
367.5787, 2777.556
368.0608, 2768.653
368.5429, 2745.637
369.0250, 2710.851
369.5071, 2676.978
369.9893, 2645.288
370.4714, 2613.200
370.9535, 2578.646
371.4356, 2537.889
371.9177, 2504.093
372.3998, 2478.643
372.8820, 2459.544
373.3641, 2444.228
373.8462, 2435.961
374.3283, 2422.968
374.8104, 2397.180
375.2925, 2356.108
375.7747, 2331.194
376.2568, 2326.791
376.7389, 2329.487
377.2210, 2320.320
377.7031, 2298.349
378.1852, 2278.292
378.6674, 2265.743
379.1495, 2258.628
379.6316, 2246.216
380.1137, 2227.915
380.5958, 2210.621
381.0779, 2204.501
381.5601, 2206.371
382.0422, 2200.113
382.5243, 2178.608
383.0064, 2151.600
383.4885, 2135.622
383.9706, 2129.440
384.4528, 2125.056
384.9349, 2117.243
385.4170, 2107.550
385.8991, 2097.702
386.3812, 2087.051
386.8633, 2078.933
387.3455, 2078.934
387.8276, 2083.947
388.3097, 2086.856
388.7918, 2086.484
389.2739, 2080.971
389.7560, 2065.324
390.2382, 2037.899
390.7203, 2015.760
391.2024, 2014.004
391.6845, 2020.628
392.1666, 2021.781
392.6487, 2001.781
393.1309, 1985.892
393.6130, 1989.662
394.0951, 2010.840
394.5772, 2022.230
395.0593, 2007.528
395.5414, 1986.812
396.0236, 1972.745
396.5057, 1967.745
396.9878, 1968.642
397.4699, 1983.352
397.9520, 2004.895
398.4341, 2011.021
398.9163, 1985.800
399.3984, 1961.658
399.8805, 1950.797
400.3626, 1958.328
400.8447, 1964.473
401.3268, 1971.357
401.8090, 1975.267
402.2911, 1968.891
402.7732, 1945.850
403.2553, 1929.483
403.7374, 1927.299
404.2195, 1938.525
404.7017, 1950.421
405.1838, 1964.588
405.6659, 1975.141
406.1480, 1973.074
406.6301, 1958.065
407.1122, 1952.584
407.5944, 1964.523
408.0765, 1984.325
408.5586, 1988.057
409.0407, 1976.006
409.5228, 1960.736
410.0049, 1946.044
410.4871, 1934.551
410.9692, 1936.172
411.4513, 1954.583
411.9334, 1975.392
412.4155, 1983.061
412.8976, 1980.012
413.3798, 1973.212
413.8619, 1960.742
414.3440, 1949.050
414.8261, 1946.464
415.3082, 1953.091
415.7903, 1959.530
416.2725, 1957.656
416.7546, 1952.955
417.2367, 1951.901
417.7188, 1965.352
418.2009, 1973.128
418.6830, 1957.489
419.1652, 1926.155
419.6473, 1908.059
420.1294, 1925.622
420.6115, 1949.389
421.0937, 1963.721
421.5758, 1963.313
422.0579, 1959.819
422.5400, 1953.619
423.0221, 1945.472
423.5042, 1936.358
423.9864, 1920.142
424.4685, 1909.993
424.9506, 1909.850
425.4327, 1920.425
425.9148, 1932.490
426.3969, 1948.692
426.8791, 1963.369
427.3612, 1971.634
427.8433, 1973.050
428.3254, 1968.603
428.8075, 1955.277
429.2896, 1937.359
429.7718, 1930.388
430.2539, 1935.690
430.7360, 1944.538
431.2181, 1954.278
431.7002, 1964.424
432.1823, 1966.636
432.6645, 1959.087
433.1466, 1948.290
433.6287, 1942.095
434.1108, 1940.208
434.5929, 1941.434
435.0750, 1947.243
435.5572, 1955.027
436.0393, 1960.710
436.5214, 1964.292
437.0035, 1965.774
437.4856, 1963.636
437.9677, 1959.833
438.4499, 1956.893
438.9320, 1954.798
439.4141, 1954.839
439.8962, 1960.229
440.3783, 1968.680
440.8604, 1974.454
441.3426, 1973.387
441.8247, 1970.084
442.3068, 1966.934
442.7889, 1964.247
443.2710, 1961.501
443.7531, 1957.768
444.2353, 1954.223
444.7174, 1952.101
445.1995, 1952.004
445.6816, 1952.922
446.1637, 1955.510
446.6458, 1959.459
447.1280, 1961.492
447.6101, 1959.018
448.0922, 1957.492
448.5743, 1960.490
449.0564, 1971.035
449.5385, 1978.248
450.0207, 1981.866
450.5028, 1982.025
450.9849, 1977.172
451.4670, 1965.635
451.9491, 1957.889
452.4312, 1959.523
452.9134, 1969.098
453.3955, 1974.977
453.8776, 1976.718
454.3597, 1977.807
454.8418, 1984.314
455.3239, 1993.814
455.8061, 1994.696
456.2882, 1980.285
456.7703, 1962.474
457.2524, 1958.907
457.7345, 1967.090
458.2166, 1976.870
458.6988, 1983.260
459.1809, 1987.515
459.6630, 1991.310
460.1451, 1995.154
460.6272, 1996.278
461.1093, 1989.657
461.5915, 1980.302
462.0736, 1974.578
462.5557, 1982.127
463.0378, 1986.273
463.5199, 1975.540
464.0020, 1952.940
464.4842, 1940.966
464.9663, 1957.137
465.4484, 1975.747
465.9305, 1982.376
466.4126, 1962.132
466.8947, 1955.763
467.3769, 1972.917
467.8590, 1999.688
468.3411, 2012.734
468.8232, 2004.422
469.3053, 1997.409
469.7874, 1998.212
470.2696, 2006.324
470.7517, 2012.469
471.2338, 2016.452
471.7159, 2019.036
472.1980, 2021.390
472.6801, 2023.438
473.1623, 2021.465
473.6444, 2013.630
474.1265, 2004.137
474.6086, 2000.177
475.0907, 2001.223
475.5728, 2003.875
476.0550, 2009.014
476.5371, 2013.687
477.0192, 2010.801
477.5013, 1999.980
477.9834, 1991.672
478.4655, 1998.127
478.9477, 2010.648
479.4298, 2017.499
479.9119, 2010.251
480.3940, 2002.894
480.8761, 2004.276
481.3582, 2011.531
481.8404, 2016.415
482.3225, 2011.785
482.8046, 2007.855
483.2867, 2010.790
483.7688, 2024.959
484.2509, 2032.586
484.7331, 2028.147
485.2152, 2018.535
485.6973, 2009.595
486.1794, 1999.422
486.6615, 1993.279
487.1436, 1992.646
487.6258, 1996.601
488.1079, 2001.594
488.5900, 2008.854
489.0721, 2013.639
489.5542, 2011.443
490.0363, 2002.156
490.5185, 1998.846
491.0006, 2002.974
491.4827, 2009.413
491.9648, 2010.118
492.4470, 2006.551
492.9291, 2007.336
493.4112, 2019.699
493.8933, 2034.257
494.3754, 2034.781
494.8575, 2023.008
495.3397, 2009.856
495.8218, 1998.993
496.3039, 1992.067
496.7860, 1992.571
497.2681, 2003.389
497.7502, 2012.034
498.2324, 2008.400
498.7145, 1999.609
499.1966, 1995.278
499.6787, 2003.674
500.1608, 2011.515
500.6429, 2013.980
501.1251, 2011.399
501.6072, 2010.497
502.0893, 2016.322
502.5714, 2019.863
503.0535, 2015.913
503.5356, 1998.129
504.0178, 1988.310
504.4999, 1988.803
504.9820, 1995.260
505.4641, 2001.755
505.9462, 2008.468
506.4283, 2014.194
506.9105, 2018.499
507.3926, 2021.528
507.8747, 2024.733
508.3568, 2028.301
508.8389, 2028.530
509.3210, 2018.993
509.8032, 2004.002
510.2853, 1995.541
510.7674, 1995.591
511.2495, 2000.107
511.7316, 2007.723
512.2137, 2016.628
512.6959, 2023.037
513.1780, 2026.244
513.6601, 2025.793
514.1422, 2016.861
514.6243, 2001.654
515.1064, 1994.869
515.5886, 2011.593
516.0707, 2032.008
516.5528, 2043.328
517.0349, 2038.121
517.5170, 2036.235
517.9991, 2045.617
518.4813, 2056.949
518.9634, 2058.038
519.4455, 2043.390
519.9276, 2027.544
520.4097, 2011.072
520.8918, 1995.419
521.3740, 1989.905
521.8561, 1997.154
522.3382, 2005.852
522.8203, 2007.134
523.3024, 2001.714
523.7845, 2003.862
524.2667, 2016.251
524.7488, 2029.026
525.2309, 2027.084
525.7130, 2014.869
526.1951, 2008.253
526.6772, 2017.631
527.1594, 2030.546
527.6415, 2030.421
528.1236, 2020.144
528.6057, 2012.398
529.0878, 2015.874
529.5699, 2023.756
530.0521, 2031.901
530.5342, 2040.615
531.0163, 2046.011
531.4984, 2047.124
531.9805, 2044.231
532.4626, 2037.666
532.9448, 2013.102
533.4269, 2002.562
533.9090, 2017.549
534.3911, 2050.018
534.8732, 2067.873
535.3553, 2066.698
535.8375, 2059.260
536.3196, 2048.754
536.8017, 2034.520
537.2838, 2029.853
537.7659, 2036.977
538.2480, 2046.197
538.7302, 2046.048
539.2123, 2037.960
539.6944, 2031.702
540.1765, 2029.323
540.6586, 2029.808
541.1407, 2032.748
541.6229, 2037.562
542.1050, 2042.198
542.5871, 2045.079
543.0692, 2047.605
543.5513, 2052.927
544.0334, 2061.057
544.5156, 2063.542
544.9977, 2046.318
545.4798, 2027.624
545.9619, 2022.624
546.4440, 2047.187
546.9261, 2066.121
547.4083, 2071.533
547.8904, 2068.939
548.3725, 2068.270
548.8546, 2071.492
549.3367, 2073.264
549.8188, 2071.204
550.3010, 2065.947
550.7831, 2066.534
551.2652, 2075.512
551.7473, 2081.826
552.2294, 2074.233
552.7115, 2054.659
553.1937, 2042.758
553.6758, 2040.443
554.1579, 2044.330
554.6400, 2054.817
555.1221, 2068.618
555.6042, 2075.731
556.0864, 2065.940
556.5685, 2054.785
557.0506, 2060.100
557.5327, 2077.620
558.0148, 2091.433
558.4969, 2094.279
558.9791, 2090.643
559.4612, 2080.994
559.9433, 2063.269
560.4254, 2051.030
560.9075, 2047.263
561.3896, 2049.926
561.8718, 2057.523
562.3539, 2077.675
562.8360, 2089.250
563.3181, 2086.681
563.8002, 2076.427
564.2823, 2074.791
564.7645, 2083.762
565.2466, 2092.504
565.7287, 2096.782
566.2108, 2097.305
566.6929, 2096.193
567.1750, 2093.287
567.6572, 2092.559
568.1393, 2100.761
568.6214, 2112.983
569.1035, 2117.751
569.5856, 2111.391
570.0677, 2105.465
570.5499, 2115.023
571.0320, 2130.208
571.5141, 2135.505
571.9962, 2113.934
572.4783, 2092.659
572.9604, 2082.523
573.4426, 2082.213
573.9247, 2083.898
574.4068, 2089.697
574.8889, 2094.160
575.3710, 2093.772
575.8531, 2086.113
576.3353, 2086.953
576.8174, 2099.888
577.2995, 2115.980
577.7816, 2128.397
578.2637, 2137.392
578.7458, 2137.534
579.2280, 2125.168
579.7101, 2108.875
580.1922, 2103.501
580.6743, 2107.985
581.1564, 2116.321
581.6385, 2132.467
582.1207, 2147.309
582.6028, 2143.818
583.0849, 2124.690
583.5670, 2110.752
584.0491, 2118.614
584.5313, 2133.831
585.0134, 2145.934
585.4955, 2153.484
585.9776, 2157.313
586.4597, 2153.153
586.9418, 2147.197
587.4240, 2147.048
587.9061, 2164.372
588.3882, 2168.951
588.8703, 2150.668
589.3524, 2119.447
589.8345, 2104.937
590.3167, 2109.814
590.7988, 2121.605
591.2809, 2139.289
591.7630, 2159.968
592.2451, 2164.693
592.7272, 2152.858
593.2094, 2139.844
593.6915, 2141.780
594.1736, 2150.964
594.6557, 2150.196
595.1378, 2133.457
595.6199, 2120.785
596.1021, 2132.461
596.5842, 2156.333
597.0663, 2175.140
597.5485, 2184.145
598.0306, 2185.822
598.5127, 2173.873
598.9948, 2153.279
599.4769, 2145.602
599.9590, 2164.365
600.4412, 2181.130
600.9233, 2186.054
601.4054, 2178.372
601.8875, 2171.469
602.3696, 2165.610
602.8517, 2159.992
603.3339, 2152.845
603.8160, 2144.534
604.2981, 2142.093
604.7802, 2147.653
605.2623, 2154.512
605.7444, 2151.517
606.2266, 2142.667
606.7087, 2138.901
607.1908, 2147.623
607.6729, 2159.350
608.1550, 2166.992
608.6371, 2171.476
609.1193, 2176.083
609.6014, 2186.381
610.0835, 2193.383
610.5656, 2191.131
611.0477, 2177.770
611.5298, 2167.178
612.0120, 2160.369
612.4941, 2155.978
612.9762, 2153.115
613.4583, 2151.491
613.9404, 2152.529
614.4225, 2156.558
614.9047, 2162.820
615.3868, 2172.241
615.8689, 2184.339
616.3510, 2191.087
616.8331, 2187.552
617.3152, 2180.884
617.7974, 2184.035
618.2795, 2194.251
618.7616, 2200.990
619.2437, 2194.009
619.7258, 2184.638
620.2079, 2181.229
620.6901, 2184.257
621.1722, 2188.921
621.6543, 2194.569
622.1364, 2200.624
622.6185, 2206.595
623.1006, 2212.057
623.5828, 2218.909
624.0649, 2230.853
624.5470, 2240.786
625.0291, 2237.286
625.5112, 2216.159
625.9933, 2205.511
626.4755, 2214.369
626.9576, 2231.146
627.4397, 2228.462
627.9218, 2209.166
628.4039, 2194.982
628.8860, 2198.610
629.3682, 2212.498
629.8503, 2229.598
630.3324, 2249.069
630.8145, 2264.705
631.2966, 2271.385
631.7787, 2273.809
632.2609, 2274.947
632.7430, 2275.072
633.2251, 2274.382
633.7072, 2271.846
634.1893, 2269.167
634.6714, 2267.147
635.1536, 2262.713
635.6357, 2266.903
636.1178, 2284.755
636.5999, 2307.062
637.0820, 2314.386
637.5641, 2305.909
638.0463, 2302.153
638.5284, 2312.472
639.0105, 2329.218
639.4926, 2338.020
639.9747, 2339.576
640.4568, 2337.834
640.9390, 2333.990
641.4211, 2328.746
641.9032, 2320.876
642.3853, 2310.350
642.8674, 2304.957
643.3495, 2307.821
643.8317, 2316.935
644.3138, 2332.470
644.7959, 2366.938
645.2780, 2382.313
645.7601, 2368.260
646.2422, 2344.207
646.7244, 2334.614
647.2065, 2343.856
647.6886, 2343.500
648.1707, 2323.797
648.6528, 2298.872
649.1349, 2301.475
649.6171, 2327.681
650.0992, 2349.688
650.5813, 2351.017
651.0634, 2343.247
651.5455, 2339.045
652.0276, 2338.037
652.5098, 2338.423
652.9919, 2342.475
653.4740, 2345.106
653.9561, 2340.747
654.4382, 2326.293
654.9203, 2321.112
655.4025, 2342.322
655.8846, 2361.501
656.3667, 2357.510
656.8488, 2319.273
657.3309, 2290.287
657.8130, 2271.203
658.2952, 2262.824
658.7773, 2272.193
659.2594, 2297.338
659.7415, 2312.731
660.2236, 2308.298
660.7057, 2296.797
661.1879, 2299.611
661.6700, 2310.737
662.1521, 2313.357
662.6342, 2288.532
663.1163, 2261.917
663.5984, 2248.713
664.0806, 2248.346
664.5627, 2252.397
665.0448, 2272.086
665.5269, 2283.147
666.0090, 2269.235
666.4911, 2223.250
666.9733, 2209.838
667.4554, 2242.955
667.9375, 2280.978
668.4196, 2284.614
668.9017, 2255.390
669.3839, 2243.156
669.8660, 2254.551
670.3481, 2272.865
670.8302, 2279.341
671.3123, 2278.033
671.7944, 2277.892
672.2766, 2283.251
672.7587, 2287.910
673.2408, 2286.382
673.7229, 2281.428
674.2050, 2278.435
674.6871, 2280.991
675.1693, 2283.422
675.6514, 2284.356
676.1335, 2283.938
676.6156, 2282.676
677.0977, 2279.930
677.5798, 2277.826
678.0620, 2277.685
678.5441, 2279.213
679.0262, 2279.440
679.5083, 2278.307
679.9904, 2276.863
680.4725, 2273.343
680.9547, 2270.840
681.4368, 2277.757
681.9189, 2296.479
682.4010, 2310.335
682.8831, 2302.194
683.3652, 2286.265
683.8474, 2276.995
684.3295, 2281.824
684.8116, 2286.718
685.2937, 2289.756
685.7758, 2291.731
686.2579, 2293.356
686.7401, 2294.005
687.2222, 2296.374
687.7043, 2302.164
688.1864, 2308.771
688.6685, 2309.956
689.1506, 2305.868
689.6328, 2298.825
690.1149, 2286.235
690.5970, 2273.586
691.0791, 2269.317
691.5612, 2272.556
692.0433, 2278.810
692.5255, 2289.959
693.0076, 2299.990
693.4897, 2303.646
693.9718, 2299.764
694.4539, 2299.763
694.9360, 2311.578
695.4182, 2321.700
695.9003, 2322.038
696.3824, 2309.409
696.8645, 2300.710
697.3466, 2296.818
697.8287, 2294.555
698.3109, 2287.379
698.7930, 2277.758
699.2751, 2282.020
699.7572, 2307.120
700.2393, 2331.176
700.7214, 2326.579
701.2036, 2306.209
701.6857, 2291.601
702.1678, 2296.348
702.6499, 2301.231
703.1320, 2298.567
703.6141, 2290.791
704.0963, 2283.851
704.5784, 2276.222
705.0605, 2272.503
705.5426, 2275.850
706.0247, 2283.701
706.5068, 2284.071
706.9890, 2276.314
707.4711, 2266.535
707.9532, 2253.862
708.4353, 2242.392
708.9174, 2246.563
709.3995, 2264.805
709.8817, 2281.710
710.3638, 2287.634
710.8459, 2286.794
711.3280, 2280.429
711.8101, 2267.539
712.2922, 2259.889
712.7744, 2268.549
713.2565, 2277.746
713.7386, 2275.847
714.2207, 2254.236
714.7028, 2245.089
715.1849, 2253.193
715.6671, 2265.294
716.1492, 2265.354
716.6313, 2254.537
717.1134, 2246.667
717.5955, 2244.142
718.0776, 2245.237
718.5598, 2251.558
719.0419, 2259.520
719.5240, 2261.934
720.0061, 2249.751
720.4882, 2239.411
720.9703, 2239.683
721.4525, 2247.171
721.9346, 2254.228
722.4167, 2264.311
722.8988, 2267.831
723.3809, 2260.458
723.8630, 2245.434
724.3452, 2235.162
724.8273, 2229.690
725.3094, 2228.870
725.7915, 2235.698
726.2736, 2246.090
726.7557, 2247.597
727.2379, 2241.483
727.7200, 2237.698
728.2021, 2246.090
728.6842, 2257.108
729.1663, 2264.026
729.6484, 2266.223
730.1306, 2263.432
730.6127, 2246.425
731.0948, 2232.131
731.5769, 2230.821
732.0590, 2246.985
732.5411, 2257.147
733.0233, 2260.053
733.5054, 2259.767
733.9875, 2260.091
734.4696, 2260.687
734.9517, 2258.595
735.4338, 2253.102
735.9160, 2247.206
736.3981, 2243.064
736.8802, 2240.764
737.3623, 2240.613
737.8444, 2243.666
738.3266, 2246.986
738.8087, 2252.705
739.2908, 2256.942
739.7729, 2252.842
740.2551, 2226.475
740.7372, 2218.227
741.2193, 2240.916
741.7014, 2277.251
742.1835, 2287.500
742.6656, 2271.280
743.1478, 2261.335
743.6299, 2274.147
744.1120, 2291.376
744.5941, 2276.688
745.0762, 2240.871
745.5583, 2216.975
746.0405, 2232.857
746.5226, 2254.682
747.0047, 2265.265
747.4868, 2265.636
747.9689, 2264.079
748.4510, 2260.966
748.9332, 2256.737
749.4153, 2249.630
749.8974, 2240.600
750.3795, 2242.231
750.8616, 2255.864
751.3438, 2269.611
751.8259, 2276.800
752.3080, 2278.384
752.7901, 2275.209
753.2722, 2267.590
753.7543, 2260.603
754.2365, 2260.414
754.7186, 2260.329
755.2007, 2253.266
755.6828, 2236.207
756.1649, 2225.556
756.6470, 2228.583
757.1292, 2234.668
757.6113, 2237.273
758.0934, 2234.884
758.5755, 2237.299
759.0576, 2246.690
759.5397, 2253.687
760.0219, 2241.284
760.5040, 2218.125
760.9861, 2216.144
761.4682, 2244.519
761.9503, 2270.787
762.4324, 2264.778
762.9146, 2244.116
763.3967, 2229.349
763.8788, 2225.995
764.3609, 2227.928
764.8430, 2240.339
765.3251, 2254.078
765.8073, 2257.419
766.2894, 2246.188
766.7715, 2241.907
767.2536, 2249.857
767.7357, 2261.602
768.2178, 2260.996
768.7000, 2251.243
769.1821, 2245.887
769.6642, 2250.783
770.1463, 2259.155
770.6284, 2271.727
771.1105, 2282.705
771.5927, 2280.891
772.0748, 2241.661
772.5569, 2213.964
773.0390, 2214.539
773.5211, 2233.407
774.0032, 2246.777
774.4854, 2254.148
774.9675, 2257.639
775.4496, 2256.912
775.9317, 2253.558
776.4138, 2250.267
776.8959, 2247.512
777.3781, 2247.688
777.8602, 2255.335
778.3423, 2263.811
778.8244, 2267.475
779.3065, 2267.101
779.7886, 2266.266
780.2708, 2266.345
780.7529, 2265.745
781.2350, 2263.236
781.7171, 2259.259
782.1992, 2258.408
782.6813, 2261.542
783.1635, 2264.427
783.6456, 2264.762
784.1277, 2263.206
784.6098, 2259.809
785.0919, 2255.277
785.5740, 2256.190
786.0562, 2274.760
786.5383, 2294.826
787.0204, 2302.381
787.5025, 2296.644
787.9846, 2287.855
788.4667, 2270.176
788.9489, 2258.251
789.4310, 2260.736
789.9131, 2278.868
790.3952, 2286.800
790.8773, 2282.936
791.3594, 2276.013
791.8416, 2272.031
792.3237, 2270.072
792.8058, 2265.953
793.2879, 2259.580
793.7700, 2258.824
794.2521, 2278.882
794.7343, 2300.303
795.2164, 2303.578
795.6985, 2279.804
796.1806, 2269.614
796.6627, 2288.615
797.1448, 2309.376
797.6270, 2312.306
798.1091, 2293.986
798.5912, 2286.837
799.0733, 2292.680
799.5554, 2300.730
800.0375, 2300.758
800.5197, 2295.451
801.0018, 2288.449
801.4839, 2279.613
801.9660, 2274.966
802.4481, 2283.145
802.9302, 2294.028
803.4124, 2298.812
803.8945, 2292.672
804.3766, 2288.484
804.8587, 2287.692
805.3408, 2286.948
805.8229, 2281.527
806.3051, 2271.498
806.7872, 2268.850
807.2693, 2275.395
807.7514, 2284.508
808.2335, 2292.803
808.7156, 2298.054
809.1978, 2295.366
809.6799, 2280.489
810.1620, 2268.632
810.6441, 2265.536
811.1262, 2268.886
811.6083, 2277.351
812.0905, 2297.933
812.5726, 2305.388
813.0547, 2293.609
813.5368, 2279.389
814.0189, 2287.210
814.5010, 2312.083
814.9832, 2322.658
815.4653, 2311.391
815.9474, 2297.488
816.4295, 2301.912
816.9116, 2312.752
817.3937, 2314.411
817.8759, 2296.154
818.3580, 2282.243
818.8401, 2275.656
819.3222, 2277.043
819.8043, 2290.950
820.2864, 2323.533
820.7686, 2338.421
821.2507, 2329.186
821.7328, 2311.109
822.2149, 2303.814
822.6970, 2303.389
823.1791, 2298.626
823.6613, 2284.565
824.1434, 2274.286
824.6255, 2279.732
825.1076, 2292.313
825.5897, 2302.394
826.0718, 2306.596
826.5540, 2310.864
827.0361, 2316.460
827.5182, 2320.799
828.0003, 2319.027
828.4824, 2311.285
828.9645, 2310.518
829.4467, 2320.691
829.9288, 2329.505
830.4109, 2317.272
830.8930, 2296.243
831.3751, 2285.421
831.8572, 2292.320
832.3394, 2304.057
832.8215, 2321.164
833.3036, 2338.269
833.7857, 2350.319
834.2678, 2358.264
834.7499, 2356.940
835.2321, 2343.607
835.7142, 2326.528
836.1963, 2312.360
836.6784, 2302.723
837.1605, 2307.271
837.6426, 2331.540
838.1248, 2352.895
838.6069, 2351.709
839.0890, 2338.947
839.5711, 2325.943
840.0532, 2309.493
840.5353, 2303.724
841.0175, 2313.572
841.4996, 2329.589
841.9817, 2344.044
842.4638, 2357.257
842.9459, 2362.280
843.4280, 2357.830
843.9102, 2348.431
844.3923, 2335.818
844.8744, 2322.599
845.3565, 2312.341
845.8386, 2304.592
846.3207, 2303.901
846.8029, 2320.301
847.2850, 2339.323
847.7671, 2348.101
848.2492, 2342.502
848.7313, 2336.999
849.2134, 2330.989
849.6956, 2326.722
850.1777, 2325.361
850.6598, 2327.515
851.1419, 2338.593
851.6240, 2360.722
852.1061, 2376.500
852.5883, 2367.165
853.0704, 2348.883
853.5525, 2335.549
854.0346, 2329.139
854.5167, 2329.592
854.9988, 2341.137
855.4810, 2353.630
855.9631, 2360.162
856.4452, 2360.678
856.9273, 2357.617
857.4094, 2350.618
857.8915, 2345.895
858.3737, 2353.229
858.8558, 2363.927
859.3379, 2365.795
859.8200, 2356.777
860.3021, 2348.628
860.7842, 2346.748
861.2664, 2346.247
861.7485, 2343.688
862.2306, 2338.352
862.7127, 2339.559
863.1948, 2349.202
863.6769, 2357.093
864.1591, 2350.925
864.6412, 2338.834
865.1233, 2345.657
865.6054, 2370.053
866.0875, 2384.286
866.5696, 2356.687
867.0518, 2326.390
867.5339, 2320.085
868.0160, 2340.924
868.4981, 2357.121
868.9802, 2367.768
869.4623, 2375.496
869.9445, 2380.949
870.4266, 2384.443
870.9087, 2387.270
871.3908, 2389.473
871.8729, 2391.168
872.3550, 2393.098
872.8372, 2394.047
873.3193, 2391.697
873.8014, 2386.929
874.2835, 2384.781
874.7656, 2388.006
875.2477, 2392.371
875.7299, 2398.442
876.2120, 2404.523
876.6941, 2401.903
877.1762, 2390.619
877.6583, 2383.182
878.1404, 2386.786
878.6226, 2395.359
879.1047, 2404.697
879.5869, 2412.527
880.0690, 2413.253
880.5511, 2392.463
881.0332, 2378.571
881.5153, 2387.202
881.9974, 2405.719
882.4796, 2406.132
882.9617, 2383.720
883.4438, 2371.012
883.9259, 2378.597
884.4080, 2393.492
884.8901, 2394.316
885.3723, 2386.381
885.8544, 2382.313
886.3365, 2389.387
886.8186, 2396.390
887.3007, 2399.446
887.7828, 2398.987
888.2650, 2395.002
888.7471, 2383.970
889.2292, 2379.136
889.7113, 2381.929
890.1934, 2390.408
890.6755, 2408.400
891.1577, 2430.128
891.6398, 2435.349
892.1219, 2417.193
892.6040, 2398.298
893.0861, 2393.387
893.5682, 2395.904
894.0504, 2400.412
894.5325, 2408.254
895.0146, 2412.344
895.4967, 2410.993
895.9788, 2409.001
896.4609, 2412.302
896.9431, 2419.195
897.4252, 2416.206
897.9073, 2402.485
898.3894, 2392.531
898.8715, 2402.205
899.3536, 2416.744
899.8358, 2423.126
900.3179, 2419.299
900.8000, 2417.338
901.2821, 2420.835
901.7642, 2422.859
902.2463, 2418.613
902.7285, 2409.732
903.2106, 2408.829
903.6927, 2415.712
904.1748, 2424.732
904.6569, 2437.561
905.1390, 2447.091
905.6212, 2442.681
906.1033, 2427.734
906.5854, 2417.141
907.0675, 2414.383
907.5496, 2418.010
908.0317, 2430.261
908.5139, 2447.506
908.9960, 2459.962
909.4781, 2467.557
909.9602, 2468.538
910.4423, 2459.555
910.9244, 2448.087
911.4066, 2442.983
911.8887, 2442.026
912.3708, 2441.070
912.8529, 2440.186
913.3350, 2437.091
913.8171, 2427.517
914.2993, 2418.380
914.7814, 2420.041
915.2635, 2433.344
915.7456, 2447.645
916.2277, 2462.765
916.7098, 2472.842
917.1920, 2464.081
917.6741, 2448.493
918.1562, 2445.808
918.6383, 2465.286
919.1204, 2478.597
919.6025, 2471.549
920.0847, 2459.931
920.5668, 2454.078
921.0489, 2454.894
921.5310, 2454.704
922.0131, 2453.253
922.4952, 2452.882
922.9774, 2456.554
923.4595, 2461.997
923.9416, 2466.059
924.4237, 2468.548
924.9058, 2470.140
925.3879, 2471.125
925.8701, 2471.342
926.3522, 2472.649
926.8343, 2473.855
927.3164, 2461.947
927.7985, 2434.567
928.2806, 2415.399
928.7628, 2418.825
929.2449, 2433.576
929.7270, 2445.646
930.2091, 2454.529
930.6912, 2459.199
931.1733, 2452.002
931.6555, 2448.946
932.1376, 2459.970
932.6197, 2475.863
933.1018, 2480.244
933.5839, 2471.325
934.0660, 2464.219
934.5482, 2461.264
935.0303, 2462.021
935.5124, 2469.232
935.9945, 2478.820
936.4766, 2483.455
936.9587, 2480.431
937.4409, 2475.429
937.9230, 2467.689
938.4051, 2460.603
938.8872, 2456.715
939.3693, 2456.271
939.8514, 2457.688
940.3336, 2461.078
940.8157, 2465.329
941.2978, 2469.363
941.7799, 2473.793
942.2620, 2481.394
942.7441, 2491.763
943.2263, 2496.881
943.7084, 2487.577
944.1905, 2478.473
944.6726, 2474.838
945.1547, 2476.331
945.6368, 2482.100
946.1190, 2492.546
946.6011, 2501.440
947.0832, 2507.410
947.5653, 2508.798
948.0474, 2499.123
948.5295, 2483.446
949.0117, 2473.537
949.4938, 2472.430
949.9759, 2479.759
950.4580, 2502.658
950.9401, 2528.056
951.4222, 2533.230
951.9044, 2517.782
952.3865, 2509.010
952.8686, 2512.181
953.3507, 2518.351
953.8328, 2517.956
954.3149, 2514.900
954.7971, 2513.540
955.2792, 2514.010
955.7613, 2519.503
956.2434, 2538.213
956.7255, 2552.596
957.2076, 2550.445
957.6898, 2532.236
958.1719, 2514.606
958.6540, 2497.502
959.1361, 2486.517
959.6182, 2486.075
960.1003, 2492.863
960.5825, 2507.411
961.0646, 2527.692
961.5467, 2542.821
962.0288, 2548.406
962.5109, 2552.107
962.9930, 2554.903
963.4752, 2557.435
963.9573, 2563.909
964.4394, 2572.608
964.9215, 2572.257
965.4036, 2554.775
965.8857, 2535.875
966.3679, 2526.882
966.8500, 2524.620
967.3321, 2525.133
967.8142, 2530.652
968.2963, 2533.982
968.7784, 2535.563
969.2606, 2533.950
969.7427, 2522.990
970.2248, 2507.451
970.7069, 2507.631
971.1890, 2524.836
971.6711, 2540.506
972.1533, 2541.886
972.6354, 2537.982
973.1175, 2532.391
973.5996, 2525.708
974.0817, 2527.208
974.5638, 2540.486
975.0460, 2548.730
975.5281, 2541.719
976.0102, 2528.325
976.4923, 2528.633
976.9744, 2538.649
977.4565, 2546.652
977.9387, 2541.611
978.4208, 2540.614
978.9029, 2558.595
979.3850, 2579.608
979.8671, 2579.125
980.3492, 2551.462
980.8314, 2536.151
981.3135, 2538.526
981.7956, 2548.958
982.2777, 2565.176
982.7598, 2578.932
983.2419, 2574.938
983.7241, 2548.247
984.2062, 2527.379
984.6883, 2523.856
985.1704, 2525.247
985.6525, 2526.128
986.1346, 2526.950
986.6168, 2535.759
987.0989, 2552.078
987.5810, 2561.000
988.0631, 2543.508
988.5452, 2523.446
989.0273, 2525.952
989.5095, 2543.742
989.9916, 2558.346
990.4737, 2571.966
990.9558, 2571.153
991.4379, 2547.606
991.9200, 2518.599
992.4022, 2514.242
992.8843, 2528.753
993.3664, 2535.667
993.8485, 2528.618
994.3306, 2522.999
994.8127, 2533.260
995.2949, 2547.031
995.7770, 2552.111
996.2591, 2545.869
996.7412, 2548.754
997.2233, 2565.215
997.7054, 2574.436
998.1876, 2554.941
998.6697, 2522.899
999.1518, 2513.857
999.6339, 2524.387
1000.116, 2540.346
1000.598, 2565.194
1001.080, 2583.114
1001.562, 2586.204
1002.044, 2580.327
1002.527, 2575.111
1003.009, 2570.727
1003.491, 2564.688
1003.973, 2556.135
1004.455, 2548.060
1004.937, 2543.259
1005.419, 2541.299
1005.901, 2541.872
1006.384, 2545.156
1006.866, 2550.108
1007.348, 2557.055
1007.830, 2564.797
1008.312, 2574.314
1008.794, 2584.250
1009.276, 2585.375
1009.758, 2578.501
1010.240, 2570.565
1010.723, 2557.442
1011.205, 2552.601
1011.687, 2577.150
1012.169, 2615.301
1012.651, 2621.674
1013.133, 2576.065
1013.615, 2559.414
1014.097, 2590.993
1014.580, 2635.907
1015.062, 2645.482
1015.544, 2633.140
1016.026, 2623.750
1016.508, 2622.269
1016.990, 2621.767
1017.472, 2621.029
1017.954, 2618.978
1018.436, 2615.124
1018.919, 2609.502
1019.401, 2600.649
1019.883, 2588.549
1020.365, 2579.758
1020.847, 2577.680
1021.329, 2581.031
1021.811, 2596.017
1022.293, 2614.920
1022.776, 2618.492
1023.258, 2587.490
1023.740, 2566.774
1024.222, 2561.612
1024.704, 2566.626
1025.186, 2579.236
1025.668, 2595.964
1026.150, 2603.593
1026.632, 2599.856
1027.115, 2593.890
1027.597, 2586.346
1028.079, 2582.691
1028.561, 2588.602
1029.043, 2603.376
1029.525, 2613.454
1030.007, 2618.540
1030.489, 2619.815
1030.972, 2615.133
1031.454, 2609.916
1031.936, 2612.022
1032.418, 2619.375
1032.900, 2627.449
1033.382, 2636.304
1033.864, 2643.975
1034.346, 2651.263
1034.828, 2656.135
1035.311, 2654.580
1035.793, 2647.885
1036.275, 2646.344
1036.757, 2650.814
1037.239, 2651.346
1037.721, 2636.871
1038.203, 2619.395
1038.685, 2604.613
1039.167, 2593.793
1039.650, 2595.033
1040.132, 2611.283
1040.614, 2627.053
1041.096, 2637.713
1041.578, 2643.737
1042.060, 2644.149
1042.542, 2640.594
1043.024, 2635.737
1043.507, 2627.587
1043.989, 2624.029
1044.471, 2628.794
1044.953, 2635.683
1045.435, 2641.408
1045.917, 2645.636
1046.399, 2641.479
1046.881, 2629.354
1047.364, 2620.041
1047.846, 2624.345
1048.328, 2630.708
1048.810, 2629.861
1049.292, 2624.046
1049.774, 2625.229
1050.256, 2637.813
1050.738, 2640.361
1051.220, 2625.229
1051.703, 2607.626
1052.185, 2612.753
1052.667, 2629.744
1053.149, 2639.951
1053.631, 2638.169
1054.113, 2636.939
1054.595, 2640.284
1055.077, 2644.162
1055.559, 2646.555
1056.042, 2647.703
1056.524, 2650.042
1057.006, 2653.208
1057.488, 2654.209
1057.970, 2649.020
1058.452, 2643.626
1058.934, 2644.557
1059.416, 2646.892
1059.899, 2639.805
1060.381, 2616.557
1060.863, 2609.043
1061.345, 2622.490
1061.827, 2640.573
1062.309, 2648.201
1062.791, 2648.863
1063.273, 2645.479
1063.755, 2638.612
1064.238, 2636.225
1064.720, 2644.917
1065.202, 2652.490
1065.684, 2654.036
1066.166, 2653.009
1066.648, 2664.108
1067.130, 2682.626
1067.612, 2684.524
1068.094, 2650.424
1068.577, 2626.345
1069.059, 2658.163
1069.541, 2700.874
1070.023, 2706.836
1070.505, 2664.555
1070.987, 2654.635
1071.469, 2680.323
1071.951, 2705.221
1072.434, 2696.691
1072.916, 2679.085
1073.398, 2684.802
1073.880, 2706.783
1074.362, 2718.763
1074.844, 2709.953
1075.326, 2699.387
1075.808, 2688.063
1076.291, 2677.914
1076.773, 2671.615
1077.255, 2668.622
1077.737, 2666.985
1078.219, 2666.288
1078.701, 2670.059
1079.183, 2691.882
1079.665, 2705.827
1080.147, 2692.964
1080.630, 2661.102
1081.112, 2661.696
1081.594, 2693.457
1082.076, 2715.744
1082.558, 2707.565
1083.040, 2695.152
1083.522, 2704.338
1084.004, 2722.484
1084.486, 2732.889
1084.969, 2734.308
1085.451, 2724.713
1085.933, 2699.920
1086.415, 2680.176
1086.897, 2688.313
1087.379, 2708.208
1087.861, 2707.997
1088.343, 2692.808
1088.826, 2686.820
1089.308, 2710.982
1089.790, 2728.585
1090.272, 2731.167
1090.754, 2726.656
1091.236, 2728.447
1091.718, 2734.322
1092.200, 2732.502
1092.682, 2720.633
1093.165, 2710.307
1093.647, 2710.961
1094.129, 2713.531
1094.611, 2711.685
1095.093, 2706.310
1095.575, 2704.318
1096.057, 2705.787
1096.539, 2708.786
1097.022, 2712.867
1097.504, 2717.538
1097.986, 2724.099
1098.468, 2730.142
1098.950, 2731.838
1099.432, 2725.968
1099.914, 2723.077
1100.396, 2723.718
1100.879, 2725.690
1101.361, 2729.328
1101.843, 2732.336
1102.325, 2726.393
1102.807, 2715.176
1103.289, 2712.501
1103.771, 2735.316
1104.253, 2750.960
1104.735, 2752.424
1105.218, 2746.775
1105.700, 2740.936
1106.182, 2736.166
1106.664, 2741.752
1107.146, 2758.976
1107.628, 2770.854
1108.110, 2757.711
1108.592, 2745.883
1109.074, 2756.079
1109.557, 2779.641
1110.039, 2777.054
1110.521, 2747.862
1111.003, 2727.308
1111.485, 2727.442
1111.967, 2734.469
1112.449, 2738.933
1112.931, 2741.154
1113.414, 2740.381
1113.896, 2734.920
1114.378, 2736.681
1114.860, 2747.410
1115.342, 2757.829
1115.824, 2763.897
1116.306, 2765.497
1116.788, 2756.127
1117.271, 2742.901
1117.753, 2741.646
1118.235, 2773.490
1118.717, 2793.117
1119.199, 2794.657
1119.681, 2789.609
1120.163, 2790.536
1120.645, 2793.853
1121.127, 2784.092
1121.609, 2763.048
1122.092, 2753.358
1122.574, 2781.357
1123.056, 2804.598
1123.538, 2809.699
1124.020, 2801.688
1124.502, 2784.644
1124.984, 2761.068
1125.466, 2754.348
1125.949, 2770.290
1126.431, 2789.931
1126.913, 2808.661
1127.395, 2818.650
1127.877, 2808.733
1128.359, 2782.842
1128.841, 2769.983
1129.323, 2770.446
1129.806, 2780.196
1130.288, 2801.970
1130.770, 2823.248
1131.252, 2834.449
1131.734, 2835.915
1132.216, 2825.136
1132.698, 2794.276
1133.180, 2781.759
1133.662, 2791.020
1134.145, 2804.561
1134.627, 2813.318
1135.109, 2818.190
1135.591, 2816.496
1136.073, 2812.208
1136.555, 2815.427
1137.037, 2840.429
1137.519, 2856.040
1138.001, 2859.771
1138.484, 2855.215
1138.966, 2839.494
1139.448, 2820.025
1139.930, 2817.298
1140.412, 2830.765
1140.894, 2845.037
1141.376, 2861.815
1141.858, 2867.062
1142.341, 2851.600
1142.823, 2829.408
1143.305, 2828.408
1143.787, 2843.777
1144.269, 2853.612
1144.751, 2853.907
1145.233, 2852.536
1145.715, 2851.721
1146.198, 2853.081
1146.680, 2859.880
1147.162, 2869.242
1147.644, 2863.606
1148.126, 2844.571
1148.608, 2834.780
1149.090, 2844.203
1149.572, 2856.904
1150.054, 2862.839
1150.536, 2864.824
1151.019, 2863.254
1151.501, 2857.022
1151.983, 2870.612
1152.465, 2905.397
1152.947, 2927.364
1153.429, 2906.564
1153.911, 2877.822
1154.393, 2879.073
1154.876, 2894.010
1155.358, 2891.733
1155.840, 2857.108
1156.322, 2849.970
1156.804, 2876.800
1157.286, 2901.479
1157.768, 2886.505
1158.250, 2858.535
1158.733, 2853.486
1159.215, 2865.418
1159.697, 2867.189
1160.179, 2844.260
1160.661, 2834.708
1161.143, 2844.981
1161.625, 2863.744
1162.107, 2884.677
1162.589, 2902.165
1163.072, 2903.544
1163.554, 2889.082
1164.036, 2877.333
1164.518, 2873.557
1165.000, 2871.142
1165.482, 2866.514
1165.964, 2865.862
1166.446, 2889.358
1166.928, 2923.453
1167.411, 2934.324
1167.893, 2911.680
1168.375, 2896.301
1168.857, 2913.543
1169.339, 2924.425
1169.821, 2909.468
1170.303, 2881.197
1170.785, 2878.609
1171.268, 2894.336
1171.750, 2903.465
1172.232, 2894.684
1172.714, 2887.445
1173.196, 2891.780
1173.678, 2897.897
1174.160, 2899.939
1174.642, 2898.654
1175.125, 2895.686
1175.607, 2892.742
1176.089, 2899.568
1176.571, 2932.785
1177.053, 2960.913
1177.535, 2972.339
1178.017, 2969.977
1178.499, 2949.852
1178.981, 2912.278
1179.464, 2902.621
1179.946, 2919.555
1180.428, 2935.003
1180.910, 2929.656
1181.392, 2919.882
1181.874, 2911.508
1182.356, 2905.667
1182.838, 2904.785
1183.320, 2909.098
1183.803, 2911.254
1184.285, 2910.673
1184.767, 2907.759
1185.249, 2894.125
1185.731, 2886.505
1186.213, 2906.232
1186.695, 2939.878
1187.177, 2946.500
1187.660, 2923.589
1188.142, 2913.171
1188.624, 2923.043
1189.106, 2938.476
1189.588, 2955.453
1190.070, 2965.220
1190.552, 2952.442
1191.034, 2922.817
1191.516, 2919.697
1191.999, 2946.679
1192.481, 2965.730
1192.963, 2966.502
1193.445, 2959.955
1193.927, 2949.896
1194.409, 2942.899
1194.891, 2949.810
1195.373, 2971.502
1195.855, 2975.076
1196.338, 2957.867
1196.820, 2946.345
1197.302, 2953.428
1197.784, 2965.064
1198.266, 2963.167
1198.748, 2958.145
1199.230, 2965.987
1199.712, 2992.348
1200.195, 3001.641
1200.677, 2991.787
1201.159, 2979.078
1201.641, 2969.178
1202.123, 2964.669
1202.605, 2972.193
1203.087, 2985.908
1203.569, 2997.229
1204.052, 3009.140
1204.534, 3002.967
1205.016, 2974.258
1205.498, 2953.878
1205.980, 2974.353
1206.462, 3005.412
1206.944, 3011.708
1207.426, 3001.527
1207.908, 2993.050
1208.391, 2984.719
1208.873, 2990.981
1209.355, 3016.093
1209.837, 3036.383
1210.319, 3022.312
1210.801, 2999.668
1211.283, 3000.875
1211.765, 3019.310
1212.247, 3028.063
1212.730, 3020.991
1213.212, 3017.535
1213.694, 3020.075
1214.176, 3024.568
1214.658, 3028.939
1215.140, 3031.821
1215.622, 3028.418
1216.104, 3021.113
1216.587, 3025.567
1217.069, 3049.177
1217.551, 3059.432
1218.033, 3048.353
1218.515, 3034.596
1218.997, 3040.811
1219.479, 3054.547
1219.961, 3061.803
1220.443, 3061.824
1220.926, 3064.520
1221.408, 3073.119
1221.890, 3071.371
1222.372, 3052.548
1222.854, 3032.570
1223.336, 3032.575
1223.818, 3040.784
1224.300, 3041.804
1224.782, 3033.811
1225.265, 3039.762
1225.747, 3063.406
1226.229, 3084.265
1226.711, 3097.963
1227.193, 3101.132
1227.675, 3076.482
1228.157, 3046.716
1228.639, 3042.180
1229.122, 3068.947
1229.604, 3086.245
1230.086, 3093.594
1230.568, 3095.128
1231.050, 3091.651
1231.532, 3084.704
1232.014, 3071.195
1232.496, 3057.999
1232.979, 3055.007
1233.461, 3064.278
1233.943, 3067.959
1234.425, 3065.239
1234.907, 3064.992
1235.389, 3073.303
1235.871, 3082.785
1236.353, 3081.644
1236.835, 3079.854
1237.318, 3093.625
1237.800, 3127.199
1238.282, 3142.426
1238.764, 3138.266
1239.246, 3134.999
1239.728, 3148.817
1240.210, 3161.707
1240.692, 3156.743
1241.175, 3142.257
1241.657, 3128.680
1242.139, 3115.038
1242.621, 3111.279
1243.103, 3117.445
1243.585, 3127.031
1244.067, 3143.014
1244.549, 3153.650
1245.031, 3144.479
1245.514, 3128.726
1245.996, 3125.079
1246.478, 3134.556
1246.960, 3144.174
1247.442, 3153.685
1247.924, 3162.991
1248.406, 3175.674
1248.888, 3183.925
1249.370, 3179.529
1249.853, 3170.351
1250.335, 3166.890
1250.817, 3168.938
1251.299, 3166.802
1251.781, 3160.812
1252.263, 3161.598
1252.745, 3187.926
1253.227, 3207.952
1253.710, 3203.542
1254.192, 3188.372
1254.674, 3175.684
1255.156, 3166.408
1255.638, 3172.447
1256.120, 3192.419
1256.602, 3202.797
1257.084, 3174.390
1257.567, 3155.783
1258.049, 3167.856
1258.531, 3189.770
1259.013, 3187.810
1259.495, 3171.231
1259.977, 3176.709
1260.459, 3205.085
1260.941, 3232.489
1261.423, 3256.131
1261.906, 3264.333
1262.388, 3250.310
1262.870, 3227.781
1263.352, 3214.106
1263.834, 3208.032
1264.316, 3207.698
1264.798, 3212.699
1265.280, 3220.814
1265.762, 3238.571
1266.245, 3246.385
1266.727, 3237.687
1267.209, 3225.077
1267.691, 3226.235
1268.173, 3235.084
1268.655, 3243.225
1269.137, 3249.625
1269.619, 3250.400
1270.102, 3241.642
1270.584, 3237.970
1271.066, 3243.022
1271.548, 3252.051
1272.030, 3262.329
1272.512, 3270.859
1272.994, 3274.449
1273.476, 3272.389
1273.958, 3262.469
1274.441, 3240.396
1274.923, 3234.110
1275.405, 3252.682
1275.887, 3275.243
1276.369, 3281.279
1276.851, 3279.860
1277.333, 3276.473
1277.815, 3272.943
1278.297, 3279.409
1278.780, 3296.795
1279.262, 3300.962
1279.744, 3283.915
1280.226, 3268.142
1280.708, 3279.276
1281.190, 3291.388
1281.672, 3281.026
1282.154, 3256.997
1282.637, 3252.974
1283.119, 3266.979
1283.601, 3281.634
1284.083, 3294.306
1284.565, 3300.286
1285.047, 3290.034
1285.529, 3279.482
1286.011, 3274.926
1286.494, 3276.758
1286.976, 3289.446
1287.458, 3309.477
1287.940, 3325.413
1288.422, 3335.007
1288.904, 3339.680
1289.386, 3341.474
1289.868, 3334.472
1290.350, 3311.414
1290.833, 3285.915
1291.315, 3291.547
1291.797, 3313.297
1292.279, 3319.870
1292.761, 3303.234
1293.243, 3293.050
1293.725, 3292.711
1294.207, 3299.102
1294.689, 3312.933
1295.172, 3328.938
1295.654, 3340.528
1296.136, 3348.948
1296.618, 3358.048
1297.100, 3368.632
1297.582, 3360.727
1298.064, 3330.385
1298.546, 3306.486
1299.029, 3297.976
1299.511, 3299.133
1299.993, 3310.560
1300.475, 3323.861
1300.957, 3329.696
1301.439, 3329.191
1301.921, 3331.143
##END=



