##NAMES=Luzonite
##RRUFFID=R060390
##IDEAL CHEMISTRY=Cu_3_AsS^2-^_4_
##LOCALITY=Bern-Shan Pit, Chinkuashi mine, Taipei, Taiwan, Republic of China
##OWNER=RRUFF
##SOURCE=Michael Scott
##DESCRIPTION=Black coarse massive with two directions of obvious cleavage
##STATUS=The identification of this mineral is confirmed by single-crystal X-ray diffraction and chemical analysis.
##URL=rruff.info/R060390
##MEASURED CHEMISTRY=Cu_3.01_(As_0.85_Sb_0.15_)_Î£=1.00_S_4_
103.1040, 38.64306
103.5861, 40.71085
104.0682, 43.21360
104.5504, 44.28851
105.0325, 43.67588
105.5146, 42.42999
105.9967, 42.04826
106.4788, 43.14968
106.9609, 43.46752
107.4431, 42.10449
107.9252, 40.08685
108.4073, 38.97834
108.8894, 39.51837
109.3715, 40.59699
109.8536, 40.05564
110.3358, 37.50657
110.8179, 35.31252
111.3000, 34.95412
111.7821, 36.26357
112.2642, 37.64696
112.7463, 38.73792
113.2285, 39.45776
113.7106, 39.73391
114.1927, 39.52575
114.6748, 38.93402
115.1569, 38.00176
115.6390, 36.51490
116.1212, 35.22094
116.6033, 34.05359
117.0854, 33.24383
117.5675, 33.16035
118.0496, 34.07899
118.5317, 35.71661
119.0139, 36.69519
119.4960, 36.06483
119.9781, 35.74005
120.4602, 36.66083
120.9423, 38.12379
121.4244, 38.79173
121.9066, 37.49943
122.3887, 34.00975
122.8708, 31.92900
123.3529, 31.55236
123.8350, 31.91343
124.3171, 32.96653
124.7993, 34.52691
125.2814, 35.96119
125.7635, 36.62186
126.2456, 36.31236
126.7277, 35.92920
127.2098, 35.28119
127.6920, 34.65533
128.1741, 34.52539
128.6562, 35.10108
129.1383, 35.61045
129.6204, 34.63337
130.1025, 32.33504
130.5847, 30.71981
131.0668, 31.03360
131.5489, 32.76593
132.0310, 34.12025
132.5131, 34.54608
132.9952, 34.67289
133.4774, 35.14191
133.9595, 35.95980
134.4416, 36.68882
134.9237, 36.95216
135.4058, 36.72048
135.8879, 36.22748
136.3701, 34.86005
136.8522, 33.66057
137.3343, 33.42121
137.8164, 34.30788
138.2985, 35.63809
138.7806, 36.24232
139.2628, 35.71189
139.7449, 35.13391
140.2270, 34.35486
140.7091, 33.70110
141.1912, 33.56517
141.6733, 34.12212
142.1555, 35.11020
142.6376, 35.62243
143.1197, 35.37975
143.6018, 34.92682
144.0839, 34.14668
144.5660, 33.20631
145.0482, 32.29738
145.5303, 31.49291
146.0124, 30.85114
146.4945, 30.80455
146.9766, 32.07152
147.4587, 33.09583
147.9409, 33.01152
148.4230, 32.01205
148.9051, 31.00826
149.3872, 30.52114
149.8693, 30.61352
150.3514, 31.08976
150.8336, 32.59105
151.3157, 34.08200
151.7978, 34.42802
152.2799, 33.45350
152.7620, 32.45685
153.2441, 32.83858
153.7263, 33.87074
154.2084, 34.28994
154.6905, 33.39205
155.1726, 31.63953
155.6547, 29.87331
156.1368, 27.68294
156.6190, 26.33447
157.1011, 26.60927
157.5832, 28.06528
158.0653, 29.93039
158.5474, 32.19738
159.0295, 34.72517
159.5117, 35.55057
159.9938, 32.60960
160.4759, 29.89611
160.9580, 28.99900
161.4401, 29.57927
161.9222, 30.51068
162.4044, 30.78257
162.8865, 30.25599
163.3686, 29.88026
163.8507, 29.59293
164.3328, 29.48878
164.8149, 29.83724
165.2971, 30.51986
165.7792, 31.02280
166.2613, 30.63218
166.7434, 28.61415
167.2255, 27.95841
167.7076, 30.14553
168.1898, 32.49186
168.6719, 32.77449
169.1540, 30.65850
169.6361, 27.85511
170.1182, 26.84397
170.6003, 28.69910
171.0825, 29.68599
171.5646, 28.73961
172.0467, 27.19454
172.5288, 26.65634
173.0109, 27.64165
173.4930, 29.31977
173.9752, 30.40441
174.4573, 30.89843
174.9394, 31.21082
175.4215, 31.64144
175.9036, 31.97671
176.3857, 31.57513
176.8679, 29.86046
177.3500, 27.95964
177.8321, 27.44882
178.3142, 28.40507
178.7963, 29.51116
179.2784, 30.06276
179.7606, 30.10072
180.2427, 29.87358
180.7248, 29.09991
181.2069, 28.39422
181.6890, 28.43639
182.1711, 29.30641
182.6533, 30.17092
183.1354, 30.22512
183.6175, 29.39744
184.0996, 28.32712
184.5817, 26.37735
185.0638, 24.71087
185.5460, 24.02066
186.0281, 24.45815
186.5102, 25.77649
186.9923, 27.82850
187.4744, 31.06719
187.9565, 33.82165
188.4387, 36.66997
188.9208, 38.59190
189.4029, 38.33300
189.8850, 35.62535
190.3671, 31.87495
190.8492, 29.82331
191.3314, 31.16705
191.8135, 31.51768
192.2956, 29.83352
192.7777, 27.55115
193.2598, 25.81132
193.7419, 25.08211
194.2241, 25.23033
194.7062, 25.93568
195.1883, 27.89512
195.6704, 29.65921
196.1525, 31.71447
196.6346, 33.38737
197.1168, 33.57066
197.5989, 31.71859
198.0810, 28.76984
198.5631, 27.49881
199.0452, 29.51110
199.5273, 30.95690
200.0095, 30.82695
200.4916, 29.79568
200.9737, 28.94538
201.4558, 28.75187
201.9379, 29.03479
202.4200, 29.28937
202.9022, 29.48363
203.3843, 29.70634
203.8664, 30.21148
204.3485, 30.80255
204.8306, 30.92703
205.3127, 30.31748
205.7949, 29.09536
206.2770, 27.50647
206.7591, 25.13307
207.2412, 23.26671
207.7233, 22.84320
208.2054, 23.68427
208.6876, 24.70948
209.1697, 25.50023
209.6518, 26.26551
210.1339, 27.52006
210.6160, 29.66731
211.0981, 31.17551
211.5803, 29.99902
212.0624, 26.12777
212.5445, 23.64805
213.0266, 25.30000
213.5087, 28.27909
213.9908, 30.01172
214.4730, 30.03495
214.9551, 29.29554
215.4372, 28.66714
215.9193, 28.12878
216.4014, 27.81880
216.8836, 28.04598
217.3657, 28.37175
217.8478, 28.37172
218.3299, 27.93220
218.8120, 27.60668
219.2941, 28.45850
219.7763, 31.18048
220.2584, 32.74804
220.7405, 31.86341
221.2226, 30.18818
221.7047, 28.55196
222.1868, 27.22861
222.6690, 26.46510
223.1511, 26.88021
223.6332, 29.41145
224.1153, 30.95765
224.5974, 30.78972
225.0795, 29.98092
225.5617, 29.08278
226.0438, 28.31540
226.5259, 27.84952
227.0080, 28.08723
227.4901, 29.80661
227.9722, 30.78187
228.4544, 30.60994
228.9365, 29.98716
229.4186, 29.39154
229.9007, 28.97722
230.3828, 28.64996
230.8649, 28.22719
231.3471, 27.36344
231.8292, 27.00468
232.3113, 27.50982
232.7934, 28.26243
233.2755, 28.78967
233.7576, 28.95123
234.2398, 28.87499
234.7219, 28.74152
235.2040, 28.25340
235.6861, 28.30929
236.1682, 29.47407
236.6503, 30.86601
237.1325, 31.71769
237.6146, 31.82032
238.0967, 31.39791
238.5788, 30.67295
239.0609, 29.14428
239.5430, 28.61359
240.0252, 29.96107
240.5073, 31.93619
240.9894, 33.39782
241.4715, 34.07799
241.9536, 34.16082
242.4357, 33.75874
242.9179, 32.69995
243.4000, 31.93789
243.8821, 31.61958
244.3642, 31.61631
244.8463, 31.86028
245.3284, 32.35030
245.8106, 32.92001
246.2927, 33.56826
246.7748, 34.34393
247.2569, 34.21471
247.7390, 31.97348
248.2211, 29.19686
248.7033, 27.93844
249.1854, 28.62271
249.6675, 29.86651
250.1496, 30.33763
250.6317, 30.14963
251.1138, 29.96170
251.5960, 29.73002
252.0781, 29.64399
252.5602, 30.09916
253.0423, 31.23251
253.5244, 32.30688
254.0065, 32.48515
254.4887, 32.06054
254.9708, 31.81715
255.4529, 32.11535
255.9350, 32.63641
256.4171, 33.06270
256.8992, 33.46505
257.3813, 33.40317
257.8635, 31.66481
258.3456, 29.29526
258.8277, 28.18905
259.3098, 29.60259
259.7919, 32.14762
260.2740, 34.00566
260.7562, 35.18071
261.2383, 35.64675
261.7204, 34.85078
262.2025, 33.45401
262.6846, 32.16580
263.1667, 31.05182
263.6489, 30.29898
264.1310, 30.24575
264.6131, 31.00572
265.0952, 31.97422
265.5773, 33.44543
266.0594, 34.75867
266.5416, 35.11695
267.0237, 34.11653
267.5058, 32.61098
267.9879, 31.71253
268.4700, 31.51367
268.9521, 31.51065
269.4343, 31.66024
269.9164, 31.87831
270.3985, 32.02731
270.8806, 32.04749
271.3627, 32.25966
271.8448, 33.47945
272.3270, 36.17305
272.8091, 37.45547
273.2912, 34.93369
273.7733, 31.81971
274.2554, 30.01447
274.7375, 29.84073
275.2197, 30.48677
275.7018, 31.27682
276.1839, 32.31143
276.6660, 32.81409
277.1481, 32.09175
277.6302, 31.20608
278.1124, 30.58492
278.5945, 30.29447
279.0766, 30.27772
279.5587, 30.60758
280.0408, 31.35809
280.5229, 31.79158
281.0051, 31.51941
281.4872, 31.21357
281.9693, 30.91102
282.4514, 30.76475
282.9335, 31.17253
283.4156, 32.92295
283.8978, 36.08154
284.3799, 37.46413
284.8620, 35.33059
285.3441, 33.03732
285.8262, 31.36774
286.3083, 30.43280
286.7905, 30.30966
287.2726, 31.24471
287.7547, 33.08414
288.2368, 34.33105
288.7189, 34.75167
289.2010, 34.77505
289.6832, 34.29313
290.1653, 33.55459
290.6474, 32.82340
291.1295, 32.18642
291.6116, 31.78198
292.0938, 32.28267
292.5759, 34.77744
293.0580, 36.60882
293.5401, 36.91286
294.0222, 36.47900
294.5043, 36.15539
294.9865, 36.31869
295.4686, 36.80795
295.9507, 37.23980
296.4328, 37.57212
296.9149, 37.91951
297.3970, 38.29321
297.8792, 38.68629
298.3613, 39.00611
298.8434, 39.24776
299.3255, 39.62698
299.8076, 40.64387
300.2897, 42.97631
300.7719, 44.36741
301.2540, 43.93696
301.7361, 43.25375
302.2182, 43.24444
302.7003, 44.08758
303.1824, 45.45229
303.6646, 47.09367
304.1467, 49.27623
304.6288, 50.72361
305.1109, 50.69563
305.5930, 50.63306
306.0751, 51.30683
306.5573, 52.61422
307.0394, 53.91286
307.5215, 54.56361
308.0036, 54.50008
308.4857, 54.82313
308.9678, 56.18929
309.4500, 57.30877
309.9321, 57.52018
310.4142, 57.20166
310.8963, 57.18830
311.3784, 58.10630
311.8605, 59.79388
312.3427, 60.95042
312.8248, 61.03997
313.3069, 61.19748
313.7890, 61.80177
314.2711, 62.54467
314.7532, 63.07368
315.2354, 63.22179
315.7175, 62.96637
316.1996, 62.17497
316.6817, 60.19856
317.1638, 58.71844
317.6459, 57.95464
318.1281, 57.68160
318.6102, 57.86964
319.0923, 58.46238
319.5744, 59.10632
320.0565, 59.28265
320.5386, 59.13563
321.0208, 58.10620
321.5029, 55.56706
321.9850, 52.74387
322.4671, 50.22023
322.9492, 48.14782
323.4313, 46.54143
323.9135, 45.57312
324.3956, 45.52830
324.8777, 44.64831
325.3598, 42.07190
325.8419, 39.45396
326.3240, 37.11719
326.8062, 35.24207
327.2883, 34.06633
327.7704, 33.88461
328.2525, 34.62970
328.7346, 35.09025
329.2167, 35.30162
329.6989, 35.13747
330.1810, 34.39833
330.6631, 33.31256
331.1452, 32.17508
331.6273, 31.12569
332.1094, 30.18649
332.5916, 29.39929
333.0737, 28.60124
333.5558, 28.28706
334.0379, 29.00067
334.5200, 29.91913
335.0021, 30.16890
335.4843, 29.48525
335.9664, 28.46416
336.4485, 28.15335
336.9306, 28.93796
337.4127, 29.27419
337.8948, 28.29085
338.3770, 27.38472
338.8591, 27.55193
339.3412, 28.77626
339.8233, 30.17833
340.3055, 30.89014
340.7876, 30.85211
341.2697, 30.70053
341.7518, 30.45570
342.2339, 30.05905
342.7160, 29.25466
343.1982, 28.26675
343.6803, 27.61842
344.1624, 27.76602
344.6445, 28.52105
345.1266, 28.88690
345.6087, 28.45392
346.0909, 28.31074
346.5730, 29.08848
347.0551, 30.22203
347.5372, 30.94406
348.0193, 30.88644
348.5014, 30.50247
348.9836, 30.80240
349.4657, 32.21608
349.9478, 32.85423
350.4299, 31.38429
350.9120, 29.46374
351.3941, 28.30999
351.8763, 28.14622
352.3584, 28.28824
352.8405, 28.04510
353.3226, 27.40324
353.8047, 26.80561
354.2868, 26.03082
354.7690, 25.64025
355.2511, 26.23721
355.7332, 27.59501
356.2153, 28.75212
356.6974, 28.84005
357.1795, 28.18573
357.6617, 28.13259
358.1438, 28.96836
358.6259, 29.83844
359.1080, 30.42027
359.5901, 30.69199
360.0722, 30.48424
360.5544, 29.28688
361.0365, 28.10609
361.5186, 28.79238
362.0007, 31.67295
362.4828, 33.78683
362.9649, 33.38074
363.4471, 31.85771
363.9292, 30.72210
364.4113, 30.11267
364.8934, 29.93971
365.3755, 30.38655
365.8576, 31.30972
366.3398, 31.90672
366.8219, 31.93921
367.3040, 31.66195
367.7861, 31.42097
368.2682, 31.19833
368.7503, 30.64541
369.2325, 29.36981
369.7146, 27.74530
370.1967, 26.18160
370.6788, 24.58724
371.1609, 23.87959
371.6430, 25.67245
372.1252, 29.00656
372.6073, 30.61838
373.0894, 28.22665
373.5715, 25.44923
374.0536, 25.54504
374.5357, 28.04497
375.0179, 30.16479
375.5000, 30.54725
375.9821, 29.69009
376.4642, 28.72950
376.9463, 27.38749
377.4284, 26.56962
377.9106, 27.21942
378.3927, 28.48442
378.8748, 28.67054
379.3569, 27.22266
379.8390, 25.47799
380.3211, 25.30697
380.8033, 27.10595
381.2854, 28.15414
381.7675, 27.82561
382.2496, 26.98952
382.7317, 26.14809
383.2138, 25.40363
383.6960, 24.88821
384.1781, 24.69945
384.6602, 24.83356
385.1423, 25.19976
385.6244, 26.31580
386.1065, 27.04834
386.5887, 26.87601
387.0708, 26.09524
387.5529, 25.08911
388.0350, 23.99870
388.5171, 23.05743
388.9992, 22.78519
389.4814, 23.75088
389.9635, 24.56191
390.4456, 25.09598
390.9277, 25.55960
391.4098, 26.29127
391.8919, 27.23583
392.3741, 27.84929
392.8562, 27.46149
393.3383, 25.85237
393.8204, 24.93140
394.3025, 25.32175
394.7846, 25.70167
395.2668, 25.56967
395.7489, 25.10330
396.2310, 24.69037
396.7131, 24.55704
397.1952, 24.63370
397.6773, 24.70605
398.1595, 24.97978
398.6416, 24.87756
399.1237, 23.83967
399.6058, 22.73606
400.0879, 22.37585
400.5700, 22.91579
401.0522, 23.81288
401.5343, 24.30780
402.0164, 24.22237
402.4985, 24.81483
402.9806, 27.13893
403.4627, 29.19499
403.9449, 30.21674
404.4270, 30.27356
404.9091, 29.62734
405.3912, 28.11884
405.8733, 26.18196
406.3554, 25.24209
406.8376, 25.58320
407.3197, 26.21076
407.8018, 27.19992
408.2839, 28.05439
408.7660, 28.09498
409.2481, 27.04143
409.7303, 25.83021
410.2124, 25.49463
410.6945, 25.97141
411.1766, 26.20970
411.6587, 25.75216
412.1408, 25.30640
412.6230, 25.86135
413.1051, 27.21954
413.5872, 27.83385
414.0693, 26.54764
414.5514, 24.30717
415.0335, 22.35855
415.5157, 20.71296
415.9978, 20.05028
416.4799, 21.41114
416.9620, 24.03115
417.4441, 25.46886
417.9262, 24.99088
418.4084, 24.17916
418.8905, 23.57080
419.3726, 23.30641
419.8547, 24.10762
420.3368, 26.53585
420.8189, 29.05076
421.3011, 28.81417
421.7832, 24.96396
422.2653, 22.21088
422.7474, 21.52998
423.2295, 21.82598
423.7116, 22.52722
424.1938, 23.40837
424.6759, 23.85571
425.1580, 23.26965
425.6401, 21.74486
426.1222, 21.04976
426.6043, 21.65552
427.0865, 22.40264
427.5686, 23.23968
428.0507, 23.97473
428.5328, 24.28771
429.0149, 24.06721
429.4970, 23.63063
429.9792, 23.54310
430.4613, 23.99217
430.9434, 24.39535
431.4255, 24.62272
431.9076, 24.92438
432.3897, 25.71638
432.8719, 26.76678
433.3540, 27.29532
433.8361, 26.52697
434.3182, 24.73692
434.8003, 23.96567
435.2824, 24.88250
435.7646, 25.84438
436.2467, 26.59676
436.7288, 27.10631
437.2109, 27.24862
437.6930, 26.98008
438.1751, 26.64098
438.6573, 26.68298
439.1394, 27.13470
439.6215, 27.61871
440.1036, 28.48322
440.5857, 28.88992
441.0678, 28.06174
441.5500, 26.28981
442.0321, 24.68426
442.5142, 23.77391
442.9963, 23.39051
443.4784, 23.23293
443.9605, 23.29605
444.4427, 23.66514
444.9248, 24.77099
445.4069, 26.00587
445.8890, 26.19996
446.3711, 24.83505
446.8532, 23.75058
447.3354, 24.50143
447.8175, 26.20414
448.2996, 26.88702
448.7817, 26.05987
449.2638, 24.49878
449.7459, 22.76305
450.2281, 20.83552
450.7102, 19.84544
451.1923, 20.17504
451.6744, 21.15035
452.1565, 22.92438
452.6386, 25.05989
453.1208, 26.29274
453.6029, 25.88846
454.0850, 24.43782
454.5671, 23.57390
455.0492, 23.55482
455.5313, 23.83043
456.0135, 24.95467
456.4956, 25.99514
456.9777, 25.96004
457.4598, 24.89137
457.9419, 23.82002
458.4240, 23.78918
458.9062, 24.82021
459.3883, 25.38100
459.8704, 25.01985
460.3525, 24.67132
460.8346, 24.38900
461.3167, 24.28769
461.7989, 24.50608
462.2810, 25.09966
462.7631, 25.96652
463.2452, 27.30991
463.7273, 29.47565
464.2094, 29.98493
464.6916, 26.75632
465.1737, 23.43888
465.6558, 22.32768
466.1379, 23.01826
466.6200, 23.70998
467.1021, 23.19051
467.5843, 22.14329
468.0664, 21.96356
468.5485, 22.73157
469.0306, 23.84626
469.5127, 25.60105
469.9948, 27.18802
470.4770, 27.29428
470.9591, 25.54513
471.4412, 23.56790
471.9233, 21.76003
472.4054, 20.37152
472.8875, 20.05252
473.3697, 20.96258
473.8518, 22.25049
474.3339, 23.25201
474.8160, 23.93968
475.2981, 24.33141
475.7802, 24.61664
476.2624, 24.42009
476.7445, 23.05682
477.2266, 21.17104
477.7087, 19.97898
478.1908, 19.95748
478.6729, 20.70235
479.1551, 21.51101
479.6372, 22.44526
480.1193, 23.30222
480.6014, 24.26382
481.0835, 25.00278
481.5656, 25.19310
482.0478, 24.98987
482.5299, 24.84724
483.0120, 25.09631
483.4941, 25.56867
483.9762, 25.58496
484.4583, 24.87444
484.9405, 24.25665
485.4226, 23.97726
485.9047, 23.78519
486.3868, 23.42438
486.8689, 22.88968
487.3510, 22.49616
487.8332, 22.59418
488.3153, 23.08207
488.7974, 23.43715
489.2795, 23.55371
489.7616, 23.75351
490.2437, 24.48662
490.7259, 25.37180
491.2080, 25.77646
491.6901, 25.40367
492.1722, 24.89435
492.6543, 24.68945
493.1364, 24.71457
493.6186, 24.79563
494.1007, 24.91979
494.5828, 24.94370
495.0649, 24.60426
495.5470, 23.84316
496.0291, 23.52207
496.5113, 23.98361
496.9934, 24.59780
497.4755, 25.07184
497.9576, 25.40084
498.4397, 25.68049
498.9218, 25.96855
499.4040, 26.10699
499.8861, 25.66068
500.3682, 23.68777
500.8503, 22.92054
501.3324, 24.47504
501.8145, 26.13534
502.2967, 26.57116
502.7788, 25.86529
503.2609, 24.72170
503.7430, 23.49343
504.2251, 22.35847
504.7072, 22.19809
505.1894, 23.75868
505.6715, 24.56916
506.1536, 23.20508
506.6357, 21.38480
507.1178, 20.40414
507.5999, 20.42589
508.0821, 20.85020
508.5642, 21.27963
509.0463, 21.76805
509.5284, 22.65274
510.0105, 24.14070
510.4926, 25.13685
510.9748, 24.38750
511.4569, 22.81522
511.9390, 22.69757
512.4211, 25.13670
512.9032, 27.22858
513.3853, 27.15903
513.8674, 25.89604
514.3495, 25.12258
514.8317, 25.20904
515.3138, 25.48546
515.7959, 25.25332
516.2780, 24.46218
516.7601, 23.90433
517.2422, 23.40278
517.7244, 23.28653
518.2065, 24.13567
518.6886, 25.28307
519.1707, 25.71613
519.6528, 25.09641
520.1349, 23.99499
520.6171, 23.27816
521.0992, 23.06019
521.5813, 22.75727
522.0634, 21.91591
522.5455, 21.45981
523.0276, 21.98553
523.5098, 23.10323
523.9919, 24.14856
524.4740, 24.92609
524.9561, 25.24429
525.4382, 24.48732
525.9203, 22.62845
526.4025, 21.56647
526.8846, 22.17991
527.3667, 23.15111
527.8488, 22.99795
528.3309, 21.93668
528.8130, 21.40435
529.2952, 22.53587
529.7773, 23.82694
530.2594, 23.48257
530.7415, 21.91734
531.2236, 21.26950
531.7057, 22.66514
532.1879, 24.94063
532.6700, 25.80327
533.1521, 24.30642
533.6342, 23.53024
534.1163, 24.07308
534.5984, 24.88783
535.0806, 25.33942
535.5627, 25.46024
536.0448, 25.65095
536.5269, 26.21277
537.0090, 26.78433
537.4911, 26.09077
537.9733, 23.09890
538.4554, 21.11807
538.9375, 20.82803
539.4196, 21.36325
539.9017, 22.68825
540.3839, 24.48677
540.8660, 25.78126
541.3481, 25.68257
541.8302, 24.80568
542.3123, 24.67265
542.7944, 25.42140
543.2766, 25.64548
543.7587, 24.32724
544.2408, 22.59169
544.7229, 22.24360
545.2050, 23.48202
545.6871, 24.26074
546.1693, 23.40586
546.6514, 22.03776
547.1335, 21.29338
547.6156, 21.23543
548.0977, 21.53397
548.5798, 22.00348
549.0620, 22.66508
549.5441, 23.58498
550.0262, 25.81971
550.5083, 26.84897
550.9904, 25.71598
551.4725, 24.08899
551.9547, 23.02973
552.4368, 22.67381
552.9189, 22.83093
553.4010, 23.47360
553.8831, 24.39327
554.3652, 24.73690
554.8474, 24.39829
555.3295, 23.74697
555.8116, 21.91914
556.2937, 20.48200
556.7758, 21.09682
557.2579, 23.64962
557.7401, 25.75443
558.2222, 25.70606
558.7043, 24.43432
559.1864, 23.41549
559.6685, 22.69562
560.1506, 22.21520
560.6328, 21.90980
561.1149, 21.86556
561.5970, 22.41829
562.0791, 23.86585
562.5612, 24.84089
563.0433, 24.62635
563.5255, 24.18865
564.0076, 24.36884
564.4897, 25.12289
564.9718, 25.98766
565.4539, 26.70716
565.9360, 27.19199
566.4182, 27.10629
566.9003, 26.11548
567.3824, 25.16938
567.8645, 23.87805
568.3466, 23.02274
568.8287, 23.56991
569.3109, 25.09716
569.7930, 26.02937
570.2751, 25.06231
570.7572, 23.23499
571.2393, 22.91944
571.7214, 24.26078
572.2036, 25.35941
572.6857, 25.63949
573.1678, 25.38306
573.6499, 24.78895
574.1320, 23.86979
574.6141, 23.19153
575.0963, 22.64384
575.5784, 22.61286
576.0605, 24.02502
576.5426, 26.32975
577.0247, 27.59811
577.5068, 26.87200
577.9890, 25.17147
578.4711, 24.44010
578.9532, 25.29456
579.4353, 25.55372
579.9174, 24.98347
580.3995, 24.13470
580.8817, 22.83518
581.3638, 21.53086
581.8459, 21.04585
582.3280, 21.81058
582.8101, 23.21600
583.2922, 24.52078
583.7744, 25.77546
584.2565, 26.06395
584.7386, 24.86662
585.2207, 23.22558
585.7029, 21.41060
586.1850, 19.73035
586.6671, 19.07754
587.1492, 20.10259
587.6313, 21.61930
588.1135, 22.92315
588.5956, 24.04725
589.0777, 25.18680
589.5598, 26.40351
590.0419, 27.17444
590.5240, 26.79981
591.0062, 25.20193
591.4883, 24.31110
591.9704, 24.46663
592.4525, 24.82330
592.9346, 25.43220
593.4167, 26.00114
593.8989, 26.19514
594.3810, 25.95477
594.8631, 25.49532
595.3452, 24.83352
595.8273, 24.05692
596.3094, 24.37956
596.7916, 26.58459
597.2737, 28.10419
597.7558, 27.09586
598.2379, 25.19397
598.7200, 24.11047
599.2021, 24.09589
599.6843, 24.19138
600.1664, 23.60339
600.6485, 22.98309
601.1306, 23.49101
601.6127, 25.07550
602.0948, 26.51666
602.5770, 27.10643
603.0591, 27.08774
603.5412, 27.13223
604.0233, 27.47134
604.5054, 27.47314
604.9875, 26.76284
605.4697, 26.04886
605.9518, 25.80084
606.4339, 25.93551
606.9160, 26.19275
607.3981, 26.46862
607.8802, 26.59827
608.3624, 26.10750
608.8445, 24.86930
609.3266, 24.03915
609.8087, 23.93782
610.2908, 24.11239
610.7729, 24.27658
611.2551, 24.43495
611.7372, 24.60879
612.2193, 24.89682
612.7014, 25.08524
613.1835, 24.65303
613.6656, 24.06098
614.1478, 24.70091
614.6299, 26.89602
615.1120, 28.78573
615.5941, 28.28589
616.0762, 25.37932
616.5583, 23.78823
617.0405, 24.81266
617.5226, 25.51616
618.0047, 24.89652
618.4868, 24.06100
618.9689, 24.28047
619.4510, 25.61904
619.9332, 26.96563
620.4153, 27.30573
620.8974, 26.92739
621.3795, 26.93048
621.8616, 27.43718
622.3438, 27.64060
622.8259, 26.95334
623.3080, 26.07295
623.7901, 25.91675
624.2722, 26.50192
624.7543, 27.31640
625.2365, 28.71826
625.7186, 29.88675
626.2007, 29.98071
626.6828, 29.26046
627.1649, 28.54258
627.6470, 28.17170
628.1292, 27.79763
628.6113, 26.73361
629.0934, 24.58537
629.5755, 23.39426
630.0576, 23.70640
630.5397, 24.45117
631.0219, 25.84422
631.5040, 27.29223
631.9861, 27.93881
632.4682, 27.51916
632.9503, 26.80575
633.4324, 26.49908
633.9146, 26.46606
634.3967, 26.19873
634.8788, 25.60773
635.3609, 25.31743
635.8430, 25.90452
636.3251, 26.93126
636.8073, 27.01714
637.2894, 25.54772
637.7715, 24.74438
638.2536, 25.71667
638.7357, 26.83867
639.2178, 26.67738
639.7000, 25.53912
640.1821, 24.66703
640.6642, 24.75900
641.1463, 25.27228
641.6284, 24.94810
642.1105, 23.48931
642.5927, 22.83209
643.0748, 23.72440
643.5569, 24.70966
644.0390, 24.86510
644.5211, 24.54492
645.0032, 24.48188
645.4854, 24.94257
645.9675, 25.45712
646.4496, 25.76453
646.9317, 25.89502
647.4138, 25.99641
647.8959, 26.06380
648.3781, 25.65365
648.8602, 24.30337
649.3423, 22.33259
649.8244, 21.29873
650.3065, 21.68826
650.7886, 22.33740
651.2708, 23.62977
651.7529, 24.79089
652.2350, 25.24138
652.7171, 25.10468
653.1992, 24.82444
653.6813, 24.57115
654.1635, 24.44763
654.6456, 24.85130
655.1277, 25.69197
655.6098, 25.66692
656.0919, 24.21218
656.5740, 22.76787
657.0562, 22.67110
657.5383, 23.74952
658.0204, 24.47607
658.5025, 24.67327
658.9846, 24.73575
659.4667, 24.83615
659.9489, 24.81800
660.4310, 24.31504
660.9131, 23.44518
661.3952, 22.92356
661.8773, 23.36898
662.3594, 24.36769
662.8416, 24.44813
663.3237, 23.27599
663.8058, 22.42959
664.2879, 22.48927
664.7700, 22.63752
665.2521, 21.95213
665.7343, 20.82248
666.2164, 20.62923
666.6985, 22.46421
667.1806, 24.40377
667.6627, 24.88750
668.1448, 24.56565
668.6270, 24.81440
669.1091, 25.85630
669.5912, 26.71090
670.0733, 26.44743
670.5554, 25.26471
671.0375, 24.61557
671.5197, 24.97848
672.0018, 25.09823
672.4839, 24.36408
672.9660, 23.77064
673.4481, 24.28574
673.9302, 25.59068
674.4124, 26.45347
674.8945, 26.01450
675.3766, 25.23549
675.8587, 25.49667
676.3408, 26.52722
676.8229, 27.03286
677.3051, 26.69218
677.7872, 26.07685
678.2693, 25.68155
678.7514, 25.47665
679.2335, 25.11660
679.7156, 24.37985
680.1978, 23.79891
680.6799, 23.30225
681.1620, 23.09700
681.6441, 23.68928
682.1262, 24.79497
682.6083, 25.37705
683.0905, 24.68149
683.5726, 23.35248
684.0547, 22.39378
684.5368, 21.80905
685.0189, 22.26645
685.5010, 24.34637
685.9832, 26.45588
686.4653, 27.16841
686.9474, 26.72625
687.4295, 26.48550
687.9116, 26.75186
688.3937, 26.84791
688.8759, 26.75209
689.3580, 26.27889
689.8401, 24.77268
690.3222, 22.58642
690.8043, 21.17740
691.2864, 21.56040
691.7686, 23.06014
692.2507, 24.11172
692.7328, 24.67425
693.2149, 25.04476
693.6970, 25.22963
694.1791, 25.27007
694.6613, 25.21402
695.1434, 25.03695
695.6255, 24.62941
696.1076, 23.77632
696.5897, 23.09981
697.0718, 22.94830
697.5540, 23.08748
698.0361, 23.34768
698.5182, 23.64168
699.0003, 23.77088
699.4824, 23.60815
699.9645, 23.23497
700.4467, 22.76276
700.9288, 22.01340
701.4109, 21.84932
701.8930, 22.62746
702.3751, 23.63783
702.8572, 24.72634
703.3394, 25.73456
703.8215, 26.33883
704.3036, 26.37159
704.7857, 26.40920
705.2678, 27.28512
705.7499, 28.08495
706.2321, 26.96061
706.7142, 24.29422
707.1963, 22.73524
707.6784, 23.75189
708.1605, 26.05914
708.6426, 27.15680
709.1248, 26.88686
709.6069, 25.93728
710.0890, 22.93892
710.5711, 20.89596
711.0532, 21.78134
711.5353, 23.75006
712.0175, 24.15517
712.4996, 22.40768
712.9817, 20.95807
713.4638, 21.58080
713.9459, 23.24433
714.4280, 24.84521
714.9102, 26.20907
715.3923, 26.76012
715.8744, 26.19231
716.3565, 25.19944
716.8386, 24.84406
717.3207, 25.28537
717.8029, 25.21480
718.2850, 23.85607
718.7671, 22.95476
719.2492, 23.35773
719.7313, 24.10702
720.2134, 24.14136
720.6956, 23.40347
721.1777, 22.81617
721.6598, 22.96759
722.1419, 23.53457
722.6240, 24.50000
723.1061, 25.58702
723.5883, 25.36583
724.0704, 23.32158
724.5525, 21.35415
725.0346, 21.59243
725.5167, 23.96157
725.9988, 25.57253
726.4810, 26.05595
726.9631, 26.28486
727.4452, 26.54423
727.9273, 26.46220
728.4094, 25.33657
728.8915, 23.54495
729.3737, 22.51181
729.8558, 23.17756
730.3379, 24.37373
730.8200, 25.04827
731.3021, 25.24542
731.7842, 24.99140
732.2664, 24.30138
732.7485, 23.43986
733.2306, 22.45975
733.7127, 21.63594
734.1948, 22.17642
734.6769, 25.76090
735.1591, 27.62344
735.6412, 26.20162
736.1233, 24.61282
736.6054, 24.82104
737.0875, 25.90558
737.5696, 25.76213
738.0518, 23.47080
738.5339, 21.47415
739.0160, 22.34637
739.4981, 24.58972
739.9802, 25.42390
740.4623, 24.76265
740.9445, 23.71116
741.4266, 22.72499
741.9087, 22.11573
742.3908, 22.61598
742.8729, 24.79578
743.3550, 25.61054
743.8372, 23.54647
744.3193, 21.91253
744.8014, 21.92578
745.2835, 22.61914
745.7656, 22.91075
746.2477, 22.66299
746.7299, 22.48140
747.2120, 23.11676
747.6941, 23.67843
748.1762, 22.59934
748.6583, 20.55381
749.1404, 19.81474
749.6226, 21.01447
750.1047, 22.84361
750.5868, 24.03142
751.0689, 24.60503
751.5510, 24.87595
752.0331, 24.65531
752.5153, 24.49292
752.9974, 24.28542
753.4795, 24.33119
753.9616, 25.26669
754.4437, 26.64303
754.9258, 26.99855
755.4080, 25.34656
755.8901, 23.63566
756.3722, 23.22168
756.8543, 23.57003
757.3364, 24.15308
757.8185, 24.75566
758.3007, 24.70687
758.7828, 23.50015
759.2649, 22.01896
759.7470, 22.49757
760.2291, 25.69796
760.7112, 27.09910
761.1934, 25.56340
761.6755, 23.83928
762.1576, 22.98838
762.6397, 22.78810
763.1218, 23.24643
763.6039, 24.50144
764.0861, 25.11405
764.5682, 23.67519
765.0503, 22.25117
765.5324, 22.94071
766.0145, 24.74697
766.4966, 25.38884
766.9788, 24.33452
767.4609, 23.27913
767.9430, 24.20063
768.4251, 26.48545
768.9072, 26.82911
769.3893, 24.83413
769.8715, 22.90327
770.3536, 21.40321
770.8357, 20.44968
771.3178, 20.31375
771.7999, 20.87319
772.2820, 21.50794
772.7642, 22.27801
773.2463, 22.99317
773.7284, 23.54497
774.2105, 24.06533
774.6926, 25.01549
775.1747, 26.03817
775.6569, 25.91119
776.1390, 23.90998
776.6211, 21.66895
777.1032, 21.76956
777.5853, 23.73173
778.0674, 24.74438
778.5496, 24.52794
779.0317, 24.10343
779.5138, 23.93437
779.9959, 23.88791
780.4780, 23.68329
780.9601, 23.16762
781.4423, 23.14731
781.9244, 24.04072
782.4065, 24.89637
782.8886, 25.48511
783.3707, 25.83729
783.8528, 25.99837
784.3350, 25.97781
784.8171, 25.75835
785.2992, 25.12890
785.7813, 24.51937
786.2634, 24.87536
786.7455, 25.73285
787.2277, 25.17124
787.7098, 22.84931
788.1919, 21.08313
788.6740, 21.84380
789.1561, 24.34246
789.6382, 25.65223
790.1204, 25.20564
790.6025, 24.93438
791.0846, 25.36664
791.5667, 25.49341
792.0488, 24.41784
792.5309, 22.93137
793.0131, 22.30181
793.4952, 22.81226
793.9773, 23.61833
794.4594, 24.67060
794.9415, 25.55474
795.4236, 25.78726
795.9058, 25.54762
796.3879, 25.28548
796.8700, 25.13897
797.3521, 24.91362
797.8342, 24.27603
798.3163, 23.44017
798.7985, 23.58939
799.2806, 24.86318
799.7627, 26.41780
800.2448, 28.54925
800.7269, 30.10495
801.2090, 29.73785
801.6912, 27.83912
802.1733, 26.66344
802.6554, 26.46827
803.1375, 26.59552
803.6196, 27.56602
804.1017, 28.24387
804.5839, 27.24275
805.0660, 25.41128
805.5481, 24.73720
806.0302, 25.96024
806.5123, 27.50992
806.9944, 27.77579
807.4766, 27.20372
807.9587, 27.02505
808.4408, 27.18885
808.9229, 26.35795
809.4050, 23.84781
809.8871, 21.46475
810.3693, 21.49657
810.8514, 23.91830
811.3335, 25.86471
811.8156, 27.56791
812.2977, 28.39978
812.7798, 27.71659
813.2620, 26.67187
813.7441, 25.85621
814.2262, 25.30606
814.7083, 25.02673
815.1904, 25.15695
815.6725, 25.21087
816.1547, 24.56437
816.6368, 23.93876
817.1189, 24.46558
817.6010, 25.78836
818.0831, 26.56601
818.5652, 26.23490
819.0474, 25.50343
819.5295, 25.26089
820.0116, 25.46442
820.4937, 25.84207
820.9758, 26.50953
821.4579, 26.56804
821.9401, 25.40900
822.4222, 24.11811
822.9043, 24.05060
823.3864, 25.12524
823.8685, 25.19983
824.3506, 22.82200
824.8328, 21.52415
825.3149, 22.74039
825.7970, 24.40633
826.2791, 25.22784
826.7612, 25.24167
827.2433, 24.72396
827.7255, 23.66079
828.2076, 22.97309
828.6897, 23.91530
829.1718, 25.49735
829.6539, 26.07277
830.1360, 25.70504
830.6182, 24.99923
831.1003, 24.17888
831.5824, 23.63837
832.0645, 23.93238
832.5466, 24.97103
833.0287, 25.70278
833.5109, 26.30080
833.9930, 25.95970
834.4751, 23.51130
834.9572, 21.28630
835.4393, 21.83120
835.9214, 24.12280
836.4036, 25.12567
836.8857, 23.89716
837.3678, 22.83039
837.8499, 22.49846
838.3320, 22.53537
838.8141, 22.92466
839.2963, 23.41232
839.7784, 23.40040
840.2605, 22.76814
840.7426, 22.54790
841.2247, 24.26905
841.7068, 26.75436
842.1890, 27.61155
842.6711, 27.05683
843.1532, 26.12209
843.6353, 25.05269
844.1174, 24.35634
844.5995, 24.55543
845.0817, 25.42230
845.5638, 25.96386
846.0459, 26.23467
846.5280, 25.98771
847.0101, 24.60594
847.4922, 23.48593
847.9744, 23.68390
848.4565, 24.44299
848.9386, 24.56341
849.4207, 23.85376
849.9028, 23.24361
850.3849, 22.62743
850.8671, 22.56295
851.3492, 23.98764
851.8313, 25.84815
852.3134, 26.64917
852.7955, 26.26315
853.2776, 25.71008
853.7598, 25.68146
854.2419, 25.82292
854.7240, 25.53589
855.2061, 24.94166
855.6882, 24.49845
856.1703, 24.26695
856.6525, 24.32544
857.1346, 24.79472
857.6167, 25.27558
858.0988, 24.83119
858.5809, 23.10259
859.0630, 22.97483
859.5452, 25.81355
860.0273, 27.81780
860.5094, 27.20973
860.9915, 25.78300
861.4736, 24.94571
861.9557, 24.68227
862.4379, 24.71030
862.9200, 25.24163
863.4021, 25.69263
863.8842, 25.97556
864.3663, 25.99943
864.8484, 25.41772
865.3306, 24.55110
865.8127, 24.18381
866.2948, 24.61195
866.7769, 25.17066
867.2590, 25.18527
867.7411, 24.87152
868.2233, 24.55320
868.7054, 24.29438
869.1875, 24.55171
869.6696, 25.46629
870.1517, 26.14054
870.6339, 25.64543
871.1160, 24.30219
871.5981, 23.54218
872.0802, 23.42504
872.5623, 23.72598
873.0444, 24.79106
873.5266, 25.65341
874.0087, 25.47035
874.4908, 24.87387
874.9729, 25.29522
875.4550, 27.16350
875.9371, 27.57934
876.4193, 24.60144
876.9014, 21.95404
877.3835, 20.72993
877.8656, 20.95017
878.3477, 23.70748
878.8298, 28.04808
879.3120, 30.32769
879.7941, 28.16294
880.2762, 24.83850
880.7583, 23.16977
881.2404, 22.68445
881.7225, 22.81780
882.2047, 23.35920
882.6868, 23.84058
883.1689, 24.05838
883.6510, 23.96121
884.1331, 23.33786
884.6152, 22.33151
885.0974, 22.19640
885.5795, 23.10198
886.0616, 23.60825
886.5437, 23.24627
887.0258, 22.72449
887.5079, 22.50538
887.9901, 22.62394
888.4722, 23.28560
888.9543, 25.74121
889.4364, 26.32524
889.9185, 22.80808
890.4006, 20.04448
890.8828, 20.77118
891.3649, 22.82311
891.8470, 23.40983
892.3291, 22.30314
892.8112, 21.44300
893.2933, 21.98261
893.7755, 22.57268
894.2576, 22.06015
894.7397, 21.30902
895.2218, 21.37031
895.7039, 22.26514
896.1860, 23.71322
896.6682, 25.63089
897.1503, 27.17051
897.6324, 27.17126
898.1145, 26.00544
898.5966, 24.41016
899.0787, 22.54325
899.5609, 21.75345
900.0430, 22.52632
900.5251, 23.57978
901.0072, 23.65396
901.4893, 22.98206
901.9714, 22.71004
902.4536, 22.97231
902.9357, 23.17262
903.4178, 23.42028
903.8999, 23.29075
904.3820, 22.08912
904.8641, 20.63638
905.3463, 20.58465
905.8284, 22.20158
906.3105, 22.94521
906.7926, 22.02484
907.2747, 20.99467
907.7568, 19.95337
908.2390, 19.30036
908.7211, 19.58074
909.2032, 20.53354
909.6853, 21.32180
910.1674, 21.60224
910.6495, 21.86972
911.1317, 22.87670
911.6138, 23.71927
912.0959, 22.63970
912.5780, 20.68414
913.0601, 20.71556
913.5422, 23.28006
914.0244, 25.89274
914.5065, 26.38168
914.9886, 25.58103
915.4707, 25.15866
915.9528, 25.05651
916.4349, 24.92330
916.9171, 24.71395
917.3992, 24.40224
917.8813, 23.94871
918.3634, 23.47582
918.8455, 23.15768
919.3276, 22.98413
919.8098, 23.20515
920.2919, 24.05758
920.7740, 24.69228
921.2561, 24.79059
921.7382, 24.76738
922.2203, 24.95668
922.7025, 25.30598
923.1846, 25.65530
923.6667, 26.38189
924.1488, 26.28999
924.6309, 24.17346
925.1130, 22.46436
925.5952, 22.51542
926.0773, 23.43924
926.5594, 24.32122
927.0415, 24.96610
927.5236, 25.22982
928.0057, 24.75669
928.4879, 24.32294
928.9700, 24.75822
929.4521, 25.28327
929.9342, 24.72331
930.4163, 23.44355
930.8984, 22.78134
931.3806, 23.20474
931.8627, 23.60842
932.3448, 22.52185
932.8269, 20.85294
933.3090, 20.54948
933.7911, 21.36559
934.2733, 22.32639
934.7554, 23.22747
935.2375, 24.19769
935.7196, 25.35644
936.2017, 26.47361
936.6838, 27.08628
937.1660, 27.19660
937.6481, 26.71288
938.1302, 25.48210
938.6123, 24.29954
939.0944, 23.29496
939.5765, 22.73967
940.0587, 23.12461
940.5408, 24.23113
941.0229, 24.43231
941.5050, 23.06650
941.9871, 22.00848
942.4692, 21.24944
942.9514, 20.88490
943.4335, 21.08417
943.9156, 21.63173
944.3977, 22.36202
944.8798, 23.25049
945.3619, 23.91297
945.8441, 24.44738
946.3262, 24.50531
946.8083, 23.11985
947.2904, 21.93684
947.7725, 22.87541
948.2546, 25.02908
948.7368, 26.08735
949.2189, 25.33630
949.7010, 24.44457
950.1831, 24.50256
950.6652, 24.94541
951.1473, 25.45586
951.6295, 25.82756
952.1116, 25.57170
952.5937, 24.76472
953.0758, 24.03449
953.5579, 23.72282
954.0400, 23.76721
954.5222, 24.22477
955.0043, 24.93963
955.4864, 25.54061
955.9685, 25.98005
956.4506, 26.01855
956.9327, 25.58547
957.4149, 25.04416
957.8970, 24.75020
958.3791, 24.51209
958.8612, 23.45455
959.3433, 21.42942
959.8254, 21.00408
960.3076, 22.75601
960.7897, 24.30753
961.2718, 24.69790
961.7539, 24.25768
962.2360, 23.07822
962.7181, 21.26310
963.2003, 21.48350
963.6824, 25.87884
964.1645, 27.82180
964.6466, 24.33282
965.1287, 21.21989
965.6108, 22.47373
966.0930, 25.59649
966.5751, 26.83601
967.0572, 25.93200
967.5393, 25.19254
968.0214, 24.95319
968.5035, 24.77096
968.9857, 24.64365
969.4678, 24.42152
969.9499, 23.74092
970.4320, 22.93513
970.9141, 22.80809
971.3962, 23.62971
971.8784, 24.37219
972.3605, 24.59619
972.8426, 24.54708
973.3247, 24.21606
973.8068, 23.82430
974.2889, 23.60750
974.7711, 23.59710
975.2532, 23.74142
975.7353, 24.02462
976.2174, 24.40104
976.6995, 25.09991
977.1816, 25.67910
977.6638, 25.29929
978.1459, 24.31581
978.6280, 23.61127
979.1101, 23.39381
979.5922, 23.54451
980.0743, 24.05471
980.5565, 24.53933
981.0386, 24.08959
981.5207, 23.10030
982.0028, 23.33237
982.4849, 24.65897
982.9670, 24.82890
983.4492, 23.07016
983.9313, 21.56370
984.4134, 22.54359
984.8955, 25.06837
985.3776, 26.18087
985.8597, 25.85496
986.3419, 24.69006
986.8240, 22.48435
987.3061, 21.08652
987.7882, 21.45382
988.2703, 22.47068
988.7524, 22.74427
989.2346, 22.39727
989.7167, 22.76365
990.1988, 24.17378
990.6809, 25.33799
991.1630, 26.32547
991.6451, 26.67830
992.1273, 25.91503
992.6094, 24.58959
993.0915, 23.25156
993.5736, 21.81664
994.0557, 21.94146
994.5378, 26.06094
995.0200, 28.13772
995.5021, 25.60590
995.9842, 23.02562
996.4663, 23.10035
996.9484, 24.61628
997.4305, 25.58763
997.9127, 25.84209
998.3948, 25.85847
998.8769, 26.35325
999.3590, 25.76446
999.8411, 21.69519
1000.323, 18.12089
1000.805, 19.10605
1001.287, 22.68207
1001.770, 24.35355
1002.252, 23.05126
1002.734, 21.93859
1003.216, 22.45137
1003.698, 23.38522
1004.180, 24.53699
1004.662, 25.36897
1005.144, 25.16144
1005.627, 24.14385
1006.109, 23.00443
1006.591, 21.96892
1007.073, 21.10682
1007.555, 20.03750
1008.037, 19.57871
1008.519, 21.34839
1009.001, 23.85265
1009.483, 24.42167
1009.966, 23.25237
1010.448, 22.53683
1010.930, 23.32959
1011.412, 24.29669
1011.894, 23.98433
1012.376, 23.07697
1012.858, 22.50158
1013.340, 22.24228
1013.823, 22.05971
1014.305, 22.01556
1014.787, 22.80205
1015.269, 24.87100
1015.751, 27.06088
1016.233, 27.74173
1016.715, 27.30545
1017.197, 26.77556
1017.679, 26.15257
1018.162, 25.21891
1018.644, 23.97282
1019.126, 22.94388
1019.608, 22.49224
1020.090, 22.41705
1020.572, 22.34320
1021.054, 22.32000
1021.536, 22.92335
1022.018, 24.11031
1022.501, 24.34785
1022.983, 23.19515
1023.465, 22.51083
1023.947, 23.80025
1024.429, 25.87885
1024.911, 25.91581
1025.393, 23.83674
1025.875, 23.70500
1026.358, 25.89368
1026.840, 26.75446
1027.322, 25.06274
1027.804, 23.15963
1028.286, 22.93614
1028.768, 23.63079
1029.250, 23.11991
1029.732, 21.02725
1030.214, 20.87092
1030.697, 23.38611
1031.179, 25.32983
1031.661, 25.88846
1032.143, 25.53074
1032.625, 24.32189
1033.107, 22.72633
1033.589, 22.08912
1034.071, 22.58358
1034.553, 23.32628
1035.036, 24.75346
1035.518, 25.45238
1036.000, 24.68337
1036.482, 23.62399
1036.964, 23.05776
1037.446, 22.96865
1037.928, 23.44149
1038.410, 24.98864
1038.893, 25.26051
1039.375, 23.03871
1039.857, 21.47675
1040.339, 21.27484
1040.821, 22.02708
1041.303, 24.39727
1041.785, 27.35610
1042.267, 27.64067
1042.750, 23.98296
1043.232, 21.89897
1043.714, 22.74856
1044.196, 23.41357
1044.678, 22.84355
1045.160, 22.17956
1045.642, 22.57032
1046.124, 23.44811
1046.606, 23.21706
1047.089, 21.27740
1047.571, 20.42225
1048.053, 21.72486
1048.535, 23.08657
1049.017, 24.44399
1049.499, 25.19349
1049.981, 24.39556
1050.463, 22.78133
1050.945, 21.96207
1051.428, 22.20214
1051.910, 22.67503
1052.392, 23.55430
1052.874, 24.20700
1053.356, 24.31076
1053.838, 24.22986
1054.320, 24.47653
1054.802, 24.67874
1055.285, 23.72672
1055.767, 21.27877
1056.249, 20.11837
1056.731, 22.16136
1057.213, 24.03794
1057.695, 24.54897
1058.177, 24.39826
1058.659, 23.72152
1059.141, 22.96243
1059.624, 22.78351
1060.106, 23.29953
1060.588, 24.29265
1061.070, 26.48657
1061.552, 28.08821
1062.034, 28.15356
1062.516, 27.58020
1062.998, 26.89174
1063.480, 26.14731
1063.963, 25.12381
1064.445, 23.85781
1064.927, 23.37330
1065.409, 25.30431
1065.891, 26.38149
1066.373, 24.26816
1066.855, 21.78031
1067.337, 20.98214
1067.820, 21.34875
1068.302, 21.96141
1068.784, 22.62324
1069.266, 23.28855
1069.748, 24.12940
1070.230, 24.63385
1070.712, 23.88567
1071.194, 23.41835
1071.677, 25.48119
1072.159, 27.95156
1072.641, 26.91245
1073.123, 22.74913
1073.605, 20.60977
1074.087, 23.45279
1074.569, 25.93640
1075.051, 25.04244
1075.533, 23.47161
1076.016, 22.73423
1076.498, 22.76599
1076.980, 23.72775
1077.462, 25.25275
1077.944, 26.12118
1078.426, 25.93095
1078.908, 25.02886
1079.390, 22.17431
1079.873, 20.22779
1080.355, 22.07390
1080.837, 25.17730
1081.319, 26.75395
1081.801, 26.77465
1082.283, 26.14451
1082.765, 24.92481
1083.247, 24.38669
1083.729, 26.15358
1084.212, 27.51535
1084.694, 26.26618
1085.176, 24.33098
1085.658, 23.72820
1086.140, 24.14178
1086.622, 24.26955
1087.104, 23.77700
1087.586, 23.62316
1088.068, 25.03586
1088.551, 25.83230
1089.033, 24.15105
1089.515, 22.09314
1089.997, 21.49771
1090.479, 21.92876
1090.961, 22.42181
1091.443, 22.77188
1091.925, 22.86933
1092.408, 22.60126
1092.890, 22.17034
1093.372, 21.26825
1093.854, 20.63122
1094.336, 21.19860
1094.818, 22.15495
1095.300, 21.91234
1095.782, 20.58598
1096.265, 20.49702
1096.747, 23.39681
1097.229, 25.50370
1097.711, 24.86942
1098.193, 23.86497
1098.675, 23.74755
1099.157, 24.11893
1099.639, 24.55862
1100.121, 24.97552
1100.604, 25.26258
1101.086, 25.40048
1101.568, 25.40133
1102.050, 25.46723
1102.532, 25.14658
1103.014, 23.71445
1103.496, 22.26112
1103.978, 21.88568
1104.460, 22.27414
1104.943, 22.47956
1105.425, 22.35812
1105.907, 22.14021
1106.389, 21.38642
1106.871, 21.20285
1107.353, 22.55399
1107.835, 23.93244
1108.317, 24.06813
1108.800, 23.62323
1109.282, 24.14012
1109.764, 25.80983
1110.246, 25.73706
1110.728, 20.79524
1111.210, 18.40680
1111.692, 21.97092
1112.174, 25.50566
1112.656, 26.03199
1113.139, 25.04663
1113.621, 24.05647
1114.103, 23.15406
1114.585, 23.00140
1115.067, 24.41633
1115.549, 25.10636
1116.031, 24.54318
1116.513, 23.99710
1116.995, 23.75498
1117.478, 23.80189
1117.960, 24.30305
1118.442, 25.04490
1118.924, 25.36697
1119.406, 25.26433
1119.888, 24.69400
1120.370, 23.05119
1120.852, 22.25888
1121.335, 23.18450
1121.817, 24.24672
1122.299, 24.47227
1122.781, 24.12415
1123.263, 23.59936
1123.745, 22.88897
1124.227, 22.55131
1124.709, 22.70324
1125.192, 22.85628
1125.674, 23.06652
1126.156, 22.80906
1126.638, 21.54033
1127.120, 20.50046
1127.602, 21.37365
1128.084, 23.59830
1128.566, 24.21793
1129.048, 22.95777
1129.531, 22.75692
1130.013, 23.96759
1130.495, 24.41714
1130.977, 23.25379
1131.459, 22.39116
1131.941, 23.52767
1132.423, 25.55029
1132.905, 25.86915
1133.387, 24.63030
1133.870, 24.14770
1134.352, 24.40291
1134.834, 25.01907
1135.316, 25.91523
1135.798, 26.84728
1136.280, 27.71634
1136.762, 28.01676
1137.244, 26.94391
1137.727, 24.93264
1138.209, 22.84792
1138.691, 20.99711
1139.173, 21.28834
1139.655, 23.41932
1140.137, 24.28827
1140.619, 22.94537
1141.101, 21.83354
1141.583, 23.12220
1142.066, 25.14956
1142.548, 25.06243
1143.030, 24.00492
1143.512, 24.63798
1143.994, 26.27508
1144.476, 26.69054
1144.958, 25.63424
1145.440, 24.16020
1145.922, 22.73063
1146.405, 22.05522
1146.887, 23.46941
1147.369, 25.34534
1147.851, 26.03678
1148.333, 25.83744
1148.815, 24.71334
1149.297, 23.23807
1149.779, 22.59896
1150.262, 23.11143
1150.744, 24.24314
1151.226, 26.44251
1151.708, 27.91966
1152.190, 26.93375
1152.672, 25.32038
1153.154, 24.35505
1153.636, 23.95208
1154.119, 23.93748
1154.601, 24.19311
1155.083, 24.48619
1155.565, 24.88862
1156.047, 24.83737
1156.529, 23.71503
1157.011, 22.65724
1157.493, 21.89874
1157.975, 21.65252
1158.458, 22.63395
1158.940, 24.06271
1159.422, 24.16190
1159.904, 22.65201
1160.386, 21.84558
1160.868, 22.22831
1161.350, 22.88347
1161.832, 24.24516
1162.314, 25.17550
1162.797, 25.18587
1163.279, 24.52704
1163.761, 22.99368
1164.243, 21.05715
1164.725, 21.13912
1165.207, 24.26892
1165.689, 25.71937
1166.171, 24.90291
1166.654, 24.14139
1167.136, 23.96433
1167.618, 24.02602
1168.100, 24.13637
1168.582, 24.28111
1169.064, 24.48717
1169.546, 24.70427
1170.028, 24.35869
1170.510, 23.42996
1170.993, 22.73977
1171.475, 22.37115
1171.957, 22.39608
1172.439, 22.84004
1172.921, 23.86531
1173.403, 25.77287
1173.885, 27.77817
1174.367, 28.22598
1174.849, 27.48102
1175.332, 26.67667
1175.814, 25.82842
1176.296, 24.62743
1176.778, 23.17828
1177.260, 22.38248
1177.742, 22.66857
1178.224, 23.25205
1178.706, 23.53272
1179.189, 23.51649
1179.671, 22.89893
1180.153, 22.20493
1180.635, 22.23258
1181.117, 22.83956
1181.599, 23.67404
1182.081, 24.58037
1182.563, 25.32905
1183.046, 25.80516
1183.528, 26.11888
1184.010, 26.43998
1184.492, 26.49575
1184.974, 26.13640
1185.456, 25.38810
1185.938, 23.78927
1186.420, 21.96611
1186.902, 21.40622
1187.385, 22.40577
1187.867, 23.40500
1188.349, 24.19944
1188.831, 24.82437
1189.313, 24.85668
1189.795, 25.23803
1190.277, 26.97974
1190.759, 28.82554
1191.241, 29.62538
1191.724, 29.44577
1192.206, 28.34207
1192.688, 25.55467
1193.170, 25.42833
1193.652, 29.62057
1194.134, 31.13049
1194.616, 27.87687
1195.098, 23.98782
1195.581, 21.53026
1196.063, 20.46564
1196.545, 21.00039
1197.027, 22.60570
1197.509, 22.82198
1197.991, 21.76415
1198.473, 21.24176
1198.955, 21.34817
1199.438, 21.66483
1199.920, 22.07815
1200.402, 22.87872
1200.884, 24.31665
1201.366, 25.54681
1201.848, 25.17691
1202.330, 24.00643
1202.812, 23.28465
1203.294, 23.06266
1203.776, 23.87146
1204.259, 25.19580
1204.741, 25.30456
1205.223, 23.93966
1205.705, 23.17931
1206.187, 24.52935
1206.669, 25.94235
1207.151, 26.15600
1207.633, 25.70506
1208.116, 24.24713
1208.598, 22.95264
1209.080, 23.39662
1209.562, 25.06864
1210.044, 26.45873
1210.526, 27.31646
1211.008, 27.69303
1211.490, 27.54944
1211.973, 27.00549
1212.455, 25.57801
1212.937, 24.38517
1213.419, 24.05836
1213.901, 24.01135
1214.383, 23.53418
1214.865, 22.92777
1215.347, 23.41051
1215.829, 25.39509
1216.312, 25.22235
1216.794, 22.01785
1217.276, 21.52003
1217.758, 25.27792
1218.240, 28.01381
1218.722, 27.01877
1219.204, 24.97441
1219.686, 24.94882
1220.168, 25.95932
1220.651, 25.15650
1221.133, 23.21000
1221.615, 22.87717
1222.097, 23.99311
1222.579, 25.76507
1223.061, 27.71768
1223.543, 28.52785
1224.025, 27.57343
1224.508, 25.90453
1224.990, 23.71153
1225.472, 22.15237
1225.954, 22.77937
1226.436, 24.36032
1226.918, 26.11232
1227.400, 27.43384
1227.882, 27.23018
1228.365, 25.77208
1228.847, 24.78496
1229.329, 24.77376
1229.811, 25.13995
1230.293, 26.38746
1230.775, 27.05237
1231.257, 26.23110
1231.739, 25.14455
1232.221, 24.48496
1232.703, 24.06710
1233.186, 23.63473
1233.668, 23.22074
1234.150, 23.01079
1234.632, 22.90182
1235.114, 23.51088
1235.596, 25.06922
1236.078, 26.27538
1236.560, 26.83300
1237.043, 26.96322
1237.525, 26.77746
1238.007, 26.27854
1238.489, 25.27095
1238.971, 24.25837
1239.453, 24.99261
1239.935, 26.82232
1240.417, 27.66103
1240.900, 27.49560
1241.382, 26.54633
1241.864, 25.12188
1242.346, 24.32852
1242.828, 24.72110
1243.310, 25.32883
1243.792, 25.63042
1244.274, 25.53199
1244.756, 24.33451
1245.239, 23.29760
1245.721, 23.80960
1246.203, 25.21305
1246.685, 26.94731
1247.167, 28.54293
1247.649, 28.19840
1248.131, 24.55577
1248.613, 22.49421
1249.095, 23.32470
1249.578, 24.76202
1250.060, 27.33770
1250.542, 28.90226
1251.024, 27.89217
1251.506, 26.13624
1251.988, 25.93835
1252.470, 26.71794
1252.952, 25.79043
1253.435, 23.05277
1253.917, 23.54462
1254.399, 27.17226
1254.881, 28.73155
1255.363, 27.40298
1255.845, 26.02955
1256.327, 25.93808
1256.809, 26.45664
1257.292, 27.24325
1257.774, 27.59548
1258.256, 25.64541
1258.738, 23.36710
1259.220, 24.11227
1259.702, 26.30001
1260.184, 27.18759
1260.666, 26.66144
1261.148, 25.65339
1261.630, 24.40937
1262.113, 23.61020
1262.595, 23.76958
1263.077, 24.00559
1263.559, 24.34133
1264.041, 24.36180
1264.523, 23.23701
1265.005, 22.32248
1265.487, 23.02386
1265.970, 24.65706
1266.452, 25.70383
1266.934, 26.16461
1267.416, 26.10466
1267.898, 25.41650
1268.380, 24.91104
1268.862, 24.63027
1269.344, 25.52484
1269.827, 27.92731
1270.309, 29.49476
1270.791, 28.42959
1271.273, 26.55311
1271.755, 26.46110
1272.237, 27.30581
1272.719, 27.72734
1273.201, 27.82585
1273.683, 27.52901
1274.166, 27.15418
1274.648, 27.51868
1275.130, 28.58129
1275.612, 29.31427
1276.094, 29.35122
1276.576, 28.96537
1277.058, 27.45189
1277.540, 26.66249
1278.022, 28.34836
1278.505, 29.85162
1278.987, 28.97525
1279.469, 27.30870
1279.951, 26.71434
1280.433, 26.89676
1280.915, 26.53658
1281.397, 25.44510
1281.879, 25.47506
1282.362, 26.75776
1282.844, 27.77044
1283.326, 28.27456
1283.808, 27.86596
1284.290, 26.38715
1284.772, 24.99959
1285.254, 24.62057
1285.736, 25.24363
##END=



