##NAMES=Luzonite
##RRUFFID=R060390
##IDEAL CHEMISTRY=Cu_3_AsS^2-^_4_
##LOCALITY=Bern-Shan Pit, Chinkuashi mine, Taipei, Taiwan, Republic of China
##OWNER=RRUFF
##SOURCE=Michael Scott
##DESCRIPTION=Black coarse massive with two directions of obvious cleavage
##STATUS=The identification of this mineral is confirmed by single-crystal X-ray diffraction and chemical analysis.
##URL=rruff.info/R060390
##MEASURED CHEMISTRY=Cu_3.01_(As_0.85_Sb_0.15_)_Î£=1.00_S_4_
129.5436, -0.1257008
130.0258, 0.4439988
130.5079, 1.783209
130.9900, 2.902774
131.4721, 3.793216
131.9542, 4.577306
132.4363, 5.475373
132.9185, 6.423343
133.4006, 6.960409
133.8827, 6.847648
134.3648, 6.248069
134.8469, 5.618387
135.3290, 4.894588
135.8112, 4.421492
136.2933, 4.804836
136.7754, 6.116487
137.2575, 7.175762
137.7396, 7.509384
138.2217, 7.134032
138.7039, 6.819037
139.1860, 6.487199
139.6681, 6.338753
140.1502, 6.745813
140.6323, 7.840037
141.1144, 9.040701
141.5966, 10.26114
142.0787, 11.65425
142.5608, 12.29558
143.0429, 11.98435
143.5250, 11.03833
144.0071, 10.07825
144.4893, 8.832718
144.9714, 8.028998
145.4535, 8.091916
145.9356, 9.658373
146.4177, 10.81437
146.8998, 11.40359
147.3820, 11.54988
147.8641, 11.76237
148.3462, 11.79210
148.8283, 12.11857
149.3104, 13.04812
149.7925, 15.74597
150.2747, 17.51054
150.7568, 17.64935
151.2389, 16.34005
151.7210, 15.74718
152.2031, 16.83228
152.6852, 18.05365
153.1674, 18.46461
153.6495, 17.12760
154.1316, 15.91222
154.6137, 14.90170
155.0958, 14.09467
155.5779, 13.99411
156.0601, 15.05006
156.5422, 16.66148
157.0243, 18.30462
157.5064, 20.87818
157.9885, 22.55546
158.4706, 22.37241
158.9528, 20.02321
159.4349, 18.22551
159.9170, 18.23320
160.3991, 18.99569
160.8812, 19.29854
161.3633, 17.90620
161.8455, 16.69039
162.3276, 16.64915
162.8097, 18.13033
163.2918, 19.50261
163.7739, 20.15551
164.2560, 20.25362
164.7382, 19.96702
165.2203, 18.78560
165.7024, 17.90958
166.1845, 18.36145
166.6666, 20.82587
167.1487, 22.73651
167.6309, 22.00891
168.1130, 19.71120
168.5951, 18.10955
169.0772, 18.91106
169.5593, 20.48875
170.0414, 21.41487
170.5236, 21.22312
171.0057, 20.88205
171.4878, 21.19720
171.9699, 21.96536
172.4520, 22.56370
172.9341, 22.37195
173.4163, 21.92054
173.8984, 21.93021
174.3805, 22.92013
174.8626, 23.80747
175.3447, 23.24245
175.8268, 21.52566
176.3090, 20.04763
176.7911, 19.95541
177.2732, 20.68749
177.7553, 21.37317
178.2374, 21.86952
178.7195, 22.14200
179.2017, 21.99392
179.6838, 21.47356
180.1659, 21.05742
180.6480, 21.35817
181.1301, 22.04536
181.6122, 22.34417
182.0944, 21.95265
182.5765, 21.11856
183.0586, 19.98822
183.5407, 18.58614
184.0228, 17.56575
184.5049, 17.50828
184.9871, 18.32476
185.4692, 19.75059
185.9513, 22.06740
186.4334, 24.80149
186.9155, 27.18612
187.3976, 29.26953
187.8798, 30.35549
188.3619, 28.98495
188.8440, 25.57741
189.3261, 22.94860
189.8082, 22.51330
190.2903, 23.56112
190.7725, 23.35825
191.2546, 21.71843
191.7367, 19.79935
192.2188, 18.86578
192.7009, 18.87582
193.1830, 19.25480
193.6652, 19.86017
194.1473, 20.67583
194.6294, 21.74339
195.1115, 23.22416
195.5936, 24.43166
196.0757, 24.09537
196.5579, 22.14918
197.0400, 20.61389
197.5221, 20.52300
198.0042, 21.75701
198.4863, 22.49897
198.9684, 22.67831
199.4506, 22.51330
199.9327, 22.23805
200.4148, 21.82532
200.8969, 21.53341
201.3790, 21.50097
201.8611, 21.73774
202.3433, 21.98920
202.8254, 22.31531
203.3075, 22.56164
203.7896, 22.47241
204.2717, 22.03506
204.7538, 21.33736
205.2360, 20.20986
205.7181, 18.52664
206.2002, 17.60266
206.6823, 17.56203
207.1644, 18.12503
207.6465, 18.82985
208.1287, 19.69089
208.6108, 20.61615
209.0929, 21.83685
209.5750, 23.66925
210.0571, 23.86544
210.5392, 21.69045
211.0214, 18.54737
211.5035, 17.60802
211.9856, 19.67277
212.4677, 21.73919
212.9498, 22.29718
213.4319, 20.83938
213.9140, 20.04705
214.3962, 20.16668
214.8783, 20.82000
215.3604, 21.14035
215.8425, 21.05669
216.3246, 20.80844
216.8067, 20.36999
217.2889, 19.47907
217.7710, 19.41616
218.2531, 20.68258
218.7352, 22.53791
219.2173, 23.10602
219.6994, 21.76735
220.1816, 20.32368
220.6637, 19.55428
221.1458, 19.60981
221.6279, 19.96705
222.1100, 20.89564
222.5921, 22.01553
223.0743, 22.25737
223.5564, 21.15108
224.0385, 19.99172
224.5206, 19.38102
225.0027, 19.42337
225.4848, 19.73560
225.9670, 20.48610
226.4491, 21.44307
226.9312, 21.98394
227.4133, 21.91566
227.8954, 21.73776
228.3775, 21.72210
228.8597, 22.09244
229.3418, 22.03273
229.8239, 21.27427
230.3060, 20.14699
230.7881, 19.60173
231.2702, 19.84376
231.7524, 20.34914
232.2345, 20.91068
232.7166, 21.62752
233.1987, 22.17038
233.6808, 22.40938
234.1629, 22.50507
234.6451, 22.94664
235.1272, 24.06741
235.6093, 25.03361
236.0914, 25.44841
236.5735, 25.04872
237.0556, 24.67142
237.5378, 24.15758
238.0199, 23.71196
238.5020, 23.91250
238.9841, 25.17055
239.4662, 26.47089
239.9483, 27.40048
240.4305, 27.87411
240.9126, 28.13074
241.3947, 27.99619
241.8768, 27.69823
242.3589, 27.84497
242.8410, 28.76105
243.3232, 29.62098
243.8053, 30.00950
244.2874, 29.54688
244.7695, 29.59536
245.2516, 30.58581
245.7337, 31.92006
246.2159, 32.14146
246.6980, 30.41860
247.1801, 28.89091
247.6622, 28.46176
248.1443, 29.63900
248.6264, 30.47480
249.1086, 30.80911
249.5907, 30.88704
250.0728, 31.19566
250.5549, 31.73752
251.0370, 32.50698
251.5191, 33.55632
252.0013, 35.00055
252.4834, 36.33395
252.9655, 37.64336
253.4476, 38.77864
253.9297, 39.36107
254.4118, 38.98756
254.8940, 38.80985
255.3761, 39.39539
255.8582, 41.14727
256.3403, 41.93677
256.8224, 41.17737
257.3046, 39.90667
257.7867, 39.96392
258.2688, 41.95902
258.7509, 44.00481
259.2330, 45.53222
259.7151, 46.53858
260.1973, 47.05207
260.6794, 46.82486
261.1615, 46.33825
261.6436, 46.28843
262.1257, 46.75893
262.6078, 47.46566
263.0900, 48.37543
263.5721, 49.52898
264.0542, 50.57952
264.5363, 51.59053
265.0184, 52.43357
265.5005, 52.93343
265.9827, 52.98094
266.4648, 52.97396
266.9469, 52.92294
267.4290, 52.81431
267.9111, 53.24488
268.3932, 54.39272
268.8754, 55.79980
269.3575, 56.94130
269.8396, 57.75890
270.3217, 58.59926
270.8038, 59.73446
271.2859, 61.11179
271.7681, 61.30443
272.2502, 59.89578
272.7323, 58.16865
273.2144, 57.49622
273.6965, 58.03894
274.1786, 58.78648
274.6608, 59.78507
275.1429, 60.86711
275.6250, 60.63798
276.1071, 58.74524
276.5892, 56.55753
277.0714, 55.61059
277.5535, 56.12231
278.0356, 55.74586
278.5177, 53.72901
278.9998, 50.57555
279.4819, 48.43404
279.9641, 47.44718
280.4462, 46.79256
280.9283, 45.69593
281.4104, 44.13563
281.8925, 43.22709
282.3746, 43.47986
282.8568, 44.23554
283.3389, 43.39031
283.8210, 40.75840
284.3031, 37.95974
284.7852, 36.02981
285.2673, 34.96012
285.7495, 34.41132
286.2316, 34.51375
286.7137, 34.87209
287.1958, 34.59569
287.6779, 33.66535
288.1600, 32.68051
288.6422, 32.07306
289.1243, 31.77020
289.6064, 31.18779
290.0885, 30.12745
290.5706, 29.12777
291.0527, 29.33496
291.5349, 30.65753
292.0170, 31.74875
292.4991, 31.61833
292.9812, 30.61664
293.4633, 30.00737
293.9454, 29.87900
294.4276, 30.02699
294.9097, 30.30043
295.3918, 30.66370
295.8739, 30.92108
296.3560, 30.83381
296.8381, 30.58610
297.3203, 30.59716
297.8024, 30.87807
298.2845, 31.37681
298.7666, 32.26133
299.2487, 33.35841
299.7308, 34.15944
300.2130, 34.11747
300.6951, 33.77714
301.1772, 34.05684
301.6593, 34.95189
302.1414, 36.07405
302.6235, 37.20752
303.1057, 38.31451
303.5878, 39.26587
304.0699, 39.71558
304.5520, 40.24683
305.0341, 41.86488
305.5162, 44.41387
305.9984, 46.63430
306.4805, 47.05749
306.9626, 46.72024
307.4447, 47.10017
307.9268, 48.96164
308.4089, 51.18375
308.8911, 52.76831
309.3732, 53.85523
309.8553, 55.02177
310.3374, 56.76891
310.8195, 58.69152
311.3016, 60.31634
311.7838, 61.36442
312.2659, 62.48368
312.7480, 64.10909
313.2301, 66.11606
313.7122, 68.22503
314.1943, 70.54231
314.6765, 72.78526
315.1586, 74.64322
315.6407, 75.86900
316.1228, 77.41558
316.6049, 79.87406
317.0870, 82.93301
317.5692, 86.03799
318.0513, 89.22453
318.5334, 92.24989
319.0155, 95.07485
319.4976, 97.76793
319.9797, 99.90348
320.4619, 101.1160
320.9440, 101.7807
321.4261, 102.3056
321.9082, 103.1110
322.3903, 103.4893
322.8724, 103.3023
323.3546, 102.5446
323.8367, 101.0608
324.3188, 98.72189
324.8009, 95.69310
325.2830, 92.13396
325.7651, 87.39059
326.2473, 82.84336
326.7294, 78.78844
327.2115, 75.16096
327.6936, 71.41096
328.1757, 67.47093
328.6578, 63.46980
329.1400, 59.44820
329.6221, 55.07058
330.1042, 51.19170
330.5863, 47.96304
331.0684, 45.22725
331.5505, 42.56071
332.0327, 39.60582
332.5148, 37.11426
332.9969, 35.48138
333.4790, 35.22123
333.9611, 34.45394
334.4432, 32.85872
334.9254, 30.93587
335.4075, 29.57523
335.8896, 28.97081
336.3717, 28.51307
336.8538, 28.00139
337.3359, 27.40431
337.8180, 27.09619
338.3001, 27.21203
338.7823, 27.41119
339.2644, 27.21627
339.7465, 26.46579
340.2286, 26.05204
340.7107, 26.33857
341.1928, 27.17702
341.6750, 27.37686
342.1571, 26.75885
342.6392, 26.17932
343.1213, 26.49166
343.6034, 27.70924
344.0855, 28.67825
344.5677, 29.14818
345.0498, 29.31506
345.5319, 29.63227
346.0140, 30.10403
346.4961, 30.60488
346.9782, 31.07012
347.4604, 31.50262
347.9425, 31.91807
348.4246, 32.34985
348.9067, 32.68330
349.3888, 32.65691
349.8709, 32.33846
350.3531, 32.10246
350.8352, 32.33376
351.3173, 32.73331
351.7994, 32.64168
352.2815, 32.00340
352.7636, 31.28502
353.2458, 30.74979
353.7279, 30.46996
354.2100, 30.61233
354.6921, 31.62907
355.1742, 32.82970
355.6563, 33.46505
356.1385, 33.57033
356.6206, 33.55809
357.1027, 33.64030
357.5848, 33.78829
358.0669, 34.00420
358.5490, 34.48819
359.0312, 34.74099
359.5133, 34.12570
359.9954, 32.95565
360.4775, 32.19495
360.9596, 32.69776
361.4417, 33.51271
361.9239, 33.99451
362.4060, 33.96761
362.8881, 33.82652
363.3702, 33.49561
363.8523, 33.18493
364.3344, 33.21647
364.8166, 34.26910
365.2987, 35.15819
365.7808, 35.35749
366.2629, 34.77404
366.7450, 34.14690
367.2271, 33.67115
367.7093, 33.16321
368.1914, 32.46177
368.6735, 31.52552
369.1556, 30.41310
369.6377, 28.67704
370.1198, 26.49821
370.6020, 25.73670
371.0841, 27.91409
371.5662, 30.09739
372.0483, 30.59914
372.5304, 27.97399
373.0125, 26.44906
373.4947, 26.66882
373.9768, 27.85011
374.4589, 28.11191
374.9410, 27.06543
375.4231, 25.88989
375.9052, 24.97495
376.3874, 24.32021
376.8695, 23.98469
377.3516, 24.12578
377.8337, 24.31573
378.3158, 23.89875
378.7979, 22.75924
379.2801, 21.89286
379.7622, 21.68283
380.2443, 21.94338
380.7264, 21.80446
381.2085, 21.22923
381.6906, 20.51267
382.1728, 19.87243
382.6549, 19.29668
383.1370, 18.71255
383.6191, 18.02872
384.1012, 17.46125
384.5833, 17.53569
385.0655, 18.15970
385.5476, 18.63518
386.0297, 18.47433
386.5118, 17.91744
386.9939, 17.28226
387.4760, 16.54674
387.9582, 16.09339
388.4403, 16.56833
388.9224, 17.58496
389.4045, 18.33526
389.8866, 18.15442
390.3687, 17.80103
390.8509, 18.14256
391.3330, 19.08764
391.8151, 19.59174
392.2972, 18.52427
392.7793, 16.94670
393.2614, 15.87811
393.7436, 15.77660
394.2257, 15.96399
394.7078, 16.37985
395.1899, 16.89343
395.6720, 17.16123
396.1541, 16.92635
396.6363, 16.53959
397.1184, 16.16667
397.6005, 15.85344
398.0826, 15.46473
398.5647, 14.73327
399.0468, 13.99939
399.5290, 13.67561
400.0111, 14.18886
400.4932, 14.68284
400.9753, 14.90586
401.4574, 14.86242
401.9395, 15.27186
402.4217, 16.54505
402.9038, 17.84137
403.3859, 18.61163
403.8680, 18.75727
404.3501, 18.57081
404.8322, 17.91534
405.3144, 17.01287
405.7965, 16.45324
406.2786, 16.25616
406.7607, 16.32606
407.2428, 16.81196
407.7249, 17.74598
408.2071, 17.91486
408.6892, 17.15130
409.1713, 16.12182
409.6534, 15.66876
410.1355, 15.76965
410.6176, 15.90774
411.0998, 15.90709
411.5819, 15.86118
412.0640, 16.17633
412.5461, 16.82362
413.0282, 17.12356
413.5103, 16.25432
413.9925, 14.69844
414.4746, 13.34879
414.9567, 12.24627
415.4388, 11.69188
415.9209, 12.39587
416.4030, 13.91593
416.8852, 15.17356
417.3673, 15.54166
417.8494, 15.46126
418.3315, 15.10272
418.8136, 14.47278
419.2957, 14.18718
419.7779, 15.19872
420.2600, 16.47388
420.7421, 16.96123
421.2242, 15.64947
421.7063, 14.25391
422.1884, 13.09116
422.6706, 12.23001
423.1527, 11.88360
423.6348, 12.82161
424.1169, 13.71448
424.5990, 13.85554
425.0811, 12.56910
425.5633, 11.96946
426.0454, 12.62175
426.5275, 13.78358
427.0096, 14.54243
427.4917, 14.82044
427.9738, 14.78321
428.4560, 14.30349
428.9381, 13.41565
429.4202, 13.03192
429.9023, 13.31138
430.3844, 13.80531
430.8665, 14.19592
431.3487, 14.45764
431.8308, 14.83034
432.3129, 15.46268
432.7950, 16.04789
433.2771, 15.67211
433.7592, 14.28401
434.2414, 13.31814
434.7235, 13.73924
435.2056, 15.16397
435.6877, 16.07179
436.1698, 16.44564
436.6519, 16.49480
437.1341, 16.22511
437.6162, 15.78108
438.0983, 15.54506
438.5804, 15.68312
439.0625, 15.98284
439.5446, 16.38102
440.0268, 16.78414
440.5089, 16.84970
440.9910, 16.10386
441.4731, 15.09364
441.9552, 14.25194
442.4373, 13.63083
442.9195, 13.22672
443.4016, 13.05972
443.8837, 13.10294
444.3658, 13.32377
444.8479, 14.12371
445.3300, 14.68600
445.8122, 14.46629
446.2943, 13.60408
446.7764, 13.33355
447.2585, 14.77520
447.7406, 16.12889
448.2227, 16.44155
448.7049, 14.98926
449.1870, 13.87225
449.6691, 13.16858
450.1512, 12.76708
450.6333, 12.50126
451.1154, 12.32945
451.5976, 12.39367
452.0797, 12.83597
452.5618, 13.61283
453.0439, 14.02388
453.5260, 13.98951
454.0081, 13.81597
454.4903, 13.66094
454.9724, 13.52848
455.4545, 13.74094
455.9366, 14.49605
456.4187, 15.27647
456.9008, 14.91997
457.3830, 13.59081
457.8651, 12.60258
458.3472, 12.84990
458.8293, 13.75231
459.3114, 14.33195
459.7935, 14.57404
460.2757, 14.57533
460.7578, 13.95490
461.2399, 13.27631
461.7220, 13.42422
462.2041, 15.16780
462.6862, 16.86656
463.1684, 17.55778
463.6505, 17.40367
464.1326, 16.75855
464.6147, 14.99325
465.0968, 13.40329
465.5789, 12.83563
466.0611, 13.50136
466.5432, 13.93552
467.0253, 13.52067
467.5074, 12.92863
467.9895, 12.72319
468.4716, 13.24965
468.9538, 13.77615
469.4359, 14.43361
469.9180, 15.05580
470.4001, 15.04548
470.8822, 14.08585
471.3643, 13.04907
471.8465, 12.20724
472.3286, 11.53682
472.8107, 11.35427
473.2928, 11.74854
473.7749, 12.41139
474.2570, 13.15057
474.7392, 13.96294
475.2213, 14.32675
475.7034, 14.05177
476.1855, 13.35862
476.6676, 12.52853
477.1497, 11.59876
477.6319, 10.95025
478.1140, 10.87850
478.5961, 11.20642
479.0782, 11.74966
479.5603, 12.52047
480.0424, 13.14961
480.5246, 13.22091
481.0067, 12.99250
481.4888, 12.82122
481.9709, 12.66955
482.4530, 12.77635
482.9352, 13.65520
483.4173, 14.96365
483.8994, 15.61930
484.3815, 14.58266
484.8636, 13.36048
485.3457, 12.70820
485.8279, 12.85107
486.3100, 12.90685
486.7921, 12.58432
487.2742, 12.26406
487.7563, 12.29777
488.2384, 12.95793
488.7206, 13.51021
489.2027, 13.87490
489.6848, 14.07375
490.1669, 14.17911
490.6490, 14.20124
491.1311, 14.09489
491.6133, 13.75091
492.0954, 13.17536
492.5775, 12.89336
493.0596, 12.93799
493.5417, 13.14588
494.0238, 13.51256
494.5060, 13.94377
494.9881, 13.90518
495.4702, 13.01762
495.9523, 11.99191
496.4344, 12.00819
496.9165, 12.82338
497.3987, 13.52227
497.8808, 13.35941
498.3629, 12.98383
498.8450, 13.14650
499.3271, 13.93648
499.8092, 14.47137
500.2914, 13.81419
500.7735, 12.90591
501.2556, 12.63874
501.7377, 14.26570
502.2198, 15.31087
502.7019, 14.89685
503.1841, 13.49408
503.6662, 12.38849
504.1483, 11.41607
504.6304, 11.03657
505.1125, 11.68680
505.5946, 13.53088
506.0768, 14.22923
506.5589, 13.27366
507.0410, 11.91714
507.5231, 11.17055
508.0052, 11.11816
508.4873, 11.10381
508.9695, 11.00962
509.4516, 10.99886
509.9337, 11.57574
510.4158, 12.69370
510.8979, 13.45662
511.3800, 13.12778
511.8622, 12.28834
512.3443, 12.40281
512.8264, 13.41922
513.3085, 14.38902
513.7906, 14.54808
514.2728, 14.24541
514.7549, 13.91573
515.2370, 13.63109
515.7191, 13.36037
516.2012, 13.09338
516.6833, 12.82668
517.1655, 12.55053
517.6476, 11.92307
518.1297, 11.62256
518.6118, 12.18669
519.0939, 13.49934
519.5760, 14.22925
520.0582, 13.68197
520.5403, 12.97171
521.0224, 12.58052
521.5045, 12.66417
521.9866, 12.55675
522.4688, 12.01132
522.9509, 11.54750
523.4330, 11.98859
523.9151, 13.59051
524.3972, 14.66580
524.8793, 14.75715
525.3615, 14.17043
525.8436, 13.59760
526.3257, 13.03864
526.8078, 12.61194
527.2899, 12.47116
527.7720, 12.49312
528.2542, 12.34435
528.7363, 12.00248
529.2184, 11.76637
529.7005, 12.07790
530.1826, 12.59230
530.6647, 12.79169
531.1469, 12.21320
531.6290, 11.82373
532.1111, 12.52229
532.5932, 13.77403
533.0753, 14.48626
533.5574, 13.73262
534.0396, 12.97978
534.5217, 12.77709
535.0038, 13.18185
535.4859, 13.49596
535.9680, 13.65188
536.4501, 13.75969
536.9323, 13.94861
537.4144, 14.47969
537.8965, 14.24723
538.3786, 12.86541
538.8607, 11.21103
539.3428, 10.71520
539.8250, 11.45429
540.3071, 12.28200
540.7892, 12.95005
541.2713, 13.42954
541.7534, 13.50214
542.2355, 13.20909
542.7177, 12.98716
543.1998, 13.42348
543.6819, 13.99153
544.1640, 13.68169
544.6461, 12.37338
545.1282, 11.22975
545.6104, 11.33270
546.0925, 11.95186
546.5746, 12.25688
547.0567, 11.73461
547.5388, 11.26744
548.0209, 11.11585
548.5031, 11.23188
548.9852, 11.50453
549.4673, 12.00537
549.9494, 12.58074
550.4315, 13.36305
550.9136, 14.34874
551.3958, 14.55531
551.8779, 13.61801
552.3600, 12.51444
552.8421, 11.74338
553.3242, 11.27536
553.8063, 11.59478
554.2885, 12.96602
554.7706, 14.45186
555.2527, 14.70100
555.7348, 13.87459
556.2169, 12.90754
556.6990, 11.83298
557.1812, 11.08808
557.6633, 11.68241
558.1454, 13.26532
558.6275, 14.52121
559.1096, 14.55815
559.5917, 14.04518
560.0739, 13.38313
560.5560, 12.59595
561.0381, 12.00403
561.5202, 11.72269
562.0023, 11.70196
562.4844, 11.92281
562.9666, 12.66310
563.4487, 13.21604
563.9308, 13.36168
564.4129, 13.37907
564.8950, 13.72401
565.3771, 14.58959
565.8593, 15.35885
566.3414, 15.98001
566.8235, 16.38703
567.3056, 16.19523
567.7877, 15.33126
568.2698, 14.40580
568.7520, 13.61300
569.2341, 13.03636
569.7162, 13.18051
570.1983, 14.11103
570.6804, 14.92486
571.1625, 14.44188
571.6447, 13.35875
572.1268, 12.85306
572.6089, 13.44820
573.0910, 14.13991
573.5731, 14.29239
574.0552, 14.09936
574.5374, 13.90248
575.0195, 13.77654
575.5016, 13.70052
575.9837, 13.54301
576.4658, 13.34933
576.9479, 13.67498
577.4301, 15.32878
577.9122, 16.54461
578.3943, 16.34797
578.8764, 14.31688
579.3585, 13.36209
579.8406, 13.81416
580.3228, 14.60598
580.8049, 14.59237
581.2870, 13.82058
581.7691, 13.05614
582.2512, 12.34721
582.7333, 11.90152
583.2155, 12.18687
583.6975, 13.02083
584.1796, 13.84761
584.6617, 14.60958
585.1439, 15.09672
585.6260, 15.03066
586.1081, 14.48285
586.5902, 13.81610
587.0723, 12.84258
587.5544, 12.08121
588.0366, 11.85801
588.5187, 12.31156
589.0008, 12.86167
589.4829, 13.53986
589.9650, 14.22261
590.4471, 14.85718
590.9293, 15.62439
591.4114, 15.87477
591.8935, 15.37629
592.3756, 14.55318
592.8577, 14.17921
593.3398, 14.27913
593.8220, 14.44925
594.3041, 14.54095
594.7862, 14.63351
595.2683, 15.09460
595.7504, 15.83311
596.2325, 16.20886
596.7147, 15.32246
597.1968, 14.12046
597.6789, 13.84451
598.1610, 14.59943
598.6431, 15.18783
599.1252, 14.68315
599.6074, 13.87581
600.0895, 13.43692
600.5716, 13.83009
601.0537, 13.99404
601.5358, 13.36411
602.0179, 12.58244
602.5001, 12.53160
602.9822, 13.68622
603.4643, 14.62232
603.9464, 15.07902
604.4285, 15.16694
604.9106, 15.24697
605.3928, 15.32232
605.8749, 15.35315
606.3570, 15.31683
606.8391, 15.22029
607.3212, 15.03793
607.8033, 14.77702
608.2855, 14.60292
608.7676, 14.82214
609.2497, 15.12913
609.7318, 15.09841
610.2139, 14.61204
610.6960, 14.05952
611.1782, 13.45447
611.6603, 12.98343
612.1424, 12.83957
612.6245, 13.53309
613.1066, 13.99600
613.5887, 13.90242
614.0709, 13.52816
614.5530, 13.40541
615.0351, 13.54403
615.5172, 13.95009
615.9993, 14.81575
616.4814, 15.95272
616.9636, 16.22521
617.4457, 15.56180
617.9278, 14.85324
618.4099, 14.76500
618.8920, 15.05758
619.3741, 14.97700
619.8563, 14.48849
620.3384, 14.14178
620.8205, 14.68954
621.3026, 15.50760
621.7847, 15.76160
622.2668, 15.02218
622.7490, 14.41856
623.2311, 14.65239
623.7132, 15.23165
624.1953, 15.52730
624.6774, 15.01614
625.1595, 14.72895
625.6417, 14.81861
626.1238, 15.20812
626.6059, 15.73670
627.0880, 16.52882
627.5701, 17.08552
628.0522, 17.15036
628.5344, 16.83749
629.0165, 16.80817
629.4986, 17.07377
629.9807, 17.12939
630.4628, 16.28185
630.9449, 15.07035
631.4271, 14.46161
631.9092, 14.53307
632.3913, 15.06435
632.8734, 16.50379
633.3555, 18.02127
633.8376, 18.72363
634.3198, 17.98692
634.8019, 17.25636
635.2840, 16.88066
635.7661, 16.73742
636.2482, 16.63613
636.7303, 16.44263
637.2125, 16.52857
637.6946, 17.12098
638.1767, 17.95135
638.6588, 18.18154
639.1409, 17.71375
639.6230, 17.35540
640.1052, 17.56634
640.5873, 18.07333
641.0694, 17.95208
641.5515, 17.25683
642.0336, 16.61058
642.5157, 16.58920
642.9979, 16.76803
643.4800, 16.56742
643.9621, 15.91334
644.4442, 15.47341
644.9263, 15.85759
645.4084, 16.42106
645.8906, 16.61756
646.3727, 15.98989
646.8548, 15.68718
647.3369, 15.92539
647.8190, 16.40105
648.3011, 16.78124
648.7833, 17.08925
649.2654, 17.24437
649.7475, 17.26725
650.2296, 17.08973
650.7117, 16.37938
651.1938, 15.19743
651.6760, 14.35584
652.1581, 14.32530
652.6402, 14.70892
653.1223, 14.99414
653.6044, 15.18209
654.0865, 15.29346
654.5687, 15.46171
655.0508, 15.45779
655.5329, 14.93364
656.0150, 13.84424
656.4971, 13.25443
656.9792, 14.03635
657.4614, 14.86299
657.9435, 14.95687
658.4256, 13.99546
658.9077, 13.44369
659.3898, 13.41451
659.8719, 13.59592
660.3541, 13.71859
660.8362, 13.78078
661.3183, 13.70684
661.8004, 13.46637
662.2825, 13.15156
662.7646, 12.78012
663.2468, 12.43000
663.7289, 12.31288
664.2110, 12.74779
664.6931, 13.13285
665.1752, 12.97371
665.6573, 12.44413
666.1395, 11.95308
666.6216, 11.64943
667.1037, 11.37552
667.5858, 10.92280
668.0679, 10.37863
668.5500, 10.48457
669.0322, 11.60528
669.5143, 12.65502
669.9964, 13.09022
670.4785, 12.96123
670.9606, 13.19126
671.4427, 13.83597
671.9249, 14.28981
672.4070, 13.80280
672.8891, 12.82322
673.3712, 12.36273
673.8533, 12.55410
674.3354, 12.85772
674.8176, 12.81442
675.2997, 12.71176
675.7818, 12.89985
676.2639, 13.82648
676.7460, 14.35021
677.2281, 13.65785
677.7103, 12.66415
678.1924, 12.55324
678.6745, 13.97635
679.1566, 14.81769
679.6387, 14.61148
680.1208, 13.85379
680.6030, 13.68954
681.0851, 14.11695
681.5672, 14.38741
682.0493, 14.16953
682.5314, 13.69292
683.0135, 13.26369
683.4957, 12.90054
683.9778, 12.69395
684.4599, 12.90093
684.9420, 13.10878
685.4241, 12.96759
685.9063, 12.49944
686.3884, 12.14512
686.8705, 11.90966
687.3526, 11.92562
687.8347, 12.32664
688.3168, 13.20918
688.7990, 13.77337
689.2811, 13.94629
689.7632, 13.98548
690.2453, 14.12187
690.7274, 14.33574
691.2095, 14.38091
691.6917, 14.25222
692.1738, 13.88109
692.6559, 12.84150
693.1380, 11.60545
693.6201, 11.03898
694.1022, 11.51881
694.5844, 12.18673
695.0665, 12.74102
695.5486, 13.12609
696.0307, 13.27131
696.5128, 12.87410
696.9949, 12.60310
697.4771, 12.63213
697.9592, 12.77588
698.4413, 12.61395
698.9234, 12.02326
699.4055, 11.62679
699.8876, 11.62251
700.3698, 11.88416
700.8519, 12.21376
701.3340, 12.57145
701.8161, 12.67474
702.2982, 12.12002
702.7803, 11.40715
703.2625, 11.01371
703.7446, 10.93136
704.2267, 11.09932
704.7088, 11.68146
705.1909, 12.33942
705.6730, 12.98245
706.1552, 13.62084
706.6373, 13.86471
707.1194, 13.42278
707.6015, 12.99680
708.0836, 13.12098
708.5657, 13.85885
709.0479, 13.64273
709.5300, 12.30420
710.0121, 11.04889
710.4942, 11.21038
710.9763, 12.25712
711.4584, 13.05221
711.9406, 13.47599
712.4227, 13.39692
712.9048, 12.02151
713.3869, 10.43623
713.8690, 9.853133
714.3511, 11.34343
714.8333, 12.40041
715.3154, 12.13966
715.7975, 11.43879
716.2796, 11.22519
716.7617, 11.67493
717.2438, 12.11430
717.7260, 12.48889
718.2081, 12.77646
718.6902, 12.92393
719.1723, 12.93862
719.6544, 12.86936
720.1365, 12.74502
720.6187, 12.52368
721.1008, 11.98219
721.5829, 11.30614
722.0650, 10.91711
722.5471, 11.24157
723.0292, 11.65105
723.5114, 11.89820
723.9935, 12.00548
724.4756, 12.10034
724.9577, 12.21630
725.4398, 12.28522
725.9219, 12.33944
726.4041, 12.33389
726.8862, 11.81635
727.3683, 10.70146
727.8504, 10.01040
728.3325, 10.60114
728.8146, 11.92434
729.2968, 12.96439
729.7789, 13.70030
730.2610, 14.02697
730.7431, 13.63497
731.2252, 12.99066
731.7073, 12.32727
732.1895, 11.64345
732.6716, 11.30326
733.1537, 11.62305
733.6358, 12.08161
734.1179, 12.49091
734.6000, 12.89936
735.0822, 12.89391
735.5643, 12.37809
736.0464, 11.78024
736.5285, 11.37292
737.0106, 11.19441
737.4927, 11.54762
737.9749, 12.53011
738.4570, 13.36076
738.9391, 13.06905
739.4212, 12.37461
739.9033, 12.18730
740.3854, 13.10919
740.8676, 13.51731
741.3497, 12.18358
741.8318, 10.55343
742.3139, 10.17863
742.7960, 11.83640
743.2781, 12.76631
743.7603, 12.63833
744.2424, 11.99467
744.7245, 11.43169
745.2066, 10.99063
745.6887, 11.10308
746.1708, 12.12156
746.6530, 13.07828
747.1351, 12.55463
747.6172, 11.23978
748.0993, 10.34609
748.5814, 10.63618
749.0635, 11.05198
749.5457, 11.26584
750.0278, 11.35347
750.5099, 11.50716
750.9920, 12.03239
751.4741, 11.98929
751.9562, 10.90159
752.4384, 9.377616
752.9205, 9.138940
753.4026, 10.14709
753.8847, 11.10729
754.3668, 11.47830
754.8489, 11.57390
755.3311, 11.84601
755.8132, 12.22432
756.2953, 12.49463
756.7774, 12.35020
757.2595, 12.27979
757.7416, 12.78938
758.2238, 13.67106
758.7059, 13.75053
759.1880, 12.28165
759.6701, 11.14940
760.1522, 11.02436
760.6343, 11.68404
761.1165, 11.93992
761.5986, 11.77691
762.0807, 11.48700
762.5628, 10.92965
763.0449, 10.48104
763.5270, 11.14941
764.0092, 12.67953
764.4913, 13.71689
764.9734, 13.08791
765.4555, 12.08664
765.9376, 11.40342
766.4197, 11.07428
766.9019, 10.97111
767.3840, 11.36734
767.8661, 11.55438
768.3482, 11.01734
768.8303, 9.817244
769.3124, 9.824797
769.7946, 11.14448
770.2767, 12.38578
770.7588, 12.29495
771.2409, 11.56081
771.7230, 11.51547
772.2051, 12.17287
772.6873, 12.65868
773.1694, 12.44139
773.6515, 11.88570
774.1336, 11.08934
774.6157, 9.946136
775.0978, 9.394899
775.5800, 9.788218
776.0621, 10.32481
776.5442, 10.47767
777.0263, 10.21437
777.5084, 10.35387
777.9905, 10.92050
778.4727, 11.64848
778.9548, 12.73438
779.4369, 13.68425
779.9190, 13.32111
780.4011, 11.46582
780.8832, 9.962250
781.3654, 10.07810
781.8475, 10.81503
782.3296, 11.52774
782.8117, 12.24529
783.2938, 12.52754
783.7759, 12.18701
784.2581, 11.67137
784.7402, 11.27155
785.2223, 10.98812
785.7044, 10.88502
786.1865, 10.97093
786.6686, 11.18804
787.1508, 11.59780
787.6329, 12.05996
788.1150, 12.37396
788.5971, 12.50957
789.0792, 12.49732
789.5613, 12.18757
790.0435, 11.84668
790.5256, 11.73865
791.0077, 12.13370
791.4898, 11.99652
791.9719, 11.02058
792.4540, 10.02629
792.9362, 9.902207
793.4183, 10.55878
793.9004, 10.91642
794.3825, 10.86347
794.8646, 10.78799
795.3467, 11.30455
795.8289, 11.92598
796.3110, 11.86402
796.7931, 10.76042
797.2752, 9.962377
797.7573, 10.07665
798.2394, 10.61905
798.7216, 11.20656
799.2037, 11.95879
799.6858, 12.41475
800.1679, 12.52130
800.6500, 12.45222
801.1321, 12.38952
801.6143, 12.30711
802.0964, 11.98150
802.5785, 11.34468
803.0606, 10.89266
803.5427, 11.09171
804.0248, 11.70571
804.5070, 12.60921
804.9891, 14.09014
805.4712, 14.88332
805.9533, 14.10510
806.4354, 12.99620
806.9175, 12.40757
807.3997, 12.40301
807.8818, 12.76627
808.3639, 13.62928
808.8460, 14.33866
809.3281, 13.90895
809.8102, 12.82388
810.2924, 12.43335
810.7745, 12.99421
811.2566, 13.51729
811.7387, 13.21802
812.2208, 12.61346
812.7029, 12.19395
813.1851, 12.22075
813.6672, 11.86303
814.1493, 10.65781
814.6314, 9.575949
815.1135, 9.499814
815.5956, 10.47808
816.0778, 11.31686
816.5599, 11.98083
817.0420, 12.42935
817.5241, 12.53948
818.0062, 12.43970
818.4883, 12.31610
818.9705, 12.19172
819.4526, 12.06717
819.9347, 11.91621
820.4168, 11.78430
820.8989, 11.70305
821.3810, 11.66836
821.8632, 11.69895
822.3453, 11.80205
822.8274, 11.95595
823.3095, 12.19984
823.7916, 12.49471
824.2737, 12.54950
824.7559, 12.34839
825.2380, 12.19126
825.7201, 12.62241
826.2022, 13.03167
826.6843, 12.61938
827.1664, 11.16123
827.6486, 10.21607
828.1307, 10.75121
828.6128, 11.30651
829.0949, 11.04996
829.5770, 9.883353
830.0591, 9.528629
830.5413, 10.08153
831.0234, 10.88277
831.5055, 11.73406
831.9876, 12.39322
832.4697, 12.12146
832.9518, 10.98001
833.4340, 10.13926
833.9161, 10.57330
834.3982, 11.29372
834.8803, 11.72031
835.3624, 11.78860
835.8445, 11.78557
836.3267, 11.64766
836.8088, 11.56480
837.2909, 11.66027
837.7730, 11.89337
838.2551, 12.09879
838.7372, 12.26298
839.2194, 12.16535
839.7015, 11.22034
840.1836, 10.26675
840.6657, 10.36630
841.1478, 11.33351
841.6299, 11.91481
842.1121, 11.43761
842.5942, 10.78413
843.0763, 10.09488
843.5584, 9.458268
844.0405, 9.496503
844.5226, 10.31887
845.0048, 11.01512
845.4869, 11.03600
845.9690, 10.80814
846.4511, 11.29797
846.9332, 12.28163
847.4153, 13.01806
847.8975, 13.12426
848.3796, 12.91972
848.8617, 12.31774
849.3438, 11.51073
849.8259, 11.12465
850.3080, 11.30612
850.7902, 11.63519
851.2723, 12.13360
851.7544, 12.59703
852.2365, 12.39728
852.7186, 11.66906
853.2007, 11.23438
853.6829, 11.59275
854.1650, 12.02203
854.6471, 11.83713
855.1292, 11.29947
855.6113, 10.84737
856.0934, 10.32262
856.5756, 10.30791
857.0577, 11.19080
857.5398, 12.33095
858.0219, 12.79842
858.5040, 12.56043
858.9861, 12.20846
859.4683, 11.80804
859.9504, 11.43316
860.4325, 11.17214
860.9146, 11.00389
861.3967, 10.91029
861.8788, 10.92138
862.3610, 10.91071
862.8431, 10.89282
863.3252, 10.78830
863.8073, 10.44978
864.2894, 9.536588
864.7715, 9.593470
865.2537, 10.91622
865.7358, 12.33312
866.2179, 12.59031
866.7000, 12.03197
867.1821, 11.54407
867.6642, 11.21057
868.1464, 11.03456
868.6285, 11.08944
869.1106, 11.24735
869.5927, 11.47568
870.0748, 11.84116
870.5569, 11.80076
871.0391, 11.07769
871.5212, 10.46134
872.0033, 10.46879
872.4854, 11.01865
872.9675, 11.60942
873.4496, 12.22806
873.9318, 12.54953
874.4139, 12.03789
874.8960, 11.37309
875.3781, 11.23708
875.8602, 11.56810
876.3423, 11.70777
876.8245, 11.28806
877.3066, 10.89824
877.7887, 10.65610
878.2708, 10.57059
878.7529, 10.75715
879.2350, 11.21556
879.7172, 11.55626
880.1993, 11.47092
880.6814, 11.33678
881.1635, 11.95488
881.6456, 12.89814
882.1277, 13.16940
882.6099, 11.65412
883.0920, 10.29411
883.5741, 9.305919
884.0562, 8.917731
884.5383, 9.881303
885.0204, 12.61316
885.5026, 13.88138
885.9847, 12.81577
886.4668, 10.98008
886.9489, 10.45416
887.4310, 10.77205
887.9131, 11.00628
888.3953, 10.90891
888.8774, 10.74601
889.3595, 10.60606
889.8416, 10.47098
890.3237, 10.30502
890.8058, 10.02622
891.2880, 10.01173
891.7701, 10.35960
892.2522, 10.66614
892.7343, 10.41211
893.2164, 9.848205
893.6985, 9.626463
894.1807, 9.799569
894.6628, 10.23289
895.1449, 11.60951
895.6270, 12.59095
896.1091, 11.81116
896.5912, 9.019749
897.0734, 8.005039
897.5555, 9.525310
898.0376, 11.03514
898.5197, 11.24742
899.0018, 10.53574
899.4839, 10.15274
899.9661, 10.05519
900.4482, 9.991274
900.9303, 9.640741
901.4124, 9.445813
901.8945, 9.741544
902.3766, 10.43247
902.8588, 11.24251
903.3409, 12.46573
903.8230, 13.17458
904.3051, 13.14462
904.7872, 12.59264
905.2693, 11.68163
905.7515, 10.54378
906.2336, 10.03126
906.7157, 10.56860
907.1978, 11.25933
907.6799, 11.36721
908.1620, 11.16540
908.6442, 10.98156
909.1263, 10.88710
909.6084, 10.81875
910.0905, 10.84774
910.5726, 10.79942
911.0547, 10.41050
911.5369, 9.732969
912.0190, 9.421435
912.5011, 9.525251
912.9832, 9.659478
913.4653, 9.478912
913.9474, 9.197068
914.4296, 8.985532
914.9117, 8.860484
915.3938, 8.860384
915.8759, 8.975644
916.3580, 9.237519
916.8401, 9.720223
917.3223, 10.36336
917.8044, 10.95740
918.2865, 11.47003
918.7686, 11.44167
919.2507, 9.748477
919.7328, 8.155992
920.2150, 8.904693
920.6971, 11.10546
921.1792, 12.56385
921.6613, 12.02743
922.1434, 11.58032
922.6255, 11.61258
923.1077, 11.79752
923.5898, 11.50641
924.0719, 10.77339
924.5540, 10.12148
925.0361, 9.612164
925.5182, 9.385309
926.0004, 9.793277
926.4825, 10.45569
926.9646, 10.92482
927.4467, 11.09013
927.9288, 11.10216
928.4109, 10.76196
928.8931, 10.55748
929.3752, 10.93653
929.8573, 11.88025
930.3394, 12.57803
930.8215, 13.02496
931.3036, 12.87714
931.7858, 11.03536
932.2679, 9.093946
932.7500, 8.821937
933.2321, 10.06431
933.7142, 11.06372
934.1964, 11.47306
934.6785, 11.50520
935.1606, 11.01047
935.6427, 10.27658
936.1248, 10.37709
936.6069, 11.21727
937.0891, 11.54529
937.5712, 10.66153
938.0533, 9.655849
938.5354, 9.814829
939.0175, 10.46248
939.4996, 10.60371
939.9818, 9.223166
940.4639, 8.503020
940.9460, 8.712328
941.4281, 9.337393
941.9102, 9.922521
942.3923, 10.46976
942.8745, 11.05124
943.3566, 11.68410
943.8387, 12.11637
944.3208, 12.12904
944.8029, 11.85986
945.2850, 11.31967
945.7672, 10.50459
946.2493, 9.895273
946.7314, 9.478985
947.2135, 9.362906
947.6956, 9.740036
948.1777, 10.38262
948.6599, 10.35123
949.1420, 9.760104
949.6241, 9.248454
950.1062, 9.050942
950.5883, 9.110106
951.0704, 9.548824
951.5526, 10.18271
952.0347, 10.65369
952.5168, 10.90469
952.9989, 11.08112
953.4810, 11.24803
953.9631, 11.23462
954.4453, 10.49853
954.9274, 9.387061
955.4095, 9.303556
955.8916, 10.50923
956.3737, 11.64369
956.8558, 11.69430
957.3380, 11.41503
957.8201, 11.34188
958.3022, 11.51810
958.7843, 11.76103
959.2664, 12.17858
959.7485, 12.29864
960.2307, 11.66568
960.7128, 10.72517
961.1949, 10.60956
961.6770, 11.13150
962.1591, 11.62899
962.6412, 11.86740
963.1234, 11.93903
963.6055, 11.80731
964.0876, 11.55824
964.5697, 11.30448
965.0518, 11.00966
965.5339, 10.96418
966.0161, 11.29781
966.4982, 11.53481
966.9803, 10.74265
967.4624, 9.597276
967.9445, 9.401836
968.4266, 10.48925
968.9088, 11.31363
969.3909, 11.14717
969.8730, 10.68975
970.3551, 10.15547
970.8372, 9.588967
971.3193, 9.940098
971.8015, 11.25210
972.2836, 12.11631
972.7657, 11.14350
973.2478, 9.835455
973.7299, 10.22771
974.2120, 11.69623
974.6942, 12.69152
975.1763, 12.35612
975.6584, 12.03346
976.1405, 11.94949
976.6226, 11.90395
977.1047, 11.53897
977.5869, 10.89589
978.0690, 10.45958
978.5511, 10.30696
979.0332, 10.30330
979.5153, 10.38007
979.9974, 10.52371
980.4796, 10.77750
980.9617, 11.18064
981.4438, 11.32165
981.9259, 11.10081
982.4080, 10.80499
982.8901, 10.51952
983.3723, 10.27715
983.8544, 10.18988
984.3365, 10.24118
984.8186, 10.36243
985.3007, 10.64127
985.7828, 10.84773
986.2650, 10.88882
986.7471, 10.77466
987.2292, 10.49987
987.7113, 9.940076
988.1934, 9.726083
988.6755, 9.988389
989.1577, 10.30102
989.6398, 9.987805
990.1219, 9.479280
990.6040, 9.765215
991.0861, 10.97221
991.5682, 11.49765
992.0504, 9.570809
992.5325, 8.025824
993.0146, 8.337117
993.4967, 10.09819
993.9788, 11.18445
994.4609, 11.59724
994.9431, 11.35645
995.4252, 10.08864
995.9073, 8.748262
996.3894, 8.388225
996.8715, 8.657454
997.3536, 8.972198
997.8358, 9.217967
998.3179, 9.445944
998.8000, 9.602796
999.2821, 9.828537
999.7642, 10.44754
1000.246, 11.30471
1000.728, 11.43622
1001.211, 10.82019
1001.693, 10.10406
1002.175, 9.299615
1002.657, 8.904540
1003.139, 9.692320
1003.621, 11.36909
1004.103, 11.67714
1004.585, 10.07150
1005.068, 9.252705
1005.550, 10.24810
1006.032, 11.82417
1006.514, 11.95206
1006.996, 11.17997
1007.478, 10.68100
1007.960, 11.10897
1008.442, 10.98556
1008.924, 8.626502
1009.407, 6.638023
1009.889, 7.161133
1010.371, 10.34011
1010.853, 11.41726
1011.335, 10.38253
1011.817, 9.208567
1012.299, 9.184145
1012.781, 9.653308
1013.263, 10.26741
1013.746, 10.88915
1014.228, 11.09313
1014.710, 10.65226
1015.192, 10.11103
1015.674, 9.523988
1016.156, 8.909554
1016.638, 8.020669
1017.120, 7.122653
1017.603, 7.249585
1018.085, 8.714602
1018.567, 9.982113
1019.049, 9.795106
1019.531, 9.395682
1020.013, 9.797349
1020.495, 10.95475
1020.977, 11.18942
1021.459, 10.38680
1021.942, 9.678097
1022.424, 9.696989
1022.906, 9.972878
1023.388, 9.620726
1023.870, 9.079434
1024.352, 9.208039
1024.834, 11.38811
1025.316, 12.61013
1025.799, 12.30294
1026.281, 11.44261
1026.763, 10.99422
1027.245, 10.89533
1027.727, 10.69411
1028.209, 10.36738
1028.691, 9.993719
1029.173, 9.482108
1029.656, 9.071008
1030.138, 8.889370
1030.620, 8.958335
1031.102, 9.397202
1031.584, 10.41790
1032.066, 10.87957
1032.548, 10.33183
1033.030, 9.525974
1033.512, 9.749890
1033.995, 10.44484
1034.477, 10.53605
1034.959, 9.487222
1035.441, 8.990018
1035.923, 10.12630
1036.405, 11.14050
1036.887, 10.91516
1037.369, 9.654797
1037.851, 9.312440
1038.334, 9.791822
1038.816, 10.13211
1039.298, 9.326422
1039.780, 8.670443
1040.262, 9.348299
1040.744, 10.70998
1041.226, 11.46129
1041.708, 11.47411
1042.191, 11.04143
1042.673, 10.04215
1043.155, 9.123563
1043.637, 9.016294
1044.119, 9.416903
1044.601, 9.903326
1045.083, 10.42779
1045.565, 10.77010
1046.047, 10.85044
1046.530, 10.71034
1047.012, 10.24486
1047.494, 9.645136
1047.976, 9.570392
1048.458, 9.926889
1048.940, 9.913233
1049.422, 9.175669
1049.904, 8.452352
1050.386, 8.110336
1050.869, 8.176306
1051.351, 8.929876
1051.833, 10.67986
1052.315, 10.89901
1052.797, 9.199833
1053.279, 7.746401
1053.761, 8.116995
1054.243, 9.312994
1054.726, 9.753041
1055.208, 9.590450
1055.690, 9.231397
1056.172, 8.478137
1056.654, 8.020015
1057.136, 8.002483
1057.618, 8.215628
1058.100, 8.437964
1058.583, 8.675516
1059.065, 9.019546
1059.547, 9.471701
1060.029, 9.797011
1060.511, 9.799476
1060.993, 9.648261
1061.475, 9.316609
1061.957, 8.905043
1062.439, 8.858547
1062.922, 9.253534
1063.404, 9.525356
1063.886, 9.504197
1064.368, 9.390671
1064.850, 9.541748
1065.332, 9.704945
1065.814, 9.415524
1066.296, 8.353619
1066.778, 7.982337
1067.261, 8.773939
1067.743, 9.611731
1068.225, 9.949747
1068.707, 9.896805
1069.189, 9.663865
1069.671, 9.329425
1070.153, 9.175463
1070.635, 9.234678
1071.118, 9.627796
1071.600, 10.98023
1072.082, 12.29213
1072.564, 12.41432
1073.046, 11.21732
1073.528, 10.45998
1074.010, 10.21098
1074.492, 10.10054
1074.974, 9.763763
1075.457, 9.514200
1075.939, 9.930037
1076.421, 9.415791
1076.903, 10.58487
1077.385, 8.947167
1077.867, 7.857368
1078.349, 7.717369
1078.831, 8.064844
1079.313, 8.438084
1079.796, 8.810471
1080.278, 9.164887
1080.760, 9.508447
1081.242, 9.683775
1081.724, 9.333690
1082.206, 9.202820
1082.688, 9.795908
1083.170, 10.66217
1083.652, 9.873188
1084.135, 7.871820
1084.617, 7.106998
1085.099, 8.942771
1085.581, 10.68975
1086.063, 10.42242
1086.545, 9.488966
1087.027, 9.132411
1087.509, 9.425676
1087.992, 9.803933
1088.474, 10.28842
1088.956, 10.53455
1089.438, 10.24588
1089.920, 9.688047
1090.402, 8.735751
1090.884, 7.793205
1091.366, 7.788208
1091.849, 9.690797
1092.331, 10.82162
1092.813, 10.90945
1093.295, 10.60071
1093.777, 10.40490
1094.259, 10.32916
1094.741, 10.51408
1095.223, 10.89362
1095.705, 10.98410
1096.188, 10.23210
1096.670, 9.616523
1097.152, 9.391803
1097.634, 9.425922
1098.116, 9.488279
1098.598, 9.590689
1099.080, 9.908813
1099.562, 10.52287
1100.044, 10.75875
1100.527, 9.629618
1101.009, 8.462121
1101.491, 8.253241
1101.973, 8.819416
1102.455, 9.065951
1102.937, 8.986370
1103.419, 8.840487
1103.901, 8.751313
1104.384, 8.538758
1104.866, 7.711354
1105.348, 6.819964
1105.830, 6.597939
1106.312, 7.380073
1106.794, 7.743285
1107.276, 7.498663
1107.758, 7.525627
1108.240, 8.651606
1108.723, 10.09763
1109.205, 10.48574
1109.687, 10.12539
1110.169, 9.738339
1110.651, 9.356181
1111.133, 9.276808
1111.615, 9.592946
1112.097, 10.06981
1112.579, 10.64637
1113.062, 11.19956
1113.544, 11.24909
1114.026, 10.81758
1114.508, 10.14124
1114.990, 8.836112
1115.472, 7.926178
1115.954, 7.976598
1116.436, 8.485005
1116.919, 8.810376
1117.401, 8.948956
1117.883, 8.628111
1118.365, 7.790071
1118.847, 7.324316
1119.329, 8.495294
1119.811, 9.733263
1120.293, 9.662321
1120.776, 8.678909
1121.258, 8.687435
1121.740, 9.883968
1122.222, 10.00644
1122.704, 8.193469
1123.186, 6.520125
1123.668, 7.753258
1124.150, 9.923693
1124.632, 10.81801
1125.115, 9.984046
1125.597, 9.427775
1126.079, 9.218366
1126.561, 9.152312
1127.043, 9.190078
1127.525, 9.264522
1128.007, 9.216833
1128.489, 9.141691
1128.971, 9.217419
1129.454, 9.563785
1129.936, 9.856803
1130.418, 10.12048
1130.900, 10.22768
1131.382, 10.07784
1131.864, 9.728468
1132.346, 9.187069
1132.828, 8.578262
1133.311, 8.299529
1133.793, 8.824866
1134.275, 9.267467
1134.757, 9.428340
1135.239, 9.445397
1135.721, 9.423841
1136.203, 9.360338
1136.685, 9.216801
1137.167, 8.996598
1137.650, 8.741755
1138.132, 8.501997
1138.614, 8.205576
1139.096, 7.541596
1139.578, 6.955483
1140.060, 7.263072
1140.542, 8.485063
1141.024, 8.912369
1141.506, 8.393914
1141.989, 7.975555
1142.471, 8.786759
1142.953, 9.659503
1143.435, 9.571560
1143.917, 8.864356
1144.399, 8.852498
1144.881, 9.675814
1145.363, 10.07505
1145.846, 9.766632
1146.328, 9.409225
1146.810, 9.810856
1147.292, 10.38159
1147.774, 10.47568
1148.256, 10.68799
1148.738, 10.87154
1149.220, 10.55047
1149.703, 10.69811
1150.185, 10.14235
1150.667, 9.289145
1151.149, 8.422816
1151.631, 7.712947
1152.113, 7.460924
1152.595, 7.795949
1153.077, 7.932307
1153.559, 7.625697
1154.042, 7.673623
1154.524, 8.618718
1155.006, 9.772058
1155.488, 9.567496
1155.970, 8.696548
1156.452, 8.629375
1156.934, 10.26036
1157.416, 10.98131
1157.898, 10.13984
1158.381, 9.089103
1158.863, 8.459948
1159.345, 8.231132
1159.827, 8.523153
1160.309, 9.162130
1160.791, 9.684767
1161.273, 10.07016
1161.755, 10.01728
1162.238, 9.078038
1162.720, 8.231096
1163.202, 8.268711
1163.684, 9.029478
1164.166, 9.895390
1164.648, 10.75008
1165.130, 11.05214
1165.612, 10.01669
1166.094, 9.045422
1166.577, 8.486773
1167.059, 8.266517
1167.541, 8.419363
1168.023, 8.901768
1168.505, 9.426059
1168.987, 9.940888
1169.469, 10.08535
1169.951, 9.293242
1170.433, 8.488399
1170.916, 7.989195
1171.398, 7.774919
1171.880, 7.971408
1172.362, 8.542343
1172.844, 8.606314
1173.326, 8.112638
1173.808, 7.749530
1174.290, 8.085993
1174.773, 8.601048
1175.255, 9.128083
1175.737, 9.572370
1176.219, 9.768476
1176.701, 9.718085
1177.183, 9.192279
1177.665, 8.109506
1178.147, 7.427078
1178.630, 8.457493
1179.112, 9.641406
1179.594, 9.747546
1180.076, 9.097707
1180.558, 8.780730
1181.040, 8.804462
1181.522, 9.006840
1182.004, 9.387218
1182.486, 9.727355
1182.969, 10.03980
1183.451, 10.06037
1183.933, 9.255466
1184.415, 7.848384
1184.897, 7.429697
1185.379, 8.095891
1185.861, 8.594358
1186.343, 8.518193
1186.825, 8.531552
1187.308, 9.686468
1187.790, 10.95703
1188.272, 11.18369
1188.754, 10.35658
1189.236, 9.992152
1189.718, 10.15916
1190.200, 10.16109
1190.682, 9.732383
1191.165, 9.183106
1191.647, 8.736335
1192.129, 8.415014
1192.611, 8.246511
1193.093, 8.236070
1193.575, 8.408849
1194.057, 8.806944
1194.539, 9.080398
1195.021, 9.069443
1195.504, 8.925708
1195.986, 8.667414
1196.468, 8.459438
1196.950, 8.532878
1197.432, 8.932087
1197.914, 9.544168
1198.396, 10.47407
1198.878, 10.86865
1199.360, 10.05688
1199.843, 8.919463
1200.325, 8.307438
1200.807, 8.121906
1201.289, 8.330347
1201.771, 9.089464
1202.253, 9.350364
1202.735, 9.022920
1203.217, 8.778632
1203.700, 8.987155
1204.182, 9.479493
1204.664, 10.25411
1205.146, 11.10768
1205.628, 11.76440
1206.110, 12.37355
1206.592, 11.94838
1207.074, 10.23223
1207.557, 9.119397
1208.039, 10.75216
1208.521, 12.71824
1209.003, 12.06767
1209.485, 9.906507
1209.967, 8.210489
1210.449, 7.057158
1210.931, 6.816856
1211.413, 7.645659
1211.896, 8.360747
1212.378, 7.939873
1212.860, 7.159537
1213.342, 6.606653
1213.824, 6.376093
1214.306, 6.750522
1214.788, 7.988657
1215.270, 8.917424
1215.752, 9.516230
1216.235, 9.759365
1216.717, 9.378277
1217.199, 8.853558
1217.681, 8.605098
1218.163, 8.598481
1218.645, 8.784723
1219.127, 9.278842
1219.609, 9.366750
1220.092, 8.966182
1220.574, 8.675084
1221.056, 9.161580
1221.538, 9.797446
1222.020, 10.13338
1222.502, 10.12416
1222.984, 9.637141
1223.466, 8.421011
1223.948, 8.084698
1224.431, 8.773420
1224.913, 9.677127
1225.395, 10.43045
1225.877, 10.85955
1226.359, 10.69638
1226.841, 10.11598
1227.323, 9.551417
1227.805, 8.973086
1228.287, 8.682077
1228.770, 8.710951
1229.252, 8.793740
1229.734, 8.682544
1230.216, 8.580603
1230.698, 8.836753
1231.180, 9.146122
1231.662, 8.592484
1232.144, 7.009473
1232.627, 7.203268
1233.109, 9.463818
1233.591, 11.38612
1234.073, 10.66497
1234.555, 9.524377
1235.037, 9.533757
1235.519, 10.09931
1236.001, 9.965531
1236.484, 9.133722
1236.966, 8.841907
1237.448, 9.200707
1237.930, 9.679423
1238.412, 10.08894
1238.894, 10.33251
1239.376, 10.38100
1239.858, 10.20700
1240.340, 9.564017
1240.823, 8.538973
1241.305, 8.010756
1241.787, 8.063224
1242.269, 8.495287
1242.751, 9.805928
1243.233, 10.70599
1243.715, 10.38036
1244.197, 9.570386
1244.679, 9.425550
1245.162, 9.823226
1245.644, 10.22399
1246.126, 10.55948
1246.608, 10.55578
1247.090, 9.650450
1247.572, 8.919399
1248.054, 8.736894
1248.536, 8.832519
1249.019, 8.907747
1249.501, 8.913426
1249.983, 8.466422
1250.465, 7.626283
1250.947, 7.410215
1251.429, 9.060617
1251.911, 10.26447
1252.393, 10.48073
1252.875, 10.18591
1253.358, 9.870349
1253.840, 9.586436
1254.322, 9.431828
1254.804, 9.418341
1255.286, 9.573996
1255.768, 10.07893
1256.250, 10.49654
1256.732, 10.84408
1257.214, 10.86413
1257.697, 9.801044
1258.179, 8.437813
1258.661, 8.212180
1259.143, 9.008194
1259.625, 9.444701
1260.107, 9.238226
1260.589, 8.890745
1261.071, 8.381550
1261.554, 8.130826
1262.036, 8.836852
1262.518, 9.870976
1263.000, 10.77349
1263.482, 11.35764
1263.964, 10.92832
1264.446, 9.077285
1264.928, 8.029772
1265.411, 8.103189
1265.893, 8.726321
1266.375, 9.986857
1266.857, 11.03693
1267.339, 10.89978
1267.821, 9.957797
1268.303, 9.550220
1268.785, 9.742295
1269.267, 9.380907
1269.750, 8.311476
1270.232, 7.820134
1270.714, 9.882076
1271.196, 11.78644
1271.678, 11.29596
1272.160, 9.724367
1272.642, 9.134870
1273.124, 9.457058
1273.606, 9.721584
1274.089, 9.835176
1274.571, 9.657501
1275.053, 8.472445
1275.535, 7.803650
1276.017, 8.485983
1276.499, 9.616211
1276.981, 10.09956
1277.463, 10.00235
1277.946, 9.331045
1278.428, 8.221527
1278.910, 7.523871
1279.392, 7.863057
1279.874, 8.384814
1280.356, 9.095788
1280.838, 9.611505
1281.320, 9.300681
1281.802, 8.589252
1282.285, 8.341557
1282.767, 8.523787
1283.249, 8.824304
1283.731, 9.261824
1284.213, 9.643068
1284.695, 9.981029
1285.177, 10.15425
1285.659, 10.20757
1286.141, 9.326864
1286.624, 10.08267
1287.106, 9.772207
1287.588, 9.669777
1288.070, 10.15751
1288.552, 9.502775
1289.034, 9.871106
1289.516, 10.40914
1289.998, 10.63905
1290.481, 10.60104
1290.963, 9.951418
1291.445, 9.245688
1291.927, 9.486501
1292.409, 10.76259
1292.891, 11.39902
1293.373, 11.37971
1293.855, 11.09057
1294.338, 10.31756
1294.820, 9.868990
1295.302, 10.58141
1295.784, 11.41101
1296.266, 11.31334
1296.748, 10.47644
1297.230, 10.26367
1297.712, 10.53687
1298.194, 10.64861
1298.677, 9.820949
1299.159, 9.605061
1299.641, 10.56277
1300.123, 11.45928
1300.605, 11.23501
1301.087, 10.33902
1301.569, 9.626536
1302.051, 9.154789
1302.533, 9.021922
1303.016, 9.274227
##END=



