##NAMES=Luzonite
##RRUFFID=R070247
##IDEAL CHEMISTRY=Cu_3_AsS^2-^_4_
##LOCALITY=Huaron Mining District, San Jose de Huayllay district, Cerro de Pasco, Alcides Carrión Province, Pasco department, Peru
##OWNER=RRUFF
##SOURCE=Michael Scott
##DESCRIPTION=Black metallic crystals with pinkish hue. The electron microscope image shows three distinct fine-scale phases related to As and Sb content
##STATUS=The identification of this mineral is confirmed by single-crystal X-ray diffraction and chemical analysis.
##URL=rruff.info/R070247
##MEASURED CHEMISTRY=Cu_3.01_(As_0.67_Sb_0.31_)_Σ=0.98_S_4_; (Light), Cu_3.00_(As_0.74_Sb_0.22_)_Σ=0.96_S_4_ (Inter. gray), Cu_3.01_(As_0.84_Sb_0.16_)_Σ=1.00_S_4_ (Dark)
152.3570, 446.8517
152.8391, 442.7122
153.3212, 444.6629
153.8033, 453.3853
154.2855, 460.9671
154.7676, 459.0471
155.2497, 450.1624
155.7318, 445.3366
156.2139, 449.5024
156.6960, 456.9712
157.1782, 460.9087
157.6603, 460.5161
158.1424, 459.8734
158.6245, 462.5422
159.1066, 467.4174
159.5887, 471.9699
160.0709, 475.5208
160.5530, 478.4052
161.0351, 481.1493
161.5172, 483.8743
161.9993, 485.9931
162.4814, 485.5000
162.9636, 484.0794
163.4457, 485.1640
163.9278, 491.3893
164.4099, 500.4478
164.8920, 508.1185
165.3741, 513.9871
165.8563, 519.5718
166.3384, 525.6414
166.8205, 532.0901
167.3026, 538.8137
167.7847, 545.8564
168.2668, 553.1469
168.7490, 561.2930
169.2311, 572.0760
169.7132, 579.5109
170.1953, 577.3260
170.6774, 570.4554
171.1595, 566.8801
171.6417, 572.4315
172.1238, 582.7064
172.6059, 585.4539
173.0880, 575.5408
173.5701, 568.4914
174.0522, 573.1252
174.5344, 584.2505
175.0165, 594.6237
175.4986, 600.8396
175.9807, 604.0132
176.4628, 607.4668
176.9449, 612.2827
177.4271, 615.2072
177.9092, 613.3003
178.3913, 609.4467
178.8734, 607.6929
179.3555, 610.4408
179.8376, 616.1530
180.3197, 620.2899
180.8019, 622.1005
181.2840, 623.5593
181.7661, 625.8585
182.2482, 628.0999
182.7303, 628.6804
183.2124, 626.1871
183.6946, 622.5649
184.1767, 623.8114
184.6588, 633.0811
185.1409, 641.8786
185.6230, 648.0300
186.1051, 652.4760
186.5873, 656.2912
187.0694, 659.9546
187.5515, 663.3109
188.0336, 666.1968
188.5157, 669.4781
188.9978, 670.4835
189.4800, 665.9793
189.9621, 660.3891
190.4442, 658.7922
190.9263, 663.7036
191.4084, 672.1995
191.8905, 677.0392
192.3727, 675.8066
192.8548, 675.0809
193.3369, 675.9949
193.8190, 677.8560
194.3011, 679.9977
194.7832, 682.1544
195.2654, 684.5385
195.7475, 687.7144
196.2296, 692.5476
196.7117, 696.5632
197.1938, 698.7754
197.6759, 700.5444
198.1581, 703.5233
198.6402, 708.2086
199.1223, 712.9082
199.6044, 714.3394
200.0865, 711.0287
200.5686, 707.1415
201.0508, 702.4689
201.5329, 697.8331
202.0150, 693.3745
202.4971, 689.2707
202.9792, 686.5792
203.4613, 687.1783
203.9435, 692.2972
204.4256, 698.1401
204.9077, 707.9389
205.3898, 716.0115
205.8719, 717.1036
206.3540, 710.8119
206.8362, 702.2801
207.3183, 698.7631
207.8004, 702.7989
208.2825, 705.5632
208.7646, 705.6076
209.2467, 705.5939
209.7289, 707.8516
210.2110, 712.1783
210.6931, 715.9320
211.1752, 715.4609
211.6573, 708.8589
212.1395, 705.0959
212.6216, 706.8221
213.1037, 708.9282
213.5858, 708.8741
214.0679, 706.7200
214.5500, 703.9744
215.0322, 701.6664
215.5143, 699.3548
215.9964, 700.6476
216.4785, 712.8733
216.9606, 721.8901
217.4427, 718.5797
217.9249, 706.6039
218.4070, 697.2048
218.8891, 700.7759
219.3712, 717.8315
219.8533, 729.1306
220.3354, 730.2323
220.8176, 729.5117
221.2997, 728.1982
221.7818, 726.7553
222.2639, 725.3919
222.7460, 724.0998
223.2281, 723.0231
223.7103, 723.8461
224.1924, 729.3275
224.6745, 733.7798
225.1566, 735.3151
225.6387, 735.2297
226.1208, 735.2628
226.6030, 736.2700
227.0851, 738.4734
227.5672, 743.2479
228.0493, 756.8979
228.5314, 764.2264
229.0135, 757.3137
229.4957, 745.1019
229.9778, 738.1373
230.4599, 741.2802
230.9420, 750.5691
231.4241, 755.8841
231.9062, 752.4663
232.3884, 753.4077
232.8705, 764.6841
233.3526, 778.0134
233.8347, 785.5981
234.3168, 784.9707
234.7989, 780.6895
235.2811, 780.1383
235.7632, 783.3809
236.2453, 790.6007
236.7274, 805.4001
237.2095, 821.2079
237.6916, 834.2441
238.1738, 843.5618
238.6559, 850.0229
239.1380, 853.4929
239.6201, 851.9113
240.1022, 855.1551
240.5843, 868.5328
241.0665, 882.7322
241.5486, 893.0641
242.0307, 899.6433
242.5128, 905.7292
242.9949, 915.0952
243.4770, 928.2853
243.9592, 938.2469
244.4413, 939.4168
244.9234, 942.6940
245.4055, 954.2420
245.8876, 971.5388
246.3697, 987.4521
246.8519, 995.9562
247.3340, 998.2551
247.8161, 1004.876
248.2982, 1018.889
248.7803, 1033.443
249.2624, 1046.674
249.7446, 1058.764
250.2267, 1069.895
250.7088, 1079.977
251.1909, 1089.485
251.6730, 1100.338
252.1551, 1114.629
252.6373, 1125.897
253.1194, 1131.720
253.6015, 1134.009
254.0836, 1133.548
254.5657, 1129.726
255.0478, 1126.680
255.5300, 1132.873
256.0121, 1151.802
256.4942, 1166.591
256.9763, 1171.229
257.4584, 1170.433
257.9406, 1166.227
258.4227, 1158.903
258.9048, 1150.765
259.3869, 1142.796
259.8690, 1134.785
260.3511, 1132.309
260.8333, 1143.434
261.3154, 1154.176
261.7975, 1153.325
262.2796, 1141.085
262.7617, 1127.540
263.2438, 1119.803
263.7260, 1116.963
264.2081, 1113.960
264.6902, 1110.675
265.1723, 1106.506
265.6544, 1100.091
266.1365, 1092.269
266.6187, 1086.003
267.1008, 1081.463
267.5829, 1079.636
268.0650, 1085.223
268.5471, 1101.964
269.0292, 1114.209
269.5114, 1103.725
269.9935, 1081.849
270.4756, 1067.892
270.9577, 1070.674
271.4398, 1080.242
271.9219, 1086.045
272.4041, 1087.997
272.8862, 1089.460
273.3683, 1093.304
273.8504, 1096.934
274.3325, 1095.061
274.8146, 1083.524
275.2968, 1073.605
275.7789, 1074.967
276.2610, 1084.952
276.7431, 1092.384
277.2252, 1092.553
277.7073, 1089.459
278.1895, 1090.719
278.6716, 1097.946
279.1537, 1101.524
279.6358, 1095.442
280.1179, 1084.011
280.6000, 1075.658
281.0822, 1072.857
281.5643, 1069.122
282.0464, 1054.036
282.5285, 1026.092
283.0106, 1007.182
283.4927, 1006.427
283.9749, 1011.540
284.4570, 1012.822
284.9391, 1009.149
285.4212, 1001.356
285.9033, 988.9276
286.3854, 972.1056
286.8676, 959.9226
287.3497, 952.5694
287.8318, 949.1350
288.3139, 951.1758
288.7960, 956.9706
289.2781, 962.0245
289.7603, 963.5936
290.2424, 962.9631
290.7245, 965.5876
291.2066, 976.3596
291.6887, 984.1385
292.1708, 983.0657
292.6530, 979.5814
293.1351, 982.4646
293.6172, 994.7076
294.0993, 1011.613
294.5814, 1024.951
295.0635, 1033.723
295.5457, 1040.338
296.0278, 1041.094
296.5099, 1042.464
296.9920, 1050.034
297.4741, 1063.750
297.9562, 1078.333
298.4384, 1087.229
298.9205, 1088.050
299.4026, 1100.423
299.8847, 1139.474
300.3668, 1174.617
300.8489, 1190.487
301.3311, 1194.290
301.8131, 1202.176
302.2953, 1224.853
302.7774, 1260.121
303.2595, 1296.995
303.7416, 1336.399
304.2237, 1376.163
304.7058, 1415.945
305.1880, 1455.734
305.6701, 1493.923
306.1522, 1529.687
306.6343, 1568.298
307.1164, 1620.395
307.5985, 1690.071
308.0807, 1757.220
308.5628, 1811.781
309.0449, 1867.280
309.5270, 1931.935
310.0091, 2006.455
310.4912, 2084.257
310.9734, 2160.487
311.4555, 2235.356
311.9376, 2309.191
312.4197, 2379.371
312.9018, 2452.161
313.3839, 2530.271
313.8661, 2613.700
314.3482, 2701.973
314.8303, 2797.634
315.3124, 2896.873
315.7945, 2991.910
316.2766, 3081.377
316.7588, 3174.043
317.2409, 3275.792
317.7230, 3382.693
318.2051, 3487.404
318.6872, 3585.762
319.1693, 3686.589
319.6515, 3798.779
320.1336, 3919.217
320.6157, 4037.491
321.0978, 4152.077
321.5799, 4258.426
322.0620, 4351.337
322.5442, 4432.299
323.0263, 4497.742
323.5084, 4545.385
323.9905, 4577.737
324.4726, 4603.453
324.9547, 4623.908
325.4369, 4619.523
325.9190, 4570.323
326.4011, 4471.240
326.8832, 4354.474
327.3653, 4214.389
327.8474, 4062.159
328.3296, 3905.568
328.8117, 3741.947
329.2938, 3561.921
329.7759, 3357.743
330.2580, 3134.894
330.7401, 2924.776
331.2223, 2725.623
331.7044, 2540.405
332.1865, 2371.221
332.6686, 2214.757
333.1507, 2065.637
333.6328, 1923.124
334.1150, 1792.971
334.5971, 1683.243
335.0792, 1597.225
335.5613, 1525.486
336.0434, 1478.563
336.5255, 1434.910
337.0077, 1380.698
337.4898, 1319.368
337.9719, 1264.433
338.4540, 1227.578
338.9361, 1207.062
339.4182, 1187.102
339.9004, 1165.724
340.3825, 1148.372
340.8646, 1136.446
341.3467, 1128.876
341.8288, 1124.691
342.3109, 1123.735
342.7931, 1124.870
343.2752, 1126.485
343.7573, 1128.524
344.2394, 1131.374
344.7215, 1133.548
345.2036, 1138.084
345.6858, 1147.650
346.1679, 1162.329
346.6500, 1179.237
347.1321, 1196.942
347.6142, 1215.460
348.0963, 1235.342
348.5785, 1257.200
349.0606, 1278.815
349.5427, 1298.931
350.0248, 1317.487
350.5069, 1333.823
350.9890, 1351.378
351.4712, 1363.916
351.9533, 1363.806
352.4354, 1353.097
352.9175, 1342.754
353.3996, 1338.469
353.8817, 1337.110
354.3639, 1330.046
354.8460, 1315.616
355.3281, 1300.582
355.8102, 1286.214
356.2923, 1272.133
356.7744, 1258.318
357.2566, 1244.638
357.7387, 1230.561
358.2208, 1215.361
358.7029, 1198.646
359.1850, 1182.838
359.6671, 1167.798
360.1493, 1153.698
360.6314, 1139.333
361.1135, 1126.013
361.5956, 1117.077
362.0777, 1114.898
362.5598, 1117.006
363.0420, 1114.538
363.5241, 1107.360
364.0062, 1095.161
364.4883, 1071.824
364.9704, 1047.852
365.4525, 1033.690
365.9347, 1030.877
366.4168, 1030.228
366.8989, 1021.174
367.3810, 1003.091
367.8631, 985.6784
368.3452, 968.8835
368.8274, 953.3138
369.3095, 938.9232
369.7916, 925.7889
370.2737, 914.4245
370.7558, 906.9108
371.2379, 899.7759
371.7201, 884.9193
372.2022, 861.0268
372.6843, 842.5911
373.1664, 839.3025
373.6485, 843.0732
374.1306, 841.2472
374.6128, 832.2719
375.0949, 821.9988
375.5770, 812.5936
376.0591, 804.2227
376.5412, 797.8311
377.0233, 793.8726
377.5055, 789.8188
377.9876, 782.6674
378.4697, 772.0131
378.9518, 763.3277
379.4339, 758.8386
379.9160, 754.4131
380.3982, 747.1038
380.8803, 737.7906
381.3624, 729.1149
381.8445, 722.4275
382.3266, 717.6078
382.8087, 714.2095
383.2909, 711.8909
383.7730, 711.7628
384.2551, 716.5179
384.7372, 721.6986
385.2193, 724.0829
385.7014, 722.9586
386.1836, 718.9796
386.6657, 712.1635
387.1478, 702.2896
387.6299, 694.2807
388.1120, 687.6387
388.5941, 683.6960
389.0763, 685.2182
389.5584, 689.0667
390.0405, 690.0582
390.5226, 685.4037
391.0047, 678.6987
391.4868, 676.4089
391.9690, 679.2654
392.4511, 679.4954
392.9332, 673.2823
393.4153, 665.1852
393.8974, 659.0805
394.3795, 655.0347
394.8617, 652.9322
395.3438, 652.4961
395.8259, 654.0295
396.3080, 659.7344
396.7901, 670.1663
397.2722, 677.9705
397.7544, 677.4186
398.2365, 669.6710
398.7186, 662.6406
399.2007, 655.0539
399.6828, 649.6287
400.1649, 648.1138
400.6471, 649.3033
401.1292, 651.9927
401.6113, 655.8165
402.0934, 658.7083
402.5755, 657.2486
403.0576, 648.9228
403.5398, 643.9669
404.0219, 644.1757
404.5040, 645.5382
404.9861, 645.4593
405.4682, 644.7677
405.9503, 646.2141
406.4325, 651.8632
406.9146, 660.1879
407.3967, 665.9518
407.8788, 669.5624
408.3609, 669.5434
408.8430, 662.4261
409.3252, 653.9818
409.8073, 649.1992
410.2894, 648.6641
410.7715, 648.3766
411.2536, 643.1357
411.7357, 634.6316
412.2179, 632.4161
412.7000, 638.9550
413.1821, 647.3605
413.6642, 655.6848
414.1463, 662.3026
414.6284, 662.5799
415.1106, 650.2474
415.5927, 637.9835
416.0748, 637.5927
416.5569, 645.1504
417.0390, 647.2879
417.5211, 638.3211
418.0033, 626.6533
418.4854, 625.8539
418.9675, 641.2623
419.4496, 649.1976
419.9317, 641.8679
420.4138, 632.5390
420.8960, 630.1702
421.3781, 633.9233
421.8602, 638.5923
422.3423, 640.9210
422.8244, 641.3517
423.3065, 641.7819
423.7887, 642.2122
424.2708, 642.6427
424.7529, 644.7686
425.2350, 645.7851
425.7171, 642.3473
426.1992, 634.5472
426.6814, 626.6545
427.1635, 622.2029
427.6456, 621.1038
428.1277, 623.2070
428.6098, 630.4001
429.0919, 637.1656
429.5741, 641.9894
430.0562, 644.2917
430.5383, 642.2342
431.0204, 633.4864
431.5025, 624.4194
431.9846, 619.4608
432.4668, 618.4203
432.9489, 621.7905
433.4310, 630.9547
433.9131, 640.2415
434.3952, 642.3699
434.8773, 636.4744
435.3595, 631.9224
435.8416, 629.7310
436.3237, 628.5367
436.8058, 627.4681
437.2879, 626.6956
437.7701, 627.2567
438.2522, 629.8609
438.7343, 632.9273
439.2164, 631.8252
439.6985, 619.4446
440.1806, 615.9335
440.6628, 629.8448
441.1449, 644.8762
441.6270, 649.3106
442.1091, 644.4140
442.5912, 639.7287
443.0733, 643.1013
443.5555, 652.0059
444.0376, 656.2450
444.5197, 654.0873
445.0018, 652.1397
445.4839, 655.7899
445.9660, 659.3210
446.4482, 655.4596
446.9303, 642.1904
447.4124, 630.6738
447.8945, 628.5249
448.3766, 632.8204
448.8587, 638.5162
449.3409, 645.1857
449.8230, 650.3444
450.3051, 652.0588
450.7872, 650.3846
451.2693, 647.2840
451.7514, 640.1748
452.2336, 634.7435
452.7157, 634.2045
453.1978, 635.9911
453.6799, 636.3868
454.1620, 634.3704
454.6441, 631.7432
455.1263, 630.8228
455.6084, 631.8558
456.0905, 633.1987
456.5726, 635.2614
457.0547, 637.2106
457.5368, 639.9043
458.0190, 642.0438
458.5011, 640.9056
458.9832, 634.7220
459.4653, 627.8860
459.9474, 627.0997
460.4295, 632.4509
460.9117, 638.4681
461.3938, 646.1944
461.8759, 651.3695
462.3580, 648.0180
462.8401, 638.0161
463.3222, 631.3634
463.8044, 633.8336
464.2865, 638.3516
464.7686, 638.3915
465.2507, 634.8790
465.7328, 631.8501
466.2149, 631.0021
466.6971, 631.7513
467.1792, 633.0915
467.6613, 635.8575
468.1434, 637.3838
468.6255, 637.1187
469.1076, 636.1252
469.5898, 635.0269
470.0719, 633.7818
470.5540, 631.6296
471.0361, 627.6694
471.5182, 623.5874
472.0003, 625.4509
472.4825, 637.1196
472.9646, 644.1450
473.4467, 639.9763
473.9288, 632.5256
474.4109, 625.4748
474.8930, 619.4567
475.3752, 615.5762
475.8573, 615.0629
476.3394, 616.8519
476.8215, 620.0833
477.3036, 624.7452
477.7857, 627.1736
478.2679, 624.4719
478.7500, 619.2510
479.2321, 618.3854
479.7142, 624.5311
480.1963, 627.7696
480.6784, 624.2156
481.1606, 618.2968
481.6427, 612.7071
482.1248, 608.4468
482.6069, 607.5449
483.0890, 612.1389
483.5711, 620.6556
484.0533, 624.0594
484.5354, 617.2899
485.0175, 613.7322
485.4996, 619.0118
485.9817, 625.2491
486.4638, 625.1725
486.9460, 618.6052
487.4281, 612.0831
487.9102, 611.8239
488.3923, 615.4816
488.8744, 614.5975
489.3565, 607.7177
489.8387, 604.8023
490.3208, 614.4173
490.8029, 629.3452
491.2850, 634.0018
491.7671, 624.5071
492.2492, 616.2104
492.7314, 615.9922
493.2135, 618.7356
493.6956, 618.8115
494.1777, 615.6915
494.6598, 611.1439
495.1419, 605.8655
495.6241, 600.7587
496.1062, 601.8940
496.5883, 618.3405
497.0704, 628.2001
497.5525, 624.1330
498.0346, 616.5615
498.5168, 614.6935
498.9989, 619.0766
499.4810, 623.2194
499.9631, 620.3862
500.4452, 613.0828
500.9273, 611.3848
501.4095, 616.5152
501.8916, 622.2700
502.3737, 627.5465
502.8558, 630.8618
503.3379, 629.5389
503.8200, 622.2131
504.3022, 615.8618
504.7843, 613.3344
505.2664, 613.0251
505.7485, 613.3718
506.2306, 614.1681
506.7127, 615.8375
507.1949, 619.0195
507.6770, 622.8142
508.1591, 623.1583
508.6412, 615.6341
509.1233, 611.1218
509.6054, 612.4184
510.0876, 615.0651
510.5697, 616.6640
511.0518, 616.5791
511.5339, 614.0970
512.0161, 606.6702
512.4982, 597.7775
512.9803, 598.6634
513.4624, 611.3426
513.9445, 621.4926
514.4266, 623.1782
514.9088, 620.6631
515.3909, 619.7424
515.8730, 620.6037
516.3551, 620.5941
516.8372, 618.4465
517.3193, 615.4254
517.8015, 611.4892
518.2836, 607.4927
518.7657, 606.8026
519.2478, 611.6367
519.7299, 618.9124
520.2120, 621.0662
520.6942, 614.4036
521.1763, 609.6022
521.6584, 606.2703
522.1405, 604.9142
522.6226, 607.1263
523.1047, 611.5338
523.5869, 614.6913
524.0690, 614.3176
524.5511, 612.8845
525.0332, 615.2450
525.5153, 621.3611
525.9974, 624.9657
526.4796, 623.7739
526.9617, 620.9320
527.4438, 619.9822
527.9259, 620.6169
528.4080, 619.9262
528.8901, 615.9836
529.3723, 612.1086
529.8544, 609.9070
530.3365, 609.2526
530.8186, 609.9245
531.3007, 611.8281
531.7828, 614.6951
532.2650, 618.5349
532.7471, 623.9519
533.2292, 626.6714
533.7113, 626.4351
534.1934, 623.5462
534.6755, 614.5789
535.1577, 604.4206
535.6398, 599.9946
536.1219, 603.5965
536.6040, 609.8932
537.0861, 615.9454
537.5682, 620.7704
538.0504, 619.5562
538.5325, 610.7935
539.0146, 603.3102
539.4967, 603.5390
539.9788, 610.2712
540.4609, 617.1896
540.9431, 627.2338
541.4252, 633.5560
541.9073, 631.7289
542.3894, 627.5369
542.8715, 627.4500
543.3536, 631.2901
543.8358, 633.2883
544.3179, 628.1666
544.8000, 618.1642
545.2821, 613.6431
545.7642, 617.0325
546.2463, 619.2059
546.7285, 614.6747
547.2106, 610.5441
547.6927, 614.2232
548.1748, 624.9750
548.6569, 632.3814
549.1390, 629.0476
549.6211, 622.0809
550.1032, 618.7928
550.5853, 618.7664
551.0674, 619.9596
551.5496, 621.8683
552.0317, 622.9262
552.5138, 619.9797
552.9959, 609.9429
553.4780, 606.5214
553.9601, 614.0466
554.4423, 622.5327
554.9244, 629.2881
555.4065, 633.9554
555.8886, 636.3211
556.3707, 636.2905
556.8528, 634.7292
557.3350, 632.3997
557.8171, 629.3657
558.2992, 625.7234
558.7813, 620.7724
559.2634, 617.4572
559.7455, 617.8577
560.2277, 621.5132
560.7098, 626.6464
561.1919, 636.2286
561.6740, 642.0828
562.1561, 638.1363
562.6382, 631.3380
563.1204, 629.4620
563.6025, 632.7430
564.0846, 636.3010
564.5667, 636.4643
565.0488, 634.3717
565.5309, 634.8445
566.0131, 639.5573
566.4952, 642.5895
566.9773, 640.1318
567.4594, 637.9659
567.9415, 641.1760
568.4236, 648.4302
568.9058, 653.0319
569.3879, 650.3625
569.8700, 645.4446
570.3521, 643.4186
570.8342, 643.4521
571.3163, 642.8628
571.7985, 640.8610
572.2806, 637.5535
572.7627, 632.4434
573.2448, 624.8000
573.7269, 622.2571
574.2090, 628.0311
574.6912, 634.7657
575.1733, 640.9475
575.6554, 646.9745
576.1375, 653.8314
576.6196, 661.5829
577.1017, 668.5735
577.5839, 674.1089
578.0660, 677.6873
578.5481, 676.6966
579.0302, 670.5512
579.5123, 664.4805
579.9944, 659.7476
580.4766, 657.4701
580.9587, 661.6254
581.4408, 675.1429
581.9229, 682.0590
582.4050, 675.4596
582.8871, 665.8411
583.3693, 657.4218
583.8514, 651.8994
584.3335, 652.0760
584.8156, 659.3141
585.2977, 669.5722
585.7798, 677.0397
586.2620, 681.6796
586.7441, 683.4182
587.2262, 680.8359
587.7083, 677.6909
588.1904, 675.9740
588.6725, 675.1411
589.1547, 674.5450
589.6368, 674.5801
590.1189, 673.5557
590.6010, 668.3634
591.0831, 662.8927
591.5652, 662.9153
592.0474, 668.1878
592.5295, 674.3271
593.0116, 678.7193
593.4937, 681.0496
593.9758, 679.6757
594.4579, 671.1240
594.9401, 667.1543
595.4222, 675.2085
595.9043, 682.1685
596.3864, 678.9807
596.8685, 669.5051
597.3506, 664.3984
597.8328, 669.5712
598.3149, 676.4584
598.7970, 676.4349
599.2791, 672.1672
599.7612, 671.5417
600.2433, 676.0929
600.7255, 679.0881
601.2076, 674.0113
601.6897, 662.3407
602.1718, 656.1608
602.6539, 658.6141
603.1360, 662.5907
603.6182, 669.1431
604.1003, 675.7554
604.5824, 680.9003
605.0645, 684.3826
605.5466, 686.4164
606.0287, 687.0746
606.5109, 686.4493
606.9930, 684.8343
607.4751, 682.1395
607.9572, 676.9990
608.4393, 668.2264
608.9214, 660.0947
609.4036, 656.7143
609.8857, 658.1298
610.3678, 662.0060
610.8499, 673.1520
611.3320, 680.4336
611.8141, 677.9996
612.2963, 672.5387
612.7784, 670.7944
613.2605, 673.3873
613.7426, 676.7278
614.2247, 678.4336
614.7068, 678.6980
615.1890, 677.1770
615.6711, 673.6934
616.1532, 672.7606
616.6353, 676.6530
617.1174, 681.7667
617.5995, 683.2603
618.0817, 681.0501
618.5638, 682.8397
619.0459, 694.9777
619.5280, 704.1605
620.0101, 702.1472
620.4922, 695.8263
620.9744, 694.9663
621.4565, 700.6973
621.9386, 705.2982
622.4207, 700.2116
622.9028, 689.1273
623.3849, 688.0433
623.8671, 699.1257
624.3492, 707.2435
624.8313, 705.7130
625.3134, 701.7360
625.7955, 704.7117
626.2776, 714.1732
626.7598, 721.5258
627.2419, 724.5692
627.7240, 726.3310
628.2061, 726.9717
628.6882, 727.8060
629.1703, 731.2260
629.6525, 737.4260
630.1346, 743.6367
630.6167, 746.9732
631.0988, 748.0073
631.5809, 749.7398
632.0630, 751.9421
632.5452, 755.9619
633.0273, 764.0024
633.5094, 772.3313
633.9915, 776.0425
634.4736, 775.4341
634.9557, 776.6094
635.4379, 782.5922
635.9200, 788.7119
636.4021, 791.2256
636.8842, 792.5705
637.3663, 797.4015
637.8484, 806.3978
638.3306, 815.1070
638.8127, 818.1107
639.2948, 817.1220
639.7769, 824.0049
640.2590, 842.3558
640.7411, 855.9573
641.2233, 860.2830
641.7054, 857.6439
642.1875, 847.0628
642.6696, 829.6356
643.1517, 820.1110
643.6339, 826.4806
644.1160, 836.1967
644.5981, 845.3133
645.0802, 852.1655
645.5623, 853.0098
646.0444, 847.9060
646.5266, 842.9142
647.0087, 844.5472
647.4908, 850.4961
647.9729, 848.0016
648.4550, 833.3338
648.9371, 825.7677
649.4193, 835.1293
649.9014, 847.9560
650.3835, 851.7946
650.8656, 847.5486
651.3477, 841.0005
651.8298, 830.9174
652.3120, 821.2120
652.7941, 813.8984
653.2762, 807.9165
653.7583, 802.1944
654.2404, 796.3565
654.7225, 789.9081
655.2047, 782.1572
655.6868, 773.8901
656.1689, 768.1351
656.6510, 765.3698
657.1331, 762.2495
657.6152, 758.4286
658.0974, 753.5934
658.5795, 745.9510
659.0616, 736.6301
659.5437, 731.1215
660.0258, 734.0598
660.5079, 735.6952
660.9901, 733.6057
661.4722, 728.0195
661.9543, 716.2578
662.4364, 700.5580
662.9185, 689.3796
663.4006, 689.0711
663.8828, 694.6467
664.3649, 694.9459
664.8470, 689.7449
665.3291, 687.1824
665.8112, 690.0760
666.2933, 691.9119
666.7755, 686.5560
667.2576, 676.0842
667.7397, 669.7387
668.2218, 670.2333
668.7039, 670.4166
669.1860, 668.0869
669.6682, 665.6288
670.1503, 665.8835
670.6324, 667.6464
671.1145, 666.6312
671.5966, 660.2731
672.0787, 653.5668
672.5609, 654.9189
673.0430, 662.9316
673.5251, 667.0676
674.0072, 665.7280
674.4893, 664.0944
674.9714, 665.0329
675.4536, 667.9254
675.9357, 671.3931
676.4178, 677.0236
676.8999, 679.7079
677.3820, 677.7342
677.8641, 674.3938
678.3463, 669.2485
678.8284, 664.6431
679.3105, 665.2453
679.7926, 672.5229
680.2747, 679.3846
680.7568, 678.0039
681.2390, 671.5211
681.7211, 667.1887
682.2032, 665.2605
682.6853, 663.8690
683.1674, 662.0175
683.6495, 661.0380
684.1317, 663.4138
684.6138, 670.2686
685.0959, 674.4763
685.5780, 677.6100
686.0601, 676.1439
686.5422, 663.6287
687.0244, 649.4789
687.5065, 645.1755
687.9886, 651.2009
688.4707, 655.5328
688.9528, 646.9044
689.4349, 636.5070
689.9171, 639.3079
690.3992, 650.9699
690.8813, 658.0014
691.3634, 656.8052
691.8455, 654.2371
692.3276, 657.5753
692.8098, 665.7672
693.2919, 669.2955
693.7740, 666.5431
694.2561, 662.6310
694.7382, 655.6477
695.2203, 650.3829
695.7025, 652.5434
696.1846, 659.5558
696.6667, 661.3575
697.1488, 649.5603
697.6309, 640.9266
698.1130, 650.5654
698.5952, 664.9050
699.0773, 664.8513
699.5594, 651.2224
700.0415, 638.7668
700.5236, 636.7161
701.0057, 640.1301
701.4879, 637.5250
701.9700, 628.2748
702.4521, 626.9467
702.9342, 637.7508
703.4163, 649.1957
703.8984, 656.2081
704.3806, 658.5120
704.8627, 654.6826
705.3448, 641.0708
705.8269, 632.2051
706.3090, 634.3770
706.7911, 637.4791
707.2733, 634.8289
707.7554, 629.1224
708.2375, 626.0887
708.7196, 627.2854
709.2017, 628.0164
709.6838, 621.1024
710.1660, 610.9967
710.6481, 611.7598
711.1302, 622.6429
711.6123, 626.7951
712.0944, 617.0454
712.5765, 603.5005
713.0587, 598.9666
713.5408, 603.9921
714.0229, 606.3077
714.5050, 602.7722
714.9871, 600.7975
715.4692, 603.8306
715.9514, 607.0361
716.4335, 605.2468
716.9156, 599.6072
717.3977, 596.5812
717.8798, 600.0771
718.3619, 605.1694
718.8441, 609.7147
719.3262, 612.5053
719.8083, 609.6808
720.2904, 601.9600
720.7725, 596.5873
721.2546, 598.8082
721.7368, 604.9907
722.2189, 605.7188
722.7010, 599.7630
723.1831, 597.3547
723.6652, 601.8073
724.1473, 604.6797
724.6295, 598.2698
725.1116, 588.3058
725.5937, 587.1434
726.0758, 598.0769
726.5579, 606.4216
727.0400, 609.6934
727.5222, 609.5165
728.0043, 604.8705
728.4864, 598.1949
728.9685, 593.1682
729.4506, 590.7279
729.9327, 588.9008
730.4149, 584.0551
730.8970, 579.3328
731.3791, 584.5599
731.8612, 598.2856
732.3433, 606.3140
732.8254, 604.1921
733.3076, 597.3380
733.7897, 590.4957
734.2718, 583.9006
734.7539, 580.4257
735.2360, 581.2731
735.7181, 583.2784
736.2003, 587.8997
736.6824, 591.8534
737.1645, 593.4933
737.6466, 592.8116
738.1287, 589.5331
738.6108, 581.5178
739.0930, 575.9716
739.5751, 577.6137
740.0572, 583.4309
740.5393, 592.9379
741.0214, 603.4725
741.5035, 607.3542
741.9857, 600.8969
742.4678, 591.1698
742.9499, 588.9205
743.4320, 593.4448
743.9141, 594.2458
744.3962, 590.4012
744.8784, 587.5243
745.3605, 588.7004
745.8426, 590.3743
746.3247, 586.6951
746.8068, 576.4543
747.2889, 572.5294
747.7711, 577.8683
748.2532, 585.2624
748.7353, 597.2674
749.2174, 607.4824
749.6995, 609.6224
750.1816, 604.4057
750.6638, 596.8765
751.1459, 587.9165
751.6280, 580.3443
752.1101, 577.0607
752.5922, 576.9002
753.0743, 578.9720
753.5565, 582.4221
754.0386, 583.1888
754.5207, 578.5803
755.0028, 572.1804
755.4849, 571.7839
755.9670, 578.3791
756.4492, 581.3050
756.9313, 578.7083
757.4134, 576.6552
757.8955, 578.0507
758.3776, 581.2180
758.8597, 584.6127
759.3419, 588.7542
759.8240, 588.2691
760.3061, 577.2990
760.7882, 568.1174
761.2703, 565.4813
761.7524, 566.8422
762.2346, 570.6791
762.7167, 575.8508
763.1988, 579.6017
763.6809, 579.7546
764.1630, 578.9130
764.6451, 579.2438
765.1273, 581.0810
765.6094, 587.7911
766.0915, 598.6459
766.5736, 602.3461
767.0557, 590.8850
767.5378, 572.7687
768.0200, 567.5882
768.5021, 578.2327
768.9842, 584.4901
769.4663, 585.3329
769.9484, 583.1172
770.4305, 574.8360
770.9127, 566.7701
771.3948, 570.5117
771.8769, 587.5589
772.3590, 595.9415
772.8411, 586.0915
773.3232, 575.5856
773.8054, 569.8187
774.2875, 567.7017
774.7696, 569.3834
775.2517, 573.5761
775.7338, 575.9531
776.2159, 573.1049
776.6981, 569.6930
777.1802, 571.4445
777.6623, 576.5013
778.1444, 582.0613
778.6265, 587.0915
779.1086, 586.9124
779.5908, 578.4097
780.0729, 566.7438
780.5550, 561.9753
781.0371, 565.0020
781.5192, 565.7972
782.0013, 563.1292
782.4835, 561.6266
782.9656, 564.1763
783.4477, 567.6523
783.9298, 566.9932
784.4119, 562.0076
784.8940, 561.4017
785.3762, 571.8417
785.8583, 578.5369
786.3404, 575.2978
786.8225, 568.4539
787.3046, 561.5629
787.7867, 556.1168
788.2689, 554.4155
788.7510, 557.9561
789.2331, 563.6594
789.7152, 570.6254
790.1973, 577.2267
790.6794, 581.0026
791.1616, 581.9379
791.6437, 580.4711
792.1258, 576.7793
792.6079, 573.0356
793.0900, 572.6016
793.5721, 574.9935
794.0543, 575.3696
794.5364, 573.5632
795.0185, 570.3060
795.5006, 564.4470
795.9827, 560.1920
796.4648, 562.5950
796.9470, 570.8303
797.4291, 575.9090
797.9112, 575.6639
798.3933, 575.2790
798.8754, 574.2055
799.3575, 573.8093
799.8397, 576.7355
800.3218, 580.3651
800.8039, 578.9191
801.2860, 570.1306
801.7681, 563.1431
802.2502, 564.9766
802.7324, 568.4670
803.2145, 566.0180
803.6966, 560.6479
804.1787, 559.6179
804.6608, 564.0629
805.1429, 567.2895
805.6251, 562.1560
806.1072, 554.1355
806.5893, 557.1151
807.0714, 569.2007
807.5535, 575.7131
808.0356, 574.0005
808.5178, 568.6886
808.9999, 561.6456
809.4820, 555.5868
809.9641, 558.6203
810.4462, 575.3888
810.9283, 583.9608
811.4105, 579.6101
811.8926, 574.7964
812.3747, 574.6299
812.8568, 576.1769
813.3389, 575.6556
813.8210, 573.0562
814.3032, 572.5187
814.7853, 576.7024
815.2674, 580.4206
815.7495, 582.9940
816.2316, 583.4917
816.7137, 579.8403
817.1959, 573.4048
817.6780, 567.8633
818.1601, 564.5195
818.6422, 563.5312
819.1243, 567.4056
819.6064, 572.3574
820.0886, 571.5563
820.5707, 566.2813
821.0528, 562.3273
821.5349, 561.7352
822.0170, 562.6440
822.4991, 563.3048
822.9813, 563.5773
823.4634, 562.6107
823.9455, 560.3134
824.4276, 558.1963
824.9097, 556.1132
825.3918, 556.1542
825.8740, 560.2383
826.3561, 567.4073
826.8382, 574.8133
827.3203, 585.5958
827.8024, 589.2609
828.2845, 579.5845
828.7667, 570.3724
829.2488, 567.0195
829.7309, 566.5156
830.2130, 565.0602
830.6951, 562.4338
831.1772, 561.7889
831.6594, 565.4937
832.1415, 569.3516
832.6236, 573.3227
833.1057, 575.2772
833.5878, 571.4246
834.0699, 563.5676
834.5521, 557.2872
835.0342, 554.7574
835.5163, 556.1136
835.9984, 565.4334
836.4805, 576.5983
836.9626, 578.9935
837.4448, 573.8008
837.9269, 566.5383
838.4090, 559.3464
838.8911, 554.1658
839.3732, 553.3305
839.8553, 555.9553
840.3375, 558.7841
840.8196, 561.7974
841.3017, 566.6891
841.7838, 574.5286
842.2659, 580.5868
842.7480, 581.8773
843.2302, 578.8970
843.7123, 572.1285
844.1944, 558.4146
844.6765, 551.7096
845.1586, 556.8256
845.6407, 561.7761
846.1229, 561.9653
846.6050, 560.5683
847.0871, 560.5717
847.5692, 561.9227
848.0513, 563.2013
848.5334, 565.7952
849.0156, 566.1593
849.4977, 562.3177
849.9798, 556.7980
850.4619, 548.1083
850.9440, 540.0847
851.4261, 541.7260
851.9083, 556.4453
852.3904, 570.4304
852.8725, 573.2107
853.3546, 572.0165
853.8367, 576.0920
854.3188, 581.7253
854.8010, 579.6914
855.2831, 569.1835
855.7652, 557.8217
856.2473, 550.6843
856.7294, 547.3951
857.2115, 548.6556
857.6937, 553.3410
858.1758, 556.2153
858.6579, 556.8473
859.1400, 557.5964
859.6221, 559.3957
860.1042, 563.2509
860.5864, 572.1237
861.0685, 585.4326
861.5506, 586.7395
862.0327, 571.8588
862.5148, 561.4935
862.9969, 561.2339
863.4791, 564.3055
863.9612, 565.5665
864.4433, 565.9033
864.9254, 568.8702
865.4075, 579.5757
865.8896, 582.1762
866.3718, 568.1575
866.8539, 556.5524
867.3360, 555.6109
867.8181, 559.4756
868.3002, 561.5200
868.7823, 561.4642
869.2645, 562.9548
869.7466, 568.2017
870.2287, 573.4725
870.7108, 579.4895
871.1929, 583.1196
871.6750, 579.7202
872.1572, 571.9751
872.6393, 565.3690
873.1214, 561.5877
873.6035, 562.3445
874.0856, 574.4981
874.5677, 587.1739
875.0499, 586.1954
875.5320, 576.8160
876.0141, 570.2166
876.4962, 568.4432
876.9783, 567.4976
877.4604, 564.7382
877.9426, 561.1666
878.4247, 556.6301
878.9068, 552.6865
879.3889, 557.9917
879.8710, 571.8678
880.3531, 578.9915
880.8353, 572.7700
881.3174, 563.7275
881.7995, 565.0157
882.2816, 574.3304
882.7637, 576.0292
883.2458, 568.6240
883.7280, 564.9791
884.2101, 568.0286
884.6922, 572.4443
885.1743, 575.5052
885.6564, 576.8583
886.1385, 575.4256
886.6207, 570.2879
887.1028, 566.4857
887.5849, 563.6366
888.0670, 562.7892
888.5491, 565.2958
889.0313, 568.9830
889.5134, 573.0683
889.9955, 576.9254
890.4776, 577.6312
890.9597, 572.9835
891.4418, 568.8203
891.9240, 563.6932
892.4061, 561.6557
892.8882, 566.7640
893.3703, 575.2145
893.8524, 583.1263
894.3345, 589.5493
894.8167, 591.6174
895.2988, 584.2713
895.7809, 577.0258
896.2630, 574.7009
896.7451, 575.1920
897.2272, 578.0509
897.7094, 581.5087
898.1915, 581.5283
898.6736, 576.6384
899.1557, 571.8751
899.6378, 572.6467
900.1199, 574.6797
900.6021, 571.5517
901.0842, 565.9117
901.5663, 563.4889
902.0484, 565.1060
902.5305, 568.7163
903.0126, 573.3347
903.4948, 577.4536
903.9769, 578.2648
904.4590, 576.8424
904.9411, 576.9659
905.4232, 578.4001
905.9053, 577.4028
906.3875, 572.7996
906.8696, 569.3963
907.3517, 572.6207
907.8338, 579.2446
908.3159, 576.8813
908.7980, 565.4184
909.2802, 562.1489
909.7623, 569.8187
910.2444, 579.1016
910.7265, 586.5455
911.2086, 589.8291
911.6907, 584.2332
912.1729, 569.9596
912.6550, 563.0433
913.1371, 564.6719
913.6192, 570.4882
914.1013, 583.1207
914.5834, 593.3541
915.0656, 593.7305
915.5477, 588.4593
916.0298, 587.6772
916.5119, 593.8602
916.9940, 595.1508
917.4761, 587.1198
917.9583, 580.4701
918.4404, 576.0444
918.9225, 575.2780
919.4046, 584.0652
919.8867, 597.8384
920.3688, 598.9566
920.8510, 576.9336
921.3331, 562.7297
921.8152, 565.3492
922.2973, 571.3865
922.7794, 577.7919
923.2615, 582.2240
923.7437, 580.5154
924.2258, 573.7049
924.7079, 570.4294
925.1900, 576.2501
925.6721, 581.0765
926.1542, 580.0176
926.6364, 577.0930
927.1185, 573.4935
927.6006, 571.1694
928.0827, 574.5590
928.5648, 583.8206
929.0469, 589.8005
929.5291, 585.2286
930.0112, 578.0380
930.4933, 572.6389
930.9754, 569.0477
931.4575, 566.7586
931.9396, 566.3345
932.4218, 570.4512
932.9039, 579.9488
933.3860, 588.0291
933.8681, 587.1613
934.3502, 582.9325
934.8323, 584.3225
935.3145, 587.2662
935.7966, 579.5469
936.2787, 563.2623
936.7608, 556.5858
937.2429, 569.6541
937.7250, 587.8209
938.2072, 593.9226
938.6893, 591.5809
939.1714, 587.2529
939.6535, 582.0411
940.1356, 579.9192
940.6177, 581.4765
941.0999, 583.1403
941.5820, 582.3358
942.0641, 580.4905
942.5462, 580.1980
943.0283, 581.1706
943.5104, 581.7235
943.9926, 581.8838
944.4747, 583.6049
944.9568, 587.5663
945.4389, 589.8590
945.9210, 586.4653
946.4031, 579.9811
946.8853, 578.0323
947.3674, 580.5909
947.8495, 581.9443
948.3316, 581.6048
948.8137, 581.5193
949.2958, 582.4423
949.7780, 583.9369
950.2601, 585.7147
950.7422, 587.4978
951.2243, 587.1827
951.7064, 583.9290
952.1885, 584.8055
952.6707, 592.1346
953.1528, 597.0065
953.6349, 594.3179
954.1170, 589.2371
954.5991, 589.1866
955.0812, 593.7758
955.5634, 593.8711
956.0455, 587.1636
956.5276, 583.1683
957.0097, 583.7968
957.4918, 585.6841
957.9739, 587.4307
958.4561, 588.9250
958.9382, 589.9437
959.4203, 590.4564
959.9024, 590.9783
960.3845, 591.6038
960.8666, 592.0201
961.3488, 591.7659
961.8309, 591.9436
962.3130, 594.8654
962.7951, 597.8042
963.2772, 594.1245
963.7593, 581.1685
964.2415, 575.8524
964.7236, 582.6389
965.2057, 590.5854
965.6878, 601.7859
966.1699, 609.8149
966.6520, 608.2100
967.1342, 600.9737
967.6163, 596.7892
968.0984, 595.6595
968.5805, 598.4128
969.0626, 610.3046
969.5447, 619.1041
970.0269, 622.8207
970.5090, 621.3883
970.9911, 610.0321
971.4732, 594.1697
971.9553, 588.8973
972.4374, 599.7699
972.9196, 606.2112
973.4017, 600.2964
973.8838, 596.0836
974.3659, 601.2129
974.8480, 607.8587
975.3301, 607.6432
975.8123, 603.0317
976.2944, 603.5209
976.7765, 613.6525
977.2586, 618.6544
977.7407, 610.0712
978.2228, 601.9736
978.7050, 602.7060
979.1871, 605.1728
979.6692, 601.3247
980.1513, 592.6735
980.6334, 585.9120
981.1155, 581.2939
981.5977, 582.4064
982.0798, 597.9404
982.5619, 610.5343
983.0440, 609.0284
983.5261, 601.6685
984.0082, 596.9083
984.4904, 595.1179
984.9725, 593.4310
985.4546, 590.5228
985.9367, 589.3967
986.4188, 593.6729
986.9009, 597.1664
987.3831, 596.2740
987.8652, 592.5814
988.3473, 586.6205
988.8294, 579.6857
989.3115, 575.8900
989.7936, 577.6965
990.2758, 579.0842
990.7579, 575.4569
991.2400, 572.9553
991.7221, 577.7630
992.2042, 584.4989
992.6863, 585.8204
993.1685, 582.2737
993.6506, 580.3074
994.1327, 582.9462
994.6148, 584.7314
995.0969, 581.7036
995.5790, 578.6490
996.0612, 579.2469
996.5433, 581.4823
997.0254, 583.1077
997.5075, 583.6896
997.9896, 583.3060
998.4717, 582.2446
998.9539, 579.4343
999.4360, 571.2839
999.9181, 564.4994
1000.400, 564.9232
1000.882, 568.7946
1001.364, 572.7407
1001.847, 575.3289
1002.329, 573.4047
1002.811, 563.8442
1003.293, 556.1000
1003.775, 554.8175
1004.257, 556.5981
1004.739, 560.1069
1005.221, 564.6753
1005.703, 572.3227
1006.186, 580.6332
1006.668, 580.1475
1007.150, 564.4456
1007.632, 550.7651
1008.114, 546.0280
1008.596, 546.9266
1009.078, 555.8721
1009.560, 566.1521
1010.043, 568.3998
1010.525, 564.3508
1011.007, 564.3438
1011.489, 572.9965
1011.971, 580.4656
1012.453, 586.6154
1012.935, 585.6900
1013.417, 563.3203
1013.899, 539.8885
1014.382, 543.6826
1014.864, 567.6315
1015.346, 579.6823
1015.828, 567.9743
1016.310, 557.5362
1016.792, 559.5177
1017.274, 563.4144
1017.756, 564.9054
1018.239, 564.3444
1018.721, 560.1331
1019.203, 554.6346
1019.685, 555.0016
1020.167, 564.5598
1020.649, 571.3480
1021.131, 568.7963
1021.613, 565.9693
1022.095, 568.5655
1022.578, 571.5176
1023.060, 569.5517
1023.542, 564.0596
1024.024, 559.2953
1024.506, 556.0695
1024.988, 553.4202
1025.470, 550.6483
1025.952, 549.0236
1026.435, 549.4536
1026.917, 550.8412
1027.399, 552.0195
1027.881, 553.5532
1028.363, 557.6089
1028.845, 565.1757
1029.327, 568.8864
1029.809, 564.7292
1030.292, 560.2794
1030.774, 558.4784
1031.256, 556.0977
1031.738, 547.9042
1032.220, 538.8224
1032.702, 539.4429
1033.184, 551.5859
1033.666, 557.5583
1034.148, 551.1545
1034.630, 544.9424
1035.113, 537.5645
1035.595, 534.5391
1036.077, 541.8168
1036.559, 553.8010
1037.041, 564.0037
1037.523, 572.4905
1038.005, 572.3204
1038.487, 555.5298
1038.970, 542.9034
1039.452, 533.4271
1039.934, 531.3221
1040.416, 544.8818
1040.898, 561.3352
1041.380, 564.3666
1041.862, 555.3207
1042.344, 549.2084
1042.826, 547.9505
1043.309, 545.2764
1043.791, 538.7072
1044.273, 534.9918
1044.755, 537.0878
1045.237, 542.5999
1045.719, 550.9479
1046.201, 560.2018
1046.683, 560.5765
1047.166, 547.5855
1047.648, 541.4075
1048.130, 544.4258
1048.612, 547.6486
1049.094, 548.4112
1049.576, 548.8048
1050.058, 551.3855
1050.540, 553.7945
1051.022, 547.7498
1051.505, 531.1630
1051.987, 528.8975
1052.469, 543.9372
1052.951, 554.4589
1053.433, 554.9325
1053.915, 552.1343
1054.397, 549.9788
1054.879, 549.4549
1055.361, 553.3595
1055.844, 560.9594
1056.326, 563.0335
1056.808, 559.6174
1057.290, 556.4689
1057.772, 554.5657
1058.254, 553.1344
1058.736, 551.7495
1059.218, 550.9722
1059.701, 552.0056
1060.183, 553.8706
1060.665, 553.6620
1061.147, 551.2982
1061.629, 544.5903
1062.111, 534.3553
1062.593, 528.7539
1063.075, 530.8431
1063.557, 536.0992
1064.040, 540.6941
1064.522, 544.6431
1065.004, 547.4391
1065.486, 549.7568
1065.968, 554.8672
1066.450, 561.0306
1066.932, 560.8156
1067.414, 553.1450
1067.896, 545.4191
1068.379, 542.5847
1068.861, 542.1625
1069.343, 540.2921
1069.825, 539.8969
1070.307, 549.1813
1070.789, 561.4688
1071.271, 562.4793
1071.753, 552.0159
1072.236, 539.3693
1072.718, 527.5558
1073.200, 522.3990
1073.682, 536.1483
1074.164, 549.6259
1074.646, 541.6667
1075.128, 527.8136
1075.610, 529.1754
1076.093, 541.7512
1076.575, 549.2994
1077.057, 547.4573
1077.539, 543.6921
1078.021, 540.2531
1078.503, 536.8919
1078.985, 530.3944
1079.467, 526.9904
1079.949, 536.5724
1080.432, 550.0909
1080.914, 550.3083
1081.396, 536.2686
1081.878, 528.6908
1082.360, 535.3387
1082.842, 542.4227
1083.324, 551.3889
1083.806, 556.1669
1084.288, 549.7683
1084.771, 540.9611
1085.253, 539.9622
1085.735, 545.0800
1086.217, 547.9957
1086.699, 548.7024
1087.181, 546.8502
1087.663, 539.1836
1088.145, 535.8654
1088.628, 541.4916
1089.110, 548.6422
1089.592, 552.7107
1090.074, 553.5897
1090.556, 550.2638
1091.038, 542.4294
1091.520, 540.5164
1092.002, 546.4650
1092.484, 543.9678
1092.967, 528.3132
1093.449, 519.1904
1093.931, 527.6449
1094.413, 541.2013
1094.895, 543.9659
1095.377, 538.8182
1095.859, 535.3578
1096.341, 533.6352
1096.823, 534.3024
1097.306, 537.3080
1097.788, 542.7034
1098.270, 550.1668
1098.752, 554.9034
1099.234, 552.6848
1099.716, 547.3725
1100.198, 543.5085
1100.680, 541.6022
1101.163, 544.2035
1101.645, 549.2538
1102.127, 551.0646
1102.609, 549.5040
1103.091, 549.5596
1103.573, 553.7661
1104.055, 556.0682
1104.537, 548.1276
1105.020, 539.5864
1105.502, 541.8255
1105.984, 546.7158
1106.466, 541.7497
1106.948, 531.7827
1107.430, 530.3071
1107.912, 539.7483
1108.394, 548.5313
1108.876, 552.4305
1109.359, 554.1067
1109.841, 553.3663
1110.323, 552.0066
1110.805, 551.7776
1111.287, 551.0917
1111.769, 547.6092
1112.251, 541.7450
1112.733, 535.8475
1113.215, 527.9218
1113.698, 525.6328
1114.180, 533.3812
1114.662, 540.1762
1115.144, 545.1331
1115.626, 545.9704
1116.108, 538.2545
1116.590, 528.4586
1117.072, 529.7321
1117.555, 542.1589
1118.037, 547.9278
1118.519, 546.0930
1119.001, 542.0940
1119.483, 535.7710
1119.965, 533.0069
1120.447, 536.7493
1120.929, 541.7442
1121.411, 542.6062
1121.894, 540.6505
1122.376, 538.9181
1122.858, 537.4144
1123.340, 535.9380
1123.822, 534.6472
1124.304, 533.9561
1124.786, 534.2061
1125.268, 537.6469
1125.750, 545.8221
1126.233, 552.9890
1126.715, 551.1398
1127.197, 545.6790
1127.679, 543.2912
1128.161, 542.9858
1128.643, 543.6861
1129.125, 544.7715
1129.607, 544.9736
1130.090, 544.1564
1130.572, 544.7713
1131.054, 552.7000
1131.536, 554.0118
1132.018, 530.6908
1132.500, 510.2118
1132.982, 515.6702
1133.464, 531.5483
1133.947, 541.4438
1134.429, 543.8130
1134.911, 538.8209
1135.393, 522.1900
1135.875, 513.0291
1136.357, 514.3841
1136.839, 521.6387
1137.321, 540.2150
1137.803, 555.5519
1138.286, 559.4781
1138.768, 555.0336
1139.250, 544.4416
1139.732, 529.4459
1140.214, 528.2484
1140.696, 543.6115
1141.178, 550.9143
1141.660, 547.9890
1142.142, 543.2128
1142.625, 539.0866
1143.107, 536.2787
1143.589, 534.9999
1144.071, 537.0287
1144.553, 549.2968
1145.035, 566.1136
1145.517, 568.7291
1145.999, 560.9664
1146.482, 554.1395
1146.964, 549.8981
1147.446, 545.9975
1147.928, 541.7648
1148.410, 540.1763
1148.892, 545.9752
1149.374, 550.9459
1149.856, 545.2341
1150.339, 537.5575
1150.821, 536.8201
1151.303, 539.9139
1151.785, 542.5106
1152.267, 543.5180
1152.749, 541.2177
1153.231, 533.0179
1153.713, 530.2874
1154.195, 542.6574
1154.677, 551.0222
1155.160, 548.1913
1155.642, 541.0902
1156.124, 530.2951
1156.606, 521.0397
1157.088, 522.6862
1157.570, 533.8208
1158.052, 536.5160
1158.534, 526.9949
1159.017, 528.0654
1159.499, 543.5937
1159.981, 552.4663
1160.463, 547.7453
1160.945, 540.3408
1161.427, 537.9711
1161.909, 538.5248
1162.391, 539.2349
1162.874, 539.5945
1163.356, 536.6038
1163.838, 532.0080
1164.320, 531.9309
1164.802, 536.0944
1165.284, 541.0595
1165.766, 545.3712
1166.248, 547.2299
1166.730, 544.5559
1167.213, 541.3408
1167.695, 539.6093
1168.177, 540.1151
1168.659, 546.0321
1169.141, 552.7726
1169.623, 554.5121
1170.105, 552.0547
1170.587, 549.3548
1171.069, 547.1427
1171.552, 544.3495
1172.034, 540.8509
1172.516, 536.5735
1172.998, 527.9034
1173.480, 523.7657
1173.962, 530.1853
1174.444, 539.8613
1174.926, 545.8824
1175.409, 548.4620
1175.891, 547.7764
1176.373, 543.5388
1176.855, 539.4662
1177.337, 535.4686
1177.819, 536.2720
1178.301, 542.5908
1178.783, 547.2837
1179.266, 546.8757
1179.748, 544.6615
1180.230, 544.2944
1180.712, 543.8717
1181.194, 538.1805
1181.676, 531.6852
1182.158, 534.4402
1182.640, 541.6864
1183.122, 542.2408
1183.604, 535.7913
1184.087, 529.0875
1184.569, 524.0511
1185.051, 523.1764
1185.533, 531.2026
1186.015, 538.7070
1186.497, 541.5314
1186.979, 542.6877
1187.461, 544.4614
1187.944, 545.7433
1188.426, 543.5724
1188.908, 539.1449
1189.390, 540.4865
1189.872, 551.2281
1190.354, 554.2437
1190.836, 547.5779
1191.318, 541.5911
1191.801, 538.3615
1192.283, 537.7332
1192.765, 539.9449
1193.247, 542.1415
1193.729, 540.2422
1194.211, 536.4755
1194.693, 535.7177
1195.175, 537.7217
1195.657, 543.6776
1196.140, 551.3810
1196.622, 554.4512
1197.104, 552.5033
1197.586, 550.2740
1198.068, 549.7928
1198.550, 549.8387
1199.032, 552.1050
1199.514, 551.4827
1199.996, 540.2192
1200.479, 529.9077
1200.961, 530.8770
1201.443, 537.9046
1201.925, 544.9911
1202.407, 550.7360
1202.889, 548.3663
1203.371, 531.4005
1203.853, 528.6716
1204.336, 547.4579
1204.818, 555.7990
1205.300, 545.0472
1205.782, 533.3362
1206.264, 530.0052
1206.746, 532.5173
1207.228, 538.9078
1207.710, 546.9050
1208.193, 551.4466
1208.675, 552.7065
1209.157, 549.0691
1209.639, 543.0198
1210.121, 543.1186
1210.603, 548.5649
1211.085, 548.5241
1211.567, 538.5297
1212.049, 531.4274
1212.531, 538.7451
1213.014, 546.1034
1213.496, 545.1894
1213.978, 542.4413
1214.460, 541.4658
1214.942, 541.8876
1215.424, 543.9838
1215.906, 546.7133
1216.388, 545.7979
1216.871, 539.5452
1217.353, 541.2823
1217.835, 554.3879
1218.317, 560.8938
1218.799, 557.7916
1219.281, 550.5062
1219.763, 540.7068
1220.245, 535.0161
1220.728, 540.0278
1221.210, 550.3427
1221.692, 559.6644
1222.174, 565.3450
1222.656, 557.2786
1223.138, 543.5294
1223.620, 542.3427
1224.102, 550.8769
1224.584, 554.4918
1225.067, 549.6543
1225.549, 544.3205
1226.031, 540.9188
1226.513, 539.4368
1226.995, 542.1555
1227.477, 543.8444
1227.959, 541.5249
1228.441, 537.9127
1228.923, 533.6998
1229.406, 530.8622
1229.888, 533.7625
1230.370, 541.4440
1230.852, 541.7955
1231.334, 534.2632
1231.816, 535.0085
1232.298, 544.4791
1232.780, 549.9750
1233.263, 548.4103
1233.745, 544.1496
1234.227, 539.5612
1234.709, 535.7493
1235.191, 532.5349
1235.673, 532.2216
1236.155, 541.5147
##END=



