##NAMES=Magnetite
##RRUFFID=R060222
##IDEAL CHEMISTRY=Fe^2+^Fe^3+^_2_O_4_
##LOCALITY=Cerro Hua√±aquino, Potosi Department, Bolivia
##OWNER=RRUFF
##SOURCE=Rock Currier
##DESCRIPTION=Black octahedra, the surface is hematite and the interior is magnetite
##STATUS=The identification of this mineral has been confirmed by X-ray diffraction and chemical analysis
##URL=rruff.info/R060222
##MEASURED CHEMISTRY=(Fe^2+^_0.95_Mg_0.05_)(Fe^3+^_0.99_Al_0.01_)_2_O_4_
91.82715, 195.7269
92.30927, 192.1370
92.79138, 193.8217
93.27350, 200.2692
93.75562, 202.8686
94.23773, 196.2677
94.71985, 182.4052
95.20197, 170.5213
95.68408, 164.6089
96.16620, 161.2760
96.64832, 157.6761
97.13043, 153.4600
97.61255, 149.0155
98.09467, 144.8856
98.57678, 141.2726
99.05890, 137.0532
99.54102, 132.3071
100.0231, 127.3069
100.5052, 122.1739
100.9874, 116.8752
101.4695, 111.4963
101.9516, 106.7109
102.4337, 101.8678
102.9158, 98.26383
103.3979, 96.54923
103.8801, 96.21040
104.3622, 96.40583
104.8443, 96.53558
105.3264, 96.61823
105.8085, 96.23726
106.2906, 95.65697
106.7728, 94.50712
107.2549, 92.33142
107.7370, 89.17091
108.2191, 85.74262
108.7012, 82.81953
109.1833, 80.42538
109.6655, 78.13152
110.1476, 75.69502
110.6297, 73.37366
111.1118, 71.59428
111.5939, 70.56958
112.0760, 69.89002
112.5582, 69.10429
113.0403, 68.22799
113.5224, 67.41100
114.0045, 66.74886
114.4866, 66.23552
114.9688, 65.81935
115.4509, 65.58108
115.9330, 65.37453
116.4151, 65.06490
116.8972, 64.64192
117.3793, 64.25971
117.8615, 64.15480
118.3436, 64.47929
118.8257, 64.71626
119.3078, 64.58648
119.7899, 64.47372
120.2720, 64.77049
120.7542, 65.62421
121.2363, 66.76378
121.7184, 67.41959
122.2005, 67.23542
122.6826, 66.86994
123.1647, 66.34775
123.6468, 65.67005
124.1290, 64.75509
124.6111, 63.49475
125.0932, 61.99736
125.5753, 61.19368
126.0574, 61.48013
126.5395, 61.87251
127.0217, 62.07364
127.5038, 62.06447
127.9859, 61.82029
128.4680, 61.21963
128.9501, 60.34071
129.4323, 59.67939
129.9144, 59.46296
130.3965, 59.35695
130.8786, 58.98574
131.3607, 58.28956
131.8428, 57.55348
132.3250, 56.96140
132.8071, 56.47792
133.2892, 56.07974
133.7713, 55.74102
134.2534, 55.47732
134.7355, 55.36064
135.2177, 55.52516
135.6998, 55.65597
136.1819, 55.60188
136.6640, 55.39441
137.1461, 55.11847
137.6282, 54.81308
138.1104, 54.46893
138.5925, 54.19857
139.0746, 54.23256
139.5567, 54.14878
140.0388, 53.64897
140.5209, 52.80779
141.0031, 51.97898
141.4852, 51.61335
141.9673, 51.98985
142.4494, 52.10912
142.9315, 51.82808
143.4136, 51.44262
143.8958, 51.13788
144.3779, 50.96230
144.8600, 50.84625
145.3421, 50.68080
145.8242, 50.45402
146.3063, 50.19062
146.7885, 49.83897
147.2706, 49.46674
147.7527, 49.14595
148.2348, 48.89669
148.7169, 48.72550
149.1990, 48.65537
149.6812, 48.67073
150.1633, 48.76937
150.6454, 49.11867
151.1275, 49.58694
151.6096, 49.72028
152.0917, 49.22020
152.5739, 48.40645
153.0560, 47.79052
153.5381, 47.39217
154.0202, 47.13607
154.5023, 47.00349
154.9844, 46.99970
155.4665, 47.00197
155.9487, 46.98763
156.4308, 46.94726
156.9129, 46.86398
157.3950, 46.72882
157.8771, 46.57207
158.3592, 46.42567
158.8414, 46.26814
159.3235, 46.18381
159.8056, 46.26416
160.2877, 46.38324
160.7698, 46.42529
161.2519, 46.33733
161.7341, 46.16391
162.2162, 46.03789
162.6983, 46.01451
163.1804, 45.96594
163.6625, 45.92036
164.1446, 45.82923
164.6268, 45.59242
165.1089, 45.13646
165.5910, 44.53453
166.0731, 44.26014
166.5552, 44.64343
167.0373, 44.99224
167.5195, 45.18286
168.0016, 45.23834
168.4837, 45.21888
168.9658, 45.15685
169.4479, 45.05469
169.9300, 44.96146
170.4122, 44.87918
170.8943, 44.80183
171.3764, 44.70168
171.8585, 44.59369
172.3406, 44.55230
172.8227, 44.67286
173.3049, 44.91835
173.7870, 44.99149
174.2691, 44.78198
174.7512, 44.47902
175.2333, 44.22059
175.7154, 44.01163
176.1976, 43.82417
176.6797, 43.60883
177.1618, 43.40179
177.6439, 43.30326
178.1260, 43.45596
178.6081, 43.68410
179.0903, 43.67531
179.5724, 43.32201
180.0545, 43.05258
180.5366, 43.31193
181.0187, 43.81465
181.5008, 44.09275
181.9830, 43.82241
182.4651, 43.18800
182.9472, 42.75436
183.4293, 42.57945
183.9114, 42.54583
184.3935, 42.62041
184.8757, 42.77264
185.3578, 42.96537
185.8399, 43.21803
186.3220, 43.50713
186.8041, 43.57163
187.2862, 43.19222
187.7684, 42.79967
188.2505, 42.48145
188.7326, 42.24546
189.2147, 42.08720
189.6968, 42.01299
190.1789, 42.02599
190.6611, 42.02592
191.1432, 41.95031
191.6253, 41.92079
192.1074, 42.04751
192.5895, 42.26696
193.0716, 42.41309
193.5538, 42.32521
194.0359, 41.96019
194.5180, 41.71832
195.0001, 41.70093
195.4822, 41.68435
195.9643, 41.50787
196.4465, 41.20872
196.9286, 40.98350
197.4107, 41.04359
197.8928, 41.44687
198.3749, 41.62649
198.8570, 41.43903
199.3392, 41.16188
199.8213, 40.94112
200.3034, 40.79751
200.7855, 40.73093
201.2676, 40.76231
201.7497, 40.89841
202.2319, 40.99140
202.7140, 41.09005
203.1961, 41.11234
203.6782, 40.91066
204.1603, 40.45632
204.6424, 40.03878
205.1246, 39.94627
205.6067, 40.12416
206.0888, 40.33984
206.5709, 40.58099
207.0530, 40.82358
207.5351, 41.09211
208.0173, 41.44624
208.4994, 41.60894
208.9815, 41.05758
209.4636, 40.13208
209.9457, 39.57098
210.4278, 40.06828
210.9100, 41.06268
211.3921, 41.15888
211.8742, 39.85168
212.3563, 38.69012
212.8384, 38.86694
213.3205, 39.80322
213.8027, 40.44178
214.2848, 40.01255
214.7669, 38.88101
215.2490, 38.43289
215.7311, 39.15472
216.2132, 39.82732
216.6954, 39.86676
217.1775, 39.51430
217.6596, 39.17968
218.1417, 39.09282
218.6238, 39.22847
219.1059, 39.45757
219.5881, 39.94540
220.0702, 40.31520
220.5523, 40.39800
221.0344, 40.30235
221.5165, 40.21302
221.9986, 40.26406
222.4808, 40.42852
222.9629, 40.44971
223.4450, 40.17255
223.9271, 39.90353
224.4092, 39.69606
224.8913, 39.54086
225.3735, 39.40636
225.8556, 39.26551
226.3377, 39.12733
226.8198, 39.09291
227.3019, 39.37299
227.7840, 39.53732
228.2662, 39.34382
228.7483, 38.97901
229.2304, 38.80189
229.7125, 39.06748
230.1946, 39.71291
230.6767, 40.03914
231.1589, 39.74827
231.6410, 39.49253
232.1231, 39.45191
232.6052, 39.56192
233.0873, 39.68314
233.5694, 39.73355
234.0516, 39.72205
234.5337, 39.70988
235.0158, 39.68021
235.4979, 39.66809
235.9800, 39.66980
236.4621, 39.69667
236.9443, 39.80174
237.4264, 40.04740
237.9085, 40.35805
238.3906, 40.37748
238.8727, 39.87745
239.3548, 39.40631
239.8370, 39.17063
240.3191, 39.10600
240.8012, 39.04174
241.2833, 38.86821
241.7654, 38.67486
242.2475, 38.73598
242.7297, 39.23718
243.2118, 39.65050
243.6939, 39.66866
244.1760, 39.40394
244.6581, 39.20266
245.1402, 39.23338
245.6224, 39.37390
246.1045, 39.36121
246.5866, 39.13289
247.0687, 38.93953
247.5508, 38.99926
248.0329, 39.21976
248.5151, 39.23711
248.9972, 38.81875
249.4793, 38.27703
249.9614, 38.06354
250.4435, 38.20230
250.9256, 38.44790
251.4078, 38.77015
251.8899, 39.11752
252.3720, 39.26844
252.8541, 39.13969
253.3362, 38.80735
253.8183, 38.29437
254.3005, 37.60029
254.7826, 37.05735
255.2647, 36.96358
255.7468, 37.23149
256.2289, 37.42373
256.7110, 37.47836
257.1931, 37.41396
257.6753, 37.17342
258.1574, 36.79974
258.6395, 36.56844
259.1216, 36.74576
259.6037, 37.25091
260.0858, 37.65199
260.5680, 37.96418
261.0501, 38.07187
261.5322, 37.79345
262.0143, 37.25774
262.4964, 36.85295
262.9785, 36.95532
263.4607, 37.45090
263.9428, 37.64328
264.4249, 37.31982
264.9070, 36.98407
265.3891, 36.85190
265.8712, 36.88627
266.3534, 37.02449
266.8355, 37.30603
267.3176, 37.65450
267.7997, 37.71499
268.2818, 37.27520
268.7639, 36.85922
269.2461, 36.69271
269.7282, 36.66195
270.2103, 36.58033
270.6924, 36.31570
271.1745, 35.97184
271.6566, 35.91314
272.1388, 36.31599
272.6209, 36.71980
273.1030, 37.08026
273.5851, 37.34708
274.0672, 37.43350
274.5493, 37.28810
275.0315, 37.00753
275.5136, 36.84365
275.9957, 36.90685
276.4778, 36.87516
276.9599, 36.58121
277.4420, 36.23902
277.9242, 36.06028
278.4063, 36.11816
278.8884, 36.29785
279.3705, 36.37376
279.8526, 36.24831
280.3347, 36.23103
280.8169, 36.49025
281.2990, 36.76320
281.7811, 36.81947
282.2632, 36.61779
282.7453, 36.33308
283.2274, 36.23127
283.7096, 36.40472
284.1917, 36.53514
284.6738, 36.61292
285.1559, 36.65474
285.6380, 36.65037
286.1201, 36.60969
286.6023, 36.57343
287.0844, 36.60521
287.5665, 36.75312
288.0486, 36.76935
288.5307, 36.47200
289.0128, 36.21509
289.4950, 36.20733
289.9771, 36.40581
290.4592, 36.60401
290.9413, 36.59365
291.4234, 36.34484
291.9055, 36.28596
292.3877, 36.64301
292.8698, 36.96145
293.3519, 37.14230
293.8340, 37.16866
294.3161, 37.00707
294.7982, 36.59935
295.2804, 35.98466
295.7625, 35.69356
296.2446, 36.15857
296.7267, 36.49594
297.2088, 36.45882
297.6909, 36.20520
298.1731, 35.98829
298.6552, 35.95088
299.1373, 36.02851
299.6194, 35.97378
300.1015, 35.57838
300.5836, 35.30028
301.0658, 35.16862
301.5479, 35.17531
302.0300, 35.39082
302.5121, 35.83097
302.9942, 36.30020
303.4763, 36.37028
303.9585, 35.54489
304.4406, 35.06444
304.9227, 35.10973
305.4048, 35.37075
305.8869, 35.65027
306.3690, 35.88161
306.8512, 36.05525
307.3333, 36.16216
307.8154, 36.21936
308.2975, 36.14579
308.7796, 35.79480
309.2617, 35.45250
309.7439, 35.33937
310.2260, 35.43303
310.7081, 35.52436
311.1902, 35.39038
311.6723, 34.97702
312.1544, 34.73191
312.6366, 34.76313
313.1187, 34.82809
313.6008, 34.79938
314.0829, 34.72213
314.5650, 34.75414
315.0471, 35.04047
315.5293, 35.53844
316.0114, 35.67548
316.4935, 35.01756
316.9756, 34.48269
317.4577, 34.33682
317.9398, 34.41774
318.4220, 34.45845
318.9041, 34.31969
319.3862, 34.08205
319.8683, 34.00299
320.3504, 34.28135
320.8326, 34.47680
321.3147, 34.56134
321.7968, 34.55798
322.2789, 34.45473
322.7610, 34.25805
323.2431, 34.04777
323.7253, 33.96867
324.2074, 34.12201
324.6895, 34.21162
325.1716, 34.19552
325.6537, 34.15693
326.1358, 34.19404
326.6180, 34.29300
327.1001, 34.31636
327.5822, 34.08327
328.0643, 33.49575
328.5464, 33.16198
329.0285, 33.25877
329.5107, 33.40219
329.9928, 33.38804
330.4749, 33.27895
330.9570, 33.29715
331.4391, 33.64359
331.9212, 34.27578
332.4034, 34.55621
332.8855, 34.11946
333.3676, 33.71044
333.8497, 33.42122
334.3318, 33.25726
334.8139, 33.23717
335.2961, 33.37434
335.7782, 33.60209
336.2603, 33.72357
336.7424, 33.69737
337.2245, 33.61383
337.7066, 33.37342
338.1888, 33.14315
338.6709, 33.11057
339.1530, 33.31052
339.6351, 33.57849
340.1172, 33.65184
340.5993, 33.41222
341.0815, 33.27888
341.5636, 33.33398
342.0457, 33.41228
342.5278, 33.43690
343.0099, 33.39877
343.4920, 33.31197
343.9742, 33.15921
344.4563, 32.92609
344.9384, 32.89515
345.4205, 33.43406
345.9026, 33.82010
346.3847, 33.75282
346.8669, 33.40549
347.3490, 33.10124
347.8311, 33.04019
348.3132, 33.16096
348.7953, 33.21178
349.2774, 33.08281
349.7596, 33.06180
350.2417, 33.34076
350.7238, 33.67270
351.2059, 33.79344
351.6880, 33.61526
352.1701, 33.28641
352.6523, 33.04361
353.1344, 32.90691
353.6165, 32.79706
354.0986, 32.75233
354.5807, 32.69552
355.0628, 32.57923
355.5450, 32.40211
356.0271, 32.19527
356.5092, 31.93654
356.9913, 31.61811
357.4734, 31.51728
357.9555, 31.85358
358.4377, 32.17293
358.9198, 32.27351
359.4019, 32.21902
359.8840, 32.14687
360.3661, 32.12518
360.8482, 32.14983
361.3304, 32.22513
361.8125, 32.40319
362.2946, 32.51312
362.7767, 32.44932
363.2588, 32.31448
363.7409, 32.20377
364.2231, 32.14271
364.7052, 32.12543
365.1873, 32.16703
365.6694, 32.27948
366.1515, 32.34129
366.6336, 32.32392
367.1158, 32.24099
367.5979, 32.02805
368.0800, 31.70610
368.5621, 31.51478
369.0442, 31.75467
369.5263, 32.30973
370.0085, 32.60450
370.4906, 32.50371
370.9727, 32.29969
371.4548, 32.16191
371.9369, 32.07666
372.4190, 32.01676
372.9012, 31.97900
373.3833, 31.95711
373.8654, 31.96199
374.3475, 32.00336
374.8296, 31.98217
375.3117, 31.76115
375.7939, 31.49229
376.2760, 31.41101
376.7581, 31.59118
377.2402, 31.82151
377.7223, 31.98344
378.2044, 32.07584
378.6866, 32.08744
379.1687, 31.99993
379.6508, 31.85340
380.1329, 31.65207
380.6150, 31.39426
381.0971, 31.26011
381.5793, 31.40560
382.0614, 31.66779
382.5435, 31.82395
383.0256, 31.84799
383.5077, 31.80715
383.9898, 31.75164
384.4720, 31.67263
384.9541, 31.53635
385.4362, 31.19545
385.9183, 30.93047
386.4004, 30.99124
386.8825, 31.28875
387.3647, 31.51264
387.8468, 31.50734
388.3289, 31.35410
388.8110, 31.25800
389.2931, 31.25174
389.7752, 31.21967
390.2574, 31.06961
390.7395, 30.91131
391.2216, 30.92201
391.7037, 31.13204
392.1858, 31.34337
392.6679, 31.30419
393.1501, 30.93242
393.6322, 30.74130
394.1143, 30.76629
394.5964, 30.92043
395.0785, 31.27285
395.5606, 31.72927
396.0428, 32.05593
396.5249, 32.10383
397.0070, 31.90132
397.4891, 31.59259
397.9712, 31.00902
398.4533, 30.52515
398.9355, 30.18804
399.4176, 29.96625
399.8997, 29.81370
400.3818, 29.71938
400.8639, 29.71957
401.3460, 29.89685
401.8282, 30.37993
402.3103, 30.67615
402.7924, 30.66733
403.2745, 30.60691
403.7566, 30.65685
404.2387, 30.77432
404.7209, 30.79042
405.2030, 30.55453
405.6851, 30.11027
406.1672, 29.78519
406.6493, 29.46749
407.1314, 29.46552
407.6136, 30.20006
408.0957, 31.09888
408.5778, 31.47309
409.0599, 31.07202
409.5420, 30.36540
410.0241, 30.04785
410.5063, 30.19891
410.9884, 30.31779
411.4705, 30.30433
411.9526, 30.26398
412.4347, 30.25577
412.9168, 30.27624
413.3990, 30.29004
413.8811, 30.31151
414.3632, 30.31064
414.8453, 30.12053
415.3274, 29.60850
415.8095, 29.23721
416.2917, 29.42307
416.7738, 29.85132
417.2559, 30.10382
417.7380, 30.02938
418.2201, 29.86268
418.7022, 29.81680
419.1844, 29.88274
419.6665, 30.00079
420.1486, 30.23917
420.6307, 30.40361
421.1128, 30.15558
421.5949, 29.49360
422.0771, 29.02984
422.5592, 29.12863
423.0413, 29.48753
423.5234, 29.72864
424.0055, 29.81236
424.4876, 29.76706
424.9698, 29.54993
425.4519, 29.21103
425.9340, 29.06018
426.4161, 29.25458
426.8982, 29.46392
427.3803, 29.57547
427.8625, 29.59221
428.3446, 29.49632
428.8267, 29.27137
429.3088, 29.00221
429.7909, 28.83078
430.2730, 28.78045
430.7552, 28.79593
431.2373, 28.95863
431.7194, 29.12570
432.2015, 29.21666
432.6836, 29.21549
433.1657, 29.10003
433.6479, 28.82350
434.1300, 28.41455
434.6121, 28.25814
435.0942, 28.63056
435.5763, 28.94299
436.0584, 29.14177
436.5406, 29.21614
437.0227, 29.09038
437.5048, 28.75654
437.9869, 28.41981
438.4690, 28.45557
438.9511, 29.05560
439.4333, 29.40311
439.9154, 29.29143
440.3975, 29.09601
440.8796, 28.97092
441.3617, 28.90176
441.8438, 28.80158
442.3260, 28.59722
442.8081, 28.33174
443.2902, 28.16155
443.7723, 28.12073
444.2544, 28.08871
444.7365, 27.95855
445.2187, 27.85216
445.7008, 27.92603
446.1829, 28.22213
446.6650, 28.50858
447.1471, 28.54745
447.6292, 28.38533
448.1114, 28.28904
448.5935, 28.32566
449.0756, 28.37750
449.5577, 28.33027
450.0398, 28.21534
450.5219, 28.12341
451.0041, 28.08426
451.4862, 28.07427
451.9683, 28.06951
452.4504, 28.07221
452.9325, 28.11687
453.4146, 28.25854
453.8968, 28.40199
454.3789, 28.28906
454.8610, 27.80711
455.3431, 27.48008
455.8252, 27.49247
456.3073, 27.68266
456.7895, 27.92508
457.2716, 28.18393
457.7537, 28.38985
458.2358, 28.48000
458.7179, 28.45436
459.2000, 28.39991
459.6822, 28.25817
460.1643, 28.15952
460.6464, 28.17153
461.1285, 28.23832
461.6106, 28.28040
462.0927, 28.26824
462.5748, 28.23164
463.0569, 28.23272
463.5391, 28.32968
464.0212, 28.30241
464.5033, 28.11999
464.9854, 27.85176
465.4675, 27.34962
465.9496, 26.78036
466.4318, 26.55556
466.9139, 27.02870
467.3960, 27.92160
467.8781, 28.32413
468.3602, 28.03727
468.8423, 27.78156
469.3245, 27.92075
469.8066, 28.07572
470.2887, 27.86225
470.7708, 27.23703
471.2529, 26.66698
471.7350, 26.54543
472.2172, 26.77948
472.6993, 27.06307
473.1814, 27.42863
473.6635, 27.67181
474.1456, 27.53121
474.6277, 27.16609
475.1099, 26.92659
475.5920, 26.90001
476.0741, 26.97047
476.5562, 27.13336
477.0383, 27.33536
477.5204, 27.40796
478.0026, 27.28249
478.4847, 27.05785
478.9668, 26.84884
479.4489, 26.63577
479.9310, 26.55341
480.4131, 26.66123
480.8953, 26.85901
481.3774, 27.19501
481.8595, 27.57685
482.3416, 27.72085
482.8237, 27.43106
483.3058, 26.87464
483.7880, 26.62963
484.2701, 27.02717
484.7522, 27.27170
485.2343, 27.30919
485.7164, 27.21259
486.1985, 26.93098
486.6807, 26.53136
487.1628, 26.27974
487.6449, 26.49082
488.1270, 27.10863
488.6091, 27.29940
489.0912, 26.69692
489.5734, 26.24839
490.0555, 26.37373
490.5376, 26.72193
491.0197, 26.88839
491.5018, 26.75597
491.9839, 26.54754
492.4661, 26.45070
492.9482, 26.46675
493.4303, 26.65230
493.9124, 27.13556
494.3945, 27.55884
494.8766, 27.58104
495.3588, 27.31480
495.8409, 27.02852
496.3230, 26.72572
496.8051, 26.48157
497.2872, 26.36823
497.7693, 26.36904
498.2515, 26.47128
498.7336, 26.72161
499.2157, 26.91516
499.6978, 26.63636
500.1799, 25.63369
500.6620, 25.14474
501.1442, 25.72761
501.6263, 26.44768
502.1084, 26.62227
502.5905, 26.34105
503.0726, 26.07959
503.5547, 26.13727
504.0369, 26.39376
504.5190, 26.41112
505.0011, 25.78726
505.4832, 25.57586
505.9653, 26.21242
506.4474, 26.95374
506.9296, 27.22763
507.4117, 27.03482
507.8938, 26.77046
508.3759, 26.77835
508.8580, 26.99296
509.3401, 27.01026
509.8223, 26.72531
510.3044, 26.47278
510.7865, 26.37063
511.2686, 26.36078
511.7507, 26.41058
512.2328, 26.51873
512.7150, 26.62578
513.1971, 26.75950
513.6792, 26.85755
514.1613, 26.67500
514.6434, 26.11870
515.1255, 25.59232
515.6077, 25.43114
516.0898, 25.55795
516.5719, 25.59345
517.0540, 25.37854
517.5361, 25.24961
518.0182, 25.45839
518.5004, 25.82740
518.9825, 26.03666
519.4646, 26.00153
519.9467, 25.90584
520.4288, 25.98990
520.9109, 26.31460
521.3931, 26.40035
521.8752, 26.03223
522.3573, 25.70065
522.8394, 25.57529
523.3215, 25.59725
523.8036, 25.69242
524.2858, 25.82724
524.7679, 25.94399
525.2500, 25.91272
525.7321, 25.67570
526.2142, 25.58516
526.6964, 25.78302
527.1785, 26.00456
527.6606, 26.14271
528.1427, 26.20873
528.6248, 26.23085
529.1069, 26.19531
529.5891, 26.16514
530.0712, 26.26627
530.5533, 26.48574
531.0354, 26.59406
531.5175, 26.50130
531.9996, 26.31658
532.4818, 26.16896
532.9639, 26.05556
533.4460, 25.89801
533.9281, 25.51817
534.4102, 25.22398
534.8923, 25.39144
535.3745, 25.87176
535.8566, 26.14612
536.3387, 25.95906
536.8208, 25.50083
537.3029, 25.15178
537.7850, 24.89706
538.2672, 24.79828
538.7493, 24.91653
539.2314, 25.12207
539.7135, 25.44905
540.1956, 25.80130
540.6777, 25.96531
541.1599, 25.79615
541.6420, 25.42410
542.1241, 25.16766
542.6062, 25.03514
543.0883, 24.98852
543.5704, 25.04226
544.0526, 25.16892
544.5347, 25.45441
545.0168, 25.83365
545.4989, 26.01558
545.9810, 25.61578
546.4631, 25.05979
546.9453, 25.12653
547.4274, 25.79533
547.9095, 26.30873
548.3916, 26.33576
548.8737, 26.07775
549.3558, 25.81062
549.8380, 25.48521
550.3201, 25.40393
550.8022, 25.93743
551.2843, 26.49478
551.7664, 26.51290
552.2485, 26.09370
552.7307, 25.72916
553.2128, 25.70753
553.6949, 25.88298
554.1770, 25.83626
554.6591, 25.37527
555.1412, 25.03318
555.6234, 24.81206
556.1055, 24.70300
556.5876, 24.71997
557.0697, 24.84464
557.5518, 25.04613
558.0339, 25.33660
558.5161, 25.64208
558.9982, 25.80085
559.4803, 25.80989
559.9624, 25.67781
560.4445, 25.30902
560.9266, 24.89081
561.4088, 24.58352
561.8909, 24.38619
562.3730, 24.26366
562.8551, 24.22630
563.3372, 24.24110
563.8193, 24.26456
564.3015, 24.30491
564.7836, 24.42708
565.2657, 24.67903
565.7478, 24.96924
566.2299, 25.13317
566.7120, 25.14066
567.1942, 25.07124
567.6763, 24.83530
568.1584, 24.60651
568.6405, 24.44958
569.1226, 24.38320
569.6047, 24.45012
570.0869, 24.68070
570.5690, 24.96371
571.0511, 25.07250
571.5332, 24.98924
572.0153, 24.79458
572.4974, 24.29623
572.9796, 23.89168
573.4617, 23.82131
573.9438, 24.00875
574.4259, 24.24947
574.9080, 24.49470
575.3901, 24.70866
575.8723, 24.85181
576.3544, 24.92738
576.8365, 24.94283
577.3186, 24.88540
577.8007, 24.81585
578.2828, 24.84337
578.7650, 24.97603
579.2471, 24.88718
579.7292, 24.27068
580.2113, 23.74355
580.6934, 23.60780
581.1755, 23.75344
581.6577, 24.04548
582.1398, 24.42085
582.6219, 24.75322
583.1040, 24.86798
583.5861, 24.74807
584.0682, 24.53711
584.5504, 23.98376
585.0325, 23.64957
585.5146, 23.91961
585.9967, 24.40659
586.4788, 24.57048
586.9609, 24.24691
587.4431, 23.86762
587.9252, 23.87057
588.4073, 24.16256
588.8894, 24.41312
589.3715, 24.61283
589.8536, 24.65131
590.3358, 24.32501
590.8179, 23.80460
591.3000, 23.67941
591.7821, 24.18130
592.2642, 24.65006
592.7463, 24.88129
593.2285, 24.97202
593.7106, 25.01237
594.1927, 25.02048
594.6748, 24.98983
595.1569, 24.91412
595.6390, 24.79655
596.1212, 24.64892
596.6033, 24.42028
597.0854, 24.25151
597.5675, 24.11319
598.0496, 24.06825
598.5317, 24.23270
599.0139, 24.55524
599.4960, 24.80640
599.9781, 24.78027
600.4602, 24.63709
600.9423, 24.72984
601.4244, 25.06255
601.9066, 25.26271
602.3887, 25.16259
602.8708, 24.93965
603.3529, 24.82171
603.8350, 24.80462
604.3171, 24.82103
604.7993, 24.94179
605.2814, 25.01721
605.7635, 24.85800
606.2456, 24.59416
606.7277, 24.54954
607.2098, 24.84078
607.6920, 25.20690
608.1741, 25.22151
608.6562, 24.78365
609.1383, 24.54674
609.6204, 24.62536
610.1025, 24.78477
610.5847, 24.99719
611.0668, 25.22870
611.5489, 25.46688
612.0310, 25.71493
612.5131, 25.85796
612.9952, 25.64478
613.4774, 25.23927
613.9595, 25.25545
614.4416, 25.81406
614.9237, 26.28816
615.4058, 26.23351
615.8879, 25.82898
616.3701, 25.66905
616.8522, 25.90997
617.3343, 26.04644
617.8164, 25.81754
618.2985, 25.55805
618.7806, 25.60337
619.2628, 25.91659
619.7449, 26.24236
620.2270, 26.42030
620.7091, 26.48541
621.1912, 26.51287
621.6733, 26.45207
622.1555, 26.50775
622.6376, 26.88410
623.1197, 27.21479
623.6018, 27.25773
624.0839, 27.09010
624.5660, 26.93432
625.0482, 26.86247
625.5303, 26.85530
626.0124, 26.91937
626.4945, 27.03583
626.9766, 27.15137
627.4587, 27.25955
627.9409, 27.31861
628.4230, 27.27676
628.9051, 27.13623
629.3872, 27.02938
629.8693, 26.89961
630.3514, 26.86893
630.8336, 27.07163
631.3157, 27.31985
631.7978, 27.35357
632.2799, 27.18839
632.7620, 27.13951
633.2441, 27.54097
633.7263, 28.23042
634.2084, 28.49421
634.6905, 28.18126
635.1726, 28.05226
635.6547, 28.48128
636.1368, 29.05154
636.6190, 29.33686
637.1011, 29.35173
637.5832, 29.35240
638.0653, 29.38013
638.5474, 29.45720
639.0295, 29.64328
639.5117, 29.89136
639.9938, 30.08164
640.4759, 30.17251
640.9580, 30.20956
641.4401, 30.23031
641.9222, 30.21396
642.4044, 30.37802
642.8865, 31.01217
643.3686, 31.48590
643.8507, 31.55310
644.3328, 31.45575
644.8149, 31.46397
645.2971, 31.62313
645.7792, 31.77096
646.2613, 31.71469
646.7434, 31.56180
647.2255, 31.63555
647.7076, 31.95292
648.1898, 32.12683
648.6719, 31.90562
649.1540, 31.56942
649.6361, 31.64073
650.1182, 32.22719
650.6003, 32.63878
651.0825, 32.74258
651.5646, 32.73931
652.0467, 32.64665
652.5288, 32.55272
653.0109, 32.62389
653.4930, 32.91110
653.9752, 33.25101
654.4573, 33.41620
654.9394, 33.40179
655.4215, 33.42171
655.9036, 33.50355
656.3857, 33.56538
656.8679, 33.52750
657.3500, 33.47030
657.8321, 33.47424
658.3142, 33.54519
658.7963, 33.69400
659.2784, 34.07940
659.7606, 34.44206
660.2427, 34.40127
660.7248, 34.04374
661.2069, 33.81833
661.6890, 33.95013
662.1711, 34.21372
662.6533, 34.18725
663.1354, 33.75033
663.6175, 33.44823
664.0996, 33.40561
664.5817, 33.36131
665.0638, 33.12288
665.5460, 32.87919
666.0281, 32.95555
666.5102, 33.44321
666.9923, 33.91014
667.4744, 33.94250
667.9565, 33.68941
668.4387, 33.50568
668.9208, 33.41287
669.4029, 33.31996
669.8850, 33.16763
670.3671, 33.14179
670.8492, 32.95818
671.3314, 33.08322
671.8135, 33.14602
672.2956, 33.16851
672.7777, 33.10156
673.2598, 32.89798
673.7419, 32.59381
674.2241, 32.19580
674.7062, 31.71616
675.1883, 31.31874
675.6704, 31.27612
676.1525, 31.54167
676.6346, 31.65240
677.1168, 31.58339
677.5989, 31.38977
678.0810, 30.96910
678.5631, 30.51925
679.0452, 30.42520
679.5273, 30.77279
680.0095, 31.01024
680.4916, 30.91032
680.9737, 30.73479
681.4558, 30.75669
681.9379, 30.85508
682.4200, 30.66792
682.9022, 30.05626
683.3843, 29.35640
683.8664, 29.08599
684.3485, 29.28624
684.8306, 29.30708
685.3127, 29.03008
685.7949, 28.78418
686.2770, 28.73629
686.7591, 28.77234
687.2412, 28.78051
687.7233, 28.74911
688.2054, 28.69969
688.6876, 28.64149
689.1697, 28.56995
689.6518, 28.50374
690.1339, 28.42262
690.6160, 28.21304
691.0981, 27.82357
691.5803, 27.48400
692.0624, 27.57463
692.5445, 28.19085
693.0266, 28.41787
693.5087, 27.87789
693.9908, 27.45634
694.4730, 27.49377
694.9551, 27.68849
695.4372, 27.73864
695.9193, 27.60398
696.4014, 27.42407
696.8835, 27.29036
697.3657, 27.15068
697.8478, 26.89202
698.3299, 26.55017
698.8120, 26.28687
699.2941, 26.15537
699.7762, 26.16515
700.2584, 26.37309
700.7405, 26.81676
701.2226, 26.98394
701.7047, 26.57455
702.1868, 26.25327
702.6689, 26.21488
703.1511, 26.26408
703.6332, 26.20721
704.1153, 26.03449
704.5974, 25.87051
705.0795, 25.80254
705.5616, 25.78515
706.0438, 25.74091
706.5259, 25.67886
707.0080, 25.64855
707.4901, 25.65708
707.9722, 25.74711
708.4543, 26.01162
708.9365, 26.44201
709.4186, 26.59035
709.9007, 26.16379
710.3828, 25.86068
710.8649, 25.85888
711.3470, 25.96580
711.8292, 26.06131
712.3113, 26.11229
712.7934, 26.09332
713.2755, 25.98291
713.7576, 25.80820
714.2397, 25.58214
714.7219, 25.31840
715.2040, 25.09182
715.6861, 24.90812
716.1682, 24.81919
716.6503, 24.89080
717.1324, 25.09253
717.6146, 25.25619
718.0967, 25.48406
718.5788, 25.53149
719.0609, 25.15492
719.5430, 24.78527
720.0251, 24.77557
720.5073, 25.02788
720.9894, 25.25787
721.4715, 25.34428
721.9536, 25.27038
722.4357, 24.91757
722.9178, 24.35212
723.4000, 23.98932
723.8821, 23.88573
724.3642, 23.87444
724.8463, 23.86080
725.3284, 23.87026
725.8105, 23.98141
726.2927, 24.27351
726.7748, 24.46548
727.2569, 24.37806
727.7390, 24.35345
728.2211, 24.70906
728.7032, 25.21708
729.1854, 25.46509
729.6675, 25.32545
730.1496, 25.06055
730.6317, 24.89173
731.1138, 24.82309
731.5959, 24.94613
732.0781, 25.28828
732.5602, 25.39926
733.0423, 25.00315
733.5244, 24.44826
734.0065, 24.23089
734.4886, 24.40294
734.9708, 24.64755
735.4529, 25.20752
735.9350, 25.55071
736.4171, 25.31550
736.8992, 24.87263
737.3813, 24.66855
737.8635, 24.74212
738.3456, 24.76274
738.8277, 24.41013
739.3098, 23.92210
739.7919, 23.86097
740.2740, 24.18943
740.7562, 24.28637
741.2383, 23.92453
741.7204, 23.60220
742.2025, 23.87031
742.6846, 24.63652
743.1667, 24.89815
743.6489, 24.14087
744.1310, 23.64007
744.6131, 23.70029
745.0952, 23.92368
745.5773, 24.11625
746.0594, 24.20954
746.5416, 24.09391
747.0237, 23.67514
747.5058, 23.24471
747.9879, 23.18121
748.4700, 23.40734
748.9521, 23.68225
749.4343, 23.98812
749.9164, 24.18220
750.3985, 24.17190
750.8806, 24.01320
751.3627, 23.81779
751.8448, 23.51385
752.3270, 23.36708
752.8091, 23.41716
753.2912, 23.56547
753.7733, 23.88424
754.2554, 24.22572
754.7375, 24.37711
755.2197, 24.30048
755.7018, 24.19913
756.1839, 24.26097
756.6660, 24.37451
757.1481, 24.35287
757.6302, 24.20906
758.1124, 24.01659
758.5945, 23.79408
759.0766, 23.56750
759.5587, 23.34126
760.0408, 23.12057
760.5229, 23.12595
761.0051, 23.58341
761.4872, 23.92840
761.9693, 24.13914
762.4514, 24.17443
762.9335, 23.85450
763.4156, 23.32131
763.8978, 23.02834
764.3799, 23.21914
764.8620, 23.55787
765.3441, 23.93868
765.8262, 24.21841
766.3083, 23.94675
766.7905, 23.18202
767.2726, 22.76137
767.7547, 23.23646
768.2368, 24.16649
768.7189, 24.49667
769.2010, 24.03488
769.6832, 23.68513
770.1653, 23.42998
770.6474, 23.32340
771.1295, 23.53004
771.6116, 23.82037
772.0938, 23.87624
772.5759, 23.64706
773.0580, 23.45464
773.5401, 23.45157
774.0222, 23.50547
774.5043, 23.54874
774.9865, 23.55861
775.4686, 23.47638
775.9507, 23.29906
776.4328, 23.12806
776.9149, 23.05301
777.3970, 23.07284
777.8792, 23.22394
778.3613, 23.56023
778.8434, 23.72204
779.3255, 23.53102
779.8076, 23.30357
780.2897, 23.38656
780.7719, 23.67223
781.2540, 23.68465
781.7361, 23.06876
782.2182, 22.71940
782.7003, 23.19934
783.1824, 23.73630
783.6646, 23.53585
784.1467, 22.87645
784.6288, 22.59558
785.1109, 23.06033
785.5930, 23.75100
786.0751, 24.10033
786.5573, 24.14598
787.0394, 23.95635
787.5215, 23.52122
788.0036, 23.26134
788.4857, 23.40159
788.9678, 23.69943
789.4500, 23.82240
789.9321, 23.76399
790.4142, 23.58280
790.8963, 23.08904
791.3784, 22.72265
791.8605, 22.57813
792.3427, 22.59335
792.8248, 22.76534
793.3069, 23.05164
793.7890, 23.33219
794.2711, 23.61177
794.7532, 23.75352
795.2354, 23.46964
795.7175, 22.99067
796.1996, 22.88036
796.6817, 23.17138
797.1638, 23.39230
797.6459, 23.23750
798.1281, 22.90662
798.6102, 22.89438
799.0923, 23.34073
799.5744, 23.50022
800.0565, 23.18427
800.5386, 22.88094
801.0208, 22.77542
801.5029, 22.81100
801.9850, 22.97055
802.4671, 23.25846
802.9492, 23.48824
803.4313, 23.69163
803.9135, 23.73184
804.3956, 23.34834
804.8777, 22.83230
805.3598, 22.60431
805.8419, 22.71982
806.3240, 22.96679
806.8062, 23.21762
807.2883, 23.42974
807.7704, 23.49319
808.2525, 23.41428
808.7346, 23.30413
809.2167, 23.15997
809.6989, 23.08081
810.1810, 23.16455
810.6631, 23.33449
811.1452, 23.36780
811.6273, 23.13566
812.1094, 23.06453
812.5916, 23.34337
813.0737, 23.56695
813.5558, 23.55139
814.0379, 23.39246
814.5200, 23.15079
815.0021, 22.86592
815.4843, 22.75002
815.9664, 23.11545
816.4485, 23.57275
816.9306, 23.62510
817.4127, 23.41382
817.8948, 23.29565
818.3770, 23.34658
818.8591, 23.47202
819.3412, 23.61627
819.8233, 23.72773
820.3054, 23.61008
820.7875, 23.19484
821.2697, 22.84039
821.7518, 22.50908
822.2339, 22.35694
822.7160, 22.61467
823.1981, 23.05512
823.6802, 23.25406
824.1624, 23.14323
824.6445, 23.07267
825.1266, 23.02781
825.6087, 23.12991
826.0908, 23.71747
826.5729, 24.36113
827.0551, 24.34632
827.5372, 23.64908
828.0193, 23.01477
828.5014, 23.04602
828.9835, 23.38350
829.4656, 23.41076
829.9478, 23.19815
830.4299, 23.05811
830.9120, 23.04404
831.3941, 23.20865
831.8762, 23.64625
832.3583, 24.17786
832.8404, 24.28399
833.3225, 23.70856
833.8046, 23.44685
834.2867, 23.76784
834.7689, 24.05514
835.2510, 24.17086
835.7331, 24.08914
836.2152, 23.64338
836.6973, 22.83798
837.1794, 22.35705
837.6616, 22.74985
838.1437, 23.17055
838.6258, 23.00027
839.1079, 22.59842
839.5900, 22.44839
840.0721, 22.59950
840.5543, 22.86164
841.0364, 23.13174
841.5185, 23.37362
842.0006, 23.55164
842.4827, 23.65434
842.9648, 23.53362
843.4470, 23.14834
843.9291, 22.93477
844.4112, 23.17551
844.8933, 23.56072
845.3754, 23.53728
845.8575, 22.99714
846.3397, 22.73287
846.8218, 22.95980
847.3039, 23.17448
847.7860, 23.32258
848.2681, 23.38855
848.7502, 23.33757
849.2324, 23.19031
849.7145, 23.02540
850.1966, 22.83796
850.6787, 22.68953
851.1608, 22.60513
851.6429, 22.58505
852.1251, 22.66048
852.6072, 22.79949
853.0893, 22.93431
853.5714, 23.03332
854.0535, 23.05386
854.5356, 22.91145
855.0178, 22.64272
855.4999, 22.37297
855.9820, 22.09773
856.4641, 22.02910
856.9462, 22.26221
857.4283, 22.60392
857.9105, 22.89982
858.3926, 23.13421
858.8747, 23.17801
859.3568, 22.86925
859.8389, 22.65324
860.3210, 22.63272
860.8032, 22.62308
861.2853, 22.55396
861.7674, 22.42894
862.2495, 22.22963
862.7316, 21.93365
863.2137, 21.73905
863.6959, 21.77591
864.1780, 21.89736
864.6601, 22.03221
865.1422, 22.15563
865.6243, 22.24067
866.1064, 22.27953
866.5886, 22.25723
867.0707, 22.13914
867.5528, 22.01373
868.0349, 22.11118
868.5170, 22.37202
868.9991, 22.36862
869.4813, 22.03622
869.9634, 21.80139
870.4455, 21.92381
870.9276, 22.20233
871.4097, 22.26245
871.8918, 22.06644
872.3740, 21.90858
872.8561, 21.72004
873.3382, 21.68157
873.8203, 22.09182
874.3024, 22.46924
874.7845, 22.34670
875.2667, 21.83424
875.7488, 21.47213
876.2309, 21.43194
876.7130, 21.43149
877.1951, 21.33713
877.6772, 21.27301
878.1594, 21.44502
878.6415, 21.70764
879.1236, 21.68226
879.6057, 21.26733
880.0878, 20.91193
880.5699, 21.19590
881.0521, 20.95897
881.5342, 20.94463
882.0163, 21.15803
882.4984, 21.00948
882.9805, 21.37197
883.4626, 21.71240
883.9448, 21.59594
884.4269, 21.18871
884.9090, 20.96856
885.3911, 20.95800
885.8732, 21.01496
886.3553, 21.15874
886.8375, 21.31495
887.3196, 21.50670
887.8017, 21.64695
888.2838, 21.58318
888.7659, 21.29772
889.2480, 21.03367
889.7302, 20.70981
890.2123, 20.52267
890.6944, 20.66923
891.1765, 20.84503
891.6586, 20.77971
892.1407, 20.53337
892.6229, 20.30765
893.1050, 20.15144
893.5871, 20.11090
894.0692, 20.34110
894.5513, 20.60943
895.0334, 20.60104
895.5156, 20.41234
895.9977, 20.32395
896.4798, 20.40386
896.9619, 20.47282
897.4440, 20.35361
897.9261, 20.14120
898.4083, 20.13578
898.8904, 20.30136
899.3725, 20.12890
899.8546, 19.49529
900.3367, 19.06689
900.8188, 19.27460
901.3010, 19.82921
901.7831, 20.18178
902.2652, 20.30875
902.7473, 20.38758
903.2294, 20.41528
903.7115, 20.39830
904.1937, 20.25675
904.6758, 20.14271
905.1579, 20.26675
905.6400, 20.54192
906.1221, 20.59205
906.6042, 20.21134
907.0864, 19.90387
907.5685, 19.86927
908.0506, 19.87359
908.5327, 19.70438
909.0148, 19.48867
909.4969, 19.47164
909.9791, 19.69415
910.4612, 19.91654
910.9433, 19.94253
911.4254, 19.92998
911.9075, 20.10497
912.3896, 20.34737
912.8718, 20.43244
913.3539, 20.32952
913.8360, 20.05279
914.3181, 19.59678
914.8002, 19.17317
915.2823, 19.18644
915.7645, 19.56574
916.2466, 19.80878
916.7287, 19.91092
917.2108, 19.75101
917.6929, 19.20340
918.1750, 18.77359
918.6572, 19.04212
919.1393, 19.83185
919.6214, 20.07873
920.1035, 19.46864
920.5856, 19.08208
921.0677, 19.05396
921.5499, 19.15512
922.0320, 19.43279
922.5141, 19.69653
922.9962, 19.62070
923.4783, 19.16886
923.9604, 18.91900
924.4426, 19.09108
924.9247, 19.29253
925.4068, 19.39316
925.8889, 19.46964
926.3710, 19.61809
926.8531, 19.79953
927.3353, 19.89918
927.8174, 19.87723
928.2995, 19.78736
928.7816, 19.64435
929.2637, 19.46964
929.7458, 19.21064
930.2280, 18.95937
930.7101, 18.97064
931.1922, 19.24357
931.6743, 19.40471
932.1564, 19.13241
932.6385, 18.75632
933.1207, 18.96097
933.6028, 19.57318
934.0849, 19.78382
934.5670, 19.54459
935.0491, 19.37892
935.5313, 19.52114
936.0134, 19.72608
936.4955, 19.66852
936.9776, 19.72076
937.4597, 19.71653
937.9418, 19.52386
938.4240, 19.56293
938.9061, 19.23529
939.3882, 18.99556
939.8703, 19.22318
940.3524, 19.67148
940.8345, 19.78637
941.3167, 19.46085
941.7988, 19.20708
942.2809, 18.94571
942.7630, 18.85799
943.2451, 19.25857
943.7272, 19.62136
944.2094, 19.35980
944.6915, 18.68223
945.1736, 18.35719
945.6557, 18.66810
946.1378, 19.00703
946.6199, 19.16364
947.1021, 19.26471
947.5842, 19.53823
948.0663, 19.74585
948.5484, 19.36024
949.0305, 18.43119
949.5126, 17.80129
949.9948, 18.05737
950.4769, 18.60080
950.9590, 18.97246
951.4411, 19.17540
951.9232, 19.13483
952.4053, 18.92951
952.8875, 18.82700
953.3696, 18.92478
953.8517, 19.06342
954.3338, 19.07834
954.8159, 19.00513
955.2980, 18.91321
955.7802, 18.81264
956.2623, 18.78022
956.7444, 18.82927
957.2265, 18.90388
957.7086, 18.97206
958.1907, 19.04051
958.6729, 19.11597
959.1550, 19.19763
959.6371, 19.32770
960.1192, 19.50737
960.6013, 19.75875
961.0834, 20.17867
961.5656, 20.46769
962.0477, 20.32419
962.5298, 19.87906
963.0119, 19.59133
963.4940, 19.55341
963.9761, 19.43487
964.4583, 19.11201
964.9404, 18.87350
965.4225, 18.87473
965.9046, 18.94437
966.3867, 18.89040
966.8688, 18.74590
967.3510, 18.73932
967.8331, 19.02346
968.3152, 19.23290
968.7973, 19.20376
969.2794, 19.16615
969.7615, 19.31357
970.2437, 19.51153
970.7258, 19.53857
971.2079, 19.37909
971.6900, 19.24225
972.1721, 19.22150
972.6542, 19.25305
973.1364, 19.37569
973.6185, 19.47001
974.1006, 19.34677
974.5827, 19.09098
975.0648, 18.91364
975.5469, 18.88568
976.0291, 18.96655
976.5112, 19.22078
976.9933, 19.47367
977.4754, 19.43151
977.9575, 19.22024
978.4396, 19.15534
978.9218, 19.23633
979.4039, 19.16254
979.8860, 18.77913
980.3681, 18.43904
980.8502, 18.72783
981.3323, 19.41974
981.8145, 19.66529
982.2966, 19.51805
982.7787, 19.45239
983.2608, 19.57138
983.7429, 19.59219
984.2250, 19.29963
984.7072, 18.88807
985.1893, 18.75439
985.6714, 18.90631
986.1535, 19.12202
986.6356, 19.41895
987.1177, 19.70013
987.5999, 19.98313
988.0820, 20.10128
988.5641, 19.86776
989.0462, 19.39418
989.5283, 19.05847
990.0104, 18.87647
990.4926, 18.78435
990.9747, 18.79600
991.4568, 18.87608
991.9389, 19.06625
992.4210, 19.26450
992.9031, 19.38151
993.3853, 19.41841
993.8674, 19.37942
994.3495, 19.15415
994.8316, 19.04113
995.3137, 19.03833
995.7958, 19.15797
996.2780, 19.55008
996.7601, 19.96847
997.2422, 20.10697
997.7243, 19.98786
998.2064, 19.93749
998.6885, 20.15082
999.1707, 20.22532
999.6528, 19.86729
1000.135, 19.53973
1000.617, 19.60671
1001.099, 19.85923
1001.581, 19.97804
1002.063, 19.92457
1002.545, 19.85934
1003.028, 19.86084
1003.510, 19.84926
1003.992, 19.75782
1004.474, 19.65347
1004.956, 19.60241
1005.438, 19.58824
1005.920, 19.55279
1006.402, 19.48940
1006.885, 19.47823
1007.367, 19.57175
1007.849, 19.73847
1008.331, 20.04249
1008.813, 20.34204
1009.295, 20.39732
1009.777, 20.26275
1010.259, 20.15213
1010.741, 20.14156
1011.224, 20.16291
1011.706, 20.19600
1012.188, 20.18268
1012.670, 19.96833
1013.152, 19.65830
1013.634, 19.47083
1014.116, 19.43811
1014.598, 19.58666
1015.081, 19.92193
1015.563, 20.26005
1016.045, 20.41805
1016.527, 20.41032
1017.009, 20.18137
1017.491, 19.80550
1017.973, 19.65080
1018.455, 19.75741
1018.937, 19.93546
1019.420, 20.09293
1019.902, 20.21177
1020.384, 20.26423
1020.866, 20.25983
1021.348, 20.22985
1021.830, 20.17663
1022.312, 20.18818
1022.794, 20.28521
1023.276, 20.31607
1023.759, 20.18443
1024.241, 19.99527
1024.723, 19.92886
1025.205, 19.96958
1025.687, 19.85496
1026.169, 19.54407
1026.651, 19.43333
1027.133, 19.61951
1027.616, 19.91010
1028.098, 20.22682
1028.580, 20.49178
1029.062, 20.54298
1029.544, 20.37290
1030.026, 20.27765
1030.508, 20.27791
1030.990, 20.26874
1031.473, 20.19290
1031.955, 20.21474
1032.437, 20.53182
1032.919, 20.89845
1033.401, 20.80021
1033.883, 20.16210
1034.365, 19.81825
1034.847, 19.84430
1035.329, 20.01175
1035.812, 20.43956
1036.294, 20.75842
1036.776, 20.68316
1037.258, 20.37819
1037.740, 20.13659
1038.222, 19.93960
1038.704, 19.93121
1039.186, 20.27389
1039.668, 20.53713
1040.151, 20.49743
1040.633, 20.53704
1041.115, 21.14155
1041.597, 21.89043
1042.079, 21.89017
1042.561, 20.99078
1043.043, 20.35236
1043.525, 20.11772
1044.008, 19.98004
1044.490, 19.89368
1044.972, 19.88524
1045.454, 20.08224
1045.936, 20.32643
1046.418, 20.28378
1046.900, 19.88859
1047.382, 19.68172
1047.865, 19.77300
1048.347, 19.98262
1048.829, 20.49787
1049.311, 20.88908
1049.793, 20.77744
1050.275, 20.39750
1050.757, 20.14176
1051.239, 20.05389
1051.721, 20.04751
1052.203, 20.02746
1052.686, 20.19684
1053.168, 20.90030
1053.650, 21.52295
1054.132, 21.61524
1054.614, 21.35413
1055.096, 20.99659
1055.578, 20.58377
1056.060, 20.32014
1056.543, 20.34188
1057.025, 20.40559
1057.507, 20.41566
1057.989, 20.45978
1058.471, 20.67633
1058.953, 20.93262
1059.435, 20.97561
1059.917, 20.79137
1060.400, 20.71447
1060.882, 21.01285
1061.364, 21.21378
1061.846, 21.02938
1062.328, 20.81033
1062.810, 20.80028
1063.292, 20.92929
1063.774, 21.10404
1064.256, 21.29329
1064.739, 21.40849
1065.221, 21.37778
1065.703, 21.33664
1066.185, 21.37245
1066.667, 21.38454
1067.149, 21.25852
1067.631, 21.08608
1068.113, 20.91024
1068.595, 20.79890
1069.078, 21.07484
1069.560, 22.24503
1070.042, 22.95607
1070.524, 22.13654
1071.006, 21.14522
1071.488, 20.91669
1071.970, 21.11585
1072.452, 21.31296
1072.935, 21.41571
1073.417, 21.37054
1073.899, 21.06354
1074.381, 20.90010
1074.863, 21.29457
1075.345, 21.65237
1075.827, 21.45762
1076.309, 21.07004
1076.792, 20.93969
1077.274, 21.06176
1077.756, 21.21121
1078.238, 21.34636
1078.720, 21.36924
1079.202, 21.18794
1079.684, 20.93193
1080.166, 20.49974
1080.648, 20.17435
1081.130, 20.40102
1081.613, 20.98467
1082.095, 21.31255
1082.577, 21.19668
1083.059, 20.98725
1083.541, 20.63540
1084.023, 20.47783
1084.505, 20.93306
1084.987, 21.48368
1085.469, 21.55910
1085.952, 21.32620
1086.434, 21.28305
1086.916, 21.54957
1087.398, 21.72368
1087.880, 21.50809
1088.362, 21.33004
1088.844, 21.56654
1089.326, 21.76831
1089.809, 21.36342
1090.291, 20.71599
1090.773, 20.58253
1091.255, 21.05646
1091.737, 21.37885
1092.219, 21.03631
1092.701, 20.82629
1093.183, 21.29872
1093.666, 21.76400
1094.148, 21.65034
1094.630, 21.24666
1095.112, 20.95831
1095.594, 20.84415
1096.076, 20.86115
1096.558, 21.06777
1097.040, 21.26244
1097.522, 21.45374
1098.005, 21.53125
1098.487, 21.27913
1098.969, 20.98511
1099.451, 21.03082
1099.933, 21.35636
1100.415, 21.58046
1100.897, 21.59561
1101.379, 21.58487
1101.861, 21.64035
1102.344, 21.62155
1102.826, 21.39211
1103.308, 21.12525
1103.790, 20.93985
1104.272, 20.85623
1104.754, 20.93794
1105.236, 21.26201
1105.718, 21.38701
1106.201, 20.97222
1106.683, 20.70894
1107.165, 20.97145
1107.647, 21.27591
1108.129, 21.25088
1108.611, 21.04128
1109.093, 20.90513
1109.575, 20.85526
1110.057, 20.94559
1110.540, 21.36842
1111.022, 21.65252
1111.504, 21.62575
1111.986, 21.56426
1112.468, 21.63172
1112.950, 21.72624
1113.432, 21.67024
1113.914, 21.48032
1114.396, 21.45099
1114.879, 21.84310
1115.361, 21.94131
1115.843, 21.47354
1116.325, 21.09104
1116.807, 21.02123
1117.289, 21.12176
1117.771, 21.27845
1118.253, 21.49280
1118.736, 21.80222
1119.218, 22.36762
1119.700, 22.46243
1120.182, 21.74065
1120.664, 21.29501
1121.146, 21.51908
1121.628, 21.85061
1122.110, 21.89218
1122.593, 21.76843
1123.075, 21.73986
1123.557, 21.81490
1124.039, 21.84397
1124.521, 21.81547
1125.003, 21.77451
1125.485, 21.70960
1125.967, 21.68817
1126.449, 21.73878
1126.932, 21.87120
1127.414, 22.11930
1127.896, 22.45370
1128.378, 22.69049
1128.860, 22.83398
1129.342, 22.82054
1129.824, 22.63152
1130.306, 22.38616
1130.788, 22.11688
1131.271, 21.88494
1131.753, 21.74846
1132.235, 21.69558
1132.717, 21.69748
1133.199, 21.75486
1133.681, 21.87161
1134.163, 22.04997
1134.645, 22.40542
1135.128, 22.95693
1135.610, 23.27070
1136.092, 23.05512
1136.574, 22.65015
1137.056, 22.57741
1137.538, 22.72017
1138.020, 22.67995
1138.502, 22.50162
1138.984, 22.29236
1139.467, 22.12391
1139.949, 22.42813
1140.431, 23.33920
1140.913, 24.01221
1141.395, 23.54867
1141.877, 22.57084
1142.359, 21.88010
1142.841, 21.52561
1143.323, 21.83583
1143.806, 22.55317
1144.288, 22.90233
1144.770, 22.75743
1145.252, 22.63990
1145.734, 22.88711
1146.216, 23.11746
1146.698, 22.85602
1147.180, 22.47273
1147.663, 22.40885
1148.145, 22.51490
1148.627, 22.50186
1149.109, 22.40002
1149.591, 22.48301
1150.073, 22.84909
1150.555, 23.07541
1151.037, 22.69042
1151.520, 22.35515
1152.002, 22.63343
1152.484, 23.03194
1152.966, 23.07938
1153.448, 22.90390
1153.930, 22.73244
1154.412, 22.62671
1154.894, 22.70886
1155.376, 23.16613
1155.859, 23.52106
1156.341, 23.57538
1156.823, 23.55829
1157.305, 23.55636
1157.787, 23.56468
1158.269, 23.60066
1158.751, 23.63593
1159.233, 23.56793
1159.715, 23.33893
1160.198, 23.19813
1160.680, 23.18383
1161.162, 23.22899
1161.644, 23.53801
1162.126, 23.62055
1162.608, 22.93034
1163.090, 22.08491
1163.572, 22.05592
1164.055, 22.79828
1164.537, 23.31882
1165.019, 23.53099
1165.501, 23.81740
1165.983, 24.28396
1166.465, 24.54284
1166.947, 24.41980
1167.429, 24.14660
1167.911, 23.90208
1168.394, 23.70433
1168.876, 23.59727
1169.358, 23.58177
1169.840, 23.64071
1170.322, 23.77542
1170.804, 23.88257
1171.286, 23.94279
1171.768, 23.98246
1172.250, 24.01734
1172.733, 23.99853
1173.215, 23.82089
1173.697, 23.61106
1174.179, 23.82380
1174.661, 24.26373
1175.143, 24.11284
1175.625, 23.51842
1176.107, 23.45706
1176.590, 24.11036
1177.072, 24.60770
1177.554, 24.35488
1178.036, 23.91912
1178.518, 23.96457
1179.000, 24.17666
1179.482, 24.14635
1179.964, 23.98468
1180.447, 23.88853
1180.929, 23.86157
1181.411, 23.79651
1181.893, 23.66549
1182.375, 23.63378
1182.857, 23.93987
1183.339, 24.17869
1183.821, 23.97766
1184.303, 23.76554
1184.786, 23.94327
1185.268, 24.29066
1185.750, 24.47626
1186.232, 24.49922
1186.714, 24.56406
1187.196, 24.74721
1187.678, 24.85957
1188.160, 24.74987
1188.642, 24.72666
1189.125, 25.05126
1189.607, 25.31345
1190.089, 25.17303
1190.571, 24.83449
1191.053, 24.65647
1191.535, 24.63694
1192.017, 24.47102
1192.499, 24.44408
1192.982, 24.58553
1193.464, 24.42591
1193.946, 24.85927
1194.428, 24.97534
1194.910, 24.90905
1195.392, 24.74631
1195.874, 24.55695
1196.356, 24.50891
1196.839, 24.59435
1197.321, 24.72101
1197.803, 24.88541
1198.285, 25.06980
1198.767, 25.26165
1199.249, 25.34518
1199.731, 25.27012
1200.213, 25.17341
1200.695, 25.20946
1201.177, 25.26678
1201.660, 25.06502
1202.142, 25.23689
1202.624, 24.95494
1203.106, 25.35254
1203.588, 25.52555
1204.070, 25.41941
1204.552, 25.20325
1205.034, 24.92294
1205.517, 24.90296
1205.999, 25.74174
1206.481, 26.47598
1206.963, 26.24602
1207.445, 25.73050
1207.927, 25.49710
1208.409, 25.51773
1208.891, 25.74537
1209.374, 26.11453
1209.856, 26.21058
1210.338, 25.71343
1210.820, 25.41636
1211.302, 25.54867
1211.784, 25.75901
1212.266, 26.10579
1212.748, 26.29397
1213.230, 25.96101
1213.713, 25.43748
1214.195, 25.42088
1214.677, 25.32277
1215.159, 25.25964
1215.641, 25.57872
1216.123, 25.44073
1216.605, 25.75659
1217.087, 25.95671
1217.569, 25.81669
1218.052, 25.61661
1218.534, 25.59204
1219.016, 25.69051
1219.498, 25.86076
1219.980, 26.05726
1220.462, 26.01642
1220.944, 26.14547
1221.426, 25.85299
1221.909, 26.10730
1222.391, 26.16356
1222.873, 25.88648
1223.355, 25.65174
1223.837, 25.77233
1224.319, 25.99936
1224.801, 26.09180
1225.283, 26.14028
1225.766, 26.25287
1226.248, 26.38729
1226.730, 26.47075
1227.212, 26.50781
1227.694, 26.55207
1228.176, 26.62103
1228.658, 26.63914
1229.140, 26.60727
1229.622, 26.48324
1230.104, 26.05030
1230.587, 25.75794
1231.069, 26.02971
1231.551, 26.43595
1232.033, 26.48578
1232.515, 26.26466
1232.997, 26.08590
1233.479, 25.93765
1233.961, 25.89289
1234.444, 25.95159
1234.926, 26.15049
1235.408, 26.54931
1235.890, 26.77500
1236.372, 26.60609
1236.854, 26.46242
1237.336, 26.88694
1237.818, 27.51878
1238.301, 27.26772
1238.783, 27.46532
1239.265, 27.40149
1239.747, 27.03393
1240.229, 27.03153
1240.711, 26.39394
1241.193, 26.09834
1241.675, 26.56964
1242.157, 27.12547
1242.640, 27.18495
1243.122, 27.13859
1243.604, 27.36434
1244.086, 27.61266
1244.568, 27.58288
1245.050, 27.44475
1245.532, 27.52407
1246.014, 27.75924
1246.496, 27.73344
1246.979, 27.24813
1247.461, 27.06358
1247.943, 27.65306
1248.425, 28.02693
1248.907, 27.92179
1249.389, 27.67276
1249.871, 27.36966
1250.353, 27.07230
1250.836, 26.80919
1251.318, 26.63191
1251.800, 26.78246
1252.282, 27.29797
1252.764, 27.53143
1253.246, 27.47683
1253.728, 27.43181
1254.210, 27.45339
1254.693, 27.67695
1255.175, 28.15856
1255.657, 28.48556
1256.139, 28.22192
1256.621, 27.69300
1257.103, 27.22578
1257.585, 26.93873
1258.067, 27.15435
1258.549, 27.62984
1259.031, 28.00023
1259.514, 28.17636
1259.996, 28.06936
1260.478, 27.65685
1260.960, 27.33315
1261.442, 27.21786
1261.924, 27.29649
1262.406, 27.84497
1262.888, 28.24939
1263.371, 27.94045
1263.853, 27.54251
1264.335, 27.83613
1264.817, 27.56985
1265.299, 27.47975
1265.781, 27.67415
1266.263, 27.43024
1266.745, 27.78718
1267.228, 28.19016
1267.710, 28.61286
1268.192, 28.80097
1268.674, 28.65508
1269.156, 28.43133
1269.638, 28.32281
1270.120, 28.30283
1270.602, 28.39008
1271.084, 28.49691
1271.567, 28.35599
1272.049, 28.11579
1272.531, 28.10243
1273.013, 28.28069
1273.495, 28.50896
1273.977, 28.72177
1274.459, 28.79740
1274.941, 28.64867
1275.423, 28.48047
1275.906, 28.29428
1276.388, 28.23599
1276.870, 28.65662
1277.352, 28.94449
1277.834, 28.25345
1278.316, 27.36864
1278.798, 27.63441
1279.280, 28.84234
1279.763, 29.56666
1280.245, 29.75975
1280.727, 29.62418
1281.209, 29.12219
1281.691, 28.46620
1282.173, 27.66213
1282.655, 27.19645
1283.137, 27.31960
1283.620, 27.73126
1284.102, 28.14727
1284.584, 28.53784
1285.066, 28.85998
##END=



