##NAMES=Magnetite
##RRUFFID=R061111
##IDEAL CHEMISTRY=Fe^2+^Fe^3+^_2_O_4_
##LOCALITY=near Scotia Talc mine, Barberton Mountain, Transvaal, South Afica
##OWNER=RRUFF
##SOURCE=Michael Scott
##DESCRIPTION=Black submetallic grains and octahedra associated with light green massive willemseite
##STATUS=The identification of this mineral is confirmed by single-crystal X-ray diffraction and chemical analysis.
##URL=rruff.info/R061111
##MEASURED CHEMISTRY=(Fe^2+^_0.51_Ni_0.48_Co_0.01_)_Î£=1_Fe^3+^_2_O_4_; trace amounts of Al; Fe^2+^ and Fe^3+^ splitted by charge balance
172.6691, 1674.858
173.1512, 1654.850
173.6334, 1656.036
174.1155, 1668.810
174.5976, 1678.465
175.0797, 1680.248
175.5618, 1677.815
176.0439, 1673.752
176.5260, 1668.243
177.0082, 1664.258
177.4903, 1666.973
177.9724, 1673.158
178.4545, 1674.979
178.9366, 1663.886
179.4187, 1649.434
179.9009, 1650.406
180.3830, 1667.549
180.8651, 1685.840
181.3472, 1688.204
181.8293, 1678.476
182.3114, 1671.167
182.7936, 1675.356
183.2757, 1686.120
183.7578, 1692.300
184.2399, 1693.781
184.7220, 1690.354
185.2041, 1677.595
185.6863, 1657.096
186.1684, 1641.634
186.6505, 1638.418
187.1326, 1645.581
187.6147, 1656.771
188.0968, 1673.187
188.5790, 1689.846
189.0611, 1698.995
189.5432, 1700.704
190.0253, 1699.721
190.5074, 1700.140
190.9895, 1701.078
191.4717, 1693.804
191.9538, 1674.209
192.4359, 1651.023
192.9180, 1643.946
193.4001, 1654.019
193.8822, 1666.432
194.3644, 1669.383
194.8465, 1663.250
195.3286, 1664.489
195.8107, 1678.141
196.2928, 1698.192
196.7749, 1705.363
197.2570, 1697.324
197.7392, 1688.799
198.2213, 1694.767
198.7034, 1716.822
199.1855, 1728.248
199.6676, 1720.741
200.1497, 1700.095
200.6319, 1692.752
201.1140, 1701.638
201.5961, 1714.245
202.0782, 1719.991
202.5603, 1718.463
203.0424, 1713.051
203.5246, 1703.545
204.0067, 1690.524
204.4888, 1678.322
204.9709, 1666.248
205.4530, 1656.553
205.9352, 1651.330
206.4173, 1650.546
206.8994, 1654.802
207.3815, 1666.551
207.8636, 1685.577
208.3457, 1696.980
208.8279, 1699.995
209.3100, 1696.518
209.7921, 1687.001
210.2742, 1668.308
210.7563, 1653.167
211.2384, 1646.413
211.7206, 1648.617
212.2027, 1649.487
212.6848, 1649.210
213.1669, 1647.298
213.6490, 1641.933
214.1311, 1630.219
214.6133, 1622.379
215.0954, 1623.862
215.5775, 1637.549
216.0596, 1642.499
216.5417, 1635.322
217.0238, 1622.251
217.5059, 1613.620
217.9881, 1611.060
218.4702, 1609.596
218.9523, 1607.201
219.4344, 1603.109
219.9165, 1601.455
220.3986, 1603.646
220.8808, 1607.481
221.3629, 1608.065
221.8450, 1603.022
222.3271, 1599.012
222.8092, 1599.452
223.2913, 1607.662
223.7735, 1611.079
224.2556, 1607.682
224.7377, 1600.227
225.2198, 1595.397
225.7019, 1593.006
226.1840, 1593.394
226.6662, 1597.632
227.1483, 1609.650
227.6304, 1615.837
228.1125, 1613.627
228.5946, 1606.045
229.0767, 1601.820
229.5589, 1601.892
230.0410, 1603.986
230.5231, 1608.031
231.0052, 1618.383
231.4873, 1620.368
231.9694, 1608.031
232.4516, 1587.188
232.9337, 1579.723
233.4158, 1591.595
233.8979, 1608.638
234.3800, 1624.200
234.8621, 1641.279
235.3443, 1650.464
235.8264, 1649.181
236.3085, 1639.542
236.7906, 1629.848
237.2727, 1617.628
237.7548, 1608.582
238.2369, 1606.472
238.7191, 1615.442
239.2012, 1623.184
239.6833, 1629.183
240.1654, 1633.270
240.6475, 1634.007
241.1296, 1628.079
241.6118, 1622.804
242.0939, 1623.533
242.5760, 1636.108
243.0581, 1642.222
243.5402, 1636.910
244.0223, 1622.907
244.5045, 1617.301
244.9866, 1625.375
245.4687, 1635.231
245.9508, 1638.753
246.4329, 1631.615
246.9150, 1627.584
247.3972, 1629.754
247.8793, 1636.801
248.3614, 1638.428
248.8435, 1627.620
249.3256, 1620.384
249.8077, 1631.089
250.2899, 1677.129
250.7720, 1702.363
251.2541, 1692.832
251.7362, 1654.250
252.2183, 1630.727
252.7004, 1627.584
253.1826, 1632.493
253.6647, 1637.011
254.1468, 1639.913
254.6289, 1645.364
255.1110, 1655.568
255.5931, 1669.447
256.0753, 1677.661
256.5574, 1678.878
257.0395, 1676.692
257.5216, 1673.772
258.0037, 1670.666
258.4858, 1664.937
258.9680, 1653.127
259.4501, 1637.408
259.9322, 1636.800
260.4143, 1660.073
260.8964, 1684.336
261.3785, 1690.554
261.8607, 1670.697
262.3428, 1656.138
262.8249, 1651.061
263.3070, 1654.601
263.7891, 1661.625
264.2712, 1673.068
264.7534, 1686.001
265.2355, 1699.203
265.7176, 1714.669
266.1997, 1723.497
266.6818, 1722.514
267.1639, 1713.716
267.6461, 1709.276
268.1282, 1711.256
268.6103, 1713.112
269.0924, 1708.670
269.5745, 1695.358
270.0566, 1687.269
270.5387, 1688.253
271.0208, 1695.677
271.5030, 1694.980
271.9851, 1681.698
272.4672, 1672.072
272.9493, 1682.285
273.4314, 1717.190
273.9135, 1739.964
274.3957, 1742.592
274.8778, 1730.345
275.3599, 1722.242
275.8420, 1718.354
276.3241, 1718.357
276.8062, 1724.800
277.2884, 1738.942
277.7705, 1744.871
278.2526, 1738.226
278.7347, 1723.560
279.2168, 1714.626
279.6989, 1712.126
280.1811, 1711.732
280.6632, 1710.059
281.1453, 1707.071
281.6274, 1706.503
282.1095, 1708.963
282.5916, 1713.992
283.0738, 1721.595
283.5559, 1732.224
284.0380, 1741.436
284.5201, 1744.628
285.0022, 1742.370
285.4843, 1743.262
285.9665, 1749.050
286.4486, 1757.368
286.9307, 1762.815
287.4128, 1765.219
287.8949, 1768.416
288.3770, 1775.526
288.8592, 1785.845
289.3413, 1795.920
289.8234, 1806.371
290.3055, 1814.486
290.7876, 1811.984
291.2697, 1799.741
291.7519, 1791.374
292.2340, 1799.824
292.7161, 1819.722
293.1982, 1829.856
293.6803, 1825.733
294.1624, 1818.927
294.6446, 1830.645
295.1267, 1857.506
295.6088, 1878.195
296.0909, 1875.185
296.5730, 1857.543
297.0551, 1846.046
297.5373, 1842.965
298.0194, 1844.303
298.5015, 1847.843
298.9836, 1852.535
299.4657, 1854.590
299.9478, 1846.397
300.4300, 1835.864
300.9121, 1837.764
301.3942, 1854.629
301.8763, 1873.955
302.3584, 1883.479
302.8405, 1885.612
303.3227, 1886.155
303.8048, 1884.092
304.2869, 1883.694
304.7690, 1893.465
305.2511, 1914.904
305.7332, 1932.165
306.2154, 1927.081
306.6975, 1909.471
307.1796, 1896.870
307.6617, 1900.286
308.1438, 1909.992
308.6259, 1919.407
309.1081, 1928.312
309.5901, 1934.505
310.0723, 1934.451
310.5544, 1931.397
311.0365, 1929.713
311.5186, 1930.057
312.0007, 1933.071
312.4828, 1941.359
312.9650, 1954.437
313.4471, 1964.451
313.9292, 1964.570
314.4113, 1960.501
314.8934, 1957.943
315.3755, 1961.819
315.8577, 1964.672
316.3398, 1960.007
316.8219, 1949.503
317.3040, 1945.272
317.7861, 1959.774
318.2682, 1978.024
318.7504, 1988.730
319.2325, 1980.732
319.7146, 1974.493
320.1967, 1978.029
320.6788, 1988.866
321.1609, 1996.655
321.6431, 1996.193
322.1252, 1993.808
322.6073, 1992.874
323.0894, 1992.483
323.5715, 1995.540
324.0536, 2007.601
324.5358, 2024.103
325.0179, 2031.884
325.5000, 2019.375
325.9821, 2005.943
326.4642, 1999.414
326.9464, 2003.636
327.4285, 2008.744
327.9106, 2019.394
328.3927, 2030.305
328.8748, 2030.652
329.3569, 2008.080
329.8391, 1988.421
330.3212, 1980.700
330.8033, 1990.490
331.2854, 1995.567
331.7675, 1992.741
332.2496, 1986.879
332.7318, 1985.674
333.2139, 1992.989
333.6960, 1998.409
334.1781, 1998.698
334.6602, 1993.113
335.1423, 1988.296
335.6245, 1984.143
336.1066, 1980.736
336.5887, 1978.613
337.0708, 1978.481
337.5529, 1977.012
338.0350, 1972.236
338.5172, 1964.729
338.9993, 1964.108
339.4814, 1973.674
339.9635, 1982.083
340.4456, 1976.096
340.9277, 1953.563
341.4099, 1938.050
341.8920, 1935.758
342.3741, 1942.830
342.8562, 1945.364
343.3383, 1942.640
343.8204, 1940.257
344.3026, 1944.969
344.7847, 1955.434
345.2668, 1957.694
345.7489, 1946.170
346.2310, 1930.623
346.7131, 1932.962
347.1953, 1952.082
347.6774, 1970.740
348.1595, 1978.077
348.6416, 1976.174
349.1237, 1969.249
349.6058, 1955.909
350.0880, 1943.886
350.5700, 1945.310
351.0522, 1957.157
351.5343, 1967.637
352.0164, 1969.074
352.4985, 1966.003
352.9806, 1965.072
353.4627, 1966.925
353.9449, 1969.005
354.4270, 1968.069
354.9091, 1965.909
355.3912, 1965.742
355.8733, 1973.334
356.3554, 1980.581
356.8376, 1979.589
357.3197, 1970.413
357.8018, 1960.832
358.2839, 1953.239
358.7660, 1948.525
359.2481, 1947.691
359.7303, 1956.139
360.2124, 1963.723
360.6945, 1964.977
361.1766, 1960.863
361.6587, 1957.188
362.1408, 1953.158
362.6230, 1952.210
363.1051, 1957.064
363.5872, 1973.848
364.0693, 1988.556
364.5514, 1998.326
365.0335, 2003.602
365.5157, 2005.382
365.9978, 2002.353
366.4799, 1997.069
366.9620, 1989.586
367.4441, 1975.651
367.9262, 1968.765
368.4084, 1976.660
368.8905, 1990.227
369.3726, 1995.208
369.8547, 1983.592
370.3368, 1973.164
370.8189, 1968.936
371.3011, 1972.175
371.7832, 1974.089
372.2653, 1975.463
372.7474, 1974.851
373.2295, 1969.324
373.7116, 1954.257
374.1938, 1946.092
374.6759, 1950.070
375.1580, 1964.626
375.6401, 1976.306
376.1222, 1985.759
376.6043, 1990.901
377.0865, 1988.957
377.5686, 1979.189
378.0507, 1969.933
378.5328, 1961.842
379.0149, 1955.465
379.4970, 1951.662
379.9792, 1950.321
380.4613, 1953.452
380.9434, 1967.239
381.4255, 1988.480
381.9076, 1995.651
382.3897, 1983.879
382.8719, 1968.421
383.3540, 1975.631
383.8361, 2000.486
384.3182, 2017.292
384.8003, 2006.072
385.2824, 1980.861
385.7646, 1966.087
386.2467, 1962.389
386.7288, 1963.218
387.2109, 1965.600
387.6930, 1968.137
388.1751, 1968.066
388.6573, 1959.283
389.1394, 1951.818
389.6215, 1955.525
390.1036, 1969.151
390.5857, 1984.482
391.0678, 2003.369
391.5499, 2018.735
392.0320, 2023.337
392.5142, 2009.621
392.9963, 1994.601
393.4784, 1983.691
393.9605, 1976.657
394.4426, 1972.749
394.9247, 1974.142
395.4069, 1976.686
395.8890, 1978.869
396.3711, 1981.184
396.8532, 1981.124
397.3353, 1974.732
397.8174, 1966.881
398.2996, 1963.813
398.7817, 1973.210
399.2638, 1979.981
399.7459, 1979.527
400.2280, 1970.946
400.7101, 1967.813
401.1923, 1974.838
401.6744, 1982.892
402.1565, 1983.923
402.6386, 1972.079
403.1207, 1967.041
403.6028, 1974.101
404.0850, 1989.323
404.5671, 1995.879
405.0492, 1991.340
405.5313, 1985.118
406.0134, 1983.383
406.4955, 1986.751
406.9777, 1985.146
407.4598, 1976.144
407.9419, 1965.715
408.4240, 1964.642
408.9061, 1972.724
409.3882, 1982.247
409.8704, 1992.447
410.3525, 2001.574
410.8346, 2000.328
411.3167, 1987.779
411.7988, 1976.911
412.2809, 1986.071
412.7631, 2007.378
413.2452, 2020.449
413.7273, 2015.028
414.2094, 2002.871
414.6915, 1997.687
415.1736, 1998.366
415.6558, 1998.800
416.1379, 1993.260
416.6200, 1986.458
417.1021, 1983.139
417.5842, 1984.248
418.0663, 1988.639
418.5485, 1998.199
419.0306, 2010.369
419.5127, 2020.246
419.9948, 2028.964
420.4769, 2032.492
420.9590, 2025.067
421.4412, 2004.066
421.9233, 1992.440
422.4054, 2001.070
422.8875, 2018.394
423.3696, 2034.060
423.8517, 2046.633
424.3339, 2057.420
424.8160, 2066.774
425.2981, 2074.603
425.7802, 2080.498
426.2623, 2082.869
426.7444, 2085.202
427.2266, 2089.558
427.7087, 2097.917
428.1908, 2103.927
428.6729, 2108.207
429.1550, 2109.773
429.6371, 2103.979
430.1193, 2086.851
430.6014, 2078.513
431.0835, 2090.235
431.5656, 2119.787
432.0477, 2140.109
432.5298, 2151.073
433.0119, 2153.568
433.4940, 2142.706
433.9762, 2121.242
434.4583, 2109.206
434.9404, 2113.163
435.4225, 2126.766
435.9046, 2142.298
436.3867, 2158.845
436.8689, 2171.145
437.3510, 2169.807
437.8331, 2163.915
438.3152, 2168.558
438.7973, 2187.769
439.2794, 2207.643
439.7616, 2214.939
440.2437, 2215.223
440.7258, 2218.430
441.2079, 2236.681
441.6900, 2252.500
442.1721, 2250.784
442.6543, 2231.891
443.1364, 2221.630
443.6185, 2235.998
444.1006, 2259.401
444.5827, 2279.843
445.0648, 2300.210
445.5470, 2311.720
446.0291, 2306.537
446.5112, 2290.715
446.9933, 2283.610
447.4754, 2295.011
447.9576, 2305.216
448.4397, 2305.925
448.9218, 2292.108
449.4039, 2290.720
449.8860, 2308.217
450.3681, 2331.658
450.8503, 2344.885
451.3324, 2344.004
451.8145, 2347.109
452.2966, 2359.871
452.7787, 2379.415
453.2608, 2390.599
453.7430, 2392.102
454.2251, 2394.104
454.7072, 2407.708
455.1893, 2430.078
455.6714, 2440.194
456.1535, 2432.854
456.6357, 2421.693
457.1178, 2424.574
457.5999, 2439.347
458.0820, 2458.140
458.5641, 2482.678
459.0462, 2506.383
459.5284, 2517.996
460.0105, 2517.741
460.4926, 2518.460
460.9747, 2530.782
461.4568, 2548.016
461.9389, 2562.416
462.4211, 2568.819
462.9032, 2576.489
463.3853, 2594.943
463.8674, 2618.359
464.3495, 2631.103
464.8316, 2612.524
465.3138, 2595.853
465.7959, 2597.326
466.2780, 2625.253
466.7601, 2646.578
467.2422, 2655.750
467.7243, 2659.151
468.2065, 2662.851
468.6886, 2669.945
469.1707, 2671.502
469.6528, 2661.448
470.1349, 2644.055
470.6170, 2646.263
471.0992, 2677.588
471.5813, 2705.307
472.0634, 2704.678
472.5455, 2673.687
473.0276, 2661.059
473.5097, 2672.723
473.9918, 2692.692
474.4739, 2694.958
474.9561, 2681.779
475.4382, 2675.571
475.9203, 2692.736
476.4024, 2718.010
476.8845, 2716.228
477.3666, 2689.558
477.8488, 2666.819
478.3309, 2678.795
478.8130, 2704.870
479.2951, 2715.368
479.7772, 2700.611
480.2593, 2679.581
480.7415, 2661.393
481.2236, 2646.087
481.7057, 2633.736
482.1878, 2627.722
482.6699, 2621.724
483.1520, 2612.743
483.6342, 2600.585
484.1163, 2588.111
484.5984, 2573.989
485.0805, 2560.889
485.5626, 2551.073
486.0447, 2550.029
486.5269, 2543.954
487.0090, 2526.792
487.4911, 2505.592
487.9732, 2499.945
488.4553, 2520.111
488.9374, 2533.165
489.4196, 2523.680
489.9017, 2490.888
490.3838, 2470.811
490.8659, 2465.638
491.3480, 2465.481
491.8301, 2462.223
492.3123, 2455.626
492.7944, 2442.309
493.2765, 2417.591
493.7586, 2391.808
494.2407, 2384.729
494.7228, 2393.410
495.2050, 2401.790
495.6871, 2401.304
496.1692, 2394.989
496.6513, 2385.391
497.1334, 2372.459
497.6155, 2360.063
498.0977, 2351.048
498.5798, 2343.820
499.0619, 2336.340
499.5440, 2325.387
500.0261, 2317.071
500.5082, 2314.700
500.9904, 2316.815
501.4725, 2318.190
501.9546, 2314.492
502.4367, 2312.742
502.9188, 2317.852
503.4009, 2334.780
503.8831, 2339.368
504.3652, 2325.201
504.8473, 2304.459
505.3294, 2289.141
505.8115, 2280.294
506.2936, 2274.149
506.7758, 2270.365
507.2579, 2268.808
507.7400, 2269.573
508.2221, 2272.948
508.7042, 2276.339
509.1863, 2278.677
509.6685, 2279.903
510.1506, 2280.201
510.6327, 2279.814
511.1148, 2276.605
511.5969, 2262.000
512.0790, 2243.192
512.5612, 2236.644
513.0433, 2256.607
513.5254, 2280.135
514.0075, 2287.159
514.4896, 2281.058
514.9717, 2273.545
515.4539, 2267.787
515.9360, 2264.049
516.4181, 2263.040
516.9002, 2265.509
517.3823, 2267.574
517.8644, 2266.895
518.3466, 2266.206
518.8287, 2268.464
519.3108, 2279.847
519.7929, 2285.408
520.2750, 2279.685
520.7571, 2267.010
521.2393, 2264.955
521.7214, 2278.043
522.2035, 2290.845
522.6856, 2294.840
523.1677, 2289.577
523.6498, 2291.236
524.1320, 2301.196
524.6141, 2312.267
525.0962, 2314.569
525.5783, 2310.160
526.0604, 2310.594
526.5425, 2321.588
527.0247, 2333.937
527.5068, 2334.137
527.9889, 2324.803
528.4710, 2315.342
528.9531, 2305.618
529.4352, 2301.582
529.9174, 2313.186
530.3995, 2342.385
530.8816, 2363.778
531.3637, 2359.833
531.8458, 2346.461
532.3279, 2337.249
532.8101, 2333.264
533.2922, 2335.816
533.7743, 2351.088
534.2564, 2372.948
534.7385, 2385.573
535.2206, 2382.015
535.7027, 2379.586
536.1848, 2384.417
536.6669, 2396.693
537.1490, 2403.329
537.6312, 2402.654
538.1133, 2400.579
538.5954, 2402.524
539.0775, 2408.344
539.5596, 2412.139
540.0417, 2411.991
540.5239, 2412.612
541.0060, 2423.826
541.4881, 2442.950
541.9702, 2458.974
542.4523, 2464.956
542.9344, 2466.295
543.4166, 2466.591
543.8987, 2466.525
544.3808, 2471.530
544.8629, 2492.505
545.3450, 2515.190
545.8271, 2527.316
546.3093, 2523.061
546.7914, 2517.354
547.2735, 2510.137
547.7556, 2504.905
548.2377, 2506.483
548.7198, 2519.668
549.2020, 2534.567
549.6841, 2553.419
550.1662, 2573.956
550.6483, 2579.728
551.1304, 2564.224
551.6125, 2549.320
552.0947, 2549.695
552.5768, 2566.382
553.0589, 2568.938
553.5410, 2554.290
554.0231, 2537.252
554.5052, 2537.386
554.9874, 2550.537
555.4695, 2559.016
555.9516, 2555.497
556.4337, 2549.773
556.9158, 2555.045
557.3979, 2568.412
557.8801, 2581.114
558.3622, 2590.144
558.8443, 2595.482
559.3264, 2596.322
559.8085, 2592.505
560.2906, 2587.449
560.7728, 2578.120
561.2549, 2570.453
561.7370, 2569.004
562.2191, 2585.088
562.7012, 2592.035
563.1833, 2584.779
563.6655, 2570.417
564.1476, 2560.770
564.6297, 2556.479
565.1118, 2555.495
565.5939, 2558.883
566.0760, 2565.188
566.5582, 2565.133
567.0403, 2558.202
567.5224, 2550.361
568.0045, 2546.423
568.4866, 2544.947
568.9688, 2541.506
569.4509, 2535.740
569.9330, 2527.825
570.4151, 2514.507
570.8972, 2499.772
571.3793, 2489.979
571.8615, 2489.421
572.3436, 2492.010
572.8257, 2496.644
573.3078, 2502.020
573.7899, 2504.471
574.2720, 2501.838
574.7542, 2496.944
575.2363, 2490.365
575.7184, 2481.879
576.2005, 2473.411
576.6826, 2462.709
577.1647, 2454.552
577.6469, 2451.928
578.1290, 2454.686
578.6111, 2465.920
579.0932, 2490.539
579.5753, 2516.102
580.0574, 2521.237
580.5396, 2506.836
581.0217, 2484.833
581.5038, 2453.078
581.9859, 2421.416
582.4680, 2409.278
582.9501, 2414.081
583.4323, 2421.202
583.9144, 2421.675
584.3965, 2419.860
584.8786, 2420.091
585.3607, 2423.224
585.8428, 2425.786
586.3250, 2427.510
586.8071, 2427.453
587.2892, 2424.746
587.7713, 2417.793
588.2534, 2409.940
588.7355, 2400.080
589.2177, 2389.791
589.6998, 2381.926
590.1819, 2374.480
590.6640, 2374.600
591.1461, 2388.456
591.6282, 2412.544
592.1104, 2421.636
592.5925, 2414.599
593.0746, 2401.820
593.5567, 2388.247
594.0388, 2375.082
594.5209, 2365.106
595.0031, 2358.382
595.4852, 2356.213
595.9673, 2364.379
596.4494, 2376.720
596.9315, 2383.710
597.4136, 2379.084
597.8958, 2372.424
598.3779, 2368.397
598.8600, 2365.765
599.3421, 2361.327
599.8242, 2348.475
600.3063, 2339.886
600.7885, 2341.335
601.2706, 2352.956
601.7527, 2360.659
602.2348, 2364.091
602.7169, 2364.207
603.1990, 2359.988
603.6812, 2350.560
604.1633, 2346.582
604.6454, 2348.925
605.1275, 2355.305
605.6096, 2367.568
606.0917, 2382.556
606.5739, 2385.540
607.0560, 2364.873
607.5381, 2341.271
608.0202, 2338.182
608.5023, 2351.236
608.9844, 2367.575
609.4666, 2387.826
609.9487, 2403.741
610.4308, 2407.636
610.9129, 2399.298
611.3950, 2394.586
611.8771, 2402.207
612.3593, 2410.132
612.8414, 2411.938
613.3235, 2406.886
613.8056, 2396.408
614.2877, 2374.654
614.7698, 2355.301
615.2520, 2359.633
615.7341, 2390.042
616.2162, 2411.131
616.6983, 2412.988
617.1804, 2405.984
617.6625, 2409.292
618.1446, 2421.289
618.6267, 2433.860
619.1088, 2446.622
619.5909, 2455.535
620.0731, 2452.458
620.5552, 2438.815
621.0373, 2429.961
621.5194, 2436.886
622.0015, 2448.741
622.4836, 2458.388
622.9658, 2463.906
623.4479, 2469.824
623.9300, 2477.492
624.4121, 2485.093
624.8942, 2490.448
625.3763, 2491.688
625.8585, 2496.515
626.3406, 2508.409
626.8227, 2521.558
627.3048, 2521.241
627.7869, 2507.520
628.2690, 2497.187
628.7512, 2499.827
629.2333, 2508.640
629.7154, 2508.336
630.1975, 2500.726
630.6796, 2497.327
631.1617, 2513.848
631.6439, 2533.020
632.1260, 2537.169
632.6081, 2522.533
633.0902, 2510.467
633.5723, 2514.072
634.0544, 2520.423
634.5366, 2518.818
635.0187, 2497.012
635.5008, 2483.458
635.9829, 2480.824
636.4650, 2484.709
636.9471, 2488.518
637.4293, 2492.040
637.9114, 2495.438
638.3935, 2497.532
638.8756, 2500.394
639.3577, 2511.320
639.8398, 2529.518
640.3220, 2546.286
640.8041, 2552.439
641.2862, 2556.227
641.7683, 2570.905
642.2504, 2596.018
642.7325, 2618.405
643.2147, 2627.954
643.6968, 2632.985
644.1789, 2640.630
644.6610, 2656.136
645.1431, 2663.205
645.6252, 2646.308
646.1074, 2627.485
646.5895, 2628.528
647.0716, 2659.534
647.5537, 2686.235
648.0358, 2704.724
648.5179, 2716.622
649.0001, 2724.311
649.4822, 2727.762
649.9643, 2729.079
650.4464, 2725.940
650.9285, 2723.555
651.4106, 2735.164
651.8928, 2757.949
652.3749, 2776.788
652.8570, 2774.994
653.3391, 2771.053
653.8212, 2782.543
654.3033, 2811.626
654.7855, 2836.699
655.2676, 2847.874
655.7497, 2854.497
656.2318, 2862.746
656.7139, 2872.106
657.1960, 2885.033
657.6782, 2904.053
658.1603, 2923.718
658.6424, 2935.449
659.1245, 2938.126
659.6066, 2947.293
660.0887, 2968.526
660.5709, 2992.640
661.0530, 3000.364
661.5351, 2996.069
662.0172, 2997.844
662.4993, 3020.239
662.9814, 3048.205
663.4636, 3068.288
663.9457, 3081.636
664.4278, 3093.605
664.9099, 3101.203
665.3920, 3112.286
665.8741, 3134.915
666.3563, 3173.524
666.8384, 3194.693
667.3205, 3191.354
667.8026, 3179.135
668.2847, 3164.483
668.7668, 3144.719
669.2490, 3144.502
669.7311, 3168.891
670.2132, 3200.445
670.6953, 3216.587
671.1774, 3221.894
671.6595, 3233.920
672.1417, 3260.325
672.6238, 3287.647
673.1059, 3300.461
673.5880, 3305.205
674.0701, 3314.150
674.5522, 3345.800
675.0344, 3368.399
675.5165, 3361.307
675.9986, 3331.881
676.4807, 3319.168
676.9628, 3331.171
677.4449, 3351.089
677.9271, 3377.552
678.4092, 3409.559
678.8913, 3425.875
679.3734, 3424.278
679.8555, 3417.313
680.3376, 3413.362
680.8198, 3411.431
681.3019, 3408.554
681.7840, 3404.668
682.2661, 3398.302
682.7482, 3384.886
683.2303, 3369.724
683.7125, 3360.471
684.1946, 3363.660
684.6767, 3362.071
685.1588, 3342.746
685.6409, 3317.283
686.1230, 3302.802
686.6052, 3310.637
687.0873, 3311.791
687.5694, 3301.597
688.0515, 3283.474
688.5336, 3264.603
689.0157, 3244.506
689.4979, 3229.046
689.9800, 3223.825
690.4621, 3222.262
690.9442, 3207.917
691.4263, 3182.324
691.9084, 3155.311
692.3906, 3134.049
692.8727, 3113.209
693.3548, 3084.594
693.8369, 3047.816
694.3190, 3021.509
694.8011, 3023.439
695.2833, 3028.495
695.7654, 3019.508
696.2475, 2987.856
696.7296, 2973.552
697.2117, 2986.976
697.6938, 3001.767
698.1760, 2989.147
698.6581, 2949.028
699.1402, 2913.636
699.6223, 2886.186
700.1044, 2865.989
700.5865, 2854.854
701.0686, 2850.199
701.5507, 2846.574
702.0328, 2845.786
702.5150, 2840.247
702.9971, 2818.362
703.4792, 2789.093
703.9613, 2769.922
704.4434, 2774.825
704.9255, 2779.869
705.4077, 2782.805
705.8898, 2781.885
706.3719, 2767.356
706.8540, 2733.806
707.3361, 2703.740
707.8182, 2690.497
708.3004, 2688.370
708.7825, 2663.076
709.2646, 2615.571
709.7467, 2580.532
710.2288, 2595.489
710.7109, 2630.150
711.1931, 2644.996
711.6752, 2636.784
712.1573, 2624.250
712.6394, 2613.849
713.1215, 2604.825
713.6036, 2596.858
714.0858, 2590.523
714.5679, 2583.869
715.0500, 2575.885
715.5321, 2568.803
716.0142, 2567.809
716.4963, 2575.289
716.9785, 2566.545
717.4606, 2534.302
717.9427, 2497.087
718.4248, 2482.195
718.9069, 2484.102
719.3890, 2486.929
719.8712, 2486.201
720.3533, 2483.744
720.8354, 2481.802
721.3175, 2479.073
721.7996, 2472.929
722.2817, 2456.662
722.7639, 2443.318
723.2460, 2436.845
723.7281, 2435.971
724.2102, 2437.321
724.6923, 2443.662
725.1744, 2444.802
725.6566, 2435.148
726.1387, 2417.623
726.6208, 2405.935
727.1029, 2399.891
727.5850, 2394.068
728.0671, 2382.755
728.5493, 2370.609
729.0314, 2364.684
729.5135, 2365.011
729.9956, 2365.196
730.4777, 2363.122
730.9598, 2359.061
731.4420, 2352.009
731.9241, 2338.840
732.4062, 2333.789
732.8883, 2343.726
733.3704, 2352.819
733.8525, 2345.304
734.3347, 2319.145
734.8168, 2306.307
735.2989, 2310.755
735.7810, 2320.292
736.2631, 2321.652
736.7452, 2317.164
737.2274, 2311.459
737.7095, 2304.445
738.1916, 2299.768
738.6737, 2304.525
739.1558, 2311.649
739.6379, 2311.408
740.1201, 2292.879
740.6022, 2277.821
741.0843, 2268.737
741.5664, 2264.321
742.0485, 2262.432
742.5306, 2263.426
743.0128, 2265.716
743.4949, 2270.067
743.9770, 2274.114
744.4591, 2272.482
744.9412, 2265.722
745.4233, 2256.384
745.9055, 2238.295
746.3876, 2224.236
746.8697, 2231.422
747.3518, 2253.812
747.8339, 2266.964
748.3160, 2259.141
748.7982, 2243.565
749.2803, 2219.833
749.7624, 2189.255
750.2445, 2177.371
750.7266, 2190.185
751.2087, 2205.242
751.6909, 2208.874
752.1730, 2203.725
752.6551, 2205.898
753.1372, 2215.287
753.6193, 2226.898
754.1014, 2242.400
754.5836, 2254.993
755.0657, 2253.974
755.5478, 2237.218
756.0299, 2222.571
756.5120, 2218.702
756.9941, 2218.242
757.4763, 2216.155
757.9584, 2211.460
758.4405, 2207.767
758.9226, 2205.518
759.4047, 2203.429
759.8868, 2198.130
760.3690, 2190.414
760.8511, 2193.626
761.3332, 2211.240
761.8153, 2227.666
762.2974, 2222.033
762.7795, 2205.432
763.2617, 2195.023
763.7438, 2197.812
764.2259, 2202.193
764.7080, 2205.037
765.1901, 2206.267
765.6722, 2205.783
766.1544, 2204.894
766.6365, 2199.292
767.1186, 2185.348
767.6007, 2170.239
768.0828, 2166.979
768.5649, 2175.145
769.0471, 2183.474
769.5292, 2190.233
770.0113, 2193.363
770.4934, 2187.085
770.9755, 2175.255
771.4576, 2166.234
771.9398, 2162.504
772.4219, 2163.247
772.9040, 2173.854
773.3861, 2188.811
773.8682, 2191.530
774.3503, 2171.550
774.8325, 2157.844
775.3146, 2159.194
775.7967, 2170.524
776.2788, 2176.346
776.7609, 2176.716
777.2430, 2173.091
777.7252, 2162.042
778.2073, 2150.284
778.6894, 2149.788
779.1715, 2157.619
779.6536, 2162.798
780.1357, 2159.160
780.6179, 2152.531
781.1000, 2141.910
781.5821, 2128.566
782.0642, 2128.544
782.5463, 2151.467
783.0284, 2170.536
783.5105, 2172.727
783.9926, 2161.172
784.4747, 2162.529
784.9568, 2176.658
785.4390, 2184.784
785.9211, 2162.805
786.4032, 2133.396
786.8853, 2130.265
787.3674, 2152.704
787.8495, 2170.004
788.3317, 2159.971
788.8138, 2147.202
789.2959, 2148.156
789.7780, 2166.042
790.2601, 2171.555
790.7422, 2159.236
791.2244, 2146.020
791.7065, 2146.668
792.1886, 2158.715
792.6707, 2133.806
793.1528, 2156.924
793.6349, 2170.186
794.1171, 2174.121
794.5992, 2140.793
795.0813, 2155.583
795.5634, 2151.089
796.0455, 2145.804
796.5276, 2167.365
797.0098, 2139.458
797.4919, 2160.594
797.9740, 2162.152
798.4561, 2172.670
798.9382, 2163.787
799.4203, 2160.896
799.9025, 2177.413
800.3846, 2183.184
800.8667, 2172.067
801.3488, 2183.155
801.8309, 2154.569
802.3130, 2160.798
802.7952, 2182.047
803.2773, 2171.905
803.7594, 2183.348
804.2415, 2186.570
804.7236, 2152.434
805.2057, 2183.267
805.6879, 2186.004
806.1700, 2159.890
806.6521, 2188.498
807.1342, 2166.362
807.6163, 2162.338
808.0984, 2171.945
808.5806, 2167.343
809.0627, 2185.143
809.5448, 2181.361
810.0269, 2175.651
810.5090, 2178.355
810.9911, 2157.214
811.4733, 2180.312
811.9554, 2173.191
812.4375, 2181.092
812.9196, 2192.396
813.4017, 2177.631
813.8839, 2190.466
814.3660, 2160.500
814.8481, 2166.346
815.3302, 2168.337
815.8123, 2193.218
816.2944, 2163.460
816.7766, 2168.312
817.2587, 2187.901
817.7408, 2186.869
818.2229, 2194.459
818.7050, 2176.527
819.1871, 2182.570
819.6693, 2182.006
820.1514, 2204.277
820.6335, 2208.521
821.1156, 2191.021
821.5977, 2173.614
822.0798, 2197.529
822.5620, 2182.279
823.0441, 2185.399
823.5262, 2184.957
824.0083, 2186.624
824.4904, 2189.209
824.9725, 2192.916
825.4547, 2198.245
825.9368, 2207.641
826.4189, 2214.549
826.9010, 2213.545
827.3831, 2183.971
827.8652, 2206.752
828.3474, 2219.678
828.8295, 2223.276
829.3116, 2189.613
829.7937, 2204.065
830.2758, 2199.235
830.7579, 2193.614
831.2401, 2214.839
831.7222, 2186.594
832.2043, 2207.394
832.6864, 2208.615
833.1685, 2218.797
833.6506, 2209.577
834.1328, 2206.350
834.6149, 2222.531
835.0970, 2227.965
835.5791, 2216.320
836.0612, 2211.849
836.5433, 2203.100
837.0255, 2207.752
837.5076, 2231.017
837.9897, 2254.455
838.4718, 2255.374
838.9539, 2243.732
839.4360, 2234.360
839.9182, 2231.954
840.4003, 2229.606
840.8824, 2223.609
841.3645, 2217.623
841.8466, 2215.406
842.3287, 2218.607
842.8109, 2220.644
843.2930, 2221.329
843.7751, 2220.492
844.2572, 2215.275
844.7393, 2208.308
845.2214, 2208.526
845.7036, 2218.275
846.1857, 2229.843
846.6678, 2241.646
847.1499, 2250.188
847.6320, 2250.844
848.1141, 2235.022
848.5963, 2228.709
849.0784, 2238.189
849.5605, 2250.270
850.0426, 2252.084
850.5247, 2243.768
851.0068, 2240.587
851.4890, 2244.416
851.9711, 2246.998
852.4532, 2237.910
852.9353, 2223.894
853.4174, 2212.776
853.8995, 2205.294
854.3817, 2203.877
854.8638, 2216.533
855.3459, 2230.012
855.8280, 2235.623
856.3101, 2224.295
856.7922, 2247.391
857.2744, 2260.630
857.7565, 2264.542
858.2386, 2231.193
858.7207, 2245.959
859.2028, 2241.443
859.6849, 2236.136
860.1671, 2257.676
860.6492, 2229.746
861.1313, 2250.859
861.6134, 2252.395
862.0955, 2262.891
862.5776, 2254.064
863.0598, 2256.398
863.5419, 2252.616
864.0240, 2242.367
864.5061, 2227.543
864.9882, 2229.556
865.4703, 2247.933
865.9524, 2263.871
866.4345, 2260.703
866.9166, 2250.870
867.3987, 2246.542
867.8809, 2248.173
868.3630, 2247.169
868.8451, 2239.763
869.3272, 2230.695
869.8093, 2217.955
870.2914, 2203.552
870.7736, 2213.155
871.2557, 2248.913
871.7378, 2277.537
872.2199, 2272.043
872.7020, 2251.613
873.1841, 2244.761
873.6663, 2249.547
874.1484, 2256.775
874.6305, 2266.219
875.1126, 2273.336
875.5947, 2275.059
876.0768, 2272.599
876.5590, 2269.852
877.0411, 2266.127
877.5232, 2265.190
878.0053, 2270.151
878.4874, 2276.945
878.9695, 2273.606
879.4517, 2263.890
879.9338, 2260.643
880.4159, 2282.134
880.8980, 2299.305
881.3801, 2290.796
881.8622, 2267.227
882.3444, 2254.252
882.8265, 2256.334
883.3086, 2263.045
883.7907, 2276.068
884.2728, 2288.526
884.7549, 2283.158
885.2371, 2263.624
885.7192, 2250.622
886.2013, 2251.422
886.6834, 2257.493
887.1655, 2264.678
887.6476, 2271.542
888.1298, 2276.082
888.6119, 2273.690
889.0940, 2274.879
889.5761, 2281.705
890.0582, 2290.273
890.5403, 2295.415
891.0225, 2297.229
891.5046, 2302.190
891.9867, 2312.341
892.4688, 2318.693
892.9509, 2309.049
893.4330, 2292.123
893.9152, 2277.937
894.3973, 2267.050
894.8794, 2263.418
895.3615, 2274.217
895.8436, 2286.973
896.3257, 2294.814
896.8079, 2298.058
897.2900, 2291.578
897.7721, 2273.925
898.2542, 2259.592
898.7363, 2265.100
899.2184, 2279.219
899.7006, 2286.511
900.1827, 2285.726
900.6648, 2281.765
901.1469, 2271.479
901.6290, 2263.384
902.1111, 2260.916
902.5933, 2263.988
903.0754, 2273.603
903.5575, 2291.580
904.0396, 2304.719
904.5217, 2302.952
905.0038, 2293.223
905.4860, 2286.814
905.9681, 2283.819
906.4502, 2284.918
906.9323, 2293.966
907.4144, 2303.471
907.8965, 2312.148
908.3787, 2318.681
908.8608, 2318.171
909.3429, 2308.235
909.8250, 2300.481
910.3071, 2298.195
910.7892, 2299.336
911.2714, 2301.786
911.7535, 2304.505
912.2356, 2304.624
912.7177, 2300.682
913.1998, 2294.657
913.6819, 2284.333
914.1641, 2273.827
914.6462, 2269.008
915.1283, 2271.447
915.6104, 2275.808
916.0925, 2281.714
916.5746, 2289.395
917.0568, 2299.517
917.5389, 2311.564
918.0210, 2326.684
918.5031, 2346.803
918.9852, 2358.193
919.4673, 2343.038
919.9495, 2321.830
920.4316, 2311.160
920.9137, 2312.654
921.3958, 2324.854
921.8779, 2354.516
922.3600, 2378.346
922.8422, 2372.471
923.3243, 2347.530
923.8064, 2344.204
924.2885, 2344.361
924.7706, 2363.738
925.2527, 2373.716
925.7349, 2374.800
926.2170, 2340.352
926.6991, 2351.786
927.1812, 2344.833
927.6633, 2337.126
928.1454, 2355.019
928.6276, 2325.738
929.1097, 2347.491
929.5918, 2354.271
930.0739, 2361.828
930.5560, 2364.723
931.0381, 2356.118
931.5203, 2347.367
932.0024, 2345.531
932.4845, 2348.005
932.9666, 2349.326
933.4487, 2346.546
933.9308, 2349.420
934.4130, 2362.218
934.8951, 2375.004
935.3772, 2370.943
935.8593, 2354.504
936.3414, 2340.490
936.8235, 2331.124
937.3057, 2327.331
937.7878, 2332.494
938.2699, 2341.750
938.7520, 2351.631
939.2341, 2364.256
939.7162, 2368.359
940.1984, 2361.800
940.6805, 2352.004
941.1626, 2340.780
941.6447, 2330.959
942.1268, 2335.673
942.6089, 2353.942
943.0911, 2370.619
943.5732, 2376.556
944.0553, 2377.742
944.5374, 2376.153
945.0195, 2372.392
945.5016, 2370.709
945.9838, 2370.960
946.4659, 2374.192
946.9480, 2382.701
947.4301, 2392.301
947.9122, 2394.017
948.3943, 2388.622
948.8764, 2378.039
949.3585, 2351.056
949.8406, 2334.974
950.3228, 2356.971
950.8049, 2392.695
951.2870, 2402.227
951.7691, 2373.344
952.2512, 2354.267
952.7333, 2349.723
953.2155, 2353.973
953.6976, 2364.553
954.1797, 2377.668
954.6618, 2384.646
955.1439, 2383.726
955.6260, 2379.976
956.1082, 2369.302
956.5903, 2362.302
957.0724, 2368.980
957.5545, 2391.156
958.0366, 2396.296
958.5187, 2380.359
959.0009, 2369.281
959.4830, 2387.349
959.9651, 2417.724
960.4472, 2428.157
960.9293, 2422.021
961.4114, 2412.289
961.8936, 2399.765
962.3757, 2390.088
962.8578, 2384.474
963.3399, 2383.063
963.8220, 2388.441
964.3041, 2401.611
964.7863, 2409.384
965.2684, 2407.477
965.7505, 2401.558
966.2326, 2396.698
966.7147, 2393.403
967.1968, 2393.414
967.6790, 2401.390
968.1611, 2402.778
968.6432, 2390.520
969.1253, 2374.865
969.6074, 2361.152
970.0895, 2349.197
970.5717, 2353.417
971.0538, 2374.941
971.5359, 2394.824
972.0180, 2396.722
972.5001, 2390.706
972.9822, 2384.593
973.4644, 2379.347
973.9465, 2378.555
974.4286, 2385.183
974.9107, 2393.105
975.3928, 2401.931
975.8749, 2409.875
976.3571, 2410.109
976.8392, 2403.649
977.3213, 2397.363
977.8034, 2390.886
978.2855, 2390.326
978.7676, 2407.284
979.2498, 2430.814
979.7319, 2444.242
980.2140, 2442.708
980.6961, 2436.561
981.1782, 2424.022
981.6603, 2411.819
982.1425, 2408.321
982.6246, 2411.242
983.1067, 2414.149
983.5888, 2416.474
984.0709, 2415.874
984.5530, 2405.625
985.0352, 2396.376
985.5173, 2397.006
985.9994, 2406.571
986.4815, 2410.420
986.9636, 2406.982
987.4457, 2404.697
987.9279, 2408.141
988.4100, 2413.894
988.8921, 2413.992
989.3742, 2411.365
989.8563, 2413.582
990.3384, 2434.495
990.8206, 2447.188
991.3027, 2439.896
991.7848, 2424.342
992.2669, 2413.288
992.7490, 2406.902
993.2311, 2403.658
993.7133, 2403.604
994.1954, 2405.547
994.6775, 2409.205
995.1596, 2413.699
995.6417, 2417.561
996.1238, 2420.320
996.6060, 2426.205
997.0881, 2443.088
997.5702, 2451.775
998.0523, 2439.040
998.5344, 2412.510
999.0165, 2410.248
999.4987, 2428.476
999.9808, 2442.809
1000.463, 2437.223
1000.945, 2426.917
1001.427, 2418.497
1001.909, 2413.216
1002.391, 2414.557
1002.873, 2427.292
1003.356, 2432.874
1003.838, 2427.033
1004.320, 2420.152
1004.802, 2426.413
1005.284, 2441.188
1005.766, 2456.330
1006.248, 2471.162
1006.730, 2477.952
1007.213, 2463.955
1007.695, 2449.111
1008.177, 2445.597
1008.659, 2452.486
1009.141, 2454.963
1009.623, 2452.796
1010.105, 2451.377
1010.587, 2455.476
1011.069, 2459.497
1011.552, 2455.252
1012.034, 2445.717
1012.516, 2437.304
1012.998, 2435.098
1013.480, 2429.140
1013.962, 2416.293
1014.444, 2402.312
1014.926, 2392.828
1015.409, 2388.287
1015.891, 2392.835
1016.373, 2407.165
1016.855, 2424.379
1017.337, 2449.151
1017.819, 2467.470
1018.301, 2462.234
1018.783, 2432.938
1019.265, 2425.172
1019.748, 2445.143
1020.230, 2464.865
1020.712, 2472.588
1021.194, 2473.792
1021.676, 2480.271
1022.158, 2488.538
1022.640, 2489.748
1023.122, 2462.775
1023.604, 2452.854
1024.087, 2492.947
1024.569, 2537.972
1025.051, 2534.615
1025.533, 2481.606
1026.015, 2452.460
1026.497, 2452.480
1026.979, 2463.202
1027.461, 2471.501
1027.943, 2481.231
1028.426, 2501.634
1028.908, 2531.682
1029.390, 2538.396
1029.872, 2504.317
1030.354, 2482.486
1030.836, 2493.649
1031.318, 2521.492
1031.800, 2532.292
1032.283, 2528.684
1032.765, 2516.688
1033.247, 2490.379
1033.729, 2472.006
1034.211, 2477.295
1034.693, 2491.337
1035.175, 2499.870
1035.657, 2502.062
1036.140, 2503.097
1036.622, 2502.673
1037.104, 2504.422
1037.586, 2515.609
1038.068, 2527.290
1038.550, 2526.132
1039.032, 2514.860
1039.514, 2510.766
1039.996, 2521.982
1040.479, 2533.404
1040.961, 2542.890
1041.443, 2549.957
1041.925, 2555.862
1042.407, 2558.586
1042.889, 2548.467
1043.371, 2519.347
1043.853, 2494.018
1044.335, 2486.507
1044.818, 2487.605
1045.300, 2490.504
1045.782, 2495.259
1046.264, 2497.350
1046.746, 2496.160
1047.228, 2498.479
1047.710, 2512.725
1048.192, 2529.696
1048.675, 2536.768
1049.157, 2536.853
1049.639, 2537.725
1050.121, 2546.030
1050.603, 2548.037
1051.085, 2539.572
1051.567, 2528.531
1052.049, 2526.998
1052.531, 2532.231
1053.014, 2533.060
1053.496, 2528.075
1053.978, 2521.249
1054.460, 2509.817
1054.942, 2502.160
1055.424, 2505.686
1055.906, 2518.756
1056.388, 2529.843
1056.870, 2538.977
1057.353, 2546.552
1057.835, 2554.472
1058.317, 2558.016
1058.799, 2549.236
1059.281, 2532.664
1059.763, 2514.996
1060.245, 2487.966
1060.727, 2480.526
1061.210, 2503.787
1061.692, 2528.154
1062.174, 2521.457
1062.656, 2495.101
1063.138, 2497.281
1063.620, 2525.484
1064.102, 2546.808
1064.584, 2534.641
1065.067, 2519.270
1065.549, 2512.219
1066.031, 2512.729
1066.513, 2521.594
1066.995, 2539.648
1067.477, 2553.183
1067.959, 2559.290
1068.441, 2560.661
1068.923, 2557.632
1069.406, 2552.795
1069.888, 2548.896
1070.370, 2546.490
1070.852, 2543.765
1071.334, 2539.460
1071.816, 2537.658
1072.298, 2541.334
1072.780, 2548.166
1073.262, 2552.014
1073.745, 2554.108
1074.227, 2557.958
1074.709, 2565.104
1075.191, 2574.327
1075.673, 2592.290
1076.155, 2606.269
1076.637, 2599.107
1077.119, 2571.313
1077.601, 2560.411
1078.084, 2568.268
1078.566, 2576.210
1079.048, 2569.124
1079.530, 2557.632
1080.012, 2547.681
1080.494, 2540.344
1080.976, 2537.085
1081.458, 2537.139
1081.941, 2545.823
1082.423, 2567.514
1082.905, 2589.572
1083.387, 2591.937
1083.869, 2583.906
1084.351, 2580.355
1084.833, 2585.531
1085.315, 2588.535
1085.797, 2585.631
1086.280, 2583.184
1086.762, 2585.403
1087.244, 2590.394
1087.726, 2590.681
1088.208, 2586.787
1088.690, 2580.998
1089.172, 2569.109
1089.654, 2562.178
1090.136, 2569.456
1090.619, 2581.826
1091.101, 2589.896
1091.583, 2593.969
1092.065, 2587.408
1092.547, 2569.008
1093.029, 2555.412
1093.511, 2565.997
1093.993, 2583.197
1094.476, 2592.246
1094.958, 2592.865
1095.440, 2587.323
1095.922, 2571.090
1096.404, 2563.182
1096.886, 2569.573
1097.368, 2581.057
1097.850, 2586.424
1098.333, 2586.415
1098.815, 2580.031
1099.297, 2564.946
1099.779, 2557.440
1100.261, 2565.983
1100.743, 2577.573
1101.225, 2587.906
1101.707, 2596.340
1102.189, 2599.357
1102.672, 2597.996
1103.154, 2597.057
1103.636, 2596.730
1104.118, 2600.117
1104.600, 2615.471
1105.082, 2630.828
1105.564, 2633.542
1106.046, 2622.466
1106.528, 2606.605
1107.011, 2585.843
1107.493, 2572.388
1107.975, 2582.528
1108.457, 2598.009
1108.939, 2601.537
1109.421, 2596.672
1109.903, 2597.374
1110.385, 2606.831
1110.868, 2615.333
1111.350, 2622.640
1111.832, 2624.859
1112.314, 2609.587
1112.796, 2589.657
1113.278, 2588.029
1113.760, 2608.290
1114.242, 2616.684
1114.724, 2591.131
1115.207, 2577.458
1115.689, 2595.852
1116.171, 2630.417
1116.653, 2641.508
1117.135, 2635.234
1117.617, 2630.145
1118.099, 2631.565
1118.581, 2635.197
1119.063, 2646.772
1119.546, 2652.670
1120.028, 2638.524
1120.510, 2606.660
1120.992, 2603.907
1121.474, 2628.001
1121.956, 2652.949
1122.438, 2670.757
1122.920, 2677.814
1123.403, 2660.797
1123.885, 2636.023
1124.367, 2632.037
1124.849, 2655.197
1125.331, 2665.625
1125.813, 2660.185
1126.295, 2652.002
1126.777, 2649.774
1127.260, 2652.465
1127.742, 2663.426
1128.224, 2679.716
1128.706, 2684.201
1129.188, 2670.810
1129.670, 2660.004
1130.152, 2656.773
1130.634, 2654.550
1131.116, 2640.813
1131.599, 2623.380
1132.081, 2615.583
1132.563, 2620.004
1133.045, 2626.905
1133.527, 2634.597
1134.009, 2644.061
1134.491, 2657.438
1134.973, 2671.045
1135.455, 2674.551
1135.938, 2670.350
1136.420, 2665.335
1136.902, 2660.579
1137.384, 2657.888
1137.866, 2661.967
1138.348, 2664.362
1138.830, 2657.046
1139.312, 2641.845
1139.795, 2641.973
1140.277, 2655.542
1140.759, 2668.069
1141.241, 2675.750
1141.723, 2676.005
1142.205, 2660.284
1142.687, 2640.346
1143.169, 2631.682
1143.651, 2635.458
1144.134, 2640.058
1144.616, 2645.042
1145.098, 2648.479
1145.580, 2644.035
1146.062, 2641.774
1146.544, 2654.796
1147.026, 2677.025
1147.508, 2683.667
1147.990, 2668.876
1148.473, 2665.821
1148.955, 2682.000
1149.437, 2699.717
1149.919, 2702.196
1150.401, 2694.554
1150.883, 2676.517
1151.365, 2648.927
1151.847, 2645.028
1152.330, 2677.926
1152.812, 2700.917
1153.294, 2696.857
1153.776, 2682.776
1154.258, 2685.023
1154.740, 2696.358
1155.222, 2706.372
1155.704, 2715.320
1156.186, 2710.009
1156.669, 2676.038
1157.151, 2655.380
1157.633, 2677.641
1158.115, 2720.876
1158.597, 2726.266
1159.079, 2704.786
1159.561, 2685.650
1160.043, 2678.324
1160.526, 2676.227
1161.008, 2680.798
1161.490, 2685.978
1161.972, 2687.649
1162.454, 2686.116
1162.936, 2681.480
1163.418, 2674.617
1163.900, 2670.422
1164.382, 2668.997
1164.865, 2673.778
1165.347, 2691.473
1165.829, 2710.917
1166.311, 2719.854
1166.793, 2718.666
1167.275, 2709.671
1167.757, 2693.553
1168.239, 2679.608
1168.721, 2676.138
1169.204, 2674.294
1169.686, 2669.855
1170.168, 2663.746
1170.650, 2656.255
1171.132, 2647.460
1171.614, 2644.542
1172.096, 2648.524
1172.578, 2658.010
1173.061, 2677.855
1173.543, 2697.599
1174.025, 2709.081
1174.507, 2713.411
1174.989, 2715.517
1175.471, 2715.609
1175.953, 2705.373
1176.435, 2677.420
1176.917, 2658.102
1177.400, 2690.113
1177.882, 2730.580
1178.364, 2728.623
1178.846, 2681.774
1179.328, 2665.102
1179.810, 2681.689
1180.292, 2699.243
1180.774, 2703.599
1181.256, 2705.537
1181.739, 2719.277
1182.221, 2736.756
1182.703, 2746.995
1183.185, 2746.844
1183.667, 2749.687
1184.149, 2756.610
1184.631, 2760.072
1185.113, 2753.424
1185.596, 2742.995
1186.078, 2732.008
1186.560, 2724.433
1187.042, 2729.133
1187.524, 2760.490
1188.006, 2772.447
1188.488, 2760.599
1188.970, 2745.490
1189.453, 2745.977
1189.935, 2751.406
1190.417, 2744.481
1190.899, 2730.153
1191.381, 2724.696
1191.863, 2738.635
1192.345, 2744.977
1192.827, 2740.583
1193.309, 2732.308
1193.792, 2724.650
1194.274, 2719.153
1194.756, 2719.405
1195.238, 2724.572
1195.720, 2728.587
1196.202, 2726.356
1196.684, 2731.982
1197.166, 2750.943
1197.648, 2769.583
1198.131, 2764.381
1198.613, 2749.834
1199.095, 2753.783
1199.577, 2777.953
1200.059, 2789.946
1200.541, 2781.163
1201.023, 2763.410
1201.505, 2734.090
1201.988, 2707.720
1202.470, 2711.798
1202.952, 2733.594
1203.434, 2749.330
1203.916, 2754.450
1204.398, 2764.976
1204.880, 2790.224
1205.362, 2807.971
1205.844, 2809.865
1206.327, 2801.048
1206.809, 2784.369
1207.291, 2766.433
1207.773, 2762.991
1208.255, 2783.592
1208.737, 2790.990
1209.219, 2772.918
1209.701, 2755.873
1210.183, 2751.878
1210.666, 2757.369
1211.148, 2767.071
1211.630, 2779.377
1212.112, 2791.633
1212.594, 2807.786
1213.076, 2810.078
1213.558, 2789.716
1214.040, 2771.029
1214.523, 2772.349
1215.005, 2783.733
1215.487, 2778.469
1215.969, 2762.800
1216.451, 2752.415
1216.933, 2751.496
1217.415, 2760.219
1217.897, 2784.675
1218.380, 2805.408
1218.862, 2802.424
1219.344, 2786.785
1219.826, 2787.232
1220.308, 2798.807
1220.790, 2806.125
1221.272, 2798.672
1221.754, 2794.623
1222.236, 2796.986
1222.719, 2799.743
1223.201, 2794.664
1223.683, 2786.994
1224.165, 2788.490
1224.647, 2798.033
1225.129, 2809.997
1225.611, 2830.474
1226.093, 2839.567
1226.575, 2831.867
1227.058, 2820.817
1227.540, 2822.554
1228.022, 2830.320
1228.504, 2826.843
1228.986, 2802.807
1229.468, 2824.196
1229.950, 2836.186
1230.432, 2839.282
1230.915, 2806.845
1231.397, 2820.291
1231.879, 2815.350
1232.361, 2809.654
1232.843, 2829.558
1233.325, 2802.290
1233.807, 2821.788
1234.289, 2822.617
1234.771, 2831.991
1235.254, 2822.864
1235.736, 2819.451
1236.218, 2834.545
1236.700, 2839.391
1237.182, 2803.682
1237.664, 2783.792
1238.146, 2780.462
1238.628, 2805.037
1239.110, 2817.219
1239.593, 2804.195
1240.075, 2786.788
1240.557, 2797.831
1241.039, 2818.708
1241.521, 2821.889
1242.003, 2804.363
1242.485, 2804.815
1242.967, 2832.098
1243.449, 2848.982
1243.932, 2842.823
1244.414, 2829.890
1244.896, 2826.715
1245.378, 2830.409
1245.860, 2840.571
1246.342, 2857.665
1246.824, 2859.241
1247.306, 2840.011
1247.789, 2836.612
1248.271, 2865.702
1248.753, 2900.662
1249.235, 2915.571
1249.717, 2917.280
1250.199, 2909.741
1250.681, 2893.458
1251.163, 2885.735
1251.646, 2886.980
1252.128, 2892.836
1252.610, 2904.336
1253.092, 2913.402
1253.574, 2912.055
1254.056, 2904.553
1254.538, 2893.656
1255.020, 2880.009
1255.502, 2870.198
1255.984, 2864.301
1256.467, 2863.751
1256.949, 2872.099
1257.431, 2879.259
1257.913, 2874.274
1258.395, 2867.424
1258.877, 2868.506
1259.359, 2876.964
1259.841, 2883.854
1260.324, 2889.127
1260.806, 2892.160
1261.288, 2891.462
1261.770, 2890.772
1262.252, 2891.936
1262.734, 2894.195
1263.216, 2898.087
1263.698, 2902.736
1264.181, 2901.011
1264.663, 2893.632
1265.145, 2883.535
1265.627, 2864.678
1266.109, 2856.938
1266.591, 2874.543
1267.073, 2897.728
1267.555, 2915.032
1268.037, 2927.341
1268.520, 2940.861
1269.002, 2952.915
1269.484, 2953.154
1269.966, 2922.415
1270.448, 2906.993
1270.930, 2920.363
1271.412, 2936.986
1271.894, 2934.982
1272.376, 2924.225
1272.859, 2937.211
1273.341, 2963.678
1273.823, 2976.701
1274.305, 2952.779
1274.787, 2940.378
1275.269, 2943.661
1275.751, 2951.457
1276.233, 2956.747
1276.716, 2960.402
1277.198, 2965.178
1277.680, 2969.240
1278.162, 2968.100
1278.644, 2956.169
1279.126, 2951.297
1279.608, 2955.015
1280.090, 2958.699
1280.573, 2955.243
1281.055, 2949.476
1281.537, 2944.985
1282.019, 2942.492
1282.501, 2943.147
1282.983, 2946.845
1283.465, 2954.066
1283.947, 2964.986
1284.429, 2976.653
##END=



