##NAMES=Magnesiotaaffeite-6N3S
##RRUFFID=X070005
##IDEAL CHEMISTRY=Mg_2_BeAl_6_O_12_
##LOCALITY=Tunduru, Tanzania
##OWNER=www.multicolour.com
##SOURCE=www.multicolour.com
##DESCRIPTION=Pale lavendar cut gemstone, 0.65 cts, formerly known as musgravite-18R
##STATUS=The identification of this mineral has been confirmed by single-crystal X-ray diffraction.
##URL=rruff.info/X070005
169.7432, 12461.67
170.2254, 12474.86
170.7075, 12466.33
171.1896, 12436.08
171.6717, 12389.12
172.1538, 12327.56
172.6359, 12248.63
173.1181, 12159.32
173.6002, 12120.23
174.0823, 12175.26
174.5644, 12224.47
175.0465, 12233.54
175.5286, 12216.03
176.0108, 12204.31
176.4929, 12220.34
176.9750, 12259.27
177.4571, 12270.77
177.9392, 12234.86
178.4213, 12198.62
178.9035, 12181.31
179.3856, 12175.79
179.8677, 12161.43
180.3498, 12121.47
180.8319, 12060.08
181.3140, 12036.14
181.7962, 12087.80
182.2783, 12128.06
182.7604, 12118.79
183.2425, 12072.36
183.7246, 12021.15
184.2067, 11983.36
184.6889, 11959.76
185.1710, 11962.67
185.6531, 12015.98
186.1352, 12065.23
186.6173, 12085.43
187.0994, 12084.07
187.5816, 12085.59
188.0637, 12108.85
188.5458, 12150.97
189.0279, 12161.55
189.5100, 12112.77
189.9921, 12067.88
190.4743, 12059.42
190.9564, 12076.50
191.4385, 12084.56
191.9206, 12057.72
192.4027, 11999.49
192.8848, 11970.28
193.3670, 11988.31
193.8491, 12009.84
194.3312, 12029.56
194.8133, 12040.34
195.2954, 12021.30
195.7775, 11951.32
196.2597, 11837.28
196.7418, 11780.01
197.2239, 11812.20
197.7060, 11854.14
198.1881, 11878.26
198.6702, 11887.67
199.1524, 11895.03
199.6345, 11908.73
200.1166, 11927.72
200.5987, 11938.29
201.0808, 11929.54
201.5629, 11925.66
202.0451, 11940.84
202.5272, 11968.21
203.0093, 11992.09
203.4914, 12004.02
203.9735, 12003.88
204.4556, 11987.56
204.9378, 11927.84
205.4199, 11884.23
205.9020, 11885.90
206.3841, 11918.34
206.8662, 11950.56
207.3483, 11965.11
207.8305, 11963.73
208.3126, 11957.92
208.7947, 11943.65
209.2768, 11930.52
209.7589, 11921.25
210.2410, 11915.08
210.7232, 11908.54
211.2053, 11898.65
211.6874, 11888.66
212.1695, 11896.86
212.6516, 11960.17
213.1337, 11998.61
213.6159, 11971.97
214.0980, 11912.19
214.5801, 11875.90
215.0622, 11895.34
215.5443, 11951.59
216.0264, 11964.41
216.5086, 11874.98
216.9907, 11811.12
217.4728, 11810.88
217.9549, 11843.18
218.4370, 11861.59
218.9191, 11843.00
219.4013, 11801.68
219.8834, 11784.66
220.3655, 11814.07
220.8476, 11843.25
221.3297, 11877.00
221.8118, 11905.83
222.2940, 11916.48
222.7761, 11903.16
223.2582, 11874.31
223.7403, 11851.13
224.2224, 11828.58
224.7046, 11819.79
225.1867, 11831.17
225.6688, 11853.54
226.1509, 11884.50
226.6330, 11922.21
227.1151, 11954.08
227.5973, 11951.50
228.0794, 11869.40
228.5615, 11820.68
229.0436, 11836.93
229.5257, 11868.98
230.0078, 11867.40
230.4900, 11819.96
230.9721, 11760.36
231.4542, 11748.01
231.9363, 11819.62
232.4184, 11871.97
232.9005, 11903.88
233.3827, 11919.45
233.8648, 11909.24
234.3469, 11876.72
234.8290, 11850.18
235.3111, 11874.46
235.7932, 11979.55
236.2754, 12061.67
236.7575, 12092.55
237.2396, 12125.43
237.7217, 12196.18
238.2038, 12306.02
238.6859, 12427.69
239.1681, 12536.54
239.6502, 12637.68
240.1323, 12703.82
240.6144, 12753.47
241.0965, 12752.31
241.5786, 12656.48
242.0608, 12482.49
242.5429, 12299.19
243.0250, 12168.02
243.5071, 12091.54
243.9892, 12034.83
244.4713, 12012.66
244.9535, 11997.93
245.4356, 11986.36
245.9177, 11974.69
246.3998, 11956.75
246.8819, 11922.98
247.3640, 11875.93
247.8462, 11848.39
248.3283, 11865.74
248.8104, 11870.67
249.2925, 11826.34
249.7746, 11754.27
250.2567, 11698.16
250.7389, 11688.02
251.2210, 11712.59
251.7031, 11729.66
252.1852, 11731.62
252.6673, 11740.97
253.1494, 11788.04
253.6316, 11844.49
254.1137, 11863.49
254.5958, 11809.69
255.0779, 11720.91
255.5600, 11669.15
256.0421, 11661.29
256.5243, 11667.26
257.0064, 11675.23
257.4885, 11688.38
257.9706, 11713.25
258.4527, 11757.06
258.9348, 11804.12
259.4170, 11837.27
259.8991, 11856.10
260.3812, 11863.57
260.8633, 11845.88
261.3454, 11825.21
261.8275, 11833.08
262.3097, 11882.88
262.7918, 11936.78
263.2739, 11958.59
263.7560, 11953.79
264.2381, 11968.81
264.7202, 12038.11
265.2024, 12115.12
265.6845, 12128.59
266.1666, 12066.65
266.6487, 11994.67
267.1308, 11940.77
267.6129, 11901.06
268.0951, 11865.67
268.5772, 11831.89
269.0593, 11802.33
269.5414, 11781.14
270.0235, 11767.66
270.5056, 11761.19
270.9878, 11778.14
271.4699, 11796.12
271.9520, 11775.67
272.4341, 11706.50
272.9162, 11633.42
273.3983, 11607.42
273.8805, 11636.94
274.3626, 11670.01
274.8447, 11719.58
275.3268, 11761.70
275.8089, 11770.18
276.2910, 11745.87
276.7732, 11716.87
277.2553, 11708.19
277.7374, 11722.29
278.2195, 11724.22
278.7016, 11710.17
279.1837, 11688.87
279.6659, 11658.94
280.1480, 11624.18
280.6301, 11593.14
281.1122, 11570.66
281.5943, 11556.98
282.0764, 11556.33
282.5586, 11582.18
283.0407, 11605.12
283.5228, 11616.95
284.0049, 11621.99
284.4870, 11628.19
284.9691, 11639.72
285.4513, 11653.47
285.9334, 11659.76
286.4155, 11665.44
286.8976, 11652.08
287.3797, 11602.92
287.8618, 11543.19
288.3440, 11493.35
288.8261, 11460.55
289.3082, 11445.27
289.7903, 11451.40
290.2724, 11489.57
290.7545, 11521.66
291.2367, 11546.66
291.7188, 11563.89
292.2009, 11572.24
292.6830, 11571.79
293.1651, 11564.15
293.6472, 11542.66
294.1294, 11504.08
294.6115, 11496.26
295.0936, 11560.89
295.5757, 11617.12
296.0578, 11614.72
296.5399, 11565.73
297.0221, 11518.97
297.5042, 11503.61
297.9863, 11516.12
298.4684, 11542.06
298.9505, 11582.59
299.4326, 11635.56
299.9148, 11724.99
300.3969, 11824.04
300.8790, 11877.42
301.3611, 11841.74
301.8432, 11767.65
302.3253, 11723.63
302.8075, 11711.52
303.2896, 11708.24
303.7717, 11702.92
304.2538, 11698.83
304.7359, 11703.06
305.2180, 11723.82
305.7002, 11741.28
306.1823, 11731.32
306.6644, 11703.88
307.1465, 11699.95
307.6286, 11741.53
308.1107, 11805.81
308.5929, 11844.84
309.0750, 11851.78
309.5571, 11859.09
310.0392, 11873.37
310.5213, 11893.73
311.0034, 11916.31
311.4856, 11939.96
311.9677, 11974.18
312.4498, 12034.07
312.9319, 12134.03
313.4140, 12216.34
313.8961, 12303.57
314.3783, 12357.45
314.8604, 12335.83
315.3425, 12247.01
315.8246, 12143.33
316.3067, 12071.85
316.7888, 12035.46
317.2710, 11972.95
317.7531, 11846.80
318.2352, 11736.01
318.7173, 11670.35
319.1994, 11637.30
319.6815, 11613.26
320.1637, 11585.39
320.6458, 11554.98
321.1279, 11527.11
321.6100, 11499.60
322.0921, 11478.49
322.5742, 11464.86
323.0564, 11456.83
323.5385, 11453.80
324.0206, 11455.53
324.5027, 11458.26
324.9848, 11455.13
325.4669, 11443.86
325.9491, 11438.11
326.4312, 11439.21
326.9133, 11447.60
327.3954, 11476.15
327.8775, 11521.30
328.3596, 11543.64
328.8418, 11491.31
329.3239, 11385.86
329.8060, 11325.75
330.2881, 11330.01
330.7702, 11360.07
331.2523, 11402.95
331.7345, 11450.48
332.2166, 11474.67
332.6987, 11445.94
333.1808, 11401.07
333.6629, 11385.55
334.1451, 11400.10
334.6272, 11418.14
335.1093, 11422.31
335.5914, 11418.60
336.0735, 11429.15
336.5556, 11477.83
337.0378, 11513.10
337.5199, 11505.69
338.0020, 11468.71
338.4841, 11426.58
338.9662, 11387.10
339.4483, 11353.96
339.9305, 11335.28
340.4126, 11341.47
340.8947, 11344.43
341.3768, 11348.17
341.8589, 11345.27
342.3410, 11322.53
342.8232, 11281.19
343.3053, 11242.40
343.7874, 11230.75
344.2695, 11252.64
344.7516, 11264.83
345.2337, 11263.07
345.7159, 11256.30
346.1980, 11246.54
346.6801, 11234.24
347.1622, 11220.30
347.6443, 11206.44
348.1265, 11184.29
348.6086, 11196.15
349.0907, 11202.22
349.5728, 11202.82
350.0549, 11181.53
350.5370, 11188.50
351.0192, 11184.15
351.5013, 11179.33
351.9834, 11190.28
352.4655, 11172.18
352.9476, 11182.88
353.4297, 11182.08
353.9119, 11186.54
354.3940, 11179.61
354.8761, 11176.19
355.3582, 11132.04
355.8403, 11104.60
356.3224, 11115.17
356.8046, 11143.83
357.2867, 11154.15
357.7688, 11140.61
358.2509, 11117.36
358.7330, 11085.97
359.2151, 11050.91
359.6973, 11050.77
360.1794, 11131.60
360.6615, 11207.73
361.1436, 11216.34
361.6257, 11175.69
362.1078, 11144.92
362.5900, 11155.93
363.0721, 11194.65
363.5542, 11215.56
364.0363, 11199.26
364.5184, 11189.81
365.0005, 11194.94
365.4827, 11205.58
365.9648, 11213.00
366.4469, 11215.13
366.9290, 11215.29
367.4111, 11219.25
367.8932, 11231.12
368.3754, 11230.11
368.8575, 11195.86
369.3396, 11167.45
369.8217, 11162.70
370.3038, 11177.20
370.7859, 11197.15
371.2681, 11215.71
371.7502, 11231.94
372.2323, 11238.33
372.7144, 11222.67
373.1965, 11227.65
373.6786, 11298.75
374.1608, 11388.37
374.6429, 11444.45
375.1250, 11452.82
375.6071, 11435.25
376.0892, 11402.27
376.5714, 11356.83
377.0535, 11315.34
377.5356, 11282.88
378.0177, 11254.85
378.4998, 11225.88
378.9819, 11195.97
379.4641, 11166.03
379.9462, 11136.11
380.4283, 11106.39
380.9104, 11072.59
381.3925, 11036.24
381.8746, 11010.26
382.3568, 11005.81
382.8389, 11021.99
383.3210, 11036.84
383.8031, 11065.89
384.2852, 11076.71
384.7673, 11043.11
385.2495, 10990.86
385.7316, 10957.10
386.2137, 10957.09
386.6958, 10977.81
387.1779, 10996.06
387.6600, 10985.87
388.1422, 11027.84
388.6243, 11059.29
389.1064, 11080.78
389.5885, 11062.48
390.0706, 11095.55
390.5527, 11108.04
391.0349, 11119.69
391.5170, 11159.99
391.9991, 11147.48
392.4812, 11187.33
392.9633, 11206.28
393.4454, 11234.80
393.9276, 11242.60
394.4097, 11256.80
394.8918, 11291.72
395.3739, 11322.48
395.8560, 11412.35
396.3381, 11388.28
396.8203, 11399.41
397.3024, 11524.50
397.7845, 11586.49
398.2666, 11549.30
398.7487, 11568.81
399.2308, 11663.10
399.7130, 11763.62
400.1951, 11877.37
400.6772, 12008.83
401.1593, 12159.18
401.6414, 12333.57
402.1235, 12544.35
402.6057, 12790.41
403.0878, 12972.60
403.5699, 13072.50
404.0520, 13128.07
404.5341, 13115.53
405.0162, 13073.45
405.4984, 13044.28
405.9805, 13044.84
406.4626, 13074.74
406.9447, 13128.00
407.4268, 13198.07
407.9089, 13323.25
408.3911, 13488.99
408.8732, 13735.71
409.3553, 14104.82
409.8374, 14586.11
410.3195, 15106.70
410.8016, 15673.26
411.2838, 16238.32
411.7659, 16753.95
412.2480, 17236.93
412.7301, 17516.27
413.2122, 17477.16
413.6943, 17137.10
414.1765, 16644.67
414.6586, 15892.93
415.1407, 15135.13
415.6228, 14460.18
416.1049, 13860.47
416.5870, 13316.39
417.0692, 12823.81
417.5513, 12397.72
418.0334, 12059.49
418.5155, 11828.50
418.9976, 11635.28
419.4797, 11488.21
419.9619, 11364.12
420.4440, 11250.49
420.9261, 11150.00
421.4082, 11074.41
421.8903, 11034.54
422.3724, 11019.00
422.8546, 10987.23
423.3367, 10925.74
423.8188, 10880.05
424.3009, 10877.74
424.7830, 10886.12
425.2651, 10880.75
425.7473, 10857.60
426.2294, 10822.67
426.7115, 10760.53
427.1936, 10689.16
427.6757, 10678.15
428.1578, 10752.35
428.6400, 10825.97
429.1221, 10816.16
429.6042, 10738.04
430.0863, 10699.16
430.5684, 10747.94
431.0505, 10797.73
431.5327, 10783.78
432.0148, 10734.03
432.4969, 10719.12
432.9790, 10770.34
433.4611, 10852.89
433.9432, 10896.45
434.4254, 10866.49
434.9075, 10862.61
435.3896, 10902.43
435.8717, 10950.42
436.3538, 10981.96
436.8359, 11000.08
437.3181, 11025.46
437.8002, 11078.93
438.2823, 11149.94
438.7644, 11185.97
439.2465, 11159.15
439.7286, 11161.30
440.2108, 11248.96
440.6929, 11372.39
441.1750, 11476.94
441.6571, 11544.49
442.1392, 11635.61
442.6213, 11796.83
443.1035, 12014.54
443.5856, 12267.77
444.0677, 12563.23
444.5498, 12841.42
445.0319, 13050.83
445.5140, 13185.59
445.9962, 13263.95
446.4783, 13308.47
446.9604, 13275.84
447.4425, 13124.49
447.9246, 12884.33
448.4067, 12593.58
448.8889, 12269.58
449.3710, 11946.22
449.8531, 11703.46
450.3352, 11576.08
450.8173, 11448.52
451.2994, 11284.17
451.7816, 11146.58
452.2637, 11077.22
452.7458, 11068.75
453.2279, 11083.87
453.7100, 11109.13
454.1921, 11136.05
454.6743, 11143.69
455.1564, 11130.75
455.6385, 11104.85
456.1206, 11064.36
456.6027, 11014.88
457.0848, 10966.53
457.5670, 10920.81
458.0491, 10872.35
458.5312, 10817.76
459.0133, 10759.79
459.4954, 10699.71
459.9775, 10638.11
460.4597, 10585.03
460.9418, 10551.55
461.4239, 10538.09
461.9060, 10509.44
462.3881, 10439.69
462.8702, 10385.32
463.3524, 10371.19
463.8345, 10375.23
464.3166, 10365.43
464.7987, 10331.33
465.2808, 10297.97
465.7629, 10309.23
466.2451, 10370.59
466.7272, 10398.77
467.2093, 10369.40
467.6914, 10327.49
468.1735, 10298.84
468.6556, 10280.87
469.1378, 10266.24
469.6199, 10237.51
470.1020, 10224.35
470.5841, 10275.48
471.0662, 10373.68
471.5483, 10437.54
472.0305, 10431.34
472.5126, 10392.60
472.9947, 10384.07
473.4768, 10418.14
473.9589, 10456.79
474.4410, 10523.59
474.9232, 10575.36
475.4053, 10570.25
475.8874, 10523.70
476.3695, 10481.24
476.8516, 10469.26
477.3337, 10489.07
477.8159, 10554.71
478.2980, 10696.72
478.7801, 10807.91
479.2622, 10813.39
479.7443, 10813.53
480.2264, 10889.40
480.7086, 11045.85
481.1907, 11210.28
481.6728, 11344.06
482.1549, 11454.91
482.6370, 11562.56
483.1191, 11669.54
483.6013, 11738.51
484.0834, 11740.64
484.5655, 11689.27
485.0476, 11639.17
485.5297, 11579.74
486.0118, 11535.10
486.4940, 11506.37
486.9761, 11496.52
487.4582, 11504.31
487.9403, 11531.87
488.4224, 11590.89
488.9045, 11697.52
489.3867, 11850.13
489.8688, 11993.80
490.3509, 12089.68
490.8330, 12239.71
491.3151, 12499.38
491.7972, 12812.63
492.2794, 13136.50
492.7615, 13472.26
493.2436, 13732.47
493.7257, 13857.82
494.2078, 13849.08
494.6899, 13688.80
495.1721, 13361.45
495.6542, 12965.41
496.1363, 12564.35
496.6184, 12161.35
497.1005, 11776.62
497.5826, 11366.20
498.0648, 11023.42
498.5469, 10794.51
499.0290, 10647.19
499.5111, 10548.53
499.9932, 10484.47
500.4753, 10432.28
500.9575, 10358.66
501.4396, 10257.23
501.9217, 10181.52
502.4038, 10144.60
502.8859, 10117.55
503.3680, 10090.84
503.8502, 10063.98
504.3323, 10035.26
504.8144, 10002.01
505.2965, 9971.779
505.7786, 9953.008
506.2607, 9943.118
506.7429, 9930.661
507.2250, 9910.804
507.7071, 9899.816
508.1892, 9922.012
508.6713, 9985.067
509.1534, 10005.37
509.6356, 9950.764
510.1177, 9890.779
510.5998, 9845.948
511.0819, 9816.178
511.5641, 9800.631
512.0461, 9798.740
512.5283, 9804.934
513.0104, 9813.484
513.4925, 9825.577
513.9746, 9828.355
514.4567, 9812.299
514.9388, 9798.412
515.4210, 9806.824
515.9031, 9825.973
516.3852, 9827.921
516.8673, 9792.487
517.3494, 9753.834
517.8315, 9737.528
518.3137, 9739.517
518.7958, 9753.624
519.2779, 9779.662
519.7600, 9800.180
520.2421, 9789.552
520.7242, 9736.456
521.2064, 9719.167
521.6885, 9759.185
522.1706, 9806.029
522.6527, 9856.476
523.1348, 9897.813
523.6169, 9906.835
524.0991, 9874.184
524.5812, 9833.040
525.0633, 9828.803
525.5454, 9860.839
526.0275, 9897.779
526.5096, 9942.369
526.9918, 9980.372
527.4739, 9996.354
527.9560, 9996.369
528.4381, 9996.800
528.9202, 10020.26
529.4023, 10023.07
529.8845, 9965.448
530.3666, 9875.630
530.8487, 9797.200
531.3308, 9743.145
531.8129, 9715.305
532.2950, 9721.324
532.7772, 9767.532
533.2593, 9786.758
533.7414, 9762.928
534.2235, 9729.063
534.7056, 9684.891
535.1877, 9639.516
535.6699, 9601.222
536.1520, 9571.516
536.6341, 9557.614
537.1162, 9572.665
537.5983, 9609.376
538.0804, 9648.171
538.5626, 9689.017
539.0447, 9713.502
539.5268, 9701.930
540.0089, 9659.982
540.4910, 9634.122
540.9731, 9641.218
541.4553, 9641.573
541.9374, 9616.789
542.4195, 9586.047
542.9016, 9574.716
543.3837, 9584.123
543.8658, 9589.552
544.3480, 9563.989
544.8301, 9512.324
545.3122, 9476.249
545.7943, 9459.093
546.2764, 9449.635
546.7585, 9453.644
547.2407, 9457.751
547.7228, 9439.548
548.2049, 9389.843
548.6870, 9362.338
549.1691, 9403.729
549.6512, 9468.095
550.1334, 9502.754
550.6155, 9503.808
551.0976, 9479.946
551.5797, 9431.608
552.0618, 9372.308
552.5439, 9351.238
553.0261, 9401.847
553.5082, 9433.499
553.9903, 9439.122
554.4724, 9427.921
554.9545, 9392.332
555.4366, 9342.500
555.9188, 9312.260
556.4009, 9334.105
556.8830, 9375.793
557.3651, 9386.497
557.8472, 9367.716
558.3293, 9337.167
558.8115, 9295.409
559.2936, 9255.597
559.7757, 9235.366
560.2578, 9237.388
560.7399, 9251.578
561.2220, 9296.985
561.7042, 9335.240
562.1863, 9338.369
562.6684, 9322.377
563.1505, 9314.961
563.6326, 9327.663
564.1147, 9357.127
564.5969, 9409.930
565.0790, 9487.538
565.5611, 9524.214
566.0432, 9492.109
566.5253, 9458.390
567.0074, 9473.182
567.4896, 9519.784
567.9717, 9562.483
568.4538, 9597.705
568.9359, 9627.035
569.4180, 9635.458
569.9001, 9645.184
570.3823, 9698.816
570.8644, 9798.162
571.3465, 9893.048
571.8286, 9933.415
572.3107, 9926.618
572.7928, 9949.845
573.2750, 10021.00
573.7571, 10091.35
574.2392, 10156.24
574.7213, 10211.65
575.2034, 10251.05
575.6855, 10274.51
576.1677, 10295.74
576.6498, 10324.37
577.1319, 10353.68
577.6140, 10381.81
578.0961, 10405.18
578.5782, 10403.13
579.0604, 10365.08
579.5425, 10298.49
580.0246, 10216.98
580.5067, 10110.30
580.9888, 10010.47
581.4709, 9915.018
581.9531, 9827.214
582.4352, 9754.764
582.9173, 9690.230
583.3994, 9617.396
583.8815, 9525.512
584.3636, 9437.947
584.8458, 9387.677
585.3279, 9368.384
585.8100, 9350.186
586.2921, 9329.614
586.7742, 9301.000
587.2563, 9253.714
587.7385, 9190.938
588.2206, 9154.094
588.7027, 9152.679
589.1848, 9162.225
589.6669, 9190.269
590.1490, 9218.990
590.6312, 9230.309
591.1133, 9222.505
591.5954, 9207.086
592.0775, 9192.418
592.5597, 9177.993
593.0418, 9162.170
593.5239, 9144.965
594.0060, 9126.867
594.4882, 9110.614
594.9703, 9091.111
595.4524, 9052.648
595.9345, 8988.827
596.4166, 8958.564
596.8987, 9008.898
597.3809, 9059.241
597.8630, 9044.911
598.3451, 8994.174
598.8272, 8970.626
599.3093, 9000.726
599.7914, 9053.374
600.2736, 9084.765
600.7557, 9094.173
601.2378, 9095.267
601.7199, 9082.445
602.2020, 9072.688
602.6841, 9078.296
603.1663, 9093.014
603.6484, 9106.835
604.1305, 9123.027
604.6126, 9128.825
605.0947, 9115.104
605.5768, 9090.741
606.0590, 9058.652
606.5411, 9023.778
607.0232, 9002.539
607.5053, 9008.871
607.9874, 9030.927
608.4695, 9028.818
608.9517, 8991.703
609.4338, 8965.880
609.9159, 8954.843
610.3980, 8961.984
610.8801, 9006.064
611.3622, 9074.109
611.8444, 9108.880
612.3265, 9048.179
612.8086, 8995.192
613.2907, 9033.408
613.7728, 9123.698
614.2549, 9195.766
614.7371, 9231.783
615.2192, 9250.315
615.7013, 9270.456
616.1834, 9291.827
616.6655, 9297.434
617.1476, 9258.394
617.6298, 9256.766
618.1119, 9360.197
618.5940, 9481.245
619.0761, 9532.549
619.5582, 9508.209
620.0403, 9494.908
620.5225, 9548.986
621.0046, 9618.724
621.4867, 9657.195
621.9688, 9665.272
622.4509, 9652.559
622.9330, 9622.683
623.4152, 9577.387
623.8973, 9517.510
624.3794, 9440.564
624.8615, 9361.492
625.3436, 9264.380
625.8257, 9186.818
626.3079, 9150.899
626.7900, 9136.602
627.2721, 9121.979
627.7542, 9106.349
628.2363, 9069.001
628.7184, 8967.105
629.2006, 8852.998
629.6827, 8802.471
630.1648, 8813.069
630.6469, 8839.719
631.1290, 8859.323
631.6111, 8870.029
632.0933, 8866.200
632.5754, 8843.295
633.0575, 8818.273
633.5396, 8779.805
634.0217, 8752.294
634.5038, 8756.186
634.9860, 8777.643
635.4681, 8788.414
635.9502, 8780.437
636.4323, 8762.396
636.9144, 8732.684
637.3965, 8699.664
637.8787, 8676.453
638.3608, 8664.468
638.8429, 8659.228
639.3250, 8658.420
639.8071, 8660.162
640.2892, 8654.478
640.7714, 8628.146
641.2535, 8627.829
641.7356, 8702.591
642.2177, 8764.377
642.6998, 8743.736
643.1819, 8665.364
643.6641, 8614.011
644.1462, 8628.231
644.6283, 8658.466
645.1104, 8670.815
645.5925, 8675.835
646.0746, 8698.652
646.5568, 8740.418
647.0389, 8768.519
647.5210, 8751.549
648.0031, 8700.165
648.4852, 8673.814
648.9673, 8678.658
649.4495, 8692.561
649.9316, 8715.846
650.4137, 8742.911
650.8958, 8773.306
651.3779, 8804.997
651.8600, 8826.851
652.3422, 8821.758
652.8243, 8819.914
653.3064, 8848.385
653.7885, 8890.628
654.2706, 8913.287
654.7527, 8911.621
655.2349, 8914.616
655.7170, 8951.223
656.1991, 9016.124
656.6812, 9077.260
657.1633, 9134.331
657.6454, 9188.776
658.1276, 9245.766
658.6097, 9295.746
659.0918, 9325.568
659.5739, 9336.659
660.0560, 9355.582
660.5381, 9392.650
661.0203, 9433.730
661.5024, 9475.024
661.9845, 9513.733
662.4666, 9550.105
662.9487, 9582.060
663.4308, 9597.122
663.9130, 9578.418
664.3951, 9533.266
664.8772, 9499.430
665.3593, 9479.900
665.8414, 9456.769
666.3235, 9428.659
666.8057, 9389.811
667.2878, 9331.972
667.7699, 9255.352
668.2520, 9168.564
668.7341, 9050.477
669.2162, 8946.574
669.6984, 8887.851
670.1805, 8850.695
670.6626, 8799.989
671.1447, 8730.715
671.6268, 8670.326
672.1089, 8651.801
672.5911, 8659.554
673.0732, 8644.151
673.5553, 8604.934
674.0374, 8574.973
674.5195, 8569.297
675.0016, 8569.107
675.4838, 8550.113
675.9659, 8509.822
676.4480, 8467.254
676.9301, 8406.203
677.4122, 8362.186
677.8943, 8352.838
678.3765, 8361.742
678.8586, 8375.319
679.3407, 8389.168
679.8228, 8395.694
680.3049, 8384.221
680.7870, 8364.775
681.2692, 8353.244
681.7513, 8348.763
682.2334, 8345.411
682.7155, 8336.501
683.1976, 8344.481
683.6797, 8348.010
684.1619, 8347.325
684.6440, 8329.809
685.1261, 8334.026
685.6082, 8329.534
686.0903, 8324.686
686.5724, 8331.963
687.0546, 8316.895
687.5367, 8323.979
688.0188, 8322.222
688.5009, 8324.511
688.9830, 8318.036
689.4651, 8314.269
689.9473, 8319.268
690.4294, 8319.412
690.9115, 8311.929
691.3936, 8314.476
691.8757, 8299.102
692.3578, 8299.453
692.8400, 8306.590
693.3221, 8283.285
693.8042, 8278.866
694.2863, 8294.646
694.7684, 8314.238
695.2505, 8317.376
695.7327, 8305.653
696.2148, 8304.307
696.6969, 8332.284
697.1790, 8354.686
697.6611, 8340.912
698.1432, 8319.731
698.6254, 8326.008
699.1075, 8365.936
699.5896, 8429.577
700.0717, 8522.159
700.5538, 8619.824
701.0359, 8646.472
701.5181, 8604.312
702.0002, 8614.136
702.4823, 8719.898
702.9644, 8840.111
703.4465, 8891.722
703.9286, 8878.139
704.4108, 8899.749
704.8929, 8968.583
705.3750, 9055.940
705.8571, 9185.608
706.3392, 9310.870
706.8214, 9375.091
707.3035, 9396.082
707.7856, 9457.855
708.2677, 9622.876
708.7498, 9810.306
709.2319, 9939.041
709.7141, 10027.62
710.1962, 10117.12
710.6783, 10215.24
711.1604, 10319.24
711.6425, 10427.96
712.1246, 10538.91
712.6068, 10644.96
713.0889, 10756.39
713.5710, 10829.33
714.0531, 10856.11
714.5352, 10844.90
715.0173, 10803.55
715.4995, 10730.07
715.9816, 10613.77
716.4637, 10425.58
716.9458, 10245.74
717.4279, 10128.47
717.9100, 10013.57
718.3922, 9828.373
718.8743, 9591.775
719.3564, 9371.140
719.8385, 9200.962
720.3206, 9071.036
720.8027, 8980.708
721.2849, 8922.424
721.7670, 8840.593
722.2491, 8727.344
722.7312, 8612.338
723.2133, 8509.174
723.6954, 8420.266
724.1776, 8351.208
724.6597, 8303.479
725.1418, 8274.417
725.6239, 8289.514
726.1060, 8293.941
726.5881, 8260.003
727.0703, 8203.000
727.5524, 8142.526
728.0345, 8082.078
728.5166, 8035.167
728.9987, 8009.801
729.4808, 8002.594
729.9630, 8025.635
730.4451, 8063.798
730.9272, 8065.243
731.4093, 8011.248
731.8914, 7946.006
732.3735, 7930.546
732.8557, 7962.088
733.3378, 7974.187
733.8199, 7962.112
734.3020, 7947.334
734.7841, 7941.799
735.2662, 7931.911
735.7484, 7891.773
736.2305, 7818.880
736.7126, 7776.651
737.1947, 7792.455
737.6768, 7810.879
738.1589, 7816.515
738.6411, 7812.818
739.1232, 7796.217
739.6053, 7771.975
740.0874, 7765.049
740.5695, 7808.787
741.0516, 7856.711
741.5338, 7831.924
742.0159, 7758.543
742.4980, 7717.917
742.9801, 7726.254
743.4622, 7749.225
743.9443, 7759.890
744.4265, 7761.271
744.9086, 7767.202
745.3907, 7781.746
745.8728, 7788.344
746.3549, 7782.163
746.8370, 7771.178
747.3192, 7754.590
747.8013, 7737.702
748.2834, 7735.263
748.7655, 7758.894
749.2476, 7775.795
749.7297, 7763.908
750.2119, 7752.298
750.6940, 7775.054
751.1761, 7815.792
751.6582, 7829.123
752.1403, 7795.009
752.6224, 7756.241
753.1046, 7770.114
753.5867, 7814.688
754.0688, 7827.569
754.5509, 7806.851
755.0330, 7774.980
755.5151, 7739.566
755.9973, 7707.997
756.4794, 7694.292
756.9615, 7702.557
757.4436, 7692.275
757.9257, 7638.375
758.4078, 7606.842
758.8900, 7644.841
759.3721, 7696.137
759.8542, 7705.576
760.3363, 7672.587
760.8184, 7641.186
761.3005, 7614.306
761.7827, 7600.050
762.2648, 7621.730
762.7469, 7647.511
763.2290, 7622.759
763.7111, 7553.947
764.1932, 7514.489
764.6754, 7569.921
765.1575, 7651.875
765.6396, 7634.300
766.1217, 7540.553
766.6038, 7482.105
767.0859, 7478.513
767.5681, 7484.599
768.0502, 7467.207
768.5323, 7438.101
769.0144, 7436.310
769.4965, 7477.474
769.9786, 7503.678
770.4608, 7519.113
770.9429, 7510.861
771.4250, 7439.208
771.9071, 7352.109
772.3892, 7335.022
772.8713, 7415.024
773.3535, 7483.106
773.8356, 7508.141
774.3177, 7514.048
774.7998, 7516.484
775.2819, 7511.082
775.7640, 7477.432
776.2462, 7414.600
776.7283, 7370.779
777.2104, 7412.713
777.6925, 7490.220
778.1746, 7502.138
778.6567, 7460.598
779.1389, 7420.738
779.6210, 7397.641
780.1031, 7399.610
780.5852, 7441.996
781.0673, 7513.368
781.5494, 7534.833
782.0316, 7485.417
782.5137, 7450.375
782.9958, 7448.295
783.4779, 7457.261
783.9600, 7460.394
784.4421, 7461.520
784.9243, 7473.811
785.4064, 7502.840
785.8885, 7534.083
786.3706, 7573.504
786.8527, 7606.464
787.3348, 7622.075
787.8170, 7624.066
788.2991, 7618.562
788.7812, 7606.845
789.2633, 7599.119
789.7454, 7604.837
790.2275, 7618.633
790.7097, 7634.918
791.1918, 7652.205
791.6739, 7664.730
792.1560, 7670.812
792.6381, 7682.129
793.1202, 7714.837
793.6024, 7764.763
794.0845, 7802.090
794.5666, 7825.412
795.0487, 7844.993
795.5308, 7863.179
796.0129, 7878.999
796.4951, 7892.805
796.9772, 7903.910
797.4593, 7905.034
797.9414, 7873.689
798.4235, 7864.500
798.9056, 7894.220
799.3878, 7934.013
799.8699, 7972.202
800.3520, 8005.739
800.8341, 8029.003
801.3162, 8034.981
801.7983, 8050.056
802.2805, 8097.435
802.7626, 8152.464
803.2447, 8194.562
803.7268, 8223.944
804.2089, 8245.239
804.6910, 8260.275
805.1732, 8270.404
805.6553, 8274.992
806.1374, 8276.261
806.6195, 8287.528
807.1016, 8305.576
807.5837, 8290.856
808.0659, 8228.844
808.5480, 8165.411
809.0301, 8149.261
809.5122, 8171.283
809.9943, 8165.500
810.4764, 8123.329
810.9586, 8076.475
811.4407, 8016.218
811.9228, 7969.466
812.4049, 7967.635
812.8870, 7992.500
813.3691, 7990.847
813.8513, 7943.096
814.3334, 7908.100
814.8155, 7914.493
815.2976, 7915.292
815.7797, 7858.951
816.2618, 7788.958
816.7440, 7790.976
817.2261, 7883.866
817.7082, 7951.362
818.1903, 7888.453
818.6724, 7791.929
819.1545, 7761.108
819.6367, 7776.675
820.1188, 7797.062
820.6009, 7810.518
821.0830, 7816.429
821.5651, 7811.361
822.0472, 7803.511
822.5294, 7817.706
823.0115, 7851.122
823.4936, 7862.421
823.9757, 7841.328
824.4578, 7840.427
824.9399, 7904.881
825.4221, 7994.579
825.9042, 7999.482
826.3863, 7875.282
826.8684, 7812.736
827.3505, 7858.778
827.8326, 7892.852
828.3148, 7853.181
828.7969, 7782.320
829.2790, 7737.868
829.7611, 7723.570
830.2432, 7693.481
830.7253, 7619.539
831.2075, 7556.191
831.6896, 7524.445
832.1717, 7511.074
832.6538, 7509.766
833.1359, 7514.437
833.6180, 7510.322
834.1002, 7492.462
834.5823, 7460.440
835.0644, 7398.706
835.5465, 7331.155
836.0286, 7293.610
836.5107, 7283.333
836.9929, 7280.330
837.4750, 7275.628
837.9571, 7263.122
838.4392, 7225.757
838.9213, 7173.928
839.4034, 7154.394
839.8856, 7166.049
840.3677, 7165.556
840.8498, 7136.307
841.3319, 7108.190
841.8140, 7118.893
842.2961, 7159.953
842.7783, 7151.913
843.2604, 7070.630
843.7425, 7019.341
844.2246, 7030.963
844.7067, 7048.921
845.1888, 7029.565
845.6710, 6986.004
846.1531, 6962.691
846.6352, 6969.783
847.1173, 6974.357
847.5994, 6964.455
848.0815, 6963.633
848.5637, 7001.098
849.0458, 7044.291
849.5279, 7044.218
850.0100, 6994.723
850.4921, 6949.508
850.9742, 6933.087
851.4564, 6924.727
851.9385, 6907.365
852.4206, 6892.299
852.9027, 6905.861
853.3848, 6939.807
853.8669, 6946.332
854.3491, 6888.938
854.8312, 6825.797
855.3133, 6836.334
855.7954, 6888.888
856.2775, 6918.744
856.7596, 6921.527
857.2418, 6909.664
857.7239, 6888.444
858.2060, 6860.435
858.6881, 6821.343
859.1702, 6777.171
859.6523, 6777.653
860.1345, 6826.264
860.6166, 6869.784
861.0987, 6897.714
861.5808, 6898.552
862.0629, 6852.429
862.5450, 6773.367
863.0272, 6744.003
863.5093, 6797.059
863.9914, 6813.861
864.4735, 6752.138
864.9556, 6700.687
865.4377, 6722.155
865.9199, 6779.168
866.4020, 6798.709
866.8841, 6770.180
867.3662, 6749.478
867.8483, 6757.848
868.3304, 6754.415
868.8126, 6695.446
869.2947, 6637.663
869.7768, 6652.680
870.2589, 6732.264
870.7410, 6794.348
871.2231, 6806.688
871.7053, 6798.788
872.1874, 6774.338
872.6695, 6746.989
873.1516, 6730.418
873.6337, 6723.485
874.1158, 6720.683
874.5980, 6720.139
875.0801, 6716.683
875.5622, 6702.768
876.0443, 6684.878
876.5264, 6672.646
877.0085, 6665.160
877.4907, 6657.577
877.9728, 6649.188
878.4549, 6645.917
878.9370, 6653.804
879.4191, 6667.861
879.9012, 6678.096
880.3834, 6684.181
880.8655, 6679.995
881.3476, 6664.266
881.8297, 6655.789
882.3118, 6666.305
882.7939, 6684.557
883.2761, 6689.327
883.7582, 6679.198
884.2403, 6679.019
884.7224, 6694.252
885.2045, 6701.966
885.6866, 6697.423
886.1688, 6678.705
886.6509, 6634.120
887.1330, 6570.395
887.6151, 6548.261
888.0972, 6614.319
888.5793, 6642.363
889.0615, 6587.884
889.5436, 6534.589
890.0257, 6513.692
890.5078, 6522.159
890.9899, 6566.001
891.4720, 6658.419
891.9542, 6705.538
892.4363, 6656.688
892.9184, 6600.736
893.4005, 6558.028
893.8826, 6536.704
894.3647, 6558.043
894.8469, 6609.889
895.3290, 6639.529
895.8111, 6616.522
896.2932, 6591.388
896.7753, 6601.736
897.2574, 6616.614
897.7396, 6600.309
898.2217, 6564.640
898.7038, 6538.309
899.1859, 6530.481
899.6680, 6534.302
900.1501, 6557.163
900.6323, 6578.539
901.1144, 6563.660
901.5965, 6528.381
902.0786, 6505.124
902.5607, 6499.976
903.0428, 6509.500
903.5250, 6534.155
904.0071, 6558.296
904.4892, 6553.225
904.9713, 6527.245
905.4534, 6510.934
905.9355, 6505.144
906.4177, 6497.421
906.8998, 6482.874
907.3819, 6471.284
907.8640, 6474.896
908.3461, 6490.354
908.8282, 6504.076
909.3104, 6516.826
909.7925, 6509.473
910.2746, 6473.928
910.7567, 6445.083
911.2388, 6447.678
911.7209, 6467.600
912.2031, 6474.295
912.6852, 6467.513
913.1673, 6445.789
913.6494, 6395.275
914.1315, 6366.692
914.6136, 6388.714
915.0958, 6421.374
915.5779, 6423.689
916.0600, 6398.573
916.5421, 6374.757
917.0242, 6332.771
917.5063, 6325.564
917.9885, 6387.429
918.4706, 6450.133
918.9527, 6492.033
919.4348, 6510.367
919.9169, 6494.447
920.3990, 6437.417
920.8812, 6393.406
921.3633, 6374.931
921.8455, 6362.159
922.3276, 6345.860
922.8097, 6335.356
923.2918, 6341.978
923.7739, 6361.788
924.2560, 6381.183
924.7382, 6399.039
925.2203, 6410.106
925.7024, 6408.593
926.1845, 6403.343
926.6666, 6400.176
927.1487, 6397.373
927.6309, 6391.926
928.1130, 6383.347
928.5951, 6372.846
929.0772, 6359.888
929.5593, 6346.796
930.0414, 6323.938
930.5236, 6309.667
931.0057, 6343.584
931.4878, 6404.193
931.9699, 6424.745
932.4520, 6379.362
932.9341, 6325.945
933.4163, 6312.270
933.8984, 6318.880
934.3805, 6325.681
934.8626, 6331.788
935.3447, 6340.949
935.8268, 6350.761
936.3090, 6344.793
936.7911, 6309.036
937.2732, 6268.392
937.7553, 6259.414
938.2374, 6270.555
938.7195, 6274.419
939.2017, 6271.906
939.6838, 6280.122
940.1659, 6303.646
940.6480, 6317.828
941.1301, 6295.400
941.6122, 6250.964
942.0944, 6213.480
942.5765, 6185.396
943.0586, 6185.138
943.5407, 6213.555
944.0228, 6241.630
944.5049, 6255.200
944.9871, 6253.267
945.4692, 6225.028
945.9513, 6177.534
946.4334, 6176.975
946.9155, 6224.440
947.3976, 6259.199
947.8798, 6266.315
948.3619, 6264.287
948.8440, 6267.152
949.3261, 6271.307
949.8082, 6265.201
950.2903, 6247.173
950.7725, 6240.104
951.2546, 6248.583
951.7367, 6245.184
952.2188, 6214.528
952.7009, 6183.757
953.1830, 6184.554
953.6652, 6211.746
954.1473, 6227.288
954.6294, 6228.688
955.1115, 6227.578
955.5936, 6226.131
956.0757, 6218.388
956.5579, 6195.973
957.0400, 6171.989
957.5221, 6167.834
958.0042, 6184.458
958.4863, 6210.097
958.9684, 6258.030
959.4506, 6286.042
959.9327, 6281.864
960.4148, 6261.909
960.8969, 6226.301
961.3790, 6187.625
961.8611, 6183.168
962.3433, 6232.320
962.8254, 6254.993
963.3075, 6229.270
963.7896, 6209.735
964.2717, 6217.125
964.7538, 6231.809
965.2360, 6235.787
965.7181, 6231.122
966.2002, 6230.259
966.6823, 6242.055
967.1644, 6243.013
967.6465, 6221.263
968.1287, 6201.904
968.6108, 6184.328
969.0929, 6181.153
969.5750, 6219.605
970.0571, 6298.225
970.5392, 6343.724
971.0214, 6323.472
971.5035, 6306.978
971.9856, 6308.824
972.4677, 6313.679
972.9498, 6309.902
973.4319, 6303.958
973.9141, 6310.019
974.3962, 6331.447
974.8783, 6342.873
975.3604, 6334.296
975.8425, 6322.530
976.3246, 6313.558
976.8068, 6302.796
977.2889, 6281.176
977.7710, 6255.638
978.2531, 6244.430
978.7352, 6253.733
979.2173, 6263.974
979.6995, 6277.495
980.1816, 6282.067
980.6637, 6269.010
981.1458, 6246.564
981.6279, 6220.067
982.1100, 6191.795
982.5922, 6164.469
983.0743, 6129.183
983.5564, 6119.140
984.0385, 6176.943
984.5206, 6228.323
985.0027, 6223.402
985.4849, 6189.880
985.9670, 6166.810
986.4491, 6155.686
986.9312, 6129.724
987.4133, 6061.033
987.8954, 6008.442
988.3776, 6009.556
988.8597, 6020.922
989.3418, 6004.989
989.8239, 5980.359
990.3060, 5985.909
990.7881, 6025.214
991.2703, 6049.869
991.7524, 6034.049
992.2345, 6008.319
992.7166, 5972.196
993.1987, 5944.929
993.6808, 5948.296
994.1630, 5971.544
994.6451, 5994.951
995.1272, 6014.003
995.6093, 6022.387
996.0914, 6008.627
996.5735, 5994.059
997.0557, 5993.885
997.5378, 5995.199
998.0199, 5983.386
998.5020, 5962.104
998.9841, 5941.704
999.4662, 5923.710
999.9484, 5916.252
1000.430, 5934.057
1000.913, 5950.788
1001.395, 5947.210
1001.877, 5936.664
1002.359, 5936.722
1002.841, 5944.037
1003.323, 5940.329
1003.805, 5915.698
1004.287, 5898.191
1004.770, 5911.868
1005.252, 5925.176
1005.734, 5906.343
1006.216, 5882.509
1006.698, 5895.731
1007.180, 5938.775
1007.662, 5962.000
1008.144, 5940.896
1008.626, 5920.315
1009.109, 5926.789
1009.591, 5934.660
1010.073, 5925.495
1010.555, 5907.289
1011.037, 5888.680
1011.519, 5872.432
1012.001, 5864.393
1012.483, 5876.381
1012.966, 5876.624
1013.448, 5833.245
1013.930, 5792.125
1014.412, 5789.433
1014.894, 5807.893
1015.376, 5820.099
1015.858, 5823.545
1016.340, 5834.912
1016.822, 5873.059
1017.305, 5899.193
1017.787, 5882.073
1018.269, 5864.297
1018.751, 5889.587
1019.233, 5927.896
1019.715, 5928.917
1020.197, 5887.428
1020.679, 5842.254
1021.161, 5783.338
1021.644, 5753.681
1022.126, 5801.771
1022.608, 5849.564
1023.090, 5827.524
1023.572, 5774.709
1024.054, 5761.816
1024.536, 5798.401
1025.018, 5832.695
1025.500, 5855.610
1025.983, 5869.150
1026.465, 5872.183
1026.947, 5867.662
1027.429, 5850.373
1027.911, 5829.823
1028.393, 5826.965
1028.875, 5846.078
1029.357, 5845.281
1029.840, 5789.915
1030.322, 5751.503
1030.804, 5754.083
1031.286, 5773.175
1031.768, 5806.746
1032.250, 5839.827
1032.732, 5845.161
1033.214, 5817.974
1033.697, 5786.473
1034.179, 5729.681
1034.661, 5702.567
1035.143, 5742.479
1035.625, 5788.756
1036.107, 5811.951
1036.589, 5811.175
1037.071, 5774.573
1037.553, 5684.900
1038.036, 5653.371
1038.518, 5733.898
1039.000, 5792.879
1039.482, 5796.221
1039.964, 5789.053
1040.446, 5806.086
1040.928, 5828.104
1041.410, 5810.512
1041.892, 5740.571
1042.375, 5709.586
1042.857, 5744.470
1043.339, 5766.558
1043.821, 5766.341
1044.303, 5741.334
1044.785, 5668.845
1045.267, 5588.084
1045.749, 5583.983
1046.232, 5667.748
1046.714, 5730.824
1047.196, 5782.535
1047.678, 5780.574
1048.160, 5693.410
1048.642, 5608.130
1049.124, 5579.380
1049.606, 5589.272
1050.089, 5605.345
1050.571, 5627.995
1051.053, 5647.928
1051.535, 5666.780
1052.017, 5672.666
1052.499, 5660.455
1052.981, 5647.541
1053.463, 5643.751
1053.945, 5648.826
1054.427, 5666.198
1054.910, 5693.905
1055.392, 5698.975
1055.874, 5680.822
1056.356, 5654.353
1056.838, 5621.252
1057.320, 5598.728
1057.802, 5597.994
1058.284, 5605.463
1058.767, 5597.245
1059.249, 5579.102
1059.731, 5581.155
1060.213, 5601.708
1060.695, 5634.286
1061.177, 5675.335
1061.659, 5692.955
1062.141, 5669.297
1062.624, 5632.886
1063.106, 5620.104
1063.588, 5622.809
1064.070, 5621.786
1064.552, 5617.685
1065.034, 5613.440
1065.516, 5608.624
1065.998, 5597.081
1066.480, 5576.037
1066.963, 5557.019
1067.445, 5549.625
1067.927, 5553.382
1068.409, 5573.097
1068.891, 5600.857
1069.373, 5624.638
1069.855, 5641.511
1070.337, 5647.886
1070.819, 5642.649
1071.302, 5634.019
1071.784, 5627.550
1072.266, 5621.589
1072.748, 5611.211
1073.230, 5602.939
1073.712, 5613.097
1074.194, 5630.590
1074.676, 5621.948
1075.159, 5579.531
1075.641, 5551.847
1076.123, 5587.558
1076.605, 5616.459
1077.087, 5582.330
1077.569, 5540.561
1078.051, 5549.697
1078.533, 5584.364
1079.016, 5588.792
1079.498, 5554.904
1079.980, 5531.327
1080.462, 5547.490
1080.944, 5553.729
1081.426, 5522.927
1081.908, 5492.329
1082.390, 5481.560
1082.872, 5486.878
1083.354, 5506.337
1083.837, 5539.068
1084.319, 5561.773
1084.801, 5556.356
1085.283, 5567.625
1085.765, 5614.646
1086.247, 5656.259
1086.729, 5686.179
1087.212, 5691.525
1087.694, 5645.450
1088.176, 5559.034
1088.658, 5519.412
1089.140, 5549.855
1089.622, 5548.709
1090.104, 5493.538
1090.586, 5467.042
1091.068, 5507.957
1091.551, 5559.440
1092.033, 5565.351
1092.515, 5540.112
1092.997, 5532.274
1093.479, 5542.781
1093.961, 5541.184
1094.443, 5526.110
1094.925, 5508.022
1095.407, 5489.332
1095.890, 5480.905
1096.372, 5492.981
1096.854, 5511.263
1097.336, 5501.931
1097.818, 5476.291
1098.300, 5491.602
1098.782, 5533.580
1099.264, 5523.256
1099.747, 5453.046
1100.229, 5388.378
1100.711, 5365.750
1101.193, 5371.199
1101.675, 5399.979
1102.157, 5438.216
1102.639, 5474.462
1103.121, 5499.854
1103.604, 5489.611
1104.086, 5452.337
1104.568, 5423.816
1105.050, 5417.368
1105.532, 5420.677
1106.014, 5426.037
1106.496, 5437.171
1106.978, 5465.539
1107.460, 5493.853
1107.943, 5501.421
1108.425, 5495.046
1108.907, 5492.864
1109.389, 5498.483
1109.871, 5498.788
1110.353, 5485.876
1110.835, 5472.640
1111.317, 5462.203
1111.799, 5453.235
1112.282, 5447.142
1112.764, 5440.646
1113.246, 5427.927
1113.728, 5409.058
1114.210, 5393.432
1114.692, 5371.768
1115.174, 5374.042
1115.656, 5427.826
1116.139, 5452.778
1116.621, 5402.475
1117.103, 5343.031
1117.585, 5346.319
1118.067, 5390.404
1118.549, 5386.869
1119.031, 5326.213
1119.513, 5305.588
1119.995, 5330.896
1120.478, 5357.263
1120.960, 5373.612
1121.442, 5376.156
1121.924, 5360.303
1122.406, 5338.300
1122.888, 5333.074
1123.370, 5340.502
1123.852, 5344.129
1124.334, 5345.612
1124.817, 5357.727
1125.299, 5378.043
1125.781, 5379.444
1126.263, 5348.810
1126.745, 5311.641
1127.227, 5286.566
1127.709, 5275.412
1128.191, 5286.944
1128.674, 5309.558
1129.156, 5334.708
1129.638, 5353.809
1130.120, 5344.891
1130.602, 5305.388
1131.084, 5280.644
1131.566, 5301.338
1132.048, 5331.015
1132.531, 5362.208
1133.013, 5386.424
1133.495, 5402.676
1133.977, 5405.108
1134.459, 5377.947
1134.941, 5325.673
1135.423, 5290.597
1135.905, 5285.574
1136.387, 5281.396
1136.870, 5267.711
1137.352, 5270.514
1137.834, 5315.632
1138.316, 5352.795
1138.798, 5332.158
1139.280, 5279.904
1139.762, 5269.676
1140.244, 5307.278
1140.726, 5318.566
1141.209, 5300.436
1141.691, 5282.847
1142.173, 5271.844
1142.655, 5255.604
1143.137, 5225.981
1143.619, 5201.944
1144.101, 5216.021
1144.583, 5250.252
1145.066, 5249.761
1145.548, 5225.819
1146.030, 5212.659
1146.512, 5213.661
1146.994, 5229.184
1147.476, 5256.622
1147.958, 5272.112
1148.440, 5254.352
1148.922, 5226.299
1149.405, 5198.018
1149.887, 5181.162
1150.369, 5201.473
1150.851, 5234.366
1151.333, 5234.898
1151.815, 5206.284
1152.297, 5195.192
1152.779, 5224.977
1153.261, 5241.716
1153.744, 5208.688
1154.226, 5187.600
1154.708, 5225.240
1155.190, 5262.879
1155.672, 5242.936
1156.154, 5192.422
1156.636, 5166.016
1157.118, 5166.133
1157.601, 5162.415
1158.083, 5150.246
1158.565, 5151.470
1159.047, 5173.351
1159.529, 5188.835
1160.011, 5181.856
1160.493, 5183.036
1160.975, 5236.445
1161.458, 5310.289
1161.940, 5291.501
1162.422, 5200.822
1162.904, 5147.052
1163.386, 5133.273
1163.868, 5142.769
1164.350, 5167.144
1164.832, 5180.934
1165.314, 5165.155
1165.797, 5154.010
1166.279, 5205.274
1166.761, 5258.966
1167.243, 5230.179
1167.725, 5171.723
1168.207, 5171.427
1168.689, 5208.660
1169.171, 5188.109
1169.653, 5081.688
1170.136, 5029.992
1170.618, 5141.743
1171.100, 5227.915
1171.582, 5211.220
1172.064, 5177.505
1172.546, 5172.680
1173.028, 5181.746
1173.510, 5190.739
1173.993, 5196.917
1174.475, 5178.861
1174.957, 5122.728
1175.439, 5097.458
1175.921, 5110.609
1176.403, 5123.770
1176.885, 5126.589
1177.367, 5127.443
1177.849, 5131.594
1178.332, 5140.250
1178.814, 5164.685
1179.296, 5192.001
1179.778, 5167.592
1180.260, 5110.395
1180.742, 5075.049
1181.224, 5068.084
1181.706, 5085.945
1182.188, 5124.874
1182.671, 5157.586
1183.153, 5162.257
1183.635, 5159.277
1184.117, 5164.105
1184.599, 5168.140
1185.081, 5160.601
1185.563, 5149.595
1186.045, 5148.635
1186.528, 5155.775
1187.010, 5155.167
1187.492, 5138.094
1187.974, 5132.259
1188.456, 5159.920
1188.938, 5163.517
1189.420, 5111.958
1189.902, 5070.384
1190.385, 5081.706
1190.867, 5118.275
1191.349, 5141.256
1191.831, 5149.930
1192.313, 5132.106
1192.795, 5090.024
1193.277, 5080.796
1193.759, 5105.078
1194.241, 5114.381
1194.724, 5094.655
1195.206, 5069.463
1195.688, 5054.517
1196.170, 5047.404
1196.652, 5045.161
1197.134, 5049.178
1197.616, 5071.973
1198.098, 5095.337
1198.580, 5083.934
1199.063, 5049.613
1199.545, 5038.074
1200.027, 5061.849
1200.509, 5072.163
1200.991, 5029.190
1201.473, 5007.525
1201.955, 5056.513
1202.437, 5092.543
1202.920, 5061.912
1203.402, 5014.866
1203.884, 5004.778
1204.366, 5021.412
1204.848, 5022.739
1205.330, 5004.021
1205.812, 5019.436
1206.294, 5071.810
1206.776, 5084.136
1207.259, 5041.838
1207.741, 5013.868
1208.223, 5037.773
1208.705, 5072.426
1209.187, 5073.424
1209.669, 5053.718
1210.151, 5019.097
1210.633, 4987.551
1211.115, 5000.357
1211.598, 5034.906
1212.080, 5036.084
1212.562, 5000.696
1213.044, 4976.286
1213.526, 4987.512
1214.008, 4987.496
1214.490, 4941.249
1214.972, 4907.759
1215.455, 4912.362
1215.937, 4936.257
1216.419, 4982.314
1216.901, 5025.136
1217.383, 5016.408
1217.865, 4960.783
1218.347, 4929.826
1218.829, 4924.879
1219.312, 4930.659
1219.794, 4945.997
1220.276, 4958.440
1220.758, 4963.919
1221.240, 4957.662
1221.722, 4934.126
1222.204, 4910.112
1222.686, 4915.021
1223.168, 4926.444
1223.651, 4901.412
1224.133, 4868.507
1224.615, 4871.593
1225.097, 4906.327
1225.579, 4957.446
1226.061, 5019.476
1226.543, 5056.782
1227.025, 5061.886
1227.507, 5035.902
1227.990, 4932.420
1228.472, 4861.515
1228.954, 4875.775
1229.436, 4917.722
1229.918, 4949.620
1230.400, 4964.277
1230.882, 4936.239
1231.364, 4869.956
1231.847, 4858.397
1232.329, 4895.900
1232.811, 4903.798
1233.293, 4875.990
1233.775, 4847.373
1234.257, 4831.904
1234.739, 4836.254
1235.221, 4872.689
1235.703, 4910.160
1236.186, 4915.365
1236.668, 4909.568
1237.150, 4908.748
1237.632, 4913.021
1238.114, 4927.640
1238.596, 4944.882
1239.078, 4942.820
1239.560, 4915.472
1240.042, 4895.384
1240.525, 4895.111
1241.007, 4879.205
1241.489, 4837.278
1241.971, 4797.155
1242.453, 4765.591
1242.935, 4753.582
1243.417, 4773.868
1243.899, 4810.014
1244.382, 4837.208
1244.864, 4848.903
1245.346, 4801.100
1245.828, 4723.129
1246.310, 4706.256
1246.792, 4744.747
1247.274, 4777.956
1247.756, 4787.089
1248.239, 4790.774
1248.721, 4803.038
1249.203, 4804.130
1249.685, 4768.582
1250.167, 4739.270
1250.649, 4743.832
1251.131, 4761.688
1251.613, 4776.503
1252.095, 4787.832
1252.578, 4795.559
1253.060, 4799.688
1253.542, 4795.653
1254.024, 4782.940
1254.506, 4765.456
1254.988, 4744.027
1255.470, 4739.635
1255.952, 4757.929
1256.434, 4775.103
1256.917, 4774.067
1257.399, 4765.730
1257.881, 4759.868
1258.363, 4755.892
1258.845, 4749.390
1259.327, 4747.441
1259.809, 4765.429
1260.291, 4792.092
1260.774, 4801.532
1261.256, 4791.104
1261.738, 4785.819
1262.220, 4786.339
1262.702, 4798.568
1263.184, 4835.712
1263.666, 4849.358
1264.148, 4823.921
1264.630, 4781.382
1265.113, 4730.948
1265.595, 4695.497
1266.077, 4712.844
1266.559, 4761.908
1267.041, 4801.838
1267.523, 4827.805
1268.005, 4816.108
1268.487, 4785.966
1268.969, 4795.440
1269.452, 4839.376
1269.934, 4836.713
1270.416, 4743.945
1270.898, 4682.479
1271.380, 4724.931
1271.862, 4761.604
1272.344, 4747.688
1272.826, 4736.100
1273.309, 4758.973
1273.791, 4782.769
1274.273, 4767.431
1274.755, 4728.558
1275.237, 4716.936
1275.719, 4728.413
1276.201, 4719.304
1276.683, 4696.321
1277.166, 4699.870
1277.648, 4729.657
1278.130, 4752.682
1278.612, 4757.198
1279.094, 4759.547
1279.576, 4775.029
1280.058, 4781.285
1280.540, 4754.752
1281.022, 4728.339
1281.505, 4727.557
1281.987, 4731.673
1282.469, 4724.347
##END=



