##NAMES=Magnesite
##RRUFFID=R050443
##IDEAL CHEMISTRY=MgCO_3_
##LOCALITY=Brumado, Bahia, Brazil
##OWNER=RRUFF
##SOURCE=Eugene Schlepp
##DESCRIPTION=Group of colorless crystals
##STATUS=The identification of this mineral has been confirmed by X-ray diffraction and chemical analysis
##URL=rruff.info/R050443
##MEASURED CHEMISTRY=Mg_1.00_CO_3_
91.00781, 4.207948
91.48993, 4.113063
91.97205, 4.075253
92.45416, 4.216744
92.93628, 4.410640
93.41840, 4.323364
93.90051, 3.793642
94.38263, 3.152416
94.86475, 2.967193
95.34686, 3.234555
95.82898, 3.625957
96.31110, 3.886611
96.79321, 4.031325
97.27533, 4.215549
97.75745, 4.508747
98.23956, 4.861165
98.72168, 4.977193
99.20380, 4.766964
99.68591, 4.597617
100.1680, 5.009258
100.6501, 6.176535
101.1323, 7.042308
101.6144, 7.180462
102.0965, 6.507729
102.5786, 6.131961
103.0607, 6.127644
103.5428, 6.350960
104.0250, 6.545270
104.5071, 6.584975
104.9892, 6.806418
105.4713, 7.393836
105.9534, 8.688593
106.4355, 9.587152
106.9177, 9.867010
107.3998, 9.741549
107.8819, 9.900802
108.3640, 10.72708
108.8461, 11.52976
109.3282, 11.99619
109.8104, 11.74619
110.2925, 11.58714
110.7746, 11.51794
111.2567, 11.54873
111.7388, 11.75884
112.2209, 12.33251
112.7031, 12.99182
113.1852, 13.55136
113.6673, 13.95044
114.1494, 14.26593
114.6315, 14.46834
115.1136, 14.55417
115.5958, 14.72128
116.0779, 15.12492
116.5600, 15.61506
117.0421, 16.02177
117.5242, 16.06437
118.0063, 16.17827
118.4885, 16.68267
118.9706, 17.68985
119.4527, 18.61613
119.9348, 18.94670
120.4169, 18.97534
120.8990, 19.24748
121.3812, 20.49645
121.8633, 21.89780
122.3454, 22.59306
122.8275, 22.28478
123.3096, 21.70099
123.7917, 21.42189
124.2739, 21.39026
124.7560, 21.39613
125.2381, 21.11506
125.7202, 20.81070
126.2023, 21.00282
126.6844, 22.05571
127.1666, 23.32752
127.6487, 23.85278
128.1308, 23.66993
128.6129, 23.38225
129.0950, 23.51479
129.5771, 23.96036
130.0593, 24.32961
130.5414, 24.45910
131.0235, 24.45570
131.5056, 24.60904
131.9877, 24.85269
132.4698, 24.95901
132.9520, 24.68690
133.4341, 24.06764
133.9162, 23.72496
134.3983, 24.03680
134.8804, 24.87677
135.3625, 25.17994
135.8447, 24.77847
136.3268, 24.27940
136.8089, 24.68727
137.2910, 26.19004
137.7731, 27.46707
138.2552, 27.93321
138.7374, 27.48263
139.2195, 27.13584
139.7016, 26.91640
140.1837, 26.76917
140.6658, 26.57869
141.1479, 26.31533
141.6301, 26.07052
142.1122, 25.91623
142.5943, 25.95927
143.0764, 25.76974
143.5585, 25.17519
144.0406, 24.35584
144.5228, 23.95157
145.0049, 24.15971
145.4870, 24.53284
145.9691, 24.84581
146.4512, 25.21517
146.9333, 25.34151
147.4155, 25.15487
147.8976, 24.68231
148.3797, 24.17806
148.8618, 23.41580
149.3439, 22.77597
149.8260, 22.50042
150.3082, 22.80816
150.7903, 23.22945
151.2724, 23.88000
151.7545, 24.77229
152.2366, 25.24687
152.7188, 24.91491
153.2009, 24.34007
153.6830, 23.97764
154.1651, 24.03247
154.6472, 24.14097
155.1293, 24.23003
155.6115, 24.29339
156.0936, 24.36224
156.5757, 24.49492
157.0578, 24.61895
157.5399, 24.65294
158.0220, 24.50791
158.5042, 24.33212
158.9863, 24.15161
159.4684, 23.94427
159.9505, 23.85096
160.4326, 24.03250
160.9147, 24.33653
161.3969, 24.53622
161.8790, 24.47844
162.3611, 24.35132
162.8432, 24.23561
163.3253, 24.12188
163.8074, 24.08673
164.2896, 24.28077
164.7717, 24.57874
165.2538, 24.73054
165.7359, 24.51108
166.2180, 24.16714
166.7001, 23.85479
167.1823, 23.55482
167.6644, 23.40342
168.1465, 23.62165
168.6286, 24.08431
169.1107, 24.43950
169.5928, 24.36808
170.0750, 24.14349
170.5571, 24.06703
171.0392, 24.29695
171.5213, 24.54087
172.0034, 24.46458
172.4855, 24.14965
172.9677, 23.95755
173.4498, 24.28777
173.9319, 24.84204
174.4140, 25.18213
174.8961, 25.09127
175.3782, 24.85948
175.8604, 24.78669
176.3425, 24.86171
176.8246, 24.99215
177.3067, 25.19168
177.7888, 25.39472
178.2709, 25.44867
178.7531, 25.18209
179.2352, 24.84386
179.7173, 24.85320
180.1994, 25.19741
180.6815, 25.58137
181.1636, 25.77238
181.6458, 25.79793
182.1279, 25.72689
182.6100, 25.51821
183.0921, 25.25505
183.5742, 25.00795
184.0563, 24.76763
184.5385, 24.79712
185.0206, 25.64495
185.5027, 27.11537
185.9848, 28.21905
186.4669, 28.46821
186.9490, 28.11726
187.4312, 27.87829
187.9133, 27.75047
188.3954, 27.76362
188.8775, 27.97947
189.3596, 28.38540
189.8417, 28.88052
190.3239, 29.34294
190.8060, 29.84100
191.2881, 30.67623
191.7702, 31.82784
192.2523, 33.34965
192.7344, 35.23591
193.2166, 37.48093
193.6987, 40.39131
194.1808, 44.30218
194.6629, 49.12328
195.1450, 54.06852
195.6271, 59.23952
196.1093, 64.28119
196.5914, 68.73260
197.0735, 72.59404
197.5556, 75.88389
198.0377, 78.43584
198.5198, 80.26630
199.0020, 82.08632
199.4841, 83.76077
199.9662, 85.66748
200.4483, 88.64173
200.9304, 92.85907
201.4125, 97.06748
201.8947, 100.5606
202.3768, 103.2365
202.8589, 106.4534
203.3410, 110.1903
203.8231, 114.5224
204.3052, 119.5291
204.7874, 125.2525
205.2695, 131.5607
205.7516, 138.2641
206.2337, 145.2420
206.7158, 153.2189
207.1979, 161.7106
207.6801, 171.7253
208.1622, 185.1001
208.6443, 202.0067
209.1264, 221.8774
209.6085, 244.4708
210.0906, 269.7695
210.5728, 298.2543
211.0549, 330.5525
211.5370, 365.4241
212.0191, 402.3139
212.5012, 447.8735
212.9833, 479.9448
213.4655, 488.0230
213.9476, 470.4131
214.4297, 433.8104
214.9118, 370.3579
215.3939, 292.1854
215.8760, 226.8073
216.3581, 175.8184
216.8403, 135.4398
217.3224, 105.3370
217.8045, 87.40584
218.2866, 73.43010
218.7687, 64.21439
219.2508, 58.56683
219.7330, 53.66940
220.2151, 49.64092
220.6972, 46.15207
221.1793, 43.09102
221.6614, 40.39923
222.1435, 38.23360
222.6257, 36.64204
223.1078, 35.55518
223.5899, 34.79818
224.0720, 34.59003
224.5541, 34.35859
225.0362, 33.78700
225.5184, 32.63372
226.0005, 31.76711
226.4826, 31.31391
226.9647, 31.12567
227.4468, 30.75766
227.9289, 30.08829
228.4111, 29.43147
228.8932, 28.93274
229.3753, 28.64420
229.8574, 28.38767
230.3395, 28.13054
230.8216, 27.91288
231.3038, 27.87421
231.7859, 28.18954
232.2680, 28.42622
232.7501, 28.35931
233.2322, 27.78258
233.7143, 27.37714
234.1965, 27.23545
234.6786, 27.24590
235.1607, 27.06899
235.6428, 26.51308
236.1249, 26.04763
236.6070, 25.90815
237.0892, 26.30732
237.5713, 26.55470
238.0534, 26.57505
238.5355, 26.46277
239.0176, 26.48148
239.4997, 26.78991
239.9819, 27.00035
240.4640, 26.90701
240.9461, 26.27805
241.4282, 25.90182
241.9103, 25.86762
242.3924, 26.05783
242.8746, 26.18984
243.3567, 26.21352
243.8388, 26.25637
244.3209, 26.39708
244.8030, 26.74617
245.2851, 26.87975
245.7673, 26.67409
246.2494, 26.30392
246.7315, 26.15190
247.2136, 26.30903
247.6957, 26.54265
248.1778, 26.82616
248.6600, 27.31451
249.1421, 27.33446
249.6242, 26.62393
250.1063, 25.58526
250.5884, 25.01105
251.0705, 25.08465
251.5527, 25.31235
252.0348, 25.53866
252.5169, 25.78201
252.9990, 25.95080
253.4811, 25.98006
253.9632, 25.97849
254.4454, 26.15456
254.9275, 26.61280
255.4096, 27.05390
255.8917, 27.41790
256.3738, 27.74722
256.8560, 27.75277
257.3381, 27.25579
257.8202, 26.58584
258.3023, 26.24722
258.7844, 26.35158
259.2665, 26.55553
259.7487, 26.80431
260.2308, 27.13203
260.7129, 27.22297
261.1950, 26.95009
261.6771, 26.57888
262.1592, 26.49678
262.6414, 26.82666
263.1235, 27.13493
263.6056, 27.27995
264.0877, 27.24733
264.5698, 27.30780
265.0519, 27.53118
265.5341, 27.75234
266.0162, 27.73774
266.4983, 27.37875
266.9804, 27.12142
267.4625, 27.09364
267.9446, 27.29200
268.4268, 27.48291
268.9089, 27.64315
269.3910, 27.83009
269.8731, 28.15566
270.3552, 28.69677
270.8373, 29.04849
271.3195, 29.07969
271.8016, 28.82227
272.2837, 28.59802
272.7658, 28.37792
273.2479, 28.25115
273.7300, 28.36762
274.2122, 28.79478
274.6943, 29.02047
275.1764, 28.84085
275.6585, 28.37884
276.1406, 28.34505
276.6227, 28.84971
277.1049, 29.41886
277.5870, 29.60988
278.0691, 29.37694
278.5512, 29.31157
279.0333, 29.55467
279.5154, 30.00560
279.9976, 30.38876
280.4797, 30.73435
280.9618, 30.85781
281.4439, 30.38058
281.9260, 29.29351
282.4081, 28.97551
282.8903, 29.86744
283.3724, 31.33259
283.8545, 31.71914
284.3366, 30.93060
284.8187, 30.08466
285.3008, 29.97500
285.7830, 30.53325
286.2651, 30.96141
286.7472, 31.17495
287.2293, 31.26159
287.7114, 31.32261
288.1935, 31.35904
288.6757, 31.51091
289.1578, 31.97724
289.6399, 32.66829
290.1220, 33.04324
290.6041, 33.00263
291.0862, 32.87814
291.5684, 33.23566
292.0505, 34.01921
292.5326, 34.68435
293.0147, 34.81037
293.4968, 34.60958
293.9789, 34.78851
294.4611, 35.41213
294.9432, 36.11990
295.4253, 36.48566
295.9074, 36.56928
296.3895, 36.62122
296.8716, 36.69108
297.3538, 36.81479
297.8359, 37.08419
298.3180, 37.50553
298.8001, 37.98307
299.2822, 38.41397
299.7643, 38.83462
300.2465, 39.33335
300.7286, 39.95832
301.2107, 40.66471
301.6928, 41.29744
302.1749, 41.87356
302.6570, 42.74500
303.1392, 44.38970
303.6213, 46.48756
304.1034, 48.46169
304.5855, 50.19860
305.0676, 51.71336
305.5497, 52.74586
306.0319, 53.45353
306.5140, 54.71066
306.9961, 57.09074
307.4782, 60.31956
307.9603, 64.02616
308.4424, 67.81615
308.9246, 72.60909
309.4067, 78.73352
309.8888, 86.32954
310.3709, 95.96812
310.8530, 107.0014
311.3351, 120.6601
311.8173, 137.9178
312.2994, 159.1749
312.7815, 183.9096
313.2636, 213.7942
313.7457, 246.5320
314.2278, 278.2628
314.7100, 309.7392
315.1921, 337.6163
315.6742, 358.8656
316.1563, 372.2268
316.6384, 384.8220
317.1205, 398.6186
317.6027, 413.4522
318.0848, 429.0489
318.5669, 444.0928
319.0490, 460.9790
319.5311, 480.5460
320.0132, 502.8451
320.4954, 527.7584
320.9775, 553.9974
321.4596, 583.2466
321.9417, 616.5831
322.4238, 651.3491
322.9059, 693.2084
323.3881, 742.1806
323.8702, 798.2692
324.3523, 865.8507
324.8344, 944.3022
325.3165, 1035.128
325.7986, 1139.857
326.2808, 1266.825
326.7629, 1398.000
327.2450, 1533.483
327.7271, 1672.615
328.2092, 1813.376
328.6913, 1973.844
329.1735, 2119.900
329.6556, 2246.468
330.1377, 2394.684
330.6198, 2444.871
331.1019, 2380.691
331.5840, 2223.379
332.0662, 2003.734
332.5483, 1669.223
333.0304, 1344.884
333.5125, 1072.139
333.9946, 849.8226
334.4767, 669.2697
334.9589, 539.1724
335.4410, 444.3714
335.9231, 368.9637
336.4052, 317.4430
336.8873, 275.3974
337.3694, 240.8724
337.8516, 213.7774
338.3336, 190.8096
338.8158, 172.3259
339.2979, 157.1359
339.7800, 144.2007
340.2621, 133.7583
340.7442, 124.6782
341.2263, 117.1203
341.7085, 110.7582
342.1906, 105.0169
342.6727, 99.89453
343.1548, 95.09328
343.6369, 90.09991
344.1190, 85.02471
344.6012, 81.13963
345.0833, 78.85427
345.5654, 77.34088
346.0475, 75.04597
346.5296, 72.04052
347.0117, 69.29398
347.4939, 67.59758
347.9760, 66.61557
348.4581, 65.12188
348.9402, 62.96072
349.4223, 60.88766
349.9044, 59.95006
350.3866, 59.83659
350.8687, 59.46647
351.3508, 58.18842
351.8329, 56.47724
352.3150, 55.00080
352.7971, 53.75271
353.2793, 52.70202
353.7614, 51.98156
354.2435, 51.38914
354.7256, 50.55998
355.2077, 49.15713
355.6898, 47.77637
356.1720, 47.03910
356.6541, 46.81178
357.1362, 46.52164
357.6183, 45.67012
358.1004, 44.69227
358.5826, 43.98985
359.0647, 43.69959
359.5468, 43.52987
360.0289, 43.42307
360.5110, 43.32076
360.9931, 43.11061
361.4753, 42.70296
361.9574, 42.21602
362.4395, 41.65783
362.9216, 40.99519
363.4037, 40.48972
363.8858, 40.24594
364.3680, 40.18802
364.8501, 40.23640
365.3322, 40.73998
365.8143, 40.97545
366.2964, 40.66158
366.7785, 39.80780
367.2607, 39.02773
367.7428, 38.23763
368.2249, 37.62679
368.7070, 37.31688
369.1891, 37.64406
369.6712, 37.82578
370.1534, 37.80515
370.6355, 37.62284
371.1176, 37.39842
371.5997, 37.07940
372.0818, 36.78271
372.5639, 36.53553
373.0461, 36.30254
373.5282, 36.27227
374.0103, 36.62037
374.4924, 37.00632
374.9745, 36.81222
375.4566, 35.77294
375.9388, 34.99568
376.4209, 34.90673
376.9030, 35.44941
377.3851, 35.67054
377.8672, 35.50524
378.3493, 35.23930
378.8315, 35.19799
379.3136, 35.38880
379.7957, 35.36796
380.2778, 34.97919
380.7599, 34.40511
381.2420, 34.07792
381.7242, 34.00260
382.2063, 34.01300
382.6884, 34.04677
383.1705, 34.08501
383.6526, 34.05352
384.1347, 33.93569
384.6169, 33.78389
385.0990, 33.66430
385.5811, 33.56652
386.0632, 33.46346
386.5453, 33.39977
387.0274, 33.29701
387.5096, 32.92265
387.9917, 32.28334
388.4738, 31.86860
388.9559, 32.31219
389.4380, 33.14321
389.9201, 33.75254
390.4023, 33.96902
390.8844, 33.87627
391.3665, 33.34844
391.8486, 32.50402
392.3307, 31.79629
392.8128, 31.47975
393.2950, 31.34978
393.7771, 31.25640
394.2592, 31.13812
394.7413, 31.15609
395.2234, 31.53324
395.7055, 32.04524
396.1877, 32.34553
396.6698, 32.21635
397.1519, 31.99891
397.6340, 31.78410
398.1161, 31.57813
398.5982, 31.35956
399.0804, 30.94788
399.5625, 30.63340
400.0446, 30.65059
400.5267, 31.53588
401.0088, 31.94941
401.4909, 31.49151
401.9731, 30.45217
402.4552, 30.06575
402.9373, 30.72915
403.4194, 31.39766
403.9015, 31.51235
404.3836, 30.85744
404.8658, 30.52624
405.3479, 30.60835
405.8300, 30.89627
406.3121, 31.12420
406.7942, 31.30172
407.2763, 31.34101
407.7585, 31.16389
408.2406, 30.81755
408.7227, 30.53952
409.2048, 30.32131
409.6869, 30.24114
410.1690, 30.54609
410.6512, 31.10921
411.1333, 31.25919
411.6154, 30.71682
412.0975, 29.99095
412.5796, 29.94996
413.0617, 30.46301
413.5439, 30.87502
414.0260, 30.78096
414.5081, 30.37436
414.9902, 29.85678
415.4723, 29.22126
415.9544, 28.69601
416.4366, 28.48421
416.9187, 28.50254
417.4008, 28.62553
417.8829, 28.92628
418.3650, 29.21457
418.8471, 29.38038
419.3293, 29.43377
419.8114, 29.44799
420.2935, 29.41362
420.7756, 29.37595
421.2577, 29.37619
421.7398, 29.48072
422.2220, 29.50730
422.7041, 29.42236
423.1862, 29.23405
423.6683, 28.95866
424.1504, 28.30099
424.6325, 27.84938
425.1147, 27.81502
425.5968, 28.24881
426.0789, 28.63214
426.5610, 29.00089
427.0431, 29.28736
427.5252, 29.43409
428.0074, 29.43251
428.4895, 29.29030
428.9716, 28.91653
429.4537, 28.43444
429.9358, 28.29670
430.4179, 28.61269
430.9001, 28.88633
431.3822, 28.79396
431.8643, 28.32694
432.3464, 28.09040
432.8285, 28.10611
433.3106, 28.28562
433.7928, 28.66213
434.2749, 29.18315
434.7570, 29.37318
435.2391, 28.90428
435.7212, 28.15897
436.2033, 27.94287
436.6855, 28.21090
437.1676, 28.48961
437.6497, 28.40191
438.1318, 28.12069
438.6139, 27.87888
439.0960, 27.68499
439.5782, 27.63924
440.0603, 28.02404
440.5424, 28.60074
441.0245, 28.91836
441.5066, 28.50790
441.9887, 28.01445
442.4709, 27.83895
442.9530, 27.98249
443.4351, 28.11184
443.9172, 27.96292
444.3993, 27.83262
444.8814, 27.95368
445.3636, 28.83482
445.8457, 29.33590
446.3278, 29.05517
446.8099, 28.28413
447.2920, 27.73825
447.7741, 27.48831
448.2563, 27.40680
448.7384, 27.51779
449.2205, 27.86940
449.7026, 28.02552
450.1847, 27.88479
450.6668, 27.67502
451.1490, 27.63524
451.6311, 27.84449
452.1132, 27.89174
452.5953, 27.63061
453.0774, 27.23498
453.5595, 27.23564
454.0417, 27.68063
454.5238, 28.07342
455.0059, 28.09951
455.4880, 27.82708
455.9701, 27.60441
456.4522, 27.44359
456.9344, 27.32461
457.4165, 27.20436
457.8986, 27.10590
458.3807, 27.11063
458.8628, 27.33665
459.3449, 27.57246
459.8271, 27.53022
460.3092, 27.26800
460.7913, 27.03576
461.2734, 27.07848
461.7555, 27.15570
462.2376, 27.00269
462.7198, 26.50548
463.2019, 26.15573
463.6840, 26.29176
464.1661, 26.66998
464.6482, 26.99564
465.1303, 27.25964
465.6125, 27.39182
466.0946, 27.36249
466.5767, 27.17766
467.0588, 26.89150
467.5409, 26.28972
468.0230, 25.77957
468.5052, 25.54494
468.9873, 25.66798
469.4694, 25.88524
469.9515, 26.30605
470.4336, 26.72662
470.9157, 26.78020
471.3979, 26.28063
471.8800, 26.08271
472.3621, 26.55119
472.8442, 27.47920
473.3263, 27.85052
473.8084, 27.61504
474.2906, 27.21361
474.7727, 26.92166
475.2548, 26.72636
475.7369, 26.55823
476.2190, 26.40067
476.7011, 26.30627
477.1833, 26.48076
477.6654, 26.78439
478.1475, 26.82831
478.6296, 26.05692
479.1117, 25.22209
479.5938, 25.24023
480.0760, 25.98784
480.5581, 26.63306
481.0402, 26.64748
481.5223, 26.39734
482.0044, 26.15184
482.4865, 25.92909
482.9687, 25.80124
483.4508, 25.83508
483.9329, 25.96804
484.4150, 26.10987
484.8971, 26.21424
485.3792, 26.35844
485.8614, 26.63411
486.3435, 27.02067
486.8256, 27.18392
487.3077, 26.99587
487.7898, 26.73390
488.2719, 26.52912
488.7541, 26.37426
489.2362, 26.32898
489.7183, 26.44764
490.2004, 26.60430
490.6825, 26.54545
491.1646, 26.23076
491.6468, 26.13682
492.1289, 26.53080
492.6110, 27.17702
493.0931, 27.34742
493.5752, 27.04745
494.0573, 26.70237
494.5395, 26.66182
495.0216, 26.78789
495.5037, 26.73822
495.9858, 26.42857
496.4679, 26.20375
496.9500, 26.53798
497.4322, 27.14699
497.9143, 27.55324
498.3964, 27.47009
498.8785, 27.22199
499.3606, 26.85652
499.8427, 26.43272
500.3249, 26.24276
500.8070, 26.71461
501.2891, 27.18675
501.7712, 27.29432
502.2533, 26.88106
502.7354, 26.44553
503.2176, 25.78139
503.6997, 25.24165
504.1818, 25.23866
504.6639, 26.23446
505.1460, 26.89015
505.6281, 26.88538
506.1103, 26.41809
506.5924, 26.25075
507.0745, 26.41841
507.5566, 26.76078
508.0387, 27.33195
508.5208, 28.10242
509.0030, 28.44725
509.4851, 28.33496
509.9672, 27.97405
510.4493, 27.37072
510.9314, 26.66805
511.4135, 26.40993
511.8957, 26.92804
512.3778, 27.60953
512.8599, 27.72722
513.3420, 27.41604
513.8242, 27.07072
514.3063, 26.81532
514.7884, 26.65864
515.2705, 26.61283
515.7526, 26.67833
516.2347, 26.82946
516.7169, 27.20259
517.1990, 27.57093
517.6811, 27.75801
518.1632, 27.55852
518.6453, 27.41618
519.1274, 27.49416
519.6096, 27.63322
520.0917, 27.51588
520.5738, 26.88556
521.0559, 26.42859
521.5380, 26.37101
522.0201, 26.68513
522.5023, 26.88621
522.9844, 26.95771
523.4665, 26.96419
523.9486, 26.92645
524.4307, 26.84869
524.9128, 26.83711
525.3950, 26.91735
525.8771, 27.00363
526.3592, 26.97339
526.8413, 26.84997
527.3234, 26.71657
527.8055, 26.60376
528.2877, 26.49693
528.7698, 26.37953
529.2519, 26.25320
529.7340, 26.12077
530.2161, 25.81382
530.6982, 25.61724
531.1804, 25.84656
531.6625, 26.63761
532.1446, 27.22160
532.6267, 27.28373
533.1088, 27.05037
533.5909, 26.72956
534.0731, 26.13809
534.5552, 25.71987
535.0373, 25.52938
535.5194, 25.52674
536.0015, 25.63677
536.4836, 25.97823
536.9658, 26.17942
537.4479, 26.02814
537.9300, 25.55199
538.4121, 25.41475
538.8942, 25.67362
539.3763, 26.03599
539.8585, 26.31128
540.3406, 26.49178
540.8227, 26.50044
541.3048, 26.29074
541.7869, 26.04258
542.2690, 25.98728
542.7512, 26.06984
543.2333, 26.15278
543.7154, 26.19144
544.1975, 26.19710
544.6796, 26.18851
545.1617, 26.15849
545.6439, 26.07495
546.1260, 25.77203
546.6081, 25.52703
547.0902, 25.53875
547.5723, 25.90357
548.0544, 26.20494
548.5366, 26.45136
549.0187, 26.57192
549.5008, 26.48840
549.9829, 25.98529
550.4650, 25.68408
550.9471, 25.73075
551.4293, 25.95829
551.9114, 25.91776
552.3935, 25.51993
552.8756, 25.29399
553.3577, 25.52715
553.8398, 26.09518
554.3220, 26.45032
554.8041, 26.59197
555.2862, 26.55358
555.7683, 26.15660
556.2504, 25.63844
556.7325, 25.53888
557.2147, 25.99568
557.6968, 26.50060
558.1789, 26.70591
558.6610, 26.66491
559.1431, 26.45512
559.6252, 25.88386
560.1074, 25.37712
560.5895, 25.09021
561.0716, 24.99940
561.5537, 25.02805
562.0358, 25.37779
562.5179, 25.63253
563.0001, 25.54465
563.4822, 25.04344
563.9643, 25.00623
564.4464, 25.74092
564.9285, 26.50687
565.4106, 26.67983
565.8928, 26.13166
566.3749, 25.87729
566.8570, 26.07143
567.3391, 26.40532
567.8212, 26.34996
568.3033, 25.96523
568.7855, 25.71057
569.2676, 25.84636
569.7497, 26.08811
570.2318, 25.90371
570.7139, 25.40890
571.1960, 25.09533
571.6782, 25.56932
572.1603, 26.13369
572.6424, 26.08344
573.1245, 25.30687
573.6066, 24.80733
574.0887, 25.32902
574.5709, 26.06297
575.0530, 26.37406
575.5351, 25.71557
576.0172, 25.30626
576.4993, 25.22588
576.9814, 25.38647
577.4636, 25.71057
577.9457, 26.37100
578.4278, 26.71178
578.9099, 26.45896
579.3920, 25.80479
579.8741, 25.48559
580.3563, 25.52155
580.8384, 25.64564
581.3205, 25.68137
581.8026, 25.68347
582.2847, 25.86075
582.7668, 26.22413
583.2490, 26.52085
583.7311, 26.50813
584.2132, 26.31422
584.6953, 26.07714
585.1774, 25.76420
585.6595, 25.57100
586.1416, 25.69181
586.6237, 25.97433
587.1058, 26.18932
587.5880, 26.15462
588.0701, 26.18841
588.5522, 26.43539
589.0343, 26.83069
589.5164, 27.06332
589.9985, 27.04129
590.4807, 27.01388
590.9628, 27.11994
591.4449, 27.36580
591.9270, 27.38643
592.4091, 27.14930
592.8912, 26.82565
593.3734, 26.52009
593.8555, 26.24749
594.3376, 26.11006
594.8197, 26.15000
595.3018, 26.20935
595.7839, 26.09766
596.2661, 25.88226
596.7482, 25.69113
597.2303, 25.54089
597.7124, 25.46303
598.1945, 25.50784
598.6766, 25.64317
599.1588, 25.77567
599.6409, 25.95058
600.1230, 26.04885
600.6051, 25.95969
601.0872, 25.66271
601.5693, 25.57391
602.0515, 25.82975
602.5336, 26.10862
603.0157, 26.21382
603.4978, 26.12106
603.9799, 25.97455
604.4620, 25.74435
604.9442, 25.55142
605.4263, 25.64517
605.9084, 25.95463
606.3905, 26.03500
606.8726, 25.69857
607.3547, 25.25617
607.8369, 25.01490
608.3190, 24.96944
608.8011, 25.10004
609.2832, 25.69192
609.7653, 26.20478
610.2474, 26.22883
610.7296, 25.81896
611.2117, 25.45804
611.6938, 25.19114
612.1759, 25.07579
612.6580, 25.20060
613.1401, 25.67220
613.6223, 25.88221
614.1044, 25.66987
614.5865, 25.41020
615.0686, 25.46339
615.5507, 25.87432
616.0328, 26.20451
616.5150, 26.41253
616.9971, 26.52199
617.4792, 26.57149
617.9613, 26.55540
618.4434, 26.42514
618.9255, 26.03638
619.4077, 25.68436
619.8898, 25.80803
620.3719, 26.26966
620.8540, 26.63570
621.3361, 26.72524
621.8182, 26.62503
622.3004, 26.23056
622.7825, 25.55352
623.2646, 25.22464
623.7467, 25.74032
624.2288, 26.32730
624.7109, 26.59133
625.1931, 26.42009
625.6752, 26.32308
626.1573, 26.36294
626.6394, 26.37136
627.1215, 26.06796
627.6036, 25.44326
628.0858, 25.17881
628.5679, 25.43284
629.0500, 25.94533
629.5321, 26.42708
630.0142, 26.85446
630.4963, 27.13489
630.9785, 27.19066
631.4606, 27.13075
631.9427, 26.99776
632.4248, 26.81879
632.9069, 26.67944
633.3890, 26.53611
633.8712, 26.51416
634.3533, 26.77875
634.8354, 27.37112
635.3175, 27.61386
635.7996, 27.21862
636.2817, 26.77818
636.7639, 26.64919
637.2460, 26.94347
637.7281, 26.92975
638.2102, 26.50651
638.6923, 26.06123
639.1744, 26.12301
639.6566, 26.58741
640.1387, 26.79163
640.6208, 26.53584
641.1029, 26.21942
641.5850, 26.38166
642.0671, 26.81731
642.5493, 27.11837
643.0314, 27.09067
643.5135, 26.90895
643.9956, 26.50607
644.4777, 26.00016
644.9598, 25.75316
645.4420, 26.01799
645.9241, 26.38383
646.4062, 26.78388
646.8883, 27.20859
647.3704, 27.43065
647.8525, 27.35733
648.3347, 27.28200
648.8168, 27.45615
649.2989, 27.86520
649.7810, 27.83250
650.2631, 27.29452
650.7452, 26.82805
651.2274, 27.20413
651.7095, 28.02758
652.1916, 28.44054
652.6737, 28.18497
653.1558, 27.87215
653.6379, 28.01700
654.1201, 28.34945
654.6022, 28.51427
655.0843, 28.06724
655.5664, 27.83439
656.0485, 28.21847
656.5306, 28.92300
657.0128, 29.27104
657.4949, 29.10117
657.9770, 28.86845
658.4591, 28.63437
658.9412, 28.43000
659.4233, 28.43404
659.9055, 28.66708
660.3876, 28.88427
660.8697, 28.89844
661.3518, 28.80918
661.8339, 28.91245
662.3160, 29.19324
662.7982, 29.39941
663.2803, 29.19851
663.7624, 28.92620
664.2445, 28.96828
664.7266, 29.44500
665.2087, 29.78307
665.6909, 29.57078
666.1730, 29.27004
666.6551, 29.28274
667.1372, 29.92463
667.6193, 30.33477
668.1014, 30.41144
668.5836, 30.35272
669.0657, 30.47334
669.5478, 30.80422
670.0299, 30.90914
670.5120, 30.62933
670.9941, 30.20494
671.4763, 30.02910
671.9584, 30.07311
672.4405, 30.21914
672.9226, 30.45076
673.4047, 30.73214
673.8868, 31.13745
674.3690, 31.58729
674.8511, 31.81355
675.3332, 31.42620
675.8153, 31.05854
676.2974, 31.04749
676.7795, 31.42011
677.2617, 31.56470
677.7438, 31.36038
678.2259, 31.11175
678.7080, 30.93029
679.1901, 30.80680
679.6722, 30.99402
680.1544, 31.55092
680.6365, 32.08488
681.1186, 32.14458
681.6007, 31.90778
682.0828, 31.83381
682.5649, 32.00079
683.0471, 32.25971
683.5292, 32.58876
684.0113, 32.89515
684.4934, 33.05964
684.9755, 33.02229
685.4576, 32.88816
685.9398, 32.58660
686.4219, 32.23129
686.9040, 32.00227
687.3861, 31.92443
687.8682, 31.92232
688.3503, 31.97637
688.8325, 32.10467
689.3146, 32.45333
689.7967, 33.02861
690.2788, 33.32802
690.7609, 32.92260
691.2430, 32.28272
691.7252, 32.33791
692.2073, 32.95650
692.6894, 33.54192
693.1715, 33.77060
693.6536, 33.82560
694.1357, 33.79598
694.6179, 33.69207
695.1000, 33.59645
695.5821, 33.38830
696.0642, 33.32647
696.5463, 33.59882
697.0284, 34.30466
697.5106, 34.64209
697.9927, 34.48725
698.4748, 34.25464
698.9569, 34.28837
699.4390, 34.55983
699.9211, 34.83031
700.4033, 35.07928
700.8854, 35.36000
701.3675, 35.80104
701.8496, 36.28783
702.3317, 36.63625
702.8138, 36.77683
703.2960, 36.83599
703.7781, 36.72802
704.2602, 36.63054
704.7423, 36.76099
705.2244, 37.24042
705.7065, 37.86249
706.1887, 38.75723
706.6708, 39.69976
707.1529, 40.24825
707.6350, 40.31876
708.1171, 40.51173
708.5992, 41.04534
709.0814, 41.71351
709.5635, 41.96735
710.0456, 41.92922
710.5277, 42.17171
711.0098, 43.28752
711.4919, 44.56188
711.9741, 45.37514
712.4562, 45.80202
712.9383, 46.18482
713.4204, 46.22939
713.9025, 46.65337
714.3846, 48.02911
714.8668, 50.29253
715.3489, 51.90341
715.8310, 52.52838
716.3131, 53.19497
716.7952, 54.52531
717.2773, 56.44633
717.7595, 57.99555
718.2416, 59.13942
718.7237, 60.37772
719.2058, 62.18758
719.6879, 64.32986
720.1700, 66.36780
720.6522, 68.26505
721.1343, 70.25783
721.6164, 72.35078
722.0985, 74.69786
722.5806, 77.50154
723.0627, 80.93105
723.5449, 84.46984
724.0270, 88.29118
724.5091, 92.05747
724.9912, 95.43004
725.4733, 98.38533
725.9554, 101.2330
726.4376, 103.8951
726.9197, 106.8009
727.4018, 110.7635
727.8839, 115.4397
728.3660, 119.6438
728.8481, 122.8425
729.3303, 126.1595
729.8124, 130.7593
730.2945, 136.0295
730.7766, 140.9893
731.2587, 144.9725
731.7408, 149.1276
732.2230, 154.2533
732.7051, 159.5883
733.1872, 163.5680
733.6693, 165.6051
734.1514, 167.8802
734.6335, 170.9532
735.1157, 174.5272
735.5978, 178.1618
736.0799, 181.7613
736.5620, 184.5103
737.0441, 185.8931
737.5262, 186.3396
738.0084, 186.3660
738.4905, 185.8983
738.9726, 184.6833
739.4547, 182.4025
739.9368, 179.5502
740.4189, 176.5116
740.9011, 173.1806
741.3832, 168.6069
741.8653, 162.2675
742.3474, 155.5491
742.8295, 149.0561
743.3116, 142.7168
743.7938, 136.0111
744.2759, 128.9171
744.7580, 122.1591
745.2401, 116.6765
745.7222, 111.7406
746.2043, 105.8885
746.6865, 99.12102
747.1686, 93.05424
747.6507, 89.03446
748.1328, 85.60449
748.6149, 81.71493
749.0970, 77.14384
749.5792, 73.09077
750.0613, 69.60185
750.5434, 66.61404
751.0255, 64.13301
751.5076, 62.22233
751.9897, 60.33066
752.4719, 58.44746
752.9540, 56.53818
753.4361, 54.33421
753.9182, 52.09238
754.4003, 50.31074
754.8824, 49.09953
755.3646, 48.12058
755.8467, 47.49119
756.3288, 46.80953
756.8109, 45.67997
757.2930, 43.65973
757.7751, 41.95103
758.2573, 40.71066
758.7394, 39.69756
759.2215, 38.68776
759.7036, 37.66094
760.1857, 36.67036
760.6678, 35.67728
761.1500, 34.91060
761.6321, 34.91795
762.1142, 35.38225
762.5963, 35.50918
763.0784, 35.04605
763.5605, 34.37873
764.0427, 33.67450
764.5248, 32.96580
765.0069, 32.29333
765.4890, 31.54845
765.9711, 31.01250
766.4532, 30.80965
766.9354, 30.74094
767.4175, 30.45156
767.8996, 29.85411
768.3817, 29.67155
768.8638, 30.17924
769.3459, 30.79869
769.8281, 30.44314
770.3102, 29.42084
770.7923, 28.65109
771.2744, 28.58134
771.7565, 28.65134
772.2386, 28.44057
772.7208, 28.11038
773.2029, 27.94170
773.6850, 28.27812
774.1671, 28.41702
774.6492, 28.13653
775.1313, 27.66436
775.6135, 27.52282
776.0956, 27.76948
776.5777, 27.92964
777.0598, 27.84221
777.5419, 27.65437
778.0240, 27.68198
778.5062, 27.84001
778.9883, 27.86087
779.4704, 27.40931
779.9525, 27.00220
780.4346, 26.99009
780.9167, 27.26372
781.3989, 27.55009
781.8810, 28.14342
782.3631, 28.28593
782.8452, 27.63952
783.3273, 26.52277
783.8094, 25.84673
784.2916, 25.63086
784.7737, 25.67453
785.2558, 26.01136
785.7379, 26.45090
786.2200, 26.60336
786.7021, 26.54568
787.1843, 26.52953
787.6664, 26.78281
788.1485, 27.01017
788.6306, 27.07450
789.1127, 26.98171
789.5948, 26.74724
790.0770, 26.17372
790.5591, 25.75863
791.0412, 25.64963
791.5233, 25.77235
792.0054, 25.89297
792.4875, 26.01167
792.9697, 26.05248
793.4518, 25.87780
793.9339, 25.69535
794.4160, 25.96592
794.8981, 26.53633
795.3802, 26.89711
795.8624, 26.63342
796.3445, 26.27550
796.8266, 26.03154
797.3087, 25.90189
797.7908, 25.82955
798.2729, 25.82439
798.7551, 25.86412
799.2372, 25.98452
799.7193, 26.12815
800.2014, 26.00292
800.6835, 25.63754
801.1656, 25.43155
801.6478, 25.75391
802.1299, 26.21808
802.6120, 26.35891
803.0941, 26.25665
803.5762, 26.16959
804.0583, 26.28441
804.5405, 26.34760
805.0226, 26.17145
805.5047, 25.84954
805.9868, 25.77283
806.4689, 26.01934
806.9510, 26.27748
807.4332, 26.46914
807.9153, 26.58011
808.3974, 26.53186
808.8795, 26.34650
809.3616, 26.14913
809.8438, 25.90115
810.3259, 25.75914
810.8080, 25.96003
811.2901, 26.38818
811.7722, 26.66941
812.2543, 26.64368
812.7365, 26.51976
813.2186, 26.29615
813.7007, 26.02206
814.1828, 25.86564
814.6649, 25.82308
815.1470, 25.93822
815.6292, 26.33382
816.1113, 26.77921
816.5934, 26.79866
817.0755, 26.48572
817.5576, 26.15335
818.0397, 25.92715
818.5219, 25.74824
819.0040, 25.54515
819.4861, 25.36198
819.9682, 25.35724
820.4503, 25.64900
820.9324, 25.92296
821.4146, 26.13245
821.8967, 26.26546
822.3788, 26.24376
822.8609, 26.07940
823.3430, 25.95056
823.8251, 25.91381
824.3073, 25.95746
824.7894, 26.19463
825.2715, 26.48941
825.7536, 26.55730
826.2357, 25.85184
826.7178, 25.40673
827.2000, 25.80132
827.6821, 26.57981
828.1642, 26.88963
828.6463, 26.61509
829.1284, 26.27046
829.6105, 25.91372
830.0927, 25.61473
830.5748, 25.48722
831.0569, 25.52094
831.5390, 25.69554
832.0211, 26.12326
832.5032, 26.49268
832.9854, 26.50241
833.4675, 26.33330
833.9496, 26.25846
834.4317, 26.47594
834.9138, 26.58865
835.3959, 26.53643
835.8781, 26.40190
836.3602, 26.31479
836.8423, 26.27568
837.3244, 26.16934
837.8065, 25.94163
838.2886, 25.75038
838.7708, 25.86096
839.2529, 26.11193
839.7350, 26.23160
840.2171, 26.07926
840.6992, 25.92379
841.1813, 25.82414
841.6635, 25.78189
842.1456, 25.81263
842.6277, 25.97906
843.1098, 25.99796
843.5919, 25.80412
844.0740, 25.59672
844.5562, 25.62855
845.0383, 25.84116
845.5204, 26.07949
846.0025, 26.32759
846.4846, 26.54144
846.9667, 26.80596
847.4489, 26.95255
847.9310, 26.75702
848.4131, 25.90929
848.8952, 25.52378
849.3773, 25.86674
849.8594, 26.32891
850.3416, 26.42590
850.8237, 26.16864
851.3058, 25.99064
851.7879, 25.90385
852.2700, 25.92265
852.7521, 26.16283
853.2343, 26.45462
853.7164, 26.59341
854.1985, 26.55344
854.6806, 26.46614
855.1627, 26.30058
855.6448, 26.16858
856.1270, 26.13535
856.6091, 26.20301
857.0912, 26.25742
857.5733, 26.30917
858.0554, 26.28472
858.5375, 26.02846
859.0197, 25.69549
859.5018, 25.68555
859.9839, 25.94893
860.4660, 26.16837
860.9481, 26.15735
861.4302, 26.06628
861.9124, 25.89505
862.3945, 25.68172
862.8766, 25.74742
863.3587, 26.29040
863.8408, 26.64032
864.3229, 26.50894
864.8051, 26.05958
865.2872, 25.71389
865.7693, 25.47785
866.2514, 25.40538
866.7335, 25.62368
867.2156, 25.91624
867.6978, 26.16612
868.1799, 26.35794
868.6620, 26.45965
869.1441, 26.39052
869.6262, 26.30844
870.1083, 26.16343
870.5905, 26.07090
871.0726, 26.37300
871.5547, 27.05611
872.0368, 27.41791
872.5189, 27.21925
873.0010, 26.82357
873.4832, 26.55975
873.9653, 26.40841
874.4474, 26.33959
874.9295, 26.35733
875.4116, 26.43236
875.8937, 26.63602
876.3759, 26.84227
876.8580, 26.92597
877.3401, 26.86815
877.8222, 26.77256
878.3043, 26.62690
878.7864, 26.52788
879.2686, 26.64168
879.7507, 26.85432
880.2328, 26.96543
880.7149, 26.94476
881.1970, 26.83912
881.6791, 26.62153
882.1613, 26.36574
882.6434, 26.11245
883.1255, 25.85833
883.6076, 25.60643
884.0897, 25.29010
884.5718, 25.19176
885.0540, 25.78183
885.5361, 26.71761
886.0182, 26.72026
886.5003, 25.90462
886.9824, 25.23208
887.4645, 25.38424
887.9467, 25.77349
888.4288, 26.14554
888.9109, 26.45517
889.3930, 26.49559
889.8751, 26.05374
890.3572, 25.82531
890.8394, 26.17622
891.3215, 26.77824
891.8036, 26.50217
892.2857, 25.54068
892.7678, 24.93768
893.2499, 25.43894
893.7321, 26.12719
894.2142, 26.37804
894.6963, 26.32151
895.1784, 26.20150
895.6605, 25.98130
896.1426, 25.83323
896.6248, 25.83670
897.1069, 25.84059
897.5890, 25.53027
898.0711, 24.95395
898.5532, 24.60843
899.0353, 24.58614
899.5175, 24.78072
899.9996, 25.25377
900.4817, 25.80783
900.9638, 26.21545
901.4459, 26.44417
901.9280, 26.50732
902.4102, 26.34691
902.8923, 26.10999
903.3744, 25.84367
903.8565, 25.54102
904.3386, 25.50072
904.8207, 25.72767
905.3029, 26.08782
905.7850, 26.71407
906.2671, 27.25930
906.7492, 27.19703
907.2313, 26.56300
907.7134, 26.17042
908.1956, 26.43784
908.6777, 26.80673
909.1598, 27.18772
909.6419, 27.51934
910.1240, 27.40707
910.6061, 26.84352
911.0883, 26.35822
911.5704, 26.21757
912.0525, 26.23085
912.5346, 26.19009
913.0167, 26.10668
913.4988, 26.00532
913.9810, 25.92255
914.4631, 25.77940
914.9452, 25.41999
915.4273, 25.08526
915.9094, 25.16910
916.3915, 25.70416
916.8737, 26.25064
917.3558, 26.78169
917.8379, 27.15305
918.3200, 27.12589
918.8021, 26.86303
919.2842, 26.54985
919.7664, 26.16720
920.2485, 26.00653
920.7306, 26.40144
921.2127, 26.83824
921.6948, 26.99059
922.1769, 26.83533
922.6591, 26.77653
923.1412, 26.82402
923.6233, 26.86677
924.1054, 26.74507
924.5875, 26.61813
925.0696, 26.76208
925.5518, 27.13198
926.0339, 27.45221
926.5160, 27.67387
926.9981, 27.74689
927.4802, 27.59631
927.9623, 27.30804
928.4445, 27.16085
928.9266, 27.16996
929.4087, 27.08897
929.8908, 26.73927
930.3729, 26.48069
930.8550, 27.07689
931.3372, 28.05110
931.8193, 28.52225
932.3014, 27.90209
932.7835, 27.30104
933.2656, 26.83132
933.7477, 26.59678
934.2299, 26.83866
934.7120, 27.66335
935.1941, 27.80485
935.6762, 27.12671
936.1583, 26.41598
936.6404, 26.52028
937.1226, 26.97534
937.6047, 27.15602
938.0868, 27.00408
938.5689, 26.90728
939.0510, 26.96320
939.5331, 27.13602
940.0153, 27.45776
940.4974, 27.89182
940.9795, 28.20286
941.4616, 28.39250
941.9437, 28.48126
942.4258, 28.45415
942.9080, 28.35870
943.3901, 28.21996
943.8722, 28.06008
944.3543, 27.92631
944.8364, 27.81661
945.3185, 27.77007
945.8007, 27.88935
946.2828, 27.98222
946.7649, 27.66084
947.2470, 26.94639
947.7291, 26.73169
948.2112, 27.18229
948.6934, 27.78072
949.1755, 28.11292
949.6576, 28.28392
950.1397, 28.42919
950.6218, 28.58796
951.1039, 28.56454
951.5861, 28.15346
952.0682, 27.83006
952.5503, 27.89225
953.0324, 28.25791
953.5145, 28.34685
953.9966, 28.17522
954.4788, 27.95018
954.9609, 27.65230
955.4430, 27.47104
955.9251, 27.65786
956.4072, 28.07888
956.8893, 28.37497
957.3715, 28.42610
957.8536, 28.45452
958.3357, 28.45915
958.8178, 28.49375
959.2999, 28.69834
959.7820, 29.02067
960.2642, 29.20273
960.7463, 29.17743
961.2284, 29.12567
961.7105, 29.19055
962.1926, 29.28049
962.6747, 29.32419
963.1569, 29.32066
963.6390, 29.19761
964.1211, 28.85904
964.6032, 28.66252
965.0853, 28.98651
965.5674, 29.58079
966.0496, 29.64955
966.5317, 29.28839
967.0138, 28.95716
967.4959, 28.79141
967.9780, 28.83032
968.4601, 29.30134
968.9423, 29.95424
969.4244, 30.19167
969.9065, 29.90513
970.3886, 29.68307
970.8707, 29.64772
971.3528, 29.63740
971.8350, 29.27995
972.3171, 28.83631
972.7992, 28.87130
973.2813, 29.64753
973.7634, 30.15628
974.2455, 29.70789
974.7277, 29.15181
975.2098, 28.99945
975.6919, 29.25554
976.1740, 29.57833
976.6561, 29.97410
977.1382, 30.29611
977.6204, 30.39091
978.1025, 30.41016
978.5846, 30.54917
979.0667, 30.76664
979.5488, 30.93995
980.0309, 30.97701
980.5131, 31.03866
980.9952, 31.18243
981.4773, 31.32875
981.9594, 31.32332
982.4415, 31.18571
982.9236, 31.05592
983.4058, 30.94533
983.8879, 30.94341
984.3700, 31.33831
984.8521, 31.74014
985.3342, 31.68333
985.8163, 30.93404
986.2985, 30.75335
986.7806, 31.42385
987.2627, 32.03281
987.7448, 32.03906
988.2269, 31.65453
988.7090, 31.44432
989.1912, 31.41299
989.6733, 31.57901
990.1554, 32.29539
990.6375, 32.83850
991.1196, 32.77217
991.6017, 32.32964
992.0839, 31.84521
992.5660, 31.19869
993.0481, 31.12695
993.5302, 31.81930
994.0123, 32.67091
994.4944, 33.00503
994.9766, 33.04084
995.4587, 33.08317
995.9408, 33.17033
996.4229, 33.28304
996.9050, 33.52238
997.3871, 33.66132
997.8693, 33.55505
998.3514, 33.26380
998.8335, 33.16790
999.3156, 33.25799
999.7977, 33.36832
1000.280, 33.42736
1000.762, 33.47300
1001.244, 33.52506
1001.726, 33.59288
1002.208, 33.69774
1002.690, 34.03730
1003.173, 34.00771
1003.655, 33.35929
1004.137, 32.80839
1004.619, 33.33566
1005.101, 34.57637
1005.583, 35.21551
1006.065, 35.19451
1006.547, 34.99243
1007.029, 34.59364
1007.512, 34.37851
1007.994, 34.75924
1008.476, 35.54633
1008.958, 35.85507
1009.440, 35.59074
1009.922, 35.44404
1010.404, 35.66352
1010.886, 36.00323
1011.369, 36.10517
1011.851, 36.09291
1012.333, 36.18531
1012.815, 36.50488
1013.297, 36.77686
1013.779, 36.98177
1014.261, 37.09772
1014.743, 37.05494
1015.225, 36.87005
1015.708, 36.91281
1016.190, 37.16865
1016.672, 37.39432
1017.154, 37.34171
1017.636, 37.28039
1018.118, 37.48409
1018.600, 37.83865
1019.082, 37.92857
1019.565, 37.51402
1020.047, 37.46677
1020.529, 38.03728
1021.011, 38.74075
1021.493, 38.84068
1021.975, 38.59282
1022.457, 38.54484
1022.939, 38.80749
1023.421, 39.09426
1023.904, 39.18119
1024.386, 39.36762
1024.868, 39.84013
1025.350, 40.56147
1025.832, 41.27704
1026.314, 41.98338
1026.796, 42.30759
1027.278, 41.77792
1027.760, 41.18363
1028.243, 41.53304
1028.725, 42.29873
1029.207, 42.58735
1029.689, 41.62484
1030.171, 41.22849
1030.653, 41.55399
1031.135, 42.17226
1031.617, 42.79190
1032.100, 43.34693
1032.582, 43.54563
1033.064, 43.42476
1033.546, 43.54767
1034.028, 44.53362
1034.510, 45.50568
1034.992, 45.95879
1035.474, 46.09700
1035.957, 46.51575
1036.439, 47.24389
1036.921, 47.83154
1037.403, 48.16722
1037.885, 48.36371
1038.367, 48.25783
1038.849, 48.23257
1039.331, 48.84452
1039.813, 50.40984
1040.296, 51.72956
1040.778, 52.79194
1041.260, 53.47251
1041.742, 53.50619
1042.224, 53.16419
1042.706, 53.38958
1043.188, 54.07191
1043.670, 54.79903
1044.152, 55.04884
1044.635, 55.67045
1045.117, 57.55789
1045.599, 59.70818
1046.081, 60.73288
1046.563, 60.44932
1047.045, 60.53731
1047.527, 61.09698
1048.009, 62.10195
1048.492, 63.98508
1048.974, 65.97511
1049.456, 67.21815
1049.938, 67.72196
1050.420, 68.13000
1050.902, 68.36238
1051.384, 68.86253
1051.866, 69.77604
1052.349, 70.95883
1052.831, 72.06457
1053.313, 73.21619
1053.795, 74.86102
1054.277, 77.26891
1054.759, 79.42887
1055.241, 80.74422
1055.723, 81.73687
1056.205, 82.64845
1056.688, 83.49188
1057.170, 84.88366
1057.652, 86.83067
1058.134, 88.85619
1058.616, 90.74416
1059.098, 92.58826
1059.580, 94.39572
1060.062, 96.24149
1060.544, 98.26508
1061.027, 100.4244
1061.509, 102.9099
1061.991, 105.7388
1062.473, 108.8339
1062.955, 112.1534
1063.437, 115.6630
1063.919, 119.3701
1064.401, 123.2158
1064.884, 127.0052
1065.366, 130.2646
1065.848, 133.8659
1066.330, 137.8846
1066.812, 142.4545
1067.294, 147.9788
1067.776, 154.3537
1068.258, 161.0401
1068.740, 167.9330
1069.223, 174.8416
1069.705, 181.0694
1070.187, 187.7074
1070.669, 195.9646
1071.151, 205.9865
1071.633, 215.8638
1072.115, 225.4794
1072.597, 235.9311
1073.079, 247.6674
1073.562, 260.5334
1074.044, 274.5901
1074.526, 289.6235
1075.008, 305.5413
1075.490, 322.0503
1075.972, 339.7034
1076.454, 357.9276
1076.936, 378.0146
1077.419, 401.1540
1077.901, 427.1735
1078.383, 455.5263
1078.865, 486.4356
1079.347, 519.8690
1079.829, 554.6276
1080.311, 593.2760
1080.793, 637.4108
1081.275, 686.1154
1081.758, 738.3743
1082.240, 794.6511
1082.722, 853.1215
1083.204, 913.6262
1083.686, 977.6665
1084.168, 1047.832
1084.650, 1123.016
1085.132, 1202.941
1085.615, 1287.618
1086.097, 1374.892
1086.579, 1464.303
1087.061, 1557.331
1087.543, 1652.741
1088.025, 1752.953
1088.507, 1862.178
1088.989, 1976.646
1089.471, 2089.544
1089.953, 2198.924
1090.436, 2308.691
1090.918, 2424.344
1091.400, 2535.060
1091.882, 2639.075
1092.364, 2733.845
1092.846, 2810.028
1093.328, 2866.450
1093.810, 2900.941
1094.293, 2914.703
1094.775, 2902.831
1095.257, 2857.719
1095.739, 2787.851
1096.221, 2702.389
1096.703, 2600.263
1097.185, 2486.786
1097.667, 2361.445
1098.150, 2230.647
1098.632, 2093.660
1099.114, 1960.011
1099.596, 1835.754
1100.078, 1720.987
1100.560, 1614.512
1101.042, 1518.092
1101.524, 1425.547
1102.006, 1334.951
1102.489, 1250.703
1102.971, 1177.066
1103.453, 1110.364
1103.935, 1045.900
1104.417, 982.7328
1104.899, 924.1608
1105.381, 871.5676
1105.863, 821.7295
1106.345, 774.1877
1106.828, 728.4649
1107.310, 684.8215
1107.792, 642.8031
1108.274, 602.1866
1108.756, 562.2514
1109.238, 524.7181
1109.720, 491.2057
1110.202, 460.1558
1110.685, 431.1336
1111.167, 403.9145
1111.649, 378.8860
1112.131, 356.0251
1112.613, 333.9476
1113.095, 312.3190
1113.577, 291.7659
1114.059, 273.0199
1114.542, 255.8335
1115.024, 239.9695
1115.506, 225.4027
1115.988, 211.0950
1116.470, 196.9289
1116.952, 184.2004
1117.434, 174.3524
1117.916, 165.9331
1118.398, 157.4691
1118.880, 149.1712
1119.363, 141.6484
1119.845, 134.9702
1120.327, 128.8774
1120.809, 123.4775
1121.291, 118.4412
1121.773, 113.3742
1122.255, 108.5019
1122.737, 104.3147
1123.220, 100.7564
1123.702, 97.28398
1124.184, 93.82564
1124.666, 90.30241
1125.148, 86.49902
1125.630, 82.93105
1126.112, 80.75323
1126.594, 79.47737
1127.077, 77.44063
1127.559, 74.36427
1128.041, 71.69717
1128.523, 70.49202
1129.005, 69.46045
1129.487, 68.03157
1129.969, 66.34718
1130.451, 64.70889
1130.933, 63.14518
1131.416, 61.98761
1131.898, 61.41192
1132.380, 60.83315
1132.862, 59.96003
1133.344, 58.81153
1133.826, 57.21193
1134.308, 55.23738
1134.790, 54.25729
1135.272, 54.29333
1135.755, 54.08119
1136.237, 52.88881
1136.719, 51.60536
1137.201, 51.14080
1137.683, 51.05214
1138.165, 50.79755
1138.647, 50.35076
1139.129, 49.60037
1139.612, 48.47095
1140.094, 47.55737
1140.576, 47.37515
1141.058, 47.51147
1141.540, 47.62047
1142.022, 47.61800
1142.504, 47.31367
1142.986, 46.47343
1143.469, 45.69525
1143.951, 44.96174
1144.433, 44.36781
1144.915, 44.13551
1145.397, 44.02044
1145.879, 43.50323
1146.361, 42.67675
1146.843, 41.97437
1147.325, 41.61312
1147.807, 41.26012
1148.290, 40.83805
1148.772, 40.47864
1149.254, 40.40924
1149.736, 40.51391
1150.218, 40.52676
1150.700, 40.42013
1151.182, 40.14988
1151.664, 39.36641
1152.147, 38.85839
1152.629, 38.93645
1153.111, 39.29118
1153.593, 39.44432
1154.075, 39.38008
1154.557, 38.88651
1155.039, 37.89132
1155.521, 37.26321
1156.004, 37.93639
1156.486, 38.60133
1156.968, 38.65897
1157.450, 38.24709
1157.932, 37.61700
1158.414, 36.84895
1158.896, 36.60171
1159.378, 37.15118
1159.860, 37.66743
1160.343, 37.56804
1160.825, 37.25260
1161.307, 36.94671
1161.789, 36.67736
1162.271, 36.66077
1162.753, 36.88703
1163.235, 37.15372
1163.717, 37.46296
1164.199, 37.60342
1164.682, 37.22083
1165.164, 36.70773
1165.646, 36.49363
1166.128, 36.60973
1166.610, 36.45840
1167.092, 36.02820
1167.574, 35.66682
1168.056, 35.52780
1168.539, 35.55978
1169.021, 35.90985
1169.503, 36.31033
1169.985, 36.33068
1170.467, 35.81742
1170.949, 35.64648
1171.431, 35.86699
1171.913, 36.00231
1172.396, 35.58620
1172.878, 35.07875
1173.360, 34.96357
1173.842, 35.10790
1174.324, 35.25500
1174.806, 35.33432
1175.288, 35.59063
1175.770, 36.10157
1176.252, 36.39616
1176.734, 35.84602
1177.217, 35.05947
1177.699, 34.80532
1178.181, 34.94474
1178.663, 35.04514
1179.145, 34.98802
1179.627, 35.04543
1180.109, 35.27459
1180.591, 35.46594
1181.074, 35.45173
1181.556, 35.25350
1182.038, 34.63544
1182.520, 33.79470
1183.002, 33.71832
1183.484, 35.18233
1183.966, 35.99763
1184.448, 35.78379
1184.931, 35.22387
1185.413, 35.03125
1185.895, 35.04127
1186.377, 34.98747
1186.859, 34.86529
1187.341, 34.82268
1187.823, 34.95802
1188.305, 35.03034
1188.787, 34.99364
1189.270, 34.87919
1189.752, 34.66628
1190.234, 34.43380
1190.716, 34.33545
1191.198, 34.38206
1191.680, 34.39714
1192.162, 34.28544
1192.644, 34.25936
1193.126, 34.40177
1193.609, 34.58946
1194.091, 34.54617
1194.573, 34.43129
1195.055, 34.66083
1195.537, 35.33010
1196.019, 35.50010
1196.501, 34.49636
1196.983, 33.86973
1197.466, 34.23439
1197.948, 34.96134
1198.430, 34.81584
1198.912, 34.19038
1199.394, 33.90751
1199.876, 34.18356
1200.358, 34.30679
1200.840, 33.95868
1201.323, 33.77196
1201.805, 34.05921
1202.287, 34.52534
1202.769, 34.54886
1203.251, 34.28347
1203.733, 34.01057
1204.215, 33.73182
1204.697, 33.75634
1205.179, 34.31733
1205.661, 34.81347
1206.144, 34.96138
1206.626, 34.89686
1207.108, 34.89954
1207.590, 34.93163
1208.072, 34.89328
1208.554, 34.70246
1209.036, 34.63506
1209.518, 34.73238
1210.001, 34.95335
1210.483, 35.39194
1210.965, 35.83321
1211.447, 35.61178
1211.929, 35.00451
1212.411, 34.60896
1212.893, 34.62835
1213.375, 34.83059
1213.858, 35.36871
1214.340, 35.66671
1214.822, 35.22269
1215.304, 34.45216
1215.786, 34.35972
1216.268, 34.73487
1216.750, 35.12962
1217.232, 35.49379
1217.714, 35.67667
1218.197, 35.65126
1218.679, 35.50111
1219.161, 35.17009
1219.643, 34.82919
1220.125, 34.93158
1220.607, 35.30120
1221.089, 35.52824
1221.571, 35.38320
1222.053, 35.29336
1222.536, 35.31561
1223.018, 35.30294
1223.500, 35.10002
1223.982, 34.83178
1224.464, 34.72277
1224.946, 34.75079
1225.428, 34.86628
1225.910, 35.16060
1226.393, 35.38725
1226.875, 35.57938
1227.357, 35.59122
1227.839, 35.06724
1228.321, 34.45126
1228.803, 34.66173
1229.285, 35.33677
1229.767, 35.62826
1230.250, 34.93769
1230.732, 34.70064
1231.214, 35.03844
1231.696, 35.41604
1232.178, 35.34851
1232.660, 35.12877
1233.142, 35.16904
1233.624, 35.37441
1234.106, 35.52847
1234.589, 35.68975
1235.071, 35.47675
1235.553, 34.77293
1236.035, 34.28101
1236.517, 34.88675
1236.999, 35.72000
1237.481, 35.69875
1237.963, 35.14245
1238.445, 34.78577
1238.928, 34.66719
1239.410, 34.84589
1239.892, 35.36342
1240.374, 35.83673
1240.856, 35.92213
1241.338, 35.87913
1241.820, 35.95113
1242.302, 36.06743
1242.785, 36.04242
1243.267, 35.79207
1243.749, 35.88119
1244.231, 36.34786
1244.713, 36.75372
1245.195, 36.77661
1245.677, 36.62342
1246.159, 36.42469
1246.641, 36.15569
1247.124, 35.72218
1247.606, 35.07886
1248.088, 34.82253
1248.570, 34.97947
1249.052, 35.35974
1249.534, 36.22463
1250.016, 36.85619
1250.498, 36.53140
1250.980, 35.88330
1251.463, 35.79865
1251.945, 36.26611
1252.427, 36.40731
1252.909, 36.21404
1253.391, 36.00582
1253.873, 36.00478
1254.355, 35.99802
1254.837, 35.79169
1255.320, 35.62207
1255.802, 35.83632
1256.284, 36.34993
1256.766, 36.64375
1257.248, 36.70744
1257.730, 36.64216
1258.212, 36.29647
1258.694, 36.11950
1259.177, 36.32460
1259.659, 36.58822
1260.141, 36.47823
1260.623, 36.16053
1261.105, 36.30109
1261.587, 36.80167
1262.069, 37.09998
1262.551, 36.66591
1263.033, 36.47886
1263.516, 36.77546
1263.998, 37.09394
1264.480, 36.95378
1264.962, 36.52089
1265.444, 35.95849
1265.926, 35.39795
1266.408, 35.26459
1266.890, 35.99849
1267.372, 36.56709
1267.855, 36.89333
1268.337, 37.12966
1268.819, 37.42426
1269.301, 37.70498
1269.783, 37.89679
1270.265, 37.98684
1270.747, 37.92530
1271.229, 37.65272
1271.712, 37.43871
1272.194, 37.29594
1272.676, 37.19874
1273.158, 37.07745
1273.640, 37.03586
1274.122, 37.24372
1274.604, 37.57637
1275.086, 37.79424
1275.568, 37.88796
1276.051, 37.85329
1276.533, 37.68916
1277.015, 37.64951
1277.497, 38.08817
1277.979, 38.49561
1278.461, 38.58271
1278.943, 38.43586
1279.425, 38.09186
1279.907, 37.55719
1280.390, 37.32826
1280.872, 37.40841
1281.354, 37.75337
1281.836, 38.82170
1282.318, 39.51303
1282.800, 39.29085
1283.282, 38.69790
1283.764, 37.95129
1284.247, 37.20250
1284.729, 37.46482
1285.211, 38.47675
1285.693, 39.24644
1286.175, 39.39344
1286.657, 39.15897
1287.139, 38.38731
1287.621, 37.69946
1288.104, 37.70482
1288.586, 38.05368
1289.068, 37.96339
1289.550, 37.61829
1290.032, 37.44414
1290.514, 37.60251
1290.996, 37.92093
1291.478, 38.49284
1291.960, 38.83259
1292.443, 38.41842
1292.925, 37.83585
1293.407, 37.93494
1293.889, 38.30915
1294.371, 38.20596
1294.853, 37.42336
1295.335, 37.22114
1295.817, 37.61217
1296.299, 38.01424
1296.782, 38.07488
1297.264, 38.12644
1297.746, 38.52588
1298.228, 38.95878
1298.710, 39.10375
1299.192, 38.97980
1299.674, 38.88880
1300.156, 38.82959
1300.639, 38.77868
1301.121, 38.68750
1301.603, 38.69613
1302.085, 39.10612
1302.567, 39.39153
1303.049, 39.30980
1303.531, 38.85414
##END=



