##NAMES=Magnesiocopiapite
##RRUFFID=R060155
##IDEAL CHEMISTRY=MgFe^3+^_4_(S^6+^O_4_)_6_(OH)_2_&#183;20H_2_O
##LOCALITY=Denver mine, Santa Cruz County, Arizona, USA
##OWNER=RRUFF
##SOURCE=University of Arizona Mineral Museum
##DESCRIPTION=Yellow fine-grained efflorescence
##STATUS=The identification of this mineral has been confirmed by X-ray diffraction and chemical analysis
##URL=rruff.info/R060155
##MEASURED CHEMISTRY=(Mg_0.95_Mn_0.05_)_Σ=1_(Fe^3+^_3.56_Al_0.44_)_Σ=4_(S_1.00_O_4_)_6_(OH)_2_·17H_2_O ; H not measured but estimated by difference
89.78156, 0.0000000E+00
90.26367, 8.055326
90.74579, 8.065995
91.22791, 8.071939
91.71002, 8.071794
92.19214, 8.052233
92.67426, 8.022758
93.15638, 7.968041
93.63850, 7.842241
94.12061, 7.539566
94.60273, 7.178058
95.08485, 7.056047
95.56696, 7.193550
96.04908, 7.442400
96.53120, 7.694792
97.01331, 7.940689
97.49543, 8.063607
97.97755, 7.941958
98.45966, 7.594802
98.94178, 7.369588
99.42390, 7.292391
99.90602, 7.303322
100.3881, 7.293601
100.8703, 7.260730
101.3524, 7.215172
101.8345, 7.159354
102.3166, 7.091533
102.7987, 7.017774
103.2808, 6.919306
103.7630, 6.815754
104.2451, 6.808932
104.7272, 6.962432
105.2093, 7.128559
105.6914, 7.207863
106.1735, 7.140033
106.6557, 7.088301
107.1378, 7.086486
107.6199, 7.137353
108.1020, 7.139853
108.5841, 7.032700
109.0662, 6.909350
109.5484, 6.852235
110.0305, 6.822794
110.5126, 6.896769
110.9947, 7.115613
111.4768, 7.518109
111.9590, 7.894174
112.4411, 8.321308
112.9232, 8.691304
113.4053, 8.852647
113.8874, 8.424117
114.3695, 8.072440
114.8517, 8.065850
115.3338, 8.521946
115.8159, 9.102679
116.2980, 9.784053
116.7801, 10.52958
117.2622, 11.25337
117.7444, 11.85947
118.2265, 12.47770
118.7086, 13.19772
119.1907, 14.09512
119.6728, 15.02491
120.1549, 15.82003
120.6371, 16.54682
121.1192, 17.47842
121.6013, 18.83368
122.0834, 20.44836
122.5655, 22.13719
123.0476, 23.84924
123.5298, 25.60879
124.0119, 27.45317
124.4940, 29.37843
124.9761, 31.33681
125.4582, 33.23448
125.9404, 35.12518
126.4225, 37.09969
126.9046, 39.37334
127.3867, 41.69748
127.8688, 43.63539
128.3509, 45.16430
128.8331, 46.52881
129.3152, 47.86106
129.7973, 49.21051
130.2794, 50.78512
130.7615, 52.68062
131.2436, 54.87798
131.7258, 57.34174
132.2079, 60.11861
132.6900, 63.02113
133.1721, 65.72667
133.6542, 68.21992
134.1364, 70.79893
134.6185, 73.69237
135.1006, 76.90018
135.5827, 80.04097
136.0648, 83.08363
136.5469, 86.08050
137.0291, 89.26708
137.5112, 92.72923
137.9933, 95.93664
138.4754, 98.51464
138.9575, 100.3454
139.4396, 102.1286
139.9218, 103.8888
140.4039, 105.6514
140.8860, 107.5571
141.3681, 109.7074
141.8502, 111.7983
142.3323, 113.4696
142.8145, 114.4822
143.2966, 115.7557
143.7787, 117.4746
144.2608, 119.6461
144.7429, 121.7395
145.2250, 123.6475
145.7072, 125.5993
146.1893, 127.8524
146.6714, 130.7324
147.1535, 133.4207
147.6356, 135.6967
148.1178, 137.4835
148.5999, 139.3228
149.0820, 141.0317
149.5641, 142.8648
150.0462, 145.1103
150.5283, 148.2664
151.0105, 151.3095
151.4926, 152.6116
151.9747, 153.2404
152.4568, 153.8549
152.9389, 154.4038
153.4210, 154.9624
153.9032, 155.6482
154.3853, 156.8235
154.8674, 157.8101
155.3495, 158.3408
155.8316, 158.1746
156.3137, 158.1087
156.7959, 158.3721
157.2780, 158.8061
157.7601, 159.1129
158.2422, 159.2374
158.7243, 159.2146
159.2065, 159.0362
159.6886, 158.5557
160.1707, 158.1717
160.6528, 158.1105
161.1349, 158.2428
161.6170, 158.2290
162.0992, 157.5801
162.5813, 156.9632
163.0634, 156.8647
163.5455, 155.9139
164.0276, 154.8213
164.5097, 153.5944
164.9919, 151.8309
165.4740, 150.7602
165.9561, 148.7693
166.4382, 147.8266
166.9203, 146.9791
167.4024, 146.0921
167.8846, 145.1686
168.3667, 144.1009
168.8488, 142.9329
169.3309, 141.9542
169.8130, 141.5529
170.2952, 141.3769
170.7773, 140.9890
171.2594, 139.9124
171.7415, 138.8117
172.2236, 138.2783
172.7057, 138.2828
173.1879, 138.4333
173.6700, 138.5005
174.1521, 138.5085
174.6342, 138.5007
175.1163, 138.4959
175.5984, 138.4790
176.0806, 138.4510
176.5627, 138.4122
177.0448, 138.3087
177.5269, 138.0061
178.0090, 137.5964
178.4911, 137.2903
178.9733, 137.1668
179.4554, 137.2076
179.9375, 137.4397
180.4196, 137.8782
180.9017, 138.3367
181.3838, 138.5741
181.8660, 138.6534
182.3481, 138.8040
182.8302, 139.2202
183.3123, 139.7765
183.7944, 140.1508
184.2766, 140.3136
184.7587, 140.4401
185.2408, 140.7217
185.7229, 141.1497
186.2050, 141.6881
186.6871, 142.2838
187.1693, 142.9723
187.6514, 143.8948
188.1335, 145.1197
188.6156, 146.4045
189.0977, 147.3551
189.5798, 147.9862
190.0620, 148.6889
190.5441, 149.7667
191.0262, 151.1445
191.5083, 152.2751
191.9904, 153.0784
192.4725, 153.7836
192.9547, 154.9954
193.4368, 156.7551
193.9189, 158.0594
194.4010, 158.1164
194.8831, 157.0194
195.3652, 156.2838
195.8474, 156.1473
196.3295, 156.1950
196.8116, 155.5218
197.2937, 154.0654
197.7758, 152.5209
198.2579, 151.2793
198.7401, 150.3439
199.2222, 149.5304
199.7043, 148.9012
200.1864, 148.3149
200.6685, 147.3586
201.1507, 145.9445
201.6328, 144.5893
202.1149, 143.6035
202.5970, 143.0086
203.0791, 142.5589
203.5612, 142.2669
204.0434, 142.0882
204.5255, 141.8843
205.0076, 141.6175
205.4897, 141.4565
205.9718, 141.5128
206.4539, 141.8065
206.9361, 142.2068
207.4182, 142.7169
207.9003, 143.3198
208.3824, 144.0061
208.8645, 144.8294
209.3466, 145.6039
209.8288, 146.2146
210.3109, 146.6335
210.7930, 146.9873
211.2751, 147.1944
211.7572, 147.3659
212.2393, 148.0047
212.7215, 149.3161
213.2036, 150.6272
213.6857, 151.4780
214.1678, 151.7280
214.6499, 151.9653
215.1320, 152.1269
215.6142, 152.3229
216.0963, 153.1238
216.5784, 154.8428
217.0605, 156.5625
217.5426, 157.6538
218.0247, 157.8808
218.5069, 158.1312
218.9890, 158.4181
219.4711, 158.7866
219.9532, 159.4778
220.4353, 160.6185
220.9175, 161.8841
221.3996, 163.0994
221.8817, 164.2491
222.3638, 165.3551
222.8459, 166.3617
223.3280, 167.3250
223.8102, 168.4874
224.2923, 170.0640
224.7744, 171.5400
225.2565, 172.5106
225.7386, 172.6342
226.2207, 173.0685
226.7029, 173.9295
227.1850, 175.1817
227.6671, 176.6588
228.1492, 178.6019
228.6313, 180.4276
229.1134, 181.7491
229.5956, 182.3615
230.0777, 182.9416
230.5598, 183.4597
231.0419, 183.9773
231.5240, 184.8288
232.0062, 186.1845
232.4883, 187.6464
232.9704, 188.9804
233.4525, 190.1315
233.9346, 191.2797
234.4167, 192.4646
234.8989, 193.6560
235.3810, 194.7123
235.8631, 195.6553
236.3452, 196.4476
236.8273, 197.0666
237.3094, 197.4529
237.7916, 197.7819
238.2737, 198.0477
238.7558, 198.2603
239.2379, 198.4716
239.7200, 198.6806
240.2021, 198.8859
240.6843, 199.1481
241.1664, 199.7469
241.6485, 199.7719
242.1306, 199.0199
242.6127, 197.6682
243.0948, 196.3927
243.5770, 195.1760
244.0591, 194.0635
244.5412, 193.0810
245.0233, 192.1878
245.5054, 191.5180
245.9876, 191.1441
246.4697, 190.9921
246.9518, 190.8062
247.4339, 190.5207
247.9160, 190.2993
248.3981, 190.2108
248.8803, 190.2318
249.3624, 190.4460
249.8445, 190.9386
250.3266, 191.5993
250.8087, 192.0914
251.2908, 192.1927
251.7730, 192.4689
252.2551, 193.1871
252.7372, 194.4942
253.2193, 195.8638
253.7014, 197.2284
254.1835, 198.6711
254.6657, 200.4018
255.1478, 202.5770
255.6299, 204.7719
256.1120, 206.8381
256.5941, 208.7302
257.0763, 210.5746
257.5584, 212.2875
258.0405, 214.0292
258.5226, 216.1068
259.0047, 218.6425
259.4868, 221.3009
259.9690, 223.9511
260.4511, 226.5883
260.9332, 229.2222
261.4153, 231.8265
261.8974, 234.4831
262.3795, 237.2871
262.8617, 240.2776
263.3438, 243.3822
263.8259, 246.6866
264.3080, 250.2460
264.7901, 253.4442
265.2722, 256.1302
265.7544, 258.6293
266.2365, 261.4905
266.7186, 264.9992
267.2007, 267.9720
267.6828, 269.9630
268.1649, 270.9536
268.6471, 271.7128
269.1292, 272.3699
269.6113, 272.6218
270.0934, 272.0625
270.5755, 270.5861
271.0576, 268.6917
271.5398, 266.5697
272.0219, 264.1908
272.5040, 261.1321
272.9861, 257.3863
273.4682, 253.0728
273.9503, 248.1311
274.4325, 242.4614
274.9146, 236.8478
275.3967, 231.4920
275.8788, 226.3279
276.3610, 221.1607
276.8431, 215.9810
277.3252, 210.9790
277.8073, 206.4473
278.2894, 202.4375
278.7715, 198.2907
279.2537, 193.6656
279.7358, 188.8251
280.2179, 184.8640
280.7000, 181.8846
281.1821, 179.2797
281.6642, 176.4784
282.1464, 173.4776
282.6285, 170.8460
283.1106, 168.7168
283.5927, 166.9774
284.0748, 165.2992
284.5569, 163.6545
285.0391, 162.2589
285.5212, 161.0942
286.0033, 159.9883
286.4854, 160.2026
286.9675, 160.2751
287.4496, 160.2133
287.9318, 159.6151
288.4139, 159.7095
288.8960, 159.5264
289.3781, 159.3319
289.8602, 159.5238
290.3423, 159.0037
290.8245, 159.1894
291.3066, 159.0934
291.7887, 159.1264
292.2708, 158.8801
292.7529, 159.4661
293.2350, 160.1708
293.7172, 160.8523
294.1993, 161.3146
294.6814, 161.5015
295.1635, 161.7122
295.6456, 162.3679
296.1277, 163.3889
296.6099, 164.4368
297.0920, 165.3834
297.5741, 166.2288
298.0562, 166.9227
298.5383, 167.4485
299.0204, 167.9442
299.5026, 168.7172
299.9847, 169.5837
300.4668, 170.0725
300.9489, 169.8104
301.4311, 169.1555
301.9132, 168.5489
302.3953, 167.9869
302.8774, 167.4912
303.3595, 167.2899
303.8416, 167.1370
304.3238, 166.5846
304.8059, 165.4238
305.2880, 163.8836
305.7701, 162.1127
306.2522, 160.1264
306.7343, 158.1260
307.2165, 156.2847
307.6986, 154.4679
308.1807, 152.4828
308.6628, 150.1414
309.1449, 147.8012
309.6270, 145.7948
310.1092, 144.0005
310.5913, 142.0927
311.0734, 139.8290
311.5555, 137.3974
312.0376, 134.9442
312.5197, 132.4119
313.0019, 130.0757
313.4840, 128.1040
313.9661, 126.4071
314.4482, 124.7818
314.9303, 123.1275
315.4124, 121.5278
315.8946, 120.0898
316.3767, 118.8636
316.8588, 117.5835
317.3409, 116.0311
317.8230, 114.3798
318.3051, 112.8642
318.7873, 111.6446
319.2694, 110.4787
319.7515, 109.2075
320.2336, 107.8020
320.7157, 106.6049
321.1978, 105.9727
321.6800, 105.4827
322.1621, 104.7559
322.6442, 103.2664
323.1263, 101.9957
323.6084, 101.3821
324.0905, 101.3639
324.5727, 100.9457
325.0548, 99.43752
325.5369, 97.84315
326.0190, 96.77280
326.5012, 96.91358
326.9833, 96.57394
327.4654, 96.49298
327.9475, 96.27013
328.4296, 95.91308
328.9117, 95.01971
329.3939, 94.81879
329.8760, 94.34041
330.3581, 93.85066
330.8402, 93.74727
331.3223, 92.93193
331.8044, 92.82241
332.2866, 92.43108
332.7687, 92.16875
333.2508, 91.62720
333.7329, 91.17188
334.2150, 90.99593
334.6971, 90.66527
335.1793, 90.09151
335.6614, 89.83737
336.1435, 89.40195
336.6256, 89.40070
337.1077, 89.20450
337.5898, 88.63697
338.0720, 87.72738
338.5541, 87.24406
339.0362, 87.33962
339.5183, 87.51791
340.0004, 87.28404
340.4825, 86.56705
340.9647, 85.92364
341.4468, 85.42693
341.9289, 85.07961
342.4110, 84.94514
342.8931, 85.06011
343.3752, 85.14874
343.8574, 84.98952
344.3395, 84.59657
344.8216, 84.21825
345.3037, 83.85720
345.7858, 83.55920
346.2679, 83.49785
346.7501, 83.64961
347.2322, 83.65894
347.7143, 83.15217
348.1964, 82.33989
348.6785, 81.97118
349.1607, 82.12749
349.6428, 82.37968
350.1249, 82.21333
350.6070, 81.73734
351.0891, 81.28947
351.5713, 81.08461
352.0534, 80.95654
352.5355, 80.60887
353.0176, 80.05559
353.4997, 79.53118
353.9818, 79.30231
354.4640, 79.20693
354.9461, 78.97362
355.4282, 78.39944
355.9103, 77.82703
356.3924, 77.60563
356.8745, 77.66254
357.3567, 77.71288
357.8388, 77.58498
358.3209, 77.38677
358.8030, 77.21986
359.2851, 77.13197
359.7672, 76.99829
360.2494, 76.66599
360.7315, 76.24673
361.2136, 75.95140
361.6957, 75.89924
362.1778, 75.95317
362.6599, 76.09978
363.1421, 76.36362
363.6242, 76.49416
364.1063, 76.31962
364.5884, 76.01241
365.0705, 75.75034
365.5526, 75.50454
366.0348, 75.37370
366.5169, 75.43198
366.9990, 75.66584
367.4811, 75.85299
367.9632, 76.08068
368.4453, 76.18147
368.9275, 76.05091
369.4096, 75.35973
369.8917, 74.89175
370.3738, 74.68517
370.8559, 74.70925
371.3380, 74.90318
371.8202, 75.47649
372.3023, 75.93710
372.7844, 76.05155
373.2665, 75.69402
373.7487, 75.51318
374.2308, 75.57395
374.7129, 75.74669
375.1950, 75.87619
375.6771, 75.97954
376.1592, 75.97179
376.6414, 75.74566
377.1235, 75.35274
377.6056, 75.36827
378.0877, 75.90137
378.5698, 76.48705
379.0519, 76.65127
379.5341, 76.38938
380.0162, 76.32970
380.4983, 76.64426
380.9804, 77.13990
381.4625, 77.32057
381.9446, 77.19598
382.4268, 77.10852
382.9089, 77.29618
383.3910, 77.68992
383.8731, 78.06995
384.3552, 78.41113
384.8373, 78.76822
385.3195, 79.23109
385.8016, 79.76480
386.2837, 80.27620
386.7658, 80.75278
387.2479, 81.16333
387.7300, 81.43996
388.2122, 81.58679
388.6943, 81.73160
389.1764, 81.94852
389.6585, 82.22404
390.1406, 82.53954
390.6227, 82.90001
391.1049, 83.28373
391.5870, 83.64278
392.0691, 84.00469
392.5512, 84.45269
393.0333, 85.27449
393.5154, 86.02114
393.9976, 86.31770
394.4797, 85.92765
394.9618, 85.73667
395.4439, 86.04761
395.9260, 86.49176
396.4081, 87.32159
396.8903, 88.00963
397.3724, 88.56336
397.8545, 88.58077
398.3366, 89.29073
398.8188, 89.72322
399.3009, 90.14426
399.7830, 90.95166
400.2651, 91.04710
400.7472, 91.84837
401.2293, 92.36790
401.7115, 93.01646
402.1936, 93.38571
402.6757, 93.84118
403.1578, 94.57600
403.6399, 95.15614
404.1220, 95.49324
404.6042, 96.14999
405.0863, 96.23569
405.5684, 96.82241
406.0505, 97.58682
406.5326, 98.17656
407.0147, 98.57401
407.4969, 98.99050
407.9790, 99.51524
408.4611, 100.0998
408.9432, 100.5059
409.4253, 100.7127
409.9074, 100.9455
410.3896, 101.4527
410.8717, 102.1595
411.3538, 102.7242
411.8359, 103.0749
412.3180, 103.3096
412.8001, 103.4998
413.2823, 103.6683
413.7644, 103.9212
414.2465, 104.3612
414.7286, 104.8951
415.2107, 105.3977
415.6928, 105.8563
416.1750, 106.3554
416.6571, 107.0140
417.1392, 107.7311
417.6213, 108.3889
418.1034, 108.8410
418.5855, 109.3291
419.0677, 110.0254
419.5498, 110.8851
420.0319, 111.7122
420.5140, 112.3709
420.9961, 113.0232
421.4782, 113.7586
421.9604, 114.5730
422.4425, 115.5093
422.9246, 116.6796
423.4067, 117.9382
423.8889, 119.1023
424.3710, 120.0381
424.8531, 120.9863
425.3352, 121.9627
425.8173, 122.9656
426.2994, 124.0676
426.7816, 125.3412
427.2637, 126.6313
427.7458, 127.8337
428.2279, 128.9381
428.7100, 129.9839
429.1921, 130.8477
429.6743, 131.7252
430.1564, 133.1230
430.6385, 135.1813
431.1206, 137.2151
431.6027, 138.8537
432.0848, 140.1396
432.5670, 141.8115
433.0491, 143.9477
433.5312, 146.1729
434.0133, 148.0896
434.4954, 149.7439
434.9775, 151.4509
435.4597, 153.3119
435.9418, 155.2359
436.4239, 156.9503
436.9060, 158.4929
437.3881, 160.2029
437.8702, 162.6997
438.3524, 165.3470
438.8345, 167.0345
439.3166, 167.4981
439.7987, 168.0071
440.2808, 169.2663
440.7629, 171.2957
441.2451, 174.1095
441.7272, 179.6258
442.2093, 184.2158
442.6914, 185.3100
443.1735, 183.3831
443.6556, 181.7000
444.1378, 181.4831
444.6199, 181.8665
445.1020, 182.3188
445.5841, 182.6793
446.0662, 183.2712
446.5483, 184.2265
447.0305, 185.4244
447.5126, 186.6757
447.9947, 188.0631
448.4768, 189.3784
448.9590, 190.5629
449.4411, 191.6081
449.9232, 192.6527
450.4053, 193.7039
450.8874, 194.7535
451.3695, 195.7720
451.8517, 196.7432
452.3338, 197.7920
452.8159, 198.9809
453.2980, 200.1740
453.7801, 200.9887
454.2622, 201.3745
454.7444, 202.0212
455.2265, 203.3935
455.7086, 205.3023
456.1907, 206.7915
456.6728, 207.8428
457.1549, 208.9647
457.6371, 210.8349
458.1192, 213.1554
458.6013, 215.2106
459.0834, 216.6593
459.5655, 218.0542
460.0476, 219.9810
460.5298, 222.3462
461.0119, 224.7659
461.4940, 227.1527
461.9761, 229.4974
462.4582, 231.8236
462.9403, 234.1630
463.4225, 236.3516
463.9046, 238.1300
464.3867, 239.8251
464.8688, 241.7029
465.3509, 244.2629
465.8330, 246.5426
466.3152, 248.2944
466.7973, 249.5959
467.2794, 250.7194
467.7615, 251.6660
468.2436, 252.4706
468.7257, 253.1239
469.2079, 253.5804
469.6900, 254.0803
470.1721, 254.7441
470.6542, 255.3114
471.1363, 255.5172
471.6184, 255.3410
472.1006, 254.8475
472.5827, 253.9375
473.0648, 252.7854
473.5469, 251.9830
474.0291, 251.5660
474.5112, 251.0893
474.9933, 250.3708
475.4754, 249.3952
475.9575, 248.0304
476.4396, 246.2428
476.9218, 244.2898
477.4039, 242.5280
477.8860, 240.8239
478.3681, 238.8914
478.8502, 236.6765
479.3323, 234.1467
479.8145, 231.2809
480.2966, 228.0457
480.7787, 224.4787
481.2608, 220.2114
481.7429, 215.8151
482.2250, 211.7223
482.7072, 208.0427
483.1893, 204.3066
483.6714, 200.1890
484.1535, 196.0024
484.6356, 192.0617
485.1177, 189.1234
485.5999, 185.5950
486.0820, 180.7215
486.5641, 174.9963
487.0462, 170.1104
487.5283, 166.4702
488.0104, 163.1231
488.4926, 159.6182
488.9747, 155.8885
489.4568, 152.6664
489.9389, 150.1203
490.4210, 147.8257
490.9031, 145.3965
491.3853, 142.8193
491.8674, 140.1127
492.3495, 137.2341
492.8316, 134.3076
493.3137, 131.6142
493.7958, 129.1315
494.2780, 126.7465
494.7601, 124.4137
495.2422, 122.1383
495.7243, 119.9585
496.2064, 117.8452
496.6885, 115.9282
497.1707, 114.3471
497.6528, 112.9662
498.1349, 111.5963
498.6170, 110.1545
499.0992, 108.7345
499.5813, 107.4487
500.0634, 106.2161
500.5455, 104.8266
501.0276, 102.8260
501.5097, 101.0060
501.9919, 99.74069
502.4740, 99.14638
502.9561, 98.51301
503.4382, 97.85513
503.9203, 97.08459
504.4024, 96.11095
504.8846, 94.77685
505.3667, 93.59506
505.8488, 92.64571
506.3309, 91.84257
506.8130, 90.92684
507.2951, 89.79981
507.7773, 89.03051
508.2594, 89.02930
508.7415, 89.59892
509.2236, 89.56363
509.7057, 88.89278
510.1878, 88.01501
510.6700, 87.13992
511.1521, 86.32954
511.6342, 85.83749
512.1163, 85.80939
512.5984, 85.73495
513.0806, 84.85366
513.5627, 83.53452
514.0448, 82.54892
514.5269, 82.63560
515.0090, 82.83944
515.4911, 82.43071
515.9733, 81.50058
516.4554, 80.72753
516.9375, 80.53978
517.4196, 80.45952
517.9017, 80.10215
518.3839, 78.57412
518.8660, 78.85754
519.3481, 78.99911
519.8302, 79.00643
520.3123, 78.47747
520.7944, 78.64101
521.2766, 78.52702
521.7587, 78.40165
522.2408, 78.66267
522.7229, 78.21169
523.2050, 78.46657
523.6871, 78.43969
524.1693, 78.23626
524.6514, 77.98196
525.1335, 77.85995
525.6156, 77.90268
526.0977, 77.86315
526.5798, 77.25796
527.0620, 76.34529
527.5441, 75.97261
528.0262, 76.54848
528.5083, 77.29453
528.9904, 77.33425
529.4725, 76.88399
529.9547, 76.46795
530.4368, 76.31955
530.9189, 76.30882
531.4010, 76.37424
531.8831, 76.51119
532.3652, 76.68745
532.8474, 77.02334
533.3295, 77.30680
533.8116, 77.39047
534.2937, 77.02834
534.7758, 76.85693
535.2579, 76.92664
535.7401, 77.17802
536.2222, 77.55790
536.7043, 78.21193
537.1864, 78.66538
537.6685, 78.77768
538.1506, 78.61990
538.6328, 78.47565
539.1149, 78.33028
539.5970, 78.28871
540.0791, 78.46818
540.5612, 78.81918
541.0433, 79.09677
541.5255, 79.28725
542.0076, 79.44796
542.4897, 79.60262
542.9718, 79.77327
543.4539, 79.99650
543.9360, 80.24015
544.4182, 80.60490
544.9003, 81.33187
545.3824, 82.23524
545.8645, 82.90318
546.3466, 82.96557
546.8287, 82.93704
547.3109, 83.06316
547.7930, 83.35793
548.2751, 83.58219
548.7572, 83.61149
549.2393, 83.63039
549.7214, 83.75521
550.2036, 84.12236
550.6857, 84.27225
551.1678, 84.10270
551.6499, 83.82205
552.1320, 83.71905
552.6141, 83.81206
553.0963, 83.97494
553.5784, 84.22263
554.0605, 84.48515
554.5426, 84.55877
555.0247, 84.45149
555.5068, 84.30234
555.9890, 84.14564
556.4711, 84.01820
556.9532, 84.04052
557.4353, 84.21510
557.9174, 84.31480
558.3995, 84.09189
558.8817, 83.73543
559.3638, 83.47549
559.8459, 83.49178
560.3281, 83.35419
560.8102, 82.62943
561.2923, 81.70042
561.7744, 81.17484
562.2565, 81.52750
562.7386, 81.90022
563.2208, 82.21587
563.7029, 82.44017
564.1850, 82.30100
564.6671, 81.60406
565.1492, 80.89246
565.6313, 80.41927
566.1135, 80.19888
566.5956, 80.07780
567.0777, 80.06161
567.5598, 80.12794
568.0419, 80.39333
568.5240, 80.76721
569.0062, 80.70722
569.4883, 79.93963
569.9704, 79.10875
570.4525, 79.13618
570.9346, 79.76743
571.4167, 80.34100
571.8989, 80.44913
572.3810, 80.48888
572.8631, 80.76020
573.3452, 81.22987
573.8273, 81.66265
574.3094, 81.91384
574.7916, 82.14566
575.2737, 82.41273
575.7558, 82.65357
576.2379, 83.16973
576.7200, 84.34010
577.2021, 85.47245
577.6843, 85.88923
578.1664, 85.26360
578.6485, 84.85868
579.1306, 84.74480
579.6127, 84.97997
580.0948, 85.85650
580.5770, 87.37157
581.0591, 88.69327
581.5412, 89.40669
582.0233, 89.74682
582.5054, 90.19743
582.9875, 90.74197
583.4697, 91.30383
583.9518, 91.80806
584.4339, 92.30765
584.9160, 92.78658
585.3981, 93.21177
585.8802, 93.93845
586.3624, 95.51254
586.8445, 97.28653
587.3266, 98.66226
587.8087, 99.14060
588.2908, 99.69965
588.7729, 100.3395
589.2551, 101.1546
589.7372, 102.3795
590.2193, 104.3847
590.7014, 106.0527
591.1835, 106.9715
591.6656, 107.3296
592.1478, 108.1433
592.6299, 109.4660
593.1120, 110.7845
593.5941, 111.7468
594.0762, 112.4464
594.5583, 113.2029
595.0405, 114.0172
595.5226, 114.9298
596.0047, 116.1751
596.4868, 117.4719
596.9689, 118.4064
597.4510, 118.7998
597.9332, 119.0484
598.4153, 119.4301
598.8974, 119.7991
599.3795, 119.9496
599.8616, 119.5238
600.3438, 119.2100
600.8259, 119.2120
601.3080, 119.4672
601.7901, 119.7481
602.2722, 120.0957
602.7543, 120.3921
603.2365, 120.5720
603.7186, 120.6357
604.2007, 120.7891
604.6828, 121.0476
605.1649, 121.3022
605.6470, 121.4872
606.1292, 121.5930
606.6113, 121.5517
607.0934, 121.3278
607.5755, 121.1202
608.0576, 121.1532
608.5398, 121.3410
609.0219, 121.5540
609.5040, 121.8968
609.9861, 122.0576
610.4683, 121.7789
610.9504, 121.2035
611.4325, 120.6302
611.9146, 120.0215
612.3967, 119.5571
612.8788, 119.3989
613.3610, 119.5059
613.8431, 119.3510
614.3252, 118.8675
614.8073, 118.2366
615.2894, 117.5023
615.7715, 116.6582
616.2537, 115.8756
616.7358, 115.1616
617.2179, 114.4770
617.7000, 113.8574
618.1821, 113.2458
618.6642, 112.4434
619.1464, 111.3711
619.6285, 110.2135
620.1106, 109.0101
620.5927, 107.8719
621.0748, 106.9944
621.5569, 106.6962
622.0391, 106.4164
622.5212, 105.9860
623.0033, 105.3857
623.4854, 104.5579
623.9675, 102.9474
624.4496, 101.6937
624.9318, 101.2708
625.4139, 101.6576
625.8960, 101.6363
626.3781, 101.0852
626.8602, 100.4139
627.3423, 99.84427
627.8245, 99.37535
628.3066, 99.00222
628.7887, 98.73921
629.2708, 98.47308
629.7529, 98.02711
630.2350, 97.49332
630.7172, 97.08543
631.1993, 96.88078
631.6814, 96.72018
632.1635, 96.49129
632.6456, 96.21587
633.1277, 95.92569
633.6099, 95.55669
634.0920, 95.25476
634.5741, 95.15578
635.0562, 95.17732
635.5383, 94.98061
636.0204, 94.25919
636.5026, 93.76257
636.9847, 93.82802
637.4668, 94.40144
637.9489, 94.46639
638.4310, 93.83502
638.9131, 93.77391
639.3953, 93.57080
639.8774, 93.23359
640.3595, 92.36004
640.8416, 92.17900
641.3237, 91.72044
641.8058, 91.25054
642.2880, 91.16687
642.7701, 90.37138
643.2522, 90.28168
643.7343, 88.99786
644.2164, 88.69789
644.6985, 88.64367
645.1807, 88.24766
645.6628, 86.93825
646.1449, 85.82997
646.6270, 85.14613
647.1091, 84.74049
647.5912, 84.28218
648.0734, 83.78502
648.5555, 83.18010
649.0376, 82.40137
649.5197, 81.49695
650.0018, 80.65850
650.4839, 79.87608
650.9661, 79.22785
651.4482, 78.75704
651.9303, 78.44846
652.4124, 78.39602
652.8945, 78.59005
653.3766, 78.55711
653.8588, 77.77049
654.3409, 76.75484
654.8230, 75.90637
655.3051, 75.25523
655.7872, 74.90238
656.2693, 75.18196
656.7515, 75.59780
657.2336, 75.65380
657.7158, 75.10076
658.1979, 74.74216
658.6800, 74.70722
659.1621, 74.81202
659.6442, 74.71292
660.1263, 74.40682
660.6085, 74.14558
661.0906, 74.01933
661.5727, 73.96553
662.0548, 73.89686
662.5369, 73.80798
663.0190, 73.67942
663.5012, 73.43743
663.9833, 73.20274
664.4654, 73.10884
664.9475, 73.13520
665.4296, 73.08847
665.9117, 72.92922
666.3939, 72.66481
666.8760, 72.24586
667.3581, 71.62551
667.8402, 71.18163
668.3223, 70.92689
668.8044, 70.82320
669.2866, 70.89368
669.7687, 71.14922
670.2508, 71.30901
670.7329, 71.35805
671.2150, 71.30699
671.6971, 71.12680
672.1793, 70.85512
672.6614, 70.60049
673.1435, 70.40060
673.6256, 70.18030
674.1077, 69.83865
674.5898, 69.44283
675.0720, 69.10192
675.5541, 68.87964
676.0362, 68.67847
676.5183, 68.49529
677.0004, 68.31700
677.4825, 68.09546
677.9647, 67.76999
678.4468, 67.53883
678.9289, 67.53221
679.4110, 67.65793
679.8931, 67.36009
680.3752, 66.60592
680.8574, 66.00422
681.3395, 66.01122
681.8216, 66.38554
682.3037, 66.71664
682.7858, 66.98674
683.2679, 67.02226
683.7501, 66.35210
684.2322, 65.63374
684.7143, 65.16003
685.1964, 65.67009
685.6785, 65.87813
686.1606, 65.80039
686.6428, 64.58081
687.1249, 64.83567
687.6070, 64.49964
688.0891, 64.13938
688.5712, 64.60172
689.0533, 63.54827
689.5355, 63.99753
690.0176, 63.84697
690.4997, 62.93097
690.9818, 63.10734
691.4639, 63.43813
691.9460, 63.41517
692.4282, 63.16314
692.9103, 62.95663
693.3924, 62.94697
693.8745, 62.95499
694.3566, 62.86261
694.8387, 62.71039
695.3209, 62.59436
695.8030, 62.64666
696.2851, 62.60220
696.7672, 62.30325
697.2493, 61.84026
697.7314, 61.75267
698.2136, 62.18304
698.6957, 62.51442
699.1778, 62.41784
699.6599, 62.00628
700.1420, 61.80405
700.6241, 61.79974
701.1063, 61.78823
701.5884, 61.53082
702.0705, 61.23587
702.5526, 61.26118
703.0347, 61.62768
703.5168, 61.78017
703.9990, 61.19253
704.4811, 60.46882
704.9632, 60.02557
705.4453, 59.97795
705.9274, 60.02163
706.4095, 60.21035
706.8917, 60.42629
707.3738, 60.59010
707.8560, 60.70665
708.3381, 60.66724
708.8202, 60.41992
709.3023, 60.16901
709.7844, 60.21083
710.2665, 60.45887
710.7487, 60.69484
711.2308, 60.91061
711.7129, 60.97705
712.1950, 60.64142
712.6771, 60.13086
713.1592, 59.78740
713.6414, 59.83892
714.1235, 59.92875
714.6056, 59.99752
715.0877, 60.04951
715.5698, 60.10041
716.0519, 60.17858
716.5341, 60.17802
717.0162, 60.06432
717.4983, 59.86045
717.9804, 59.57703
718.4625, 59.22591
718.9446, 59.00954
719.4268, 59.09679
719.9089, 59.32569
720.3910, 59.50262
720.8731, 59.63736
721.3552, 59.77886
721.8373, 60.03901
722.3195, 60.23409
722.8016, 60.19055
723.2837, 59.90171
723.7658, 59.83033
724.2479, 60.18341
724.7300, 60.49858
725.2122, 60.57433
725.6943, 60.40934
726.1764, 60.05170
726.6585, 59.44934
727.1406, 58.96075
727.6227, 58.92418
728.1049, 59.19563
728.5870, 59.46943
729.0691, 59.72301
729.5512, 59.93547
730.0333, 60.12215
730.5154, 60.24339
730.9976, 60.23817
731.4797, 60.04093
731.9618, 59.89411
732.4439, 59.91921
732.9260, 59.95451
733.4081, 59.85113
733.8903, 59.51593
734.3724, 59.39214
734.8545, 59.57052
735.3366, 59.79961
735.8187, 59.63523
736.3008, 59.20636
736.7830, 59.18253
737.2651, 59.82662
737.7472, 60.49296
738.2293, 60.50353
738.7114, 60.12529
739.1935, 59.74759
739.6757, 59.35291
740.1578, 59.15491
740.6399, 59.37107
741.1220, 59.77843
741.6041, 59.98749
742.0862, 59.90840
742.5684, 59.82472
743.0505, 59.77470
743.5326, 59.75159
744.0147, 59.75004
744.4968, 59.76759
744.9789, 59.76971
745.4611, 59.72146
745.9432, 59.67921
746.4253, 59.74265
746.9074, 59.87300
747.3895, 59.96888
747.8716, 60.04741
748.3538, 60.02139
748.8359, 59.74023
749.3180, 59.28924
749.8001, 59.09517
750.2822, 59.26157
750.7643, 59.53532
751.2465, 59.91323
751.7286, 60.33124
752.2107, 60.42771
752.6928, 60.19909
753.1749, 59.89911
753.6570, 59.62543
754.1392, 59.39197
754.6213, 59.21356
755.1034, 59.09161
755.5855, 59.04538
756.0676, 59.11918
756.5498, 59.23987
757.0319, 59.40928
757.5140, 59.62656
757.9962, 59.68258
758.4783, 59.39566
758.9604, 59.19424
759.4425, 59.32715
759.9246, 59.77973
760.4067, 59.98427
760.8889, 59.92004
761.3710, 59.78293
761.8531, 59.74381
762.3352, 59.72495
762.8173, 59.50754
763.2994, 59.09371
763.7816, 58.82025
764.2637, 59.02047
764.7458, 59.35573
765.2279, 59.60045
765.7100, 59.73887
766.1921, 59.75521
766.6743, 59.62610
767.1564, 59.41401
767.6385, 59.10720
768.1206, 58.66827
768.6027, 58.49603
769.0848, 58.62045
769.5670, 58.84099
770.0491, 59.01606
770.5312, 59.14398
771.0133, 59.20792
771.4954, 59.20037
771.9775, 59.19249
772.4597, 59.17514
772.9418, 59.21041
773.4239, 59.39594
773.9060, 59.94647
774.3881, 60.09113
774.8702, 59.51246
775.3524, 58.86208
775.8345, 58.77447
776.3166, 59.32398
776.7987, 59.46825
777.2808, 59.08091
777.7629, 58.61106
778.2451, 58.56831
778.7272, 58.79180
779.2093, 58.98481
779.6914, 59.10284
780.1735, 59.12506
780.6556, 58.88419
781.1378, 58.62269
781.6199, 58.59123
782.1020, 59.16610
782.5841, 59.37135
783.0662, 58.97819
783.5483, 58.46911
784.0305, 58.46208
784.5126, 58.98289
784.9947, 59.12905
785.4768, 58.73027
785.9589, 58.24343
786.4410, 58.25703
786.9232, 58.54804
787.4053, 58.69439
787.8874, 58.52585
788.3695, 58.39227
788.8516, 58.61749
789.3337, 58.89641
789.8159, 58.86189
790.2980, 58.11432
790.7801, 57.74670
791.2622, 57.93325
791.7443, 58.31849
792.2264, 58.40432
792.7086, 58.21456
793.1907, 58.16955
793.6728, 58.37584
794.1549, 58.58809
794.6370, 58.45434
795.1191, 58.16195
795.6013, 58.02852
796.0834, 58.24328
796.5655, 58.41966
797.0476, 58.40539
797.5297, 58.28527
798.0118, 58.16142
798.4940, 58.01006
798.9761, 57.90660
799.4582, 57.84148
799.9403, 57.85126
800.4224, 58.08283
800.9045, 58.47032
801.3867, 58.58495
801.8688, 58.27679
802.3509, 57.91669
802.8330, 57.91153
803.3151, 58.06942
803.7972, 58.11917
804.2794, 57.89390
804.7615, 57.71680
805.2436, 57.66708
805.7258, 57.69082
806.2079, 57.72469
806.6900, 57.74284
807.1721, 57.90455
807.6542, 58.27450
808.1364, 58.65445
808.6185, 58.75819
809.1006, 58.65316
809.5827, 58.54270
810.0648, 58.48385
810.5469, 58.38726
811.0291, 58.14035
811.5112, 57.83942
811.9933, 57.59268
812.4754, 57.42598
812.9575, 57.31262
813.4396, 57.25753
813.9218, 57.24615
814.4039, 57.25750
814.8860, 57.28973
815.3681, 57.41128
815.8502, 57.65917
816.3323, 57.87054
816.8145, 57.74105
817.2966, 57.47023
817.7787, 57.24783
818.2608, 57.92769
818.7429, 58.30553
819.2250, 58.39757
819.7072, 57.34783
820.1893, 57.77246
820.6714, 57.60624
821.1535, 57.41578
821.6356, 58.04793
822.1177, 57.16426
822.5999, 57.78336
823.0820, 57.80258
823.5641, 58.09636
824.0462, 57.79562
824.5283, 57.67850
825.0104, 58.15609
825.4926, 58.30439
825.9747, 57.68235
826.4568, 57.79721
826.9389, 56.77028
827.4210, 57.21773
827.9031, 57.07432
828.3853, 56.90668
828.8674, 57.56164
829.3495, 56.70078
829.8316, 57.34270
830.3137, 57.38474
830.7958, 57.70132
831.2780, 57.42340
831.7601, 57.32910
832.2422, 57.82950
832.7243, 58.00061
833.2064, 57.65425
833.6885, 57.98829
834.1707, 57.10667
834.6528, 57.29181
835.1349, 57.93720
835.6170, 57.62073
836.0991, 57.96564
836.5812, 58.05865
837.0634, 57.00695
837.5455, 57.94603
838.0276, 58.02417
838.5097, 57.21828
838.9918, 58.08916
839.4739, 57.40515
839.9561, 57.27614
840.4382, 57.56480
840.9203, 57.41806
841.4024, 57.95778
841.8845, 57.83618
842.3666, 57.65549
842.8488, 57.73266
843.3309, 57.07914
843.8130, 57.78119
844.2951, 57.55727
844.7772, 57.79363
845.2593, 58.13432
845.7415, 57.67617
846.2236, 58.06374
846.7057, 57.13980
847.1878, 57.31324
847.6699, 57.36852
848.1520, 58.12522
848.6342, 57.20768
849.1163, 57.35063
849.5984, 57.94513
850.0805, 57.90781
850.5626, 58.13467
851.0447, 57.57947
851.5269, 57.75895
852.0090, 57.73592
852.4911, 58.41266
852.9732, 58.53696
853.4553, 58.63554
853.9374, 58.42430
854.4196, 57.59637
854.9017, 57.04089
855.3839, 57.29409
855.8660, 57.51570
856.3481, 57.53840
856.8302, 57.43027
857.3123, 57.34187
857.7944, 57.27666
858.2766, 57.15990
858.7587, 56.92928
859.2408, 56.73253
859.7229, 56.83831
860.2050, 57.13305
860.6871, 57.39304
861.1693, 57.61511
861.6514, 57.67742
862.1335, 57.40319
862.6156, 56.99814
863.0977, 56.73360
863.5798, 56.61309
864.0620, 56.63126
864.5441, 56.81461
865.0262, 57.07139
865.5083, 57.08163
865.9904, 56.71805
866.4725, 57.41012
866.9547, 57.80016
867.4368, 57.90442
867.9189, 56.86689
868.4010, 57.30373
868.8831, 57.14972
869.3652, 56.97147
869.8474, 57.61583
870.3295, 56.74437
870.8116, 57.37568
871.2937, 57.40712
871.7758, 57.71311
872.2579, 57.18459
872.7401, 57.16234
873.2222, 56.73967
873.7043, 57.42285
874.1864, 57.80400
874.6685, 57.89936
875.1506, 56.85293
875.6328, 57.28088
876.1149, 57.11797
876.5970, 56.93083
877.0791, 57.56629
877.5612, 56.68594
878.0433, 57.30836
878.5255, 57.33089
879.0076, 57.62798
879.4897, 57.33056
879.9718, 57.21676
880.4539, 57.69766
880.9360, 57.84928
881.4182, 57.48341
881.9003, 57.79795
882.3824, 56.89683
882.8645, 57.06247
883.3466, 57.68837
883.8287, 57.35240
884.3109, 57.67781
884.7930, 57.75132
885.2751, 56.68011
885.7572, 57.62496
886.2393, 57.71569
886.7214, 57.46208
887.2036, 57.24862
887.6857, 57.22779
888.1678, 57.23901
888.6499, 57.24826
889.1320, 57.23331
889.6141, 57.14024
890.0963, 56.83814
890.5784, 56.87126
891.0605, 57.40419
891.5426, 57.95645
892.0247, 57.87619
892.5068, 57.37121
892.9890, 57.04931
893.4711, 57.00584
893.9532, 57.07882
894.4353, 57.27384
894.9174, 57.46041
895.3995, 57.50899
895.8817, 57.35279
896.3638, 57.32191
896.8459, 57.46931
897.3280, 57.63121
897.8101, 57.69593
898.2922, 57.68343
898.7744, 57.68065
899.2565, 57.69183
899.7386, 57.76789
900.2207, 58.10480
900.7028, 58.37991
901.1849, 58.17857
901.6671, 57.60993
902.1492, 57.55128
902.6313, 58.56032
903.1134, 59.24371
903.5955, 59.14567
904.0776, 58.55053
904.5598, 58.20463
905.0419, 58.09462
905.5240, 58.10047
906.0062, 58.21338
906.4883, 58.36805
906.9704, 58.56032
907.4525, 58.74004
907.9346, 58.82778
908.4167, 58.79821
908.8989, 58.64894
909.3810, 58.22503
909.8631, 57.86322
910.3452, 58.09966
910.8273, 58.88200
911.3094, 59.41858
911.7916, 59.60384
912.2737, 59.62236
912.7558, 59.54465
913.2379, 59.44915
913.7200, 59.41960
914.2021, 59.47351
914.6843, 59.56834
915.1664, 59.72927
915.6485, 59.88863
916.1306, 60.00671
916.6127, 60.08700
917.0948, 60.21350
917.5770, 60.38597
918.0591, 60.47741
918.5412, 60.21729
919.0233, 59.97515
919.5054, 60.26540
919.9875, 60.95153
920.4697, 61.43687
920.9518, 61.42203
921.4339, 61.33926
921.9160, 61.27275
922.3981, 61.20703
922.8802, 61.03755
923.3624, 60.77504
923.8445, 60.77827
924.3266, 61.23935
924.8087, 61.78843
925.2908, 62.04448
925.7729, 62.11734
926.2551, 62.16800
926.7372, 62.19670
927.2193, 62.28618
927.7014, 62.51295
928.1835, 62.73061
928.6656, 62.77289
929.1478, 62.64067
929.6299, 62.61119
930.1120, 62.69880
930.5941, 62.87826
931.0762, 63.17817
931.5583, 63.52718
932.0405, 63.89093
932.5226, 64.25716
933.0047, 64.49435
933.4868, 64.44423
933.9689, 64.40726
934.4510, 64.46675
934.9332, 64.62333
935.4153, 64.89123
935.8974, 65.26922
936.3795, 65.70591
936.8616, 66.25632
937.3438, 66.76173
937.8259, 67.04761
938.3080, 67.17149
938.7901, 67.24230
939.2722, 67.20382
939.7543, 67.23494
940.2365, 67.37217
940.7186, 67.56284
941.2007, 67.74412
941.6828, 67.91512
942.1649, 68.03111
942.6470, 68.07085
943.1292, 68.19126
943.6113, 68.63528
944.0934, 69.16748
944.5755, 69.53500
945.0576, 69.65227
945.5397, 69.92272
946.0219, 70.51432
946.5040, 71.02843
946.9861, 71.18916
947.4682, 71.09140
947.9503, 71.35067
948.4324, 71.92209
948.9146, 72.41570
949.3967, 72.53046
949.8788, 72.55037
950.3609, 72.61866
950.8430, 72.75935
951.3251, 73.03898
951.8073, 73.49250
952.2894, 74.03101
952.7715, 74.68968
953.2536, 75.35437
953.7357, 75.78413
954.2179, 76.04733
954.7000, 76.43686
955.1821, 77.03566
955.6642, 77.63860
956.1464, 78.11539
956.6285, 78.51988
957.1106, 78.87197
957.5927, 79.12133
958.0748, 79.58131
958.5569, 80.28638
959.0391, 81.11539
959.5212, 82.09423
960.0033, 83.11732
960.4854, 83.76665
960.9675, 84.11848
961.4496, 84.58986
961.9318, 85.58984
962.4139, 86.58281
962.8960, 87.20815
963.3781, 87.62315
963.8602, 88.26082
964.3423, 89.12538
964.8245, 90.19038
965.3066, 91.48833
965.7887, 92.90356
966.2708, 94.21757
966.7529, 95.55089
967.2350, 97.13099
967.7172, 99.09398
968.1993, 101.0537
968.6814, 102.7984
969.1635, 104.5637
969.6456, 106.4872
970.1277, 108.5455
970.6099, 111.0397
971.0920, 113.9853
971.5741, 117.0085
972.0562, 119.7621
972.5383, 122.4530
973.0204, 125.2203
973.5026, 128.1499
973.9847, 131.5939
974.4668, 135.9736
974.9489, 140.4798
975.4310, 144.8483
975.9131, 149.3498
976.3953, 154.6768
976.8774, 160.8130
977.3595, 166.7913
977.8416, 172.2517
978.3237, 177.9068
978.8058, 184.5158
979.2880, 191.6684
979.7701, 198.9290
980.2522, 206.1449
980.7343, 213.7606
981.2164, 221.8236
981.6985, 230.3735
982.1807, 239.6507
982.6628, 249.5139
983.1449, 259.4006
983.6270, 269.3035
984.1091, 279.1873
984.5912, 288.6056
985.0734, 298.4286
985.5555, 309.5198
986.0376, 321.4299
986.5197, 332.9565
987.0018, 344.0585
987.4839, 354.8584
987.9661, 365.3584
988.4482, 375.6540
988.9303, 385.9025
989.4124, 395.9220
989.8945, 405.3701
990.3766, 414.2480
990.8588, 422.1664
991.3409, 428.7318
991.8230, 434.4787
992.3051, 440.0502
992.7872, 445.3000
993.2693, 448.3078
993.7515, 449.0443
994.2336, 448.3644
994.7157, 446.6957
995.1978, 443.8767
995.6799, 439.7713
996.1620, 434.3174
996.6442, 427.4440
997.1263, 418.9382
997.6084, 409.1625
998.0905, 397.9782
998.5726, 385.7978
999.0547, 372.7776
999.5369, 358.9727
1000.019, 344.7949
1000.501, 330.2203
1000.983, 316.6765
1001.465, 305.2918
1001.947, 295.0967
1002.430, 285.4970
1002.912, 276.3913
1003.394, 268.3107
1003.876, 261.2336
1004.358, 255.0274
1004.840, 249.6593
1005.322, 244.9076
1005.804, 240.4146
1006.287, 236.1020
1006.769, 231.6331
1007.251, 226.5161
1007.733, 221.8683
1008.215, 218.2623
1008.697, 215.0468
1009.179, 211.5764
1009.661, 207.8168
1010.143, 204.2219
1010.626, 200.7270
1011.108, 198.0083
1011.590, 197.2324
1012.072, 196.9905
1012.554, 195.6672
1013.036, 193.3911
1013.518, 191.7602
1014.000, 191.2141
1014.483, 190.9619
1014.965, 190.7698
1015.447, 190.8523
1015.929, 191.8914
1016.411, 193.6130
1016.893, 194.9436
1017.375, 195.4804
1017.857, 196.1082
1018.339, 197.2677
1018.822, 198.8426
1019.304, 200.7988
1019.786, 203.1754
1020.268, 205.4673
1020.750, 207.6691
1021.232, 209.8074
1021.714, 211.6967
1022.196, 213.6595
1022.679, 216.3903
1023.161, 219.6060
1023.643, 222.4667
1024.125, 224.4791
1024.607, 226.3716
1025.089, 228.2967
1025.571, 230.1400
1026.053, 231.9138
1026.535, 233.5159
1027.018, 234.2867
1027.500, 234.1316
1027.982, 233.4685
1028.464, 232.4184
1028.946, 231.1438
1029.428, 229.6766
1029.910, 228.0253
1030.392, 226.8047
1030.875, 226.2959
1031.357, 225.0830
1031.839, 222.3606
1032.321, 219.0854
1032.803, 217.1764
1033.285, 216.0080
1033.767, 214.2883
1034.249, 211.3823
1034.731, 208.3845
1035.214, 205.6725
1035.696, 202.8489
1036.178, 199.5520
1036.660, 195.8128
1037.142, 191.8609
1037.624, 187.7739
1038.106, 183.8705
1038.588, 180.6147
1039.071, 177.4270
1039.553, 173.7369
1040.035, 169.7173
1040.517, 165.9261
1040.999, 162.2854
1041.481, 159.0190
1041.963, 156.0776
1042.445, 153.5949
1042.927, 151.8318
1043.410, 150.5855
1043.892, 149.6999
1044.374, 149.2312
1044.856, 147.8928
1045.338, 144.1616
1045.820, 140.5296
1046.302, 138.0849
1046.784, 136.6547
1047.266, 135.5212
1047.749, 134.6375
1048.231, 133.5424
1048.713, 131.9050
1049.195, 130.2809
1049.677, 129.0863
1050.159, 128.1729
1050.641, 127.3510
1051.123, 126.6335
1051.606, 125.8921
1052.088, 125.1034
1052.570, 124.3781
1053.052, 123.8249
1053.534, 123.3689
1054.016, 122.9432
1054.498, 122.5017
1054.980, 121.8516
1055.463, 120.3341
1055.945, 119.4038
1056.427, 119.7209
1056.909, 120.4448
1057.391, 120.0377
1057.873, 118.6685
1058.355, 117.7242
1058.837, 117.4295
1059.319, 117.3935
1059.802, 117.4982
1060.284, 117.5996
1060.766, 117.6298
1061.248, 117.5757
1061.730, 117.2032
1062.212, 116.3980
1062.694, 115.9034
1063.176, 116.1289
1063.658, 116.5711
1064.141, 116.5139
1064.623, 116.1534
1065.105, 115.8047
1065.587, 115.4836
1066.069, 115.3461
1066.551, 115.4691
1067.033, 115.6544
1067.515, 115.7298
1067.998, 115.7397
1068.480, 116.0314
1068.962, 116.5262
1069.444, 116.7797
1069.926, 116.2281
1070.408, 115.7283
1070.890, 115.7315
1071.372, 116.0242
1071.854, 116.2964
1072.337, 116.5365
1072.819, 116.9184
1073.301, 117.4848
1073.783, 117.9463
1074.265, 117.8636
1074.747, 117.6585
1075.229, 117.7695
1075.711, 118.2062
1076.193, 118.6078
1076.676, 118.9199
1077.158, 119.2364
1077.640, 119.5292
1078.122, 119.9289
1078.604, 120.8480
1079.086, 122.0060
1079.568, 122.7671
1080.051, 122.8945
1080.533, 123.0679
1081.015, 123.6002
1081.497, 124.1557
1081.979, 124.5474
1082.461, 124.8140
1082.943, 125.2590
1083.425, 125.8566
1083.907, 126.3738
1084.390, 126.5930
1084.872, 126.8539
1085.354, 127.5315
1085.836, 128.2866
1086.318, 128.6594
1086.800, 128.4867
1087.282, 128.6172
1087.764, 129.1000
1088.246, 129.5883
1088.729, 129.7415
1089.211, 129.7959
1089.693, 129.9948
1090.175, 130.3356
1090.657, 130.7872
1091.139, 131.4995
1091.621, 132.0154
1092.103, 132.2349
1092.586, 132.3246
1093.068, 132.4753
1093.550, 132.6766
1094.032, 132.8763
1094.514, 133.0689
1094.996, 133.4183
1095.478, 134.2276
1095.960, 134.9337
1096.443, 135.2940
1096.925, 135.4192
1097.407, 135.6276
1097.889, 135.9112
1098.371, 136.1848
1098.853, 136.3912
1099.335, 136.7135
1099.817, 137.3163
1100.299, 138.0727
1100.781, 138.9176
1101.264, 139.8582
1101.746, 140.5823
1102.228, 141.0826
1102.710, 141.5047
1103.192, 141.8914
1103.674, 142.2668
1104.156, 142.5880
1104.638, 142.9336
1105.121, 143.4516
1105.603, 144.3555
1106.085, 145.0259
1106.567, 145.4019
1107.049, 145.7267
1107.531, 146.2707
1108.013, 146.8722
1108.495, 147.1795
1108.978, 147.2558
1109.460, 147.3789
1109.942, 147.7391
1110.424, 148.0361
1110.906, 148.2306
1111.388, 148.3266
1111.870, 148.2349
1112.352, 148.0391
1112.834, 148.1935
1113.317, 148.7207
1113.799, 149.0957
1114.281, 148.8726
1114.763, 148.5696
1115.245, 148.4864
1115.727, 148.4958
1116.209, 148.2650
1116.691, 147.7986
1117.173, 147.2300
1117.656, 146.5688
1118.138, 145.9303
1118.620, 145.4016
1119.102, 144.9494
1119.584, 144.5898
1120.066, 144.3121
1120.548, 143.8752
1121.030, 143.2503
1121.513, 142.6778
1121.995, 142.3050
1122.477, 141.9017
1122.959, 141.1916
1123.441, 140.2498
1123.923, 139.1239
1124.405, 137.6257
1124.887, 136.6320
1125.370, 136.3427
1125.852, 136.0235
1126.334, 135.1381
1126.816, 134.0080
1127.298, 133.3275
1127.780, 132.9449
1128.262, 132.5042
1128.744, 131.8270
1129.226, 131.1690
1129.709, 130.6041
1130.191, 129.9913
1130.673, 129.0556
1131.155, 127.9685
1131.637, 127.4918
1132.119, 127.5315
1132.601, 127.4639
1133.083, 126.7554
1133.566, 126.1579
1134.048, 125.9924
1134.530, 126.0030
1135.012, 125.8385
1135.494, 125.5248
1135.976, 125.3170
1136.458, 125.2373
1136.940, 125.2582
1137.422, 125.5492
1137.905, 125.7496
1138.387, 125.5506
1138.869, 125.1140
1139.351, 124.8748
1139.833, 124.8477
1140.315, 124.5614
1140.797, 123.8826
1141.279, 123.2876
1141.761, 123.3112
1142.244, 123.5175
1142.726, 123.5989
1143.208, 123.5145
1143.690, 123.0585
1144.172, 122.1027
1144.654, 121.6379
1145.136, 122.1703
1145.618, 122.7269
1146.101, 121.8352
1146.583, 120.4190
1147.065, 119.6805
1147.547, 120.0213
1148.029, 119.8276
1148.511, 118.9468
1148.993, 117.9421
1149.475, 117.0026
1149.958, 116.1602
1150.440, 115.5245
1150.922, 114.9990
1151.404, 114.3981
1151.886, 113.6254
1152.368, 112.9148
1152.850, 112.3303
1153.332, 111.7066
1153.814, 110.8779
1154.297, 109.9725
1154.779, 109.3730
1155.261, 108.9661
1155.743, 108.4598
1156.225, 107.5405
1156.707, 106.8208
1157.189, 106.4479
1157.671, 106.1569
1158.153, 105.6500
1158.636, 105.0344
1159.118, 104.9558
1159.600, 105.2553
1160.082, 105.1044
1160.564, 103.4494
1161.046, 102.1546
1161.528, 101.9044
1162.010, 102.0416
1162.493, 101.8756
1162.975, 101.4319
1163.457, 100.8123
1163.939, 100.0441
1164.421, 99.37960
1164.903, 99.18698
1165.385, 98.87135
1165.867, 98.01418
1166.349, 96.97517
1166.832, 96.45199
1167.314, 96.37851
1167.796, 95.89075
1168.278, 94.88724
1168.760, 93.84380
1169.242, 93.03284
1169.724, 92.34568
1170.206, 91.83450
1170.688, 91.35775
1171.171, 90.48196
1171.653, 89.21262
1172.135, 88.15702
1172.617, 87.44941
1173.099, 86.85038
1173.581, 86.14291
1174.063, 85.49623
1174.545, 85.18194
1175.028, 85.06496
1175.510, 84.43129
1175.992, 83.24507
1176.474, 82.30344
1176.956, 81.85131
1177.438, 81.48756
1177.920, 80.71587
1178.402, 79.94343
1178.885, 79.64090
1179.367, 79.79378
1179.849, 79.64033
1180.331, 79.15234
1180.813, 78.63682
1181.295, 78.16551
1181.777, 77.79507
1182.259, 77.71504
1182.741, 77.69016
1183.224, 77.41324
1183.706, 76.82952
1184.188, 76.39071
1184.670, 76.09272
1185.152, 75.96313
1185.634, 76.10448
1186.116, 76.26111
1186.598, 75.97206
1187.081, 75.59481
1187.563, 75.70625
1188.045, 76.59550
1188.527, 76.87476
1189.009, 76.44126
1189.491, 75.99238
1189.973, 75.92332
1190.455, 76.01878
1190.938, 76.02216
1191.420, 76.00280
1191.902, 76.10139
1192.384, 76.48992
1192.866, 76.48983
1193.348, 76.00774
1193.830, 75.59238
1194.312, 75.68836
1194.794, 75.97954
1195.276, 76.10807
1195.759, 76.10973
1196.241, 76.04848
1196.723, 75.89628
1197.205, 75.77633
1197.687, 75.69289
1198.169, 75.62637
1198.651, 75.52513
1199.133, 75.45833
1199.616, 75.54385
1200.098, 75.73644
1200.580, 75.93507
1201.062, 76.22498
1201.544, 76.25148
1202.026, 75.95607
1202.508, 75.57291
1202.990, 75.26060
1203.473, 75.01575
1203.955, 74.81457
1204.437, 74.67494
1204.919, 74.66702
1205.401, 74.90327
1205.883, 75.00500
1206.365, 74.92947
1206.847, 74.77821
1207.329, 74.62106
1207.812, 74.46622
1208.294, 74.33971
1208.776, 74.22667
1209.258, 74.06163
1209.740, 73.81728
1210.222, 73.56786
1210.704, 73.30502
1211.186, 73.09693
1211.668, 73.03065
1212.151, 73.04228
1212.633, 73.03648
1213.115, 73.02867
1213.597, 73.16242
1214.079, 73.58479
1214.561, 73.70686
1215.043, 73.40337
1215.525, 72.97110
1216.008, 72.65500
1216.490, 72.43621
1216.972, 72.26617
1217.454, 72.16130
1217.936, 72.28829
1218.418, 72.80444
1218.900, 72.96333
1219.382, 72.57350
1219.865, 72.10297
1220.347, 71.98547
1220.829, 72.13319
1221.311, 72.61916
1221.793, 73.34652
1222.275, 73.57051
1222.757, 73.10341
1223.239, 72.82829
1223.721, 72.93395
1224.203, 73.18183
1224.686, 73.31822
1225.168, 73.45673
1225.650, 73.73260
1226.132, 74.14620
1226.614, 74.57116
1227.096, 75.04942
1227.578, 75.25505
1228.061, 75.05884
1228.543, 74.86433
1229.025, 75.15919
1229.507, 75.61684
1229.989, 75.90346
1230.471, 76.03008
1230.953, 76.29277
1231.435, 76.69609
1231.917, 77.21836
1232.400, 77.88117
1232.882, 78.53352
1233.364, 79.06332
1233.846, 79.49937
1234.328, 79.77511
1234.810, 79.96172
1235.292, 80.55762
1235.774, 81.58847
1236.256, 82.33191
1236.739, 82.57594
1237.221, 82.68169
1237.703, 82.92348
1238.185, 83.18726
1238.667, 83.31046
1239.149, 83.36809
1239.631, 83.84642
1240.113, 84.70918
1240.596, 84.90479
1241.078, 85.33863
1241.560, 85.67495
1242.042, 85.91891
1242.524, 85.79423
1243.006, 86.14558
1243.488, 86.30618
1243.970, 86.45889
1244.453, 86.87772
1244.935, 86.38224
1245.417, 86.30052
1245.899, 86.33910
1246.381, 86.59973
1246.863, 86.72758
1247.345, 86.54868
1247.827, 86.10503
1248.309, 85.43148
1248.792, 84.60757
1249.274, 84.00478
1249.756, 83.76176
1250.238, 83.43394
1250.720, 82.79592
1251.202, 82.01888
1251.684, 81.12082
1252.166, 80.19039
1252.648, 79.47507
1253.131, 78.90809
1253.613, 78.30752
1254.095, 77.64668
1254.577, 76.83707
1255.059, 75.70567
1255.541, 74.58241
1256.023, 73.72691
1256.505, 73.55299
1256.988, 73.21075
1257.470, 72.71156
1257.952, 71.58018
1258.434, 71.26512
1258.916, 70.62283
1259.398, 69.96727
1259.880, 69.76694
1260.362, 68.72750
1260.844, 68.52010
1261.327, 67.97934
1261.809, 67.59184
1262.291, 66.87510
1262.773, 66.26015
1263.255, 64.94602
1263.737, 64.32205
1264.219, 63.80574
1264.701, 63.42104
1265.183, 63.13642
1265.666, 62.95712
1266.148, 62.82117
1266.630, 62.69138
1267.112, 62.55564
1267.594, 62.19258
1268.076, 61.54999
1268.558, 61.00721
1269.040, 60.35934
1269.523, 60.52723
1270.005, 60.52830
1270.487, 60.37117
1270.969, 59.58203
1271.451, 59.60901
1271.933, 59.30896
1272.415, 58.99543
1272.897, 59.13734
1273.380, 58.43964
1273.862, 58.57426
1274.344, 58.37686
1274.826, 58.33139
1275.308, 57.95687
1275.790, 57.68394
1276.272, 57.63966
1276.754, 58.08375
1277.236, 58.20274
1277.719, 57.82076
1278.201, 57.35052
1278.683, 56.89671
1279.165, 56.53685
1279.647, 56.26648
1280.129, 56.13485
1280.611, 56.38177
1281.093, 56.82420
1281.576, 56.94749
1282.058, 56.66051
1282.540, 56.30228
1283.022, 55.83083
1283.504, 55.55907
1283.986, 55.62107
1284.468, 55.80695
1284.950, 55.78098
1285.432, 55.66033
1285.915, 55.67341
1286.397, 55.83576
1286.879, 55.79511
1287.361, 55.42977
1287.843, 55.21579
1288.325, 55.29583
1288.807, 55.41271
1289.289, 55.24779
1289.771, 54.97937
1290.254, 54.77731
1290.736, 54.65466
1291.218, 54.56293
1291.700, 54.50176
1292.182, 54.48652
1292.664, 54.52778
1293.146, 54.53236
1293.628, 54.36084
1294.111, 54.18218
1294.593, 54.13092
1295.075, 54.15323
1295.557, 54.15149
1296.039, 54.12516
1296.521, 54.03836
1297.003, 53.89244
1297.485, 53.83823
1297.968, 54.20047
1298.450, 54.33900
1298.932, 53.94604
1299.414, 53.35726
1299.896, 53.03664
1300.378, 52.94989
1300.860, 53.04250
1301.342, 53.28436
1301.824, 53.49416
##END=



