##NAMES=Magnesioaubertite
##RRUFFID=R060344
##IDEAL CHEMISTRY=MgAl(S^6+^O_4_)_2_Cl&#183;14H_2_O
##LOCALITY=Grotta de Faraglione, Vulcano, Italy
##OWNER=RRUFF
##SOURCE=Michael Scott
##DESCRIPTION=Blue massive with a parallel fibrous texture associated with white pickeringite, co-type specimen
##STATUS=The identification of this mineral has been confirmed only by single crystal X-ray diffraction.
##URL=rruff.info/R060344
125.6867, 12.93046
126.1688, 13.76597
126.6509, 14.87354
127.1331, 15.39779
127.6152, 15.42467
128.0973, 15.38144
128.5794, 15.48971
129.0615, 15.74292
129.5436, 16.10902
130.0258, 16.53403
130.5079, 17.12145
130.9900, 18.23542
131.4721, 19.86582
131.9542, 21.41767
132.4363, 22.09184
132.9185, 22.06557
133.4006, 22.61513
133.8827, 24.41692
134.3648, 26.98925
134.8469, 28.52658
135.3290, 28.82346
135.8112, 28.99014
136.2933, 30.24117
136.7754, 32.61465
137.2575, 35.50997
137.7396, 38.82408
138.2217, 42.49522
138.7039, 46.43120
139.1860, 50.70956
139.6681, 55.14153
140.1502, 59.55190
140.6323, 63.90556
141.1144, 68.21049
141.5966, 72.49825
142.0787, 76.77603
142.5608, 80.93887
143.0429, 85.10499
143.5250, 89.08362
144.0071, 92.32276
144.4893, 94.38599
144.9714, 96.37279
145.4535, 98.83837
145.9356, 102.4963
146.4177, 105.2047
146.8998, 106.4320
147.3820, 106.6320
147.8641, 107.7184
148.3462, 109.6724
148.8283, 112.5138
149.3104, 116.3329
149.7925, 122.1032
150.2747, 127.5644
150.7568, 132.5772
151.2389, 137.1430
151.7210, 141.2050
152.2031, 143.7555
152.6852, 146.3710
153.1674, 150.0622
153.6495, 156.2786
154.1316, 162.0703
154.6137, 167.0423
155.0958, 171.1793
155.5779, 174.8272
156.0601, 177.9203
156.5422, 180.5974
157.0243, 182.9382
157.5064, 184.6867
157.9885, 186.3535
158.4706, 187.9868
158.9528, 189.5567
159.4349, 191.4213
159.9170, 193.7065
160.3991, 196.3250
160.8812, 199.1758
161.3633, 202.4815
161.8455, 205.8119
162.3276, 208.9776
162.8097, 211.8857
163.2918, 214.7973
163.7739, 217.7548
164.2560, 220.5259
164.7382, 221.7436
165.2203, 222.2446
165.7024, 223.0442
166.1845, 224.6290
166.6666, 227.3563
167.1487, 229.8803
167.6309, 231.2142
168.1130, 231.8331
168.5951, 232.7139
169.0772, 234.5411
169.5593, 236.7102
170.0414, 238.6840
170.5236, 240.2803
171.0057, 241.8913
171.4878, 244.0090
171.9699, 246.4446
172.4520, 248.5777
172.9341, 249.8677
173.4163, 250.7594
173.8984, 251.7935
174.3805, 253.1979
174.8626, 254.5918
175.3447, 255.6047
175.8268, 256.2959
176.3090, 256.9452
176.7911, 257.3708
177.2732, 257.9295
177.7553, 259.3371
178.2374, 262.4160
178.7195, 265.6956
179.2017, 267.1596
179.6838, 266.9570
180.1659, 266.3220
180.6480, 266.1529
181.1301, 266.2756
181.6122, 266.3222
182.0944, 266.4305
182.5765, 266.2333
183.0586, 264.9084
183.5407, 262.4926
184.0228, 259.7727
184.5049, 257.5340
184.9871, 255.6082
185.4692, 253.4594
185.9513, 250.7006
186.4334, 247.6775
186.9155, 245.3636
187.3976, 243.8506
187.8798, 242.1087
188.3619, 238.7214
188.8440, 233.9404
189.3261, 229.6046
189.8082, 226.4269
190.2903, 224.1382
190.7725, 221.6939
191.2546, 219.0076
191.7367, 216.4500
192.2188, 214.6700
192.7009, 213.5903
193.1830, 212.0250
193.6652, 209.1808
194.1473, 205.3331
194.6294, 202.4868
195.1115, 200.7979
195.5936, 199.5753
196.0757, 197.9134
196.5579, 195.7963
197.0400, 193.7115
197.5221, 191.7800
198.0042, 190.0173
198.4863, 188.5772
198.9684, 187.4846
199.4506, 186.6777
199.9327, 186.1946
200.4148, 186.0843
200.8969, 185.8323
201.3790, 185.1163
201.8611, 183.9127
202.3433, 183.0091
202.8254, 182.4333
203.3075, 182.1028
203.7896, 181.9556
204.2717, 182.0419
204.7538, 182.0377
205.2360, 181.7108
205.7181, 180.9890
206.2002, 180.6287
206.6823, 180.7324
207.1644, 181.0706
207.6465, 181.1302
208.1287, 180.7474
208.6108, 180.6576
209.0929, 181.3721
209.5750, 183.1624
210.0571, 184.2870
210.5392, 184.6058
211.0214, 184.4021
211.5035, 184.1741
211.9856, 183.8300
212.4677, 183.7271
212.9498, 184.0605
213.4319, 184.9065
213.9140, 185.8431
214.3962, 186.8281
214.8783, 187.9296
215.3604, 189.3829
215.8425, 191.4648
216.3246, 193.2973
216.8067, 194.3868
217.2889, 194.3988
217.7710, 194.7973
218.2531, 195.7539
218.7352, 197.0234
219.2173, 198.0511
219.6994, 198.7953
220.1816, 199.3764
220.6637, 199.9477
221.1458, 200.7732
221.6279, 200.7108
222.1100, 199.1528
222.5921, 196.9343
223.0743, 196.4007
223.5564, 198.5565
224.0385, 200.6478
224.5206, 201.2736
225.0027, 199.7651
225.4848, 198.5925
225.9670, 197.6360
226.4491, 197.0962
226.9312, 197.6272
227.4133, 199.8138
227.8954, 202.1206
228.3775, 203.8268
228.8597, 204.8701
229.3418, 205.4672
229.8239, 205.2965
230.3060, 204.7574
230.7881, 205.0146
231.2702, 206.4781
231.7524, 208.1123
232.2345, 209.4118
232.7166, 210.1672
233.1987, 211.1356
233.6808, 212.4729
234.1629, 213.9800
234.6451, 215.1165
235.1272, 215.6305
235.6093, 216.1462
236.0914, 216.9505
236.5735, 218.1821
237.0556, 219.3918
237.5378, 220.5043
238.0199, 221.6257
238.5020, 223.1396
238.9841, 225.7891
239.4662, 227.7681
239.9483, 228.0822
240.4305, 225.4556
240.9126, 224.1872
241.3947, 224.6989
241.8768, 226.4284
242.3589, 228.0859
242.8410, 229.8945
243.3232, 231.2783
243.8053, 231.8517
244.2874, 230.9822
244.7695, 230.8831
245.2516, 231.9825
245.7337, 233.6816
246.2159, 234.6626
246.6980, 234.8052
247.1801, 234.4190
247.6622, 233.4919
248.1443, 231.6133
248.6264, 230.3830
249.1086, 230.0501
249.5907, 230.2364
250.0728, 230.1757
250.5549, 229.8060
251.0370, 229.2935
251.5191, 228.6973
252.0013, 228.0375
252.4834, 227.2117
252.9655, 226.1076
253.4476, 224.9067
253.9297, 224.0002
254.4118, 223.6395
254.8940, 223.1169
255.3761, 222.1833
255.8582, 220.7817
256.3403, 219.1171
256.8224, 216.9646
257.3046, 214.7222
257.7867, 213.1356
258.2688, 212.4360
258.7509, 211.8951
259.2330, 211.4085
259.7151, 211.0982
260.1973, 210.0524
260.6794, 207.9591
261.1615, 205.4637
261.6436, 203.5095
262.1257, 202.1029
262.6078, 201.1959
263.0900, 200.9358
263.5721, 201.4255
264.0542, 201.5116
264.5363, 201.1387
265.0184, 200.4245
265.5005, 199.3575
265.9827, 197.6572
266.4648, 196.4527
266.9469, 196.2027
267.4290, 196.9300
267.9111, 197.4322
268.3932, 197.7039
268.8754, 197.7489
269.3575, 197.5535
269.8396, 197.0853
270.3217, 196.4827
270.8038, 195.7393
271.2859, 194.8616
271.7681, 194.0518
272.2502, 193.2582
272.7323, 192.6408
273.2144, 192.4979
273.6965, 192.9661
274.1786, 193.1398
274.6608, 192.6804
275.1429, 191.7276
275.6250, 191.2676
276.1071, 191.3329
276.5892, 191.7950
277.0714, 192.9128
277.5535, 194.8963
278.0356, 195.5846
278.5177, 194.1783
278.9998, 191.2765
279.4819, 189.2866
279.9641, 188.2524
280.4462, 187.8766
280.9283, 188.1778
281.4104, 189.1879
281.8925, 189.7666
282.3746, 189.5667
282.8568, 188.9573
283.3389, 189.0467
283.8210, 189.9034
284.3031, 190.9176
284.7852, 191.7441
285.2673, 192.3726
285.7495, 192.6949
286.2316, 192.5412
286.7137, 192.2904
287.1958, 192.8642
287.6779, 194.2859
288.1600, 195.7343
288.6422, 196.6539
289.1243, 197.1231
289.6064, 197.5519
290.0885, 197.8549
290.5706, 198.4350
291.0527, 200.3284
291.5349, 203.4279
292.0170, 206.1430
292.4991, 207.0785
292.9812, 206.8396
293.4633, 207.6728
293.9454, 209.8312
294.4276, 212.5072
294.9097, 215.0115
295.3918, 217.2502
295.8739, 218.6464
296.3560, 218.4507
296.8381, 217.2505
297.3203, 216.4155
297.8024, 216.0010
298.2845, 215.7068
298.7666, 215.5081
299.2487, 215.2296
299.7308, 214.3220
300.2130, 211.9561
300.6951, 209.0462
301.1772, 207.2343
301.6593, 206.5240
302.1414, 205.8604
302.6235, 204.0627
303.1057, 201.6637
303.5878, 199.7858
304.0699, 198.9952
304.5520, 198.7329
305.0341, 198.2493
305.5162, 197.6114
305.9984, 197.3843
306.4805, 198.3457
306.9626, 199.8770
307.4447, 201.1098
307.9268, 201.8160
308.4089, 202.1572
308.8911, 201.8670
309.3732, 201.1853
309.8553, 201.1047
310.3374, 202.2431
310.8195, 204.2522
311.3016, 206.9584
311.7838, 210.7970
312.2659, 214.2999
312.7480, 216.1031
313.2301, 216.7615
313.7122, 217.6922
314.1943, 219.5123
314.6765, 221.8858
315.1586, 224.7304
315.6407, 228.2285
316.1228, 231.4808
316.6049, 233.9745
317.0870, 235.9367
317.5692, 237.7065
318.0513, 239.0384
318.5334, 240.5220
319.0155, 242.8517
319.4976, 246.3869
319.9797, 248.6123
320.4619, 248.2021
320.9440, 246.2148
321.4261, 243.8515
321.9082, 241.0997
322.3903, 238.2870
322.8724, 235.9047
323.3546, 233.9852
323.8367, 230.7372
324.3188, 224.3414
324.8009, 217.2799
325.2830, 211.5220
325.7651, 208.3369
326.2473, 205.2666
326.7294, 201.8874
327.2115, 198.2737
327.6936, 195.0197
328.1757, 192.6442
328.6578, 190.3202
329.1400, 187.6178
329.6221, 183.8209
330.1042, 180.6588
330.5863, 178.3457
331.0684, 176.6688
331.5505, 175.0534
332.0327, 173.4627
332.5148, 171.9543
332.9969, 170.5381
333.4790, 169.2425
333.9611, 168.0532
334.4432, 167.1315
334.9254, 166.2155
335.4075, 164.8957
335.8896, 163.1611
336.3717, 160.9998
336.8538, 158.1851
337.3359, 154.5391
337.8180, 152.0385
338.3001, 151.0740
338.7823, 150.6618
339.2644, 149.6624
339.7465, 147.8976
340.2286, 146.3184
340.7107, 145.2441
341.1928, 144.5616
341.6750, 143.6116
342.1571, 142.3717
342.6392, 140.9022
343.1213, 139.1084
343.6034, 136.9962
344.0855, 135.0993
344.5677, 133.5198
345.0498, 132.2089
345.5319, 131.0974
346.0140, 130.1852
346.4961, 129.4689
346.9782, 129.1223
347.4604, 129.0237
347.9425, 128.5306
348.4246, 127.4945
348.9067, 126.3120
349.3888, 125.5347
349.8709, 125.1184
350.3531, 124.8118
350.8352, 124.5927
351.3173, 124.3776
351.7994, 123.9704
352.2815, 123.3553
352.7636, 122.6841
353.2458, 121.9167
353.7279, 121.2018
354.2100, 120.8707
354.6921, 121.4441
355.1742, 122.1896
355.6563, 122.2322
356.1385, 121.6340
356.6206, 121.0609
357.1027, 121.0469
357.5848, 121.2847
358.0669, 121.4124
358.5490, 121.3025
359.0312, 121.1066
359.5133, 120.7944
359.9954, 120.4473
360.4775, 120.3129
360.9596, 120.6996
361.4417, 121.2148
361.9239, 121.6090
362.4060, 121.8445
362.8881, 121.9530
363.3702, 121.7163
363.8523, 121.4029
364.3344, 121.4245
364.8166, 122.3054
365.2987, 123.1817
365.7808, 123.6263
366.2629, 123.5485
366.7450, 123.7099
367.2271, 124.4568
367.7093, 125.3843
368.1914, 126.1363
368.6735, 126.6706
369.1556, 127.0433
369.6377, 127.0004
370.1198, 126.6484
370.6020, 126.9815
371.0841, 128.6977
371.5662, 130.4550
372.0483, 131.4755
372.5304, 131.1210
373.0125, 131.2761
373.4947, 132.2645
373.9768, 133.6792
374.4589, 134.5249
374.9410, 134.5028
375.4231, 134.5333
375.9052, 135.0757
376.3874, 136.2632
376.8695, 136.8031
377.3516, 136.3909
377.8337, 135.8537
378.3158, 136.4000
378.7979, 138.2164
379.2801, 139.7094
379.7622, 140.3175
380.2443, 140.2801
380.7264, 140.7293
381.2085, 141.7086
381.6906, 142.8548
382.1728, 143.9657
382.6549, 145.0211
383.1370, 145.8116
383.6191, 146.2739
384.1012, 146.5210
384.5833, 146.5082
385.0655, 146.3255
385.5476, 146.6184
386.0297, 148.3509
386.5118, 150.6728
386.9939, 151.9392
387.4760, 151.9012
387.9582, 151.5748
388.4403, 151.5833
388.9224, 152.0236
389.4045, 153.0794
389.8866, 156.1189
390.3687, 158.9232
390.8509, 158.9420
391.3330, 156.4375
391.8151, 154.4174
392.2972, 155.1625
392.7793, 157.0345
393.2614, 158.4092
393.7436, 158.1115
394.2257, 158.3064
394.7078, 160.6221
395.1899, 164.1931
395.6720, 166.7460
396.1541, 166.1329
396.6363, 165.4786
397.1184, 166.3961
397.6005, 169.6056
398.0826, 172.6410
398.5647, 175.3537
399.0468, 177.6243
399.5290, 179.3076
400.0111, 179.2257
400.4932, 179.8237
400.9753, 181.6779
401.4574, 184.7952
401.9395, 187.8819
402.4217, 190.7757
402.9038, 193.8325
403.3859, 197.3369
403.8680, 201.5518
404.3501, 205.5519
404.8322, 209.0012
405.3144, 212.3088
405.7965, 216.6753
406.2786, 222.5692
406.7607, 228.0342
407.2428, 231.7233
407.7249, 233.5510
408.2071, 237.2467
408.6892, 243.1765
409.1713, 249.9390
409.6534, 255.7521
410.1355, 260.6508
410.6176, 265.7980
411.0998, 271.4916
411.5819, 277.7245
412.0640, 284.6715
412.5461, 292.2536
413.0282, 299.9943
413.5103, 307.7145
413.9925, 315.2030
414.4746, 321.9245
414.9567, 327.5252
415.4388, 333.1791
415.9209, 340.2287
416.4030, 348.3287
416.8852, 356.8294
417.3673, 365.9810
417.8494, 374.8906
418.3315, 382.6960
418.8136, 389.2650
419.2957, 395.9058
419.7779, 403.9405
420.2600, 412.1060
420.7421, 419.0075
421.2242, 424.1916
421.7063, 428.1986
422.1884, 431.0163
422.6706, 432.7917
423.1527, 434.1884
423.6348, 436.0511
424.1169, 436.9982
424.5990, 436.3560
425.0811, 433.6584
425.5633, 430.3037
426.0454, 426.1253
426.5275, 421.4427
427.0096, 416.5487
427.4917, 411.1233
427.9738, 406.0263
428.4560, 401.4887
428.9381, 397.4538
429.4202, 393.4897
429.9023, 389.5408
430.3844, 385.8430
430.8665, 382.7018
431.3487, 380.2191
431.8308, 377.6172
432.3129, 374.7579
432.7950, 371.8351
433.2771, 369.1308
433.7592, 366.6438
434.2414, 364.8983
434.7235, 364.2961
435.2056, 364.6549
435.6877, 365.3744
436.1698, 366.4749
436.6519, 367.6160
437.1341, 368.5004
437.6162, 369.1466
438.0983, 369.5663
438.5804, 369.5227
439.0625, 369.6024
439.5446, 370.5161
440.0268, 372.1464
440.5089, 374.0577
440.9910, 376.4929
441.4731, 378.8077
441.9552, 380.2805
442.4373, 380.6319
442.9195, 381.2032
443.4016, 382.6600
443.8837, 384.7266
444.3658, 387.0674
444.8479, 390.0560
445.3300, 392.8307
445.8122, 394.8738
446.2943, 396.2994
446.7764, 398.2983
447.2585, 401.7960
447.7406, 405.3263
448.2227, 408.1508
448.7049, 409.8380
449.1870, 411.5985
449.6691, 413.5540
450.1512, 415.5146
450.6333, 417.1442
451.1154, 418.4045
451.5976, 419.4373
452.0797, 420.2348
452.5618, 420.8117
453.0439, 421.3807
453.5260, 421.9934
454.0081, 422.4054
454.4903, 422.3777
454.9724, 421.9157
455.4545, 421.3232
455.9366, 420.6197
456.4187, 419.8470
456.9008, 419.4638
457.3830, 419.3003
457.8651, 418.1326
458.3472, 414.3087
458.8293, 409.4231
459.3114, 406.7677
459.7935, 406.3600
460.2757, 405.5791
460.7578, 401.7581
461.2399, 396.4443
461.7220, 391.8151
462.2041, 388.6163
462.6862, 385.8290
463.1684, 382.9911
463.6505, 380.0447
464.1326, 376.9237
464.6147, 373.5783
465.0968, 370.0449
465.5789, 366.1588
466.0611, 361.7552
466.5432, 358.1964
467.0253, 356.8965
467.5074, 355.9680
467.9895, 353.8361
468.4716, 349.1010
468.9538, 344.7725
469.4359, 341.0653
469.9180, 337.9234
470.4001, 335.2264
470.8822, 333.2810
471.3643, 331.2827
471.8465, 328.9374
472.3286, 326.2409
472.8107, 323.3191
473.2928, 320.2804
473.7749, 316.8653
474.2570, 312.5797
474.7392, 307.4350
475.2213, 302.8613
475.7034, 299.4860
476.1855, 296.4717
476.6676, 291.6797
477.1497, 285.3027
477.6319, 279.4064
478.1140, 275.6595
478.5961, 273.0000
479.0782, 269.7010
479.5603, 265.6272
480.0424, 261.1775
480.5246, 256.2633
481.0067, 251.2812
481.4888, 246.7982
481.9709, 243.3800
482.4530, 240.0102
482.9352, 236.1882
483.4173, 231.9954
483.8994, 227.6899
484.3815, 222.9915
484.8636, 218.4866
485.3457, 214.4245
485.8279, 210.7815
486.3100, 207.6517
486.7921, 205.6775
487.2742, 203.8786
487.7563, 201.3317
488.2384, 197.3869
488.7206, 193.7777
489.2027, 190.6664
489.6848, 188.0324
490.1669, 185.9318
490.6490, 184.5338
491.1311, 183.2126
491.6133, 181.6693
492.0954, 179.9041
492.5775, 178.2533
493.0596, 176.7260
493.5417, 175.3163
494.0238, 174.1252
494.5060, 173.0792
494.9881, 171.7944
495.4702, 170.0173
495.9523, 168.2287
496.4344, 167.1823
496.9165, 166.7564
497.3987, 166.4964
497.8808, 166.3140
498.3629, 166.0720
498.8450, 165.6373
499.3271, 164.9927
499.8092, 164.2192
500.2914, 163.0212
500.7735, 161.8731
501.2556, 161.2022
501.7377, 161.7248
502.2198, 162.0070
502.7019, 161.3850
503.1841, 160.2754
503.6662, 159.8169
504.1483, 161.0249
504.6304, 161.8949
505.1125, 161.6511
505.5946, 160.1467
506.0768, 159.5179
506.5589, 160.1962
507.0410, 161.1225
507.5231, 161.2019
508.0052, 160.1401
508.4873, 160.3992
508.9695, 162.7455
509.4516, 165.7407
509.9337, 166.3595
510.4158, 164.7320
510.8979, 163.3148
511.3800, 163.3576
511.8622, 164.2818
512.3443, 164.7783
512.8264, 164.8650
513.3085, 164.9721
513.7906, 165.4717
514.2728, 166.1680
514.7549, 166.8115
515.2370, 167.3502
515.7191, 167.8465
516.2012, 168.2663
516.6833, 168.6843
517.1655, 169.2218
517.6476, 169.8135
518.1297, 170.6366
518.6118, 171.9170
519.0939, 173.5959
519.5760, 175.0118
520.0582, 176.1655
520.5403, 176.9510
521.0224, 177.1565
521.5045, 176.2301
521.9866, 176.4176
522.4688, 178.2318
522.9509, 180.5926
523.4330, 182.1941
523.9151, 182.9238
524.3972, 183.5025
524.8793, 184.0553
525.3615, 184.5670
525.8436, 184.9511
526.3257, 185.2126
526.8078, 185.5692
527.2899, 186.3317
527.7720, 187.2571
528.2542, 187.7956
528.7363, 187.9217
529.2184, 187.7613
529.7005, 187.1951
530.1826, 186.4796
530.6647, 186.0033
531.1469, 186.1335
531.6290, 186.0969
532.1111, 185.4257
532.5932, 184.2822
533.0753, 183.0025
533.5574, 181.6777
534.0396, 180.2275
534.5217, 178.6677
535.0038, 177.0197
535.4859, 174.9575
535.9680, 172.0491
536.4501, 169.1626
536.9323, 166.8905
537.4144, 165.6587
537.8965, 163.6919
538.3786, 160.6413
538.8607, 157.2831
539.3428, 154.9909
539.8250, 153.8430
540.3071, 152.4285
540.7892, 150.3379
541.2713, 147.7505
541.7534, 144.9081
542.2355, 141.8751
542.7177, 139.3387
543.1998, 138.0857
543.6819, 137.4500
544.1640, 136.3761
544.6461, 134.7650
545.1282, 133.1449
545.6104, 132.0887
546.0925, 131.1602
546.5746, 129.8577
547.0567, 127.8068
547.5388, 125.6970
548.0209, 123.3455
548.5031, 121.1362
548.9852, 119.8576
549.4673, 120.7678
549.9494, 121.4228
550.4315, 121.1121
550.9136, 119.8408
551.3958, 118.7726
551.8779, 117.8176
552.3600, 117.2166
552.8421, 117.3119
553.3242, 118.2422
553.8063, 118.4526
554.2885, 117.7180
554.7706, 116.7022
555.2527, 116.4934
555.7348, 116.9064
556.2169, 116.6793
556.6990, 114.9905
557.1812, 113.0598
557.6633, 112.9078
558.1454, 114.1122
558.6275, 115.0881
559.1096, 114.8219
559.5917, 114.0224
560.0739, 113.0418
560.5560, 111.8947
561.0381, 111.2629
561.5202, 111.8821
562.0023, 112.8490
562.4844, 113.5019
562.9666, 113.6380
563.4487, 113.6101
563.9308, 113.3826
564.4129, 113.0340
564.8950, 112.6247
565.3771, 111.9348
565.8593, 111.7112
566.3414, 112.2696
566.8235, 113.4019
567.3056, 114.1964
567.7877, 114.6198
568.2698, 114.9071
568.7520, 115.2149
569.2341, 115.5045
569.7162, 115.5745
570.1983, 115.4027
570.6804, 115.2728
571.1625, 115.6344
571.6447, 116.1697
572.1268, 116.2799
572.6089, 115.5134
573.0910, 114.9706
573.5731, 115.7139
574.0552, 117.1066
574.5374, 118.0516
575.0195, 117.3656
575.5016, 117.0063
575.9837, 117.9439
576.4658, 120.0391
576.9479, 121.4264
577.4301, 121.7580
577.9122, 121.7241
578.3943, 121.4572
578.8764, 120.7736
579.3585, 121.0147
579.8406, 122.4450
580.3228, 124.2105
580.8049, 125.3930
581.2870, 126.0249
581.7691, 126.7339
582.2512, 127.5496
582.7333, 128.6500
583.2155, 130.6623
583.6975, 133.2274
584.1796, 135.3166
584.6617, 135.6241
585.1439, 135.8162
585.6260, 137.6000
586.1081, 140.7046
586.5902, 143.7493
587.0723, 146.2401
587.5544, 148.3541
588.0366, 150.0288
588.5187, 150.9612
589.0008, 152.7313
589.4829, 156.3270
589.9650, 160.2964
590.4471, 163.5728
590.9293, 165.9210
591.4114, 168.0820
591.8935, 169.9405
592.3756, 171.8296
592.8577, 174.3659
593.3398, 177.5447
593.8220, 181.1035
594.3041, 185.0973
594.7862, 189.3059
595.2683, 193.3291
595.7504, 197.1203
596.2325, 200.5913
596.7147, 203.0195
597.1968, 205.4392
597.6789, 209.3297
598.1610, 214.8183
598.6431, 220.2699
599.1252, 224.8995
599.6074, 228.9699
600.0895, 232.7245
600.5716, 236.1925
601.0537, 239.3843
601.5358, 242.5444
602.0179, 245.3040
602.5001, 247.0965
602.9822, 247.4454
603.4643, 247.8179
603.9464, 248.8033
604.4285, 249.8435
604.9106, 248.8009
605.3928, 245.4589
605.8749, 242.0516
606.3570, 239.5622
606.8391, 237.8670
607.3212, 236.6976
607.8033, 236.0362
608.2855, 235.3687
608.7676, 234.0002
609.2497, 232.5279
609.7318, 231.7113
610.2139, 231.6729
610.6960, 232.2149
611.1782, 233.7177
611.6603, 235.5215
612.1424, 236.9435
612.6245, 237.2809
613.1066, 237.8692
613.5887, 238.7224
614.0709, 239.9666
614.5530, 242.0964
615.0351, 245.9020
615.5172, 248.7367
615.9993, 249.3738
616.4814, 248.4721
616.9636, 250.0196
617.4457, 254.2349
617.9278, 258.3351
618.4099, 260.1168
618.8920, 260.4398
619.3741, 261.8162
619.8563, 264.3614
620.3384, 266.9731
620.8205, 268.6287
621.3026, 269.8864
621.7847, 271.4875
622.2668, 273.8430
622.7490, 275.8974
623.2311, 277.0400
623.7132, 277.6870
624.1953, 278.3706
624.6774, 279.7773
625.1595, 280.4621
625.6417, 279.9845
626.1238, 278.7214
626.6059, 277.7112
627.0880, 276.9691
627.5701, 276.4726
628.0522, 276.5473
628.5344, 276.8575
629.0165, 275.5641
629.4986, 272.6452
629.9807, 269.1274
630.4628, 265.5127
630.9449, 261.8752
631.4271, 258.3731
631.9092, 255.0311
632.3913, 251.4378
632.8734, 247.3616
633.3555, 242.8529
633.8376, 237.8027
634.3198, 231.7531
634.8019, 226.1445
635.2840, 221.5790
635.7661, 217.6157
636.2482, 213.5598
636.7303, 209.4060
637.2125, 205.1309
637.6946, 200.6248
638.1767, 196.0354
638.6588, 191.7118
639.1409, 187.6147
639.6230, 183.8478
640.1052, 180.6048
640.5873, 177.6233
641.0694, 173.8820
641.5515, 169.4640
642.0336, 165.6529
642.5157, 164.0186
642.9979, 163.0836
643.4800, 161.0091
643.9621, 157.5652
644.4442, 154.3763
644.9263, 152.4224
645.4084, 150.9132
645.8906, 149.2055
646.3727, 146.8319
646.8548, 144.9381
647.3369, 143.6733
647.8190, 142.8280
648.3011, 142.2887
648.7833, 142.2898
649.2654, 141.7268
649.7475, 140.2410
650.2296, 138.3212
650.7117, 137.0255
651.1938, 136.2844
651.6760, 135.3925
652.1581, 133.8675
652.6402, 132.1637
653.1223, 130.8758
653.6044, 129.9998
654.0865, 129.4400
654.5687, 129.6301
655.0508, 129.7528
655.5329, 129.0707
656.0150, 127.5032
656.4971, 126.4092
656.9792, 126.5103
657.4614, 126.8313
657.9435, 126.8491
658.4256, 126.4789
658.9077, 126.0935
659.3898, 125.6963
659.8719, 125.2753
660.3541, 124.7349
660.8362, 124.0881
661.3183, 123.7849
661.8004, 123.9648
662.2825, 124.2832
662.7646, 124.2151
663.2468, 123.9310
663.7289, 123.8781
664.2110, 124.5809
664.6931, 125.1091
665.1752, 124.5390
665.6573, 123.3018
666.1395, 122.4054
666.6216, 122.4111
667.1037, 122.5381
667.5858, 122.5659
668.0679, 122.5056
668.5500, 122.4334
669.0322, 122.2750
669.5143, 122.2585
669.9964, 122.6091
670.4785, 123.2760
670.9606, 123.2717
671.4427, 122.5113
671.9249, 121.9083
672.4070, 122.4983
672.8891, 123.7197
673.3712, 124.3726
673.8533, 124.3197
674.3354, 123.9246
674.8176, 123.1841
675.2997, 122.3679
675.7818, 121.7704
676.2639, 121.5154
676.7460, 121.3589
677.2281, 121.0996
677.7103, 120.9870
678.1924, 121.4038
678.6745, 122.8734
679.1566, 123.6695
679.6387, 123.3400
680.1208, 122.4270
680.6030, 122.1374
681.0851, 122.4714
681.5672, 122.7977
682.0493, 122.8481
682.5314, 122.7931
683.0135, 122.9135
683.4957, 123.1847
683.9778, 123.5074
684.4599, 123.8767
684.9420, 124.2394
685.4241, 124.6505
685.9063, 125.0815
686.3884, 125.2353
686.8705, 124.5864
687.3526, 124.0542
687.8347, 124.0991
688.3168, 124.8334
688.7990, 125.3818
689.2811, 125.7361
689.7632, 125.9488
690.2453, 126.0126
690.7274, 125.9439
691.2095, 125.9554
691.6917, 126.0690
692.1738, 126.1973
692.6559, 126.1486
693.1380, 126.0732
693.6201, 126.2734
694.1022, 126.9354
694.5844, 127.5417
695.0665, 127.6464
695.5486, 127.5675
696.0307, 127.7134
696.5128, 128.5677
696.9949, 129.1257
697.4771, 129.1066
697.9592, 128.8214
698.4413, 128.9199
698.9234, 129.5171
699.4055, 130.0533
699.8876, 130.4118
700.3698, 130.5914
700.8519, 130.4773
701.3340, 130.1238
701.8161, 129.8923
702.2982, 130.1863
702.7803, 130.5573
703.2625, 130.4041
703.7446, 129.8400
704.2267, 129.4528
704.7088, 129.3375
705.1909, 129.6087
705.6730, 130.5720
706.1552, 132.3313
706.6373, 133.3296
707.1194, 133.1662
707.6015, 132.7915
708.0836, 132.7549
708.5657, 133.0855
709.0479, 133.0915
709.5300, 132.7376
710.0121, 132.2565
710.4942, 131.7528
710.9763, 131.2954
711.4584, 131.0277
711.9406, 130.9680
712.4227, 131.1096
712.9048, 131.7316
713.3869, 132.4134
713.8690, 132.6961
714.3511, 132.2406
714.8333, 131.8116
715.3154, 131.5513
715.7975, 131.3932
716.2796, 131.2613
716.7617, 131.1248
717.2438, 131.1796
717.7260, 131.5963
718.2081, 131.9914
718.6902, 131.4010
719.1723, 129.9991
719.6544, 129.2296
720.1365, 129.8098
720.6187, 130.8005
721.1008, 131.2203
721.5829, 131.1820
722.0650, 130.9616
722.5471, 130.3961
723.0292, 129.9500
723.5114, 129.8552
723.9935, 130.0588
724.4756, 130.3651
724.9577, 131.2046
725.4398, 131.4007
725.9219, 130.2756
726.4041, 128.1959
726.8862, 127.4924
727.3683, 128.2825
727.8504, 129.0269
728.3325, 128.7392
728.8146, 127.8388
729.2968, 127.1155
729.7789, 126.5794
730.2610, 126.2498
730.7431, 126.3392
731.2252, 126.4909
731.7073, 126.4754
732.1895, 126.2713
732.6716, 125.8828
733.1537, 125.1259
733.6358, 124.3462
734.1179, 123.6594
734.6000, 123.0260
735.0822, 122.7953
735.5643, 123.0676
736.0464, 123.3891
736.5285, 123.3799
737.0106, 123.0799
737.4927, 122.5952
737.9749, 121.9206
738.4570, 121.2327
738.9391, 120.6356
739.4212, 120.1454
739.9033, 119.8201
740.3854, 119.8003
740.8676, 119.6303
741.3497, 119.0896
741.8318, 118.3895
742.3139, 117.7006
742.7960, 116.8567
743.2781, 116.5201
743.7603, 116.9155
744.2424, 117.5213
744.7245, 117.5604
745.2066, 117.0889
745.6887, 116.5535
746.1708, 115.9859
746.6530, 115.5643
747.1351, 115.5969
747.6172, 115.8962
748.0993, 116.1367
748.5814, 116.2186
749.0635, 116.1983
749.5457, 116.2183
750.0278, 116.1261
750.5099, 115.5783
750.9920, 114.1708
751.4741, 113.0741
751.9562, 112.5245
752.4384, 112.4014
752.9205, 112.5503
753.4026, 112.9596
753.8847, 113.1345
754.3668, 112.8770
754.8489, 112.2887
755.3311, 111.1791
755.8132, 109.8183
756.2953, 109.0305
756.7774, 109.7898
757.2595, 110.6229
757.7416, 110.8211
758.2238, 110.4583
758.7059, 110.0816
759.1880, 109.6011
759.6701, 109.3125
760.1522, 109.3537
760.6343, 109.6561
761.1165, 109.9111
761.5986, 110.1237
762.0807, 110.1328
762.5628, 109.6054
763.0449, 108.9236
763.5270, 108.8703
764.0092, 109.3285
764.4913, 109.6666
764.9734, 109.4914
765.4555, 109.1248
765.9376, 108.6554
766.4197, 108.0914
766.9019, 107.8356
767.3840, 108.1239
767.8661, 108.4009
768.3482, 108.3868
768.8303, 108.1009
769.3124, 108.1047
769.7946, 108.4344
770.2767, 108.6167
770.7588, 108.1412
771.2409, 107.3562
771.7230, 106.7743
772.2051, 106.4326
772.6873, 106.5065
773.1694, 107.6601
773.6515, 108.8333
774.1336, 109.2100
774.6157, 108.5281
775.0978, 108.2321
775.5800, 108.6439
776.0621, 109.0771
776.5442, 109.1278
777.0263, 108.7795
777.5084, 108.3013
777.9905, 107.6595
778.4727, 107.1833
778.9548, 107.1882
779.4369, 107.5389
779.9190, 108.0897
780.4011, 108.8335
780.8832, 109.4564
781.3654, 109.8183
781.8475, 109.9575
782.3296, 109.8747
782.8117, 109.4972
783.2938, 109.1028
783.7759, 108.6027
784.2581, 108.2124
784.7402, 108.1278
785.2223, 108.3494
785.7044, 108.5976
786.1865, 108.8599
786.6686, 109.1450
787.1508, 109.6126
787.6329, 110.0490
788.1150, 110.0427
788.5971, 109.4498
789.0792, 108.9620
789.5613, 108.8719
790.0435, 109.0427
790.5256, 109.4331
791.0077, 110.2918
791.4898, 110.6060
791.9719, 110.1389
792.4540, 109.5163
792.9362, 109.1922
793.4183, 109.1813
793.9004, 109.9305
794.3825, 111.5820
794.8646, 113.0836
795.3467, 113.2732
795.8289, 112.7781
796.3110, 112.4783
796.7931, 112.6150
797.2752, 112.5592
797.7573, 111.9143
798.2394, 111.0932
798.7216, 110.4023
799.2037, 109.7018
799.6858, 109.5460
800.1679, 110.0659
800.6500, 110.8328
801.1321, 111.5260
801.6143, 112.1200
802.0964, 112.4868
802.5785, 112.5994
803.0606, 112.5939
803.5427, 112.5247
804.0248, 112.4326
804.5070, 112.3711
804.9891, 112.3776
805.4712, 112.3289
805.9533, 112.2341
806.4354, 112.0461
806.9175, 111.6901
807.3997, 111.0836
807.8818, 110.6582
808.3639, 110.4216
808.8460, 110.3923
809.3281, 110.7916
809.8102, 111.3960
810.2924, 111.5415
810.7745, 111.0854
811.2566, 110.6888
811.7387, 111.0306
812.2208, 111.5169
812.7029, 111.5626
813.1851, 110.7852
813.6672, 110.3768
814.1493, 110.4624
814.6314, 110.8342
815.1135, 111.5341
815.5956, 112.6145
816.0778, 112.5900
816.5599, 111.2598
817.0420, 109.9900
817.5241, 110.3463
818.0062, 111.5272
818.4883, 112.3074
818.9705, 112.4881
819.4526, 112.5371
819.9347, 112.5712
820.4168, 112.6321
820.8989, 112.8047
821.3810, 113.2069
821.8632, 113.2039
822.3453, 112.6741
822.8274, 112.0031
823.3095, 111.5233
823.7916, 111.1842
824.2737, 110.5927
824.7559, 109.7201
825.2380, 109.2594
825.7201, 110.2677
826.2022, 111.6638
826.6843, 112.3389
827.1664, 112.0932
827.6486, 111.8083
828.1307, 111.6427
828.6128, 111.5273
829.0949, 111.4607
829.5770, 111.4571
830.0591, 111.2277
830.5413, 110.7190
831.0234, 110.3200
831.5055, 110.4065
831.9876, 110.7767
832.4697, 111.0661
832.9518, 111.2560
833.4340, 111.3818
833.9161, 111.2747
834.3982, 111.2631
834.8803, 111.7141
835.3624, 112.6944
835.8445, 112.9975
836.3267, 112.2105
836.8088, 111.5613
837.2909, 111.7669
837.7730, 112.6340
838.2551, 112.9489
838.7372, 112.7478
839.2194, 112.5934
839.7015, 113.0572
840.1836, 113.5931
840.6657, 113.6495
841.1478, 113.2684
841.6299, 112.7949
842.1121, 111.9068
842.5942, 111.4369
843.0763, 111.7874
843.5584, 112.7886
844.0405, 113.4618
844.5226, 113.7545
845.0048, 114.0859
845.4869, 114.6652
845.9690, 115.3750
846.4511, 116.0483
846.9332, 116.6592
847.4153, 117.1146
847.8975, 117.4575
848.3796, 117.5428
848.8617, 117.0746
849.3438, 116.2748
849.8259, 115.8718
850.3080, 115.9226
850.7902, 116.3197
851.2723, 117.2102
851.7544, 118.2398
852.2365, 118.3916
852.7186, 117.8577
853.2007, 117.8127
853.6829, 118.9921
854.1650, 120.2983
854.6471, 120.7477
855.1292, 120.6718
855.6113, 120.6283
856.0934, 120.7915
856.5756, 120.9614
857.0577, 121.1009
857.5398, 121.2440
858.0219, 121.5006
858.5040, 121.8893
858.9861, 121.9945
859.4683, 121.6838
859.9504, 121.3060
860.4325, 121.0560
860.9146, 121.1074
861.3967, 121.8766
861.8788, 123.8260
862.3610, 125.4944
862.8431, 126.4626
863.3252, 126.7808
863.8073, 126.4405
864.2894, 125.0179
864.7715, 124.2832
865.2537, 124.3719
865.7358, 124.7982
866.2179, 125.2138
866.7000, 125.5739
867.1821, 125.7601
867.6642, 125.7623
868.1464, 125.6165
868.6285, 125.0457
869.1106, 124.5566
869.5927, 124.6381
870.0748, 125.5302
870.5569, 125.9232
871.0391, 125.5664
871.5212, 125.1655
872.0033, 125.2541
872.4854, 125.7066
872.9675, 125.4938
873.4496, 124.6512
873.9318, 123.7809
874.4139, 123.0102
874.8960, 122.6059
875.3781, 123.1457
875.8602, 124.4545
876.3423, 125.1277
876.8245, 124.0525
877.3066, 123.2334
877.7887, 123.4048
878.2708, 124.2090
878.7529, 124.0855
879.2350, 123.0379
879.7172, 121.8210
880.1993, 120.4896
880.6814, 119.4933
881.1635, 119.7273
881.6456, 120.7528
882.1277, 121.5449
882.6099, 121.5721
883.0920, 121.4972
883.5741, 121.6178
884.0562, 121.6887
884.5383, 121.2178
885.0204, 120.0869
885.5026, 119.1582
885.9847, 118.5858
886.4668, 118.2587
886.9489, 118.0337
887.4310, 117.9383
887.9131, 118.0598
888.3953, 118.4970
888.8774, 118.9220
889.3595, 119.3562
889.8416, 119.6006
890.3237, 119.4879
890.8058, 119.0388
891.2880, 117.9770
891.7701, 115.9634
892.2522, 114.4176
892.7343, 115.2112
893.2164, 117.4063
893.6985, 118.3851
894.1807, 117.9464
894.6628, 117.3762
895.1449, 117.7216
895.6270, 118.0348
896.1091, 117.4375
896.5912, 115.7857
897.0734, 115.1898
897.5555, 116.1503
898.0376, 116.9722
898.5197, 116.6989
899.0018, 115.7089
899.4839, 115.3879
899.9661, 115.6347
900.4482, 115.8587
900.9303, 115.6248
901.4124, 115.3632
901.8945, 115.3306
902.3766, 115.5003
902.8588, 115.7834
903.3409, 116.2845
903.8230, 116.6729
904.3051, 116.8847
904.7872, 116.9651
905.2693, 117.0882
905.7515, 117.1964
906.2336, 116.8558
906.7157, 115.7258
907.1978, 114.7308
907.6799, 114.8620
908.1620, 115.5005
908.6442, 115.9070
909.1263, 115.9035
909.6084, 115.6547
910.0905, 114.9979
910.5726, 114.3457
911.0547, 114.0617
911.5369, 114.1294
912.0190, 114.3362
912.5011, 114.6719
912.9832, 115.1057
913.4653, 115.9277
913.9474, 116.6225
914.4296, 116.4671
914.9117, 115.3496
915.3938, 114.9039
915.8759, 115.9646
916.3580, 116.8861
916.8401, 116.9228
917.3223, 116.2631
917.8044, 116.0112
918.2865, 116.1486
918.7686, 116.3507
919.2507, 116.4411
919.7328, 116.5197
920.2150, 116.6532
920.6971, 116.8535
921.1792, 117.1521
921.6613, 117.9000
922.1434, 118.2638
922.6255, 117.9538
923.1077, 117.3736
923.5898, 117.1720
924.0719, 117.3447
924.5540, 117.8355
925.0361, 118.6991
925.5182, 119.6090
926.0004, 120.4011
926.4825, 120.9773
926.9646, 121.1314
927.4467, 120.4853
927.9288, 120.4340
928.4109, 121.4097
928.8931, 122.6289
929.3752, 123.6020
929.8573, 124.3285
930.3394, 124.8438
930.8215, 125.1447
931.3036, 125.5580
931.7858, 126.5376
932.2679, 127.5905
932.7500, 127.9190
933.2321, 127.7018
933.7142, 128.4687
934.1964, 131.7370
934.6785, 134.4446
935.1606, 135.7021
935.6427, 135.9403
936.1248, 136.3161
936.6069, 136.8255
937.0891, 137.3286
937.5712, 137.6559
938.0533, 138.2124
938.5354, 139.3013
939.0175, 140.9058
939.4996, 142.9832
939.9818, 146.1434
940.4639, 148.9385
940.9460, 151.4248
941.4281, 153.3442
941.9102, 153.9818
942.3923, 153.5612
942.8745, 154.3753
943.3566, 156.6309
943.8387, 158.9859
944.3208, 159.7128
944.8029, 160.4935
945.2850, 163.1443
945.7672, 167.8760
946.2493, 171.6560
946.7314, 174.0753
947.2135, 175.8709
947.6956, 177.0919
948.1777, 178.0157
948.6599, 179.6108
949.1420, 181.7995
949.6241, 184.1085
950.1062, 186.1378
950.5883, 188.4262
951.0704, 191.8134
951.5526, 195.6304
952.0347, 198.4520
952.5168, 199.1363
952.9989, 201.1184
953.4810, 205.0463
953.9631, 209.5503
954.4453, 212.8505
954.9274, 215.2849
955.4095, 218.0727
955.8916, 221.3749
956.3737, 224.6927
956.8558, 227.7763
957.3380, 230.6736
957.8201, 233.2520
958.3022, 235.4550
958.7843, 238.5522
959.2664, 242.7134
959.7485, 247.3128
960.2307, 252.3375
960.7128, 257.3910
961.1949, 261.1850
961.6770, 264.1017
962.1591, 267.4058
962.6412, 271.4858
963.1234, 276.3492
963.6055, 282.2698
964.0876, 288.9339
964.5697, 295.9256
965.0518, 303.1859
965.5339, 310.9005
966.0161, 319.2589
966.4982, 327.5781
966.9803, 334.1550
967.4624, 340.5151
967.9445, 349.2641
968.4266, 361.0869
968.9088, 373.4414
969.3909, 385.1590
969.8730, 397.5239
970.3551, 411.2539
970.8372, 426.1308
971.3193, 442.3992
971.8015, 459.9232
972.2836, 478.8964
972.7657, 498.7626
973.2478, 520.3810
973.7299, 543.9333
974.2120, 570.2740
974.6942, 601.6920
975.1763, 641.3057
975.6584, 682.7565
976.1405, 724.4929
976.6226, 768.7950
977.1047, 819.2086
977.5869, 875.8558
978.0690, 936.2742
978.5511, 999.8968
979.0332, 1064.505
979.5153, 1129.686
979.9974, 1194.611
980.4796, 1257.918
980.9617, 1318.883
981.4438, 1383.537
981.9259, 1451.995
982.4080, 1525.698
982.8901, 1605.721
983.3723, 1692.134
983.8544, 1784.330
984.3365, 1882.893
984.8186, 1990.233
985.3007, 2107.295
985.7828, 2233.749
986.2650, 2375.882
986.7471, 2526.208
987.2292, 2673.792
987.7113, 2822.164
988.1934, 2957.872
988.6755, 3083.671
989.1577, 3181.658
989.6398, 3242.505
990.1219, 3257.023
990.6040, 3206.735
991.0861, 3089.436
991.5682, 2922.545
992.0504, 2682.954
992.5325, 2423.925
993.0146, 2158.631
993.4967, 1896.658
993.9788, 1665.665
994.4609, 1465.619
994.9431, 1293.753
995.4252, 1151.854
995.9073, 1032.916
996.3894, 931.5074
996.8715, 845.4826
997.3536, 769.2621
997.8358, 706.3240
998.3179, 648.2567
998.8000, 594.7487
999.2821, 545.9056
999.7642, 501.0110
1000.246, 459.9491
1000.728, 425.0049
1001.211, 395.6986
1001.693, 369.4258
1002.175, 344.1542
1002.657, 321.1006
1003.139, 301.7877
1003.621, 285.7967
1004.103, 270.6286
1004.585, 256.0741
1005.068, 243.2808
1005.550, 232.6956
1006.032, 223.5405
1006.514, 214.2884
1006.996, 205.4267
1007.478, 197.7893
1007.960, 191.9495
1008.442, 186.6327
1008.924, 181.6043
1009.407, 176.7189
1009.889, 171.6272
1010.371, 166.3016
1010.853, 162.5955
1011.335, 160.4829
1011.817, 158.4322
1012.299, 154.9833
1012.781, 151.4473
1013.263, 149.3212
1013.746, 148.1485
1014.228, 146.1737
1014.710, 142.3452
1015.192, 139.1965
1015.674, 137.1727
1016.156, 135.8819
1016.638, 134.8377
1017.120, 134.0009
1017.603, 133.3830
1018.085, 133.0552
1018.567, 132.2717
1019.049, 129.8836
1019.531, 127.4909
1020.013, 126.2432
1020.495, 126.0960
1020.977, 125.9168
1021.459, 125.7182
1021.942, 125.3835
1022.424, 124.9220
1022.906, 124.2210
1023.388, 122.8560
1023.870, 121.1781
1024.352, 119.8734
1024.834, 118.9953
1025.316, 118.8033
1025.799, 119.5384
1026.281, 120.6080
1026.763, 121.5066
1027.245, 122.2130
1027.727, 122.6676
1028.209, 122.8687
1028.691, 122.8659
1029.173, 122.4813
1029.656, 122.0928
1030.138, 121.7253
1030.620, 121.5479
1031.102, 122.4072
1031.584, 124.6869
1032.066, 126.4248
1032.548, 127.0369
1033.030, 127.1676
1033.512, 127.3136
1033.995, 127.7891
1034.477, 129.3019
1034.959, 132.3832
1035.441, 135.0332
1035.923, 136.3833
1036.405, 137.6145
1036.887, 139.3161
1037.369, 141.4562
1037.851, 144.0885
1038.334, 147.1017
1038.816, 149.8409
1039.298, 151.3126
1039.780, 153.0030
1040.262, 156.2390
1040.744, 160.3459
1041.226, 163.9235
1041.708, 166.6060
1042.191, 169.7856
1042.673, 173.6436
1043.155, 177.8624
1043.637, 182.0943
1044.119, 186.5314
1044.601, 191.8121
1045.083, 197.9652
1045.565, 203.4346
1046.047, 207.2493
1046.530, 210.7835
1047.012, 214.1888
1047.494, 217.7389
1047.976, 222.5131
1048.458, 228.3564
1048.940, 233.5948
1049.422, 237.9171
1049.904, 241.1684
1050.386, 242.6979
1050.869, 243.4642
1051.351, 244.5769
1051.833, 246.3797
1052.315, 246.8575
1052.797, 245.9131
1053.279, 244.0588
1053.761, 241.2506
1054.243, 237.9184
1054.726, 235.0000
1055.208, 232.1566
1055.690, 228.4934
1056.172, 223.2986
1056.654, 217.7032
1057.136, 211.5462
1057.618, 205.4624
1058.100, 200.4261
1058.583, 196.2164
1059.065, 191.1717
1059.547, 185.1930
1060.029, 179.5240
1060.511, 175.2995
1060.993, 171.5529
1061.475, 167.7719
1061.957, 163.9846
1062.439, 160.3756
1062.922, 156.9057
1063.404, 153.8734
1063.886, 151.4188
1064.368, 149.3001
1064.850, 147.2768
1065.332, 145.3485
1065.814, 143.4113
1066.296, 141.2990
1066.778, 140.0469
1067.261, 140.2348
1067.743, 140.3309
1068.225, 139.5825
1068.707, 138.1406
1069.189, 136.1268
1069.671, 133.8197
1070.153, 132.2643
1070.635, 132.4951
1071.118, 132.8098
1071.600, 132.2698
1072.082, 131.6662
1072.564, 131.8901
1073.046, 133.0337
1073.528, 133.8964
1074.010, 134.4389
1074.492, 134.5336
1074.974, 133.1496
1075.457, 132.0489
1075.939, 133.2621
1076.421, 136.2011
1076.903, 138.2762
1077.385, 139.0408
1077.867, 139.6386
1078.349, 140.1306
1078.831, 140.8414
1079.313, 142.1934
1079.796, 144.0711
1080.278, 146.3890
1080.760, 149.1803
1081.242, 151.8029
1081.724, 153.6590
1082.206, 155.7639
1082.688, 158.3882
1083.170, 161.5187
1083.652, 165.2377
1084.135, 169.4646
1084.617, 173.5598
1085.099, 177.0923
1085.581, 181.0510
1086.063, 186.6923
1086.545, 192.5441
1087.027, 197.1334
1087.509, 200.1545
1087.992, 204.9011
1088.474, 211.4473
1088.956, 218.6274
1089.438, 225.8023
1089.920, 233.1962
1090.402, 241.3601
1090.884, 249.9522
1091.366, 258.2235
1091.849, 265.6956
1092.331, 273.6092
1092.813, 282.1358
1093.295, 290.7775
1093.777, 299.0697
1094.259, 307.0777
1094.741, 315.3845
1095.223, 323.8471
1095.705, 331.3561
1096.188, 336.7925
1096.670, 341.9195
1097.152, 347.3301
1097.634, 352.5681
1098.116, 357.2407
1098.598, 361.1818
1099.080, 363.3048
1099.562, 363.4267
1100.044, 362.1346
1100.527, 359.9242
1101.009, 356.2735
1101.491, 350.6021
1101.973, 343.1566
1102.455, 335.1900
1102.937, 326.6540
1103.419, 317.9228
1103.901, 309.1389
1104.384, 300.3473
1104.866, 291.2862
1105.348, 282.5688
1105.830, 274.8947
1106.312, 268.6094
1106.794, 262.6126
1107.276, 256.8676
1107.758, 251.4758
1108.240, 246.2861
1108.723, 241.5921
1109.205, 237.7576
1109.687, 234.6813
1110.169, 232.0967
1110.651, 229.7571
1111.133, 228.1835
1111.615, 227.4881
1112.097, 227.3437
1112.579, 227.4082
1113.062, 227.7742
1113.544, 229.0220
1114.026, 231.0207
1114.508, 232.7770
1114.990, 232.9196
1115.472, 233.7886
1115.954, 236.3668
1116.436, 239.9891
1116.919, 243.8310
1117.401, 247.9048
1117.883, 251.8054
1118.365, 255.4678
1118.847, 259.5644
1119.329, 264.6442
1119.811, 270.2911
1120.293, 276.8896
1120.776, 283.8517
1121.258, 288.4698
1121.740, 290.3585
1122.222, 293.6774
1122.704, 299.7060
1123.186, 306.1763
1123.668, 310.6405
1124.150, 314.4412
1124.632, 319.3761
1125.115, 325.8996
1125.597, 330.5443
1126.079, 332.7816
1126.561, 334.8798
1127.043, 338.0529
1127.525, 341.0495
1128.007, 341.8078
1128.489, 340.9425
1128.971, 339.5055
1129.454, 337.8996
1129.936, 335.1751
1130.418, 331.0417
1130.900, 326.3358
1131.382, 321.7371
1131.864, 316.8151
1132.346, 309.7102
1132.828, 301.0290
1133.311, 292.6986
1133.793, 285.9932
1134.275, 279.0277
1134.757, 271.1428
1135.239, 262.9589
1135.721, 254.9349
1136.203, 247.1116
1136.685, 239.2854
1137.167, 231.4288
1137.650, 223.6189
1138.132, 215.1326
1138.614, 207.5754
1139.096, 202.2176
1139.578, 197.8919
1140.060, 193.2526
1140.542, 188.2632
1141.024, 182.6705
1141.506, 176.4304
1141.989, 171.0491
1142.471, 168.5469
1142.953, 166.4253
1143.435, 162.5273
1143.917, 157.5361
1144.399, 153.9312
1144.881, 151.9686
1145.363, 149.6482
1145.846, 146.6446
1146.328, 143.4371
1146.810, 140.2321
1147.292, 137.3275
1147.774, 135.1736
1148.256, 133.7755
1148.738, 131.8237
1149.220, 129.0534
1149.703, 126.7273
1150.185, 125.2580
1150.667, 124.1796
1151.149, 123.0649
1151.631, 121.8426
1152.113, 120.3459
1152.595, 118.4861
1153.077, 116.8857
1153.559, 115.7573
1154.042, 114.3484
1154.524, 112.0408
1155.006, 109.7454
1155.488, 109.7182
1155.970, 110.8093
1156.452, 110.6766
1156.934, 108.1648
1157.416, 106.2232
1157.898, 105.3848
1158.381, 104.7848
1158.863, 103.9545
1159.345, 103.0094
1159.827, 102.3078
1160.309, 101.7811
1160.791, 101.2464
1161.273, 100.5889
1161.755, 100.0335
1162.238, 99.87975
1162.720, 99.50390
1163.202, 98.21302
1163.684, 96.27709
1164.166, 95.13862
1164.648, 94.66489
1165.130, 94.29336
1165.612, 93.71059
1166.094, 93.24512
1166.577, 93.12902
1167.059, 93.04594
1167.541, 92.58065
1168.023, 91.81176
1168.505, 91.69100
1168.987, 92.13811
1169.469, 92.24092
1169.951, 90.93603
1170.433, 89.77657
1170.916, 89.69827
1171.398, 90.00767
1171.880, 89.75794
1172.362, 88.99024
1172.844, 88.59128
1173.326, 88.62287
1173.808, 88.67555
1174.290, 88.69454
1174.773, 88.42168
1175.255, 87.27005
1175.737, 85.88236
1176.219, 85.73926
1176.701, 86.85027
1177.183, 86.97175
1177.665, 85.76279
1178.147, 84.55875
1178.630, 84.41942
1179.112, 84.65878
1179.594, 84.99895
1180.076, 85.29968
1180.558, 85.06831
1181.040, 84.25814
1181.522, 83.86483
1182.004, 84.14053
1182.486, 84.41044
1182.969, 84.08929
1183.451, 83.49541
1183.933, 82.70670
1184.415, 81.83405
1184.897, 81.57592
1185.379, 82.00108
1185.861, 82.25576
1186.343, 82.11977
1186.825, 81.75439
1187.308, 81.05628
1187.790, 80.39308
1188.272, 80.30582
1188.754, 80.77117
1189.236, 80.38126
1189.718, 78.97464
1190.200, 78.36861
1190.682, 79.42403
1191.165, 80.68580
1191.647, 80.49654
1192.129, 79.75158
1192.611, 79.34532
1193.093, 79.36968
1193.575, 79.94319
1194.057, 81.22615
1194.539, 81.81674
1195.021, 80.87672
1195.504, 79.61501
1195.986, 79.24850
1196.468, 79.45529
1196.950, 80.00716
1197.432, 81.04421
1197.914, 80.99432
1198.396, 79.66321
1198.878, 78.56594
1199.360, 78.58393
1199.843, 78.94999
1200.325, 78.71879
1200.807, 78.28594
1201.289, 78.28927
1201.771, 78.99511
1202.253, 79.14746
1202.735, 78.67146
1203.217, 78.12282
1203.700, 77.70708
1204.182, 77.51350
1204.664, 77.93587
1205.146, 78.53777
1205.628, 78.52132
1206.110, 77.41125
1206.592, 77.17115
1207.074, 77.93648
1207.557, 78.68887
1208.039, 78.73316
1208.521, 78.46755
1209.003, 78.21606
1209.485, 78.00748
1209.967, 77.91582
1210.449, 78.02137
1210.931, 78.00399
1211.413, 77.85358
1211.896, 77.63477
1212.378, 77.25981
1212.860, 76.95295
1213.342, 77.16003
1213.824, 77.56758
1214.306, 77.46658
1214.788, 76.55871
1215.270, 76.04296
1215.752, 75.95674
1216.235, 76.17545
1216.717, 77.05547
1217.199, 77.80512
1217.681, 77.42493
1218.163, 76.34789
1218.645, 75.58141
1219.127, 75.24724
1219.609, 74.89333
1220.092, 74.47318
1220.574, 74.27520
1221.056, 74.53369
1221.538, 75.11073
1222.020, 76.22739
1222.502, 77.47108
1222.984, 78.00302
1223.466, 77.78774
1223.948, 76.70329
1224.431, 74.64268
1224.913, 73.03093
1225.395, 73.34268
1225.877, 74.27657
1226.359, 74.99526
1226.841, 75.43969
1227.323, 75.60644
1227.805, 75.47578
1228.287, 75.13466
1228.770, 74.57136
1229.252, 74.17696
1229.734, 74.47903
1230.216, 74.86077
1230.698, 74.68951
1231.180, 74.31498
1231.662, 74.59726
1232.144, 75.60197
1232.627, 76.41612
1233.109, 76.96976
1233.591, 77.12955
1234.073, 76.60011
1234.555, 75.84959
1235.037, 74.87176
1235.519, 74.01875
1236.001, 74.14768
1236.484, 75.25797
1236.966, 75.45218
1237.448, 74.56495
1237.930, 73.69979
1238.412, 73.56802
1238.894, 73.71706
1239.376, 74.06985
1239.858, 74.44115
1240.340, 74.46589
1240.823, 74.18890
1241.305, 74.19387
1241.787, 74.52319
1242.269, 74.76424
1242.751, 74.30019
1243.233, 74.15015
1243.715, 75.16800
1244.197, 76.37389
1244.679, 75.89103
1245.162, 74.15279
1245.644, 73.67442
1246.126, 74.59493
1246.608, 75.34413
1247.090, 75.12002
1247.572, 74.47334
1248.054, 73.26075
1248.536, 72.20824
1249.019, 72.80180
1249.501, 74.45325
1249.983, 75.24312
1250.465, 75.06284
1250.947, 74.85677
1251.429, 74.94167
1251.911, 75.20171
1252.393, 75.73727
1252.875, 76.20187
1253.358, 76.02154
1253.840, 75.44924
1254.322, 75.00179
1254.804, 74.72397
1255.286, 74.59862
1255.768, 74.87200
1256.250, 74.79816
1256.732, 74.11457
1257.214, 73.44247
1257.697, 73.72073
1258.179, 74.42245
1258.661, 74.75455
1259.143, 74.69302
1259.625, 74.41358
1260.107, 73.69080
1260.589, 73.51380
1261.071, 74.12561
1261.554, 74.87544
1262.036, 75.35091
1262.518, 75.36527
1263.000, 74.28323
1263.482, 72.46912
1263.964, 71.72122
1264.446, 72.36196
1264.928, 72.97791
1265.411, 73.43404
1265.893, 73.49500
1266.375, 72.40633
1266.857, 71.31616
1267.339, 71.39327
1267.821, 72.28216
1268.303, 72.72853
1268.785, 72.69469
1269.267, 72.70704
1269.750, 72.81799
1270.232, 73.06863
1270.714, 73.84702
1271.196, 74.41066
1271.678, 74.02892
1272.160, 73.23390
1272.642, 72.73634
1273.124, 72.55508
1273.606, 73.12414
1274.089, 74.41555
1274.571, 75.41885
1275.053, 75.65775
1275.535, 75.25794
1276.017, 73.79512
1276.499, 72.29848
1276.981, 72.44671
1277.463, 73.72334
1277.946, 74.15280
1278.428, 73.68661
1278.910, 73.00435
1279.392, 72.04526
1279.874, 71.44260
1280.356, 71.35960
1280.838, 71.52036
1281.320, 71.66468
1281.802, 71.80650
1282.285, 72.11193
1282.767, 72.47243
1283.249, 72.37191
1283.731, 71.10751
1284.213, 70.60455
1284.695, 71.21053
1285.177, 71.82699
1285.659, 71.13004
1286.141, 70.10078
1286.624, 69.94846
1287.106, 70.51505
1287.588, 71.33587
1288.070, 72.56010
1288.552, 73.10742
1289.034, 72.87652
1289.516, 72.49980
1289.998, 72.31609
1290.481, 72.32565
1290.963, 72.80814
1291.445, 73.34203
1291.927, 73.21134
1292.409, 72.36848
1292.891, 71.53973
1293.373, 70.77773
1293.855, 70.54442
1294.338, 71.69759
1294.820, 72.74717
1295.302, 73.01719
1295.784, 72.81580
1296.266, 72.24092
1296.748, 71.37210
1297.230, 70.60940
1297.712, 70.03138
1298.194, 69.94241
1298.677, 71.00624
1299.159, 71.73959
1299.641, 71.79034
1300.123, 71.74040
1300.605, 72.03931
1301.087, 72.54345
1301.569, 72.96715
1302.051, 73.28772
1302.533, 73.47753
1303.016, 73.46278
##END=



