##NAMES=Magnesiotaaffeite-2N2S
##RRUFFID=X090001
##IDEAL CHEMISTRY=Mg_3_BeAl_8_O_16_
##LOCALITY=Ratnapura, Sri Lanka
##OWNER=Bill Pinch
##SOURCE=William W. Pinch
##DESCRIPTION=Dark grey with a hint of purple, flattened tabular hexagonal crystal
##STATUS=The identification of this mineral has been confirmed by single-crystal X-ray diffraction.
##URL=rruff.info/X090001
92.37695, 304.3333
92.85907, 308.3574
93.34119, 308.0354
93.82330, 300.3643
94.30542, 290.8110
94.78754, 282.1499
95.26965, 274.7780
95.75177, 268.2224
96.23389, 262.4944
96.71600, 257.6136
97.19812, 253.9609
97.68024, 251.8436
98.16235, 250.1355
98.64447, 247.1519
99.12659, 242.1965
99.60870, 237.3877
100.0908, 233.7032
100.5729, 231.0366
101.0551, 229.3752
101.5372, 228.7370
102.0193, 228.8726
102.5014, 228.6639
102.9835, 227.3454
103.4656, 226.3982
103.9478, 226.3879
104.4299, 226.9170
104.9120, 227.2733
105.3941, 226.9239
105.8762, 225.8243
106.3583, 224.0340
106.8405, 220.8116
107.3226, 217.5689
107.8047, 214.9211
108.2868, 212.9782
108.7689, 211.7756
109.2510, 211.6814
109.7332, 212.8038
110.2153, 213.2803
110.6974, 212.4348
111.1795, 210.9115
111.6616, 209.5869
112.1437, 208.5640
112.6259, 207.9849
113.1080, 208.3145
113.5901, 209.4709
114.0722, 210.1481
114.5543, 209.0137
115.0364, 206.1878
115.5185, 204.3228
116.0007, 204.8285
116.4828, 205.8793
116.9649, 206.5524
117.4470, 206.6843
117.9291, 206.3014
118.4112, 205.1258
118.8934, 202.2415
119.3755, 200.9147
119.8576, 202.6768
120.3397, 205.2384
120.8218, 206.7871
121.3039, 206.5931
121.7861, 205.2448
122.2682, 204.4421
122.7503, 205.0918
123.2324, 202.9279
123.7145, 205.7697
124.1966, 207.2996
124.6788, 207.5883
125.1609, 202.9123
125.6430, 204.6518
126.1251, 203.8230
126.6072, 202.8908
127.0893, 205.5390
127.5715, 201.5953
128.0536, 204.1907
128.5357, 204.1786
129.0178, 205.3627
129.4999, 203.9628
129.9821, 203.3636
130.4642, 205.3533
130.9463, 205.9127
131.4284, 204.2230
131.9105, 205.4950
132.3926, 201.4810
132.8748, 202.1092
133.3569, 204.7417
133.8390, 203.1920
134.3211, 204.5213
134.8032, 204.7568
135.2853, 200.0148
135.7674, 203.9348
136.2496, 204.1115
136.7317, 200.4448
137.2138, 204.0740
137.6959, 200.9415
138.1780, 200.2251
138.6601, 201.3277
139.1423, 200.5382
139.6244, 202.7368
140.1065, 202.0607
140.5886, 201.1295
141.0707, 201.3220
141.5528, 198.3380
142.0350, 201.2528
142.5171, 200.1415
142.9992, 201.0345
143.4813, 202.3833
143.9634, 200.2591
144.4455, 201.8158
144.9277, 197.6693
145.4098, 198.2986
145.8919, 198.4158
146.3740, 201.5862
146.8561, 197.4755
147.3382, 197.9801
147.8204, 200.4509
148.3025, 200.1753
148.7846, 201.0508
149.2667, 200.2192
149.7488, 200.0580
150.2309, 199.0525
150.7131, 198.0226
151.1952, 196.9666
151.6773, 196.0595
152.1594, 195.9778
152.6415, 197.3730
153.1236, 199.3714
153.6058, 200.6205
154.0879, 201.0218
154.5700, 200.9643
155.0521, 200.6694
155.5342, 200.1331
156.0163, 199.4877
156.4985, 198.3344
156.9806, 197.3405
157.4627, 197.2202
157.9448, 198.2621
158.4269, 199.6893
158.9090, 200.3559
159.3912, 200.0527
159.8733, 199.4503
160.3554, 198.2812
160.8375, 197.1276
161.3196, 196.5840
161.8017, 196.9431
162.2839, 197.8776
162.7660, 198.4058
163.2481, 198.1826
163.7302, 197.9806
164.2123, 198.0266
164.6944, 198.1306
165.1766, 198.0340
165.6587, 197.5792
166.1408, 196.8331
166.6229, 196.2224
167.1050, 195.4520
167.5871, 195.1316
168.0693, 195.7942
168.5514, 197.0062
169.0335, 197.8916
169.5156, 197.8136
169.9977, 196.8649
170.4798, 196.5570
170.9620, 197.7118
171.4441, 198.5954
171.9262, 198.1026
172.4083, 196.4936
172.8904, 195.0625
173.3725, 194.8476
173.8547, 195.7385
174.3368, 196.1508
174.8189, 195.8389
175.3010, 195.2268
175.7831, 194.5084
176.2652, 193.6793
176.7474, 193.0999
177.2295, 193.2819
177.7116, 193.9266
178.1937, 194.2983
178.6758, 194.0568
179.1579, 193.5232
179.6401, 193.1386
180.1222, 192.9054
180.6043, 192.8279
181.0864, 192.9714
181.5685, 193.2552
182.0506, 193.5699
182.5328, 193.9505
183.0149, 194.3172
183.4970, 194.3971
183.9791, 194.0334
184.4612, 193.6024
184.9433, 193.1606
185.4255, 192.7831
185.9076, 192.6359
186.3897, 192.9861
186.8718, 193.7332
187.3539, 193.7595
187.8360, 192.4192
188.3182, 190.9664
188.8003, 189.5095
189.2824, 188.2171
189.7645, 187.3398
190.2466, 187.1038
190.7287, 187.5275
191.2109, 188.1422
191.6930, 189.5224
192.1751, 190.5491
192.6572, 190.6111
193.1393, 189.9516
193.6214, 189.2787
194.1036, 189.2615
194.5857, 190.0536
195.0678, 190.2165
195.5499, 189.2739
196.0320, 188.2876
196.5141, 187.8542
196.9963, 187.9029
197.4784, 187.8907
197.9605, 187.2459
198.4426, 185.8253
198.9247, 185.0612
199.4068, 185.5811
199.8890, 186.2142
200.3711, 186.0368
200.8532, 185.0320
201.3353, 184.0530
201.8174, 183.9641
202.2995, 184.8331
202.7817, 185.3374
203.2638, 185.6080
203.7459, 185.3921
204.2280, 184.0296
204.7101, 181.3727
205.1922, 179.0531
205.6744, 178.9874
206.1565, 180.6970
206.6386, 181.9245
207.1207, 181.9018
207.6028, 181.2833
208.0849, 181.0056
208.5671, 181.2365
209.0492, 181.4101
209.5313, 180.9603
210.0134, 180.1093
210.4955, 179.2931
210.9776, 178.5668
211.4598, 177.9938
211.9419, 177.7817
212.4240, 178.1219
212.9061, 178.4263
213.3882, 178.2981
213.8703, 177.8943
214.3525, 177.4911
214.8346, 177.2395
215.3167, 177.0963
215.7988, 176.9317
216.2809, 176.8394
216.7630, 176.5556
217.2451, 175.7864
217.7273, 174.7945
218.2094, 174.0336
218.6915, 173.8047
219.1736, 174.0344
219.6557, 174.3049
220.1378, 174.7455
220.6200, 175.0542
221.1021, 175.1732
221.5842, 175.1059
222.0663, 174.8149
222.5484, 174.2043
223.0305, 173.3500
223.5127, 172.9942
223.9948, 173.7782
224.4769, 174.4221
224.9590, 174.5390
225.4411, 174.3423
225.9232, 174.2639
226.4054, 174.6335
226.8875, 175.3725
227.3696, 175.5473
227.8517, 174.4554
228.3338, 173.5168
228.8159, 173.1579
229.2981, 173.1594
229.7802, 173.0656
230.2623, 172.5515
230.7444, 171.6902
231.2265, 171.3412
231.7086, 171.5994
232.1908, 172.2091
232.6729, 173.4821
233.1550, 175.0568
233.6371, 176.3183
234.1192, 176.9120
234.6013, 176.8582
235.0835, 176.2290
235.5656, 173.9745
236.0477, 172.3847
236.5298, 172.5013
237.0119, 173.8064
237.4940, 175.1885
237.9762, 176.0683
238.4583, 176.5073
238.9404, 176.7972
239.4225, 177.0585
239.9046, 177.0811
240.3867, 176.4107
240.8689, 175.4084
241.3510, 175.1123
241.8331, 176.2802
242.3152, 178.2179
242.7973, 178.8334
243.2794, 177.5904
243.7616, 176.1460
244.2437, 174.9369
244.7258, 174.0398
245.2079, 173.8054
245.6900, 174.6469
246.1721, 175.9188
246.6543, 176.2901
247.1364, 175.5285
247.6185, 174.6303
248.1006, 173.9855
248.5827, 173.5886
249.0648, 173.4300
249.5470, 173.5645
250.0291, 173.8841
250.5112, 174.2074
250.9933, 174.5287
251.4754, 174.8837
251.9576, 175.3504
252.4397, 175.8857
252.9218, 176.3480
253.4039, 176.8157
253.8860, 177.0168
254.3681, 176.4981
254.8503, 175.2584
255.3324, 174.3291
255.8145, 174.5182
256.2966, 175.6269
256.7787, 176.6772
257.2608, 177.6051
257.7430, 178.2786
258.2251, 178.6249
258.7072, 178.6649
259.1893, 178.5312
259.6714, 178.1333
260.1535, 177.5664
260.6357, 177.4786
261.1178, 178.6076
261.5999, 179.2645
262.0820, 177.8778
262.5641, 175.1026
263.0462, 172.9585
263.5284, 172.9965
264.0105, 174.8801
264.4926, 176.6867
264.9747, 178.6691
265.4568, 180.1377
265.9389, 180.5994
266.4211, 180.3853
266.9032, 180.1727
267.3853, 180.4443
267.8674, 181.0320
268.3495, 181.1623
268.8316, 180.4925
269.3138, 179.8663
269.7959, 179.5762
270.2780, 179.5277
270.7601, 179.5620
271.2422, 179.5659
271.7243, 179.6244
272.2065, 180.1155
272.6886, 181.6076
273.1707, 182.5327
273.6528, 182.1821
274.1349, 181.2367
274.6170, 180.4204
275.0992, 180.0365
275.5813, 180.0383
276.0634, 180.3384
276.5455, 181.0658
277.0276, 181.8743
277.5097, 183.0331
277.9919, 184.0661
278.4740, 184.4455
278.9561, 183.9893
279.4382, 183.0989
279.9203, 182.4765
280.4024, 182.0801
280.8846, 182.0948
281.3667, 182.5936
281.8488, 183.3907
282.3309, 184.5347
282.8130, 185.9690
283.2951, 187.3043
283.7773, 187.8689
284.2594, 187.1834
284.7415, 186.9190
285.2236, 187.7509
285.7057, 188.4773
286.1878, 188.1577
286.6700, 186.8213
287.1521, 185.3519
287.6342, 184.7710
288.1163, 185.2831
288.5984, 185.9322
289.0805, 187.5691
289.5627, 188.5890
290.0448, 187.6048
290.5269, 185.1164
291.0090, 182.9938
291.4911, 183.1364
291.9732, 185.8288
292.4554, 187.1263
292.9375, 185.7110
293.4196, 184.2407
293.9017, 183.6360
294.3838, 183.6612
294.8659, 183.5744
295.3481, 182.7811
295.8302, 181.3882
296.3123, 180.8929
296.7944, 182.6322
297.2765, 183.8702
297.7586, 183.8624
298.2408, 183.0598
298.7229, 182.0723
299.2050, 181.2149
299.6871, 180.5636
300.1692, 180.4385
300.6513, 181.8232
301.1335, 182.5408
301.6156, 181.6972
302.0977, 180.3891
302.5798, 179.9866
303.0619, 181.0090
303.5440, 182.6275
304.0262, 183.0441
304.5083, 180.8367
304.9904, 179.5389
305.4725, 179.8123
305.9546, 180.5570
306.4367, 180.8835
306.9189, 180.5868
307.4010, 180.0777
307.8831, 179.9936
308.3652, 180.8004
308.8473, 180.7546
309.3294, 179.5565
309.8116, 177.9054
310.2937, 175.9668
310.7758, 173.9097
311.2579, 172.0910
311.7400, 170.8954
312.2221, 170.3909
312.7043, 169.9892
313.1864, 169.8667
313.6685, 169.6588
314.1506, 169.1340
314.6327, 168.3945
315.1148, 167.7080
315.5970, 167.2785
316.0791, 167.0849
316.5612, 166.8371
317.0433, 166.6331
317.5254, 166.2645
318.0075, 165.5853
318.4897, 164.7342
318.9718, 163.8315
319.4539, 162.9230
319.9360, 162.1555
320.4181, 162.0075
320.9002, 163.0863
321.3824, 164.0744
321.8645, 165.1623
322.3466, 166.0055
322.8287, 166.1287
323.3108, 165.4135
323.7929, 164.3460
324.2751, 163.7730
324.7572, 163.9978
325.2393, 164.1628
325.7214, 164.4877
326.2035, 164.6077
326.6856, 164.0625
327.1678, 162.9255
327.6499, 161.8301
328.1320, 161.4884
328.6141, 162.0633
329.0962, 162.6131
329.5783, 163.4687
330.0605, 163.9973
330.5426, 163.6614
331.0247, 162.7353
331.5068, 161.9641
331.9889, 161.9529
332.4710, 162.6326
332.9532, 162.8751
333.4353, 162.1107
333.9174, 161.5078
334.3995, 161.3803
334.8816, 161.5305
335.3637, 161.6565
335.8459, 161.6037
336.3280, 161.4562
336.8101, 161.4941
337.2922, 162.1646
337.7743, 162.3224
338.2564, 161.4603
338.7386, 160.3316
339.2206, 159.5513
339.7028, 159.3028
340.1849, 159.4421
340.6670, 159.8555
341.1491, 160.9094
341.6312, 161.2903
342.1133, 160.3410
342.5955, 159.3547
343.0776, 159.1688
343.5597, 159.7039
344.0418, 160.2546
344.5239, 160.1352
345.0060, 159.3018
345.4882, 158.5744
345.9703, 157.7459
346.4524, 157.2526
346.9345, 157.4308
347.4166, 158.0153
347.8987, 158.4867
348.3809, 158.4715
348.8630, 158.1995
349.3451, 158.6724
349.8272, 160.6352
350.3093, 162.2022
350.7914, 163.1959
351.2736, 163.5916
351.7557, 163.1350
352.2378, 161.7547
352.7199, 160.1308
353.2020, 159.3959
353.6841, 159.7224
354.1663, 160.4379
354.6484, 162.1366
355.1305, 163.6844
355.6126, 164.2102
356.0947, 163.7646
356.5768, 163.2242
357.0590, 163.5535
357.5411, 164.8011
358.0232, 165.6105
358.5053, 165.6273
358.9874, 165.5695
359.4695, 165.7063
359.9517, 165.9991
360.4338, 166.3605
360.9159, 166.8038
361.3980, 167.2369
361.8801, 167.2945
362.3622, 166.6690
362.8444, 166.3568
363.3265, 166.7710
363.8086, 167.6195
364.2907, 168.7952
364.7728, 170.3721
365.2549, 171.6954
365.7371, 171.5417
366.2192, 169.6502
366.7013, 168.7164
367.1834, 170.2607
367.6655, 172.2751
368.1476, 173.1328
368.6298, 172.8307
369.1119, 172.6461
369.5940, 173.7355
370.0761, 175.7979
370.5582, 177.4088
371.0403, 178.4577
371.5225, 179.0112
372.0046, 178.9131
372.4867, 178.3918
372.9688, 177.9600
373.4509, 177.8506
373.9330, 177.9140
374.4152, 178.0510
374.8973, 178.3123
375.3794, 178.1911
375.8615, 177.1664
376.3436, 175.7125
376.8257, 174.5064
377.3079, 173.5668
377.7900, 172.9781
378.2721, 173.0889
378.7542, 173.6881
379.2363, 173.7915
379.7184, 172.9499
380.2006, 171.8047
380.6827, 171.0808
381.1648, 170.7454
381.6469, 170.8120
382.1290, 171.7138
382.6111, 172.8492
383.0933, 173.2899
383.5754, 172.9072
384.0575, 172.3267
384.5396, 171.8184
385.0217, 171.5204
385.5038, 172.0457
385.9860, 174.5208
386.4681, 176.8206
386.9502, 177.2356
387.4323, 176.2868
387.9144, 175.9064
388.3965, 177.1547
388.8787, 179.3029
389.3608, 180.2830
389.8429, 179.0662
390.3250, 179.0235
390.8071, 181.6601
391.2892, 185.4820
391.7714, 188.8062
392.2535, 191.2312
392.7356, 193.1173
393.2177, 194.7575
393.6998, 195.9894
394.1819, 197.9371
394.6641, 200.9303
395.1462, 204.2814
395.6283, 207.7545
396.1104, 211.2629
396.5925, 214.5338
397.0746, 217.3197
397.5568, 219.8488
398.0389, 223.5543
398.5210, 230.4367
399.0031, 236.0539
399.4852, 239.2928
399.9673, 241.3204
400.4495, 243.2127
400.9316, 245.3711
401.4137, 247.9399
401.8958, 251.2519
402.3779, 255.8354
402.8600, 259.7016
403.3422, 263.0949
403.8243, 265.6928
404.3064, 266.9290
404.7885, 267.1552
405.2706, 267.3027
405.7527, 268.0253
406.2349, 269.3038
406.7170, 270.9811
407.1991, 273.2002
407.6812, 275.6393
408.1633, 278.2457
408.6454, 280.9918
409.1276, 283.7587
409.6097, 286.4867
410.0918, 289.5135
410.5739, 293.4596
411.0560, 298.4660
411.5381, 303.5568
412.0203, 308.4412
412.5024, 313.4978
412.9845, 319.3595
413.4666, 325.7350
413.9487, 331.3609
414.4308, 335.5171
414.9130, 338.2211
415.3951, 339.6335
415.8772, 339.9817
416.3593, 338.4390
416.8414, 333.8950
417.3235, 327.3896
417.8057, 319.9879
418.2878, 311.6478
418.7699, 303.0742
419.2520, 294.8150
419.7341, 286.8634
420.2162, 279.0745
420.6984, 271.1945
421.1805, 263.8197
421.6626, 257.9258
422.1447, 253.4505
422.6268, 249.0254
423.1089, 243.2320
423.5911, 237.6060
424.0732, 234.5556
424.5553, 234.3651
425.0374, 234.9191
425.5195, 234.6599
426.0016, 233.7773
426.4838, 233.5947
426.9659, 234.5108
427.4480, 235.6780
427.9301, 236.7144
428.4122, 237.7247
428.8943, 238.9417
429.3765, 240.4658
429.8586, 242.1804
430.3407, 243.8789
430.8228, 245.4930
431.3049, 247.2753
431.7870, 249.6680
432.2692, 251.8947
432.7513, 253.2088
433.2334, 253.7182
433.7155, 254.2613
434.1976, 255.6059
434.6797, 257.6252
435.1619, 258.4557
435.6440, 256.9122
436.1261, 255.5043
436.6082, 255.2669
437.0903, 255.1111
437.5724, 253.4328
438.0546, 249.7532
438.5367, 245.4735
439.0188, 242.9593
439.5009, 242.9724
439.9830, 242.2929
440.4651, 240.0195
440.9473, 237.7620
441.4294, 236.3269
441.9115, 235.5509
442.3936, 234.7941
442.8757, 233.5532
443.3578, 232.0724
443.8400, 231.3491
444.3221, 231.8395
444.8042, 231.9372
445.2863, 231.0508
445.7684, 229.5199
446.2505, 227.5390
446.7327, 225.1348
447.2148, 222.4934
447.6969, 219.8221
448.1790, 217.0856
448.6611, 213.9842
449.1432, 210.3268
449.6254, 206.6039
450.1075, 203.4671
450.5896, 200.6653
451.0717, 197.3112
451.5538, 192.6189
452.0359, 187.6762
452.5181, 183.4913
453.0002, 180.0130
453.4823, 176.9757
453.9644, 174.4025
454.4465, 172.0302
454.9286, 169.1606
455.4108, 165.5257
455.8929, 162.3121
456.3750, 159.8497
456.8571, 157.9129
457.3392, 156.1900
457.8214, 154.6636
458.3035, 153.6661
458.7856, 153.6445
459.2677, 154.6196
459.7498, 154.5493
460.2319, 152.7355
460.7141, 150.8623
461.1962, 148.8696
461.6783, 147.2722
462.1604, 147.1082
462.6425, 148.7088
463.1246, 150.7979
463.6068, 151.0056
464.0889, 148.1275
464.5710, 146.5703
465.0531, 147.4851
465.5352, 148.5659
466.0173, 148.5461
466.4995, 147.7526
466.9816, 147.3179
467.4637, 148.0937
467.9458, 149.6180
468.4279, 150.3477
468.9100, 149.9312
469.3922, 149.6382
469.8743, 149.8345
470.3564, 150.3116
470.8385, 151.0434
471.3206, 152.0121
471.8027, 152.8266
472.2849, 153.1944
472.7670, 153.1608
473.2491, 152.7639
473.7312, 151.7986
474.2133, 151.0748
474.6954, 151.3984
475.1776, 152.3965
475.6597, 153.2318
476.1418, 153.6741
476.6239, 154.0385
477.1060, 154.4219
477.5881, 154.8891
478.0703, 155.7758
478.5524, 157.2990
479.0345, 158.8411
479.5166, 159.3602
479.9987, 158.4967
480.4808, 158.3327
480.9630, 159.5678
481.4451, 161.0429
481.9272, 161.9824
482.4093, 162.4509
482.8914, 162.8841
483.3735, 163.5556
483.8557, 164.3557
484.3378, 164.8833
484.8199, 164.7053
485.3020, 164.8783
485.7841, 165.8496
486.2662, 166.8844
486.7484, 167.4655
487.2305, 167.5113
487.7126, 167.1684
488.1947, 166.4813
488.6768, 165.4836
489.1589, 164.7690
489.6411, 164.7325
490.1232, 164.3332
490.6053, 162.9967
491.0874, 161.2904
491.5695, 159.8714
492.0516, 158.9344
492.5338, 158.1532
493.0159, 157.2177
493.4980, 156.1411
493.9801, 154.9974
494.4622, 153.5936
494.9443, 152.5168
495.4265, 152.8179
495.9086, 153.9020
496.3907, 154.0083
496.8728, 151.8592
497.3549, 149.3338
497.8370, 147.8344
498.3192, 147.2566
498.8013, 147.3678
499.2834, 148.2374
499.7655, 149.3154
500.2476, 149.6628
500.7297, 149.0238
501.2119, 148.5628
501.6940, 148.3245
502.1761, 148.3045
502.6582, 148.5488
503.1403, 149.0140
503.6224, 149.6440
504.1045, 150.4429
504.5866, 151.2625
505.0688, 151.5491
505.5509, 150.7911
506.0330, 150.2961
506.5151, 150.1406
506.9972, 150.2474
507.4793, 150.7698
507.9615, 151.5709
508.4436, 152.1347
508.9257, 152.0009
509.4078, 151.2557
509.8899, 150.3334
510.3720, 148.9069
510.8542, 148.0218
511.3363, 148.4927
511.8184, 149.4660
512.3005, 150.1496
512.7827, 150.3947
513.2648, 150.4423
513.7469, 150.3127
514.2290, 150.1279
514.7111, 150.2652
515.1932, 150.8005
515.6754, 151.5349
516.1575, 152.4326
516.6396, 153.4156
517.1217, 154.1399
517.6038, 154.5328
518.0859, 154.7333
518.5681, 154.5950
519.0502, 154.3591
519.5323, 154.5425
520.0144, 155.2822
520.4965, 156.0755
520.9786, 156.3308
521.4608, 156.0109
521.9429, 155.3393
522.4250, 154.3012
522.9071, 152.9809
523.3892, 151.2429
523.8713, 149.2925
524.3535, 147.3625
524.8356, 145.5637
525.3177, 143.9736
525.7998, 142.7466
526.2819, 141.8971
526.7640, 141.3548
527.2462, 141.4257
527.7283, 141.4891
528.2104, 141.2175
528.6925, 140.7111
529.1746, 140.2480
529.6567, 140.0558
530.1389, 139.7864
530.6210, 138.6457
531.1031, 136.7261
531.5852, 135.7964
532.0673, 136.8000
532.5494, 138.3065
533.0316, 138.3654
533.5137, 137.0867
533.9958, 136.2292
534.4779, 136.3738
534.9600, 136.8788
535.4421, 137.4634
535.9243, 137.9989
536.4064, 138.0832
536.8885, 137.4658
537.3706, 136.5921
537.8527, 136.4519
538.3348, 137.7995
538.8170, 138.3506
539.2991, 137.5153
539.7812, 136.4782
540.2633, 135.6595
540.7454, 135.2250
541.2275, 135.4620
541.7097, 136.6596
542.1918, 138.2686
542.6739, 138.7849
543.1560, 137.8971
543.6381, 136.9089
544.1202, 135.6180
544.6024, 134.6844
545.0845, 134.6737
545.5666, 135.4760
546.0487, 136.4195
546.5308, 137.2505
547.0129, 137.9614
547.4951, 138.5441
547.9772, 138.9996
548.4593, 139.3018
548.9414, 139.4514
549.4235, 139.4259
549.9056, 139.0599
550.3878, 138.2348
550.8699, 137.7865
551.3520, 138.1891
551.8341, 138.7877
552.3162, 139.1054
552.7983, 139.1260
553.2805, 138.9993
553.7626, 138.8181
554.2447, 138.5215
554.7268, 137.8712
555.2089, 136.1744
555.6910, 135.3945
556.1732, 136.0231
556.6553, 137.0754
557.1374, 138.2201
557.6195, 139.2699
558.1016, 139.9230
558.5837, 139.9408
559.0659, 139.5211
559.5480, 139.0404
560.0301, 138.4444
560.5122, 138.1343
560.9943, 138.3775
561.4764, 138.8157
561.9586, 139.1080
562.4407, 139.2585
562.9228, 139.3748
563.4049, 139.3151
563.8870, 139.3659
564.3691, 139.9834
564.8513, 141.0535
565.3334, 141.9208
565.8155, 142.2562
566.2976, 142.3327
566.7797, 142.6806
567.2618, 143.5062
567.7440, 144.1250
568.2261, 144.2069
568.7082, 144.3823
569.1903, 144.9472
569.6724, 145.9111
570.1545, 147.3250
570.6367, 149.2458
571.1188, 151.2895
571.6009, 152.5737
572.0830, 152.9194
572.5651, 153.2079
573.0472, 153.1787
573.5294, 153.4775
574.0115, 154.7946
574.4936, 156.7302
574.9757, 158.1580
575.4578, 158.4146
575.9399, 158.2440
576.4221, 158.4480
576.9042, 158.9770
577.3863, 159.6218
577.8684, 160.4121
578.3505, 161.0104
578.8326, 160.7474
579.3148, 159.5174
579.7969, 159.5694
580.2790, 162.6399
580.7611, 165.2562
581.2432, 165.4577
581.7253, 164.1548
582.2075, 162.9627
582.6896, 162.4406
583.1717, 161.9626
583.6538, 160.5172
584.1359, 157.8271
584.6180, 156.1748
585.1002, 156.3757
585.5823, 156.6716
586.0643, 156.8266
586.5464, 156.6243
587.0286, 155.6405
587.5107, 153.6927
587.9928, 151.7142
588.4749, 150.5973
588.9570, 150.1928
589.4391, 150.0151
589.9213, 150.0934
590.4034, 149.9956
590.8855, 149.2859
591.3676, 148.1816
591.8497, 147.5399
592.3318, 147.8434
592.8140, 147.7792
593.2961, 146.3291
593.7782, 144.6436
594.2603, 144.1053
594.7424, 144.7934
595.2245, 145.9616
595.7067, 147.1309
596.1888, 148.1454
596.6709, 148.0004
597.1530, 145.5734
597.6351, 143.9373
598.1172, 143.7746
598.5994, 144.2172
599.0815, 144.9037
599.5636, 145.6537
600.0457, 146.0891
600.5278, 145.9153
601.0099, 145.3026
601.4921, 144.4000
601.9742, 143.1978
602.4563, 142.4742
602.9384, 142.7563
603.4205, 143.2777
603.9026, 142.7703
604.3848, 141.1882
604.8669, 140.1513
605.3490, 140.3822
605.8311, 140.7462
606.3132, 140.4706
606.7953, 139.7639
607.2775, 139.2120
607.7596, 139.0411
608.2417, 138.8770
608.7238, 138.0305
609.2059, 136.2071
609.6880, 135.1842
610.1702, 135.7731
610.6523, 136.2595
611.1344, 135.9774
611.6165, 135.3081
612.0986, 134.7702
612.5807, 134.5065
613.0629, 134.4252
613.5450, 134.5800
614.0271, 134.8536
614.5092, 134.8103
614.9913, 134.3636
615.4734, 133.9425
615.9556, 133.9409
616.4377, 134.1289
616.9198, 133.6844
617.4019, 132.2494
617.8840, 130.9361
618.3661, 129.3612
618.8483, 128.4251
619.3304, 129.7160
619.8125, 132.6119
620.2946, 134.4820
620.7767, 133.4665
621.2589, 130.7249
621.7410, 129.8513
622.2231, 131.7736
622.7052, 132.8012
623.1873, 131.4075
623.6694, 129.9431
624.1516, 129.8249
624.6337, 130.7465
625.1158, 131.6825
625.5979, 132.3174
626.0800, 132.6889
626.5621, 132.8522
627.0443, 132.7799
627.5264, 132.2520
628.0085, 131.1522
628.4906, 130.0872
628.9727, 129.6468
629.4548, 129.8358
629.9370, 130.1256
630.4191, 130.9385
630.9012, 131.3073
631.3833, 130.5130
631.8654, 129.4717
632.3475, 129.1913
632.8297, 129.7655
633.3118, 130.5543
633.7939, 131.0601
634.2760, 131.3104
634.7581, 131.3216
635.2402, 130.9687
635.7224, 130.8817
636.2045, 131.4085
636.6866, 132.1575
637.1687, 132.8091
637.6508, 133.3474
638.1329, 133.5726
638.6151, 133.1054
639.0972, 132.5734
639.5793, 132.5806
640.0614, 132.9468
640.5435, 133.1159
641.0256, 132.8893
641.5078, 132.6542
641.9899, 132.9972
642.4720, 134.0543
642.9541, 134.5661
643.4362, 133.8814
643.9183, 133.3956
644.4005, 133.4736
644.8826, 133.8764
645.3647, 134.4710
645.8468, 135.1835
646.3289, 135.6330
646.8110, 135.1817
647.2932, 134.2958
647.7753, 134.1945
648.2574, 134.9283
648.7395, 135.8968
649.2216, 136.9221
649.7037, 137.9272
650.1859, 138.7735
650.6680, 139.4678
651.1501, 140.0052
651.6322, 140.4789
652.1143, 140.7069
652.5964, 140.3723
653.0786, 139.7631
653.5607, 139.3263
654.0428, 139.2436
654.5249, 139.5486
655.0070, 140.4144
655.4891, 141.8701
655.9713, 143.1016
656.4534, 144.1350
656.9355, 144.8915
657.4176, 145.2278
657.8997, 145.3026
658.3818, 145.2184
658.8640, 144.9439
659.3461, 144.8198
659.8282, 144.9544
660.3103, 145.3475
660.7924, 146.2310
661.2745, 147.4296
661.7567, 148.1860
662.2388, 148.0920
662.7209, 147.6370
663.2030, 147.8009
663.6851, 148.9305
664.1672, 149.5418
664.6494, 149.1356
665.1315, 148.7468
665.6136, 148.8413
666.0957, 149.1147
666.5778, 149.1136
667.0599, 148.7074
667.5421, 148.1438
668.0242, 147.7866
668.5063, 147.4048
668.9884, 146.2310
669.4705, 144.2085
669.9526, 142.3776
670.4348, 141.2481
670.9169, 140.7373
671.3990, 140.7592
671.8811, 141.7564
672.3632, 142.1812
672.8453, 141.4744
673.3275, 140.7154
673.8096, 140.5979
674.2917, 140.8185
674.7738, 140.7922
675.2559, 140.2930
675.7380, 139.5270
676.2202, 138.5780
676.7023, 137.5081
677.1844, 137.0298
677.6665, 137.3241
678.1486, 137.6857
678.6307, 137.8513
679.1129, 137.8058
679.5950, 137.5211
680.0771, 136.9468
680.5592, 136.3615
681.0413, 135.2014
681.5234, 134.6021
682.0056, 136.2100
682.4877, 139.0312
682.9698, 140.5052
683.4519, 139.5549
683.9340, 137.7029
684.4161, 137.2405
684.8983, 138.3055
685.3804, 139.1376
685.8625, 139.6024
686.3446, 140.0630
686.8267, 140.5776
687.3088, 141.2185
687.7910, 142.1073
688.2731, 143.2691
688.7552, 144.5070
689.2373, 145.6258
689.7194, 146.8609
690.2015, 148.5945
690.6837, 150.6724
691.1658, 152.5736
691.6479, 154.0862
692.1300, 155.2776
692.6121, 156.2306
693.0942, 156.8939
693.5764, 157.6226
694.0585, 157.9709
694.5406, 159.0123
695.0227, 161.6990
695.5048, 164.7976
695.9869, 167.0046
696.4691, 168.1333
696.9512, 168.9516
697.4333, 169.5621
697.9154, 170.3374
698.3975, 171.8921
698.8796, 174.1161
699.3618, 176.4994
699.8439, 178.8745
700.3260, 181.0902
700.8081, 182.9234
701.2902, 184.3562
701.7723, 185.5782
702.2545, 186.6752
702.7366, 187.4358
703.2187, 187.7687
703.7008, 187.7704
704.1829, 187.7146
704.6650, 187.5236
705.1472, 186.5400
705.6293, 183.7625
706.1114, 180.3534
706.5935, 178.3178
707.0756, 177.4529
707.5577, 176.4892
708.0399, 175.1142
708.5220, 173.2043
709.0041, 170.4656
709.4862, 166.8936
709.9683, 164.0051
710.4504, 162.2090
710.9326, 160.4982
711.4147, 158.4328
711.8968, 156.5864
712.3789, 155.8139
712.8610, 155.8386
713.3431, 155.3285
713.8253, 153.1846
714.3074, 150.5659
714.7895, 149.5036
715.2716, 149.7510
715.7537, 149.3738
716.2358, 147.8673
716.7180, 146.2645
717.2001, 145.4646
717.6822, 145.3310
718.1643, 144.9335
718.6464, 144.3469
719.1285, 143.4163
719.6107, 141.2882
720.0928, 139.5234
720.5749, 139.6446
721.0570, 141.0943
721.5391, 142.2161
722.0212, 142.1956
722.5034, 141.5537
722.9855, 140.8123
723.4676, 140.0197
723.9497, 139.5532
724.4318, 139.5093
724.9139, 139.3903
725.3961, 138.7417
725.8782, 137.9057
726.3603, 137.9042
726.8424, 139.2303
727.3245, 140.2300
727.8066, 140.6458
728.2888, 140.8897
728.7709, 141.0547
729.2530, 141.2532
729.7351, 141.6668
730.2172, 142.3515
730.6993, 143.0981
731.1815, 143.6425
731.6636, 144.0592
732.1457, 144.6040
732.6278, 145.2802
733.1099, 146.2048
733.5920, 147.6007
734.0742, 148.9947
734.5563, 149.5884
735.0384, 149.1592
735.5205, 149.0330
736.0026, 149.2773
736.4847, 149.7400
736.9669, 150.4790
737.4490, 151.3433
737.9311, 152.0911
738.4132, 152.7353
738.8953, 153.6577
739.3774, 155.3594
739.8596, 157.3607
740.3417, 158.4613
740.8238, 158.7445
741.3059, 159.6247
741.7880, 161.5952
742.2701, 163.7882
742.7523, 165.4075
743.2344, 166.4853
743.7165, 167.4281
744.1986, 167.9146
744.6807, 168.7140
745.1628, 170.1499
745.6450, 171.7423
746.1271, 173.1456
746.6092, 174.3692
747.0913, 175.5632
747.5734, 176.7642
748.0555, 178.0724
748.5377, 179.8654
749.0198, 181.8817
749.5019, 182.9879
749.9840, 183.0235
750.4661, 182.9012
750.9482, 183.2205
751.4304, 183.6717
751.9125, 183.4168
752.3946, 181.7101
752.8767, 181.0898
753.3588, 182.6296
753.8409, 183.9810
754.3231, 184.0517
754.8052, 183.3889
755.2873, 182.6720
755.7694, 182.0903
756.2515, 181.8589
756.7336, 182.3099
757.2158, 183.1295
757.6979, 183.9973
758.1800, 184.8088
758.6621, 184.8840
759.1442, 183.9169
759.6263, 182.7843
760.1085, 182.5557
760.5906, 183.2354
761.0727, 183.6346
761.5548, 183.7426
762.0369, 183.5686
762.5190, 183.3783
763.0012, 182.7159
763.4833, 180.8957
763.9654, 178.2423
764.4475, 176.0634
764.9296, 175.3848
765.4117, 174.4363
765.8939, 171.3294
766.3760, 167.0684
766.8581, 163.4798
767.3402, 160.7774
767.8223, 158.2921
768.3044, 155.5661
768.7866, 153.6278
769.2687, 150.9174
769.7508, 150.0182
770.2329, 148.9040
770.7150, 147.5114
771.1971, 145.9330
771.6793, 144.1965
772.1614, 142.3174
772.6435, 140.1559
773.1256, 137.6102
773.6077, 135.6961
774.0898, 135.2935
774.5720, 135.2458
775.0541, 134.5031
775.5362, 133.4096
776.0183, 132.8193
776.5004, 132.9425
776.9825, 133.1822
777.4647, 132.9378
777.9468, 132.2896
778.4289, 131.6859
778.9110, 131.1935
779.3931, 130.3184
779.8752, 128.6777
780.3574, 127.0227
780.8395, 125.8531
781.3216, 126.1325
781.8037, 126.1825
782.2858, 126.0243
782.7679, 124.5297
783.2501, 125.1472
783.7322, 125.1545
784.2143, 125.2985
784.6964, 126.6954
785.1785, 125.9197
785.6606, 126.0332
786.1428, 125.9501
786.6249, 125.7224
787.1070, 125.4060
787.5891, 125.2273
788.0712, 125.1997
788.5533, 125.0473
789.0355, 126.0567
789.5176, 126.6680
789.9997, 126.9026
790.4818, 125.6321
790.9639, 126.3050
791.4460, 126.1991
791.9282, 126.0613
792.4103, 127.0078
792.8924, 125.9562
793.3745, 126.8855
793.8566, 127.4191
794.3387, 128.5936
794.8209, 128.2625
795.3030, 129.6445
795.7851, 130.6283
796.2672, 131.2354
796.7493, 130.3375
797.2314, 131.3829
797.7136, 131.6497
798.1957, 131.8844
798.6778, 133.2035
799.1599, 132.5244
799.6420, 133.8263
800.1241, 134.3374
800.6063, 135.2106
801.0884, 135.2999
801.5705, 135.6313
802.0526, 136.7466
802.5347, 137.4279
803.0168, 137.4270
803.4990, 138.3232
803.9811, 137.6167
804.4632, 138.3165
804.9453, 138.9357
805.4274, 140.5659
805.9095, 141.7979
806.3917, 142.6534
806.8738, 142.0036
807.3559, 143.2974
807.8380, 143.8123
808.3201, 144.2953
808.8022, 145.8625
809.2844, 145.4319
809.7665, 146.1569
810.2486, 146.1555
810.7307, 145.5516
811.2128, 144.5555
811.6949, 143.8240
812.1771, 143.5034
812.6592, 143.1612
813.1413, 143.0874
813.6234, 142.6738
814.1055, 141.3871
814.5876, 139.7303
815.0698, 138.3426
815.5519, 137.3591
816.0340, 136.6158
816.5161, 136.0498
816.9982, 135.6463
817.4803, 135.7212
817.9625, 135.9147
818.4446, 135.0674
818.9267, 132.9901
819.4088, 130.9399
819.8909, 130.0601
820.3730, 129.9125
820.8552, 128.8432
821.3373, 126.5359
821.8194, 124.6465
822.3015, 123.2550
822.7836, 122.4528
823.2657, 122.7286
823.7479, 123.4973
824.2300, 123.5192
824.7121, 122.4814
825.1942, 121.8072
825.6763, 122.0678
826.1584, 122.4626
826.6406, 122.6970
827.1227, 122.6975
827.6048, 122.3647
828.0869, 121.7097
828.5690, 120.9007
829.0511, 119.9745
829.5333, 119.0781
830.0154, 118.2646
830.4975, 117.6625
830.9796, 118.2513
831.4617, 120.2674
831.9438, 121.8135
832.4260, 121.4114
832.9081, 119.6771
833.3902, 118.4352
833.8723, 117.7552
834.3544, 117.3869
834.8365, 117.3928
835.3187, 117.6392
835.8008, 118.3602
836.2829, 119.1208
836.7650, 119.3788
837.2471, 119.0764
837.7292, 118.5562
838.2114, 117.5714
838.6935, 116.7841
839.1756, 116.6537
839.6577, 116.9589
840.1398, 117.5908
840.6219, 118.3726
841.1041, 118.7377
841.5862, 118.2263
842.0683, 117.3837
842.5504, 117.2646
843.0325, 117.7327
843.5146, 117.8274
843.9968, 117.4216
844.4789, 116.9156
844.9610, 116.4568
845.4431, 116.1666
845.9252, 116.3062
846.4073, 116.9891
846.8895, 117.5301
847.3716, 118.0897
847.8537, 118.2785
848.3358, 117.6601
848.8179, 116.9138
849.3000, 116.7885
849.7822, 117.1454
850.2643, 117.0594
850.7464, 115.7983
851.2285, 114.7385
851.7106, 114.9181
852.1927, 115.5563
852.6749, 115.7726
853.1570, 115.5826
853.6391, 115.4279
854.1212, 115.5116
854.6033, 115.5123
855.0854, 114.8688
855.5676, 113.7635
856.0497, 113.0798
856.5318, 112.8329
857.0139, 112.7764
857.4960, 112.8460
857.9781, 113.0504
858.4603, 113.5153
858.9424, 114.1595
859.4245, 114.0036
859.9066, 112.1284
860.3887, 111.0369
860.8708, 111.9056
861.3530, 112.5642
861.8351, 111.4237
862.3172, 109.4241
862.7993, 108.3496
863.2814, 108.6091
863.7635, 109.1444
864.2457, 109.9343
864.7278, 110.4216
865.2099, 109.7626
865.6920, 108.6355
866.1741, 108.2910
866.6563, 108.9165
867.1384, 109.7347
867.6205, 110.2390
868.1026, 110.3934
868.5847, 110.0382
869.0668, 109.2351
869.5490, 108.2931
870.0311, 107.2377
870.5132, 106.4774
870.9953, 106.3108
871.4774, 106.4090
871.9595, 106.0208
872.4417, 104.8905
872.9238, 104.7222
873.4059, 106.5227
873.8880, 107.6866
874.3701, 106.7554
874.8522, 105.3963
875.3344, 105.1203
875.8165, 105.7420
876.2986, 105.9620
876.7807, 105.3430
877.2628, 104.5664
877.7449, 103.4236
878.2271, 102.5992
878.7092, 103.1044
879.1913, 104.3543
879.6734, 104.8935
880.1555, 104.2270
880.6376, 103.4230
881.1198, 103.8340
881.6019, 102.7696
882.0840, 103.7560
882.5661, 101.7444
883.0482, 100.5966
883.5303, 100.8206
884.0125, 101.4996
884.4946, 101.9129
884.9767, 102.0749
885.4588, 102.1005
885.9409, 102.0873
886.4230, 101.1831
886.9052, 98.53339
887.3873, 96.85465
887.8694, 98.16019
888.3515, 100.7069
888.8336, 101.5066
889.3157, 100.2439
889.7979, 99.66444
890.2800, 100.8437
890.7621, 101.4060
891.2442, 99.89085
891.7263, 98.17200
892.2084, 98.12769
892.6906, 99.32137
893.1727, 99.95489
893.6548, 99.23852
894.1369, 98.45834
894.6190, 98.65285
895.1011, 98.19935
895.5833, 98.92444
896.0654, 98.31104
896.5475, 98.19699
897.0296, 98.79981
897.5117, 99.29158
897.9938, 98.78233
898.4760, 97.72180
898.9581, 97.37695
899.4402, 97.67831
899.9223, 97.69910
900.4044, 97.24071
900.8865, 97.04081
901.3687, 97.71264
901.8508, 98.61292
902.3329, 98.19858
902.8150, 95.95125
903.2971, 95.03197
903.7792, 96.32970
904.2614, 97.42864
904.7435, 97.57722
905.2256, 97.26327
905.7077, 96.71945
906.1898, 96.04846
906.6719, 95.81063
907.1541, 96.66166
907.6362, 97.01281
908.1183, 95.93700
908.6004, 94.74318
909.0825, 94.38504
909.5646, 94.57230
910.0468, 94.69479
910.5289, 94.59567
911.0110, 94.51281
911.4931, 94.43633
911.9752, 94.60318
912.4573, 95.79100
912.9395, 97.25930
913.4216, 97.22397
913.9037, 95.66512
914.3858, 94.15446
914.8679, 93.63318
915.3500, 93.75587
915.8321, 93.99080
916.3142, 94.35307
916.7963, 95.14727
917.2784, 96.42915
917.7606, 97.12230
918.2427, 96.81703
918.7248, 95.88747
919.2069, 94.57597
919.6890, 93.01505
920.1711, 92.22339
920.6533, 92.47169
921.1354, 92.86156
921.6175, 93.52976
922.0996, 94.05275
922.5817, 94.03899
923.0638, 93.82188
923.5460, 93.98048
924.0281, 94.61307
924.5102, 94.84343
924.9923, 94.36000
925.4744, 93.69881
925.9565, 92.74512
926.4387, 91.93597
926.9208, 91.63770
927.4029, 91.83970
927.8850, 92.53075
928.3671, 93.87943
928.8492, 94.81899
929.3314, 94.27486
929.8135, 93.20981
930.2956, 92.68222
930.7777, 92.51157
931.2598, 92.01720
931.7419, 91.13428
932.2241, 90.68085
932.7062, 91.40141
933.1883, 92.66697
933.6704, 93.40050
934.1525, 93.66883
934.6346, 93.75562
935.1168, 93.69121
935.5989, 93.39942
936.0810, 92.80946
936.5631, 92.26667
937.0452, 92.29812
937.5273, 92.85437
938.0095, 93.09496
938.4916, 92.95025
938.9737, 92.78745
939.4558, 92.71538
939.9379, 92.53088
940.4200, 91.93229
940.9022, 91.20469
941.3843, 91.10948
941.8664, 91.91804
942.3485, 92.52532
942.8306, 92.98727
943.3127, 93.18218
943.7949, 92.79514
944.2770, 92.35043
944.7591, 92.42653
945.2412, 92.88303
945.7233, 93.03690
946.2054, 92.59050
946.6876, 92.15454
947.1697, 91.95219
947.6518, 91.83679
948.1339, 91.87463
948.6160, 91.84676
949.0981, 91.11246
949.5803, 89.75650
950.0624, 89.23488
950.5445, 91.05577
951.0266, 93.14555
951.5087, 93.29617
951.9908, 92.37712
952.4730, 91.76702
952.9551, 91.54634
953.4372, 91.20245
953.9193, 90.53931
954.4014, 90.13485
954.8835, 90.92777
955.3657, 90.63107
955.8478, 90.86040
956.3299, 91.49646
956.8120, 91.42712
957.2941, 92.63152
957.7762, 93.55782
958.2584, 93.10876
958.7405, 94.17140
959.2226, 92.60130
959.7047, 94.62328
960.1868, 95.38412
960.6689, 94.55324
961.1511, 93.80441
961.6332, 93.65417
962.1153, 93.61700
962.5974, 93.15476
963.0795, 93.37047
963.5616, 93.62907
964.0438, 93.63989
964.5259, 94.47329
965.0080, 94.69576
965.4901, 94.93975
965.9722, 95.59468
966.4543, 96.25333
966.9365, 96.47778
967.4186, 96.28960
967.9007, 96.00994
968.3828, 95.44016
968.8649, 95.13626
969.3470, 95.68454
969.8292, 96.06468
970.3113, 95.37167
970.7934, 94.18406
971.2755, 93.32821
971.7576, 92.98290
972.2397, 93.13522
972.7219, 94.37399
973.2040, 94.77533
973.6861, 95.50418
974.1682, 95.83491
974.6503, 95.78890
975.1324, 94.23785
975.6146, 94.63021
976.0967, 94.24378
976.5788, 93.82540
977.0609, 94.49135
977.5430, 93.15918
978.0251, 93.80796
978.5073, 93.66592
978.9894, 93.88586
979.4715, 93.32210
979.9536, 93.00039
980.4357, 93.46260
980.9178, 93.49078
981.4000, 92.83675
981.8821, 93.07970
982.3642, 91.72015
982.8463, 91.76678
983.3284, 92.42014
983.8105, 91.80558
984.2927, 92.06278
984.7748, 91.98801
985.2569, 90.40426
985.7390, 91.44475
986.2211, 91.35033
986.7032, 89.62313
987.1854, 89.42559
987.6675, 89.63256
988.1496, 90.32664
988.6317, 90.83677
989.1138, 90.44194
989.5959, 89.39464
990.0781, 88.77740
990.5602, 88.65836
991.0423, 88.82883
991.5244, 89.70676
992.0065, 90.05959
992.4886, 89.03742
992.9708, 87.67085
993.4529, 87.13877
993.9350, 87.36526
994.4171, 87.44296
994.8992, 87.22255
995.3813, 87.08475
995.8635, 87.20998
996.3456, 87.22692
996.8277, 86.65340
997.3098, 86.07600
997.7919, 86.35508
998.2740, 87.47012
998.7562, 88.33945
999.2383, 88.86597
999.7204, 88.96445
1000.203, 88.36809
1000.685, 87.58036
1001.167, 86.57103
1001.649, 85.77866
1002.131, 86.12188
1002.613, 87.64654
1003.095, 88.66233
1003.577, 88.25936
1004.059, 87.36567
1004.542, 86.16215
1005.024, 84.98502
1005.506, 83.88285
1005.988, 83.16404
1006.470, 83.65441
1006.952, 85.48467
1007.434, 87.01183
1007.916, 86.88084
1008.398, 86.17519
1008.881, 85.81902
1009.363, 85.62613
1009.845, 85.26402
1010.327, 84.80102
1010.809, 84.52483
1011.291, 84.55368
1011.773, 84.87001
1012.255, 85.70500
1012.738, 86.61939
1013.220, 86.96839
1013.702, 86.83681
1014.184, 86.17746
1014.666, 85.18752
1015.148, 84.87455
1015.630, 85.72977
1016.112, 86.48756
1016.594, 85.11520
1017.077, 82.72186
1017.559, 82.56963
1018.041, 84.20342
1018.523, 85.39236
1019.005, 85.76504
1019.487, 85.98875
1019.969, 86.44944
1020.451, 86.84061
1020.934, 86.63226
1021.416, 85.94674
1021.898, 85.51665
1022.380, 85.33237
1022.862, 85.02925
1023.344, 84.52311
1023.826, 84.15559
1024.308, 84.19280
1024.791, 84.24912
1025.273, 83.47091
1025.755, 81.90466
1026.237, 81.48340
1026.719, 82.38480
1027.201, 82.98067
1027.683, 82.83184
1028.165, 82.78997
1028.647, 83.50501
1029.130, 84.53990
1029.612, 84.96052
1030.094, 84.71851
1030.576, 84.45658
1031.058, 84.06041
1031.540, 84.10449
1032.022, 84.99037
1032.504, 85.69767
1032.986, 85.43505
1033.469, 84.58484
1033.951, 83.98860
1034.433, 83.66773
1034.915, 83.50578
1035.397, 83.68578
1035.879, 83.59863
1036.361, 82.80350
1036.843, 82.16773
1037.326, 82.34747
1037.808, 83.10295
1038.290, 83.99633
1038.772, 85.28466
1039.254, 85.53096
1039.736, 83.52520
1040.218, 82.41276
1040.700, 83.65254
1041.182, 85.05928
1041.665, 85.11104
1042.147, 84.23554
1042.629, 83.33894
1043.111, 82.31645
1043.593, 81.72025
1044.075, 81.79485
1044.557, 81.97816
1045.039, 82.21045
1045.521, 82.46384
1046.004, 82.78297
1046.486, 83.09310
1046.968, 83.24771
1047.450, 83.23692
1047.932, 83.06998
1048.414, 82.31231
1048.896, 81.99268
1049.378, 82.84789
1049.861, 83.78282
1050.343, 83.92158
1050.825, 83.59678
1051.307, 83.62106
1051.789, 84.17278
1052.271, 84.26694
1052.753, 83.21135
1053.235, 82.34946
1053.718, 82.03020
1054.200, 82.12915
1054.682, 83.00959
1055.164, 84.06435
1055.646, 84.09446
1056.128, 82.87292
1056.610, 81.73081
1057.092, 80.75767
1057.574, 80.27222
1058.057, 80.70529
1058.539, 81.36073
1059.021, 81.78392
1059.503, 82.00960
1059.985, 82.23725
1060.467, 82.49549
1060.949, 82.41331
1061.431, 81.78066
1061.913, 80.90856
1062.396, 79.37080
1062.878, 78.16297
1063.360, 78.31168
1063.842, 79.22756
1064.324, 79.95441
1064.806, 80.31522
1065.288, 80.41850
1065.770, 79.84576
1066.253, 79.64809
1066.735, 80.86269
1067.217, 82.02017
1067.699, 81.88319
1068.181, 80.97115
1068.663, 80.01572
1069.145, 79.22323
1069.627, 78.97375
1070.109, 79.99664
1070.592, 80.58911
1071.074, 79.33458
1071.556, 78.02225
1072.038, 78.27104
1072.520, 79.18846
1073.002, 79.25760
1073.484, 78.42970
1073.966, 77.92372
1074.448, 78.28651
1074.931, 78.80550
1075.413, 79.52689
1075.895, 79.88040
1076.377, 79.04211
1076.859, 77.83358
1077.341, 77.22072
1077.823, 77.34521
1078.305, 78.15569
1078.788, 79.98359
1079.270, 81.35889
1079.752, 81.48445
1080.234, 81.03018
1080.716, 79.85886
1081.198, 78.78163
1081.680, 78.96722
1082.162, 80.11680
1082.644, 80.84167
1083.127, 80.64529
1083.609, 80.36726
1084.091, 80.41880
1084.573, 80.46101
1085.055, 80.42867
1085.537, 80.16947
1086.019, 79.24876
1086.501, 78.01657
1086.984, 77.41934
1087.466, 77.74356
1087.948, 78.20051
1088.430, 78.34724
1088.912, 78.68092
1089.394, 80.05608
1089.876, 81.21761
1090.358, 80.68082
1090.840, 79.11662
1091.323, 78.01820
1091.805, 77.69270
1092.287, 77.54237
1092.769, 77.28155
1093.251, 77.23182
1093.733, 78.02308
1094.215, 78.59516
1094.697, 77.57870
1095.179, 76.02351
1095.662, 75.87495
1096.144, 77.27398
1096.626, 78.34351
1097.108, 78.47378
1097.590, 78.23665
1098.072, 77.59171
1098.554, 76.88221
1099.036, 76.02693
1099.519, 75.42398
1100.001, 75.78653
1100.483, 76.95981
1100.965, 77.71313
1101.447, 77.33723
1101.929, 77.47299
1102.411, 79.79515
1102.893, 81.20895
1103.375, 79.23164
1103.858, 76.41600
1104.340, 75.63181
1104.822, 76.36628
1105.304, 76.08538
1105.786, 73.86255
1106.268, 72.62326
1106.750, 73.79696
1107.232, 74.82373
1107.714, 74.56088
1108.197, 74.10648
1108.679, 74.29267
1109.161, 74.96232
1109.643, 75.82609
1110.125, 77.00050
1110.607, 77.40221
1111.089, 75.90214
1111.571, 75.10065
1112.054, 76.17690
1112.536, 77.32347
1113.018, 77.60761
1113.500, 77.27492
1113.982, 76.40318
1114.464, 74.97466
1114.946, 74.79508
1115.428, 77.55739
1115.911, 78.71880
1116.393, 76.72254
1116.875, 74.94716
1117.357, 74.92590
1117.839, 75.58033
1118.321, 75.71832
1118.803, 75.48811
1119.285, 75.79831
1119.767, 77.08614
1120.250, 77.82800
1120.732, 77.98728
1121.214, 77.61158
1121.696, 76.29366
1122.178, 75.17680
1122.660, 75.37968
1123.142, 76.30418
1123.624, 76.31253
1124.106, 75.19670
1124.589, 74.82268
1125.071, 75.44431
1125.553, 75.96859
1126.035, 76.26180
1126.517, 76.11820
1126.999, 75.21558
1127.481, 74.26365
1127.963, 74.47230
1128.446, 75.71145
1128.928, 76.45290
1129.410, 76.64134
1129.892, 76.89458
1130.374, 77.34132
1130.856, 77.23186
1131.338, 76.13558
1131.820, 75.13367
1132.302, 75.45542
1132.785, 76.62399
1133.267, 77.21194
1133.749, 77.23888
1134.231, 76.76861
1134.713, 75.84803
1135.195, 76.05020
1135.677, 77.79822
1136.159, 79.06990
1136.641, 78.33683
1137.124, 76.77581
1137.606, 76.44681
1138.088, 76.97012
1138.570, 76.95658
1139.052, 76.47472
1139.534, 75.64908
1140.016, 74.64744
1140.498, 74.54155
1140.981, 75.80739
1141.463, 76.84604
1141.945, 75.48777
1142.427, 76.37128
1142.909, 74.00903
1143.391, 75.97557
1143.873, 76.66267
1144.355, 76.10686
1144.838, 75.10902
1145.320, 74.04741
1145.802, 73.57354
1146.284, 74.30555
1146.766, 75.21667
1147.248, 75.24682
1147.730, 74.88655
1148.212, 74.59004
1148.694, 74.41562
1149.177, 74.52177
1149.659, 74.78730
1150.141, 74.68103
1150.623, 73.94006
1151.105, 73.40965
1151.587, 73.81570
1152.069, 74.36822
1152.551, 74.54179
1153.033, 74.57278
1153.516, 74.68760
1153.998, 74.86874
1154.480, 75.07250
1154.962, 75.27733
1155.444, 75.30528
1155.926, 75.04436
1156.408, 74.67542
1156.890, 73.84571
1157.373, 73.38880
1157.855, 74.13972
1158.337, 75.26091
1158.819, 75.77756
1159.301, 75.75192
1159.783, 75.80080
1160.265, 76.18485
1160.747, 76.08823
1161.229, 74.82840
1161.712, 73.97978
1162.194, 73.99358
1162.676, 74.40134
1163.158, 75.20384
1163.640, 75.97849
1164.122, 75.83206
1164.604, 75.97655
1165.086, 75.90366
1165.568, 75.12431
1166.051, 75.26294
1166.533, 74.26992
1167.015, 73.64185
1167.497, 74.16416
1167.979, 74.79618
1168.461, 74.36616
1168.943, 73.34498
1169.425, 73.35992
1169.908, 74.45097
1170.390, 75.02686
1170.872, 75.04581
1171.354, 75.08828
1171.836, 75.28994
1172.318, 75.43111
1172.800, 75.37774
1173.282, 75.20316
1173.765, 74.96111
1174.247, 74.71731
1174.729, 74.67323
1175.211, 74.79951
1175.693, 75.13271
1176.175, 75.55176
1176.657, 75.41093
1177.139, 74.58610
1177.621, 73.98237
1178.104, 74.28223
1178.586, 75.02577
1179.068, 76.09447
1179.550, 76.92953
1180.032, 76.56491
1180.514, 75.47449
1180.996, 74.40968
1181.478, 73.54570
1181.960, 72.89684
1182.443, 72.46831
1182.925, 72.25272
1183.407, 72.23179
1183.889, 72.44238
1184.371, 73.17427
1184.853, 73.89074
1185.335, 74.03905
1185.817, 73.89286
1186.300, 73.92509
1186.782, 74.17380
1187.264, 74.40694
1187.746, 74.66568
1188.228, 74.71885
1188.710, 74.40096
1189.192, 74.03316
1189.674, 73.61936
1190.156, 73.30721
1190.639, 73.21362
1191.121, 73.30205
1191.603, 73.57312
1192.085, 73.29064
1192.567, 74.00584
1193.049, 72.99634
1193.531, 72.43110
1194.013, 72.48437
1194.495, 72.96826
1194.978, 73.92110
1195.460, 74.93065
1195.942, 75.63348
1196.424, 75.95025
1196.906, 75.53393
1197.388, 74.42498
1197.870, 73.33633
1198.352, 72.31371
1198.835, 71.81554
1199.317, 71.92314
1199.799, 72.48319
1200.281, 73.42564
1200.763, 74.13785
1201.245, 73.76945
1201.727, 72.91259
1202.209, 72.56419
1202.692, 72.57594
1203.174, 72.63623
1203.656, 72.77250
1204.138, 73.19067
1204.620, 73.88311
1205.102, 74.62148
1205.584, 75.36583
1206.066, 75.71887
1206.548, 74.88889
1207.031, 74.12920
1207.513, 74.77422
1207.995, 75.68867
1208.477, 75.55076
1208.959, 74.72897
1209.441, 74.18066
1209.923, 74.05728
1210.405, 73.97636
1210.887, 73.67334
1211.370, 73.68391
1211.852, 74.47133
1212.334, 75.11057
1212.816, 75.17162
1213.298, 74.97790
1213.780, 74.74594
1214.262, 74.47415
1214.744, 74.10708
1215.227, 73.59130
1215.709, 73.66235
1216.191, 74.62246
1216.673, 74.81151
1217.155, 73.83643
1217.637, 72.99475
1218.119, 72.85221
1218.601, 73.07075
1219.083, 73.36501
1219.566, 73.62096
1220.048, 73.52063
1220.530, 73.13530
1221.012, 72.54628
1221.494, 71.96153
1221.976, 72.58556
1222.458, 74.33165
1222.940, 75.55496
1223.422, 75.52049
1223.905, 75.01774
1224.387, 74.57995
1224.869, 74.25046
1225.351, 74.19191
1225.833, 74.16704
1226.315, 73.82734
1226.797, 73.34518
1227.279, 72.91805
1227.762, 72.66363
1228.244, 72.88039
1228.726, 73.76186
1229.208, 74.51884
1229.690, 74.94501
1230.172, 75.11553
1230.654, 74.88197
1231.136, 74.58218
1231.619, 74.63933
1232.101, 74.61038
1232.583, 73.65511
1233.065, 72.02530
1233.547, 71.40254
1234.029, 72.16337
1234.511, 72.63191
1234.993, 72.67017
1235.475, 73.05052
1235.958, 74.11665
1236.440, 74.66861
1236.922, 73.93562
1237.404, 72.70721
1237.886, 71.94123
1238.368, 71.66139
1238.850, 72.19737
1239.332, 73.25849
1239.814, 73.60850
1240.297, 73.32584
1240.779, 73.12812
1241.261, 73.15051
1241.743, 73.05623
1242.225, 72.66279
1242.707, 72.24632
1243.189, 71.82919
1243.671, 71.74938
1244.154, 72.70912
1244.636, 73.81515
1245.118, 74.21629
1245.600, 73.99438
1246.082, 73.22787
1246.564, 72.08391
1247.046, 71.20276
1247.528, 70.54720
1248.010, 70.69633
1248.493, 72.72710
1248.975, 74.15451
1249.457, 74.17859
1249.939, 73.67847
1250.421, 72.86191
1250.903, 72.13482
1251.385, 72.14410
1251.867, 71.66982
1252.349, 71.55880
1252.832, 71.64043
1253.314, 71.40427
1253.796, 71.91772
1254.278, 71.81360
1254.760, 70.81766
1255.242, 70.61416
1255.724, 72.14140
1256.206, 73.82353
1256.689, 73.80724
1257.171, 72.99168
1257.653, 72.71666
1258.135, 72.77357
1258.617, 73.01405
1259.099, 73.20322
1259.581, 72.60666
1260.063, 71.51073
1260.546, 71.60086
1261.028, 73.65016
1261.510, 74.76630
1261.992, 72.50673
1262.474, 70.67422
1262.956, 71.17472
1263.438, 72.11665
1263.920, 72.28371
1264.402, 72.26524
1264.885, 72.98763
1265.367, 74.13599
1265.849, 74.55237
1266.331, 74.14561
1266.813, 73.52287
1267.295, 72.53696
1267.777, 72.11922
1268.259, 72.48695
1268.741, 72.73019
1269.224, 72.42935
1269.706, 72.33279
1270.188, 73.22545
1270.670, 74.44770
1271.152, 74.66135
1271.634, 74.33068
1272.116, 74.61575
1272.598, 75.22584
1273.081, 75.37602
1273.563, 75.12337
1274.045, 74.96142
1274.527, 75.03680
1275.009, 75.19308
1275.491, 75.31568
1275.973, 75.58414
1276.455, 76.45071
1276.938, 77.03638
1277.420, 76.40963
1277.902, 75.70223
1278.384, 76.35219
1278.866, 75.65345
1279.348, 77.06935
1279.830, 75.23741
1280.312, 74.19134
1280.794, 73.97462
1281.276, 74.56078
1281.759, 76.21481
1282.241, 76.98276
1282.723, 76.26980
1283.205, 75.65780
1283.687, 76.13590
1284.169, 76.78416
1284.651, 76.33315
1285.133, 75.39903
1285.616, 75.02675
1286.098, 75.21056
##END=



