##NAMES=Magnetite
##RRUFFID=R060191
##IDEAL CHEMISTRY=Fe^2+^Fe^3+^_2_O_4_
##LOCALITY=Merrry Widow mine, Vancouver Island, British Columbia, Canada
##OWNER=RRUFF
##SOURCE=Lloyd Twaites
##DESCRIPTION=Grayish-black octahedral crystals
##STATUS=The identification of this mineral has been confirmed by X-ray diffraction and chemical analysis
##URL=rruff.info/R060191
##MEASURED CHEMISTRY=(Fe^2+^_0.97_Mg_0.03_)(Fe^3+^_0.97_Al_0.03_)_2_O_4_
92.07813, 16.72372
92.56024, 16.98997
93.04236, 16.77614
93.52448, 16.21273
94.00659, 15.78222
94.48871, 15.79858
94.97083, 16.15541
95.45294, 16.65073
95.93506, 17.36463
96.41718, 17.99993
96.89929, 17.86421
97.38141, 16.94743
97.86353, 16.05692
98.34564, 15.93799
98.82776, 16.54537
99.30988, 16.77188
99.79199, 16.33397
100.2741, 15.42626
100.7562, 14.75497
101.2383, 14.33695
101.7205, 14.10682
102.2026, 14.10010
102.6847, 14.44794
103.1668, 14.48306
103.6489, 13.89208
104.1310, 12.65259
104.6132, 12.07039
105.0953, 12.41204
105.5774, 13.16589
106.0595, 13.68647
106.5416, 13.76496
107.0237, 13.94628
107.5059, 14.50109
107.9880, 15.79214
108.4701, 16.30088
108.9522, 15.56737
109.4343, 14.14287
109.9164, 13.01038
110.3986, 12.19089
110.8807, 11.66587
111.3628, 11.42352
111.8449, 11.51555
112.3270, 11.81353
112.8091, 12.65591
113.2913, 13.74814
113.7734, 14.27503
114.2555, 13.57873
114.7376, 12.63408
115.2197, 11.95345
115.7018, 11.47570
116.1840, 11.43232
116.6661, 12.30732
117.1482, 13.86390
117.6303, 14.86755
118.1124, 13.50634
118.5945, 12.00378
119.0767, 12.26797
119.5588, 17.68302
120.0409, 22.71397
120.5230, 24.09221
121.0051, 21.95837
121.4872, 19.40961
121.9694, 17.91226
122.4515, 17.21653
122.9336, 16.97591
123.4157, 17.08437
123.8978, 17.56651
124.3799, 18.59879
124.8621, 20.22889
125.3442, 21.87741
125.8263, 22.90083
126.3084, 23.53751
126.7905, 24.37465
127.2726, 25.81071
127.7548, 27.59999
128.2369, 29.39256
128.7190, 31.19350
129.2011, 32.87339
129.6832, 34.07899
130.1653, 34.90399
130.6474, 35.97689
131.1296, 38.01014
131.6117, 40.64897
132.0938, 42.60913
132.5759, 43.56258
133.0580, 44.10205
133.5401, 45.29847
134.0223, 47.16409
134.5044, 49.34174
134.9865, 51.68033
135.4686, 54.19435
135.9507, 56.62471
136.4328, 58.95105
136.9150, 61.21054
137.3971, 63.46098
137.8792, 65.70491
138.3613, 67.97636
138.8434, 70.35176
139.3255, 72.85690
139.8077, 75.21959
140.2898, 77.35419
140.7719, 79.28316
141.2540, 81.47611
141.7361, 84.10822
142.2182, 86.67579
142.7004, 88.71091
143.1825, 90.16185
143.6646, 91.12280
144.1467, 91.30803
144.6288, 90.60557
145.1109, 91.04527
145.5931, 93.28255
146.0752, 96.13911
146.5573, 98.23534
147.0394, 99.03451
147.5215, 99.82150
148.0036, 100.8702
148.4858, 102.2431
148.9679, 103.6913
149.4500, 105.1842
149.9321, 106.7668
150.4142, 108.4714
150.8963, 110.3289
151.3785, 112.3120
151.8606, 114.4099
152.3427, 116.7406
152.8248, 118.9934
153.3069, 120.8511
153.7890, 122.6680
154.2712, 124.6966
154.7533, 127.4808
155.2354, 129.8963
155.7175, 131.2966
156.1996, 131.0399
156.6817, 130.8860
157.1639, 131.1562
157.6460, 131.6891
158.1281, 132.1369
158.6102, 132.1965
159.0923, 132.3174
159.5744, 132.7638
160.0566, 133.9270
160.5387, 134.8484
161.0208, 134.9880
161.5029, 134.6358
161.9850, 134.6361
162.4671, 135.9173
162.9493, 137.2744
163.4314, 137.8718
163.9135, 137.0315
164.3956, 136.0415
164.8777, 135.3066
165.3598, 134.8286
165.8420, 134.6319
166.3241, 134.8985
166.8062, 135.3645
167.2883, 135.7934
167.7704, 136.0491
168.2525, 136.3138
168.7346, 136.7318
169.2168, 137.2767
169.6989, 137.7915
170.1810, 138.1188
170.6631, 138.3805
171.1452, 138.7306
171.6273, 139.4366
172.1095, 140.0757
172.5916, 140.1317
173.0737, 139.6647
173.5558, 139.3686
174.0379, 139.9516
174.5201, 141.0054
175.0022, 141.8838
175.4843, 142.2466
175.9664, 142.3752
176.4485, 142.4576
176.9306, 142.4964
177.4128, 142.7969
177.8949, 143.9974
178.3770, 145.6653
178.8591, 146.8680
179.3412, 146.9102
179.8233, 146.3678
180.3055, 146.1103
180.7876, 146.1393
181.2697, 146.3539
181.7518, 146.7793
182.2339, 147.3364
182.7160, 147.7818
183.1982, 147.9095
183.6803, 147.8656
184.1624, 147.9238
184.6445, 148.0739
185.1266, 148.4135
185.6087, 149.3270
186.0909, 150.6635
186.5730, 151.5642
187.0551, 151.3051
187.5372, 150.2850
188.0193, 149.9189
188.5014, 150.3210
188.9836, 150.9520
189.4657, 151.2397
189.9478, 151.1847
190.4299, 150.8213
190.9120, 149.9160
191.3941, 148.6260
191.8763, 147.8285
192.3584, 147.5926
192.8405, 147.6937
193.3226, 147.9386
193.8047, 148.3279
194.2868, 148.5402
194.7690, 148.4672
195.2511, 148.1074
195.7332, 147.3620
196.2153, 146.1540
196.6974, 144.7380
197.1795, 143.5809
197.6617, 142.6949
198.1438, 141.8489
198.6259, 140.8618
199.1080, 139.7382
199.5901, 139.0146
200.0722, 138.8826
200.5544, 138.8713
201.0365, 137.9450
201.5186, 135.9219
202.0007, 134.1098
202.4828, 133.2647
202.9649, 133.4757
203.4471, 133.3635
203.9292, 132.8159
204.4113, 132.0342
204.8934, 131.3938
205.3755, 130.9137
205.8576, 130.5135
206.3398, 130.1769
206.8219, 129.9171
207.3040, 129.6147
207.7861, 129.2374
208.2682, 128.8514
208.7503, 128.6235
209.2325, 128.6101
209.7146, 128.5866
210.1967, 128.4522
210.6788, 128.1934
211.1609, 127.8905
211.6430, 127.5274
212.1252, 127.1340
212.6073, 126.7621
213.0894, 126.3821
213.5715, 126.1039
214.0536, 126.0096
214.5357, 126.1706
215.0179, 126.2411
215.5000, 126.1811
215.9821, 126.0541
216.4642, 126.0013
216.9463, 126.0361
217.4284, 126.1146
217.9105, 126.2269
218.3927, 126.3876
218.8748, 126.5406
219.3569, 126.7376
219.8390, 126.8975
220.3211, 126.7875
220.8032, 126.1795
221.2854, 125.7286
221.7675, 125.7381
222.2496, 126.3803
222.7317, 126.9798
223.2138, 127.6782
223.6959, 128.2625
224.1781, 128.1810
224.6602, 126.9790
225.1423, 125.9092
225.6244, 125.5403
226.1065, 126.1414
226.5886, 126.6214
227.0708, 126.9592
227.5529, 127.1899
228.0350, 127.3765
228.5171, 127.4715
228.9992, 127.6082
229.4813, 127.8983
229.9635, 128.5275
230.4456, 128.6877
230.9277, 128.0479
231.4098, 127.1091
231.8919, 126.8976
232.3740, 127.9640
232.8562, 128.8697
233.3383, 129.0041
233.8204, 127.9717
234.3025, 127.4701
234.7846, 127.6574
235.2667, 128.2876
235.7489, 128.9727
236.2310, 129.9561
236.7131, 130.5959
237.1952, 130.5725
237.6773, 129.5986
238.1594, 129.0400
238.6416, 129.0940
239.1237, 129.4438
239.6058, 129.5221
240.0879, 128.9152
240.5700, 128.7204
241.0521, 129.4617
241.5343, 130.4021
242.0164, 131.9987
242.4985, 132.9839
242.9806, 133.3904
243.4627, 131.4853
243.9448, 132.5651
244.4270, 132.4488
244.9091, 132.2834
245.3912, 133.7834
245.8733, 132.2145
246.3554, 133.6881
246.8375, 133.9472
247.3197, 134.7622
247.8018, 134.3734
248.2839, 134.3565
248.7660, 135.5436
249.2481, 136.0640
249.7302, 135.5367
250.2124, 136.3871
250.6945, 134.7761
251.1766, 135.3249
251.6587, 136.8056
252.1408, 136.3388
252.6229, 137.2111
253.1051, 137.5735
253.5872, 135.6181
254.0693, 137.6934
254.5514, 138.0256
255.0335, 136.5679
255.5156, 138.5051
255.9978, 138.9134
256.4799, 139.5318
256.9620, 139.1711
257.4441, 138.8087
257.9262, 138.3244
258.4083, 137.9896
258.8904, 138.0986
259.3726, 138.8488
259.8547, 139.5499
260.3368, 140.0552
260.8189, 140.3925
261.3010, 140.8906
261.7831, 141.7675
262.2653, 142.4635
262.7474, 142.3433
263.2295, 140.8412
263.7116, 140.2258
264.1937, 141.1454
264.6758, 143.2370
265.1580, 144.3870
265.6401, 144.1865
266.1222, 143.8004
266.6043, 144.1227
267.0864, 145.4760
267.5685, 146.3637
268.0507, 146.5001
268.5328, 146.1049
269.0149, 146.0112
269.4970, 146.2910
269.9791, 146.7020
270.4612, 147.1335
270.9434, 147.5986
271.4255, 147.9815
271.9076, 148.1909
272.3897, 148.3730
272.8718, 148.9603
273.3539, 150.0562
273.8361, 151.2125
274.3182, 152.2101
274.8003, 153.0336
275.2824, 153.7854
275.7645, 154.4733
276.2466, 155.0732
276.7288, 155.5237
277.2109, 155.8052
277.6930, 156.0242
278.1751, 156.1945
278.6572, 156.3112
279.1393, 156.5031
279.6215, 156.7722
280.1036, 157.1174
280.5857, 157.5045
281.0678, 157.9176
281.5499, 158.5324
282.0320, 159.5539
282.5142, 160.9314
282.9963, 161.8594
283.4784, 162.2793
283.9605, 162.4342
284.4426, 162.4906
284.9247, 162.4404
285.4069, 162.7122
285.8890, 163.6187
286.3711, 164.9750
286.8532, 165.8946
287.3353, 166.3383
287.8174, 166.5605
288.2996, 166.6902
288.7817, 166.7553
289.2638, 167.1197
289.7459, 168.0491
290.2280, 169.2590
290.7101, 169.8873
291.1923, 169.9034
291.6744, 169.8768
292.1565, 170.3694
292.6386, 171.2748
293.1207, 172.0107
293.6028, 172.3209
294.0850, 172.5539
294.5671, 173.0173
295.0492, 173.7733
295.5313, 174.3009
296.0134, 174.6123
296.4955, 174.0604
296.9777, 174.6234
297.4598, 174.7396
297.9419, 174.8375
298.4240, 175.5574
298.9061, 175.6577
299.3882, 176.1600
299.8704, 176.4795
300.3525, 176.6205
300.8346, 176.5431
301.3167, 176.2012
301.7988, 175.8367
302.2809, 175.7270
302.7631, 175.8138
303.2452, 175.9150
303.7273, 176.0571
304.2094, 176.1146
304.6915, 175.8610
305.1736, 175.2628
305.6558, 174.6001
306.1379, 174.1312
306.6200, 173.7700
307.1021, 173.3573
307.5842, 172.6970
308.0663, 171.5087
308.5485, 171.5409
309.0306, 171.3448
309.5127, 170.9326
309.9948, 169.6570
310.4769, 169.4963
310.9590, 168.8888
311.4412, 168.2629
311.9233, 168.2591
312.4054, 167.1091
312.8875, 167.0954
313.3696, 166.6282
313.8517, 166.3685
314.3339, 165.6592
314.8160, 165.0888
315.2981, 164.9682
315.7802, 164.5985
316.2623, 163.9990
316.7444, 164.1631
317.2266, 164.0961
317.7087, 163.3689
318.1908, 162.4587
318.6729, 161.6733
319.1550, 161.1432
319.6371, 160.5141
320.1193, 159.5080
320.6014, 158.3504
321.0835, 157.3966
321.5656, 156.8481
322.0477, 156.4456
322.5298, 156.1368
323.0120, 155.9615
323.4941, 155.6206
323.9762, 154.8410
324.4583, 153.9422
324.9404, 153.2705
325.4225, 153.0679
325.9047, 152.9080
326.3868, 152.6495
326.8689, 152.2805
327.3510, 152.1089
327.8331, 152.6846
328.3152, 153.1559
328.7974, 152.9306
329.2795, 150.9858
329.7616, 149.5503
330.2437, 149.1088
330.7258, 149.4333
331.2079, 149.2267
331.6901, 147.9196
332.1722, 146.6435
332.6543, 145.9747
333.1364, 146.4060
333.6185, 146.5382
334.1006, 146.2240
334.5828, 145.6400
335.0649, 145.2117
335.5470, 144.9957
336.0291, 144.8262
336.5112, 144.6504
336.9933, 144.4685
337.4755, 144.2823
337.9576, 144.1128
338.4397, 143.9193
338.9218, 143.6374
339.4039, 143.2547
339.8860, 142.8383
340.3681, 142.4077
340.8503, 141.9600
341.3324, 141.4979
341.8145, 141.0090
342.2966, 140.5289
342.7787, 140.0562
343.2608, 139.5911
343.7430, 139.2160
344.2251, 138.9464
344.7072, 138.7810
345.1893, 138.7635
345.6714, 138.9057
346.1535, 139.0452
346.6357, 138.9792
347.1178, 138.7716
347.5999, 138.5174
348.0820, 138.8479
348.5641, 138.9501
349.0462, 138.8362
349.5284, 137.8589
350.0105, 137.9965
350.4926, 137.6873
350.9747, 137.3598
351.4568, 137.6543
351.9389, 136.8026
352.4211, 137.0871
352.9032, 136.9182
353.3853, 136.9568
353.8674, 136.5459
354.3495, 136.2738
354.8316, 136.4514
355.3138, 136.3800
355.7959, 135.0663
356.2780, 134.5031
356.7601, 134.5599
357.2422, 134.8529
357.7243, 134.8487
358.2065, 134.1515
358.6886, 133.5118
359.1707, 133.5732
359.6528, 134.1385
360.1349, 134.6135
360.6170, 134.6932
361.0992, 134.5840
361.5813, 134.3800
362.0634, 134.0259
362.5455, 133.8170
363.0276, 134.0767
363.5097, 134.5127
363.9919, 134.6907
364.4740, 134.1236
364.9561, 133.5972
365.4382, 133.5322
365.9203, 134.0077
366.4024, 134.1575
366.8846, 133.5472
367.3667, 132.6867
367.8488, 131.9892
368.3309, 131.3320
368.8130, 131.0334
369.2951, 131.4596
369.7773, 132.4394
370.2594, 132.7809
370.7415, 131.8565
371.2236, 130.8806
371.7057, 130.4100
372.1878, 130.7725
372.6700, 131.0161
373.1521, 131.0941
373.6342, 131.0726
374.1163, 131.0720
374.5984, 131.0871
375.0805, 131.1317
375.5627, 131.2105
376.0448, 131.3238
376.5269, 131.4763
377.0090, 131.7055
377.4911, 131.9074
377.9732, 131.9297
378.4554, 131.7278
378.9375, 131.6545
379.4196, 131.8775
379.9017, 132.2462
380.3838, 132.1091
380.8659, 131.3990
381.3481, 130.7251
381.8302, 130.6059
382.3123, 130.9661
382.7944, 131.2441
383.2765, 131.3696
383.7586, 131.4305
384.2408, 131.6538
384.7229, 131.9844
385.2050, 132.0887
385.6871, 131.5680
386.1692, 130.7642
386.6513, 130.1336
387.1335, 129.6740
387.6156, 129.8520
388.0977, 131.2891
388.5798, 131.7426
389.0619, 131.9677
389.5440, 131.9767
390.0262, 131.1223
390.5083, 131.3828
390.9904, 131.1965
391.4725, 130.9918
391.9546, 131.4092
392.4367, 130.6804
392.9189, 131.0879
393.4010, 131.0418
393.8831, 131.2034
394.3652, 130.9154
394.8473, 130.7662
395.3294, 131.0667
395.8116, 131.1182
396.2937, 130.7785
396.7758, 130.9532
397.2579, 130.2087
397.7400, 130.2708
398.2221, 130.1631
398.7043, 130.1217
399.1864, 130.2930
399.6685, 130.9796
400.1506, 131.5276
400.6327, 131.8504
401.1148, 131.9771
401.5970, 132.0370
402.0791, 131.9431
402.5612, 131.8830
403.0433, 131.9776
403.5254, 132.3891
404.0075, 132.4847
404.4897, 132.1284
404.9718, 131.5796
405.4539, 131.2053
405.9360, 130.9974
406.4181, 131.0127
406.9002, 131.3633
407.3824, 131.9900
407.8645, 132.3097
408.3466, 132.2644
408.8287, 132.1317
409.3108, 132.2215
409.7929, 132.5115
410.2751, 132.4910
410.7572, 131.9523
411.2393, 131.2796
411.7214, 131.3285
412.2035, 132.0179
412.6856, 132.6078
413.1678, 132.4738
413.6499, 131.9715
414.1320, 131.9613
414.6141, 132.5266
415.0962, 133.1037
415.5783, 133.1485
416.0605, 132.8351
416.5426, 132.4837
417.0247, 132.1174
417.5068, 131.8458
417.9889, 131.6438
418.4710, 131.5716
418.9532, 131.6547
419.4353, 132.2665
419.9174, 132.6499
420.3995, 132.8172
420.8816, 132.1211
421.3637, 132.5399
421.8459, 132.5119
422.3280, 132.4656
422.8101, 133.0413
423.2922, 132.4708
423.7743, 133.0366
424.2564, 133.1489
424.7386, 133.4687
425.2207, 133.3390
425.7028, 133.3482
426.1849, 133.8070
426.6670, 133.2827
427.1491, 133.3764
427.6313, 133.5274
428.1134, 133.8245
428.5955, 134.1650
429.0776, 134.2252
429.5597, 133.8148
430.0418, 133.5165
430.5240, 133.6760
431.0061, 134.3687
431.4882, 134.3968
431.9703, 133.5272
432.4524, 132.5025
432.9345, 132.2077
433.4167, 132.6591
433.8988, 133.1669
434.3809, 133.6262
434.8630, 133.9829
435.3451, 133.9709
435.8272, 133.6067
436.3094, 133.3905
436.7915, 133.8769
437.2736, 134.7455
437.7557, 135.1538
438.2378, 134.9777
438.7199, 134.6727
439.2020, 134.7064
439.6841, 134.9513
440.1663, 135.1462
440.6484, 135.0858
441.1305, 135.0022
441.6126, 135.1188
442.0947, 135.4035
442.5768, 135.6588
443.0590, 135.5542
443.5411, 135.1275
444.0232, 135.6919
444.5053, 136.0280
444.9874, 136.1479
445.4695, 135.4045
445.9517, 135.7759
446.4338, 135.7006
446.9159, 135.6069
447.3980, 136.1353
447.8801, 135.5174
448.3622, 136.0359
448.8444, 136.1008
449.3265, 136.3733
449.8086, 136.1962
450.2907, 136.1580
450.7728, 136.5695
451.2549, 136.7319
451.7371, 136.5031
452.2192, 136.7888
452.7013, 136.1553
453.1834, 136.3284
453.6655, 136.6400
454.1476, 137.3177
454.6298, 137.7670
455.1119, 138.0003
455.5940, 137.3701
456.0761, 137.8548
456.5582, 137.8927
457.0403, 137.9123
457.5225, 138.5539
458.0046, 138.0494
458.4867, 138.6811
458.9688, 138.8593
459.4509, 139.2450
459.9330, 139.1812
460.4152, 139.2563
460.8973, 139.7810
461.3794, 139.5959
461.8615, 139.7472
462.3436, 139.9084
462.8257, 140.3718
463.3079, 140.9018
463.7900, 141.2283
464.2721, 141.1118
464.7542, 140.9817
465.2363, 141.0110
465.7184, 141.1600
466.2006, 141.3147
466.6827, 141.3899
467.1648, 141.5164
467.6469, 141.7646
468.1290, 142.1812
468.6111, 142.5517
469.0933, 142.8427
469.5754, 143.1090
470.0575, 143.4131
470.5396, 143.8268
471.0217, 144.1271
471.5038, 144.2469
471.9860, 144.2480
472.4681, 144.3399
472.9502, 144.5340
473.4323, 144.7809
473.9144, 145.0154
474.3965, 145.2444
474.8787, 145.7860
475.3608, 146.7191
475.8429, 147.5812
476.3250, 147.6356
476.8071, 147.0760
477.2892, 146.9140
477.7714, 147.5254
478.2535, 148.4832
478.7356, 149.2252
479.2177, 149.7874
479.6998, 150.3087
480.1819, 150.9044
480.6641, 151.4917
481.1462, 151.7517
481.6283, 151.6055
482.1104, 151.7247
482.5925, 152.8463
483.0746, 153.7396
483.5568, 154.4170
484.0389, 154.2308
484.5210, 155.1595
485.0031, 155.6414
485.4852, 156.1050
485.9673, 157.1906
486.4495, 157.1302
486.9316, 158.2059
487.4137, 158.8280
487.8958, 159.6578
488.3779, 160.0380
488.8600, 160.5570
489.3422, 161.5259
489.8243, 162.2457
490.3064, 162.5741
490.7885, 163.4171
491.2706, 163.3407
491.7527, 164.0711
492.2349, 165.1496
492.7170, 165.5007
493.1991, 166.3518
493.6812, 167.0125
494.1633, 166.8076
494.6454, 168.1080
495.1276, 168.7576
495.6097, 168.7386
496.0918, 169.9874
496.5739, 170.0606
497.0560, 170.5533
497.5381, 171.3620
498.0203, 171.8415
498.5024, 172.8400
498.9845, 173.8552
499.4666, 174.8597
499.9487, 175.1113
500.4308, 175.2920
500.9130, 175.8245
501.3951, 176.7234
501.8772, 177.6055
502.3593, 178.4160
502.8414, 179.1213
503.3235, 179.6922
503.8057, 179.7351
504.2878, 180.2197
504.7699, 181.4623
505.2520, 183.0482
505.7341, 184.1742
506.2162, 184.1742
506.6984, 185.0866
507.1805, 187.8589
507.6626, 192.1798
508.1447, 195.0150
508.6268, 196.1307
509.1089, 196.6224
509.5911, 197.0300
510.0732, 197.3936
510.5553, 198.2764
511.0374, 199.8277
511.5195, 201.4876
512.0016, 202.3934
512.4838, 202.7862
512.9659, 203.4505
513.4480, 204.8187
513.9301, 206.4656
514.4122, 207.9259
514.8943, 209.2466
515.3765, 210.6220
515.8586, 212.2876
516.3407, 213.9736
516.8228, 215.4776
517.3049, 216.7883
517.7870, 217.9020
518.2692, 218.4942
518.7513, 219.0296
519.2334, 219.9533
519.7155, 221.8081
520.1976, 223.4829
520.6797, 224.7447
521.1619, 225.7489
521.6440, 226.9582
522.1261, 228.5760
522.6082, 230.0095
523.0903, 230.9541
523.5724, 231.3962
524.0546, 232.2478
524.5367, 233.6157
525.0188, 235.0510
525.5009, 236.0948
525.9830, 236.7985
526.4651, 237.7560
526.9473, 239.1418
527.4294, 240.5748
527.9115, 241.4453
528.3936, 241.8694
528.8757, 242.2493
529.3578, 242.7635
529.8400, 243.3154
530.3221, 243.9137
530.8042, 244.5052
531.2863, 244.8036
531.7684, 244.2949
532.2505, 243.6507
532.7327, 243.4739
533.2148, 244.0972
533.6969, 244.3526
534.1790, 243.6164
534.6611, 242.4807
535.1432, 241.6231
535.6254, 241.3961
536.1075, 241.0740
536.5896, 240.6514
537.0717, 240.0856
537.5538, 239.2070
538.0359, 237.8770
538.5181, 236.5461
539.0002, 235.3626
539.4823, 234.3331
539.9644, 233.5498
540.4465, 233.0907
540.9286, 232.4901
541.4108, 231.2176
541.8929, 229.3966
542.3750, 227.6263
542.8571, 226.0276
543.3392, 224.4509
543.8214, 222.6636
544.3035, 220.7495
544.7856, 218.8547
545.2677, 216.9250
545.7498, 215.1355
546.2319, 213.6708
546.7141, 212.4983
547.1962, 211.4182
547.6783, 210.6477
548.1604, 209.7222
548.6425, 208.2749
549.1246, 206.0010
549.6068, 204.0465
550.0889, 202.7918
550.5710, 201.7229
551.0531, 200.3751
551.5352, 198.6558
552.0173, 196.8169
552.4995, 194.7775
552.9816, 192.7240
553.4637, 191.2695
553.9458, 190.5273
554.4279, 189.5851
554.9100, 187.8717
555.3922, 185.6637
555.8743, 184.0950
556.3564, 183.1794
556.8385, 182.4564
557.3206, 181.5955
557.8027, 180.6753
558.2849, 179.8746
558.7670, 179.2814
559.2491, 178.5061
559.7312, 176.9834
560.2133, 175.1793
560.6954, 173.7323
561.1776, 173.1970
561.6597, 172.7185
562.1418, 172.0198
562.6239, 171.1456
563.1060, 170.2845
563.5881, 169.3420
564.0703, 168.5344
564.5524, 168.0145
565.0345, 167.8380
565.5166, 167.2372
565.9987, 165.9913
566.4808, 164.6958
566.9630, 163.8029
567.4451, 163.3428
567.9272, 162.9810
568.4093, 162.7253
568.8914, 162.4612
569.3735, 161.9548
569.8557, 161.2709
570.3378, 160.6663
570.8199, 160.0664
571.3020, 159.3029
571.7841, 159.6462
572.2662, 159.7612
572.7484, 159.6599
573.2305, 158.6954
573.7126, 158.8457
574.1947, 158.5493
574.6768, 158.2345
575.1589, 158.5417
575.6411, 157.7027
576.1232, 158.0001
576.6053, 157.8439
577.0874, 157.8953
577.5695, 157.4971
578.0516, 157.2378
578.5338, 157.4281
579.0159, 157.3695
579.4980, 156.9196
579.9801, 156.9841
580.4622, 156.1295
580.9443, 156.0815
581.4265, 156.3814
581.9086, 155.6766
582.3907, 155.3280
582.8728, 155.9544
583.3549, 156.3524
583.8370, 156.5343
584.3192, 155.8528
584.8013, 156.2862
585.2834, 156.2728
585.7655, 156.2411
586.2476, 156.8314
586.7297, 156.2755
587.2118, 156.8559
587.6939, 156.9827
588.1760, 157.3172
588.6581, 157.2021
589.1403, 157.2258
589.6224, 157.0710
590.1045, 157.9225
590.5866, 158.5456
591.0687, 158.9527
591.5508, 158.4963
592.0330, 159.1549
592.5151, 159.3665
592.9972, 159.5599
593.4793, 160.3754
593.9614, 160.0446
594.4435, 160.8501
594.9257, 161.2021
595.4078, 161.7616
595.8899, 161.8717
596.3720, 162.1205
596.8541, 162.8191
597.3362, 163.2686
597.8184, 163.3269
598.3005, 163.8996
598.7826, 163.5531
599.2647, 164.0133
599.7468, 164.8215
600.2289, 165.6493
600.7111, 166.5889
601.1932, 167.1874
601.6753, 167.8651
602.1574, 168.7959
602.6395, 169.9471
603.1216, 170.9506
603.6038, 171.8268
604.0859, 172.5233
604.5680, 172.9316
605.0501, 173.0173
605.5322, 173.3506
606.0143, 173.9320
606.4965, 174.7700
606.9786, 176.0441
607.4607, 177.5966
607.9428, 178.9147
608.4249, 179.8625
608.9070, 180.6736
609.3892, 181.5178
609.8713, 182.4176
610.3534, 183.4381
610.8355, 184.5762
611.3176, 185.8434
611.7997, 187.5033
612.2819, 189.3521
612.7640, 190.6944
613.2461, 190.6805
613.7282, 190.8124
614.2103, 191.4607
614.6924, 192.5929
615.1746, 194.7044
615.6567, 198.2458
616.1388, 201.8764
616.6209, 204.8802
617.1030, 207.2496
617.5851, 208.5041
618.0673, 208.4323
618.5494, 208.0896
619.0315, 208.6481
619.5136, 209.9436
619.9957, 211.5322
620.4778, 213.3901
620.9600, 215.3563
621.4421, 217.3261
621.9242, 219.3018
622.4063, 221.2555
622.8884, 222.7495
623.3705, 224.6518
623.8527, 227.6602
624.3348, 231.5625
624.8169, 234.9204
625.2990, 237.1414
625.7811, 239.2725
626.2632, 241.6669
626.7454, 244.3598
627.2275, 246.8260
627.7096, 248.8992
628.1917, 251.1797
628.6738, 254.3138
629.1559, 258.2123
629.6381, 261.8081
630.1202, 265.0006
630.6023, 268.0118
631.0844, 270.9170
631.5665, 273.8892
632.0486, 277.3447
632.5308, 281.5989
633.0129, 285.9640
633.4950, 289.9401
633.9771, 293.6649
634.4592, 297.4809
634.9413, 301.3524
635.4235, 305.4677
635.9056, 309.9596
636.3877, 314.7940
636.8698, 319.7293
637.3519, 324.6754
637.8340, 329.7981
638.3162, 335.1865
638.7983, 340.8703
639.2804, 346.0743
639.7625, 350.6966
640.2446, 355.5617
640.7267, 361.7386
641.2089, 368.7252
641.6910, 374.4708
642.1731, 378.6363
642.6552, 382.6819
643.1373, 387.7775
643.6194, 393.5680
644.1016, 399.6029
644.5837, 405.8141
645.0658, 412.0952
645.5479, 418.2432
646.0300, 424.4022
646.5121, 430.6303
646.9943, 437.4020
647.4764, 443.7349
647.9585, 449.3140
648.4406, 454.3760
648.9227, 460.0894
649.4048, 466.6978
649.8870, 472.9906
650.3691, 478.3646
650.8512, 483.0927
651.3333, 488.7172
651.8154, 495.1979
652.2975, 501.6935
652.7797, 507.8812
653.2618, 513.6346
653.7439, 518.8536
654.2260, 523.4998
654.7081, 527.8959
655.1902, 532.1850
655.6724, 536.2697
656.1545, 540.1418
656.6366, 543.9295
657.1187, 547.1946
657.6008, 549.4748
658.0829, 551.4103
658.5651, 553.7578
659.0472, 556.9142
659.5293, 559.3862
660.0114, 560.9570
660.4935, 561.7786
660.9756, 562.1796
661.4578, 562.1450
661.9399, 561.3965
662.4220, 559.4176
662.9041, 557.0880
663.3862, 556.0343
663.8683, 555.9104
664.3505, 555.3271
664.8326, 553.3203
665.3147, 550.7582
665.7968, 548.4465
666.2789, 546.3461
666.7610, 543.1969
667.2432, 537.6108
667.7253, 531.8107
668.2074, 526.9081
668.6895, 523.1172
669.1716, 519.1213
669.6537, 514.8838
670.1359, 510.4624
670.6180, 505.9276
671.1001, 501.3073
671.5822, 496.2576
672.0643, 490.6655
672.5464, 485.0047
673.0286, 480.1010
673.5107, 475.5831
673.9928, 470.5306
674.4749, 464.3117
674.9570, 458.2445
675.4391, 453.7863
675.9213, 450.0171
676.4034, 445.4101
676.8855, 439.1864
677.3676, 432.6113
677.8497, 425.2543
678.3318, 417.7955
678.8140, 412.2593
679.2961, 409.7546
679.7782, 406.5007
680.2603, 400.9632
680.7424, 393.7428
681.2245, 386.8966
681.7067, 380.3994
682.1888, 374.4984
682.6709, 369.6251
683.1530, 365.2891
683.6351, 360.5297
684.1172, 355.4095
684.5994, 350.2413
685.0815, 345.2297
685.5636, 340.3364
686.0457, 335.4966
686.5278, 330.7723
687.0099, 325.9969
687.4921, 320.7718
687.9742, 315.7972
688.4563, 311.6920
688.9384, 308.9271
689.4205, 305.5411
689.9026, 301.2735
690.3848, 296.6497
690.8669, 292.3185
691.3490, 288.2206
691.8311, 284.1719
692.3132, 280.1561
692.7953, 276.2207
693.2775, 272.4690
693.7596, 268.8168
694.2417, 265.0639
694.7238, 260.8903
695.2059, 256.8598
695.6880, 253.2819
696.1702, 250.0414
696.6523, 246.6754
697.1344, 243.0483
697.6165, 239.3548
698.0986, 235.4258
698.5807, 231.4355
699.0629, 228.6414
699.5450, 227.3803
700.0271, 225.5772
700.5092, 221.8634
700.9913, 216.8380
701.4734, 212.3398
701.9556, 208.3789
702.4377, 205.0981
702.9198, 203.2050
703.4019, 201.6771
703.8840, 199.3495
704.3661, 196.0827
704.8483, 192.9576
705.3304, 190.5219
705.8125, 188.2747
706.2946, 185.9044
706.7767, 183.4102
707.2589, 180.7144
707.7410, 177.6997
708.2231, 174.6898
708.7052, 171.9240
709.1873, 169.4015
709.6694, 167.1819
710.1516, 165.3101
710.6337, 163.5544
711.1158, 161.6653
711.5979, 159.6570
712.0800, 157.5889
712.5621, 155.3982
713.0443, 153.2903
713.5264, 151.4715
714.0085, 149.8090
714.4906, 148.0672
714.9727, 146.2643
715.4548, 144.2971
715.9370, 141.8841
716.4191, 139.3800
716.9012, 137.6069
717.3833, 136.8471
717.8654, 135.8070
718.3475, 133.9735
718.8297, 131.7586
719.3118, 130.3168
719.7939, 129.5480
720.2760, 128.7312
720.7581, 127.2964
721.2402, 125.7628
721.7224, 124.8752
722.2045, 124.4602
722.6866, 123.7201
723.1687, 121.9592
723.6508, 120.1241
724.1329, 118.6686
724.6151, 117.6186
725.0972, 116.6089
725.5793, 115.8347
726.0614, 114.7732
726.5435, 112.9224
727.0256, 110.3622
727.5078, 108.9002
727.9899, 108.5980
728.4720, 108.4484
728.9541, 107.6445
729.4362, 106.4366
729.9183, 105.2618
730.4005, 104.1718
730.8826, 103.0742
731.3647, 101.8057
731.8468, 100.5743
732.3289, 99.58019
732.8110, 98.95063
733.2932, 98.29704
733.7753, 97.52135
734.2574, 96.77198
734.7395, 96.20163
735.2216, 95.84570
735.7037, 95.47910
736.1859, 95.12724
736.6680, 94.62643
737.1501, 93.60905
737.6322, 92.25571
738.1143, 91.17388
738.5964, 90.53740
739.0786, 90.04778
739.5607, 89.53786
740.0428, 88.99268
740.5249, 88.39888
741.0070, 86.31099
741.4891, 86.29466
741.9713, 86.04975
742.4534, 85.58887
742.9355, 84.26468
743.4176, 84.05529
743.8997, 83.39912
744.3818, 82.72469
744.8640, 82.67207
745.3461, 81.47340
745.8282, 81.41112
746.3103, 80.89517
746.7924, 80.58683
747.2745, 80.33217
747.7567, 80.00083
748.2388, 79.61251
748.7209, 79.20054
749.2030, 78.75949
749.6851, 78.31067
750.1672, 77.82954
750.6494, 77.34216
751.1315, 76.96951
751.6136, 76.80168
752.0957, 76.55476
752.5778, 76.13319
753.0599, 75.56772
753.5421, 74.86570
754.0242, 74.05624
754.5063, 73.43909
754.9884, 73.37419
755.4705, 73.49233
755.9526, 73.35243
756.4348, 72.97649
756.9169, 72.51269
757.3990, 71.86268
757.8811, 71.29480
758.3632, 70.98446
758.8453, 70.94189
759.3275, 70.80715
759.8096, 70.55173
760.2917, 70.24722
760.7738, 69.82044
761.2559, 69.14367
761.7380, 69.41873
762.2202, 69.46532
762.7023, 69.29590
763.1844, 68.26307
763.6665, 68.34512
764.1486, 67.98037
764.6307, 67.59734
765.1129, 67.83623
765.5950, 66.92902
766.0771, 67.15811
766.5592, 66.93360
767.0413, 66.91670
767.5234, 66.45028
768.0056, 66.12262
768.4877, 66.24474
768.9698, 66.11784
769.4519, 66.22916
769.9340, 66.51596
770.4161, 66.18903
770.8983, 65.58636
771.3804, 64.75614
771.8625, 63.94428
772.3446, 63.60819
772.8267, 63.85195
773.3088, 64.07213
773.7910, 63.87665
774.2731, 63.59758
774.7552, 63.51866
775.2373, 63.82047
775.7194, 63.81867
776.2015, 62.72895
776.6837, 63.06515
777.1658, 63.17303
777.6479, 63.06479
778.1300, 62.09317
778.6121, 62.23642
779.0942, 61.93290
779.5764, 61.61100
780.0585, 61.91118
780.5406, 61.06514
781.0227, 61.35543
781.5048, 61.19212
781.9869, 61.23644
782.4691, 60.83114
782.9512, 60.56476
783.4332, 60.74807
783.9153, 60.68239
784.3975, 60.22534
784.8796, 60.28285
785.3617, 59.42110
785.8438, 59.36600
786.3259, 59.65893
786.8080, 59.22455
787.2902, 59.29021
787.7723, 59.16547
788.2544, 58.17511
788.7365, 58.29033
789.2186, 58.69821
789.7007, 58.87773
790.1829, 58.84111
790.6650, 57.94115
791.1471, 58.15604
791.6292, 57.92415
792.1113, 57.67394
792.5934, 58.04576
793.0756, 57.27134
793.5577, 57.63330
794.0398, 57.54163
794.5219, 57.65757
795.0040, 57.32397
795.4861, 57.12923
795.9683, 57.38414
796.4504, 57.39009
796.9325, 57.00474
797.4146, 57.13388
797.8967, 56.34378
798.3788, 56.36034
798.8610, 56.72489
799.3431, 56.36215
799.8252, 56.49951
800.3073, 56.44640
800.7894, 55.52769
801.2715, 56.11436
801.7537, 56.04996
802.2358, 55.31715
802.7179, 55.85223
803.2000, 55.21156
803.6821, 54.99056
804.1642, 55.08540
804.6464, 54.85096
805.1285, 55.13565
805.6106, 54.92025
806.0927, 54.66017
806.5748, 54.59508
807.0569, 53.97748
807.5391, 54.38487
808.0212, 54.09212
808.5033, 54.32166
808.9854, 54.18264
809.4675, 53.89610
809.9496, 53.58584
810.4318, 53.30318
810.9139, 53.20257
811.3960, 53.39288
811.8781, 53.50189
812.3602, 53.25550
812.8423, 52.84605
813.3245, 52.47183
813.8066, 51.97772
814.2887, 51.86500
814.7708, 52.34889
815.2529, 52.91483
815.7350, 52.93188
816.2172, 52.43208
816.6993, 52.03472
817.1814, 51.81195
817.6635, 51.73941
818.1456, 51.95229
818.6277, 52.23928
819.1099, 52.26056
819.5920, 51.39854
820.0741, 51.87106
820.5562, 52.11522
821.0383, 52.14326
821.5204, 51.30794
822.0026, 51.58746
822.4847, 51.42022
822.9668, 51.23465
823.4489, 51.67110
823.9310, 50.96135
824.4131, 51.38794
824.8953, 51.36090
825.3774, 51.54150
825.8595, 51.27253
826.3416, 51.14242
826.8237, 51.46200
827.3058, 51.53259
827.7880, 51.21186
828.2701, 51.40565
828.7522, 50.68019
829.2343, 50.76138
829.7164, 51.19061
830.1985, 50.89250
830.6807, 51.09448
831.1628, 51.10602
831.6449, 50.25195
832.1270, 50.90325
832.6091, 50.90353
833.0912, 50.23535
833.5734, 50.83505
834.0555, 50.25903
834.5376, 50.10267
835.0197, 50.26214
835.5018, 50.09238
835.9839, 50.44169
836.4661, 50.29092
836.9482, 50.09549
837.4303, 50.09504
837.9124, 49.54206
838.3945, 50.01413
838.8766, 49.78600
839.3588, 49.90591
839.8409, 50.10473
840.3230, 49.69949
840.8051, 49.93374
841.2872, 49.17630
841.7693, 49.24864
842.2515, 49.23162
842.7336, 49.74501
843.2157, 48.99239
843.6978, 49.04168
844.1799, 49.43242
844.6620, 49.34540
845.1442, 49.45812
845.6263, 48.97950
846.1084, 49.05641
846.5905, 48.98019
847.0726, 49.43312
847.5547, 49.45500
848.0369, 49.03570
848.5190, 49.49160
849.0011, 49.71912
849.4832, 49.73053
849.9653, 48.87858
850.4474, 49.14148
850.9296, 48.95758
851.4117, 48.75539
851.8938, 49.17521
852.3759, 48.44882
852.8580, 48.85878
853.3401, 48.81512
853.8223, 48.97906
854.3044, 48.69347
854.7865, 48.54673
855.2686, 48.84967
855.7507, 48.90363
856.2328, 48.56628
856.7150, 48.74341
857.1971, 48.00133
857.6792, 48.06588
858.1613, 48.47847
858.6434, 48.16373
859.1255, 48.34910
859.6077, 48.34398
860.0898, 48.08191
860.5719, 47.96513
861.0540, 47.56311
861.5361, 47.07347
862.0182, 46.82980
862.5004, 47.20752
862.9825, 47.44617
863.4646, 47.15151
863.9467, 46.75314
864.4288, 46.75336
864.9109, 47.27348
865.3931, 47.54723
865.8752, 47.46330
866.3573, 47.26856
866.8394, 47.21326
867.3215, 47.28036
867.8036, 47.50126
868.2858, 47.95245
868.7679, 48.17639
869.2500, 47.66900
869.7321, 46.99828
870.2142, 46.69478
870.6964, 46.92464
871.1785, 46.97720
871.6606, 46.79509
872.1427, 46.57478
872.6248, 46.48584
873.1069, 46.49651
873.5891, 46.43847
874.0712, 46.30809
874.5533, 46.27682
875.0354, 46.68984
875.5175, 47.08516
875.9996, 47.04324
876.4818, 46.51698
876.9639, 46.06662
877.4460, 45.67719
877.9281, 45.46381
878.4102, 45.49631
878.8923, 45.74970
879.3745, 46.13790
879.8566, 46.64701
880.3387, 46.99915
880.8208, 47.02683
881.3029, 46.82499
881.7850, 46.34890
882.2672, 45.70435
882.7493, 45.25153
883.2314, 45.06168
883.7135, 45.15521
884.1956, 45.78878
884.6777, 46.59862
885.1599, 46.40835
885.6420, 45.12870
886.1241, 44.36415
886.6062, 44.75810
887.0883, 45.52221
887.5704, 45.46563
888.0526, 44.99328
888.5347, 44.88898
889.0168, 45.96684
889.4989, 46.61996
889.9810, 45.81226
890.4631, 44.63348
890.9453, 44.37392
891.4274, 45.34756
891.9095, 45.75308
892.3916, 45.93020
892.8737, 45.89122
893.3558, 44.98889
893.8380, 45.20138
894.3201, 44.96711
894.8022, 44.71453
895.2843, 45.08396
895.7664, 44.30719
896.2485, 44.66676
896.7307, 44.57270
897.2128, 44.68626
897.6949, 44.35030
898.1770, 43.63734
898.6591, 43.51496
899.1412, 43.36934
899.6234, 43.28653
900.1055, 43.66710
900.5876, 44.43621
901.0697, 45.00238
901.5518, 44.95524
902.0339, 44.63154
902.5161, 44.01430
902.9982, 43.21239
903.4803, 42.97307
903.9624, 43.57674
904.4445, 44.08654
904.9266, 44.17001
905.4088, 44.01692
905.8909, 44.14931
906.3730, 44.48005
906.8551, 44.63733
907.3372, 44.36460
907.8193, 44.02301
908.3015, 43.73243
908.7836, 43.56733
909.2657, 43.68276
909.7478, 44.42566
910.2299, 44.81931
910.7120, 44.74799
911.1942, 44.39405
911.6763, 43.86828
912.1584, 43.23647
912.6405, 42.84241
913.1226, 42.75360
913.6047, 42.80552
914.0869, 42.54272
914.5690, 43.00644
915.0511, 43.24178
915.5332, 43.26100
916.0153, 42.41685
916.4974, 42.68758
916.9796, 42.51150
917.4617, 42.31712
917.9438, 42.74475
918.4259, 42.02618
918.9080, 42.44394
919.3901, 42.40811
919.8723, 42.57986
920.3544, 42.30209
920.8365, 42.16316
921.3186, 42.47392
921.8007, 42.53568
922.2828, 42.20616
922.7650, 42.39110
923.2471, 41.65684
923.7292, 41.72920
924.2113, 42.14960
924.6934, 41.36840
925.1755, 41.87328
925.6577, 42.14977
926.1398, 42.21016
926.6219, 41.40717
927.1040, 41.71905
927.5861, 41.58415
928.0682, 41.43092
928.5504, 41.89971
929.0325, 41.22230
929.5146, 41.68123
929.9967, 41.68655
930.4788, 41.89948
930.9609, 41.66286
931.4431, 41.56509
931.9252, 41.91701
932.4073, 42.01994
932.8894, 41.73156
933.3715, 41.95769
933.8536, 41.26458
934.3358, 41.37810
934.8179, 41.83966
935.3000, 41.57389
935.7821, 41.80824
936.2642, 41.85210
936.7463, 41.03038
937.2285, 41.71401
937.7106, 41.39753
938.1927, 41.36715
938.6748, 41.29424
939.1569, 41.10414
939.6390, 40.86930
940.1212, 40.75575
940.6033, 40.79364
941.0854, 40.95747
941.5675, 41.33458
942.0496, 41.69810
942.5317, 41.62053
943.0139, 41.20013
943.4960, 40.91870
943.9781, 40.87072
944.4602, 40.87807
944.9423, 40.74896
945.4244, 40.64797
945.9066, 40.75402
946.3887, 41.18140
946.8708, 41.44830
947.3529, 41.50196
947.8350, 41.52277
948.3171, 41.72364
948.7993, 41.97919
949.2814, 41.61942
949.7635, 40.75688
950.2456, 40.16064
950.7277, 40.66372
951.2098, 41.20384
951.6920, 41.02138
952.1741, 40.35176
952.6562, 40.14669
953.1383, 40.62402
953.6204, 41.00439
954.1025, 41.12102
954.5847, 41.08839
955.0668, 41.10199
955.5489, 41.12406
956.0310, 41.02819
956.5131, 40.71912
956.9952, 40.49105
957.4774, 40.57046
957.9595, 40.75323
958.4416, 40.86786
958.9237, 40.92058
959.4058, 40.82931
959.8879, 40.55323
960.3701, 40.32090
960.8522, 40.38103
961.3343, 40.58124
961.8164, 40.54705
962.2985, 40.32753
962.7806, 40.28029
963.2628, 40.96416
963.7449, 41.42127
964.2270, 41.10022
964.7091, 40.29762
965.1912, 39.89155
965.6733, 39.91432
966.1555, 40.02800
966.6376, 40.18252
967.1197, 40.29514
967.6018, 40.27013
968.0839, 40.12214
968.5660, 39.84220
969.0482, 39.25209
969.5303, 38.93735
970.0124, 39.20795
970.4945, 39.58587
970.9766, 39.70071
971.4587, 39.54097
971.9409, 39.56312
972.4230, 39.77732
972.9051, 39.96735
973.3872, 39.93052
973.8693, 39.81932
974.3514, 39.73774
974.8336, 39.25743
975.3157, 39.77153
975.7978, 40.05725
976.2799, 40.12687
976.7620, 39.33312
977.2441, 39.65423
977.7263, 39.52855
978.2084, 39.38456
978.6905, 39.86258
979.1726, 39.19440
979.6547, 39.66256
980.1368, 39.67712
980.6190, 39.34365
981.1010, 39.34000
981.5831, 39.76054
982.0652, 40.01873
982.5474, 40.09861
983.0295, 40.06094
983.5116, 39.86799
983.9937, 39.60740
984.4758, 39.54357
984.9579, 39.66442
985.4401, 39.83757
985.9222, 40.17140
986.4043, 40.35734
986.8864, 40.07716
987.3685, 39.54364
987.8506, 39.39915
988.3328, 39.71779
988.8149, 39.94411
989.2970, 39.92336
989.7791, 39.81722
990.2612, 39.84979
990.7433, 39.94640
991.2255, 39.99961
991.7076, 40.01517
992.1897, 39.88161
992.6718, 39.31604
993.1539, 38.86663
993.6360, 38.94635
994.1182, 39.54233
994.6003, 39.92815
995.0824, 40.10579
995.5645, 40.14188
996.0466, 40.02190
996.5287, 39.83403
997.0109, 39.62269
997.4930, 39.40593
997.9751, 39.22597
998.4572, 38.97269
998.9393, 39.00144
999.4214, 39.48273
999.9036, 40.07969
1000.386, 40.21346
1000.868, 39.99214
1001.350, 39.74894
1001.832, 39.54797
1002.314, 39.34648
1002.796, 39.02613
1003.278, 38.77289
1003.760, 38.74332
1004.243, 38.94206
1004.725, 39.25977
1005.207, 39.74160
1005.689, 40.09263
1006.171, 40.09066
1006.653, 39.90542
1007.135, 39.79509
1007.617, 39.73320
1008.100, 39.64649
1008.582, 39.57694
1009.064, 39.37280
1009.546, 38.86222
1010.028, 38.34416
1010.510, 38.23707
1010.992, 38.52461
1011.474, 38.95687
1011.956, 39.54175
1012.439, 39.86911
1012.921, 39.22824
1013.403, 38.43685
1013.885, 38.31179
1014.367, 38.94693
1014.849, 39.24099
1015.331, 38.94438
1015.813, 38.78645
1016.296, 38.43631
1016.778, 39.13911
1017.260, 39.61355
1017.742, 39.87188
1018.224, 39.26684
1018.706, 39.77667
1019.188, 39.83971
1019.670, 38.36219
1020.152, 38.01641
1020.635, 38.26646
1021.117, 39.25852
1021.599, 39.95295
1022.081, 40.32992
1022.563, 40.46508
1023.045, 40.40803
1023.527, 40.15024
1024.009, 39.49876
1024.492, 38.56462
1024.974, 38.01380
1025.456, 38.07151
1025.938, 38.49396
1026.420, 39.46576
1026.902, 40.49379
1027.384, 40.48442
1027.866, 39.65931
1028.349, 38.86208
1028.831, 38.21962
1029.313, 37.96014
1029.795, 38.64787
1030.277, 39.46300
1030.759, 39.61864
1031.241, 39.01614
1031.723, 39.02058
1032.205, 39.74422
1032.688, 40.37122
1033.170, 40.36161
1033.652, 40.05063
1034.134, 39.38069
1034.616, 39.91025
1035.098, 40.21143
1035.580, 40.29650
1036.062, 39.51820
1036.544, 39.85477
1037.027, 39.74456
1037.509, 39.61602
1037.991, 40.10950
1038.473, 39.45678
1038.955, 39.94040
1039.437, 39.97041
1039.919, 40.20802
1040.401, 39.99608
1040.884, 39.92302
1041.366, 40.29963
1041.848, 40.42723
1042.330, 40.16355
1042.812, 40.41436
1043.294, 39.74594
1043.776, 39.88416
1044.258, 40.37040
1044.740, 40.12932
1045.223, 40.38837
1045.705, 40.45692
1046.187, 39.65989
1046.669, 40.36821
1047.151, 40.14169
1047.633, 39.37434
1048.115, 39.72184
1048.597, 39.62257
1049.079, 39.50497
1049.562, 40.00943
1050.044, 39.36765
1050.526, 39.86221
1051.008, 39.90316
1051.490, 40.15171
1051.972, 39.95073
1052.454, 39.30621
1052.936, 39.59388
1053.419, 40.31571
1053.901, 40.95694
1054.383, 40.85074
1054.865, 40.37417
1055.347, 39.99596
1055.829, 39.76810
1056.311, 39.67919
1056.793, 39.76056
1057.276, 39.96258
1057.758, 40.37731
1058.240, 40.82539
1058.722, 40.66093
1059.204, 40.05119
1059.686, 39.76289
1060.168, 40.18261
1060.650, 40.53957
1061.132, 40.22308
1061.615, 39.72771
1062.097, 39.51550
1062.579, 39.62710
1063.061, 39.74023
1063.543, 39.85854
1064.025, 39.92955
1064.507, 39.84002
1064.989, 39.74311
1065.471, 39.89993
1065.954, 40.19753
1066.436, 40.35480
1066.918, 40.32861
1067.400, 40.05998
1067.882, 39.39124
1068.364, 38.76094
1068.846, 38.80674
1069.328, 39.30721
1069.811, 39.55840
1070.293, 39.51372
1070.775, 39.54663
1071.257, 40.05174
1071.739, 40.45790
1072.221, 40.34931
1072.703, 39.98479
1073.185, 40.41842
1073.667, 41.62437
1074.150, 42.02455
1074.632, 40.95656
1075.114, 39.83104
1075.596, 40.26557
1076.078, 41.20050
1076.560, 41.48169
1077.042, 40.81954
1077.524, 40.27910
1078.006, 39.81281
1078.489, 39.66100
1078.971, 40.21109
1079.453, 40.94138
1079.935, 40.63424
1080.417, 39.69024
1080.899, 39.08529
1081.381, 39.55502
1081.863, 39.85020
1082.345, 39.72916
1082.828, 39.49050
1083.310, 39.46566
1083.792, 39.59925
1084.274, 39.39986
1084.756, 38.88791
1085.238, 38.58570
1085.720, 38.96085
1086.202, 39.49590
1086.685, 40.01833
1087.167, 40.46199
1087.649, 40.62673
1088.131, 40.46295
1088.613, 40.56136
1089.095, 41.09125
1089.577, 41.50939
1090.059, 41.07847
1090.542, 40.34838
1091.024, 39.85904
1091.506, 39.68281
1091.988, 39.75580
1092.470, 40.20156
1092.952, 40.51544
1093.434, 40.43726
1093.916, 39.72980
1094.398, 40.22004
1094.880, 40.48188
1095.363, 40.52757
1095.845, 39.70995
1096.327, 40.00718
1096.809, 39.85764
1097.291, 39.68977
1097.773, 40.14393
1098.255, 39.45188
1098.737, 39.89617
1099.220, 39.88679
1099.702, 40.08508
1100.184, 39.83382
1100.666, 39.72141
1101.148, 40.05870
1101.630, 40.14698
1102.112, 39.84397
1102.594, 40.05546
1103.077, 39.34764
1103.559, 39.83635
1104.041, 40.06773
1104.523, 40.23320
1105.005, 40.25135
1105.487, 39.84638
1105.969, 39.17237
1106.451, 39.08690
1106.933, 39.93426
1107.416, 40.49000
1107.898, 40.53334
1108.380, 40.24083
1108.862, 39.59352
1109.344, 38.87524
1109.826, 38.58224
1110.308, 38.81069
1110.790, 39.06792
1111.272, 39.32663
1111.755, 39.45610
1112.237, 39.38259
1112.719, 39.17904
1113.201, 38.90973
1113.683, 38.66796
1114.165, 38.79136
1114.647, 39.51628
1115.129, 40.20328
1115.612, 40.75304
1116.094, 40.96669
1116.576, 40.59496
1117.058, 39.69379
1117.540, 39.27462
1118.022, 39.30209
1118.504, 39.34045
1118.986, 39.22346
1119.469, 38.97029
1119.951, 38.29018
1120.433, 37.63027
1120.915, 37.72791
1121.397, 38.90574
1121.879, 39.33357
1122.361, 38.90741
1122.843, 38.40984
1123.325, 38.46645
1123.807, 38.74578
1124.290, 38.95143
1124.772, 39.08216
1125.254, 39.16065
1125.736, 39.17378
1126.218, 39.18697
1126.700, 39.20526
1127.182, 39.23289
1127.664, 39.22387
1128.147, 39.25057
1128.629, 39.63279
1129.111, 40.32871
1129.593, 40.38195
1130.075, 38.66146
1130.557, 37.52858
1131.039, 37.68107
1131.521, 38.51134
1132.004, 38.99911
1132.486, 39.19598
1132.968, 39.22947
1133.450, 39.10424
1133.932, 38.97199
1134.414, 38.92558
1134.896, 38.85637
1135.378, 38.69004
1135.860, 38.46734
1136.343, 38.34276
1136.825, 38.31545
1137.307, 38.41499
1137.789, 38.74839
1138.271, 38.96012
1138.753, 38.80859
1139.235, 38.43133
1139.717, 37.82428
1140.199, 36.96891
1140.682, 37.14571
1141.164, 38.33809
1141.646, 39.44276
1142.128, 39.90504
1142.610, 39.98938
1143.092, 39.68284
1143.574, 39.22498
1144.056, 38.97961
1144.539, 39.00702
1145.021, 39.06220
1145.503, 39.14074
1145.985, 39.26631
1146.467, 38.82771
1146.949, 38.05418
1147.431, 38.62618
1147.913, 38.96980
1148.396, 39.09742
1148.878, 38.36157
1149.360, 38.74057
1149.842, 38.67279
1150.324, 38.58668
1150.806, 39.12260
1151.288, 38.51231
1151.770, 39.03836
1152.252, 39.11080
1152.734, 39.39086
1153.217, 39.22147
1153.699, 39.76588
1154.181, 39.35309
1154.663, 38.79663
1155.145, 38.76412
1155.627, 39.03160
1156.109, 39.14310
1156.591, 39.03871
1157.074, 38.86893
1157.556, 38.42994
1158.038, 38.29597
1158.520, 38.77931
1159.002, 39.49268
1159.484, 39.47861
1159.966, 38.97371
1160.448, 38.71442
1160.931, 38.89642
1161.413, 39.13715
1161.895, 39.36597
1162.377, 39.48470
1162.859, 39.36990
1163.341, 39.13919
1163.823, 38.90541
1164.305, 39.40805
1164.787, 39.68232
1165.270, 39.74044
1165.752, 38.93523
1166.234, 39.24488
1166.716, 39.10775
1167.198, 38.95229
1167.680, 39.41885
1168.162, 38.39423
1168.644, 38.91812
1169.126, 39.21363
1169.609, 39.29304
1170.091, 38.50907
1170.573, 38.83997
1171.055, 38.72408
1171.537, 38.58987
1172.019, 39.07768
1172.501, 38.41929
1172.983, 38.89724
1173.466, 38.92158
1173.948, 39.15353
1174.430, 38.93592
1174.912, 38.85717
1175.394, 39.22811
1175.876, 39.35006
1176.358, 39.08070
1176.840, 39.32584
1177.323, 38.65176
1177.805, 38.78430
1178.287, 39.26488
1178.769, 39.01813
1179.251, 39.27149
1179.733, 39.30151
1180.215, 39.79093
1180.697, 40.32577
1181.179, 40.37303
1181.661, 39.82329
1182.144, 39.28054
1182.626, 39.37371
1183.108, 39.66152
1183.590, 39.71336
1184.072, 39.56264
1184.554, 39.46884
1185.036, 39.44061
1185.518, 39.48756
1186.001, 39.63165
1186.483, 39.74904
1186.965, 39.62518
1187.447, 39.46026
1187.929, 39.49142
1188.411, 39.71824
1188.893, 39.92722
1189.375, 40.16504
1189.858, 40.13467
1190.340, 39.68263
1190.822, 39.24447
1191.304, 39.46550
1191.786, 39.93964
1192.268, 40.18171
1192.750, 40.12725
1193.232, 40.02991
1193.714, 39.86906
1194.197, 39.79037
1194.679, 39.85757
1195.161, 39.97230
1195.643, 40.13290
1196.125, 40.18497
1196.607, 39.80101
1197.089, 38.83167
1197.571, 38.36479
1198.053, 38.57101
1198.536, 38.89085
1199.018, 39.12780
1199.500, 39.36403
1199.982, 39.91359
1200.464, 40.47093
1200.946, 40.48265
1201.428, 39.62303
1201.910, 39.19201
1202.393, 39.34053
1202.875, 39.59058
1203.357, 39.72566
1203.839, 39.82854
1204.321, 40.12694
1204.803, 40.45938
1205.285, 40.54724
1205.767, 40.27096
1206.250, 39.81833
1206.732, 39.03259
1207.214, 38.57967
1207.696, 39.02525
1208.178, 39.83827
1208.660, 40.11936
1209.142, 40.05965
1209.624, 40.02271
1210.106, 40.15018
1210.589, 40.17783
1211.071, 40.08213
1211.553, 39.95203
1212.035, 39.85164
1212.517, 39.74791
1212.999, 39.42839
1213.481, 39.08678
1213.963, 39.13880
1214.445, 40.20996
1214.928, 40.74016
1215.410, 40.60934
1215.892, 40.33474
1216.374, 40.34743
1216.856, 40.43517
1217.338, 40.13836
1217.820, 39.65149
1218.302, 39.46571
1218.785, 39.97248
1219.267, 40.21387
1219.749, 40.11807
1220.231, 39.91551
1220.713, 39.66196
1221.195, 39.50206
1221.677, 39.73589
1222.159, 40.23758
1222.641, 40.64539
1223.124, 40.97007
1223.606, 40.97993
1224.088, 40.57869
1224.570, 39.51195
1225.052, 40.08399
1225.534, 40.42765
1226.016, 40.55519
1226.498, 39.81938
1226.980, 40.19842
1227.463, 40.13078
1227.945, 40.04471
1228.427, 40.58067
1228.909, 39.97044
1229.391, 40.49652
1229.873, 40.56902
1230.355, 40.84910
1230.837, 40.67965
1231.320, 40.64914
1231.802, 40.93403
1232.284, 40.85542
1232.766, 40.67096
1233.248, 40.19841
1233.730, 40.78789
1234.212, 41.14900
1234.694, 41.29399
1235.177, 40.57576
1235.659, 40.97226
1236.141, 40.53598
1236.623, 41.06112
1237.105, 41.35788
1237.587, 41.43853
1238.069, 40.65580
1238.551, 40.98795
1239.033, 40.87330
1239.516, 40.74035
1239.998, 41.22940
1240.480, 40.57225
1240.962, 41.05145
1241.444, 41.07703
1241.926, 41.31022
1242.408, 41.09386
1242.890, 41.01636
1243.372, 41.38854
1243.855, 41.51174
1244.337, 41.24363
1244.819, 41.49002
1245.301, 40.81717
1245.783, 40.84245
1246.265, 40.80727
1246.747, 40.64657
1247.229, 40.62502
1247.712, 41.11979
1248.194, 41.82358
1248.676, 41.94388
1249.158, 41.53155
1249.640, 41.32614
1250.122, 41.44368
1250.604, 41.29675
1251.086, 41.82706
1251.568, 42.12901
1252.051, 42.21486
1252.533, 41.43732
1253.015, 41.77465
1253.497, 41.66519
1253.979, 41.53741
1254.461, 42.03165
1254.943, 41.37969
1255.425, 41.86407
1255.907, 41.89484
1256.390, 42.13323
1256.872, 41.92206
1257.354, 41.84974
1257.836, 42.22711
1258.318, 42.35548
1258.800, 42.09256
1259.282, 42.34413
1259.764, 41.42778
1260.247, 41.96922
1260.729, 42.28223
1261.211, 42.37914
1261.693, 41.61268
1262.175, 41.96108
1262.657, 41.86269
1263.139, 41.74599
1263.621, 42.25130
1264.104, 41.61046
1264.586, 42.10591
1265.068, 42.14775
1265.550, 42.39720
1266.032, 42.19710
1266.514, 42.13586
1266.996, 42.52430
1267.478, 42.66375
1267.960, 42.41190
1268.443, 42.67459
1268.925, 42.01800
1269.407, 42.16805
1269.889, 42.66613
1270.371, 42.02004
1270.853, 42.54595
1271.335, 42.84348
1271.817, 42.92491
1272.299, 42.14296
1272.782, 42.47589
1273.264, 42.36202
1273.746, 42.22983
1274.228, 42.71966
1274.710, 42.06329
1275.192, 42.54326
1275.674, 42.56962
1276.156, 42.80359
1276.639, 42.58801
1277.121, 42.51128
1277.603, 42.88424
1278.085, 43.00821
1278.567, 42.74088
1279.049, 42.98804
1279.531, 42.31596
1280.013, 42.45053
1280.495, 42.93313
1280.978, 42.68841
1281.460, 42.94379
1281.942, 43.00870
1282.424, 42.20801
1282.906, 42.91269
1283.388, 42.96635
1283.870, 42.35154
1284.352, 43.00464
1284.834, 42.48199
1285.317, 42.75754
1285.799, 42.37958
1286.281, 42.86971
1286.763, 43.13147
1287.245, 43.17712
1287.727, 42.35940
1288.209, 42.65655
1288.691, 42.50690
1289.173, 42.33894
1289.656, 42.79293
1290.138, 42.10079
1290.620, 42.54498
1291.102, 42.53556
1291.584, 42.73376
1292.066, 42.48240
1292.548, 42.36989
1293.030, 42.70707
1293.513, 42.25993
1293.995, 42.72729
1294.477, 43.54836
1294.959, 44.04155
1295.441, 44.18378
1295.923, 44.28605
1296.405, 44.37250
1296.887, 44.13562
1297.370, 43.49540
1297.852, 42.93200
1298.334, 42.84079
1298.816, 42.98334
1299.298, 43.35781
1299.780, 43.76004
1300.262, 43.78894
1300.744, 43.48432
1301.226, 43.32686
1301.708, 43.36300
1302.191, 43.39781
1302.673, 43.13432
1303.155, 43.06662
1303.637, 43.27699
1304.119, 43.74438
##END=



