##NAMES=Magnetite
##RRUFFID=R061111
##IDEAL CHEMISTRY=Fe^2+^Fe^3+^_2_O_4_
##LOCALITY=near Scotia Talc mine, Barberton Mountain, Transvaal, South Afica
##OWNER=RRUFF
##SOURCE=Michael Scott
##DESCRIPTION=Black submetallic grains and octahedra associated with light green massive willemseite
##STATUS=The identification of this mineral is confirmed by single-crystal X-ray diffraction and chemical analysis.
##URL=rruff.info/R061111
##MEASURED CHEMISTRY=(Fe^2+^_0.51_Ni_0.48_Co_0.01_)_Î£=1_Fe^3+^_2_O_4_; trace amounts of Al; Fe^2+^ and Fe^3+^ splitted by charge balance
206.4819, 2395.538
206.9640, 2377.189
207.4461, 2364.791
207.9282, 2357.121
208.4104, 2353.554
208.8925, 2355.867
209.3746, 2354.892
209.8567, 2349.065
210.3388, 2341.189
210.8209, 2330.546
211.3030, 2318.202
211.7852, 2310.916
212.2673, 2317.443
212.7494, 2342.003
213.2315, 2350.017
213.7136, 2329.375
214.1957, 2303.625
214.6779, 2285.621
215.1600, 2276.381
215.6421, 2271.751
216.1242, 2268.442
216.6063, 2266.524
217.0884, 2267.729
217.5706, 2276.949
218.0527, 2284.568
218.5348, 2285.832
219.0169, 2281.027
219.4990, 2271.963
219.9811, 2258.900
220.4633, 2242.110
220.9454, 2232.284
221.4275, 2235.844
221.9096, 2238.449
222.3917, 2230.759
222.8738, 2216.896
223.3560, 2208.932
223.8381, 2215.684
224.3202, 2234.574
224.8023, 2243.551
225.2844, 2237.740
225.7665, 2229.329
226.2487, 2220.796
226.7308, 2212.191
227.2129, 2202.829
227.6950, 2192.150
228.1771, 2180.992
228.6592, 2172.843
229.1414, 2165.644
229.6235, 2163.610
230.1056, 2174.216
230.5877, 2188.785
231.0698, 2193.835
231.5519, 2183.164
232.0341, 2163.153
232.5162, 2150.354
232.9983, 2151.172
233.4804, 2151.735
233.9625, 2149.758
234.4446, 2147.995
234.9268, 2150.652
235.4089, 2158.990
235.8910, 2168.961
236.3731, 2173.080
236.8552, 2166.280
237.3373, 2161.343
237.8195, 2157.791
238.3016, 2156.336
238.7837, 2159.071
239.2658, 2165.865
239.7479, 2172.816
240.2300, 2174.495
240.7122, 2168.999
241.1943, 2162.508
241.6764, 2155.501
242.1585, 2147.321
242.6406, 2134.391
243.1227, 2118.280
243.6049, 2107.114
244.0870, 2111.328
244.5691, 2136.848
245.0512, 2147.637
245.5333, 2133.379
246.0154, 2116.304
246.4975, 2104.927
246.9797, 2099.620
247.4618, 2097.895
247.9439, 2098.198
248.4260, 2100.618
248.9081, 2100.694
249.3902, 2091.249
249.8724, 2086.787
250.3545, 2096.222
250.8366, 2113.363
251.3187, 2126.004
251.8008, 2125.428
252.2829, 2114.494
252.7651, 2111.485
253.2472, 2131.352
253.7293, 2141.248
254.2114, 2128.301
254.6935, 2104.797
255.1756, 2085.748
255.6578, 2078.468
256.1399, 2079.924
256.6220, 2082.616
257.1041, 2089.291
257.5862, 2092.214
258.0684, 2087.399
258.5505, 2080.604
259.0326, 2076.552
259.5147, 2076.831
259.9968, 2080.523
260.4789, 2088.635
260.9611, 2107.322
261.4432, 2112.363
261.9253, 2084.694
262.4074, 2055.201
262.8895, 2044.391
263.3716, 2054.436
263.8537, 2071.160
264.3358, 2079.897
264.8180, 2079.738
265.3001, 2078.951
265.7822, 2076.167
266.2643, 2074.537
266.7464, 2077.222
267.2285, 2082.996
267.7107, 2087.003
268.1928, 2083.013
268.6749, 2072.461
269.1570, 2069.732
269.6391, 2081.586
270.1212, 2091.756
270.6034, 2091.786
271.0855, 2084.503
271.5676, 2075.720
272.0497, 2068.912
272.5318, 2062.371
273.0139, 2050.866
273.4961, 2031.517
273.9782, 2015.125
274.4603, 2007.245
274.9424, 2005.190
275.4245, 2006.363
275.9066, 2010.517
276.3888, 2016.847
276.8709, 2027.244
277.3530, 2042.506
277.8351, 2049.236
278.3172, 2033.673
278.7993, 2012.039
279.2815, 2006.683
279.7636, 2023.901
280.2457, 2041.451
280.7278, 2039.697
281.2099, 2023.268
281.6920, 2015.572
282.1742, 2026.875
282.6563, 2043.662
283.1384, 2048.739
283.6205, 2042.100
284.1026, 2032.174
284.5847, 2019.376
285.0669, 2006.129
285.5490, 1995.509
286.0311, 1987.637
286.5132, 1985.242
286.9953, 1995.258
287.4774, 2016.948
287.9596, 2029.712
288.4417, 2020.065
288.9238, 2007.261
289.4059, 2012.265
289.8880, 2034.753
290.3701, 2054.352
290.8523, 2054.504
291.3344, 2037.183
291.8165, 2029.769
292.2986, 2044.458
292.7807, 2055.971
293.2628, 2048.605
293.7450, 2028.673
294.2271, 2012.629
294.7092, 2009.115
295.1913, 2014.864
295.6734, 2019.325
296.1555, 2019.494
296.6377, 2022.154
297.1198, 2030.958
297.6019, 2041.571
298.0840, 2049.072
298.5661, 2051.872
299.0482, 2051.272
299.5304, 2048.989
300.0125, 2042.229
300.4946, 2040.057
300.9767, 2048.805
301.4588, 2056.931
301.9409, 2053.965
302.4231, 2041.004
302.9052, 2028.980
303.3873, 2029.463
303.8694, 2044.346
304.3515, 2054.135
304.8336, 2054.002
305.3158, 2053.707
305.7979, 2057.628
306.2800, 2063.651
306.7621, 2067.177
307.2442, 2065.124
307.7263, 2058.593
308.2085, 2051.846
308.6906, 2042.552
309.1727, 2037.077
309.6548, 2038.862
310.1369, 2043.646
310.6190, 2045.786
311.1012, 2042.996
311.5833, 2040.980
312.0654, 2050.544
312.5475, 2075.101
313.0296, 2094.438
313.5117, 2104.125
313.9939, 2106.914
314.4760, 2101.245
314.9581, 2087.806
315.4402, 2075.468
315.9223, 2073.353
316.4044, 2079.371
316.8866, 2080.380
317.3687, 2073.322
317.8508, 2064.072
318.3329, 2055.886
318.8150, 2048.891
319.2971, 2043.799
319.7793, 2041.952
320.2614, 2041.653
320.7435, 2041.109
321.2256, 2040.464
321.7077, 2037.236
322.1898, 2026.415
322.6720, 2013.015
323.1541, 2009.744
323.6362, 2022.325
324.1183, 2038.263
324.6004, 2054.225
325.0826, 2068.185
325.5647, 2073.029
326.0468, 2064.585
326.5289, 2048.937
327.0110, 2037.526
327.4931, 2031.609
327.9753, 2025.339
328.4574, 2014.963
328.9395, 2005.126
329.4216, 2003.403
329.9037, 2010.377
330.3858, 2016.339
330.8680, 2010.090
331.3501, 1988.492
331.8322, 1974.427
332.3143, 1972.397
332.7964, 1972.591
333.2785, 1969.859
333.7606, 1965.411
334.2427, 1963.826
334.7249, 1968.487
335.2070, 1977.531
335.6891, 1981.006
336.1712, 1973.899
336.6533, 1966.953
337.1354, 1959.002
337.6176, 1952.845
338.0997, 1953.086
338.5818, 1960.821
339.0639, 1969.659
339.5460, 1968.523
340.0281, 1953.627
340.5103, 1941.830
340.9924, 1933.641
341.4745, 1929.330
341.9566, 1930.921
342.4387, 1937.296
342.9208, 1944.265
343.4030, 1951.702
343.8851, 1957.939
344.3672, 1950.334
344.8493, 1919.657
345.3314, 1892.822
345.8135, 1887.284
346.2957, 1893.208
346.7778, 1895.269
347.2599, 1885.537
347.7420, 1874.416
348.2241, 1876.982
348.7062, 1892.820
349.1884, 1902.993
349.6705, 1897.167
350.1526, 1884.915
350.6347, 1881.378
351.1168, 1888.203
351.5989, 1895.848
352.0811, 1902.808
352.5632, 1907.255
353.0453, 1904.055
353.5274, 1891.536
354.0095, 1878.718
354.4916, 1875.900
354.9738, 1884.897
355.4559, 1886.595
355.9380, 1872.726
356.4201, 1858.658
356.9022, 1854.298
357.3843, 1858.031
357.8665, 1863.218
358.3486, 1866.298
358.8307, 1867.099
359.3128, 1864.909
359.7949, 1853.761
360.2770, 1846.845
360.7592, 1848.560
361.2413, 1853.368
361.7234, 1855.359
362.2055, 1853.073
362.6876, 1849.579
363.1697, 1849.459
363.6519, 1854.200
364.1340, 1856.804
364.6161, 1858.512
365.0982, 1856.843
365.5803, 1847.014
366.0624, 1832.523
366.5446, 1822.373
367.0267, 1823.764
367.5088, 1833.003
367.9909, 1837.375
368.4730, 1834.700
368.9551, 1832.471
369.4373, 1834.337
369.9194, 1837.795
370.4015, 1840.827
370.8836, 1843.298
371.3657, 1843.976
371.8478, 1841.389
372.3300, 1835.876
372.8121, 1828.630
373.2942, 1817.737
373.7763, 1808.925
374.2584, 1811.904
374.7405, 1825.470
375.2227, 1833.009
375.7048, 1823.948
376.1869, 1810.807
376.6690, 1809.440
377.1511, 1819.266
377.6332, 1823.753
378.1154, 1809.635
378.5975, 1781.246
379.0796, 1768.274
379.5617, 1780.942
380.0438, 1793.502
380.5259, 1800.036
381.0081, 1802.539
381.4902, 1803.641
381.9723, 1804.222
382.4544, 1803.741
382.9365, 1800.735
383.4186, 1792.011
383.9008, 1790.031
384.3829, 1802.572
384.8650, 1813.774
385.3471, 1814.159
385.8292, 1806.149
386.3113, 1798.234
386.7935, 1796.660
387.2756, 1799.614
387.7577, 1798.810
388.2398, 1790.485
388.7219, 1786.184
389.2040, 1795.069
389.6862, 1806.379
390.1683, 1808.354
390.6504, 1797.641
391.1325, 1785.345
391.6146, 1783.287
392.0967, 1789.899
392.5789, 1793.612
393.0610, 1791.801
393.5431, 1788.116
394.0252, 1785.848
394.5073, 1784.680
394.9894, 1782.991
395.4716, 1778.535
395.9537, 1774.670
396.4358, 1775.359
396.9179, 1780.072
397.4000, 1785.121
397.8821, 1789.139
398.3643, 1791.475
398.8464, 1789.623
399.3285, 1779.775
399.8106, 1772.090
400.2927, 1767.018
400.7748, 1765.409
401.2570, 1771.601
401.7391, 1784.806
402.2212, 1794.651
402.7033, 1787.955
403.1854, 1761.430
403.6675, 1746.149
404.1497, 1748.934
404.6317, 1756.095
405.1139, 1767.256
405.5960, 1779.464
406.0781, 1789.138
406.5602, 1794.811
407.0423, 1796.196
407.5244, 1791.622
408.0066, 1779.456
408.4887, 1768.508
408.9708, 1759.267
409.4529, 1753.167
409.9350, 1753.335
410.4171, 1759.150
410.8993, 1762.543
411.3814, 1754.340
411.8635, 1741.558
412.3456, 1740.249
412.8277, 1752.638
413.3098, 1765.402
413.7920, 1770.341
414.2741, 1768.650
414.7562, 1766.751
415.2383, 1764.990
415.7204, 1762.587
416.2025, 1756.459
416.6847, 1750.118
417.1668, 1751.161
417.6489, 1761.842
418.1310, 1774.817
418.6131, 1780.003
419.0952, 1775.189
419.5774, 1770.332
420.0595, 1763.553
420.5416, 1758.544
421.0237, 1759.353
421.5058, 1763.227
421.9879, 1764.220
422.4701, 1758.755
422.9522, 1748.598
423.4343, 1737.297
423.9164, 1720.817
424.3985, 1713.293
424.8806, 1726.569
425.3628, 1743.093
425.8449, 1749.688
426.3270, 1745.663
426.8091, 1741.638
427.2912, 1746.756
427.7733, 1757.842
428.2555, 1765.183
428.7376, 1767.853
429.2197, 1768.771
429.7018, 1769.229
430.1839, 1769.321
430.6660, 1769.492
431.1482, 1771.391
431.6303, 1771.112
432.1124, 1764.491
432.5945, 1754.648
433.0766, 1747.048
433.5587, 1743.200
434.0409, 1743.025
434.5230, 1746.995
435.0051, 1756.810
435.4872, 1763.638
435.9693, 1766.878
436.4514, 1768.229
436.9336, 1768.114
437.4157, 1766.764
437.8978, 1764.374
438.3799, 1761.018
438.8620, 1756.851
439.3441, 1750.942
439.8263, 1739.393
440.3084, 1736.826
440.7905, 1758.402
441.2726, 1779.781
441.7547, 1785.233
442.2368, 1775.129
442.7190, 1761.341
443.2011, 1746.818
443.6832, 1734.962
444.1653, 1736.849
444.6474, 1755.053
445.1295, 1769.438
445.6117, 1767.364
446.0938, 1754.879
446.5759, 1747.890
447.0580, 1749.823
447.5401, 1750.389
448.0222, 1744.056
448.5044, 1734.726
448.9865, 1726.037
449.4686, 1719.142
449.9507, 1718.008
450.4328, 1728.478
450.9149, 1751.846
451.3971, 1762.066
451.8792, 1744.468
452.3613, 1731.177
452.8434, 1732.708
453.3255, 1742.699
453.8076, 1754.211
454.2898, 1764.562
454.7719, 1770.440
455.2540, 1764.672
455.7361, 1745.300
456.2182, 1731.325
456.7003, 1725.446
457.1825, 1724.116
457.6646, 1726.390
458.1467, 1731.180
458.6288, 1735.556
459.1109, 1738.586
459.5930, 1740.617
460.0752, 1742.148
460.5573, 1743.090
461.0394, 1741.831
461.5215, 1736.278
462.0036, 1731.414
462.4857, 1737.287
462.9679, 1758.594
463.4500, 1771.813
463.9321, 1770.670
464.4142, 1764.152
464.8963, 1756.005
465.3784, 1747.977
465.8606, 1743.112
466.3427, 1743.591
466.8248, 1747.746
467.3069, 1749.799
467.7890, 1748.838
468.2711, 1747.412
468.7533, 1742.862
469.2354, 1740.177
469.7175, 1745.919
470.1996, 1758.634
470.6817, 1767.621
471.1638, 1762.887
471.6460, 1748.456
472.1281, 1734.504
472.6102, 1719.805
473.0923, 1712.342
473.5744, 1720.638
474.0565, 1736.681
474.5387, 1743.339
475.0208, 1736.237
475.5029, 1731.246
475.9850, 1738.095
476.4671, 1748.827
476.9492, 1753.164
477.4313, 1749.814
477.9135, 1742.871
478.3956, 1735.078
478.8777, 1726.719
479.3598, 1722.526
479.8419, 1733.943
480.3240, 1735.690
480.8062, 1711.071
481.2883, 1682.203
481.7704, 1674.476
482.2525, 1692.319
482.7346, 1716.262
483.2167, 1727.311
483.6989, 1725.981
484.1810, 1719.713
484.6631, 1704.286
485.1452, 1692.861
485.6273, 1699.915
486.1094, 1714.114
486.5916, 1716.602
487.0737, 1698.664
487.5558, 1680.636
488.0379, 1676.148
488.5200, 1680.365
489.0021, 1684.134
489.4843, 1685.499
489.9664, 1685.236
490.4485, 1684.213
490.9306, 1682.502
491.4127, 1678.285
491.8948, 1670.111
492.3770, 1661.519
492.8591, 1650.807
493.3412, 1641.359
493.8233, 1639.556
494.3054, 1646.767
494.7875, 1654.004
495.2697, 1646.777
495.7518, 1623.962
496.2339, 1612.003
496.7160, 1616.364
497.1981, 1624.645
497.6802, 1632.689
498.1624, 1639.328
498.6445, 1642.041
499.1266, 1638.693
499.6087, 1634.231
500.0908, 1633.547
500.5729, 1634.573
501.0551, 1631.375
501.5372, 1622.257
502.0193, 1611.800
502.5014, 1604.202
502.9835, 1599.475
503.4656, 1598.338
503.9478, 1603.814
504.4299, 1608.918
504.9120, 1612.489
505.3941, 1613.942
505.8762, 1612.071
506.3583, 1606.676
506.8405, 1600.141
507.3226, 1594.030
507.8047, 1587.991
508.2868, 1590.686
508.7689, 1610.623
509.2510, 1626.186
509.7332, 1623.302
510.2153, 1609.338
510.6974, 1596.187
511.1795, 1586.135
511.6616, 1578.262
512.1437, 1571.188
512.6259, 1565.930
513.1080, 1564.773
513.5901, 1568.209
514.0722, 1576.048
514.5543, 1589.616
515.0364, 1609.281
515.5186, 1620.831
516.0007, 1623.437
516.4828, 1620.089
516.9649, 1605.967
517.4470, 1588.864
517.9291, 1578.062
518.4113, 1575.751
518.8934, 1576.967
519.3755, 1576.085
519.8576, 1573.274
520.3397, 1573.214
520.8218, 1577.151
521.3040, 1581.249
521.7861, 1584.234
522.2682, 1585.903
522.7503, 1585.130
523.2324, 1580.025
523.7145, 1577.318
524.1967, 1584.782
524.6788, 1595.265
525.1609, 1596.075
525.6430, 1585.952
526.1251, 1574.724
526.6072, 1570.030
527.0894, 1571.303
527.5715, 1573.477
528.0536, 1578.247
528.5357, 1581.765
529.0178, 1586.296
529.4999, 1587.689
529.9821, 1578.055
530.4642, 1559.135
530.9463, 1545.867
531.4284, 1556.765
531.9105, 1581.896
532.3926, 1584.664
532.8748, 1560.449
533.3569, 1539.790
533.8390, 1535.965
534.3211, 1542.906
534.8032, 1551.222
535.2853, 1562.160
535.7675, 1568.862
536.2496, 1566.986
536.7317, 1561.929
537.2138, 1557.697
537.6959, 1554.770
538.1780, 1552.015
538.6602, 1548.358
539.1423, 1546.296
539.6244, 1554.240
540.1065, 1581.213
540.5886, 1597.394
541.0707, 1594.561
541.5529, 1585.784
542.0350, 1573.152
542.5171, 1559.923
542.9992, 1554.202
543.4813, 1562.901
543.9634, 1577.113
544.4456, 1585.855
544.9277, 1589.799
545.4098, 1593.561
545.8919, 1598.808
546.3740, 1603.169
546.8561, 1603.825
547.3383, 1600.332
547.8204, 1595.093
548.3025, 1583.716
548.7846, 1575.382
549.2667, 1575.728
549.7488, 1580.925
550.2310, 1585.620
550.7131, 1587.920
551.1952, 1588.970
551.6773, 1590.469
552.1594, 1592.453
552.6415, 1592.023
553.1237, 1587.027
553.6058, 1583.696
554.0879, 1590.398
554.5700, 1599.327
555.0521, 1597.239
555.5342, 1577.543
556.0164, 1560.987
556.4985, 1558.318
556.9806, 1564.694
557.4627, 1576.920
557.9448, 1592.961
558.4269, 1604.505
558.9091, 1604.899
559.3912, 1596.327
559.8733, 1589.229
560.3554, 1582.092
560.8375, 1579.133
561.3196, 1587.358
561.8018, 1594.089
562.2839, 1588.479
562.7660, 1572.371
563.2481, 1556.891
563.7302, 1547.789
564.2123, 1543.672
564.6945, 1545.924
565.1766, 1553.408
565.6587, 1551.453
566.1408, 1532.272
566.6229, 1509.201
567.1050, 1499.014
567.5872, 1503.968
568.0693, 1512.107
568.5514, 1529.819
569.0335, 1543.880
569.5156, 1545.926
569.9977, 1541.409
570.4799, 1539.387
570.9620, 1542.697
571.4441, 1545.978
571.9262, 1540.195
572.4083, 1525.814
572.8904, 1521.138
573.3726, 1530.873
573.8547, 1539.972
574.3368, 1539.314
574.8189, 1533.512
575.3010, 1530.231
575.7831, 1530.744
576.2653, 1531.363
576.7474, 1531.023
577.2295, 1529.838
577.7116, 1526.882
578.1937, 1522.887
578.6758, 1521.097
579.1580, 1523.841
579.6401, 1529.380
580.1222, 1532.485
580.6042, 1532.154
581.0864, 1531.899
581.5685, 1531.073
582.0506, 1531.297
582.5327, 1535.288
583.0148, 1541.126
583.4969, 1543.191
583.9791, 1536.872
584.4612, 1529.458
584.9433, 1529.619
585.4254, 1534.294
585.9075, 1533.714
586.3896, 1525.330
586.8718, 1516.320
587.3539, 1514.390
587.8360, 1519.422
588.3181, 1519.448
588.8002, 1506.399
589.2823, 1498.394
589.7645, 1502.716
590.2466, 1510.377
590.7287, 1513.084
591.2108, 1509.845
591.6929, 1504.847
592.1750, 1500.882
592.6572, 1497.467
593.1393, 1493.013
593.6214, 1487.553
594.1035, 1483.575
594.5856, 1481.693
595.0677, 1482.390
595.5499, 1487.451
596.0320, 1499.003
596.5141, 1505.023
596.9962, 1503.961
597.4783, 1498.653
597.9604, 1484.813
598.4426, 1469.479
598.9247, 1464.450
599.4068, 1473.344
599.8889, 1486.094
600.3710, 1490.859
600.8531, 1488.407
601.3353, 1486.651
601.8174, 1485.895
602.2995, 1485.446
602.7816, 1484.304
603.2637, 1483.637
603.7458, 1486.442
604.2280, 1495.188
604.7101, 1499.650
605.1922, 1495.103
605.6743, 1487.229
606.1564, 1476.958
606.6385, 1467.377
607.1207, 1465.298
607.6028, 1474.320
608.0849, 1491.077
608.5670, 1513.499
609.0491, 1544.751
609.5313, 1555.624
610.0134, 1531.572
610.4955, 1506.153
610.9776, 1501.104
611.4597, 1508.894
611.9418, 1516.468
612.4240, 1523.428
612.9061, 1527.103
613.3882, 1522.224
613.8703, 1515.689
614.3524, 1518.488
614.8345, 1529.461
615.3167, 1535.633
615.7988, 1527.301
616.2809, 1511.191
616.7630, 1509.177
617.2451, 1527.897
617.7272, 1539.557
618.2094, 1535.295
618.6915, 1528.911
619.1736, 1528.109
619.6557, 1531.967
620.1378, 1538.017
620.6199, 1551.152
621.1021, 1557.806
621.5842, 1542.539
622.0663, 1517.066
622.5484, 1499.617
623.0305, 1493.849
623.5126, 1498.516
623.9948, 1514.431
624.4769, 1538.188
624.9590, 1550.251
625.4411, 1544.240
625.9232, 1540.086
626.4053, 1541.868
626.8875, 1545.629
627.3696, 1550.243
627.8517, 1554.975
628.3338, 1557.546
628.8159, 1556.221
629.2980, 1553.433
629.7802, 1549.564
630.2623, 1546.011
630.7444, 1546.297
631.2265, 1551.105
631.7086, 1557.698
632.1907, 1563.948
632.6729, 1569.633
633.1550, 1572.767
633.6371, 1573.026
634.1192, 1571.119
634.6013, 1562.535
635.0834, 1555.513
635.5656, 1557.230
636.0477, 1566.731
636.5298, 1576.732
637.0119, 1585.539
637.4940, 1592.160
637.9761, 1593.526
638.4583, 1592.173
638.9404, 1596.754
639.4225, 1609.232
639.9046, 1618.459
640.3867, 1611.531
640.8688, 1589.832
641.3510, 1578.299
641.8331, 1579.180
642.3152, 1586.988
642.7973, 1608.596
643.2794, 1630.294
643.7615, 1640.111
644.2437, 1638.842
644.7258, 1637.356
645.2079, 1640.495
645.6900, 1645.616
646.1721, 1650.365
646.6542, 1655.097
647.1364, 1661.014
647.6185, 1668.390
648.1006, 1675.825
648.5827, 1681.909
649.0648, 1686.661
649.5469, 1690.727
650.0291, 1692.117
650.5112, 1696.353
650.9933, 1707.728
651.4754, 1719.854
651.9575, 1727.659
652.4396, 1731.382
652.9218, 1734.860
653.4039, 1739.416
653.8860, 1744.607
654.3681, 1750.680
654.8502, 1757.062
655.3323, 1761.182
655.8145, 1762.787
656.2966, 1767.630
656.7787, 1782.458
657.2608, 1805.734
657.7429, 1821.528
658.2250, 1828.635
658.7072, 1830.866
659.1893, 1821.426
659.6714, 1813.389
660.1535, 1819.036
660.6356, 1836.112
661.1177, 1849.223
661.5999, 1849.119
662.0820, 1847.857
662.5641, 1852.644
663.0462, 1862.157
663.5283, 1875.372
664.0104, 1891.489
664.4926, 1906.744
664.9747, 1917.276
665.4568, 1924.829
665.9389, 1939.009
666.4210, 1962.872
666.9031, 1983.031
667.3853, 1994.774
667.8674, 2004.171
668.3495, 2015.987
668.8316, 2016.354
669.3137, 2038.188
669.7958, 2055.299
670.2780, 2067.946
670.7601, 2062.742
671.2422, 2080.586
671.7243, 2089.193
672.2064, 2097.422
672.6885, 2118.509
673.1707, 2115.904
673.6528, 2136.787
674.1349, 2162.508
674.6170, 2165.770
675.0991, 2172.451
675.5812, 2189.677
676.0634, 2204.845
676.5455, 2204.219
677.0276, 2192.361
677.5097, 2190.818
677.9918, 2208.773
678.4739, 2224.789
678.9561, 2234.028
679.4382, 2238.934
679.9203, 2240.777
680.4024, 2240.240
680.8845, 2237.816
681.3666, 2233.253
681.8488, 2229.156
682.3309, 2233.523
682.8130, 2244.179
683.2951, 2238.764
683.7772, 2211.073
684.2593, 2185.353
684.7415, 2178.920
685.2236, 2185.707
685.7057, 2185.217
686.1878, 2172.834
686.6699, 2160.969
687.1520, 2149.593
687.6342, 2139.132
688.1163, 2131.847
688.5984, 2125.262
689.0805, 2113.955
689.5626, 2095.400
690.0447, 2076.832
690.5269, 2068.987
691.0090, 2065.094
691.4911, 2046.285
691.9732, 2012.728
692.4553, 1984.901
692.9374, 1973.889
693.4196, 1971.718
693.9017, 1963.113
694.3838, 1945.684
694.8659, 1930.566
695.3480, 1921.820
695.8301, 1910.545
696.3123, 1891.535
696.7944, 1869.840
697.2765, 1850.291
697.7586, 1833.701
698.2407, 1822.523
698.7228, 1824.623
699.2050, 1827.470
699.6871, 1815.578
700.1692, 1794.016
700.6513, 1778.585
701.1334, 1774.240
701.6155, 1770.379
702.0977, 1752.874
702.5798, 1723.317
703.0619, 1706.062
703.5440, 1705.660
704.0261, 1703.912
704.5082, 1695.262
704.9904, 1683.230
705.4725, 1670.241
705.9546, 1656.518
706.4367, 1646.707
706.9188, 1643.603
707.4009, 1641.964
707.8831, 1642.543
708.3652, 1641.753
708.8473, 1633.624
709.3294, 1619.154
709.8115, 1606.693
710.2936, 1603.555
710.7758, 1603.262
711.2579, 1591.377
711.7400, 1569.372
712.2221, 1553.414
712.7042, 1547.262
713.1863, 1542.695
713.6685, 1532.267
714.1506, 1518.359
714.6327, 1512.789
715.1148, 1526.864
715.5969, 1532.115
716.0790, 1519.578
716.5612, 1506.569
717.0433, 1506.355
717.5254, 1512.346
718.0075, 1508.627
718.4896, 1487.963
718.9717, 1467.310
719.4539, 1460.361
719.9360, 1460.724
720.4181, 1460.521
720.9002, 1458.522
721.3823, 1451.903
721.8644, 1438.909
722.3465, 1426.304
722.8286, 1427.264
723.3107, 1444.105
723.7928, 1449.712
724.2750, 1437.736
724.7571, 1428.436
725.2392, 1434.232
725.7213, 1443.798
726.2034, 1440.448
726.6855, 1422.822
727.1677, 1411.559
727.6498, 1416.674
728.1319, 1421.958
728.6140, 1416.545
729.0961, 1407.611
729.5782, 1406.174
730.0604, 1413.211
730.5425, 1420.219
731.0246, 1421.677
731.5067, 1417.753
731.9888, 1404.838
732.4709, 1384.836
732.9531, 1376.466
733.4352, 1385.429
733.9173, 1394.623
734.3994, 1388.925
734.8815, 1371.195
735.3636, 1358.044
735.8458, 1349.159
736.3279, 1345.646
736.8100, 1352.919
737.2921, 1360.092
737.7742, 1362.228
738.2563, 1359.755
738.7385, 1353.199
739.2206, 1340.796
739.7027, 1331.076
740.1848, 1331.542
740.6669, 1328.518
741.1490, 1336.990
741.6312, 1340.741
742.1133, 1340.024
742.5954, 1321.459
743.0775, 1325.942
743.5596, 1321.188
744.0417, 1316.055
744.5239, 1323.780
745.0060, 1307.811
745.4881, 1315.333
745.9702, 1313.716
746.4523, 1309.926
746.9344, 1303.096
747.4166, 1292.480
747.8987, 1286.103
748.3808, 1284.701
748.8629, 1286.313
749.3450, 1292.410
749.8271, 1299.903
750.3093, 1308.840
750.7914, 1317.049
751.2735, 1316.928
751.7556, 1300.524
752.2377, 1281.719
752.7198, 1273.844
753.2020, 1272.972
753.6841, 1270.641
754.1662, 1266.499
754.6483, 1267.712
755.1304, 1279.499
755.6125, 1295.782
756.0947, 1303.816
756.5768, 1303.310
757.0589, 1295.944
757.5410, 1278.341
758.0231, 1261.768
758.5052, 1249.566
758.9874, 1243.109
759.4695, 1247.114
759.9516, 1264.834
760.4337, 1276.506
760.9158, 1274.516
761.3979, 1273.025
761.8801, 1281.981
762.3622, 1292.688
762.8443, 1293.632
763.3264, 1283.626
763.8085, 1270.900
764.2906, 1258.228
764.7728, 1247.926
765.2549, 1244.389
765.7370, 1245.498
766.2191, 1246.002
766.7012, 1244.732
767.1833, 1241.755
767.6655, 1236.804
768.1476, 1230.911
768.6297, 1226.239
769.1118, 1221.454
769.5939, 1226.574
770.0760, 1249.638
770.5582, 1269.029
771.0403, 1269.311
771.5224, 1257.998
772.0045, 1253.265
772.4866, 1257.941
772.9688, 1260.162
773.4509, 1257.964
773.9330, 1253.728
774.4151, 1244.686
774.8972, 1236.202
775.3793, 1238.492
775.8615, 1252.205
776.3436, 1261.181
776.8257, 1248.469
777.3078, 1229.575
777.7899, 1224.160
778.2720, 1228.517
778.7542, 1233.285
779.2363, 1236.149
779.7184, 1237.669
780.2005, 1238.238
780.6826, 1237.962
781.1647, 1236.797
781.6469, 1234.386
782.1290, 1234.267
782.6111, 1238.874
783.0932, 1241.082
783.5753, 1235.451
784.0574, 1224.604
784.5396, 1214.590
785.0217, 1202.361
785.5038, 1198.664
785.9859, 1212.505
786.4680, 1225.408
786.9501, 1228.874
787.4323, 1226.888
787.9144, 1224.851
788.3965, 1223.804
788.8786, 1222.192
789.3607, 1216.711
789.8428, 1212.446
790.3250, 1218.160
790.8071, 1227.587
791.2892, 1225.583
791.7713, 1202.234
792.2534, 1212.890
792.7355, 1218.825
793.2177, 1220.292
793.6998, 1203.911
794.1819, 1210.577
794.6640, 1208.007
795.1461, 1205.058
795.6282, 1214.969
796.1104, 1201.183
796.5925, 1210.890
797.0746, 1211.219
797.5567, 1215.839
798.0388, 1211.166
798.5209, 1209.364
799.0031, 1216.858
799.4852, 1219.204
799.9673, 1213.462
800.4494, 1218.355
800.9315, 1204.246
801.4136, 1206.811
801.8958, 1216.572
802.3779, 1211.297
802.8600, 1216.360
803.3421, 1217.486
803.8242, 1200.717
804.3063, 1215.069
804.7885, 1215.962
805.2706, 1203.036
805.7527, 1216.321
806.2348, 1210.737
806.7169, 1205.025
807.1990, 1197.916
807.6812, 1190.432
808.1633, 1187.649
808.6454, 1192.444
809.1275, 1199.620
809.6096, 1200.583
810.0917, 1194.898
810.5739, 1196.806
811.0560, 1212.180
811.5381, 1219.138
812.0202, 1205.291
812.5023, 1187.979
812.9844, 1186.691
813.4666, 1198.755
813.9487, 1202.022
814.4308, 1186.001
814.9129, 1175.130
815.3950, 1176.394
815.8771, 1181.313
816.3593, 1184.572
816.8414, 1186.848
817.3235, 1191.918
817.8056, 1201.755
818.2877, 1206.901
818.7698, 1194.984
819.2520, 1179.997
819.7341, 1179.310
820.2162, 1188.162
820.6983, 1194.370
821.1804, 1194.339
821.6625, 1190.187
822.1447, 1182.483
822.6268, 1173.661
823.1089, 1170.082
823.5910, 1171.510
824.0731, 1175.941
824.5552, 1183.489
825.0374, 1189.305
825.5195, 1189.612
826.0016, 1186.484
826.4837, 1185.790
826.9658, 1189.373
827.4479, 1189.189
827.9301, 1182.071
828.4122, 1176.202
828.8943, 1175.442
829.3764, 1177.267
829.8585, 1179.377
830.3406, 1181.803
830.8228, 1181.610
831.3049, 1174.212
831.7870, 1169.501
832.2691, 1174.063
832.7512, 1180.105
833.2333, 1180.566
833.7155, 1175.930
834.1976, 1170.261
834.6797, 1164.949
835.1618, 1159.703
835.6439, 1151.183
836.1260, 1144.627
836.6082, 1150.503
837.0903, 1164.503
837.5724, 1172.295
838.0545, 1169.007
838.5366, 1162.855
839.0187, 1162.154
839.5009, 1165.646
839.9830, 1171.436
840.4651, 1178.894
840.9472, 1177.615
841.4293, 1164.381
841.9114, 1151.566
842.3936, 1149.021
842.8757, 1154.225
843.3578, 1159.656
843.8399, 1166.833
844.3220, 1168.329
844.8041, 1160.106
845.2863, 1153.177
845.7684, 1153.375
846.2505, 1157.227
846.7326, 1159.351
847.2147, 1159.434
847.6968, 1160.910
848.1790, 1168.471
848.6611, 1171.526
849.1432, 1161.869
849.6253, 1150.840
850.1074, 1149.624
850.5895, 1155.874
851.0717, 1158.712
851.5538, 1152.063
852.0359, 1148.342
852.5180, 1160.382
853.0001, 1173.791
853.4822, 1172.969
853.9644, 1162.226
854.4465, 1152.080
854.9286, 1146.152
855.4107, 1144.548
855.8928, 1150.490
856.3749, 1158.412
856.8571, 1158.563
857.3392, 1152.121
857.8213, 1148.583
858.3034, 1160.686
858.7855, 1168.067
859.2676, 1170.981
859.7498, 1156.047
860.2319, 1164.159
860.7140, 1162.707
861.1961, 1162.921
861.6782, 1142.635
862.1603, 1131.970
862.6425, 1147.130
863.1245, 1168.764
863.6066, 1169.887
864.0887, 1150.208
864.5709, 1142.510
865.0530, 1155.723
865.5351, 1164.294
866.0172, 1162.868
866.4993, 1157.266
866.9814, 1150.391
867.4636, 1142.424
867.9457, 1133.025
868.4278, 1119.894
868.9099, 1112.060
869.3920, 1112.470
869.8741, 1116.966
870.3563, 1127.275
870.8384, 1138.338
871.3205, 1144.282
871.8026, 1144.539
872.2847, 1142.427
872.7668, 1137.758
873.2490, 1133.442
873.7311, 1130.626
874.2132, 1129.811
874.6953, 1133.599
875.1774, 1139.880
875.6595, 1142.370
876.1417, 1138.424
876.6238, 1132.141
877.1059, 1126.306
877.5880, 1121.769
878.0701, 1120.119
878.5522, 1121.224
879.0344, 1125.509
879.5165, 1132.690
879.9986, 1138.470
880.4807, 1139.258
880.9628, 1136.668
881.4449, 1134.362
881.9271, 1132.342
882.4092, 1130.257
882.8913, 1127.940
883.3734, 1127.252
883.8555, 1129.472
884.3376, 1132.555
884.8198, 1133.553
885.3019, 1132.457
885.7840, 1130.221
886.2661, 1125.157
886.7482, 1124.005
887.2303, 1131.927
887.7125, 1138.263
888.1946, 1132.541
888.6767, 1119.276
889.1588, 1114.025
889.6409, 1122.604
890.1230, 1126.819
890.6052, 1122.188
891.0873, 1118.482
891.5694, 1119.711
892.0515, 1123.243
892.5336, 1127.152
893.0157, 1130.914
893.4979, 1132.059
893.9800, 1126.928
894.4621, 1123.114
894.9442, 1123.023
895.4263, 1125.431
895.9084, 1132.654
896.3906, 1140.661
896.8727, 1140.702
897.3548, 1130.032
897.8369, 1119.499
898.3190, 1115.452
898.8011, 1114.850
899.2833, 1116.912
899.7654, 1119.587
900.2475, 1119.000
900.7296, 1115.425
901.2117, 1112.627
901.6938, 1112.525
902.1760, 1115.191
902.6581, 1124.199
903.1402, 1134.613
903.6223, 1134.117
904.1044, 1124.895
904.5865, 1119.447
905.0687, 1121.734
905.5508, 1124.338
906.0329, 1119.388
906.5150, 1110.202
906.9971, 1104.742
907.4792, 1103.176
907.9614, 1109.131
908.4435, 1123.280
908.9256, 1133.391
909.4077, 1132.466
909.8898, 1125.494
910.3719, 1120.526
910.8541, 1117.538
911.3362, 1114.749
911.8183, 1112.899
912.3004, 1105.765
912.7825, 1087.743
913.2646, 1076.083
913.7468, 1088.853
914.2289, 1116.675
914.7110, 1124.657
915.1931, 1101.276
915.6752, 1089.569
916.1573, 1095.766
916.6395, 1103.295
917.1216, 1109.176
917.6037, 1110.707
918.0858, 1101.411
918.5679, 1081.856
919.0500, 1072.913
919.5322, 1082.776
920.0143, 1091.115
920.4964, 1097.389
920.9785, 1100.396
921.4606, 1096.600
921.9427, 1090.307
922.4249, 1089.750
922.9070, 1096.653
923.3891, 1098.894
923.8712, 1087.082
924.3533, 1078.643
924.8354, 1085.086
925.3176, 1093.991
925.7997, 1092.755
926.2818, 1084.112
926.7639, 1078.405
927.2460, 1078.840
927.7281, 1081.417
928.2103, 1085.109
928.6924, 1089.297
929.1745, 1094.601
929.6566, 1099.498
930.1387, 1103.144
930.6208, 1104.482
931.1030, 1099.054
931.5851, 1079.514
932.0672, 1064.926
932.5493, 1077.570
933.0314, 1100.037
933.5135, 1113.759
933.9957, 1117.797
934.4778, 1112.028
934.9599, 1097.997
935.4420, 1087.581
935.9241, 1093.547
936.4063, 1104.116
936.8884, 1100.366
937.3705, 1089.237
937.8526, 1085.391
938.3347, 1089.751
938.8168, 1098.882
939.2990, 1111.130
939.7811, 1118.512
940.2632, 1105.974
940.7453, 1083.748
941.2274, 1080.970
941.7095, 1093.772
942.1917, 1106.708
942.6738, 1115.950
943.1559, 1114.938
943.6380, 1098.193
944.1201, 1076.958
944.6022, 1073.542
945.0844, 1084.486
945.5665, 1082.205
946.0486, 1066.783
946.5307, 1059.928
947.0128, 1068.242
947.4949, 1080.124
947.9771, 1086.367
948.4592, 1087.787
948.9413, 1085.212
949.4234, 1078.236
949.9055, 1079.175
950.3876, 1090.361
950.8698, 1096.309
951.3519, 1089.420
951.8340, 1081.696
952.3161, 1088.349
952.7982, 1105.499
953.2803, 1106.201
953.7625, 1085.194
954.2446, 1072.984
954.7267, 1074.380
955.2088, 1078.829
955.6909, 1082.084
956.1730, 1084.243
956.6552, 1085.447
957.1373, 1085.696
957.6194, 1085.065
958.1015, 1083.289
958.5836, 1081.394
959.0657, 1080.025
959.5479, 1077.544
960.0300, 1071.450
960.5121, 1064.786
960.9942, 1064.522
961.4763, 1072.946
961.9584, 1073.762
962.4406, 1057.390
962.9227, 1050.085
963.4048, 1064.024
963.8869, 1080.512
964.3690, 1087.277
964.8511, 1086.159
965.3333, 1081.255
965.8154, 1068.619
966.2975, 1063.504
966.7796, 1075.314
967.2617, 1082.211
967.7438, 1072.226
968.2260, 1060.667
968.7081, 1062.688
969.1902, 1074.315
969.6723, 1078.939
970.1544, 1070.451
970.6365, 1066.433
971.1187, 1073.100
971.6008, 1078.601
972.0829, 1079.746
972.5650, 1076.676
973.0471, 1066.463
973.5292, 1051.301
974.0114, 1043.832
974.4935, 1051.070
974.9756, 1056.658
975.4577, 1054.895
975.9398, 1054.193
976.4219, 1062.508
976.9041, 1071.999
977.3862, 1070.832
977.8683, 1059.500
978.3504, 1052.576
978.8325, 1056.351
979.3146, 1060.381
979.7968, 1062.464
980.2789, 1063.629
980.7610, 1067.532
981.2431, 1069.403
981.7252, 1057.718
982.2073, 1032.516
982.6895, 1020.326
983.1716, 1042.261
983.6537, 1059.925
984.1358, 1055.142
984.6179, 1046.211
985.1000, 1045.404
985.5822, 1050.746
986.0643, 1059.299
986.5464, 1070.319
987.0285, 1074.177
987.5106, 1059.570
987.9927, 1047.328
988.4749, 1048.503
988.9570, 1053.735
989.4391, 1058.491
989.9212, 1059.932
990.4033, 1051.544
990.8854, 1031.473
991.3676, 1018.222
991.8497, 1020.800
992.3318, 1030.014
992.8139, 1050.762
993.2960, 1068.046
993.7781, 1063.324
994.2603, 1044.702
994.7424, 1033.043
995.2245, 1033.969
995.7066, 1035.812
996.1887, 1032.648
996.6708, 1030.115
997.1530, 1032.329
997.6351, 1035.937
998.1172, 1036.647
998.5993, 1035.948
999.0814, 1038.911
999.5635, 1047.342
1000.046, 1055.424
1000.528, 1062.471
1001.010, 1066.210
1001.492, 1063.319
1001.974, 1057.959
1002.456, 1053.677
1002.938, 1050.988
1003.420, 1050.283
1003.903, 1052.183
1004.385, 1043.787
1004.867, 1054.185
1005.349, 1059.862
1005.831, 1061.072
1006.313, 1044.433
1006.795, 1050.841
1007.277, 1048.014
1007.759, 1044.807
1008.242, 1054.458
1008.724, 1040.416
1009.206, 1050.810
1009.688, 1054.609
1010.170, 1047.979
1010.652, 1038.889
1011.134, 1036.080
1011.616, 1039.371
1012.099, 1045.372
1012.581, 1054.261
1013.063, 1060.384
1013.545, 1060.272
1014.027, 1057.981
1014.509, 1054.768
1014.991, 1051.425
1015.473, 1048.551
1015.955, 1046.216
1016.438, 1045.141
1016.920, 1047.013
1017.402, 1043.568
1017.884, 1021.825
1018.366, 1005.544
1018.848, 1013.375
1019.330, 1028.584
1019.812, 1032.667
1020.294, 1028.254
1020.777, 1030.777
1021.259, 1047.332
1021.741, 1056.472
1022.223, 1042.899
1022.705, 1030.552
1023.187, 1035.240
1023.669, 1043.228
1024.151, 1039.690
1024.634, 1027.399
1025.116, 1018.166
1025.598, 1014.240
1026.080, 1013.387
1026.562, 1015.733
1027.044, 1020.153
1027.526, 1030.659
1028.008, 1039.247
1028.490, 1035.532
1028.973, 1024.096
1029.455, 1020.129
1029.937, 1029.186
1030.419, 1032.612
1030.901, 1017.731
1031.383, 1009.057
1031.865, 1020.576
1032.347, 1036.532
1032.830, 1044.952
1033.312, 1047.004
1033.794, 1047.299
1034.276, 1045.684
1034.758, 1044.287
1035.240, 1040.262
1035.722, 1040.587
1036.204, 1055.577
1036.687, 1067.469
1037.169, 1060.018
1037.651, 1040.205
1038.133, 1024.419
1038.615, 1011.721
1039.097, 1007.846
1039.579, 1021.973
1040.061, 1030.903
1040.543, 1026.055
1041.026, 1020.186
1041.508, 1022.405
1041.990, 1028.861
1042.472, 1031.281
1042.954, 1028.669
1043.436, 1028.897
1043.918, 1034.129
1044.400, 1037.866
1044.882, 1039.551
1045.365, 1038.260
1045.847, 1030.629
1046.329, 1022.694
1046.811, 1027.015
1047.293, 1044.669
1047.775, 1048.249
1048.257, 1031.396
1048.739, 1020.474
1049.222, 1019.750
1049.704, 1024.625
1050.186, 1034.686
1050.668, 1044.955
1051.150, 1047.917
1051.632, 1043.877
1052.114, 1035.981
1052.596, 1022.877
1053.078, 1016.514
1053.561, 1019.698
1054.043, 1021.291
1054.525, 1015.079
1055.007, 1009.732
1055.489, 1017.259
1055.971, 1034.019
1056.453, 1043.177
1056.935, 1044.732
1057.417, 1039.279
1057.900, 1026.642
1058.382, 1023.311
1058.864, 1036.458
1059.346, 1049.363
1059.828, 1043.933
1060.310, 1027.828
1060.792, 1019.664
1061.274, 1019.081
1061.757, 1026.482
1062.239, 1040.548
1062.721, 1053.331
1063.203, 1061.861
1063.685, 1059.858
1064.167, 1040.019
1064.649, 1014.651
1065.131, 1004.479
1065.614, 1005.217
1066.096, 1008.199
1066.578, 1012.259
1067.060, 1015.961
1067.542, 1018.879
1068.024, 1021.137
1068.506, 1022.957
1068.988, 1023.392
1069.470, 1019.192
1069.953, 1014.575
1070.435, 1015.478
1070.917, 1020.731
1071.399, 1030.362
1071.881, 1041.772
1072.363, 1046.276
1072.845, 1039.366
1073.327, 1030.608
1073.809, 1027.564
1074.292, 1025.396
1074.774, 1018.347
1075.256, 1010.657
1075.738, 1008.077
1076.220, 1009.886
1076.702, 1012.714
1077.184, 1015.681
1077.666, 1017.831
1078.148, 1019.466
1078.631, 1019.242
1079.113, 1013.622
1079.595, 1008.495
1080.077, 1008.752
1080.559, 1013.273
1081.041, 1021.620
1081.523, 1033.762
1082.005, 1037.197
1082.488, 1021.611
1082.970, 1008.366
1083.452, 998.7375
1083.934, 996.1447
1084.416, 1009.087
1084.898, 1026.173
1085.380, 1031.249
1085.862, 1024.869
1086.344, 1020.722
1086.827, 1021.219
1087.309, 1019.146
1087.791, 1012.252
1088.273, 1006.492
1088.755, 1004.131
1089.237, 1003.534
1089.719, 1003.412
1090.201, 1003.617
1090.683, 1003.995
1091.166, 1005.430
1091.648, 1000.809
1092.130, 986.7663
1092.612, 985.0712
1093.094, 1004.436
1093.576, 1022.450
1094.058, 1022.666
1094.540, 1012.512
1095.023, 1004.570
1095.505, 999.2635
1095.987, 1002.690
1096.469, 1014.110
1096.951, 1022.743
1097.433, 1026.783
1097.915, 1028.804
1098.397, 1030.074
1098.880, 1030.404
1099.362, 1029.012
1099.844, 1027.100
1100.326, 1028.963
1100.808, 1031.964
1101.290, 1028.078
1101.772, 1018.442
1102.254, 1009.504
1102.736, 1003.681
1103.219, 1001.380
1103.701, 1004.674
1104.183, 1007.948
1104.665, 1002.678
1105.147, 996.3300
1105.629, 999.1258
1106.111, 1007.209
1106.593, 1014.629
1107.075, 1019.159
1107.558, 1016.681
1108.040, 1001.622
1108.522, 992.3344
1109.004, 1005.735
1109.486, 1018.179
1109.968, 1011.897
1110.450, 1000.298
1110.932, 996.7385
1111.415, 1000.344
1111.897, 1006.319
1112.379, 1015.539
1112.861, 1018.911
1113.343, 1009.071
1113.825, 1002.088
1114.307, 1003.738
1114.789, 1006.485
1115.271, 1006.418
1115.754, 1004.924
1116.236, 1004.284
1116.718, 1004.424
1117.200, 1002.357
1117.682, 996.8498
1118.164, 994.3536
1118.646, 997.7546
1119.128, 994.1024
1119.610, 976.1168
1120.093, 957.8971
1120.575, 952.8669
1121.057, 958.6061
1121.539, 971.3364
1122.021, 989.8531
1122.503, 997.8422
1122.985, 995.6092
1123.467, 991.0486
1123.950, 986.4930
1124.432, 987.2106
1124.914, 996.9431
1125.396, 1006.718
1125.878, 1000.521
1126.360, 989.0934
1126.842, 997.9139
1127.324, 1015.097
1127.807, 1012.990
1128.289, 994.9526
1128.771, 984.0703
1129.253, 987.5259
1129.735, 990.4561
1130.217, 979.3522
1130.699, 970.1282
1131.181, 976.1882
1131.663, 987.4566
1132.146, 997.5988
1132.628, 1005.159
1133.110, 1009.603
1133.592, 1010.516
1134.074, 1005.349
1134.556, 987.3074
1135.038, 978.6505
1135.520, 996.0645
1136.002, 1007.753
1136.485, 994.0492
1136.967, 978.5322
1137.449, 982.7910
1137.931, 996.9543
1138.413, 998.4340
1138.895, 985.3730
1139.377, 979.7712
1139.859, 984.1363
1140.342, 987.3009
1140.824, 987.7488
1141.306, 986.9731
1141.788, 985.5605
1142.270, 983.2836
1142.752, 978.8962
1143.234, 975.0489
1143.716, 984.5790
1144.198, 1003.886
1144.681, 1004.451
1145.163, 987.6429
1145.645, 971.7386
1146.127, 962.0379
1146.609, 959.6038
1147.091, 965.5994
1147.573, 975.1088
1148.055, 985.4846
1148.537, 993.3859
1149.020, 991.3083
1149.502, 985.2422
1149.984, 985.3011
1150.466, 990.2728
1150.948, 993.7631
1151.430, 993.9451
1151.912, 993.0372
1152.394, 991.9225
1152.877, 990.1829
1153.359, 984.3394
1153.841, 981.4612
1154.323, 994.0104
1154.805, 1006.785
1155.287, 995.1921
1155.769, 964.2762
1156.251, 951.2037
1156.734, 962.5480
1157.216, 975.9326
1157.698, 996.4705
1158.180, 1007.012
1158.662, 1000.191
1159.144, 991.2028
1159.626, 990.0244
1160.108, 991.3217
1160.590, 985.9728
1161.073, 975.4539
1161.555, 968.3391
1162.037, 964.8005
1162.519, 968.6702
1163.001, 979.6304
1163.483, 993.1564
1163.965, 1006.918
1164.447, 1010.367
1164.929, 992.6648
1165.412, 972.1746
1165.894, 977.6089
1166.376, 992.1274
1166.858, 988.9701
1167.340, 977.6053
1167.822, 977.9515
1168.304, 987.9600
1168.786, 992.3177
1169.269, 986.1696
1169.751, 975.7264
1170.233, 955.5939
1170.715, 943.1478
1171.197, 951.6456
1171.679, 963.2407
1172.161, 965.3521
1172.643, 964.0121
1173.125, 970.6475
1173.608, 982.8673
1174.090, 982.8456
1174.572, 961.0727
1175.054, 955.7882
1175.536, 972.9033
1176.018, 988.7833
1176.500, 998.7948
1176.982, 1002.612
1177.464, 999.3630
1177.947, 992.1544
1178.429, 984.9165
1178.911, 978.2962
1179.393, 974.8068
1179.875, 974.2312
1180.357, 975.8359
1180.839, 979.3941
1181.321, 985.2331
1181.804, 992.9217
1182.286, 999.5707
1182.768, 1004.467
1183.250, 1003.175
1183.732, 984.6411
1184.214, 965.3774
1184.696, 962.7174
1185.178, 966.8244
1185.661, 964.4516
1186.143, 958.0244
1186.625, 956.9946
1187.107, 963.2336
1187.589, 970.7900
1188.071, 986.9504
1188.553, 990.9136
1189.035, 965.6968
1189.517, 949.4677
1190.000, 962.4055
1190.482, 980.8528
1190.964, 982.5129
1191.446, 972.3156
1191.928, 962.6660
1192.410, 953.4408
1192.892, 957.1839
1193.374, 973.4686
1193.856, 978.3680
1194.339, 968.8912
1194.821, 961.6674
1195.303, 964.0406
1195.785, 968.5133
1196.267, 967.6724
1196.749, 965.7019
1197.231, 969.6177
1197.713, 974.8831
1198.196, 974.2139
1198.678, 970.5806
1199.160, 970.7924
1199.642, 960.1795
1200.124, 971.7010
1200.606, 978.5011
1201.088, 980.8339
1201.570, 965.3184
1202.052, 972.8502
1202.535, 971.1472
1203.017, 969.0639
1203.499, 979.8395
1203.981, 966.9199
1204.463, 977.4916
1204.945, 978.6860
1205.427, 984.1722
1205.909, 980.3651
1206.391, 979.4282
1206.874, 987.7893
1207.356, 991.0013
1207.838, 986.1244
1208.320, 993.1616
1208.802, 972.6501
1209.284, 948.4022
1209.766, 946.9027
1210.248, 957.2399
1210.731, 965.9252
1211.213, 972.7651
1211.695, 977.2432
1212.177, 979.6998
1212.659, 981.3234
1213.141, 981.7868
1213.623, 977.6995
1214.105, 965.2925
1214.588, 960.0554
1215.070, 977.2601
1215.552, 987.5790
1216.034, 973.5767
1216.516, 959.6708
1216.998, 961.2694
1217.480, 968.8254
1217.962, 970.4279
1218.444, 967.1604
1218.927, 964.9536
1219.409, 963.9378
1219.891, 959.7620
1220.373, 952.4481
1220.855, 957.5577
1221.337, 977.2286
1221.819, 991.7270
1222.301, 990.4925
1222.783, 982.3643
1223.266, 971.7349
1223.748, 965.7080
1224.230, 981.8362
1224.712, 1000.706
1225.194, 992.3293
1225.676, 971.4131
1226.158, 966.2393
1226.640, 976.9035
1227.122, 984.4507
1227.605, 983.4177
1228.087, 983.7026
1228.569, 993.0989
1229.051, 994.0330
1229.533, 968.1348
1230.015, 978.5476
1230.497, 984.2393
1230.979, 985.4633
1231.462, 968.8384
1231.944, 975.2617
1232.426, 972.4485
1232.908, 969.2567
1233.390, 978.9235
1233.872, 964.8955
1234.354, 974.3585
1234.836, 974.4442
1235.318, 978.8218
1235.801, 973.9052
1236.283, 971.8599
1236.765, 979.1107
1237.247, 981.2142
1237.729, 975.2285
1238.211, 979.8788
1238.693, 965.5261
1239.175, 967.8488
1239.657, 977.3662
1240.140, 971.8470
1240.622, 993.0645
1241.104, 993.5580
1241.586, 993.0478
1242.068, 992.8683
1242.550, 986.5473
1243.032, 971.9780
1243.514, 958.2166
1243.997, 948.1412
1244.479, 944.6616
1244.961, 950.6223
1245.443, 961.6855
1245.925, 973.9667
1246.407, 984.2709
1246.889, 983.9844
1247.371, 978.1732
1247.854, 975.1143
1248.336, 975.5181
1248.818, 980.7252
1249.300, 989.2180
1249.782, 987.6594
1250.264, 963.2386
1250.746, 947.9941
1251.228, 959.2491
1251.710, 968.5065
1252.193, 963.5781
1252.675, 958.4709
1253.157, 961.1609
1253.639, 969.3069
1254.121, 981.3613
1254.603, 994.4733
1255.085, 993.1315
1255.567, 979.4655
1256.049, 976.3149
1256.532, 982.5997
1257.014, 986.9273
1257.496, 986.8498
1257.978, 982.9315
##END=



