##NAMES=Magnesiochromite
##RRUFFID=R050399
##IDEAL CHEMISTRY=MgCr^3+^_2_O_4_
##LOCALITY=Troodos Mountains, Cyprus
##OWNER=RRUFF
##SOURCE=Andy McCarthy
##DESCRIPTION=Black grains
##STATUS=The identification of this mineral has been confirmed by X-ray diffraction and chemical analysis
##URL=rruff.info/R050399
##MEASURED CHEMISTRY=(Mg_0.68_Fe^2+^_0.32_)_Σ=1_(Cr_1.29_Al_0.64_Fe^3+^_0.07_)_Σ=2_O__4
92.35352, 15.08967
92.83563, 14.95070
93.31775, 14.89193
93.79987, 14.91423
94.28198, 15.01690
94.76410, 15.24891
95.24622, 15.74617
95.72833, 16.24720
96.21045, 15.97042
96.69257, 14.85776
97.17468, 13.86504
97.65680, 14.01667
98.13892, 15.28784
98.62103, 16.48495
99.10315, 17.31707
99.58527, 17.81785
100.0674, 18.07115
100.5495, 17.97097
101.0316, 17.85190
101.5137, 18.12125
101.9958, 18.83342
102.4780, 19.75011
102.9601, 20.82928
103.4422, 22.09779
103.9243, 23.32719
104.4064, 24.43702
104.8885, 25.56496
105.3707, 27.02285
105.8528, 29.03904
106.3349, 31.04848
106.8170, 32.84717
107.2991, 34.47652
107.7813, 35.80125
108.2634, 36.51378
108.7455, 36.88245
109.2276, 37.77658
109.7097, 39.91881
110.1918, 42.07216
110.6740, 43.72704
111.1561, 44.22334
111.6382, 44.94791
112.1203, 45.88895
112.6024, 47.09313
113.0845, 48.79655
113.5667, 51.48384
114.0488, 54.42614
114.5309, 57.16320
115.0130, 59.40870
115.4951, 61.58500
115.9772, 63.80313
116.4594, 66.08462
116.9415, 68.39058
117.4236, 71.05568
117.9057, 73.62827
118.3878, 75.61678
118.8699, 75.97504
119.3521, 76.36485
119.8342, 77.81838
120.3163, 80.46421
120.7984, 83.45395
121.2805, 86.55807
121.7626, 89.63848
122.2448, 92.45917
122.7269, 95.96422
123.2090, 98.64627
123.6911, 98.48606
124.1732, 94.70545
124.6553, 90.45192
125.1375, 88.45091
125.6196, 88.34260
126.1017, 88.98776
126.5838, 89.76563
127.0659, 90.84389
127.5480, 92.68562
128.0302, 95.65351
128.5123, 98.79900
128.9944, 100.5712
129.4765, 101.1093
129.9586, 101.7147
130.4407, 103.6974
130.9229, 106.6448
131.4050, 108.8788
131.8871, 109.9699
132.3692, 110.2089
132.8513, 109.8202
133.3334, 108.5407
133.8156, 107.2381
134.2977, 107.3556
134.7798, 109.1893
135.2619, 110.9267
135.7440, 112.0339
136.2261, 112.7280
136.7083, 114.2701
137.1904, 116.8584
137.6725, 119.6677
138.1546, 122.1987
138.6367, 124.6836
139.1188, 125.7702
139.6010, 124.9447
140.0831, 122.2217
140.5652, 119.0506
141.0473, 114.9468
141.5294, 110.9934
142.0115, 108.7537
142.4937, 108.7512
142.9758, 109.1234
143.4579, 109.3605
143.9400, 109.4175
144.4221, 109.5171
144.9042, 109.5404
145.3864, 109.6630
145.8685, 110.2676
146.3506, 112.0855
146.8327, 113.3981
147.3148, 113.5345
147.7969, 111.6917
148.2791, 110.4939
148.7612, 110.2543
149.2433, 110.6225
149.7254, 110.7911
150.2075, 110.3507
150.6896, 110.0687
151.1718, 110.2605
151.6539, 111.6748
152.1360, 112.4746
152.6181, 111.9916
153.1002, 110.7745
153.5823, 110.4661
154.0645, 112.6582
154.5466, 114.7052
155.0287, 115.3648
155.5108, 113.1481
155.9929, 111.1911
156.4750, 110.0805
156.9572, 109.6389
157.4393, 109.1849
157.9214, 108.5467
158.4035, 107.8603
158.8856, 107.2089
159.3677, 106.3722
159.8499, 105.8068
160.3320, 105.5749
160.8141, 105.6877
161.2962, 106.2580
161.7783, 108.2985
162.2604, 110.3589
162.7426, 111.2437
163.2247, 109.4074
163.7068, 107.3732
164.1889, 106.2618
164.6710, 106.0408
165.1531, 105.9664
165.6353, 105.6026
166.1174, 105.2184
166.5995, 105.1034
167.0816, 105.7141
167.5637, 106.3634
168.0458, 106.4472
168.5280, 105.9610
169.0101, 105.7231
169.4922, 106.7588
169.9743, 108.2711
170.4564, 109.1392
170.9385, 108.3538
171.4207, 107.0603
171.9028, 106.2639
172.3849, 106.0220
172.8670, 105.8990
173.3491, 105.6568
173.8312, 105.2914
174.3134, 104.7927
174.7955, 104.0122
175.2776, 103.1645
175.7597, 102.3890
176.2418, 101.6468
176.7239, 101.3264
177.2061, 102.1271
177.6882, 103.6867
178.1703, 105.0037
178.6524, 105.6356
179.1345, 105.7201
179.6166, 105.3647
180.0988, 104.5048
180.5809, 103.5696
181.0630, 103.0275
181.5451, 102.8198
182.0272, 102.7357
182.5093, 102.6410
182.9915, 102.5875
183.4736, 102.7438
183.9557, 103.1636
184.4378, 103.6388
184.9199, 103.8601
185.4020, 103.8585
185.8842, 103.8865
186.3663, 104.3751
186.8484, 105.0624
187.3305, 104.8256
187.8126, 103.3751
188.2947, 101.5208
188.7769, 100.5868
189.2590, 100.5350
189.7411, 100.5818
190.2232, 100.0791
190.7053, 99.18884
191.1874, 99.01830
191.6696, 99.79920
192.1517, 101.0557
192.6338, 102.0252
193.1159, 102.7107
193.5980, 103.0662
194.0801, 102.8152
194.5623, 102.0294
195.0444, 101.8553
195.5265, 102.6210
196.0086, 103.7260
196.4907, 103.6814
196.9728, 102.3305
197.4550, 101.1381
197.9371, 101.2405
198.4192, 102.6665
198.9013, 103.4860
199.3834, 103.4036
199.8655, 102.7581
200.3477, 102.3419
200.8298, 102.1866
201.3119, 102.1273
201.7940, 102.1095
202.2761, 102.1491
202.7582, 102.0159
203.2404, 101.5751
203.7225, 101.0348
204.2046, 101.0950
204.6867, 101.9540
205.1688, 102.7384
205.6509, 102.7771
206.1331, 101.9082
206.6152, 101.4180
207.0973, 101.5831
207.5794, 102.1101
208.0615, 101.9927
208.5436, 100.9799
209.0258, 99.98187
209.5079, 99.59163
209.9900, 99.91940
210.4721, 100.3856
210.9542, 101.1257
211.4363, 101.9109
211.9185, 101.8262
212.4006, 100.4780
212.8827, 99.10339
213.3648, 98.54358
213.8469, 99.04152
214.3290, 99.40652
214.8112, 99.46680
215.2933, 99.34702
215.7754, 99.53163
216.2575, 100.1597
216.7396, 100.8298
217.2217, 101.3582
217.7038, 101.8371
218.1860, 101.8321
218.6681, 101.0359
219.1502, 99.77705
219.6323, 99.36891
220.1144, 100.2712
220.5965, 101.2436
221.0787, 101.5590
221.5608, 101.0007
222.0429, 100.3344
222.5250, 99.38709
223.0071, 98.38650
223.4892, 98.31272
223.9714, 99.73383
224.4535, 101.1868
224.9356, 101.8867
225.4177, 101.5964
225.8998, 101.0713
226.3819, 100.1484
226.8641, 99.03577
227.3462, 98.51527
227.8283, 98.82478
228.3104, 99.35925
228.7925, 99.86360
229.2746, 100.5176
229.7568, 100.7151
230.2389, 100.2695
230.7210, 99.38068
231.2031, 98.66258
231.6852, 98.02187
232.1673, 97.68747
232.6495, 97.87704
233.1316, 99.09913
233.6137, 99.65285
234.0958, 99.09611
234.5779, 97.92554
235.0600, 97.61058
235.5422, 98.71385
236.0243, 99.85479
236.5064, 100.4023
236.9885, 100.0617
237.4706, 99.77646
237.9527, 99.55847
238.4349, 99.39761
238.9170, 99.28433
239.3991, 99.28268
239.8812, 99.23181
240.3633, 99.02802
240.8454, 98.50374
241.3276, 98.25981
241.8097, 98.44432
242.2918, 98.85734
242.7739, 99.05109
243.2560, 98.90058
243.7381, 98.72491
244.2203, 98.65823
244.7024, 98.77824
245.1845, 98.77640
245.6666, 98.55788
246.1487, 98.26347
246.6308, 98.21091
247.1130, 98.70337
247.5951, 98.93169
248.0772, 98.45968
248.5593, 96.87554
249.0414, 96.14204
249.5235, 96.69501
250.0057, 97.82346
250.4878, 98.33370
250.9699, 97.88608
251.4520, 97.42280
251.9341, 97.26390
252.4162, 97.49061
252.8984, 97.62425
253.3805, 97.70396
253.8626, 97.65839
254.3447, 97.32577
254.8268, 96.44704
255.3089, 95.80330
255.7911, 95.67957
256.2732, 96.14717
256.7553, 96.51884
257.2374, 96.76711
257.7195, 96.94768
258.2017, 97.12482
258.6838, 97.29527
259.1659, 97.48084
259.6480, 97.73924
260.1301, 98.08109
260.6122, 98.14204
261.0944, 97.80519
261.5765, 97.33156
262.0586, 97.01339
262.5407, 96.93610
263.0228, 96.76061
263.5049, 96.28965
263.9871, 95.55297
264.4692, 95.50061
264.9513, 96.47837
265.4334, 97.58675
265.9155, 97.93270
266.3976, 97.24418
266.8798, 96.70229
267.3619, 96.57605
267.8440, 96.79631
268.3261, 96.79509
268.8082, 96.50198
269.2903, 96.13582
269.7725, 95.84117
270.2546, 95.60075
270.7367, 95.55325
271.2188, 95.83569
271.7009, 96.30568
272.1830, 96.26297
272.6652, 95.50456
273.1473, 94.78960
273.6294, 94.67332
274.1115, 95.25169
274.5936, 95.90025
275.0757, 96.65951
275.5579, 97.38414
276.0400, 97.52143
276.5221, 96.91772
277.0042, 96.34403
277.4863, 96.41667
277.9684, 97.22060
278.4506, 97.41225
278.9327, 96.71678
279.4148, 95.59853
279.8969, 95.04866
280.3790, 95.12467
280.8611, 95.36758
281.3433, 95.61662
281.8254, 95.87148
282.3075, 95.97171
282.7896, 95.93511
283.2717, 95.70045
283.7538, 95.01273
284.2360, 93.84618
284.7181, 92.90022
285.2002, 92.45744
285.6823, 92.50073
286.1644, 93.01692
286.6465, 94.11876
287.1287, 95.26440
287.6108, 95.71838
288.0929, 95.50877
288.5750, 95.15063
289.0571, 94.76213
289.5392, 94.37318
290.0214, 94.12840
290.5035, 94.03873
290.9856, 94.00714
291.4677, 93.92976
291.9498, 93.81815
292.4319, 93.74650
292.9141, 93.74805
293.3962, 93.79813
293.8783, 93.93571
294.3604, 94.16470
294.8425, 94.17477
295.3246, 93.40398
295.8068, 92.13969
296.2889, 91.39815
296.7710, 91.59234
297.2531, 92.21038
297.7352, 92.39610
298.2173, 92.19208
298.6995, 91.96479
299.1816, 92.00578
299.6637, 92.21245
300.1458, 92.34982
300.6279, 92.33292
301.1100, 92.32731
301.5922, 92.69061
302.0743, 93.29906
302.5564, 93.65492
303.0385, 93.26465
303.5206, 92.50565
304.0027, 91.84731
304.4849, 91.31177
304.9670, 91.05547
305.4491, 91.51048
305.9312, 92.39056
306.4133, 93.00963
306.8954, 92.83110
307.3776, 92.33208
307.8597, 91.91215
308.3418, 91.58273
308.8239, 91.49796
309.3060, 92.11703
309.7881, 93.00640
310.2703, 93.46247
310.7524, 92.78366
311.2345, 91.88517
311.7166, 91.40445
312.1987, 91.34559
312.6808, 91.42583
313.1630, 91.68011
313.6451, 91.91589
314.1272, 91.92167
314.6093, 91.03342
315.0914, 90.45686
315.5735, 91.13580
316.0557, 92.80696
316.5378, 94.07610
317.0199, 94.32510
317.5020, 93.95975
317.9841, 93.19820
318.4662, 91.55605
318.9484, 90.34803
319.4305, 90.28465
319.9126, 91.01215
320.3947, 91.60072
320.8768, 91.25291
321.3589, 91.09850
321.8411, 91.93330
322.3232, 94.68402
322.8053, 96.35742
323.2874, 95.50896
323.7695, 93.39590
324.2516, 92.00910
324.7338, 92.33026
325.2159, 92.79719
325.6980, 92.86667
326.1801, 92.35155
326.6622, 92.17049
327.1443, 92.85076
327.6265, 93.69236
328.1086, 93.98784
328.5907, 93.07410
329.0728, 92.34337
329.5549, 92.00026
330.0370, 92.04750
330.5192, 92.29244
331.0013, 93.13451
331.4834, 93.83968
331.9655, 93.84832
332.4476, 92.46190
332.9297, 91.58023
333.4119, 91.47200
333.8940, 92.00169
334.3761, 92.66576
334.8582, 93.72417
335.3403, 94.48347
335.8224, 94.48683
336.3046, 93.36034
336.7867, 92.60641
337.2688, 92.36562
337.7509, 92.42070
338.2330, 92.29845
338.7151, 91.91026
339.1973, 91.62752
339.6794, 91.62733
340.1615, 91.92503
340.6436, 92.18809
341.1257, 92.42342
341.6078, 92.60846
342.0899, 92.66373
342.5721, 92.57161
343.0542, 92.60706
343.5363, 92.93306
344.0184, 93.44573
344.5005, 93.69542
344.9826, 93.66939
345.4648, 93.46397
345.9469, 93.04573
346.4290, 92.45802
346.9111, 92.07198
347.3932, 91.92915
347.8753, 92.05254
348.3575, 92.70375
348.8396, 93.81866
349.3217, 94.70858
349.8038, 94.78267
350.2859, 94.28177
350.7680, 93.74199
351.2502, 93.19087
351.7323, 92.73857
352.2144, 92.55779
352.6965, 92.58887
353.1786, 92.65736
353.6607, 92.64558
354.1429, 92.63825
354.6250, 92.79926
355.1071, 93.14393
355.5892, 93.41087
356.0713, 93.38127
356.5534, 93.14990
357.0356, 92.84951
357.5177, 92.18091
357.9998, 91.75291
358.4819, 92.25248
358.9640, 93.51100
359.4461, 94.57751
359.9283, 94.85681
360.4104, 94.78190
360.8925, 94.69827
361.3746, 94.64967
361.8567, 94.65741
362.3388, 94.84448
362.8210, 95.09497
363.3031, 95.15175
363.7852, 94.44223
364.2673, 93.91405
364.7494, 94.18703
365.2315, 95.68826
365.7137, 96.64764
366.1958, 96.30788
366.6779, 95.38208
367.1600, 94.70549
367.6421, 94.41629
368.1242, 94.33727
368.6064, 94.53979
369.0885, 95.04497
369.5706, 95.34499
370.0527, 95.25481
370.5348, 95.10596
371.0169, 95.10329
371.4991, 95.21656
371.9812, 95.54897
372.4633, 96.29662
372.9454, 97.26531
373.4275, 97.74427
373.9096, 97.58753
374.3918, 97.20121
374.8739, 96.65319
375.3560, 95.75861
375.8381, 95.60194
376.3202, 96.50069
376.8023, 97.72563
377.2845, 97.93364
377.7666, 96.82613
378.2487, 96.37701
378.7308, 97.62643
379.2129, 100.1953
379.6950, 101.2304
380.1772, 100.5268
380.6593, 99.38711
381.1414, 99.03571
381.6235, 99.38776
382.1056, 99.60344
382.5877, 99.44685
383.0699, 99.15507
383.5520, 99.20351
384.0341, 99.56535
384.5162, 99.96045
384.9983, 100.2777
385.4804, 100.4940
385.9626, 100.5403
386.4447, 100.3927
386.9268, 100.1683
387.4089, 99.97005
387.8910, 99.78481
388.3731, 99.58784
388.8553, 99.18945
389.3374, 98.88463
389.8195, 99.15926
390.3016, 99.96169
390.7837, 100.4957
391.2658, 99.80479
391.7480, 98.77744
392.2301, 98.38058
392.7122, 99.41050
393.1943, 100.3845
393.6764, 100.4728
394.1585, 99.93484
394.6407, 99.50651
395.1228, 99.55193
395.6049, 99.68314
396.0870, 99.68028
396.5691, 99.43396
397.0512, 99.33335
397.5334, 99.47763
398.0155, 99.80003
398.4976, 100.2137
398.9797, 100.8653
399.4618, 101.4426
399.9439, 101.9312
400.4261, 102.3295
400.9082, 102.4749
401.3903, 102.1790
401.8724, 101.8060
402.3545, 101.6184
402.8366, 101.8501
403.3188, 101.7011
403.8009, 100.8026
404.2830, 99.63862
404.7651, 99.64754
405.2472, 101.3641
405.7293, 102.7177
406.2115, 102.5996
406.6936, 100.9477
407.1757, 100.1922
407.6578, 100.5018
408.1399, 101.2513
408.6220, 101.7833
409.1042, 102.1013
409.5863, 102.3326
410.0684, 102.4620
410.5505, 102.5638
411.0326, 102.9426
411.5147, 103.5838
411.9969, 104.0064
412.4790, 103.5130
412.9611, 102.5704
413.4432, 102.4708
413.9253, 103.5890
414.4074, 104.7587
414.8896, 104.4759
415.3717, 103.2619
415.8538, 102.3404
416.3359, 102.2945
416.8180, 102.8097
417.3001, 103.9878
417.7823, 105.7864
418.2644, 106.9219
418.7465, 105.9627
419.2286, 104.3273
419.7107, 103.4047
420.1928, 103.8754
420.6750, 104.6627
421.1571, 105.6247
421.6392, 106.6165
422.1213, 107.2365
422.6034, 107.2897
423.0855, 107.0272
423.5677, 106.3768
424.0498, 105.0355
424.5319, 104.4124
425.0140, 105.3501
425.4961, 106.7066
425.9782, 107.3064
426.4604, 106.3733
426.9425, 105.8308
427.4246, 106.0763
427.9067, 106.9877
428.3888, 107.7299
428.8709, 108.3902
429.3531, 108.7300
429.8352, 108.4680
430.3173, 107.3920
430.7994, 106.8318
431.2815, 106.8923
431.7636, 107.3604
432.2458, 108.0652
432.7279, 109.0420
433.2100, 109.6130
433.6921, 109.3338
434.1742, 108.4927
434.6563, 108.1403
435.1385, 108.2771
435.6206, 108.6859
436.1027, 109.5108
436.5848, 110.4733
437.0669, 110.7026
437.5490, 109.8197
438.0312, 108.7038
438.5133, 108.2884
438.9954, 108.4413
439.4775, 108.7941
439.9596, 109.5087
440.4417, 110.1189
440.9239, 109.9393
441.4060, 108.9314
441.8881, 108.3686
442.3702, 109.6267
442.8523, 111.3889
443.3344, 112.3889
443.8166, 111.6950
444.2987, 110.8880
444.7808, 110.3420
445.2629, 110.0355
445.7450, 109.9070
446.2271, 110.1637
446.7093, 110.4058
447.1914, 110.3907
447.6735, 109.8734
448.1556, 109.9231
448.6377, 111.1093
449.1198, 112.4781
449.6020, 113.0313
450.0841, 112.3709
450.5662, 111.7039
451.0483, 111.1876
451.5304, 110.8006
452.0125, 110.4152
452.4947, 109.9528
452.9768, 109.7245
453.4589, 110.0588
453.9410, 110.9796
454.4231, 111.3876
454.9052, 111.1475
455.3874, 110.7725
455.8695, 111.0891
456.3516, 111.9701
456.8337, 112.4598
457.3158, 112.1104
457.7979, 111.3120
458.2801, 110.5739
458.7622, 109.9399
459.2443, 109.7054
459.7264, 110.6113
460.2085, 111.8369
460.6906, 112.1594
461.1728, 111.2266
461.6549, 110.2411
462.1370, 109.8965
462.6191, 110.0939
463.1012, 110.7028
463.5833, 112.3552
464.0655, 113.7734
464.5476, 114.3809
465.0297, 114.2112
465.5118, 113.6652
465.9939, 112.2844
466.4760, 110.9688
466.9582, 110.2331
467.4403, 110.4354
467.9224, 110.6369
468.4045, 110.7795
468.8866, 110.9216
469.3687, 111.1816
469.8509, 111.7599
470.3330, 112.0737
470.8151, 111.9037
471.2972, 111.3112
471.7793, 110.9607
472.2614, 110.9350
472.7436, 110.9192
473.2257, 110.5943
473.7078, 109.9491
474.1899, 109.7245
474.6720, 110.0598
475.1541, 110.5894
475.6363, 110.7650
476.1184, 110.6339
476.6005, 110.5069
477.0826, 110.5913
477.5647, 110.7038
478.0468, 110.4600
478.5290, 109.9000
479.0111, 109.3893
479.4932, 109.1712
479.9753, 109.1532
480.4574, 109.2471
480.9395, 109.4628
481.4217, 109.7045
481.9038, 109.9693
482.3859, 110.2069
482.8680, 110.3389
483.3501, 110.4435
483.8322, 110.3356
484.3144, 109.7439
484.7965, 108.7310
485.2786, 108.1179
485.7607, 108.5423
486.2428, 108.9934
486.7249, 108.9481
487.2071, 108.1090
487.6892, 107.3907
488.1713, 106.6780
488.6534, 106.1691
489.1355, 106.2667
489.6176, 107.3136
490.0998, 107.9427
490.5819, 107.7054
491.0640, 106.8067
491.5461, 106.2943
492.0282, 106.2002
492.5103, 106.2392
492.9925, 106.2760
493.4746, 106.2949
493.9567, 106.1708
494.4388, 105.8617
494.9209, 105.5745
495.4030, 105.5465
495.8852, 105.7220
496.3673, 105.9678
496.8494, 106.2928
497.3315, 106.6045
497.8136, 106.7819
498.2957, 106.8575
498.7779, 106.9620
499.2600, 107.2226
499.7421, 107.4972
500.2242, 107.6564
500.7063, 107.6392
501.1884, 107.7261
501.6706, 108.1416
502.1527, 108.6421
502.6348, 108.9740
503.1169, 109.0359
503.5990, 109.0116
504.0811, 108.8876
504.5633, 108.6911
505.0454, 108.4658
505.5275, 107.9650
506.0096, 107.8739
506.4917, 108.5751
506.9738, 110.1576
507.4560, 111.5661
507.9381, 112.8418
508.4202, 113.8315
508.9023, 114.2050
509.3844, 114.0094
509.8665, 114.0934
510.3487, 114.6777
510.8308, 115.4949
511.3129, 116.1347
511.7950, 116.6208
512.2772, 117.0611
512.7593, 117.3814
513.2414, 117.7568
513.7235, 118.4657
514.2056, 119.4983
514.6877, 120.5431
515.1699, 121.5622
515.6520, 122.4173
516.1341, 122.9190
516.6162, 122.7158
517.0983, 122.7673
517.5804, 123.6324
518.0626, 124.9034
518.5447, 125.9123
519.0268, 126.2088
519.5089, 126.5998
519.9910, 127.2160
520.4731, 128.0591
520.9553, 129.2185
521.4374, 131.0477
521.9195, 132.6495
522.4016, 133.4070
522.8837, 133.0887
523.3658, 133.1259
523.8480, 133.5796
524.3301, 134.2926
524.8122, 135.0272
525.2943, 135.7929
525.7764, 136.8562
526.2585, 138.5117
526.7407, 140.2498
527.2228, 140.9050
527.7049, 140.6816
528.1870, 140.7487
528.6691, 142.3799
529.1512, 144.4005
529.6334, 145.1560
530.1155, 144.4874
530.5976, 144.2017
531.0797, 145.9266
531.5618, 148.3106
532.0439, 149.9765
532.5261, 150.0373
533.0082, 150.1614
533.4903, 150.7783
533.9724, 151.7471
534.4545, 152.7837
534.9366, 153.7453
535.4188, 154.9093
535.9009, 156.4594
536.3830, 158.3793
536.8651, 159.8738
537.3472, 160.7986
537.8293, 161.5861
538.3115, 162.4576
538.7936, 163.4017
539.2757, 164.6550
539.7578, 166.3564
540.2399, 167.9848
540.7220, 168.5288
541.2042, 168.2361
541.6863, 168.5974
542.1684, 170.3120
542.6505, 172.6291
543.1326, 174.7661
543.6147, 176.6471
544.0969, 178.0291
544.5790, 178.0658
545.0611, 177.9728
545.5432, 178.8853
546.0253, 180.9370
546.5074, 182.9439
546.9896, 184.5873
547.4717, 185.8590
547.9538, 186.7365
548.4359, 186.6186
548.9180, 186.9333
549.4001, 188.2435
549.8823, 189.9182
550.3644, 190.8085
550.8465, 190.2891
551.3286, 190.2184
551.8107, 191.3000
552.2928, 193.2915
552.7750, 194.2259
553.2571, 193.9096
553.7392, 193.5236
554.2213, 193.9145
554.7034, 194.9352
555.1855, 195.7829
555.6677, 196.4209
556.1498, 196.8699
556.6319, 197.0487
557.1140, 197.0605
557.5961, 197.1228
558.0782, 197.3387
558.5604, 197.5525
559.0425, 197.5697
559.5246, 197.4875
560.0067, 197.5239
560.4888, 197.8667
560.9709, 198.2581
561.4531, 198.6538
561.9352, 199.0491
562.4173, 199.1972
562.8994, 198.6078
563.3815, 198.1405
563.8636, 198.3034
564.3458, 199.5410
564.8279, 200.1750
565.3100, 200.0035
565.7921, 199.4946
566.2742, 199.2640
566.7563, 199.3492
567.2385, 199.3343
567.7206, 199.1046
568.2027, 198.7596
568.6848, 198.3541
569.1669, 197.9431
569.6490, 197.9913
570.1312, 199.3815
570.6133, 201.0929
571.0954, 201.4306
571.5775, 200.4468
572.0596, 199.4450
572.5417, 199.2315
573.0239, 199.3826
573.5060, 199.5371
573.9881, 199.5974
574.4702, 199.7549
574.9523, 200.1860
575.4344, 200.7067
575.9166, 201.0855
576.3987, 201.5844
576.8808, 201.5610
577.3629, 200.6869
577.8450, 199.2676
578.3271, 198.3014
578.8093, 197.8741
579.2914, 197.6553
579.7735, 197.6362
580.2556, 197.7492
580.7377, 197.3714
581.2198, 196.4588
581.7020, 195.5176
582.1841, 195.0127
582.6662, 194.7927
583.1483, 194.4952
583.6304, 194.0728
584.1125, 193.5942
584.5947, 193.1127
585.0768, 192.6205
585.5589, 192.1055
586.0410, 191.5238
586.5231, 190.9719
587.0052, 190.6834
587.4873, 190.4745
587.9694, 189.8553
588.4515, 188.3856
588.9337, 186.8445
589.4158, 185.3153
589.8979, 183.7948
590.3800, 182.9752
590.8621, 183.2674
591.3442, 183.5278
591.8264, 182.9176
592.3085, 181.3553
592.7906, 180.1799
593.2727, 179.4927
593.7548, 178.9511
594.2369, 177.9877
594.7191, 176.7784
595.2012, 176.0615
595.6833, 176.1414
596.1654, 176.5169
596.6475, 176.8253
597.1296, 177.0031
597.6118, 176.9113
598.0939, 176.3528
598.5760, 175.6316
599.0581, 174.8409
599.5402, 174.0177
600.0223, 173.2901
600.5045, 172.9056
600.9866, 172.4375
601.4687, 171.5916
601.9508, 170.1546
602.4329, 169.3645
602.9150, 169.6697
603.3972, 170.0066
603.8793, 169.2352
604.3614, 167.1941
604.8435, 165.7535
605.3256, 165.2190
605.8077, 165.1663
606.2899, 165.1642
606.7720, 165.1339
607.2541, 164.6881
607.7362, 163.4467
608.2183, 161.9655
608.7004, 160.9589
609.1826, 160.2916
609.6647, 159.5315
610.1468, 158.3582
610.6289, 157.0913
611.1110, 155.9874
611.5931, 155.0577
612.0753, 153.9478
612.5574, 152.2449
613.0395, 150.6007
613.5216, 149.4227
614.0037, 148.9879
614.4858, 148.2633
614.9680, 147.1462
615.4501, 145.8759
615.9322, 144.6891
616.4143, 143.5834
616.8964, 142.6891
617.3785, 142.1084
617.8607, 141.6178
618.3428, 140.6538
618.8249, 139.3827
619.3070, 138.5032
619.7891, 138.8704
620.2712, 139.4099
620.7534, 138.9896
621.2355, 137.7590
621.7176, 136.4181
622.1997, 135.1026
622.6818, 133.9435
623.1639, 133.0142
623.6461, 132.3362
624.1282, 131.7933
624.6103, 131.5069
625.0924, 131.2348
625.5745, 130.7563
626.0566, 129.7711
626.5388, 129.4989
627.0209, 130.1887
627.5030, 131.2126
627.9851, 131.6948
628.4672, 131.6574
628.9493, 131.6442
629.4315, 131.7496
629.9136, 131.9965
630.3957, 132.4527
630.8778, 133.0831
631.3599, 133.7791
631.8420, 134.3907
632.3242, 135.1288
632.8063, 136.4331
633.2884, 138.1169
633.7705, 139.2270
634.2526, 138.3134
634.7347, 137.7079
635.2169, 138.7734
635.6990, 141.9277
636.1811, 144.4114
636.6632, 145.9498
637.1453, 147.1700
637.6274, 148.4250
638.1096, 149.6906
638.5917, 151.2811
639.0738, 153.3087
639.5559, 155.4084
640.0380, 157.0290
640.5201, 158.3164
641.0023, 159.9130
641.4844, 162.1476
641.9665, 164.4555
642.4486, 166.4036
642.9307, 168.0128
643.4128, 169.2995
643.8950, 169.7146
644.3771, 170.3724
644.8592, 172.1115
645.3413, 174.6680
645.8234, 176.6800
646.3055, 177.2273
646.7877, 177.9028
647.2698, 179.3764
647.7519, 181.7149
648.2340, 183.0795
648.7161, 183.1772
649.1982, 183.0971
649.6804, 183.7218
650.1625, 184.9488
650.6446, 185.7367
651.1267, 185.9784
651.6088, 186.1849
652.0909, 186.9137
652.5731, 187.9609
653.0552, 189.0249
653.5373, 190.1348
654.0194, 190.9796
654.5015, 191.2939
654.9836, 191.2602
655.4658, 191.1500
655.9479, 190.8747
656.4300, 190.7174
656.9121, 190.6630
657.3942, 190.7708
657.8763, 191.2532
658.3585, 192.2988
658.8406, 193.2827
659.3227, 194.0171
659.8048, 194.5273
660.2869, 194.8957
660.7690, 195.1152
661.2512, 195.2716
661.7333, 195.2992
662.2154, 195.3304
662.6975, 195.6615
663.1796, 196.2938
663.6617, 196.9904
664.1439, 197.6304
664.6260, 198.2361
665.1081, 198.8347
665.5902, 199.4371
666.0723, 200.0028
666.5544, 200.0446
667.0366, 200.3438
667.5187, 201.6704
668.0008, 204.8556
668.4829, 207.3366
668.9650, 208.7763
669.4471, 209.6689
669.9293, 210.7424
670.4114, 211.9984
670.8935, 213.3971
671.3756, 214.9859
671.8577, 216.6237
672.3398, 217.9424
672.8220, 219.1039
673.3041, 220.6382
673.7862, 223.2569
674.2683, 225.9553
674.7504, 227.8376
675.2325, 229.0918
675.7147, 230.6591
676.1968, 233.1285
676.6789, 235.7260
677.1610, 238.0771
677.6431, 240.1860
678.1252, 242.3365
678.6074, 244.5200
679.0895, 246.7294
679.5716, 248.8682
680.0537, 250.9550
680.5358, 253.4408
681.0179, 256.3766
681.5001, 259.3221
681.9822, 261.6838
682.4643, 263.7403
682.9464, 266.0447
683.4285, 268.7933
683.9106, 271.4766
684.3928, 273.6552
684.8749, 275.6173
685.3570, 277.7454
685.8391, 280.2367
686.3212, 282.7972
686.8033, 285.3815
687.2855, 288.0323
687.7676, 290.8909
688.2497, 294.2640
688.7318, 297.1280
689.2139, 299.1490
689.6960, 300.6777
690.1782, 302.5476
690.6603, 304.7528
691.1424, 307.1459
691.6245, 309.8677
692.1066, 312.6415
692.5887, 314.9801
693.0709, 316.9531
693.5530, 318.8749
694.0351, 320.9668
694.5172, 322.9904
694.9993, 324.8212
695.4814, 326.4471
695.9636, 327.8516
696.4457, 328.9840
696.9278, 329.9333
697.4099, 330.7335
697.8920, 331.3836
698.3741, 331.8633
698.8563, 332.1566
699.3384, 332.3260
699.8205, 332.4351
700.3026, 332.4713
700.7847, 332.3703
701.2668, 332.1220
701.7490, 331.7708
702.2311, 331.3996
702.7132, 330.9395
703.1953, 330.3343
703.6774, 329.7302
704.1595, 328.6347
704.6417, 326.2037
705.1238, 323.3852
705.6059, 321.5854
706.0880, 321.9098
706.5701, 321.4492
707.0522, 319.5436
707.5344, 316.9855
708.0165, 315.5699
708.4986, 315.3876
708.9807, 315.0219
709.4628, 314.1450
709.9449, 312.7336
710.4271, 310.3056
710.9092, 307.2076
711.3913, 304.6355
711.8734, 303.7249
712.3555, 303.1645
712.8376, 301.9363
713.3198, 300.1897
713.8019, 298.7715
714.2840, 298.2455
714.7661, 297.7435
715.2482, 296.9444
715.7303, 295.8589
716.2125, 294.7591
716.6946, 293.5641
717.1767, 292.5558
717.6588, 292.0963
718.1409, 292.0539
718.6230, 291.3501
719.1052, 289.9607
719.5873, 288.5288
720.0694, 287.4433
720.5515, 286.6523
721.0336, 286.0547
721.5157, 285.6329
721.9979, 285.5074
722.4800, 286.1316
722.9621, 286.8196
723.4442, 286.9813
723.9263, 286.1714
724.4084, 285.6906
724.8906, 285.6411
725.3727, 285.7932
725.8548, 285.9772
726.3369, 286.2089
726.8190, 286.1389
727.3011, 285.6216
727.7833, 285.1707
728.2654, 285.4484
728.7475, 286.3179
729.2296, 287.5589
729.7117, 289.4572
730.1938, 290.9697
730.6760, 290.9564
731.1581, 290.1945
731.6402, 289.8832
732.1223, 290.3899
732.6044, 291.3147
733.0865, 293.1817
733.5687, 295.1982
734.0508, 295.3366
734.5329, 292.8692
735.0150, 291.6598
735.4971, 293.0476
735.9792, 295.9239
736.4614, 298.0706
736.9435, 299.5217
737.4256, 300.4478
737.9077, 300.5317
738.3898, 300.4396
738.8719, 300.8180
739.3541, 301.5446
739.8362, 302.1867
740.3183, 302.8510
740.8004, 303.1375
741.2825, 302.7379
741.7646, 301.7421
742.2468, 300.8307
742.7289, 300.0116
743.2110, 299.2798
743.6931, 298.8626
744.1752, 298.5623
744.6573, 296.8839
745.1395, 293.8887
745.6216, 291.1950
746.1037, 290.4473
746.5858, 290.3891
747.0679, 289.6774
747.5500, 288.2252
748.0322, 286.0616
748.5143, 282.5984
748.9964, 278.9067
749.4785, 275.5654
749.9606, 272.6066
750.4427, 269.9705
750.9249, 267.8503
751.4070, 265.6564
751.8891, 262.9197
752.3712, 259.6302
752.8533, 256.6487
753.3354, 254.0126
753.8176, 251.2988
754.2997, 248.0577
754.7818, 244.5026
755.2639, 240.7944
755.7460, 236.9122
756.2281, 233.4179
756.7103, 231.1807
757.1924, 229.1588
757.6745, 226.4504
758.1566, 222.4310
758.6387, 218.7406
759.1208, 215.3983
759.6030, 212.3090
760.0851, 209.4162
760.5672, 206.7007
761.0493, 203.9391
761.5314, 201.0656
762.0135, 198.3008
762.4957, 196.2053
762.9778, 194.3576
763.4599, 191.8182
763.9420, 188.0029
764.4241, 184.3817
764.9063, 182.0874
765.3884, 180.3146
765.8705, 178.0732
766.3526, 174.7307
766.8347, 171.6350
767.3168, 168.8584
767.7990, 166.3056
768.2811, 163.8882
768.7632, 161.6220
769.2453, 159.0644
769.7274, 155.9715
770.2095, 153.0125
770.6917, 151.3850
771.1738, 150.6180
771.6559, 149.6681
772.1380, 148.2725
772.6201, 146.4506
773.1022, 143.8468
773.5844, 140.9113
774.0665, 138.4699
774.5486, 136.9149
775.0307, 135.4308
775.5128, 133.8928
775.9949, 132.3836
776.4771, 131.2395
776.9592, 130.4778
777.4413, 129.2671
777.9234, 127.1199
778.4055, 124.7781
778.8876, 123.4553
779.3698, 122.8656
779.8519, 122.2712
780.3340, 121.3050
780.8161, 120.3044
781.2982, 119.4345
781.7803, 118.6438
782.2625, 117.7899
782.7446, 116.9014
783.2267, 115.8798
783.7088, 114.5873
784.1909, 113.2107
784.6730, 112.3711
785.1552, 112.0586
785.6373, 111.6309
786.1194, 110.7955
786.6015, 109.7597
787.0836, 108.9099
787.5657, 108.1271
788.0479, 107.0793
788.5300, 104.9177
789.0121, 103.1938
789.4942, 103.0073
789.9763, 103.9069
790.4584, 104.0656
790.9406, 103.1806
791.4227, 102.0622
791.9048, 100.8475
792.3869, 99.60303
792.8690, 98.52248
793.3511, 97.59869
793.8333, 96.85429
794.3154, 96.30123
794.7975, 95.92910
795.2796, 95.87434
795.7617, 96.01797
796.2438, 95.98210
796.7260, 95.63811
797.2081, 95.06444
797.6902, 94.04161
798.1723, 92.77979
798.6544, 92.14915
799.1365, 92.46123
799.6187, 92.56177
800.1008, 91.94252
800.5829, 90.93065
801.0650, 90.68144
801.5471, 91.05080
802.0292, 91.09633
802.5114, 89.82384
802.9935, 88.38491
803.4756, 87.94197
803.9577, 88.24255
804.4398, 88.43995
804.9219, 88.02287
805.4041, 87.76763
805.8862, 88.13293
806.3683, 88.84150
806.8504, 88.59784
807.3325, 87.16579
807.8146, 85.92635
808.2968, 85.40788
808.7789, 85.39645
809.2610, 85.56524
809.7431, 85.85410
810.2252, 86.01697
810.7073, 85.88239
811.1895, 85.62103
811.6716, 85.33398
812.1537, 85.01004
812.6358, 84.59557
813.1179, 83.99409
813.6000, 83.41097
814.0822, 82.81631
814.5643, 82.29328
815.0464, 82.29704
815.5285, 82.84263
816.0106, 83.07112
816.4927, 82.31928
816.9749, 81.37775
817.4570, 81.73771
817.9391, 82.93452
818.4212, 83.63934
818.9033, 82.66737
819.3854, 81.68263
819.8676, 81.42987
820.3497, 81.72044
820.8318, 81.87079
821.3139, 81.88033
821.7960, 81.72603
822.2781, 81.32413
822.7603, 80.82751
823.2424, 80.66406
823.7245, 80.77151
824.2066, 80.74356
824.6887, 80.27720
825.1708, 79.77947
825.6530, 79.70157
826.1351, 79.86866
826.6172, 79.89398
827.0993, 79.31309
827.5814, 79.02699
828.0635, 79.38139
828.5457, 80.05158
829.0278, 80.37109
829.5099, 80.30680
829.9920, 80.10066
830.4741, 79.80907
830.9562, 79.41125
831.4384, 78.60938
831.9205, 77.67311
832.4026, 77.32060
832.8847, 78.34409
833.3668, 79.23982
833.8489, 78.98045
834.3311, 78.15532
834.8132, 77.79395
835.2953, 78.24332
835.7774, 78.59786
836.2595, 78.77635
836.7416, 78.80489
837.2238, 78.66306
837.7059, 78.37511
838.1880, 78.18833
838.6701, 78.17151
839.1522, 78.22473
839.6343, 78.31901
840.1165, 78.39386
840.5986, 78.36617
841.0807, 78.25420
841.5628, 77.96402
842.0449, 77.26802
842.5270, 76.53275
843.0092, 76.16055
843.4913, 76.23195
843.9734, 76.20116
844.4555, 75.99966
844.9376, 75.76720
845.4197, 75.69998
845.9019, 75.72063
846.3840, 75.63805
846.8661, 75.38069
847.3482, 75.19667
847.8303, 75.25164
848.3124, 75.42864
848.7946, 75.62843
849.2767, 75.83804
849.7588, 76.11425
850.2409, 76.58994
850.7230, 76.87983
851.2051, 76.46440
851.6873, 75.49211
852.1694, 74.97643
852.6515, 74.99370
853.1336, 75.08214
853.6157, 74.71262
854.0978, 74.32008
854.5800, 74.40882
855.0621, 75.11034
855.5442, 75.62663
856.0263, 75.74187
856.5084, 75.68456
856.9905, 75.52445
857.4727, 75.26289
857.9548, 75.08596
858.4369, 75.01003
858.9190, 74.84019
859.4011, 74.32205
859.8832, 73.67608
860.3654, 73.20769
860.8475, 72.93323
861.3296, 72.87227
861.8117, 73.46878
862.2938, 73.86834
862.7759, 73.36098
863.2581, 72.14253
863.7402, 71.77502
864.2223, 72.50627
864.7044, 73.27361
865.1865, 73.72049
865.6686, 73.84036
866.1508, 73.40792
866.6329, 72.56206
867.1150, 71.92110
867.5971, 71.85875
868.0792, 72.04860
868.5613, 72.52089
869.0435, 73.10569
869.5256, 73.23859
870.0077, 72.56134
870.4898, 72.03496
870.9719, 71.84754
871.4540, 71.89145
871.9362, 72.01549
872.4183, 72.18952
872.9004, 72.15469
873.3825, 71.76865
873.8646, 71.28041
874.3467, 70.86790
874.8289, 70.53038
875.3110, 70.27250
875.7931, 70.13950
876.2752, 70.02613
876.7573, 69.82793
877.2394, 69.72551
877.7216, 70.06831
878.2037, 70.90585
878.6858, 71.19076
879.1679, 70.71805
879.6500, 70.10062
880.1321, 69.93815
880.6143, 70.08408
881.0964, 70.41887
881.5785, 71.03219
882.0606, 71.29938
882.5427, 70.65204
883.0248, 69.85139
883.5070, 69.46114
883.9891, 69.58751
884.4712, 69.40221
884.9533, 68.83420
885.4354, 68.32276
885.9175, 68.30113
886.3997, 68.55718
886.8818, 68.64008
887.3639, 68.54668
887.8460, 68.50264
888.3281, 68.95347
888.8102, 69.19646
889.2924, 68.60561
889.7745, 67.26524
890.2566, 66.59489
890.7387, 66.82598
891.2208, 67.02229
891.7029, 66.63840
892.1851, 66.05689
892.6672, 66.42464
893.1493, 67.54445
893.6314, 68.55093
894.1135, 69.16508
894.5956, 69.39080
895.0778, 69.09423
895.5599, 68.41817
896.0420, 67.69347
896.5241, 66.66474
897.0062, 66.20884
897.4883, 66.67216
897.9705, 67.48408
898.4526, 67.52874
898.9347, 66.96953
899.4168, 66.60332
899.8989, 66.72769
900.3810, 66.78407
900.8632, 66.16783
901.3453, 65.30907
901.8274, 64.67076
902.3095, 64.20189
902.7916, 64.37930
903.2737, 65.75328
903.7559, 66.95194
904.2380, 66.29665
904.7201, 64.08080
905.2022, 63.38990
905.6843, 64.43916
906.1664, 65.64585
906.6486, 65.73770
907.1307, 65.37440
907.6128, 65.16393
908.0949, 65.18401
908.5770, 65.00539
909.0591, 64.32167
909.5413, 63.78768
910.0234, 63.72876
910.5055, 64.05403
910.9876, 64.24501
911.4697, 64.30011
911.9518, 64.18253
912.4340, 63.71167
912.9161, 63.18303
913.3982, 62.90917
913.8803, 62.82720
914.3624, 62.76550
914.8445, 62.55880
915.3267, 62.53796
915.8088, 62.84701
916.2909, 63.30215
916.7730, 63.54727
917.2551, 63.58495
917.7372, 63.54417
918.2194, 63.47208
918.7015, 63.27508
919.1836, 62.58883
919.6657, 61.81775
920.1478, 61.57510
920.6299, 62.41695
921.1121, 62.86476
921.5942, 62.47387
922.0763, 61.90181
922.5584, 61.71726
923.0405, 61.94271
923.5226, 61.77631
924.0048, 61.16822
924.4869, 60.66584
924.9690, 60.79060
925.4511, 61.21235
925.9332, 61.63555
926.4153, 62.02725
926.8975, 62.24648
927.3796, 62.22390
927.8617, 62.02876
928.3438, 61.56910
928.8259, 60.95571
929.3080, 60.86015
929.7902, 61.27005
930.2723, 61.52818
930.7544, 61.22575
931.2365, 60.76585
931.7186, 60.55039
932.2007, 60.54083
932.6829, 60.65717
933.1650, 61.08221
933.6471, 61.35554
934.1292, 61.39484
934.6113, 61.28454
935.0934, 61.15237
935.5756, 60.99629
936.0577, 60.63491
936.5398, 60.00227
937.0219, 59.46694
937.5040, 59.50225
937.9861, 59.78923
938.4683, 59.97864
938.9504, 60.01212
939.4325, 59.95203
939.9146, 59.74826
940.3967, 59.53709
940.8788, 59.41691
941.3610, 59.36995
941.8431, 59.08605
942.3252, 58.57549
942.8073, 58.20065
943.2894, 58.28278
943.7715, 58.53486
944.2537, 58.72071
944.7358, 58.85541
945.2179, 59.02001
945.7000, 59.40351
946.1821, 59.56249
946.6642, 59.34074
947.1464, 58.92736
947.6285, 58.76954
948.1106, 58.81783
948.5927, 58.68638
949.0748, 58.24506
949.5569, 57.71017
950.0391, 57.00291
950.5212, 56.44307
951.0033, 56.44825
951.4854, 57.44774
951.9675, 58.18597
952.4496, 58.60841
952.9318, 58.83071
953.4139, 58.87558
953.8960, 58.78133
954.3781, 58.80359
954.8602, 58.93615
955.3423, 59.00983
955.8245, 58.96245
956.3066, 58.77129
956.7887, 58.30898
957.2708, 57.63569
957.7529, 57.21808
958.2350, 57.13046
958.7172, 57.14453
959.1993, 57.19743
959.6814, 57.31734
960.1635, 57.62608
960.6456, 58.05719
961.1277, 58.41218
961.6099, 58.70083
962.0920, 58.74475
962.5741, 58.25624
963.0562, 57.56804
963.5383, 57.06576
964.0204, 56.80329
964.5026, 56.59531
964.9847, 56.44578
965.4668, 56.33900
965.9489, 56.23182
966.4310, 56.16729
966.9131, 56.23197
967.3953, 56.42881
967.8774, 56.72514
968.3595, 57.49732
968.8416, 57.95640
969.3237, 57.45147
969.8058, 56.28984
970.2880, 55.91375
970.7701, 56.40877
971.2522, 56.96728
971.7343, 57.37809
972.2164, 57.61404
972.6985, 57.59161
973.1807, 57.37832
973.6628, 57.09823
974.1449, 56.63140
974.6270, 56.35997
975.1091, 56.48094
975.5912, 56.70288
976.0734, 56.78055
976.5555, 56.71369
977.0376, 56.50999
977.5197, 56.16309
978.0018, 55.87542
978.4839, 55.82682
978.9661, 55.90867
979.4482, 56.04044
979.9303, 56.21144
980.4124, 56.35783
980.8945, 56.44473
981.3766, 56.56903
981.8588, 56.84896
982.3409, 57.11846
982.8230, 56.74534
983.3051, 55.87589
983.7872, 55.28361
984.2693, 55.29425
984.7515, 55.56328
985.2336, 56.12887
985.7157, 56.68716
986.1978, 56.78310
986.6799, 55.95517
987.1620, 55.76185
987.6442, 56.38889
988.1263, 57.13296
988.6084, 57.34870
989.0905, 57.19621
989.5726, 57.00883
990.0547, 56.81329
990.5369, 56.67295
991.0190, 56.76429
991.5011, 56.77201
991.9832, 56.47477
992.4653, 55.97625
992.9474, 55.62069
993.4296, 55.42361
993.9117, 55.23225
994.3938, 54.94865
994.8759, 54.77060
995.3580, 55.07415
995.8401, 55.62926
996.3223, 56.06669
996.8044, 56.20792
997.2865, 56.42155
997.7686, 56.84102
998.2507, 57.25454
998.7328, 57.56426
999.2150, 57.75828
999.6971, 57.55657
1000.179, 56.96962
1000.661, 56.25703
1001.143, 55.17716
1001.626, 54.40826
1002.108, 54.82800
1002.590, 56.11723
1003.072, 56.59400
1003.554, 55.76734
1004.036, 55.11887
1004.518, 55.02207
1005.000, 55.10734
1005.482, 54.55925
1005.965, 53.69928
1006.447, 53.47960
1006.929, 54.29657
1007.411, 55.04216
1007.893, 55.11026
1008.375, 54.94867
1008.857, 54.87853
1009.339, 54.90209
1009.822, 55.01753
1010.304, 55.23076
1010.786, 55.46450
1011.268, 55.66911
1011.750, 55.86147
1012.232, 56.02420
1012.714, 56.19178
1013.196, 56.46392
1013.678, 57.38129
1014.161, 57.63793
1014.643, 56.73848
1015.125, 55.48554
1015.607, 55.02884
1016.089, 55.28104
1016.571, 55.84681
1017.053, 56.72161
1017.535, 57.29179
1018.018, 56.80302
1018.500, 56.04218
1018.982, 55.60411
1019.464, 55.53660
1019.946, 55.58321
1020.428, 55.79944
1020.910, 55.92972
1021.392, 55.86866
1021.874, 55.64977
1022.357, 55.02719
1022.839, 54.32362
1023.321, 54.32848
1023.803, 56.22542
1024.285, 57.56136
1024.767, 57.32903
1025.249, 56.63734
1025.731, 56.60169
1026.214, 57.23329
1026.696, 57.19115
1027.178, 56.39226
1027.660, 55.68457
1028.142, 55.81328
1028.624, 56.25410
1029.106, 56.65448
1029.588, 56.96813
1030.070, 57.07407
1030.553, 56.92496
1031.035, 56.66192
1031.517, 56.22531
1031.999, 55.84807
1032.481, 56.14848
1032.963, 56.82133
1033.445, 57.00343
1033.927, 56.28757
1034.410, 55.81184
1034.892, 56.31937
1035.374, 57.05908
1035.856, 57.52943
1036.338, 57.72868
1036.820, 57.91955
1037.302, 58.10579
1037.784, 57.96255
1038.266, 56.72724
1038.749, 55.53710
1039.231, 55.90960
1039.713, 57.20508
1040.195, 57.85445
1040.677, 57.02665
1041.159, 56.54653
1041.641, 56.68519
1042.123, 56.96629
1042.605, 56.67103
1043.088, 56.06013
1043.570, 56.02266
1044.052, 56.64980
1044.534, 57.02520
1045.016, 56.16740
1045.498, 55.43583
1045.980, 55.74438
1046.462, 56.77078
1046.945, 56.88973
1047.427, 56.06120
1047.909, 55.54153
1048.391, 55.82204
1048.873, 56.39365
1049.355, 56.92715
1049.837, 57.32665
1050.319, 57.43406
1050.802, 56.98001
1051.284, 56.83254
1051.766, 57.14597
1052.248, 57.44292
1052.730, 57.25965
1053.212, 56.80968
1053.694, 56.94249
1054.176, 57.48519
1054.658, 57.63258
1055.141, 56.49084
1055.623, 55.45898
1056.105, 54.91683
1056.587, 54.84583
1057.069, 55.50026
1057.551, 56.92274
1058.033, 57.40536
1058.515, 56.64825
1058.997, 55.74279
1059.480, 55.66206
1059.962, 55.90532
1060.444, 55.96965
1060.926, 55.81593
1061.408, 56.02003
1061.890, 56.82153
1062.372, 57.35757
1062.854, 57.25530
1063.337, 56.84461
1063.819, 56.68446
1064.301, 56.71537
1064.783, 56.82712
1065.265, 57.05027
1065.747, 57.19769
1066.229, 57.19985
1066.711, 57.11788
1067.193, 56.95860
1067.676, 56.73016
1068.158, 56.57747
1068.640, 56.49755
1069.122, 56.45536
1069.604, 56.45961
1070.086, 56.46268
1070.568, 56.33499
1071.050, 56.20820
1071.532, 56.41975
1072.015, 57.20530
1072.497, 57.43045
1072.979, 56.86846
1073.461, 56.25224
1073.943, 56.42943
1074.425, 57.00484
1074.907, 57.54769
1075.389, 57.99611
1075.872, 58.08119
1076.354, 57.39289
1076.836, 56.81607
1077.318, 56.59302
1077.800, 56.62409
1078.282, 56.68689
1078.764, 56.80305
1079.246, 57.07692
1079.729, 57.58835
1080.211, 58.07405
1080.693, 58.45911
1081.175, 58.69703
1081.657, 58.73325
1082.139, 58.56918
1082.621, 58.50330
1083.103, 58.53967
1083.585, 58.39794
1084.068, 57.64260
1084.550, 56.94335
1085.032, 57.18251
1085.514, 57.87635
1085.996, 58.11918
1086.478, 57.41738
1086.960, 57.16726
1087.442, 57.51008
1087.924, 57.99836
1088.406, 58.30898
1088.889, 58.43203
1089.371, 58.19741
1089.853, 57.69365
1090.335, 57.49347
1090.817, 58.30595
1091.299, 58.77823
1091.781, 58.42777
1092.263, 57.75743
1092.746, 57.78896
1093.228, 58.34922
1093.710, 58.57072
1094.192, 58.27352
1094.674, 57.94242
1095.156, 57.65085
1095.638, 57.65929
1096.120, 58.40241
1096.603, 59.67860
1097.085, 59.87699
1097.567, 58.94463
1098.049, 58.34330
1098.531, 58.83736
1099.013, 59.38285
1099.495, 58.53640
1099.977, 57.24939
1100.459, 56.78056
1100.942, 57.61187
1101.424, 58.42110
1101.906, 59.29123
1102.388, 59.87261
1102.870, 59.78160
1103.352, 59.34149
1103.834, 59.09356
1104.316, 59.02479
1104.798, 59.10521
1105.281, 59.53961
1105.763, 59.81438
1106.245, 59.83543
1106.727, 59.72502
1107.209, 59.48363
1107.691, 59.21651
1108.173, 59.55490
1108.655, 60.47562
1109.138, 61.12484
1109.620, 60.74458
1110.102, 60.28463
1110.584, 60.20229
1111.066, 60.34068
1111.548, 60.36593
1112.030, 60.28009
1112.512, 60.19584
1112.995, 60.13161
1113.477, 60.07643
1113.959, 59.90021
1114.441, 59.81978
1114.923, 60.19133
1115.405, 60.98335
1115.887, 61.06685
1116.369, 60.28660
1116.851, 59.66790
1117.333, 59.57505
1117.816, 59.80333
1118.298, 60.29564
1118.780, 60.84231
1119.262, 61.12911
1119.744, 61.01224
1120.226, 60.82745
1120.708, 60.50593
1121.190, 60.33812
1121.673, 60.73812
1122.155, 61.26879
1122.637, 60.49641
1123.119, 58.97681
1123.601, 58.24495
1124.083, 59.59116
1124.565, 60.85059
1125.047, 61.92110
1125.530, 62.49119
1126.012, 61.96655
1126.494, 60.62885
1126.976, 60.05717
1127.458, 60.24195
1127.940, 60.65129
1128.422, 61.21058
1128.904, 61.67194
1129.386, 61.85046
1129.869, 61.90852
1130.351, 62.13907
1130.833, 62.53475
1131.315, 62.63891
1131.797, 62.38389
1132.279, 62.09304
1132.761, 62.07134
1133.243, 62.06733
1133.725, 61.82090
1134.208, 61.41336
1134.690, 61.29621
1135.172, 61.51918
1135.654, 61.64124
1136.136, 61.52745
1136.618, 61.40334
1137.100, 61.61235
1137.582, 61.88905
1138.065, 61.87318
1138.547, 61.45229
1139.029, 61.47062
1139.511, 62.17424
1139.993, 62.46999
1140.475, 61.74097
1140.957, 60.67288
1141.439, 60.27576
1141.922, 60.33760
1142.404, 60.49985
1142.886, 60.70297
1143.368, 60.97820
1143.850, 61.48891
1144.332, 61.70176
1144.814, 61.01793
1145.296, 59.93658
1145.778, 59.86588
1146.260, 60.50816
1146.743, 60.99170
1147.225, 60.56394
1147.707, 60.55980
1148.189, 61.55653
1148.671, 62.50074
1149.153, 62.37764
1149.635, 61.38634
1150.117, 60.15447
1150.600, 58.83807
1151.082, 58.32712
1151.564, 60.15831
1152.046, 61.54320
1152.528, 61.13830
1153.010, 60.03328
1153.492, 59.62962
1153.974, 59.87579
1154.457, 60.25341
1154.939, 60.71108
1155.421, 61.09868
1155.903, 61.40351
1156.385, 61.51807
1156.867, 61.20091
1157.349, 60.68994
1157.831, 60.56429
1158.313, 60.83154
1158.796, 60.90235
1159.278, 60.66641
1159.760, 60.32256
1160.242, 59.76962
1160.724, 59.39886
1161.206, 59.69596
1161.688, 60.54515
1162.170, 61.07478
1162.652, 61.29069
1163.135, 61.06151
1163.617, 60.16740
1164.099, 59.43482
1164.581, 59.99771
1165.063, 61.00112
1165.545, 61.56882
1166.027, 61.57932
1166.509, 61.27155
1166.992, 60.54921
1167.474, 60.06876
1167.956, 60.24545
1168.438, 60.52129
1168.920, 60.00531
1169.402, 59.18994
1169.884, 58.77651
1170.366, 58.99510
1170.849, 59.40485
1171.331, 60.12450
1171.813, 60.61693
1172.295, 60.48685
1172.777, 60.04166
1173.259, 59.57678
1173.741, 59.22274
1174.223, 59.26222
1174.705, 60.36286
1175.188, 60.76360
1175.670, 60.27895
1176.152, 59.53935
1176.634, 58.61472
1177.116, 57.96014
1177.598, 58.91427
1178.080, 60.91219
1178.562, 62.23666
1179.044, 61.86113
1179.527, 61.47109
1180.009, 61.23199
1180.491, 60.94408
1180.973, 60.32696
1181.455, 59.54081
1181.937, 58.90583
1182.419, 58.45152
1182.901, 58.22914
1183.384, 58.38894
1183.866, 58.63708
1184.348, 58.96772
1184.830, 59.29322
1185.312, 59.52854
1185.794, 59.66622
1186.276, 59.59879
1186.758, 59.35405
1187.240, 59.29987
1187.723, 60.01722
1188.205, 60.33964
1188.687, 59.82829
1189.169, 59.01752
1189.651, 58.85002
1190.133, 59.10806
1190.615, 59.07668
1191.097, 58.66067
1191.579, 58.37819
1192.062, 58.52097
1192.544, 58.78840
1193.026, 59.19050
1193.508, 59.53925
1193.990, 59.28631
1194.472, 58.62165
1194.954, 58.21774
1195.436, 58.20971
1195.919, 58.32755
1196.401, 58.62119
1196.883, 58.80833
1197.365, 58.73473
1197.847, 58.50529
1198.329, 58.40814
1198.811, 58.42249
1199.293, 58.50703
1199.776, 58.70995
1200.258, 58.70469
1200.740, 57.96886
1201.222, 57.40217
1201.704, 57.59549
1202.186, 58.25350
1202.668, 58.05000
1203.150, 57.22963
1203.632, 56.80053
1204.115, 57.20512
1204.597, 57.67760
1205.079, 57.89541
1205.561, 58.04889
1206.043, 58.26028
1206.525, 58.49559
1207.007, 58.59755
1207.489, 58.55830
1207.971, 58.33091
1208.454, 57.80474
1208.936, 57.27657
1209.418, 56.68040
1209.900, 56.33207
1210.382, 56.55840
1210.864, 57.24159
1211.346, 57.53205
1211.828, 57.50209
1212.311, 57.49757
1212.793, 57.80265
1213.275, 57.96276
1213.757, 57.83447
1214.239, 57.46585
1214.721, 56.64817
1215.203, 55.54163
1215.685, 55.67698
1216.167, 56.79403
1216.650, 57.50463
1217.132, 56.46424
1217.614, 55.78172
1218.096, 56.51168
1218.578, 57.43706
1219.060, 57.34209
1219.542, 56.44046
1220.024, 56.31518
1220.506, 56.84121
1220.989, 57.16357
1221.471, 56.53340
1221.953, 56.07051
1222.435, 56.10006
1222.917, 56.40708
1223.399, 56.83087
1223.881, 57.35419
1224.363, 58.05798
1224.846, 58.84163
1225.328, 59.07986
1225.810, 57.69471
1226.292, 56.79877
1226.774, 57.19322
1227.256, 57.85487
1227.738, 57.34241
1228.220, 56.09565
1228.703, 55.90493
1229.185, 56.67784
1229.667, 57.10771
1230.149, 55.85203
1230.631, 55.26545
1231.113, 56.14497
1231.595, 57.42794
1232.077, 57.79165
1232.559, 57.45931
1233.042, 56.87552
1233.524, 56.13628
1234.006, 55.68215
1234.488, 55.84385
1234.970, 56.16372
1235.452, 56.66590
1235.934, 57.07844
1236.416, 56.82491
1236.898, 56.26758
1237.381, 56.33682
1237.863, 57.02441
1238.345, 57.48256
1238.827, 57.32192
1239.309, 57.04961
1239.791, 56.70713
1240.273, 56.36539
1240.755, 56.02530
1241.238, 55.78840
1241.720, 55.96960
1242.202, 56.53982
1242.684, 56.82243
1243.166, 56.55516
1243.648, 56.27417
1244.130, 56.06890
1244.612, 55.90292
1245.094, 55.75434
1245.577, 55.59406
1246.059, 55.31805
1246.541, 54.93804
1247.023, 54.82090
1247.505, 55.11826
1247.987, 55.26005
1248.469, 55.06570
1248.951, 54.89629
1249.433, 55.27676
1249.916, 55.88988
1250.398, 56.51316
1250.880, 57.05980
1251.362, 56.90998
1251.844, 55.78365
1252.326, 55.22524
1252.808, 55.66010
1253.290, 56.39590
1253.773, 56.88503
1254.255, 57.14518
1254.737, 57.10748
1255.219, 56.81210
1255.701, 56.76363
1256.183, 57.05464
1256.665, 56.61584
1257.147, 55.03360
1257.630, 53.66177
1258.112, 53.93711
1258.594, 54.81825
1259.076, 55.50005
1259.558, 56.00581
1260.040, 56.76644
1260.522, 57.76492
1261.004, 57.85582
1261.486, 56.65302
1261.969, 55.44563
1262.451, 55.23134
1262.933, 55.33926
1263.415, 55.39808
1263.897, 55.38677
1264.379, 55.24508
1264.861, 54.98778
1265.343, 54.67482
1265.825, 54.28739
1266.308, 54.12753
1266.790, 54.67396
1267.272, 55.14885
1267.754, 55.10181
1268.236, 54.78622
1268.718, 54.92205
1269.200, 55.36973
1269.682, 55.63460
1270.165, 55.62065
1270.647, 55.44987
1271.129, 54.86266
1271.611, 54.54033
1272.093, 54.77209
1272.575, 55.29287
1273.057, 55.59263
1273.539, 55.76495
1274.021, 56.09399
1274.504, 56.67290
1274.986, 56.80152
1275.468, 56.11238
1275.950, 55.49193
1276.432, 55.13733
1276.914, 55.10934
1277.396, 55.68702
1277.878, 56.55903
1278.360, 57.39696
1278.843, 58.15261
1279.325, 58.10630
1279.807, 56.99624
1280.289, 56.00895
1280.771, 55.43674
1281.253, 55.19505
1281.735, 55.28265
1282.217, 55.56795
1282.700, 56.05363
1283.182, 56.67751
1283.664, 56.62123
1284.146, 55.79951
1284.628, 55.31502
1285.110, 55.49630
1285.592, 55.78246
1286.074, 55.57258
1286.557, 55.35614
1287.039, 55.63165
1287.521, 56.21763
1288.003, 56.46619
1288.485, 56.38508
1288.967, 55.95726
1289.449, 55.10919
1289.931, 54.54722
1290.413, 54.96821
1290.896, 55.51849
1291.378, 55.79646
1291.860, 55.88215
1292.342, 55.88279
1292.824, 55.86437
1293.306, 56.16216
1293.788, 56.87111
1294.270, 57.24800
1294.752, 56.69066
1295.235, 56.13074
1295.717, 55.77821
1296.199, 55.60431
1296.681, 55.58323
1297.163, 55.70118
1297.645, 56.02644
1298.127, 56.56384
1298.609, 56.76586
1299.092, 56.42662
1299.574, 56.17242
1300.056, 56.13540
1300.538, 56.27514
1301.020, 56.82358
1301.502, 57.32892
1301.984, 57.15846
1302.466, 56.33757
1302.948, 55.71496
1303.431, 55.28495
1303.913, 55.15089
1304.395, 55.33689
1304.877, 55.80904
##END=



