##NAMES=Magnesio-hastingsite
##RRUFFID=R070288
##IDEAL CHEMISTRY=NaCa_2_(Mg_4_Fe^3+^)Si_6_Al_2_O_22_(OH)_2_
##LOCALITY=Dallas Gem Mine (Gem Mine; Benitoite Mine), New Idria District, San Benito County, California, USA
##OWNER=RRUFF
##SOURCE=Michael Scott
##DESCRIPTION=Dark brown to black prismatic crystals frozen in albite
##STATUS=The identification of this mineral is confirmed by single-crystal X-ray diffraction and chemical analysis.
##URL=rruff.info/R070288
##MEASURED CHEMISTRY=(Na_0.51_[box]_0.33_K_0.16_)_Σ=1_(Ca_1.75_Na_0.25_)_Σ=2_(Mg_3.02_Fe^2+^_0.61_Ti_0.37_)_Σ=4_(Fe^3+^_0.73_Al_0.27_)_Σ=1_Si_5.84_Al_2.16_O_22_(OH)_2_; (OH) estimated by difference
154.4830, 1750.708
154.9651, 1804.810
155.4472, 1839.820
155.9293, 1846.358
156.4115, 1844.587
156.8936, 1829.049
157.3757, 1805.863
157.8578, 1795.868
158.3399, 1816.085
158.8221, 1845.094
159.3042, 1869.127
159.7863, 1884.047
160.2684, 1894.349
160.7505, 1899.892
161.2326, 1901.226
161.7148, 1902.189
162.1969, 1904.971
162.6790, 1907.956
163.1611, 1909.555
163.6432, 1910.045
164.1253, 1908.418
164.6075, 1903.851
165.0896, 1896.304
165.5717, 1887.188
166.0538, 1869.579
166.5359, 1852.263
167.0180, 1847.621
167.5002, 1875.849
167.9823, 1909.188
168.4644, 1924.309
168.9465, 1917.207
169.4286, 1907.909
169.9107, 1915.261
170.3929, 1931.386
170.8750, 1939.871
171.3571, 1922.818
171.8392, 1897.894
172.3213, 1885.711
172.8034, 1892.042
173.2856, 1900.969
173.7677, 1894.596
174.2498, 1877.402
174.7319, 1864.863
175.2140, 1868.571
175.6961, 1882.264
176.1783, 1897.391
176.6604, 1913.857
177.1425, 1928.384
177.6246, 1936.909
178.1067, 1939.660
178.5888, 1938.629
179.0710, 1933.816
179.5531, 1926.278
180.0352, 1918.034
180.5173, 1908.513
180.9994, 1899.686
181.4815, 1894.799
181.9637, 1893.782
182.4458, 1895.792
182.9279, 1902.632
183.4100, 1912.588
183.8921, 1919.190
184.3742, 1919.333
184.8564, 1915.501
185.3385, 1912.592
185.8206, 1910.482
186.3027, 1910.521
186.7848, 1916.637
187.2669, 1927.626
187.7491, 1934.573
188.2312, 1933.362
188.7133, 1925.674
189.1954, 1916.088
189.6775, 1903.818
190.1596, 1893.493
190.6418, 1894.560
191.1239, 1906.575
191.6060, 1912.159
192.0881, 1900.227
192.5702, 1873.300
193.0524, 1853.143
193.5345, 1840.061
194.0166, 1833.007
194.4987, 1832.693
194.9808, 1839.608
195.4629, 1845.880
195.9451, 1848.175
196.4272, 1846.558
196.9093, 1841.241
197.3914, 1830.464
197.8735, 1818.763
198.3556, 1816.306
198.8378, 1824.641
199.3199, 1832.407
199.8020, 1832.595
200.2841, 1824.597
200.7662, 1818.194
201.2483, 1814.215
201.7305, 1811.886
202.2126, 1809.140
202.6947, 1805.657
203.1768, 1802.953
203.6589, 1802.653
204.1410, 1805.395
204.6232, 1805.947
205.1053, 1803.483
205.5874, 1798.694
206.0695, 1792.121
206.5516, 1781.030
207.0337, 1775.339
207.5159, 1785.923
207.9980, 1818.384
208.4801, 1838.850
208.9622, 1839.930
209.4443, 1825.912
209.9264, 1817.268
210.4086, 1814.286
210.8907, 1816.126
211.3728, 1824.295
211.8549, 1842.849
212.3370, 1853.431
212.8191, 1850.142
213.3013, 1835.430
213.7834, 1830.323
214.2655, 1837.821
214.7476, 1850.147
215.2297, 1861.393
215.7118, 1872.665
216.1940, 1879.718
216.6761, 1879.855
217.1582, 1873.619
217.6403, 1873.792
218.1224, 1882.875
218.6045, 1895.005
219.0867, 1904.727
219.5688, 1911.302
220.0509, 1916.906
220.5330, 1921.033
221.0151, 1923.633
221.4972, 1930.436
221.9794, 1945.251
222.4615, 1960.089
222.9436, 1965.715
223.4257, 1957.122
223.9078, 1949.719
224.3899, 1948.318
224.8721, 1953.820
225.3542, 1952.698
225.8363, 1941.168
226.3184, 1926.600
226.8005, 1918.190
227.2827, 1920.411
227.7648, 1920.228
228.2469, 1912.967
228.7290, 1896.986
229.2111, 1887.281
229.6932, 1887.216
230.1754, 1890.810
230.6575, 1889.777
231.1396, 1880.381
231.6217, 1873.033
232.1038, 1871.258
232.5859, 1876.482
233.0681, 1879.746
233.5502, 1881.234
234.0323, 1880.642
234.5144, 1877.284
234.9965, 1870.006
235.4786, 1861.834
235.9608, 1852.503
236.4429, 1840.468
236.9250, 1835.235
237.4071, 1839.619
237.8892, 1849.120
238.3713, 1857.160
238.8535, 1865.064
239.3356, 1869.227
239.8177, 1867.643
240.2998, 1858.250
240.7819, 1851.160
241.2640, 1847.693
241.7462, 1845.646
242.2283, 1840.607
242.7104, 1828.909
243.1925, 1820.280
243.6746, 1818.588
244.1567, 1826.263
244.6389, 1832.767
245.1210, 1838.293
245.6031, 1842.533
246.0852, 1844.781
246.5673, 1844.464
247.0494, 1843.177
247.5316, 1842.297
248.0137, 1843.978
248.4958, 1837.767
248.9779, 1818.266
249.4600, 1793.941
249.9421, 1781.814
250.4243, 1788.194
250.9064, 1795.303
251.3885, 1796.538
251.8706, 1790.012
252.3527, 1783.479
252.8348, 1775.676
253.3170, 1768.642
253.7991, 1767.416
254.2812, 1776.488
254.7633, 1782.762
255.2454, 1780.228
255.7275, 1765.525
256.2097, 1754.665
256.6918, 1748.843
257.1739, 1746.160
257.6560, 1742.664
258.1381, 1736.652
258.6202, 1733.424
259.1024, 1736.987
259.5845, 1751.328
260.0666, 1754.891
260.5487, 1743.196
261.0308, 1724.109
261.5129, 1711.218
261.9951, 1705.472
262.4772, 1703.980
262.9593, 1706.949
263.4414, 1716.157
263.9235, 1721.559
264.4056, 1723.147
264.8878, 1720.963
265.3699, 1713.830
265.8520, 1699.116
266.3341, 1686.816
266.8162, 1681.523
267.2983, 1684.622
267.7805, 1686.051
268.2626, 1685.273
268.7447, 1683.400
269.2268, 1683.318
269.7089, 1686.600
270.1910, 1685.940
270.6732, 1675.389
271.1553, 1652.852
271.6374, 1642.477
272.1195, 1646.726
272.6016, 1659.538
273.0837, 1672.133
273.5659, 1684.914
274.0480, 1695.741
274.5301, 1703.558
275.0122, 1708.237
275.4943, 1712.948
275.9764, 1718.646
276.4586, 1722.583
276.9407, 1718.463
277.4228, 1705.016
277.9049, 1695.001
278.3870, 1695.756
278.8691, 1706.574
279.3513, 1710.139
279.8334, 1704.659
280.3155, 1696.530
280.7976, 1694.296
281.2798, 1698.156
281.7619, 1703.781
282.2440, 1710.756
282.7261, 1718.580
283.2082, 1723.166
283.6903, 1724.168
284.1725, 1723.203
284.6546, 1720.600
285.1367, 1716.572
285.6188, 1716.399
286.1009, 1724.629
286.5830, 1738.489
287.0652, 1745.592
287.5473, 1745.285
288.0294, 1741.752
288.5115, 1738.413
288.9936, 1735.400
289.4757, 1733.948
289.9579, 1735.108
290.4400, 1737.950
290.9221, 1739.689
291.4042, 1740.214
291.8863, 1741.037
292.3684, 1741.938
292.8506, 1743.881
293.3327, 1751.776
293.8148, 1774.039
294.2969, 1799.311
294.7790, 1801.822
295.2611, 1781.506
295.7433, 1758.993
296.2254, 1753.034
296.7075, 1759.092
297.1896, 1764.495
297.6717, 1764.946
298.1538, 1763.497
298.6360, 1765.261
299.1181, 1769.952
299.6002, 1774.021
300.0823, 1775.558
300.5644, 1774.482
301.0465, 1769.874
301.5287, 1757.784
302.0108, 1746.735
302.4929, 1748.483
302.9750, 1761.228
303.4571, 1774.540
303.9392, 1780.919
304.4214, 1783.828
304.9035, 1788.863
305.3856, 1800.437
305.8677, 1809.260
306.3498, 1802.853
306.8319, 1785.457
307.3141, 1771.895
307.7962, 1772.761
308.2783, 1780.994
308.7604, 1791.484
309.2425, 1807.027
309.7246, 1815.780
310.2068, 1802.379
310.6889, 1775.276
311.1710, 1756.267
311.6531, 1761.971
312.1352, 1776.047
312.6173, 1786.592
313.0995, 1790.509
313.5816, 1793.992
314.0637, 1799.417
314.5458, 1806.479
315.0279, 1814.627
315.5100, 1828.610
315.9922, 1839.889
316.4743, 1843.201
316.9564, 1836.486
317.4385, 1827.840
317.9206, 1814.474
318.4027, 1802.006
318.8849, 1798.284
319.3670, 1816.564
319.8491, 1834.143
320.3312, 1841.828
320.8133, 1837.364
321.2954, 1832.696
321.7776, 1829.477
322.2597, 1827.420
322.7418, 1826.214
323.2239, 1825.538
323.7060, 1825.988
324.1881, 1828.638
324.6703, 1833.866
325.1524, 1836.682
325.6345, 1833.614
326.1166, 1829.631
326.5987, 1828.743
327.0808, 1835.796
327.5630, 1840.218
328.0451, 1838.718
328.5272, 1831.778
329.0093, 1830.453
329.4914, 1842.932
329.9735, 1853.649
330.4557, 1851.144
330.9378, 1821.085
331.4199, 1803.276
331.9020, 1805.966
332.3841, 1824.073
332.8662, 1831.824
333.3484, 1822.282
333.8305, 1812.793
334.3126, 1814.845
334.7947, 1835.668
335.2768, 1844.798
335.7589, 1836.500
336.2411, 1818.006
336.7232, 1807.396
337.2053, 1806.489
337.6874, 1808.403
338.1695, 1810.822
338.6516, 1814.053
339.1338, 1813.804
339.6159, 1807.835
340.0980, 1801.823
340.5801, 1807.770
341.0622, 1827.332
341.5443, 1844.208
342.0265, 1850.813
342.5086, 1848.221
342.9907, 1847.156
343.4728, 1847.980
343.9549, 1848.937
344.4370, 1847.381
344.9192, 1843.617
345.4013, 1840.434
345.8834, 1838.431
346.3655, 1837.848
346.8476, 1839.362
347.3297, 1842.954
347.8119, 1848.655
348.2940, 1860.266
348.7761, 1874.519
349.2582, 1880.870
349.7403, 1872.678
350.2225, 1859.168
350.7046, 1853.605
351.1867, 1855.161
351.6688, 1857.840
352.1509, 1857.075
352.6331, 1854.728
353.1152, 1853.937
353.5973, 1856.575
354.0794, 1858.709
354.5615, 1852.599
355.0436, 1842.188
355.5258, 1839.467
356.0079, 1861.175
356.4900, 1887.830
356.9721, 1901.260
357.4542, 1895.416
357.9363, 1887.414
358.4185, 1888.160
358.9006, 1893.104
359.3827, 1894.375
359.8648, 1880.164
360.3469, 1868.416
360.8290, 1871.731
361.3112, 1893.993
361.7933, 1910.428
362.2754, 1905.260
362.7575, 1893.284
363.2396, 1890.575
363.7217, 1912.243
364.2039, 1932.078
364.6860, 1943.300
365.1681, 1945.686
365.6502, 1945.266
366.1323, 1940.243
366.6144, 1934.157
367.0966, 1929.402
367.5787, 1923.698
368.0608, 1922.339
368.5429, 1927.582
369.0250, 1938.078
369.5071, 1947.115
369.9893, 1957.033
370.4714, 1962.785
370.9535, 1960.431
371.4356, 1942.033
371.9177, 1934.430
372.3998, 1943.017
372.8820, 1960.021
373.3641, 1967.042
373.8462, 1959.666
374.3283, 1953.788
374.8104, 1957.014
375.2925, 1970.540
375.7747, 1979.853
376.2568, 1985.386
376.7389, 1986.021
377.2210, 1977.462
377.7031, 1958.781
378.1852, 1944.388
378.6674, 1939.395
379.1495, 1942.142
379.6316, 1945.437
380.1137, 1949.130
380.5958, 1954.482
381.0779, 1966.327
381.5601, 1982.235
382.0422, 1988.520
382.5243, 1978.903
383.0064, 1962.603
383.4885, 1955.291
383.9706, 1955.873
384.4528, 1956.781
384.9349, 1950.724
385.4170, 1942.152
385.8991, 1939.367
386.3812, 1945.318
386.8633, 1951.443
387.3455, 1948.194
387.8276, 1938.939
388.3097, 1931.312
388.7918, 1930.061
389.2739, 1931.488
389.7560, 1934.068
390.2382, 1938.078
390.7203, 1938.379
391.2024, 1929.398
391.6845, 1916.164
392.1666, 1904.345
392.6487, 1894.892
393.1309, 1888.146
393.6130, 1885.372
394.0951, 1886.193
394.5772, 1886.734
395.0593, 1884.378
395.5414, 1882.459
396.0236, 1883.104
396.5057, 1893.416
396.9878, 1898.216
397.4699, 1893.013
397.9520, 1880.835
398.4341, 1871.104
398.9163, 1860.729
399.3984, 1856.108
399.8805, 1861.677
400.3626, 1884.797
400.8447, 1895.458
401.3268, 1886.888
401.8090, 1870.847
402.2911, 1864.234
402.7732, 1870.587
403.2553, 1877.342
403.7374, 1881.397
404.2195, 1882.868
404.7017, 1883.240
405.1838, 1881.712
405.6659, 1881.281
406.1480, 1885.766
406.6301, 1895.284
407.1122, 1902.993
407.5944, 1908.097
408.0765, 1910.240
408.5586, 1907.036
409.0407, 1898.586
409.5228, 1890.627
410.0049, 1887.964
410.4871, 1888.805
410.9692, 1887.719
411.4513, 1883.698
411.9334, 1879.603
412.4155, 1878.326
412.8976, 1879.557
413.3798, 1882.362
413.8619, 1887.310
414.3440, 1893.052
414.8261, 1899.035
415.3082, 1905.221
415.7903, 1909.247
416.2725, 1906.366
416.7546, 1901.715
417.2367, 1901.225
417.7188, 1911.997
418.2009, 1921.539
418.6830, 1924.021
419.1652, 1920.513
419.6473, 1914.838
420.1294, 1905.477
420.6115, 1896.329
421.0937, 1889.595
421.5758, 1887.091
422.0579, 1884.002
422.5400, 1881.487
423.0221, 1877.658
423.5042, 1869.165
423.9864, 1845.942
424.4685, 1829.393
424.9506, 1826.063
425.4327, 1837.234
425.9148, 1845.981
426.3969, 1852.451
426.8791, 1856.338
427.3612, 1856.878
427.8433, 1853.006
428.3254, 1849.164
428.8075, 1846.088
429.2896, 1843.407
429.7718, 1839.988
430.2539, 1835.818
430.7360, 1830.990
431.2181, 1825.231
431.7002, 1818.647
432.1823, 1812.419
432.6645, 1806.270
433.1466, 1801.584
433.6287, 1802.693
434.1108, 1807.989
434.5929, 1809.262
435.0750, 1800.471
435.5572, 1786.672
436.0393, 1775.367
436.5214, 1766.620
437.0035, 1761.759
437.4856, 1764.585
437.9677, 1771.174
438.4499, 1776.093
438.9320, 1777.653
439.4141, 1777.756
439.8962, 1778.092
440.3783, 1778.056
440.8604, 1776.092
441.3426, 1768.875
441.8247, 1761.560
442.3068, 1757.759
442.7889, 1758.949
443.2710, 1758.388
443.7531, 1750.805
444.2353, 1741.920
444.7174, 1737.930
445.1995, 1748.612
445.6816, 1754.540
446.1637, 1748.835
446.6458, 1733.175
447.1280, 1725.378
447.6101, 1730.202
448.0922, 1737.666
448.5743, 1742.108
449.0564, 1741.631
449.5385, 1743.537
450.0207, 1749.044
450.5028, 1756.059
450.9849, 1760.886
451.4670, 1763.465
451.9491, 1763.840
452.4312, 1760.670
452.9134, 1754.804
453.3955, 1754.203
453.8776, 1759.756
454.3597, 1764.257
454.8418, 1759.206
455.3239, 1746.632
455.8061, 1734.620
456.2882, 1723.497
456.7703, 1715.873
457.2524, 1717.041
457.7345, 1725.463
458.2166, 1734.973
458.6988, 1744.360
459.1809, 1751.619
459.6630, 1753.674
460.1451, 1749.691
460.6272, 1744.597
461.1093, 1739.731
461.5915, 1736.128
462.0736, 1735.198
462.5557, 1742.938
463.0378, 1748.005
463.5199, 1743.361
464.0020, 1730.686
464.4842, 1722.641
464.9663, 1725.160
465.4484, 1730.615
465.9305, 1734.992
466.4126, 1736.877
466.8947, 1740.135
467.3769, 1747.458
467.8590, 1754.973
468.3411, 1755.618
468.8232, 1744.821
469.3053, 1736.417
469.7874, 1735.468
470.2696, 1741.303
470.7517, 1740.393
471.2338, 1730.744
471.7159, 1720.508
472.1980, 1716.631
472.6801, 1719.026
473.1623, 1723.851
473.6444, 1731.042
474.1265, 1739.514
474.6086, 1748.532
475.0907, 1757.701
475.5728, 1764.464
476.0550, 1767.523
476.5371, 1767.291
477.0192, 1762.121
477.5013, 1751.826
477.9834, 1745.023
478.4655, 1751.931
478.9477, 1765.241
479.4298, 1775.547
479.9119, 1782.025
480.3940, 1782.533
480.8761, 1769.471
481.3582, 1748.634
481.8404, 1736.889
482.3225, 1749.521
482.8046, 1764.435
483.2867, 1771.473
483.7688, 1767.735
484.2509, 1763.183
484.7331, 1756.589
485.2152, 1750.631
485.6973, 1747.183
486.1794, 1742.346
486.6615, 1747.573
487.1436, 1770.059
487.6258, 1804.130
488.1079, 1821.656
488.5900, 1818.199
489.0721, 1810.077
489.5542, 1803.941
490.0363, 1799.696
490.5185, 1805.565
491.0006, 1824.780
491.4827, 1843.858
491.9648, 1838.137
492.4470, 1813.421
492.9291, 1802.609
493.4112, 1824.818
493.8933, 1860.311
494.3754, 1877.723
494.8575, 1879.577
495.3397, 1880.715
495.8218, 1893.848
496.3039, 1910.065
496.7860, 1917.405
497.2681, 1910.662
497.7502, 1909.184
498.2324, 1931.471
498.7145, 1962.907
499.1966, 1984.047
499.6787, 1979.633
500.1608, 1973.430
500.6429, 1971.721
501.1251, 1974.539
501.6072, 1979.268
502.0893, 1986.727
502.5714, 1995.214
503.0535, 2003.985
503.5356, 2012.930
504.0178, 2022.120
504.4999, 2030.422
504.9820, 2039.953
505.4641, 2056.638
505.9462, 2083.429
506.4283, 2100.916
506.9105, 2098.562
507.3926, 2083.646
507.8747, 2088.335
508.3568, 2113.745
508.8389, 2138.744
509.3210, 2145.827
509.8032, 2140.637
510.2853, 2139.224
510.7674, 2144.293
511.2495, 2150.148
511.7316, 2149.670
512.2137, 2145.724
512.6959, 2144.147
513.1780, 2148.959
513.6601, 2155.609
514.1422, 2161.834
514.6243, 2167.527
515.1064, 2172.268
515.5886, 2172.640
516.0707, 2174.307
516.5528, 2180.818
517.0349, 2194.152
517.5170, 2209.235
517.9991, 2231.471
518.4813, 2252.819
518.9634, 2262.061
519.4455, 2250.335
519.9276, 2241.750
520.4097, 2241.840
520.8918, 2249.278
521.3740, 2255.710
521.8561, 2261.196
522.3382, 2265.472
522.8203, 2266.150
523.3024, 2263.816
523.7845, 2270.922
524.2667, 2290.524
524.7488, 2310.681
525.2309, 2314.534
525.7130, 2306.429
526.1951, 2301.498
526.6772, 2306.760
527.1594, 2316.038
527.6415, 2324.362
528.1236, 2331.076
528.6057, 2333.386
529.0878, 2321.823
529.5699, 2310.370
530.0521, 2312.549
530.5342, 2334.711
531.0163, 2349.354
531.4984, 2341.145
531.9805, 2323.888
532.4626, 2312.255
532.9448, 2306.868
533.4269, 2309.122
533.9090, 2323.574
534.3911, 2346.260
534.8732, 2361.054
535.3553, 2365.642
535.8375, 2366.807
536.3196, 2365.701
536.8017, 2361.876
537.2838, 2365.626
537.7659, 2378.261
538.2480, 2394.289
538.7302, 2412.981
539.2123, 2432.278
539.6944, 2434.105
540.1765, 2407.565
540.6586, 2374.740
541.1407, 2367.901
541.6229, 2381.551
542.1050, 2395.670
542.5871, 2401.567
543.0692, 2401.796
543.5513, 2396.101
544.0334, 2384.647
544.5156, 2376.109
544.9977, 2375.802
545.4798, 2379.369
545.9619, 2382.953
546.4440, 2378.235
546.9261, 2384.831
547.4083, 2421.655
547.8904, 2468.288
548.3725, 2486.461
548.8546, 2457.955
549.3367, 2430.932
549.8188, 2416.104
550.3010, 2412.904
550.7831, 2417.106
551.2652, 2431.843
551.7473, 2443.536
552.2294, 2440.088
552.7115, 2423.168
553.1937, 2408.456
553.6758, 2396.572
554.1579, 2389.484
554.6400, 2393.268
555.1221, 2404.227
555.6042, 2411.611
556.0864, 2409.548
556.5685, 2404.419
557.0506, 2401.665
557.5327, 2400.889
558.0148, 2400.682
558.4969, 2393.819
558.9791, 2392.270
559.4612, 2410.314
559.9433, 2457.732
560.4254, 2480.542
560.9075, 2445.606
561.3896, 2394.802
561.8718, 2364.855
562.3539, 2367.439
562.8360, 2371.490
563.3181, 2375.977
563.8002, 2379.961
564.2823, 2382.172
564.7645, 2383.602
565.2466, 2378.339
565.7287, 2360.398
566.2108, 2333.599
566.6929, 2318.986
567.1750, 2317.181
567.6572, 2316.145
568.1393, 2303.545
568.6214, 2284.924
569.1035, 2272.588
569.5856, 2269.686
570.0677, 2267.642
570.5499, 2259.142
571.0320, 2246.772
571.5141, 2234.590
571.9962, 2228.276
572.4783, 2218.264
572.9604, 2197.264
573.4426, 2168.043
573.9247, 2144.390
574.4068, 2128.949
574.8889, 2119.571
575.3710, 2117.812
575.8531, 2126.954
576.3353, 2126.362
576.8174, 2113.560
577.2995, 2094.702
577.7816, 2073.136
578.2637, 2048.090
578.7458, 2030.654
579.2280, 2024.121
579.7101, 2022.780
580.1922, 2018.455
580.6743, 2010.916
581.1564, 1998.861
581.6385, 1972.986
582.1207, 1946.874
582.6028, 1945.026
583.0849, 1963.841
583.5670, 1975.002
584.0491, 1951.708
584.5313, 1920.531
585.0134, 1903.306
585.4955, 1908.340
585.9776, 1910.948
586.4597, 1903.090
586.9418, 1890.357
587.4240, 1879.078
587.9061, 1869.433
588.3882, 1861.234
588.8703, 1854.678
589.3524, 1849.495
589.8345, 1846.086
590.3167, 1846.132
590.7988, 1841.018
591.2809, 1822.280
591.7630, 1794.658
592.2451, 1787.097
592.7272, 1800.369
593.2094, 1814.857
593.6915, 1813.357
594.1736, 1801.644
594.6557, 1789.764
595.1378, 1778.948
595.6199, 1770.689
596.1021, 1765.644
596.5842, 1764.059
597.0663, 1766.303
597.5485, 1780.454
598.0306, 1790.010
598.5127, 1785.395
598.9948, 1770.639
599.4769, 1763.512
599.9590, 1772.234
600.4412, 1779.885
600.9233, 1780.123
601.4054, 1772.252
601.8875, 1768.380
602.3696, 1769.688
602.8517, 1772.167
603.3339, 1771.690
603.8160, 1768.653
604.2981, 1768.596
604.7802, 1772.386
605.2623, 1778.370
605.7444, 1789.481
606.2266, 1801.423
606.7087, 1801.454
607.1908, 1767.776
607.6729, 1738.310
608.1550, 1750.586
608.6371, 1793.253
609.1193, 1829.824
609.6014, 1848.433
610.0835, 1854.890
610.5656, 1846.812
611.0477, 1820.976
611.5298, 1806.738
612.0120, 1812.969
612.4941, 1823.142
612.9762, 1825.378
613.4583, 1815.418
613.9404, 1814.040
614.4225, 1825.130
614.9047, 1839.593
615.3868, 1843.611
615.8689, 1837.988
616.3510, 1832.592
616.8331, 1829.134
617.3152, 1828.897
617.7974, 1835.082
618.2795, 1846.560
618.7616, 1859.196
619.2437, 1874.181
619.7258, 1886.817
620.2079, 1892.356
620.6901, 1890.610
621.1722, 1889.429
621.6543, 1891.951
622.1364, 1895.639
622.6185, 1898.838
623.1006, 1901.097
623.5828, 1903.537
624.0649, 1905.177
624.5470, 1907.896
625.0291, 1915.221
625.5112, 1928.854
625.9933, 1937.318
626.4755, 1936.692
626.9576, 1932.203
627.4397, 1935.143
627.9218, 1944.679
628.4039, 1954.437
628.8860, 1962.701
629.3682, 1968.654
629.8503, 1968.599
630.3324, 1963.703
630.8145, 1962.625
631.2966, 1971.238
631.7787, 1984.897
632.2609, 2000.826
632.7430, 2019.096
633.2251, 2037.972
633.7072, 2061.874
634.1893, 2083.042
634.6714, 2094.348
635.1536, 2088.909
635.6357, 2088.703
636.1178, 2095.507
636.5999, 2107.990
637.0820, 2126.762
637.5641, 2152.252
638.0463, 2170.225
638.5284, 2171.813
639.0105, 2166.934
639.4926, 2178.099
639.9747, 2202.579
640.4568, 2224.178
640.9390, 2230.397
641.4211, 2231.204
641.9032, 2237.211
642.3853, 2249.133
642.8674, 2256.240
643.3495, 2241.435
643.8317, 2228.892
644.3138, 2236.655
644.7959, 2283.517
645.2780, 2318.503
645.7601, 2338.148
646.2422, 2348.905
646.7244, 2357.289
647.2065, 2362.417
647.6886, 2369.677
648.1707, 2380.736
648.6528, 2393.231
649.1349, 2401.739
649.6171, 2406.917
650.0992, 2413.674
650.5813, 2426.851
651.0634, 2441.269
651.5455, 2448.799
652.0276, 2451.036
652.5098, 2456.186
652.9919, 2474.588
653.4740, 2492.660
653.9561, 2500.374
654.4382, 2494.449
654.9203, 2492.448
655.4025, 2499.705
655.8846, 2508.940
656.3667, 2515.104
656.8488, 2516.523
657.3309, 2519.406
657.8130, 2522.908
658.2952, 2529.855
658.7773, 2549.957
659.2594, 2581.244
659.7415, 2596.258
660.2236, 2581.681
660.7057, 2557.871
661.1879, 2554.771
661.6700, 2566.520
662.1521, 2576.869
662.6342, 2579.069
663.1163, 2576.377
663.5984, 2567.270
664.0806, 2553.241
664.5627, 2545.318
665.0448, 2559.625
665.5269, 2568.139
666.0090, 2555.206
666.4911, 2515.829
666.9733, 2494.551
667.4554, 2497.707
667.9375, 2506.403
668.4196, 2506.669
668.9017, 2498.549
669.3839, 2482.661
669.8660, 2457.357
670.3481, 2432.695
670.8302, 2421.442
671.3123, 2419.661
671.7944, 2419.609
672.2766, 2422.773
672.7587, 2420.727
673.2408, 2402.733
673.7229, 2376.199
674.2050, 2355.284
674.6871, 2349.359
675.1693, 2343.645
675.6514, 2333.484
676.1335, 2319.902
676.6156, 2308.946
677.0977, 2302.410
677.5798, 2294.216
678.0620, 2278.454
678.5441, 2257.121
679.0262, 2255.363
679.5083, 2274.495
679.9904, 2291.372
680.4725, 2283.459
680.9547, 2261.920
681.4368, 2244.823
681.9189, 2234.159
682.4010, 2230.118
682.8831, 2238.916
683.3652, 2251.558
683.8474, 2258.897
684.3295, 2256.880
684.8116, 2252.686
685.2937, 2246.713
685.7758, 2239.383
686.2579, 2230.763
686.7401, 2219.311
687.2222, 2211.004
687.7043, 2207.567
688.1864, 2207.353
688.6685, 2206.814
689.1506, 2205.950
689.6328, 2204.864
690.1149, 2205.797
690.5970, 2205.080
691.0791, 2192.910
691.5612, 2172.295
692.0433, 2158.803
692.5255, 2169.843
693.0076, 2183.121
693.4897, 2183.465
693.9718, 2168.542
694.4539, 2155.377
694.9360, 2148.225
695.4182, 2141.608
695.9003, 2130.521
696.3824, 2110.544
696.8645, 2108.284
697.3466, 2128.970
697.8287, 2153.656
698.3109, 2160.774
698.7930, 2153.367
699.2751, 2147.725
699.7572, 2147.157
700.2393, 2147.229
700.7214, 2140.844
701.2036, 2132.454
701.6857, 2129.628
702.1678, 2142.844
702.6499, 2152.991
703.1320, 2149.320
703.6141, 2137.414
704.0963, 2131.583
704.5784, 2138.234
705.0605, 2142.093
705.5426, 2138.257
706.0247, 2129.262
706.5068, 2126.709
706.9890, 2131.063
707.4711, 2137.785
707.9532, 2145.796
708.4353, 2154.172
708.9174, 2160.667
709.3995, 2165.281
709.8817, 2167.631
710.3638, 2164.851
710.8459, 2161.353
711.3280, 2160.690
711.8101, 2163.246
712.2922, 2168.640
712.7744, 2177.026
713.2565, 2188.153
713.7386, 2202.117
714.2207, 2220.800
714.7028, 2238.552
715.1849, 2258.276
715.6671, 2272.294
716.1492, 2268.530
716.6313, 2248.789
717.1134, 2233.205
717.5955, 2224.127
718.0776, 2224.014
718.5598, 2245.000
719.0419, 2276.061
719.5240, 2295.487
720.0061, 2285.829
720.4882, 2274.915
720.9703, 2276.031
721.4525, 2285.150
721.9346, 2293.166
722.4167, 2301.768
722.8988, 2305.176
723.3809, 2299.721
723.8630, 2288.516
724.3452, 2284.801
724.8273, 2289.542
725.3094, 2294.801
725.7915, 2296.213
726.2736, 2295.690
726.7557, 2297.288
727.2379, 2301.156
727.7200, 2308.474
728.2021, 2328.148
728.6842, 2345.786
729.1663, 2347.409
729.6484, 2331.391
730.1306, 2316.075
730.6127, 2302.084
731.0948, 2294.290
731.5769, 2295.930
732.0590, 2309.833
732.5411, 2321.457
733.0233, 2330.324
733.5054, 2337.983
733.9875, 2348.462
734.4696, 2360.243
734.9517, 2359.118
735.4338, 2341.444
735.9160, 2323.468
736.3981, 2324.013
736.8802, 2334.185
737.3623, 2340.327
737.8444, 2334.810
738.3266, 2332.623
738.8087, 2345.476
739.2908, 2363.076
739.7729, 2369.907
740.2551, 2358.807
740.7372, 2348.912
741.2193, 2341.143
741.7014, 2336.761
742.1835, 2339.374
742.6656, 2349.043
743.1478, 2360.693
743.6299, 2375.078
744.1120, 2387.675
744.5941, 2387.583
745.0762, 2379.083
745.5583, 2375.469
746.0405, 2393.152
746.5226, 2408.386
747.0047, 2404.359
747.4868, 2384.643
747.9689, 2371.210
748.4510, 2369.088
748.9332, 2370.567
749.4153, 2373.758
749.8974, 2378.641
750.3795, 2385.823
750.8616, 2395.747
751.3438, 2404.356
751.8259, 2406.068
752.3080, 2405.163
752.7901, 2416.067
753.2722, 2438.037
753.7543, 2452.409
754.2365, 2434.948
754.7186, 2412.886
755.2007, 2410.000
755.6828, 2432.680
756.1649, 2451.961
756.6470, 2463.326
757.1292, 2469.874
757.6113, 2472.509
758.0934, 2469.844
758.5755, 2469.656
759.0576, 2472.347
759.5397, 2476.178
760.0219, 2480.182
760.5040, 2483.890
760.9861, 2484.965
761.4682, 2482.373
761.9503, 2480.844
762.4324, 2484.792
762.9146, 2491.648
763.3967, 2498.504
763.8788, 2505.539
764.3609, 2511.068
764.8430, 2512.921
765.3251, 2514.160
765.8073, 2518.165
766.2894, 2525.073
766.7715, 2534.306
767.2536, 2546.171
767.7357, 2559.504
768.2178, 2575.768
768.7000, 2592.676
769.1821, 2599.078
769.6642, 2583.689
770.1463, 2569.201
770.6284, 2581.082
771.1105, 2607.185
771.5927, 2624.030
772.0748, 2608.365
772.5569, 2601.619
773.0390, 2622.474
773.5211, 2657.148
774.0032, 2668.611
774.4854, 2650.161
774.9675, 2632.772
775.4496, 2622.688
775.9317, 2622.212
776.4138, 2644.632
776.8959, 2685.032
777.3781, 2717.779
777.8602, 2725.199
778.3423, 2722.587
778.8244, 2716.205
779.3065, 2709.327
779.7886, 2714.677
780.2708, 2755.466
780.7529, 2788.521
781.2350, 2797.080
781.7171, 2784.233
782.1992, 2778.868
782.6813, 2782.077
783.1635, 2788.631
783.6456, 2797.171
784.1277, 2806.801
784.6098, 2815.384
785.0919, 2822.780
785.5740, 2828.024
786.0562, 2829.513
786.5383, 2829.370
787.0204, 2828.106
787.5025, 2825.853
787.9846, 2827.201
788.4667, 2835.449
788.9489, 2845.573
789.4310, 2856.832
789.9131, 2869.519
790.3952, 2876.426
790.8773, 2877.460
791.3594, 2872.895
791.8416, 2860.296
792.3237, 2842.580
792.8058, 2825.062
793.2879, 2808.027
793.7700, 2799.116
794.2521, 2813.700
794.7343, 2831.803
795.2164, 2834.543
795.6985, 2814.437
796.1806, 2803.842
796.6627, 2812.782
797.1448, 2824.490
797.6270, 2827.424
798.1091, 2819.851
798.5912, 2819.493
799.0733, 2828.311
799.5554, 2834.302
800.0375, 2821.783
800.5197, 2799.256
801.0018, 2783.198
801.4839, 2776.499
801.9660, 2771.355
802.4481, 2765.845
802.9302, 2758.080
803.4124, 2745.491
803.8945, 2721.373
804.3766, 2707.591
804.8587, 2708.792
805.3408, 2714.218
805.8229, 2714.726
806.3051, 2710.333
806.7872, 2703.056
807.2693, 2692.667
807.7514, 2681.656
808.2335, 2669.923
808.7156, 2660.045
809.1978, 2657.722
809.6799, 2667.948
810.1620, 2672.820
810.6441, 2659.200
811.1262, 2639.862
811.6083, 2627.366
812.0905, 2623.737
812.5726, 2623.714
813.0547, 2629.687
813.5368, 2634.462
814.0189, 2628.354
814.5010, 2612.973
814.9832, 2597.260
815.4653, 2582.422
815.9474, 2568.917
816.4295, 2555.034
816.9116, 2543.497
817.3937, 2538.807
817.8759, 2549.845
818.3580, 2552.392
818.8401, 2530.271
819.3222, 2504.953
819.8043, 2498.605
820.2864, 2517.286
820.7686, 2527.250
821.2507, 2525.261
821.7328, 2514.636
822.2149, 2495.265
822.6970, 2471.010
823.1791, 2451.389
823.6613, 2439.244
824.1434, 2430.312
824.6255, 2421.414
825.1076, 2414.491
825.5897, 2411.857
826.0718, 2424.548
826.5540, 2425.201
827.0361, 2407.784
827.5182, 2385.225
828.0003, 2374.020
828.4824, 2374.081
828.9645, 2369.127
829.4467, 2355.765
829.9288, 2341.356
830.4109, 2335.210
830.8930, 2333.296
831.3751, 2328.932
831.8572, 2318.360
832.3394, 2310.016
832.8215, 2314.846
833.3036, 2318.743
833.7857, 2304.246
834.2678, 2259.216
834.7499, 2233.246
835.2321, 2233.494
835.7142, 2243.962
836.1963, 2247.914
836.6784, 2245.471
837.1605, 2235.056
837.6426, 2214.418
838.1248, 2195.235
838.6069, 2187.201
839.0890, 2185.305
839.5711, 2184.253
840.0532, 2183.065
840.5353, 2182.816
841.0175, 2186.055
841.4996, 2187.674
841.9817, 2180.520
842.4638, 2163.981
842.9459, 2154.592
843.4280, 2154.993
843.9102, 2156.964
844.3923, 2148.617
844.8744, 2136.705
845.3565, 2133.517
845.8386, 2144.439
846.3207, 2152.795
846.8029, 2149.781
847.2850, 2142.517
847.7671, 2137.190
848.2492, 2134.378
848.7313, 2132.684
849.2134, 2132.953
849.6956, 2132.206
850.1777, 2127.155
850.6598, 2118.572
851.1419, 2107.136
851.6240, 2092.063
852.1061, 2082.987
852.5883, 2095.427
853.0704, 2112.132
853.5525, 2115.305
854.0346, 2094.040
854.5167, 2085.812
854.9988, 2099.585
855.4810, 2117.584
855.9631, 2129.225
856.4452, 2134.541
856.9273, 2128.312
857.4094, 2109.657
857.8915, 2090.443
858.3737, 2077.657
858.8558, 2072.404
859.3379, 2079.864
859.8200, 2101.734
860.3021, 2117.818
860.7842, 2116.372
861.2664, 2110.062
861.7485, 2105.755
862.2306, 2103.585
862.7127, 2101.379
863.1948, 2098.668
863.6769, 2097.909
864.1591, 2105.113
864.6412, 2114.568
865.1233, 2107.165
865.6054, 2084.330
866.0875, 2072.237
866.5696, 2098.334
867.0518, 2130.192
867.5339, 2147.543
868.0160, 2148.303
868.4981, 2147.766
868.9802, 2146.009
869.4623, 2142.836
869.9445, 2136.356
870.4266, 2128.505
870.9087, 2129.199
871.3908, 2137.884
871.8729, 2148.390
872.3550, 2162.748
872.8372, 2172.748
873.3193, 2164.150
873.8014, 2142.058
874.2835, 2135.687
874.7656, 2171.933
875.2477, 2199.932
875.7299, 2202.111
876.2120, 2187.474
876.6941, 2196.006
877.1762, 2227.599
877.6583, 2249.278
878.1404, 2241.503
878.6226, 2221.439
879.1047, 2208.695
879.5869, 2202.029
880.0690, 2197.907
880.5511, 2194.550
881.0332, 2194.162
881.5153, 2198.112
881.9974, 2205.174
882.4796, 2214.253
882.9617, 2226.461
883.4438, 2234.229
883.9259, 2235.197
884.4080, 2231.988
884.8901, 2225.034
885.3723, 2217.388
885.8544, 2216.442
886.3365, 2227.478
886.8186, 2241.240
887.3007, 2258.610
887.7828, 2274.068
888.2650, 2279.439
888.7471, 2269.953
889.2292, 2263.173
889.7113, 2261.021
890.1934, 2260.763
890.6755, 2258.580
891.1577, 2255.317
891.6398, 2253.919
892.1219, 2255.365
892.6040, 2256.502
893.0861, 2252.157
893.5682, 2248.209
894.0504, 2250.872
894.5325, 2265.057
895.0146, 2275.793
895.4967, 2283.464
895.9788, 2286.978
896.4609, 2284.265
896.9431, 2276.175
897.4252, 2266.401
897.9073, 2255.087
898.3894, 2247.578
898.8715, 2250.807
899.3536, 2257.333
899.8358, 2262.830
900.3179, 2267.282
900.8000, 2261.856
901.2821, 2233.745
901.7642, 2213.999
902.2463, 2221.119
902.7285, 2250.046
903.2106, 2261.754
903.6927, 2256.739
904.1748, 2250.041
904.6569, 2253.172
905.1390, 2257.346
905.6212, 2250.744
906.1033, 2236.548
906.5854, 2228.802
907.0675, 2237.621
907.5496, 2246.256
908.0317, 2251.373
908.5139, 2253.329
908.9960, 2254.608
909.4781, 2255.204
909.9602, 2246.658
910.4423, 2219.981
910.9244, 2192.700
911.4066, 2188.396
911.8887, 2198.521
912.3708, 2207.319
912.8529, 2208.137
913.3350, 2208.845
913.8171, 2209.978
914.2993, 2212.299
914.7814, 2219.271
915.2635, 2232.040
915.7456, 2231.397
916.2277, 2211.563
916.7098, 2191.182
917.1920, 2199.017
917.6741, 2217.667
918.1562, 2218.263
918.6383, 2186.748
919.1204, 2167.079
919.6025, 2187.123
920.0847, 2211.653
920.5668, 2215.864
921.0489, 2195.727
921.5310, 2184.437
922.0131, 2182.798
922.4952, 2183.470
922.9774, 2179.278
923.4595, 2174.253
923.9416, 2174.685
924.4237, 2180.727
924.9058, 2188.416
925.3879, 2201.522
925.8701, 2210.180
926.3522, 2207.800
926.8343, 2196.640
927.3164, 2197.778
927.7985, 2213.292
928.2806, 2221.634
928.7628, 2207.728
929.2449, 2185.829
929.7270, 2177.869
930.2091, 2180.352
930.6912, 2183.581
931.1733, 2181.060
931.6555, 2181.813
932.1376, 2193.308
932.6197, 2207.673
933.1018, 2209.602
933.5839, 2196.480
934.0660, 2192.103
934.5482, 2203.151
935.0303, 2216.687
935.5124, 2215.011
935.9945, 2204.386
936.4766, 2195.451
936.9587, 2190.149
937.4409, 2187.892
937.9230, 2188.031
938.4051, 2191.649
938.8872, 2201.907
939.3693, 2222.452
939.8514, 2225.343
940.3336, 2208.132
940.8157, 2190.992
941.2978, 2189.997
941.7799, 2199.942
942.2620, 2219.457
942.7441, 2246.732
943.2263, 2259.674
943.7084, 2231.197
944.1905, 2205.654
944.6726, 2201.302
945.1547, 2215.149
945.6368, 2231.219
946.1190, 2250.194
946.6011, 2261.645
947.0832, 2258.085
947.5653, 2247.642
948.0474, 2237.322
948.5295, 2228.912
949.0117, 2226.566
949.4938, 2239.159
949.9759, 2248.510
950.4580, 2251.107
950.9401, 2248.964
951.4222, 2243.240
951.9044, 2233.756
952.3865, 2230.521
952.8686, 2236.150
953.3507, 2243.384
953.8328, 2246.387
954.3149, 2245.485
954.7971, 2239.538
955.2792, 2225.423
955.7613, 2218.360
956.2434, 2227.695
956.7255, 2235.975
957.2076, 2230.812
957.6898, 2212.744
958.1719, 2202.407
958.6540, 2199.654
959.1361, 2199.996
959.6182, 2201.340
960.1003, 2203.529
960.5825, 2207.188
961.0646, 2211.857
961.5467, 2214.766
962.0288, 2211.318
962.5109, 2212.739
962.9930, 2223.677
963.4752, 2239.307
963.9573, 2247.586
964.4394, 2249.249
964.9215, 2249.265
965.4036, 2249.417
965.8857, 2248.098
966.3679, 2242.635
966.8500, 2235.528
967.3321, 2229.913
967.8142, 2224.684
968.2963, 2224.573
968.7784, 2231.722
969.2606, 2239.711
969.7427, 2243.358
970.2248, 2242.407
970.7069, 2233.323
971.1890, 2216.032
971.6711, 2202.087
972.1533, 2201.088
972.6354, 2204.469
973.1175, 2206.515
973.5996, 2207.071
974.0817, 2211.975
974.5638, 2223.623
975.0460, 2230.694
975.5281, 2225.680
976.0102, 2215.784
976.4923, 2217.897
976.9744, 2228.231
977.4565, 2235.653
977.9387, 2229.564
978.4208, 2226.461
978.9029, 2236.443
979.3850, 2250.612
979.8671, 2257.646
980.3492, 2257.254
980.8314, 2249.044
981.3135, 2230.915
981.7956, 2214.158
982.2777, 2211.188
982.7598, 2217.293
983.2419, 2227.598
983.7241, 2242.328
984.2062, 2252.863
984.6883, 2252.781
985.1704, 2251.927
985.6525, 2256.898
986.1346, 2266.041
986.6168, 2255.736
987.0989, 2226.929
987.5810, 2209.277
988.0631, 2232.342
988.5452, 2263.894
989.0273, 2270.707
989.5095, 2261.811
989.9916, 2260.559
990.4737, 2279.072
990.9558, 2294.187
991.4379, 2304.721
991.9200, 2308.458
992.4022, 2294.716
992.8843, 2269.787
993.3664, 2262.222
993.8485, 2279.278
994.3306, 2301.558
994.8127, 2320.227
995.2949, 2335.192
995.7770, 2345.820
996.2591, 2352.032
996.7412, 2355.698
997.2233, 2356.864
997.7054, 2355.151
998.1876, 2344.928
998.6697, 2333.840
999.1518, 2344.795
999.6339, 2371.476
1000.116, 2388.772
1000.598, 2373.167
1001.080, 2360.691
1001.562, 2369.432
1002.044, 2386.492
1002.527, 2386.066
1003.009, 2366.291
1003.491, 2356.604
1003.973, 2363.485
1004.455, 2377.243
1004.937, 2390.915
1005.419, 2403.262
1005.901, 2412.600
1006.384, 2418.579
1006.866, 2421.359
1007.348, 2419.244
1007.830, 2416.842
1008.312, 2416.537
1008.794, 2418.143
1009.276, 2420.904
1009.758, 2424.719
1010.240, 2428.826
1010.723, 2436.752
1011.205, 2440.911
1011.687, 2430.240
1012.169, 2412.732
1012.651, 2410.789
1013.133, 2432.455
1013.615, 2446.962
1014.097, 2449.123
1014.580, 2444.391
1015.062, 2438.229
1015.544, 2431.293
1016.026, 2424.788
1016.508, 2419.027
1016.990, 2413.411
1017.472, 2406.019
1017.954, 2400.437
1018.436, 2399.570
1018.919, 2403.069
1019.401, 2402.997
1019.883, 2399.349
1020.365, 2393.856
1020.847, 2384.513
1021.329, 2376.294
1021.811, 2375.382
1022.293, 2379.424
1022.776, 2382.541
1023.258, 2381.145
1023.740, 2383.605
1024.222, 2393.287
1024.704, 2402.810
1025.186, 2401.108
1025.668, 2390.637
1026.150, 2379.893
1026.632, 2370.143
1027.115, 2358.494
1027.597, 2337.048
1028.079, 2318.390
1028.561, 2311.370
1029.043, 2315.485
1029.525, 2325.387
1030.007, 2342.474
1030.489, 2352.216
1030.972, 2344.273
1031.454, 2329.352
1031.936, 2320.007
1032.418, 2315.443
1032.900, 2314.044
1033.382, 2325.508
1033.864, 2324.267
1034.346, 2300.906
1034.828, 2273.867
1035.311, 2264.756
1035.793, 2271.221
1036.275, 2281.465
1036.757, 2294.656
1037.239, 2299.546
1037.721, 2279.327
1038.203, 2255.602
1038.685, 2246.689
1039.167, 2250.654
1039.650, 2238.873
1040.132, 2204.412
1040.614, 2186.575
1041.096, 2205.182
1041.578, 2236.412
1042.060, 2244.372
1042.542, 2236.399
1043.024, 2225.591
1043.507, 2211.968
1043.989, 2203.712
1044.471, 2204.407
1044.953, 2208.121
1045.435, 2211.343
1045.917, 2213.888
1046.399, 2212.228
1046.881, 2206.540
1047.364, 2201.718
1047.846, 2203.727
1048.328, 2205.280
1048.810, 2197.489
1049.292, 2184.515
1049.774, 2185.576
1050.256, 2207.500
1050.738, 2219.230
1051.220, 2213.398
1051.703, 2198.260
1052.185, 2179.742
1052.667, 2162.398
1053.149, 2155.455
1053.631, 2163.156
1054.113, 2169.580
1054.595, 2168.846
1055.077, 2167.870
1055.559, 2171.500
1056.042, 2178.159
1056.524, 2173.256
1057.006, 2158.908
1057.488, 2152.433
1057.970, 2176.282
1058.452, 2197.518
1058.934, 2190.790
1059.416, 2168.605
1059.899, 2155.028
1060.381, 2151.998
1060.863, 2153.901
1061.345, 2162.006
1061.827, 2167.675
1062.309, 2156.061
1062.791, 2139.246
1063.273, 2140.086
1063.755, 2159.689
1064.238, 2165.917
1064.720, 2131.898
1065.202, 2107.222
1065.684, 2109.798
1066.166, 2129.152
1066.648, 2137.300
1067.130, 2135.793
1067.612, 2132.051
1068.094, 2127.210
1068.577, 2123.568
1069.059, 2125.137
1069.541, 2126.726
1070.023, 2123.590
1070.505, 2115.467
1070.987, 2101.269
1071.469, 2079.568
1071.951, 2063.927
1072.434, 2067.041
1072.916, 2078.763
1073.398, 2094.057
1073.880, 2108.334
1074.362, 2106.087
1074.844, 2061.002
1075.326, 2039.999
1075.808, 2059.295
1076.291, 2091.017
1076.773, 2091.161
1077.255, 2072.285
1077.737, 2075.507
1078.219, 2108.222
1078.701, 2128.459
1079.183, 2098.111
1079.665, 2066.678
1080.147, 2062.447
1080.630, 2078.933
1081.112, 2074.524
1081.594, 2050.046
1082.076, 2031.126
1082.558, 2029.378
1083.040, 2033.001
1083.522, 2032.494
1084.004, 2030.476
1084.486, 2030.635
1084.969, 2034.537
1085.451, 2036.699
1085.933, 2036.222
1086.415, 2037.312
1086.897, 2046.999
1087.379, 2058.482
1087.861, 2058.156
1088.343, 2048.310
1088.826, 2039.648
1089.308, 2035.849
1089.790, 2034.394
1090.272, 2036.686
1090.754, 2038.733
1091.236, 2031.736
1091.718, 2018.491
1092.200, 2013.958
1092.682, 2021.231
1093.165, 2024.829
1093.647, 2007.823
1094.129, 1990.725
1094.611, 1987.928
1095.093, 1997.081
1095.575, 2002.320
1096.057, 2003.678
1096.539, 1999.065
1097.022, 1983.461
1097.504, 1970.252
1097.986, 1978.748
1098.468, 1995.983
1098.950, 2003.769
1099.432, 1995.853
1099.914, 1988.289
1100.396, 1982.378
1100.879, 1973.084
1101.361, 1946.748
1101.843, 1919.192
1102.325, 1928.104
1102.807, 1964.374
1103.289, 1992.784
1103.771, 2002.236
1104.253, 1998.395
1104.735, 1977.400
1105.218, 1951.254
1105.700, 1934.673
1106.182, 1927.451
1106.664, 1933.044
1107.146, 1952.115
1107.628, 1966.139
1108.110, 1961.282
1108.592, 1950.647
1109.074, 1939.830
1109.557, 1929.539
1110.039, 1922.854
1110.521, 1919.768
1111.003, 1916.667
1111.485, 1912.222
1111.967, 1908.377
1112.449, 1907.917
1112.931, 1908.590
1113.414, 1907.308
1113.896, 1902.604
1114.378, 1903.266
1114.860, 1910.777
1115.342, 1917.165
1115.824, 1917.214
1116.306, 1914.039
1116.788, 1910.883
1117.271, 1908.607
1117.753, 1909.110
1118.235, 1917.204
1118.717, 1922.175
1119.199, 1924.302
1119.681, 1921.586
1120.163, 1907.122
1120.645, 1886.945
1121.127, 1879.697
1121.609, 1885.260
1122.092, 1894.290
1122.574, 1909.750
1123.056, 1918.077
1123.538, 1911.664
1124.020, 1898.610
1124.502, 1895.949
1124.984, 1902.263
1125.466, 1904.725
1125.949, 1900.404
1126.431, 1897.453
1126.913, 1908.307
1127.395, 1916.786
1127.877, 1907.338
1128.359, 1883.155
1128.841, 1868.718
1129.323, 1864.058
1129.806, 1869.900
1130.288, 1890.741
1130.770, 1912.912
1131.252, 1925.756
1131.734, 1929.978
1132.216, 1925.637
1132.698, 1911.661
1133.180, 1891.664
1133.662, 1862.640
1134.145, 1840.850
1134.627, 1839.554
1135.109, 1849.759
1135.591, 1861.738
1136.073, 1873.475
1136.555, 1879.543
1137.037, 1866.213
1137.519, 1867.806
1138.001, 1892.879
1138.484, 1919.195
1138.966, 1922.250
1139.448, 1908.856
1139.930, 1890.289
1140.412, 1868.915
1140.894, 1859.040
1141.376, 1876.522
1141.858, 1894.238
1142.341, 1908.818
1142.823, 1915.826
1143.305, 1900.350
1143.787, 1869.056
1144.269, 1852.126
1144.751, 1855.222
1145.233, 1865.665
1145.715, 1887.585
1146.198, 1902.999
1146.680, 1900.138
1147.162, 1883.501
1147.644, 1874.301
1148.126, 1871.959
1148.608, 1868.974
1149.090, 1862.409
1149.572, 1855.812
1150.054, 1853.104
1150.536, 1850.735
1151.019, 1844.370
1151.501, 1833.346
1151.983, 1828.254
1152.465, 1829.332
1152.947, 1829.565
1153.429, 1819.152
1153.911, 1812.970
1154.393, 1833.986
1154.876, 1866.401
1155.358, 1881.225
1155.840, 1869.745
1156.322, 1862.929
1156.804, 1861.944
1157.286, 1862.284
1157.768, 1862.329
1158.250, 1860.204
1158.733, 1847.784
1159.215, 1830.417
1159.697, 1829.206
1160.179, 1858.479
1160.661, 1878.442
1161.143, 1883.475
1161.625, 1881.264
1162.107, 1881.313
1162.589, 1880.007
1163.072, 1867.399
1163.554, 1844.090
1164.036, 1831.114
1164.518, 1836.283
1165.000, 1849.258
1165.482, 1872.429
1165.964, 1894.747
1166.446, 1891.989
1166.928, 1873.633
1167.411, 1860.114
1167.893, 1855.328
1168.375, 1854.629
1168.857, 1860.258
1169.339, 1864.862
1169.821, 1864.667
1170.303, 1862.187
1170.785, 1866.649
1171.268, 1875.273
1171.750, 1878.424
1172.232, 1870.349
1172.714, 1863.540
1173.196, 1863.184
1173.678, 1865.709
1174.160, 1870.459
1174.642, 1876.510
1175.125, 1876.828
1175.607, 1872.116
1176.089, 1866.242
1176.571, 1861.592
1177.053, 1855.361
1177.535, 1841.148
1178.017, 1828.828
1178.499, 1830.109
1178.981, 1844.743
1179.464, 1846.330
1179.946, 1835.822
1180.428, 1832.443
1180.910, 1864.602
1181.392, 1889.299
1181.874, 1870.342
1182.356, 1836.058
1182.838, 1833.833
1183.320, 1865.311
1183.803, 1876.491
1184.285, 1862.662
1184.767, 1845.524
1185.249, 1835.922
1185.731, 1833.769
1186.213, 1843.204
1186.695, 1859.731
1187.177, 1872.064
1187.660, 1880.229
1188.142, 1883.120
1188.624, 1880.124
1189.106, 1875.178
1189.588, 1869.417
1190.070, 1865.079
1190.552, 1864.669
1191.034, 1867.696
1191.516, 1870.591
1191.999, 1873.542
1192.481, 1874.564
1192.963, 1873.126
1193.445, 1869.837
1193.927, 1864.246
1194.409, 1857.829
1194.891, 1851.784
1195.373, 1846.182
1195.855, 1840.682
1196.338, 1834.294
1196.820, 1837.896
1197.302, 1862.212
1197.784, 1884.611
1198.266, 1873.642
1198.748, 1849.496
1199.230, 1837.847
1199.712, 1843.162
1200.195, 1850.067
1200.677, 1859.200
1201.159, 1865.165
1201.641, 1861.477
1202.123, 1857.593
1202.605, 1870.441
1203.087, 1888.324
1203.569, 1890.336
1204.052, 1864.138
1204.534, 1855.111
1205.016, 1865.393
1205.498, 1879.642
1205.980, 1891.768
1206.462, 1898.593
1206.944, 1891.605
1207.426, 1877.330
1207.908, 1871.573
1208.391, 1879.607
1208.873, 1884.274
1209.355, 1884.570
1209.837, 1883.297
1210.319, 1883.305
1210.801, 1867.749
1211.283, 1886.415
1211.765, 1896.939
1212.247, 1899.757
1212.730, 1871.792
1213.212, 1883.577
1213.694, 1879.432
1214.176, 1874.633
1214.658, 1892.013
1215.140, 1868.525
1215.622, 1885.553
1216.104, 1886.408
1216.587, 1894.665
1217.069, 1887.198
1217.551, 1892.203
1218.033, 1898.841
1218.515, 1903.155
1218.997, 1898.596
1219.479, 1890.730
1219.961, 1885.258
1220.443, 1882.763
1220.926, 1882.629
1221.408, 1886.240
1221.890, 1885.630
1222.372, 1877.542
1222.854, 1869.591
1223.336, 1871.346
1223.818, 1878.063
1224.300, 1886.911
1224.782, 1897.361
1225.265, 1894.508
1225.747, 1873.978
1226.229, 1862.131
1226.711, 1869.477
1227.193, 1882.001
1227.675, 1883.554
1228.157, 1880.092
1228.639, 1878.071
1229.122, 1878.254
1229.604, 1881.557
1230.086, 1889.038
1230.568, 1892.557
1231.050, 1888.094
1231.532, 1880.205
1232.014, 1872.503
1232.496, 1865.368
1232.979, 1857.740
1233.461, 1848.412
1233.943, 1850.531
1234.425, 1864.932
1234.907, 1883.315
1235.389, 1909.351
1235.871, 1925.354
1236.353, 1902.908
1236.835, 1866.128
1237.318, 1847.150
1237.800, 1848.507
1238.282, 1855.735
1238.764, 1869.049
1239.246, 1882.795
1239.728, 1895.240
1240.210, 1904.705
1240.692, 1909.401
1241.175, 1910.063
1241.657, 1907.863
1242.139, 1902.883
1242.621, 1892.401
1243.103, 1876.212
1243.585, 1869.136
1244.067, 1892.732
1244.549, 1914.844
1245.031, 1908.082
1245.514, 1889.584
1245.996, 1885.490
1246.478, 1897.902
1246.960, 1894.324
1247.442, 1875.250
1247.924, 1862.179
1248.406, 1875.383
1248.888, 1891.502
1249.370, 1898.785
1249.853, 1900.500
1250.335, 1900.195
1250.817, 1897.982
1251.299, 1898.260
1251.781, 1900.874
1252.263, 1900.854
1252.745, 1887.602
1253.227, 1880.176
1253.710, 1894.599
1254.192, 1913.328
1254.674, 1911.758
1255.156, 1893.380
1255.638, 1882.594
1256.120, 1880.663
1256.602, 1883.328
1257.084, 1895.072
1257.567, 1902.084
1258.049, 1898.797
1258.531, 1890.707
1259.013, 1882.794
1259.495, 1876.601
1259.977, 1880.614
1260.459, 1894.180
1260.941, 1903.429
1261.423, 1898.609
1261.906, 1892.714
1262.388, 1887.371
1262.870, 1884.441
1263.352, 1887.231
1263.834, 1894.316
1264.316, 1904.421
1264.798, 1916.684
1265.280, 1923.842
1265.762, 1922.360
1266.245, 1916.977
1266.727, 1907.135
1267.209, 1896.801
1267.691, 1890.878
1268.173, 1888.435
1268.655, 1889.052
1269.137, 1892.338
1269.619, 1893.262
1270.102, 1890.965
1270.584, 1886.970
1271.066, 1880.758
1271.548, 1875.850
1272.030, 1876.696
1272.512, 1881.462
1272.994, 1889.222
1273.476, 1899.460
1273.958, 1907.911
1274.441, 1914.441
1274.923, 1918.610
1275.405, 1919.709
1275.887, 1921.085
1276.369, 1931.430
1276.851, 1939.690
1277.333, 1931.667
1277.815, 1910.432
1278.297, 1895.715
1278.780, 1887.377
1279.262, 1894.432
1279.744, 1922.355
1280.226, 1944.641
1280.708, 1932.985
1281.190, 1913.888
1281.672, 1906.864
1282.154, 1908.374
1282.637, 1901.721
1283.119, 1889.040
1283.601, 1894.489
1284.083, 1926.671
1284.565, 1951.302
1285.047, 1937.293
1285.529, 1915.161
1286.011, 1932.308
1286.494, 1941.309
1286.976, 1942.608
1287.458, 1913.123
1287.940, 1923.389
1288.422, 1917.724
1288.904, 1911.407
1289.386, 1927.267
1289.868, 1902.260
1290.350, 1917.769
1290.833, 1917.101
1291.315, 1923.839
1291.797, 1914.547
1292.279, 1910.207
1292.761, 1921.900
1293.243, 1924.715
1293.725, 1913.579
1294.207, 1920.787
1294.689, 1897.483
1295.172, 1902.382
1295.654, 1911.978
1296.136, 1919.296
1296.618, 1910.092
1297.100, 1880.190
1297.582, 1876.404
1298.064, 1903.462
1298.546, 1926.748
1299.029, 1936.306
1299.511, 1935.737
1299.993, 1916.914
1300.475, 1898.577
1300.957, 1907.508
1301.439, 1936.997
1301.921, 1934.102
1302.403, 1900.348
1302.885, 1883.348
1303.368, 1900.175
1303.850, 1918.443
1304.332, 1911.594
1304.814, 1902.874
##END=



