##NAMES=Magnesiotaaffeite-6N3S
##RRUFFID=R090019
##IDEAL CHEMISTRY=Mg_2_BeAl_6_O_12_
##LOCALITY=Ratnapura District, Sri Lanka
##OWNER=Bill Pinch
##SOURCE=William W. Pinch
##DESCRIPTION=Greyish purple flattened tabular hexagonal crystal
##STATUS=The identification of this mineral has been confirmed by single-crystal X-ray diffraction.
##URL=rruff.info/R090019
90.92609, 0.0000000E+00
91.40820, 30.80880
91.89032, 30.45694
92.37244, 30.66442
92.85455, 31.33502
93.33667, 31.89373
93.81879, 31.81174
94.30090, 31.27368
94.78302, 30.82957
95.26514, 30.60074
95.74725, 30.53648
96.22937, 30.54125
96.71149, 30.61546
97.19360, 30.75308
97.67572, 30.87908
98.15784, 30.99526
98.63995, 31.42000
99.12207, 32.48158
99.60419, 34.02752
100.0863, 34.62998
100.5684, 33.99634
101.0505, 33.00399
101.5327, 32.79751
102.0148, 33.56348
102.4969, 34.50234
102.9790, 35.41027
103.4611, 36.29796
103.9432, 37.02504
104.4253, 37.45842
104.9075, 37.79989
105.3896, 38.42752
105.8717, 39.36457
106.3538, 40.56517
106.8359, 42.01620
107.3180, 43.56021
107.8002, 45.61940
108.2823, 48.55584
108.7644, 52.07088
109.2465, 55.18521
109.7286, 56.77705
110.2107, 58.73389
110.6929, 61.90343
111.1750, 66.93061
111.6571, 72.43790
112.1392, 78.52405
112.6213, 85.10880
113.1034, 91.74541
113.5856, 97.57479
114.0677, 103.9430
114.5498, 111.7465
115.0319, 124.0096
115.5140, 135.1171
115.9961, 144.2538
116.4783, 151.3338
116.9604, 154.2028
117.4425, 149.0993
117.9246, 140.2784
118.4067, 132.5261
118.8888, 126.6480
119.3710, 122.8797
119.8531, 121.8661
120.3352, 123.8374
120.8173, 126.5249
121.2994, 128.2031
121.7815, 129.6458
122.2637, 132.2111
122.7458, 137.2404
123.2279, 143.3377
123.7100, 149.1743
124.1921, 154.5800
124.6742, 159.8523
125.1564, 165.4471
125.6385, 171.1863
126.1206, 176.5284
126.6027, 180.6296
127.0848, 184.1637
127.5669, 188.4050
128.0491, 193.8041
128.5312, 199.4243
129.0133, 203.9236
129.4954, 207.3428
129.9775, 210.4376
130.4596, 213.6999
130.9418, 217.0464
131.4239, 220.3159
131.9060, 223.5783
132.3881, 226.6623
132.8702, 228.9474
133.3523, 230.3916
133.8345, 231.7470
134.3166, 233.7914
134.7987, 236.5332
135.2808, 238.8721
135.7629, 240.3440
136.2450, 241.2676
136.7272, 243.1380
137.2093, 246.0056
137.6914, 249.6792
138.1735, 254.2434
138.6556, 259.9061
139.1377, 265.2641
139.6199, 270.1855
140.1020, 274.6266
140.5841, 277.7050
141.0662, 278.7431
141.5483, 279.2805
142.0304, 281.4290
142.5126, 285.9880
142.9947, 290.1566
143.4768, 292.0724
143.9589, 290.7540
144.4410, 290.0596
144.9231, 290.0986
145.4053, 290.6521
145.8874, 291.4467
146.3695, 292.7982
146.8516, 293.9632
147.3337, 294.8641
147.8158, 296.0724
148.2980, 295.6340
148.7801, 292.2527
149.2622, 287.4839
149.7443, 284.5407
150.2264, 285.0328
150.7085, 285.8183
151.1907, 285.8343
151.6728, 284.4453
152.1549, 283.3806
152.6370, 282.8950
153.1191, 282.7527
153.6012, 282.3918
154.0834, 281.3864
154.5655, 280.4362
155.0476, 279.8454
155.5297, 280.1528
156.0118, 280.1350
156.4939, 279.5220
156.9761, 278.4313
157.4582, 277.2682
157.9403, 275.4911
158.4224, 274.0657
158.9045, 273.5793
159.3866, 275.1742
159.8688, 276.5306
160.3509, 276.9509
160.8330, 276.5795
161.3151, 276.0663
161.7972, 275.4561
162.2793, 274.8957
162.7615, 274.5013
163.2436, 274.7909
163.7257, 274.7939
164.2078, 273.7879
164.6899, 271.9421
165.1720, 270.4650
165.6541, 270.1922
166.1363, 270.4699
166.6184, 270.6537
167.1005, 270.6223
167.5826, 270.3542
168.0647, 269.6576
168.5468, 268.5753
169.0290, 267.6831
169.5111, 267.4434
169.9932, 267.5790
170.4753, 267.7256
170.9574, 268.0548
171.4395, 268.1409
171.9217, 267.3792
172.4038, 265.7766
172.8859, 264.3466
173.3680, 264.0348
173.8501, 264.4179
174.3322, 264.7412
174.8144, 264.6141
175.2965, 264.2999
175.7786, 264.1170
176.2607, 264.0711
176.7428, 264.0570
177.2249, 264.0903
177.7071, 264.0919
178.1892, 263.8706
178.6713, 263.0177
179.1534, 261.9742
179.6355, 261.5245
180.1176, 261.7244
180.5998, 262.1386
181.0819, 262.3681
181.5640, 262.4378
182.0461, 262.4495
182.5282, 262.5672
183.0103, 262.6498
183.4925, 262.3084
183.9746, 261.4812
184.4567, 260.4810
184.9388, 259.4494
185.4209, 258.4606
185.9030, 258.0253
186.3852, 259.0307
186.8673, 260.8767
187.3494, 261.2877
187.8315, 259.9355
188.3136, 257.9748
188.7957, 256.9570
189.2779, 256.8310
189.7600, 256.7506
190.2421, 256.1857
190.7242, 255.2593
191.2063, 254.6496
191.6884, 254.3941
192.1706, 254.4408
192.6527, 254.9207
193.1348, 255.8414
193.6169, 256.4294
194.0990, 256.0102
194.5811, 254.6808
195.0633, 254.0217
195.5454, 254.2401
196.0275, 254.8655
196.5096, 255.0474
196.9917, 254.7604
197.4738, 254.3474
197.9560, 253.9754
198.4381, 253.6491
198.9202, 253.2263
199.4023, 252.6247
199.8844, 252.0489
200.3665, 252.0602
200.8487, 252.7961
201.3308, 253.3270
201.8129, 253.0359
202.2950, 251.8400
202.7771, 250.9781
203.2592, 250.5719
203.7414, 250.4255
204.2235, 250.0806
204.7056, 249.4694
205.1877, 248.9209
205.6698, 248.6675
206.1519, 248.7852
206.6341, 248.5941
207.1162, 247.8550
207.5983, 246.9825
208.0804, 247.1008
208.5625, 248.5782
209.0446, 249.9047
209.5268, 250.2795
210.0089, 249.5012
210.4910, 248.7323
210.9731, 248.0193
211.4552, 247.3195
211.9373, 246.4945
212.4195, 245.4460
212.9016, 244.5367
213.3837, 243.8786
213.8658, 243.3825
214.3479, 243.5394
214.8300, 244.6153
215.3121, 246.2012
215.7943, 247.2892
216.2764, 247.7256
216.7585, 247.9613
217.2406, 248.2855
217.7227, 248.9455
218.2048, 248.7402
218.6870, 247.0371
219.1691, 244.7725
219.6512, 244.3127
220.1333, 246.6719
220.6154, 248.9627
221.0975, 249.8352
221.5797, 248.5519
222.0618, 247.9934
222.5439, 248.3483
223.0260, 249.3437
223.5081, 250.4646
223.9902, 251.9524
224.4724, 253.1447
224.9545, 253.6353
225.4366, 252.9996
225.9187, 252.9369
226.4008, 253.5831
226.8829, 254.7432
227.3651, 256.0880
227.8472, 257.9826
228.3293, 259.4691
228.8114, 259.9392
229.2935, 258.6147
229.7757, 258.7448
230.2578, 261.0459
230.7399, 264.4414
231.2220, 266.7899
231.7041, 267.3922
232.1862, 268.0276
232.6684, 269.3594
233.1505, 271.6286
233.6326, 273.7480
234.1147, 275.3312
234.5968, 276.9731
235.0789, 279.7611
235.5611, 284.1141
236.0432, 288.9055
236.5253, 293.7084
237.0074, 298.0956
237.4895, 303.8209
237.9716, 311.1177
238.4538, 319.6097
238.9359, 328.9429
239.4180, 340.7061
239.9001, 350.9673
240.3822, 359.3331
240.8643, 366.7529
241.3465, 367.3737
241.8286, 359.3817
242.3107, 345.8806
242.7928, 330.6980
243.2749, 311.7049
243.7570, 294.6743
244.2392, 281.1213
244.7213, 271.1967
245.2034, 263.7767
245.6855, 259.5233
246.1676, 257.1494
246.6497, 255.0838
247.1319, 253.1840
247.6140, 251.8784
248.0961, 251.4650
248.5782, 252.0921
249.0603, 252.2790
249.5424, 252.1654
250.0246, 251.4904
250.5067, 249.7499
250.9888, 245.9479
251.4709, 243.0515
251.9530, 241.8449
252.4351, 242.4044
252.9173, 243.1021
253.3994, 244.1999
253.8815, 245.1409
254.3636, 245.2690
254.8457, 244.0350
255.3278, 243.1835
255.8100, 243.0952
256.2921, 243.7514
256.7742, 244.4240
257.2563, 245.1230
257.7384, 245.8225
258.2205, 246.4728
258.7026, 247.0175
259.1848, 247.6739
259.6669, 248.4713
260.1490, 249.4145
260.6311, 250.4377
261.1132, 251.4509
261.5953, 252.6953
262.0775, 254.4080
262.5596, 256.8334
263.0417, 259.0229
263.5238, 260.7186
264.0059, 262.0915
264.4880, 264.1888
264.9702, 267.3944
265.4523, 270.5409
265.9344, 273.0547
266.4165, 275.1614
266.8986, 275.8779
267.3807, 275.0901
267.8629, 272.8759
268.3450, 269.3266
268.8271, 264.0189
269.3092, 258.3280
269.7913, 252.6254
270.2734, 246.6903
270.7556, 242.0841
271.2377, 239.0509
271.7198, 237.2047
272.2019, 235.7280
272.6840, 234.7192
273.1661, 233.7588
273.6483, 232.6451
274.1304, 231.3625
274.6125, 229.9771
275.0946, 228.2591
275.5767, 226.7535
276.0588, 226.7244
276.5410, 228.5051
277.0231, 229.9909
277.5052, 230.0488
277.9873, 228.6424
278.4694, 227.9828
278.9515, 228.3009
279.4337, 228.8587
279.9158, 228.4724
280.3979, 227.0312
280.8800, 225.7936
281.3621, 225.1845
281.8442, 225.1781
282.3264, 225.8139
282.8085, 227.3290
283.2906, 228.6876
283.7727, 228.3540
284.2548, 226.3104
284.7369, 224.7384
285.2191, 224.3485
285.7012, 224.9140
286.1833, 225.6285
286.6654, 226.5382
287.1475, 227.2966
287.6296, 227.3853
288.1118, 226.8881
288.5939, 226.7107
289.0760, 227.2256
289.5581, 228.0638
290.0402, 228.1768
290.5223, 227.5376
291.0045, 226.9546
291.4866, 227.1639
291.9687, 228.0060
292.4508, 228.7397
292.9329, 229.2550
293.4150, 229.5758
293.8972, 229.5549
294.3793, 229.2476
294.8614, 229.2808
295.3435, 230.3416
295.8256, 232.0797
296.3077, 233.4268
296.7899, 234.1129
297.2720, 234.7710
297.7541, 236.2880
298.2362, 238.5313
298.7183, 240.9475
299.2004, 243.3480
299.6826, 245.6772
300.1647, 247.8316
300.6468, 249.7556
301.1289, 251.7006
301.6110, 254.2135
302.0931, 256.9890
302.5753, 259.3018
303.0574, 260.7069
303.5395, 261.4837
304.0216, 262.0027
304.5037, 262.2824
304.9858, 262.0862
305.4680, 260.4560
305.9501, 258.3155
306.4322, 257.2532
306.9143, 258.3500
307.3964, 260.3996
307.8785, 262.3455
308.3607, 264.2249
308.8428, 266.4363
309.3249, 269.0425
309.8070, 272.1993
310.2891, 276.1263
310.7712, 281.3563
311.2534, 286.8285
311.7355, 292.0809
312.2176, 297.0711
312.6997, 301.4735
313.1818, 304.8810
313.6639, 307.7049
314.1461, 310.6219
314.6282, 314.7702
315.1103, 316.7465
315.5924, 314.5856
316.0745, 309.0501
316.5566, 301.6517
317.0388, 291.1396
317.5209, 280.3651
318.0030, 270.7177
318.4851, 262.3643
318.9672, 255.1840
319.4493, 249.1443
319.9315, 244.2717
320.4136, 240.5297
320.8957, 238.6798
321.3778, 237.3228
321.8599, 235.9056
322.3420, 234.3555
322.8242, 233.2437
323.3063, 233.0357
323.7884, 233.1505
324.2705, 233.0813
324.7526, 232.3177
325.2347, 231.8195
325.7169, 232.0803
326.1990, 232.9989
326.6811, 233.2741
327.1632, 232.2718
327.6453, 230.9729
328.1274, 229.9209
328.6096, 229.4182
329.0917, 228.7962
329.5738, 227.9864
330.0559, 227.0474
330.5380, 226.1479
331.0201, 225.2533
331.5023, 224.4342
331.9844, 223.6435
332.4665, 222.5791
332.9486, 222.3611
333.4307, 223.5222
333.9128, 225.2531
334.3950, 226.1179
334.8771, 225.7086
335.3592, 225.2184
335.8413, 225.0974
336.3234, 225.4357
336.8055, 225.2066
337.2877, 224.3216
337.7698, 222.9946
338.2519, 221.3844
338.7340, 219.4414
339.2161, 217.4378
339.6982, 215.3535
340.1803, 213.2473
340.6624, 211.6581
341.1446, 210.6609
341.6267, 209.8791
342.1088, 208.9621
342.5909, 207.9054
343.0730, 207.1268
343.5551, 206.8055
344.0373, 206.6558
344.5194, 205.8841
345.0015, 204.4451
345.4836, 203.1966
345.9657, 202.7685
346.4478, 203.0154
346.9300, 203.1487
347.4121, 203.1083
347.8942, 203.0081
348.3763, 203.0739
348.8584, 203.2566
349.3405, 203.2614
349.8227, 202.6971
350.3048, 201.9214
350.7869, 201.7507
351.2690, 202.1960
351.7511, 202.8262
352.2332, 203.2854
352.7154, 203.6310
353.1975, 203.9873
353.6796, 204.4167
354.1617, 204.8465
354.6438, 205.2370
355.1259, 205.5700
355.6081, 205.7609
356.0902, 205.6383
356.5723, 205.3853
357.0544, 205.1258
357.5365, 204.6962
358.0186, 204.7129
358.5008, 205.9366
358.9829, 207.9231
359.4650, 209.7203
359.9471, 210.9527
360.4292, 211.8140
360.9113, 212.3356
361.3935, 212.4680
361.8756, 212.6476
362.3577, 213.1047
362.8398, 213.6904
363.3219, 214.2355
363.8040, 214.5156
364.2862, 214.9292
364.7683, 215.5419
365.2504, 216.3714
365.7325, 217.5554
366.2146, 219.7832
366.6967, 221.9578
367.1789, 223.3980
367.6610, 223.5572
368.1431, 223.5445
368.6252, 223.5005
369.1073, 223.3460
369.5894, 222.8210
370.0716, 220.9314
370.5537, 219.6911
371.0358, 219.9553
371.5179, 222.3858
372.0000, 224.2883
372.4821, 225.3348
372.9643, 226.0584
373.4464, 227.1194
373.9285, 228.4301
374.4106, 230.2807
374.8927, 233.0116
375.3748, 236.5713
375.8570, 239.2603
376.3391, 241.0386
376.8212, 242.0712
377.3033, 242.7902
377.7854, 243.4017
378.2675, 241.8442
378.7497, 237.1601
379.2318, 230.7782
379.7139, 226.1964
380.1960, 223.5539
380.6781, 221.5299
381.1602, 219.5863
381.6424, 217.6959
382.1245, 215.5801
382.6066, 213.1241
383.0887, 210.8086
383.5708, 209.1204
384.0529, 208.0578
384.5351, 207.5391
385.0172, 207.6191
385.4993, 208.1903
385.9814, 209.0647
386.4635, 210.2387
386.9456, 211.8148
387.4278, 214.1839
387.9099, 216.9199
388.3920, 219.3088
388.8741, 220.9087
389.3562, 222.5378
389.8383, 225.0722
390.3205, 228.2672
390.8026, 231.3673
391.2847, 233.6003
391.7668, 235.8157
392.2489, 238.6739
392.7310, 242.2720
393.2132, 246.3686
393.6953, 250.6977
394.1774, 255.4488
394.6595, 260.8998
395.1416, 266.2411
395.6237, 273.1087
396.1059, 282.0875
396.5880, 293.1619
397.0701, 305.8760
397.5522, 320.8326
398.0343, 336.8033
398.5164, 353.0497
398.9986, 370.2859
399.4807, 386.7739
399.9628, 401.5893
400.4449, 415.7005
400.9270, 431.4256
401.4091, 449.0266
401.8913, 467.6866
402.3734, 487.4245
402.8555, 508.5882
403.3376, 529.5997
403.8197, 553.4626
404.3018, 573.6663
404.7840, 582.2758
405.2661, 576.5508
405.7482, 568.0496
406.2303, 556.5733
406.7124, 544.4425
407.1945, 541.1443
407.6767, 547.1399
408.1588, 559.6561
408.6409, 577.7429
409.1230, 601.1878
409.6051, 627.6867
410.0872, 657.2444
410.5694, 689.7830
411.0515, 726.4247
411.5336, 766.4910
412.0157, 804.9164
412.4978, 847.3310
412.9799, 884.3290
413.4621, 899.5421
413.9442, 893.1214
414.4263, 863.9163
414.9084, 799.7370
415.3905, 714.7615
415.8727, 629.2989
416.3548, 543.8276
416.8369, 467.1117
417.3190, 406.5683
417.8011, 360.6142
418.2832, 324.1339
418.7654, 298.9004
419.2475, 279.7505
419.7296, 264.0447
420.2117, 251.5071
420.6938, 241.1155
421.1759, 232.9942
421.6581, 226.5975
422.1402, 221.2584
422.6223, 216.8866
423.1044, 213.5614
423.5865, 211.9166
424.0686, 211.6871
424.5508, 210.8029
425.0329, 208.4322
425.5150, 205.8982
425.9971, 203.7032
426.4792, 201.4498
426.9613, 200.4098
427.4435, 201.1042
427.9256, 202.7361
428.4077, 203.9343
428.8898, 204.1478
429.3719, 205.2287
429.8540, 207.9017
430.3362, 212.0259
430.8183, 215.6856
431.3004, 218.6496
431.7825, 221.7563
432.2646, 226.0767
432.7467, 231.6005
433.2289, 235.9468
433.7110, 238.4339
434.1931, 240.0892
434.6752, 242.7117
435.1573, 246.2383
435.6394, 249.9934
436.1216, 253.5772
436.6036, 257.1630
437.0858, 260.8741
437.5679, 264.7090
438.0500, 269.2955
438.5321, 274.9854
439.0142, 281.8374
439.4963, 289.9809
439.9785, 299.6278
440.4606, 310.3796
440.9427, 321.5573
441.4248, 333.4628
441.9069, 346.8742
442.3890, 363.2099
442.8712, 380.4397
443.3533, 397.0596
443.8354, 412.5836
444.3175, 429.2211
444.7996, 449.7910
445.2817, 470.7886
445.7639, 488.7200
446.2460, 508.3446
446.7281, 519.0045
447.2102, 518.8769
447.6923, 507.9933
448.1744, 486.9108
448.6566, 447.4034
449.1387, 406.0997
449.6208, 369.6575
450.1029, 337.2587
450.5850, 311.6230
451.0671, 294.0065
451.5493, 282.1591
452.0314, 273.4667
452.5135, 268.3232
452.9956, 265.0332
453.4777, 263.5784
453.9598, 263.6019
454.4420, 263.7545
454.9241, 264.0915
455.4062, 264.0543
455.8883, 263.5957
456.3704, 262.5159
456.8525, 259.8169
457.3347, 255.3969
457.8168, 249.5349
458.2989, 242.0316
458.7810, 233.3030
459.2631, 224.8223
459.7452, 216.7896
460.2274, 209.4624
460.7095, 203.2051
461.1916, 197.9134
461.6737, 193.4927
462.1558, 189.7976
462.6379, 186.9255
463.1201, 185.0235
463.6022, 184.3215
464.0843, 184.0481
464.5664, 184.2475
465.0485, 184.6018
465.5306, 184.6043
466.0128, 183.2582
466.4949, 182.4129
466.9770, 182.7780
467.4591, 184.4070
467.9412, 185.9996
468.4233, 187.2792
468.9055, 188.7409
469.3876, 190.7399
469.8697, 193.6876
470.3518, 196.2319
470.8339, 198.1363
471.3160, 199.8036
471.7982, 202.0668
472.2803, 205.0906
472.7624, 208.0454
473.2445, 210.4719
473.7266, 212.5573
474.2087, 215.2543
474.6909, 218.5217
475.1730, 222.6133
475.6551, 227.8508
476.1372, 234.0939
476.6193, 240.6050
477.1014, 246.9688
477.5836, 254.3162
478.0657, 264.1174
478.5478, 276.0842
479.0299, 289.1602
479.5120, 304.0023
479.9941, 319.1459
480.4763, 333.0485
480.9584, 345.8185
481.4405, 358.1405
481.9226, 370.3180
482.4047, 382.2490
482.8868, 394.1678
483.3690, 407.1522
483.8511, 417.6907
484.3332, 424.4799
484.8153, 428.2262
485.2974, 430.2283
485.7795, 427.7873
486.2617, 426.6240
486.7438, 427.4922
487.2259, 430.4324
487.7080, 436.3365
488.1901, 444.9502
488.6722, 456.9032
489.1544, 473.0638
489.6365, 494.0264
490.1186, 516.2629
490.6007, 539.6648
491.0828, 564.3707
491.5649, 591.1950
492.0471, 619.9399
492.5292, 650.7059
493.0113, 686.0479
493.4934, 721.7313
493.9755, 752.1379
494.4576, 776.3751
494.9398, 780.3290
495.4219, 748.2996
495.9040, 689.6110
496.3861, 618.0884
496.8682, 531.4932
497.3503, 449.2613
497.8325, 384.1420
498.3146, 334.0544
498.7967, 294.4521
499.2788, 268.2715
499.7609, 248.4015
500.2430, 232.5710
500.7252, 220.4961
501.2073, 210.7144
501.6894, 203.9816
502.1715, 198.6387
502.6536, 193.9346
503.1357, 189.9563
503.6179, 186.3149
504.1000, 182.6446
504.5821, 179.5258
505.0642, 177.6683
505.5463, 177.8423
506.0284, 177.5437
506.5106, 176.2289
506.9927, 174.2597
507.4748, 172.8070
507.9569, 171.9081
508.4390, 171.3326
508.9211, 171.0982
509.4033, 171.1458
509.8854, 170.9898
510.3675, 170.6205
510.8496, 170.1232
511.3317, 169.3111
511.8138, 168.4280
512.2960, 168.2082
512.7781, 169.0045
513.2602, 170.1032
513.7423, 170.8445
514.2244, 171.3078
514.7065, 171.6847
515.1887, 171.8428
515.6708, 172.1259
516.1529, 172.8411
516.6350, 173.9845
517.1171, 175.0750
517.5992, 175.9532
518.0814, 176.7062
518.5635, 177.3472
519.0456, 177.4055
519.5277, 178.1516
520.0098, 179.9449
520.4919, 182.3098
520.9741, 184.5524
521.4562, 186.5333
521.9383, 188.6177
522.4204, 190.8618
522.9025, 193.2698
523.3846, 195.8562
523.8668, 198.5793
524.3489, 201.5842
524.8310, 205.1752
525.3131, 209.2640
525.7952, 213.0519
526.2773, 216.5797
526.7595, 219.4993
527.2416, 221.6677
527.7237, 222.8985
528.2058, 222.7091
528.6879, 220.8608
529.1700, 217.6820
529.6522, 213.1590
530.1343, 207.5403
530.6164, 201.3946
531.0985, 193.8056
531.5806, 186.7790
532.0627, 181.8116
532.5449, 179.1116
533.0270, 176.7770
533.5091, 174.2188
533.9912, 171.9084
534.4733, 170.2205
534.9554, 169.6130
535.4376, 168.9855
535.9197, 168.2502
536.4018, 167.5376
536.8839, 167.0659
537.3660, 166.7791
537.8481, 166.8950
538.3303, 167.6121
538.8124, 168.7779
539.2945, 169.6332
539.7766, 170.1778
540.2587, 170.4161
540.7408, 170.4207
541.2230, 170.1327
541.7051, 169.2874
542.1872, 167.8448
542.6693, 166.0516
543.1514, 163.7905
543.6335, 161.4035
544.1157, 159.4822
544.5978, 158.4368
545.0799, 157.5941
545.5620, 156.4729
546.0441, 155.2032
546.5262, 154.1065
547.0084, 153.1751
547.4905, 152.5602
547.9726, 152.4256
548.4547, 152.8221
548.9368, 153.0758
549.4189, 152.8436
549.9011, 152.6809
550.3832, 152.9616
550.8653, 154.0944
551.3474, 154.6554
551.8295, 154.3743
552.3116, 153.8056
552.7938, 153.7340
553.2759, 154.1811
553.7580, 154.9469
554.2401, 156.1155
554.7222, 157.4542
555.2043, 158.3407
555.6865, 158.8009
556.1686, 159.1977
556.6507, 159.6772
557.1328, 160.2628
557.6149, 161.0005
558.0970, 161.8943
558.5792, 162.9214
559.0613, 164.0303
559.5434, 165.2727
560.0255, 166.6861
560.5076, 168.1752
560.9897, 170.0013
561.4719, 172.3738
561.9540, 175.1224
562.4361, 177.9246
562.9182, 180.4277
563.4003, 183.3778
563.8824, 187.0977
564.3646, 191.4369
564.8467, 195.5449
565.3288, 199.3086
565.8109, 203.0835
566.2930, 207.0347
566.7751, 211.1374
567.2573, 215.5578
567.7394, 220.2962
568.2215, 225.5035
568.7036, 231.6554
569.1857, 238.4819
569.6678, 245.1696
570.1500, 251.3724
570.6321, 257.6586
571.1142, 264.4357
571.5963, 271.7245
572.0784, 279.5396
572.5605, 288.6507
573.0427, 297.6967
573.5248, 305.5707
574.0069, 312.4801
574.4890, 320.3508
574.9711, 331.3924
575.4532, 342.0640
575.9354, 350.5257
576.4175, 356.3937
576.8996, 361.1674
577.3817, 365.6539
577.8638, 368.2105
578.3459, 367.4410
578.8281, 363.2932
579.3102, 355.7831
579.7923, 344.3739
580.2744, 330.4305
580.7565, 316.4038
581.2386, 302.2990
581.7208, 288.2394
582.2029, 273.4823
582.6850, 259.2072
583.1671, 247.3451
583.6492, 237.6778
584.1313, 228.9434
584.6134, 220.3271
585.0955, 212.1767
585.5776, 204.7254
586.0598, 197.9585
586.5419, 192.0814
587.0240, 187.3617
587.5061, 183.3954
587.9882, 179.8476
588.4703, 176.5474
588.9525, 173.8592
589.4346, 172.0467
589.9167, 170.7236
590.3988, 169.2599
590.8809, 167.5737
591.3630, 165.9788
591.8452, 164.5114
592.3273, 163.1974
592.8094, 162.0441
593.2915, 161.0263
593.7736, 160.5440
594.2557, 161.2320
594.7379, 162.5885
595.2200, 163.2129
595.7021, 163.0748
596.1842, 162.8485
596.6663, 163.0678
597.1484, 163.5090
597.6306, 163.8835
598.1127, 164.0689
598.5948, 164.3642
599.0769, 164.9130
599.5590, 165.6514
600.0411, 166.5026
600.5233, 167.2080
601.0054, 168.3072
601.4875, 169.9720
601.9696, 172.0862
602.4517, 174.3808
602.9338, 177.0854
603.4160, 179.5166
603.8981, 181.4254
604.3802, 182.8559
604.8623, 184.2422
605.3444, 185.6338
605.8265, 186.6772
606.3087, 187.0312
606.7908, 186.8323
607.2729, 186.3118
607.7550, 185.4263
608.2371, 184.7853
608.7192, 184.7896
609.2014, 185.4180
609.6835, 186.6389
610.1656, 188.3515
610.6477, 190.7715
611.1298, 194.4983
611.6119, 198.9128
612.0941, 202.9893
612.5762, 205.5140
613.0583, 208.7903
613.5404, 213.5870
614.0225, 219.5513
614.5046, 225.2337
614.9868, 230.3862
615.4689, 235.7095
615.9510, 241.4197
616.4331, 247.5256
616.9152, 254.8573
617.3973, 263.4851
617.8795, 272.4829
618.3616, 281.2416
618.8437, 289.5697
619.3258, 297.0161
619.8079, 303.6780
620.2900, 308.9702
620.7722, 312.5691
621.2543, 314.4659
621.7364, 314.6371
622.2185, 313.6146
622.7006, 310.2597
623.1827, 303.2083
623.6649, 293.5623
624.1470, 283.8908
624.6291, 274.3216
625.1112, 264.8743
625.5933, 255.6764
626.0754, 246.6594
626.5576, 237.3199
627.0397, 227.1605
627.5218, 218.2957
628.0039, 212.3576
628.4860, 209.0017
628.9681, 205.2122
629.4503, 200.9277
629.9324, 196.7829
630.4145, 193.3860
630.8966, 190.4567
631.3787, 187.3881
631.8608, 183.9571
632.3430, 181.0236
632.8251, 179.5163
633.3072, 178.7316
633.7893, 177.7796
634.2714, 175.8540
634.7535, 174.4000
635.2357, 173.9469
635.7178, 174.1332
636.1999, 174.1616
636.6820, 174.0878
637.1641, 173.7165
637.6462, 172.8266
638.1284, 171.5947
638.6105, 171.0651
639.0926, 171.2907
639.5747, 171.6655
640.0568, 171.7677
640.5389, 171.7469
641.0211, 172.0742
641.5032, 172.7487
641.9853, 173.5223
642.4674, 174.0692
642.9495, 174.6698
643.4316, 175.7715
643.9138, 177.6431
644.3959, 179.1619
644.8780, 179.1516
645.3601, 178.8701
645.8422, 179.5578
646.3243, 181.9774
646.8065, 184.6295
647.2886, 187.6360
647.7707, 190.7706
648.2528, 193.6264
648.7349, 196.0657
649.2170, 198.7483
649.6992, 201.7958
650.1813, 205.2786
650.6634, 209.6322
651.1455, 214.7783
651.6276, 220.0655
652.1097, 225.2682
652.5919, 230.3846
653.0740, 235.3505
653.5561, 240.2121
654.0382, 245.5266
654.5203, 251.8168
655.0024, 258.4198
655.4846, 264.9363
655.9667, 271.2075
656.4488, 277.7904
656.9309, 284.6951
657.4130, 291.8924
657.8951, 299.3993
658.3773, 307.0614
658.8594, 315.5410
659.3415, 325.2776
659.8236, 335.0703
660.3057, 343.3044
660.7878, 350.0031
661.2700, 356.2760
661.7521, 362.5751
662.2342, 368.0772
662.7163, 371.7041
663.1984, 373.7001
663.6805, 374.7347
664.1627, 375.9503
664.6448, 375.5107
665.1269, 372.3216
665.6090, 366.5508
666.0911, 358.9855
666.5732, 348.5143
667.0554, 337.5200
667.5375, 326.7953
668.0196, 316.2905
668.5017, 305.2871
668.9838, 293.4142
669.4659, 281.7537
669.9481, 270.8072
670.4302, 260.6579
670.9123, 251.2168
671.3944, 242.4779
671.8765, 234.4522
672.3586, 227.4307
672.8408, 221.1535
673.3229, 215.0906
673.8050, 209.1389
674.2871, 203.4835
674.7692, 197.9256
675.2513, 192.9285
675.7335, 189.0138
676.2156, 187.5109
676.6977, 185.6848
677.1798, 182.8143
677.6619, 179.5939
678.1440, 177.0146
678.6262, 175.1903
679.1083, 173.7548
679.5904, 172.8079
680.0725, 172.0363
680.5546, 170.3434
681.0367, 167.7873
681.5189, 165.7371
682.0010, 165.1686
682.4831, 165.2283
682.9652, 164.4620
683.4473, 163.0832
683.9294, 162.0388
684.4116, 162.3428
684.8937, 162.7672
685.3758, 162.3650
685.8579, 161.0359
686.3400, 160.2150
686.8221, 160.7374
687.3043, 161.3159
687.7864, 161.2958
688.2685, 160.4999
688.7506, 160.0911
689.2327, 160.1085
689.7148, 160.4038
690.1970, 160.8809
690.6791, 161.5293
691.1612, 162.1924
691.6433, 162.7994
692.1254, 163.6897
692.6075, 165.6291
693.0897, 167.9748
693.5718, 169.5899
694.0539, 169.3579
694.5360, 169.8516
695.0181, 172.8559
695.5002, 177.1400
695.9824, 180.8315
696.4645, 182.7470
696.9466, 185.3383
697.4287, 189.0266
697.9108, 193.4988
698.3929, 197.8505
698.8751, 201.9964
699.3572, 206.8554
699.8393, 212.7456
700.3214, 219.5900
700.8035, 227.4682
701.2856, 236.2497
701.7678, 245.1766
702.2499, 253.5746
702.7320, 262.1129
703.2141, 271.3065
703.6962, 281.2045
704.1783, 291.7764
704.6605, 303.3763
705.1426, 315.3242
705.6247, 327.1114
706.1068, 338.5915
706.5889, 351.3640
707.0710, 365.9153
707.5532, 380.7104
708.0353, 394.6724
708.5174, 407.7992
708.9995, 422.1558
709.4816, 438.0204
709.9637, 453.8269
710.4459, 468.4108
710.9280, 481.8960
711.4101, 494.0302
711.8922, 504.7080
712.3743, 514.8680
712.8564, 526.8712
713.3386, 537.8267
713.8207, 544.9059
714.3028, 547.6415
714.7849, 545.9822
715.2670, 540.1270
715.7491, 530.0662
716.2313, 515.0845
716.7134, 494.4062
717.1955, 472.4487
717.6776, 449.5986
718.1597, 426.1675
718.6418, 402.0224
719.1240, 377.5807
719.6061, 354.1598
720.0882, 332.1923
720.5703, 311.9066
721.0524, 293.8338
721.5345, 277.8644
722.0167, 263.7306
722.4988, 251.8501
722.9809, 241.2541
723.4630, 231.8994
723.9451, 223.7370
724.4272, 216.2978
724.9094, 209.7624
725.3915, 203.7378
725.8736, 198.1656
726.3557, 193.0597
726.8378, 188.1513
727.3199, 183.3951
727.8021, 179.2304
728.2842, 176.3528
728.7663, 174.0406
729.2484, 171.0877
729.7305, 167.5470
730.2126, 164.1118
730.6948, 160.8257
731.1769, 158.0452
731.6590, 156.1572
732.1411, 155.3232
732.6232, 154.5325
733.1053, 153.8770
733.5875, 153.0403
734.0696, 151.6859
734.5517, 149.6362
735.0338, 148.5668
735.5159, 148.6754
735.9980, 148.8539
736.4802, 147.7143
736.9623, 145.8103
737.4444, 144.7704
737.9265, 144.8785
738.4086, 145.1595
738.8907, 144.7967
739.3729, 144.2435
739.8550, 144.0115
740.3371, 144.4090
740.8192, 144.7144
741.3013, 144.7511
741.7834, 144.6670
742.2656, 144.5606
742.7477, 144.3540
743.2298, 144.4125
743.7119, 144.8306
744.1940, 145.3956
744.6761, 145.6562
745.1583, 145.7399
745.6404, 146.3287
746.1225, 147.7982
746.6046, 149.3640
747.0867, 150.3042
747.5688, 150.8066
748.0510, 151.1806
748.5331, 151.0949
749.0152, 151.4081
749.4973, 152.7515
749.9794, 154.5671
750.4615, 155.6427
750.9437, 155.4216
751.4258, 155.8842
751.9079, 157.6969
752.3900, 160.2278
752.8721, 161.9326
753.3542, 162.8599
753.8364, 163.7452
754.3185, 164.9942
754.8006, 166.2397
755.2827, 167.3214
755.7648, 168.0610
756.2469, 167.9145
756.7291, 165.9162
757.2112, 163.7415
757.6933, 162.1566
758.1754, 161.0209
758.6575, 159.3721
759.1396, 157.1290
759.6218, 154.5136
760.1039, 151.2959
760.5860, 147.8168
761.0681, 145.4858
761.5502, 144.2920
762.0323, 143.3905
762.5145, 142.2941
762.9966, 141.1908
763.4787, 140.4051
763.9608, 139.8818
764.4429, 139.2587
764.9250, 138.2012
765.4072, 137.1448
765.8893, 136.2366
766.3714, 135.4828
766.8535, 135.2075
767.3356, 135.7708
767.8177, 136.1607
768.2999, 135.7472
768.7820, 134.6418
769.2641, 133.9943
769.7462, 133.8139
770.2283, 133.8522
770.7104, 134.0813
771.1926, 134.3401
771.6747, 134.2399
772.1568, 133.7893
772.6389, 133.7592
773.1210, 135.0910
773.6031, 136.5097
774.0853, 137.0938
774.5674, 136.5643
775.0495, 136.6724
775.5316, 137.6726
776.0137, 138.8759
776.4958, 139.8770
776.9780, 140.6854
777.4601, 141.4451
777.9422, 142.1553
778.4243, 142.9293
778.9064, 144.0199
779.3885, 145.1666
779.8707, 145.9451
780.3528, 146.2686
780.8349, 146.7738
781.3170, 147.5796
781.7991, 148.7829
782.2812, 150.6015
782.7633, 153.3712
783.2454, 155.4449
783.7275, 156.5068
784.2097, 157.4008
784.6918, 158.7781
785.1739, 160.6019
785.6560, 162.6414
786.1381, 164.8953
786.6202, 167.3329
787.1024, 169.8280
787.5845, 172.5498
788.0666, 175.7898
788.5487, 179.7716
789.0308, 183.4805
789.5129, 186.3356
789.9951, 188.9674
790.4772, 191.8450
790.9593, 195.1074
791.4414, 198.2281
791.9235, 201.0445
792.4056, 204.1824
792.8878, 208.4552
793.3699, 213.6695
793.8520, 219.0175
794.3341, 224.5337
794.8162, 229.6102
795.2983, 233.3976
795.7805, 236.7530
796.2626, 240.7519
796.7447, 245.7858
797.2268, 250.7600
797.7089, 255.3467
798.1910, 259.8944
798.6732, 264.5392
799.1553, 269.2190
799.6374, 274.5449
800.1195, 280.6263
800.6016, 287.0335
801.0837, 293.8151
801.5659, 300.6045
802.0480, 306.2211
802.5301, 310.3476
803.0122, 314.1223
803.4943, 318.7987
803.9764, 323.3450
804.4586, 326.7284
804.9407, 328.4639
805.4228, 329.7476
805.9049, 330.7864
806.3870, 331.3587
806.8691, 331.2276
807.3513, 330.3253
807.8334, 329.4435
808.3155, 328.7606
808.7976, 327.3714
809.2797, 323.8134
809.7618, 318.9685
810.2440, 314.7672
810.7261, 311.6497
811.2082, 308.0431
811.6903, 302.0322
812.1724, 295.7640
812.6545, 291.2657
813.1367, 289.5269
813.6188, 287.4034
814.1009, 284.7252
814.5830, 281.9779
815.0651, 279.6538
815.5472, 277.7182
816.0294, 275.4300
816.5115, 272.6866
816.9936, 270.4328
817.4757, 269.9019
817.9578, 270.2378
818.4399, 270.4090
818.9221, 270.2088
819.4042, 270.1129
819.8863, 269.9027
820.3684, 270.1730
820.8505, 271.4028
821.3326, 273.9443
821.8148, 275.9993
822.2969, 277.4820
822.7790, 278.7305
823.2611, 280.0362
823.7432, 281.3250
824.2253, 282.4695
824.7075, 283.4551
825.1896, 283.8569
825.6717, 283.1925
826.1538, 281.9284
826.6359, 280.4457
827.1180, 278.8388
827.6002, 276.7970
828.0823, 274.4543
828.5644, 271.5332
829.0465, 267.7439
829.5286, 263.1150
830.0107, 258.7798
830.4929, 254.8307
830.9750, 250.5268
831.4571, 245.0222
831.9392, 238.9523
832.4213, 233.4335
832.9034, 228.5721
833.3856, 223.4787
833.8677, 217.5591
834.3498, 211.5255
834.8319, 205.5458
835.3140, 199.6079
835.7961, 194.6527
836.2783, 190.9421
836.7604, 187.4979
837.2425, 183.7490
837.7246, 179.8207
838.2067, 176.3064
838.6888, 173.1405
839.1710, 169.9838
839.6531, 166.4752
840.1352, 162.9660
840.6173, 159.6637
841.0994, 156.5938
841.5815, 154.0313
842.0637, 152.1467
842.5458, 150.6285
843.0279, 149.5889
843.5100, 148.8653
843.9921, 147.2003
844.4742, 144.5528
844.9564, 142.3576
845.4385, 141.7906
845.9206, 141.7951
846.4027, 140.6921
846.8848, 138.7642
847.3669, 136.9722
847.8491, 135.5260
848.3312, 134.5368
848.8133, 134.4435
849.2954, 134.8516
849.7775, 134.4183
850.2596, 132.8024
850.7418, 131.4364
851.2239, 130.7821
851.7060, 130.5325
852.1881, 130.1273
852.6702, 129.5476
853.1523, 128.7352
853.6345, 127.4915
854.1166, 126.2111
854.5987, 125.0042
855.0808, 123.9790
855.5629, 123.3288
856.0450, 123.4666
856.5272, 123.4487
857.0093, 123.2108
857.4914, 122.7514
857.9735, 121.9415
858.4556, 120.8193
858.9377, 119.9498
859.4199, 119.4897
859.9020, 119.2816
860.3841, 119.4164
860.8662, 119.6138
861.3483, 119.4189
861.8304, 118.3461
862.3126, 117.5597
862.7947, 117.5868
863.2768, 117.8644
863.7589, 117.8879
864.2410, 117.5827
864.7231, 117.4443
865.2053, 117.5415
865.6874, 117.6240
866.1695, 117.3689
866.6516, 116.9091
867.1337, 116.5050
867.6158, 116.1971
868.0980, 115.9250
868.5801, 115.5476
869.0622, 115.2684
869.5443, 115.3426
870.0264, 115.9417
870.5085, 116.0115
870.9907, 115.3909
871.4728, 114.6750
871.9549, 114.3032
872.4370, 114.2033
872.9191, 114.0649
873.4012, 113.8885
873.8834, 113.8004
874.3655, 113.9703
874.8476, 114.1954
875.3297, 114.3800
875.8118, 114.5102
876.2939, 114.4035
876.7761, 113.8059
877.2582, 113.3700
877.7403, 113.3790
878.2224, 113.7375
878.7045, 114.0624
879.1866, 114.3401
879.6688, 114.3692
880.1509, 113.8572
880.6330, 113.1981
881.1151, 112.7613
881.5972, 112.4982
882.0793, 112.2758
882.5615, 111.9987
883.0436, 111.8458
883.5257, 112.0154
884.0078, 112.2439
884.4899, 111.8373
884.9720, 110.7546
885.4542, 109.8276
885.9363, 109.2545
886.4184, 108.9538
886.9005, 108.9154
887.3826, 109.0426
887.8647, 109.1755
888.3469, 109.3137
888.8290, 109.3681
889.3111, 109.1604
889.7932, 108.9481
890.2753, 109.0898
890.7574, 109.8082
891.2396, 109.7039
891.7217, 108.5039
892.2038, 107.2564
892.6859, 107.2295
893.1680, 107.9553
893.6501, 108.5727
894.1323, 108.9817
894.6144, 109.1228
895.0965, 108.8147
895.5786, 108.3497
896.0607, 107.8884
896.5428, 107.4171
897.0250, 107.1277
897.5071, 107.0306
897.9892, 107.0853
898.4713, 107.4504
898.9534, 107.9189
899.4355, 107.7862
899.9177, 107.1354
900.3998, 106.5301
900.8819, 106.2706
901.3640, 106.1916
901.8461, 106.2074
902.3282, 106.3277
902.8104, 106.6631
903.2925, 107.4818
903.7746, 107.7870
904.2567, 107.0207
904.7388, 105.8551
905.2209, 106.0815
905.7031, 107.3594
906.1852, 108.3256
906.6673, 108.4978
907.1494, 108.1587
907.6315, 107.0706
908.1136, 105.7304
908.5958, 104.9387
909.0779, 104.9844
909.5600, 105.2523
910.0421, 105.9086
910.5242, 106.4386
911.0063, 105.9703
911.4885, 104.7408
911.9706, 103.9826
912.4527, 103.9018
912.9348, 104.0478
913.4169, 104.0986
913.8990, 104.1921
914.3812, 104.4919
914.8633, 105.0982
915.3454, 105.5745
915.8275, 106.0762
916.3096, 106.1425
916.7917, 105.2364
917.2739, 103.5873
917.7560, 102.7436
918.2381, 102.6693
918.7202, 102.9350
919.2023, 103.5227
919.6844, 104.1181
920.1666, 104.5315
920.6487, 104.7498
921.1308, 104.7386
921.6129, 104.3717
922.0950, 103.9775
922.5771, 103.5919
923.0593, 103.2654
923.5414, 103.2341
924.0235, 103.4340
924.5056, 103.3654
924.9877, 102.6769
925.4698, 102.0695
925.9520, 102.2675
926.4341, 102.8873
926.9162, 103.3914
927.3983, 103.7373
927.8804, 103.8242
928.3625, 103.5760
928.8447, 103.1815
929.3268, 102.7019
929.8089, 102.1992
930.2910, 102.2962
930.7731, 103.0811
931.2552, 103.6933
931.7374, 103.1101
932.2195, 102.2968
932.7016, 102.2003
933.1837, 102.9897
933.6658, 103.3498
934.1479, 102.8741
934.6301, 102.5101
935.1122, 102.7659
935.5943, 103.4371
936.0764, 103.6645
936.5585, 103.4776
937.0406, 103.0820
937.5228, 102.2641
938.0049, 101.5781
938.4870, 101.5070
938.9691, 101.8775
939.4512, 102.2761
939.9333, 102.5760
940.4155, 103.0665
940.8976, 103.9169
941.3797, 104.7685
941.8618, 104.9506
942.3439, 104.5934
942.8260, 104.3401
943.3082, 104.3187
943.7903, 104.3387
944.2724, 104.1356
944.7545, 103.9769
945.2366, 104.0844
945.7188, 104.4776
946.2009, 105.3753
946.6830, 107.2173
947.1651, 108.6016
947.6472, 108.2543
948.1293, 106.6770
948.6115, 106.0137
949.0936, 106.1610
949.5757, 106.2610
950.0578, 105.4950
950.5399, 104.8132
951.0220, 104.7784
951.5042, 105.3356
951.9863, 106.1501
952.4684, 107.4739
952.9505, 108.3435
953.4326, 108.4913
953.9147, 108.1704
954.3969, 107.4967
954.8790, 106.7344
955.3611, 106.6495
955.8432, 107.6044
956.3253, 108.8695
956.8074, 110.5498
957.2896, 112.0416
957.7717, 112.7244
958.2538, 112.2915
958.7359, 112.0920
959.2180, 112.0762
959.7001, 112.4961
960.1823, 113.9215
960.6644, 115.8139
961.1465, 116.9328
961.6286, 117.3375
962.1107, 117.8298
962.5928, 118.7174
963.0750, 119.8593
963.5571, 121.3528
964.0392, 123.0557
964.5213, 124.4058
965.0034, 125.3750
965.4855, 126.2507
965.9677, 127.0697
966.4498, 127.9650
966.9319, 129.0601
967.4140, 130.3764
967.8961, 131.9510
968.3782, 134.0520
968.8604, 135.9541
969.3425, 137.2451
969.8246, 138.5792
970.3067, 140.7267
970.7888, 143.7252
971.2709, 145.5945
971.7531, 146.2010
972.2352, 146.9889
972.7173, 149.5412
973.1994, 152.5619
973.6815, 154.8804
974.1636, 156.4095
974.6458, 157.1996
975.1279, 156.4981
975.6100, 156.2297
976.0921, 157.1869
976.5742, 158.7325
977.0563, 158.9431
977.5385, 158.0292
978.0206, 157.3326
978.5027, 157.6584
978.9848, 157.6472
979.4669, 155.7979
979.9490, 153.2094
980.4311, 151.3432
980.9132, 151.1153
981.3953, 149.8260
981.8774, 147.1046
982.3596, 144.2712
982.8417, 142.7153
983.3238, 141.9872
983.8059, 140.7262
984.2880, 138.9092
984.7701, 137.1874
985.2523, 136.1208
985.7344, 135.0634
986.2165, 133.6953
986.6986, 132.0428
987.1807, 130.1213
987.6628, 127.8581
988.1450, 125.8502
988.6271, 124.2893
989.1092, 123.0421
989.5913, 121.9855
990.0734, 121.0820
990.5555, 120.2810
991.0377, 119.7008
991.5198, 118.9501
992.0019, 117.6332
992.4840, 116.4142
992.9661, 115.9317
993.4482, 116.2259
993.9304, 115.8885
994.4125, 114.8853
994.8946, 113.8589
995.3767, 113.1903
995.8588, 112.7604
996.3409, 112.6049
996.8231, 112.6405
997.3052, 112.3769
997.7873, 111.5105
998.2694, 110.7692
998.7515, 110.3398
999.2336, 110.0772
999.7158, 109.5703
1000.198, 108.9653
1000.680, 108.9627
1001.162, 110.0443
1001.644, 110.7262
1002.126, 109.4947
1002.608, 107.8025
1003.091, 107.0575
1003.573, 107.5122
1004.055, 107.5072
1004.537, 106.9442
1005.019, 106.3965
1005.501, 106.3715
1005.983, 106.5533
1006.465, 106.2333
1006.948, 105.5924
1007.430, 105.3153
1007.912, 106.2043
1008.394, 106.8389
1008.876, 106.7310
1009.358, 106.2608
1009.840, 106.1663
1010.322, 106.4279
1010.804, 106.3493
1011.287, 105.7934
1011.769, 104.9983
1012.251, 103.7459
1012.733, 102.6470
1013.215, 102.4541
1013.697, 103.4656
1014.179, 104.0858
1014.661, 104.1803
1015.143, 104.0470
1015.626, 103.7288
1016.108, 103.3404
1016.590, 103.2252
1017.072, 103.3499
1017.554, 103.5860
1018.036, 104.0603
1018.518, 104.4179
1019.000, 104.4637
1019.483, 104.3206
1019.965, 104.1233
1020.447, 103.8273
1020.929, 103.7865
1021.411, 104.0719
1021.893, 104.2932
1022.375, 103.9425
1022.857, 103.3833
1023.339, 103.1051
1023.822, 103.1345
1024.304, 103.0658
1024.786, 102.4274
1025.268, 102.2452
1025.750, 103.0173
1026.232, 104.2991
1026.714, 104.8260
1027.196, 104.7198
1027.679, 104.6329
1028.161, 104.9139
1028.643, 104.9427
1029.125, 103.8127
1029.607, 102.5086
1030.089, 102.1764
1030.571, 103.1499
1031.053, 103.8707
1031.536, 104.3339
1032.018, 104.5854
1032.500, 104.5522
1032.982, 104.3872
1033.464, 104.2425
1033.946, 104.1712
1034.428, 104.3636
1034.910, 105.4127
1035.392, 106.0414
1035.875, 105.8542
1036.357, 105.2467
1036.839, 104.8622
1037.321, 104.6822
1037.803, 104.5750
1038.285, 104.5252
1038.767, 104.4885
1039.249, 104.3549
1039.731, 104.2740
1040.214, 104.4946
1040.696, 105.0592
1041.178, 104.9612
1041.660, 103.9200
1042.142, 103.3027
1042.624, 103.9716
1043.106, 105.1167
1043.588, 105.2095
1044.071, 104.6427
1044.553, 104.3219
1045.035, 105.0466
1045.517, 105.2802
1045.999, 104.3775
1046.481, 103.2690
1046.963, 102.8013
1047.445, 102.9428
1047.927, 103.3603
1048.410, 104.0314
1048.892, 104.5306
1049.374, 104.3974
1049.856, 104.1261
1050.338, 104.1594
1050.820, 104.3763
1051.302, 104.1448
1051.784, 103.2219
1052.266, 102.7115
1052.749, 102.9120
1053.231, 103.3827
1053.713, 103.5953
1054.195, 103.6253
1054.677, 103.5509
1055.159, 103.3375
1055.641, 103.3201
1056.123, 103.7853
1056.606, 104.2444
1057.088, 104.4993
1057.570, 104.5637
1058.052, 104.4673
1058.534, 104.2321
1059.016, 103.9899
1059.498, 103.6829
1059.980, 103.5463
1060.463, 103.8483
1060.945, 104.3589
1061.427, 104.7770
1061.909, 105.1424
1062.391, 105.2184
1062.873, 104.9824
1063.355, 104.5456
1063.837, 103.6694
1064.319, 102.8470
1064.802, 102.9145
1065.284, 103.7562
1065.766, 104.4904
1066.248, 105.0026
1066.730, 105.1765
1067.212, 104.8767
1067.694, 104.3720
1068.176, 104.1912
1068.658, 104.2388
1069.141, 104.1453
1069.623, 103.8187
1070.105, 103.5226
1070.587, 103.4561
1071.069, 103.4323
1071.551, 103.2850
1072.033, 103.0363
1072.515, 103.0772
1072.998, 103.4209
1073.480, 103.6006
1073.962, 103.2111
1074.444, 102.8619
1074.926, 103.3323
1075.408, 104.2442
1075.890, 105.0165
1076.372, 105.6344
1076.854, 105.9031
1077.337, 105.7905
1077.819, 105.4170
1078.301, 104.5547
1078.783, 103.6075
1079.265, 103.8219
1079.747, 104.9668
1080.229, 105.7388
1080.711, 105.2453
1081.193, 104.6817
1081.676, 104.2222
1082.158, 103.9991
1082.640, 104.3655
1083.122, 105.2488
1083.604, 105.9605
1084.086, 106.4024
1084.568, 106.6856
1085.050, 106.7048
1085.532, 106.7544
1086.015, 107.3084
1086.497, 108.2271
1086.979, 107.9825
1087.461, 106.3368
1087.943, 105.1536
1088.425, 105.1393
1088.907, 105.6545
1089.389, 106.2112
1089.872, 106.6175
1090.354, 106.5061
1090.836, 105.4062
1091.318, 104.9744
1091.800, 105.5164
1092.282, 106.2283
1092.764, 106.6818
1093.246, 106.9041
1093.729, 106.8401
1094.211, 106.5938
1094.693, 106.5538
1095.175, 107.3482
1095.657, 107.7637
1096.139, 107.1517
1096.621, 106.2885
1097.103, 106.0531
1097.585, 106.4138
1098.068, 106.6380
1098.550, 106.6842
1099.032, 106.5594
1099.514, 105.9047
1099.996, 105.4228
1100.478, 105.8574
1100.960, 106.8740
1101.442, 107.1499
1101.924, 106.5303
1102.407, 106.0720
1102.889, 105.9676
1103.371, 106.0766
1103.853, 106.5831
1104.335, 107.0084
1104.817, 106.5350
1105.299, 104.9075
1105.781, 104.3583
1106.264, 105.4860
1106.746, 106.5752
1107.228, 107.0269
1107.710, 107.0000
1108.192, 106.6118
1108.674, 106.0431
1109.156, 105.7008
1109.638, 105.7665
1110.120, 105.9417
1110.603, 106.3147
1111.085, 106.5808
1111.567, 106.4843
1112.049, 106.0967
1112.531, 105.7643
1113.013, 105.5577
1113.495, 105.8823
1113.977, 108.0186
1114.459, 109.5252
1114.942, 108.7216
1115.424, 106.8888
1115.906, 105.5743
1116.388, 104.7682
1116.870, 104.7152
1117.352, 105.4513
1117.834, 106.3429
1118.316, 107.1714
1118.799, 107.7035
1119.281, 107.5319
1119.763, 106.8585
1120.245, 106.5227
1120.727, 106.5263
1121.209, 107.0685
1121.691, 108.3541
1122.173, 109.5182
1122.656, 109.4685
1123.138, 108.7021
1123.620, 107.6511
1124.102, 106.3478
1124.584, 105.8406
1125.066, 106.5963
1125.548, 107.3256
1126.030, 107.5975
1126.512, 107.6603
1126.995, 108.2065
1127.477, 108.9065
1127.959, 108.8443
1128.441, 107.4596
1128.923, 106.6092
1129.405, 107.2391
1129.887, 108.1288
1130.369, 108.8095
1130.851, 109.2351
1131.334, 109.0015
1131.816, 108.2747
1132.298, 107.8441
1132.780, 108.2263
1133.262, 108.6870
1133.744, 108.9303
1134.226, 109.0592
1134.708, 109.1296
1135.191, 109.1254
1135.673, 109.4286
1136.155, 110.0248
1136.637, 110.3927
1137.119, 109.9060
1137.601, 109.3737
1138.083, 109.5383
1138.565, 110.0123
1139.047, 109.9578
1139.530, 109.2655
1140.012, 108.5477
1140.494, 107.8194
1140.976, 107.3850
1141.458, 107.6898
1141.940, 108.3020
1142.422, 108.9604
1142.904, 109.5578
1143.386, 109.6179
1143.869, 108.8210
1144.351, 108.4610
1144.833, 108.8434
1145.315, 109.4648
1145.797, 109.7058
1146.279, 109.7612
1146.761, 109.9115
1147.243, 110.1925
1147.726, 110.4516
1148.208, 110.8284
1148.690, 110.8292
1149.172, 110.1821
1149.654, 109.2671
1150.136, 108.7580
1150.618, 108.5512
1151.100, 108.4061
1151.583, 108.2116
1152.065, 108.3833
1152.547, 109.4753
1153.029, 110.2812
1153.511, 109.9981
1153.993, 109.1448
1154.475, 109.6307
1154.957, 111.0553
1155.439, 112.0923
1155.922, 112.2675
1156.404, 112.0078
1156.886, 111.0967
1157.368, 110.1312
1157.850, 109.3752
1158.332, 108.8700
1158.814, 109.2188
1159.296, 110.2893
1159.778, 111.2178
1160.261, 111.6759
1160.743, 111.7361
1161.225, 111.0848
1161.707, 110.2745
1162.189, 109.8675
1162.671, 109.8682
1163.153, 110.0468
1163.635, 110.3923
1164.118, 110.8142
1164.600, 111.3779
1165.082, 111.8633
1165.564, 112.1661
1166.046, 112.2685
1166.528, 112.0502
1167.010, 111.4281
1167.492, 111.4162
1167.974, 112.1429
1168.457, 112.8447
1168.939, 112.5858
1169.421, 112.3192
1169.903, 113.1199
1170.385, 114.6158
1170.867, 115.0120
1171.349, 114.0746
1171.831, 113.4009
1172.313, 113.2391
1172.796, 113.5246
1173.278, 114.6260
1173.760, 115.8284
1174.242, 116.4944
1174.724, 116.5320
1175.206, 115.9707
1175.688, 114.5052
1176.170, 113.9908
1176.653, 115.1823
1177.135, 116.6399
1177.617, 116.2694
1178.099, 115.2536
1178.581, 115.2163
1179.063, 116.5342
1179.545, 116.8522
1180.027, 115.7406
1180.510, 114.9518
1180.992, 115.2024
1181.474, 115.9565
1181.956, 116.6916
1182.438, 117.2794
1182.920, 117.4364
1183.402, 116.8968
1183.884, 116.8630
1184.366, 117.5998
1184.849, 118.1948
1185.331, 118.1293
1185.813, 117.7413
1186.295, 117.4786
1186.777, 117.4103
1187.259, 117.6976
1187.741, 118.6222
1188.223, 119.3790
1188.705, 119.9628
1189.188, 120.2816
1189.670, 120.0969
1190.152, 119.7171
1190.634, 119.9883
1191.116, 120.5837
1191.598, 120.7149
1192.080, 119.3305
1192.562, 118.7831
1193.045, 119.4594
1193.527, 120.3925
1194.009, 120.7231
1194.491, 120.7512
1194.973, 121.2658
1195.455, 122.1083
1195.937, 122.7196
1196.419, 122.7516
1196.901, 122.7396
1197.384, 122.7545
1197.866, 122.7260
1198.348, 122.5803
1198.830, 122.3405
1199.312, 122.0124
1199.794, 121.6295
1200.276, 121.3416
1200.758, 121.2682
1201.240, 121.2396
1201.723, 121.2976
1202.205, 121.2686
1202.687, 120.7553
1203.169, 120.0449
1203.651, 119.9447
1204.133, 120.4327
1204.615, 120.8213
1205.097, 120.6191
1205.580, 120.6399
1206.062, 121.1204
1206.544, 121.7443
1207.026, 122.0003
1207.508, 122.0463
1207.990, 122.3315
1208.472, 122.8794
1208.954, 123.2372
1209.437, 123.0981
1209.919, 122.9169
1210.401, 122.7673
1210.883, 122.6671
1211.365, 122.4191
1211.847, 122.2965
1212.329, 123.3054
1212.811, 125.6191
1213.293, 126.9576
1213.776, 125.8825
1214.258, 124.5662
1214.740, 123.3999
1215.222, 122.5306
1215.704, 122.4469
1216.186, 122.8253
1216.668, 122.8138
1217.150, 122.1962
1217.632, 122.0507
1218.115, 123.1042
1218.597, 124.0218
1219.079, 124.3420
1219.561, 124.3156
1220.043, 124.3722
1220.525, 124.5093
1221.007, 124.7290
1221.489, 125.0400
1221.972, 125.3975
1222.454, 125.9500
1222.936, 126.2456
1223.418, 126.0004
1223.900, 125.5411
1224.382, 125.6214
1224.864, 126.0144
1225.346, 126.2247
1225.828, 126.0682
1226.311, 126.0561
1226.793, 126.4272
1227.275, 126.5902
1227.757, 126.1756
1228.239, 125.5111
1228.721, 125.1265
1229.203, 125.0510
1229.685, 125.4062
1230.167, 126.4254
1230.650, 127.1851
1231.132, 127.5176
1231.614, 127.8435
1232.096, 128.4811
1232.578, 129.1278
1233.060, 129.1147
1233.542, 128.6890
1234.024, 128.2911
1234.507, 127.9316
1234.989, 127.9293
1235.471, 128.4276
1235.953, 128.8388
1236.435, 128.6557
1236.917, 128.3674
1237.399, 129.0785
1237.881, 130.2021
1238.364, 130.6139
1238.846, 129.5492
1239.328, 129.1276
1239.810, 129.5043
1240.292, 129.9186
1240.774, 129.8268
1241.256, 129.5875
1241.738, 129.5926
1242.220, 129.8394
1242.703, 130.3795
1243.185, 131.4494
1243.667, 132.0707
1244.149, 132.2046
1244.631, 132.0779
1245.113, 131.5618
1245.595, 131.1201
1246.077, 131.4414
1246.559, 132.1415
1247.042, 132.5461
1247.524, 132.5495
1248.006, 132.3947
1248.488, 132.0407
1248.970, 132.0513
1249.452, 133.4472
1249.934, 134.7327
1250.416, 134.2629
1250.899, 132.9774
1251.381, 132.4375
1251.863, 132.8911
1252.345, 132.7536
1252.827, 132.0154
1253.309, 131.5190
1253.791, 132.0379
1254.273, 132.7599
1254.755, 133.1631
1255.238, 133.4224
1255.720, 133.7765
1256.202, 134.2240
1256.684, 134.8623
1257.166, 135.6500
1257.648, 135.9807
1258.130, 134.7887
1258.612, 133.8414
1259.094, 134.3064
1259.577, 135.3269
1260.059, 136.2025
1260.541, 136.8990
1261.023, 136.6385
1261.505, 135.5707
1261.987, 134.9662
1262.469, 135.9280
1262.951, 136.9604
1263.434, 137.6593
1263.916, 138.1224
1264.398, 138.4742
1264.880, 138.6741
1265.362, 138.4889
1265.844, 137.9581
1266.326, 137.3381
1266.808, 136.1909
1267.291, 135.8469
1267.773, 136.7702
1268.255, 138.0190
1268.737, 138.7220
1269.219, 139.0085
1269.701, 139.1380
1270.183, 139.1537
1270.665, 139.1761
1271.147, 139.2928
1271.630, 139.3204
1272.112, 139.1864
1272.594, 139.1362
1273.076, 139.5362
1273.558, 140.0815
1274.040, 140.2686
1274.522, 140.1923
1275.004, 140.2063
1275.486, 140.4351
1275.969, 140.5198
1276.451, 140.3826
1276.933, 140.4108
1277.415, 141.2162
1277.897, 142.1151
1278.379, 142.2343
1278.861, 141.8950
1279.343, 141.9203
1279.825, 142.4019
1280.308, 142.9297
1280.790, 143.4793
1281.272, 144.1581
1281.754, 145.5301
1282.236, 146.5570
1282.718, 146.1808
1283.200, 145.1031
1283.682, 144.4758
1284.165, 144.3037
1284.647, 144.2785
1285.129, 144.3760
1285.611, 144.4626
1286.093, 144.4751
1286.575, 144.4334
1287.057, 144.2569
1287.539, 144.1105
1288.021, 144.1913
1288.504, 144.4654
1288.986, 144.7929
1289.468, 145.1455
1289.950, 145.3980
1290.432, 145.2837
1290.914, 145.3868
1291.396, 145.9332
1291.878, 146.5080
1292.360, 146.6739
1292.843, 146.5848
1293.325, 146.5731
1293.807, 146.6455
1294.289, 146.7906
1294.771, 147.0808
1295.253, 147.3242
1295.735, 147.5056
1296.217, 147.6640
1296.700, 147.8795
1297.182, 148.0554
1297.664, 147.8787
1298.146, 147.5680
1298.628, 147.7870
1299.110, 148.9358
1299.592, 149.3053
1300.074, 148.7707
1300.557, 148.2495
1301.039, 148.5592
1301.521, 148.9763
1302.003, 148.9504
1302.485, 148.6164
1302.967, 148.2677
1303.449, 147.9903
##END=



