##NAMES=Magnetite
##RRUFFID=R080025
##IDEAL CHEMISTRY=Fe^2+^Fe^3+^_2_O_4_
##LOCALITY=2500' level, Zinc Corporation of America mine #4, Balmat, New York, USA
##OWNER=RRUFF
##SOURCE=William W. Pinch
##DESCRIPTION=Black cubes
##STATUS=The identification of this mineral has been confirmed by X-ray diffraction.
##URL=rruff.info/R080025
157.5278, 17.61929
158.0099, 17.59294
158.4920, 17.64190
158.9741, 17.70737
159.4562, 17.73732
159.9383, 17.60437
160.4205, 17.53875
160.9026, 17.67623
161.3847, 18.03834
161.8668, 18.30955
162.3489, 18.36493
162.8310, 18.27672
163.3132, 18.12883
163.7953, 17.88314
164.2774, 17.63644
164.7595, 17.41127
165.2416, 17.19680
165.7237, 17.09319
166.2059, 17.25317
166.6880, 17.53821
167.1701, 17.73765
167.6522, 17.62622
168.1343, 17.48262
168.6164, 17.54100
169.0985, 17.87392
169.5807, 18.18811
170.0628, 18.28972
170.5449, 18.23375
171.0270, 18.12523
171.5091, 17.95326
171.9912, 17.78472
172.4734, 17.69153
172.9555, 17.69642
173.4376, 17.73280
173.9197, 17.78729
174.4018, 17.83619
174.8839, 17.81239
175.3661, 17.54139
175.8482, 17.21977
176.3303, 17.14268
176.8124, 17.43283
177.2945, 17.78617
177.7766, 17.85541
178.2588, 17.69433
178.7409, 17.52230
179.2230, 17.48495
179.7051, 17.52976
180.1872, 17.55921
180.6693, 17.55164
181.1515, 17.53214
181.6336, 17.53963
182.1157, 17.57009
182.5978, 17.59504
183.0799, 17.57582
183.5620, 17.53443
184.0442, 17.53898
184.5263, 17.62524
185.0084, 17.73245
185.4905, 17.75297
185.9726, 17.68897
186.4547, 17.60070
186.9369, 17.51938
187.4190, 17.44827
187.9011, 17.41404
188.3832, 17.45090
188.8653, 17.50081
189.3474, 17.40161
189.8296, 17.14673
190.3117, 16.90249
190.7938, 16.80803
191.2759, 16.85143
191.7580, 16.94283
192.2401, 17.07277
192.7223, 17.23281
193.2044, 17.43143
193.6865, 17.68376
194.1686, 17.87071
194.6507, 17.87586
195.1328, 17.70517
195.6150, 17.44084
196.0971, 17.03903
196.5792, 16.57220
197.0613, 16.34568
197.5434, 16.38531
198.0255, 16.53987
198.5077, 16.71308
198.9898, 16.91137
199.4719, 16.97764
199.9540, 16.79923
200.4361, 16.45330
200.9182, 16.43666
201.4004, 16.85649
201.8825, 17.27966
202.3646, 17.18893
202.8467, 16.51060
203.3288, 15.94841
203.8109, 15.68088
204.2931, 15.68157
204.7752, 15.75119
205.2573, 15.91720
205.7394, 16.08660
206.2215, 16.15820
206.7036, 16.11751
207.1858, 16.04848
207.6679, 15.94706
208.1500, 15.82088
208.6321, 15.80059
209.1142, 15.91330
209.5963, 16.08067
210.0785, 16.23486
210.5606, 16.38786
211.0427, 16.47570
211.5248, 16.46510
212.0069, 16.35909
212.4890, 16.29189
212.9712, 16.27458
213.4533, 16.27909
213.9354, 16.28109
214.4175, 16.28966
214.8996, 16.26573
215.3817, 16.18152
215.8639, 16.03737
216.3460, 15.96448
216.8281, 15.98996
217.3102, 16.05051
217.7923, 16.06841
218.2744, 16.01307
218.7565, 15.99699
219.2387, 16.06716
219.7208, 16.22776
220.2029, 16.30752
220.6850, 16.27958
221.1671, 16.20165
221.6492, 16.13136
222.1314, 16.05912
222.6135, 16.01509
223.0956, 16.00755
223.5777, 16.03683
224.0598, 16.09436
224.5419, 16.20155
225.0241, 16.31397
225.5062, 16.38540
225.9883, 16.40416
226.4704, 16.40275
226.9525, 16.37125
227.4346, 16.30513
227.9168, 16.31647
228.3989, 16.44880
228.8810, 16.61208
229.3631, 16.71302
229.8452, 16.73982
230.3273, 16.72712
230.8095, 16.66346
231.2916, 16.54505
231.7737, 16.48763
232.2558, 16.52292
232.7379, 16.58630
233.2200, 16.60898
233.7022, 16.55940
234.1843, 16.53114
234.6664, 16.54498
235.1485, 16.60114
235.6306, 16.66508
236.1127, 16.73285
236.5949, 16.81320
237.0770, 16.92603
237.5591, 17.12817
238.0412, 17.24854
238.5233, 17.22170
239.0054, 17.04763
239.4876, 16.97162
239.9697, 17.07496
240.4518, 17.18788
240.9339, 17.14348
241.4160, 16.81949
241.8981, 16.58075
242.3803, 16.50595
242.8624, 16.59054
243.3445, 16.66934
243.8266, 16.73532
244.3087, 16.80404
244.7908, 16.89351
245.2730, 17.03223
245.7551, 17.13320
246.2372, 17.17503
246.7193, 17.16193
247.2014, 17.14991
247.6835, 17.12472
248.1657, 17.11755
248.6478, 17.15689
249.1299, 17.27007
249.6120, 17.37041
250.0941, 17.44564
250.5762, 17.49835
251.0584, 17.55291
251.5405, 17.62731
252.0226, 17.67923
252.5047, 17.67483
252.9868, 17.59165
253.4689, 17.49716
253.9511, 17.34728
254.4332, 17.18146
254.9153, 17.26128
255.3974, 17.75441
255.8795, 18.23442
256.3616, 18.41105
256.8438, 18.15790
257.3259, 17.93135
257.8080, 17.74271
258.2901, 17.60783
258.7722, 17.59706
259.2543, 17.76790
259.7365, 17.96639
260.2186, 18.10777
260.7007, 18.16632
261.1828, 18.24414
261.6649, 18.36701
262.1470, 18.50521
262.6292, 18.55708
263.1113, 18.46700
263.5934, 18.40211
264.0755, 18.47388
264.5576, 18.75591
265.0397, 18.89481
265.5219, 18.81291
266.0040, 18.62932
266.4861, 18.64664
266.9682, 18.95597
267.4503, 19.23939
267.9324, 19.32099
268.4146, 19.13733
268.8967, 19.05727
269.3788, 19.10114
269.8609, 19.22877
270.3430, 19.38910
270.8251, 19.61350
271.3073, 19.76413
271.7894, 19.73401
272.2715, 19.49081
272.7536, 19.43099
273.2357, 19.60693
273.7178, 19.89013
274.2000, 20.09164
274.6821, 20.19599
275.1642, 20.28005
275.6463, 20.36499
276.1284, 20.45066
276.6105, 20.54756
277.0927, 20.66105
277.5748, 20.77397
278.0569, 20.86335
278.5390, 20.92700
279.0211, 20.98446
279.5032, 21.04220
279.9854, 21.09898
280.4675, 21.14068
280.9496, 21.16086
281.4317, 21.18821
281.9138, 21.27270
282.3959, 21.41830
282.8781, 21.51210
283.3602, 21.49896
283.8423, 21.41539
284.3244, 21.41413
284.8065, 21.49797
285.2886, 21.64338
285.7708, 21.88034
286.2529, 22.19881
286.7350, 22.40361
287.2171, 22.43233
287.6992, 22.33597
288.1813, 22.20574
288.6635, 22.03315
289.1456, 21.96119
289.6277, 22.17579
290.1098, 22.62841
290.5919, 22.98393
291.0740, 23.18249
291.5562, 23.27448
292.0383, 23.35667
292.5204, 23.42762
293.0025, 23.44183
293.4846, 23.29908
293.9667, 23.06433
294.4489, 22.97854
294.9310, 23.09480
295.4131, 23.30496
295.8952, 23.49621
296.3773, 23.66025
296.8594, 23.74898
297.3416, 23.68003
297.8237, 23.52236
298.3058, 23.45297
298.7879, 23.50112
299.2700, 23.55025
299.7521, 23.40152
300.2343, 23.12423
300.7164, 22.94807
301.1985, 23.09373
301.6806, 23.37054
302.1627, 23.46191
302.6448, 23.34945
303.1270, 23.18737
303.6091, 23.08090
304.0912, 23.03009
304.5733, 23.03034
305.0554, 23.09259
305.5375, 23.19865
306.0197, 23.38824
306.5018, 23.65022
306.9839, 23.79807
307.4660, 23.54688
307.9481, 23.12752
308.4302, 22.87638
308.9124, 23.05063
309.3945, 23.27693
309.8766, 23.26690
310.3587, 23.04259
310.8408, 22.71861
311.3229, 22.19341
311.8051, 21.67497
312.2872, 21.39919
312.7693, 21.50399
313.2514, 21.71345
313.7335, 21.96377
314.2156, 22.20722
314.6978, 22.30911
315.1799, 22.09809
315.6620, 21.78934
316.1441, 21.53345
316.6262, 21.35714
317.1083, 21.22345
317.5905, 21.13015
318.0726, 21.06753
318.5547, 21.01760
319.0368, 20.99923
319.5189, 20.97249
320.0010, 20.94029
320.4832, 20.92238
320.9653, 20.79518
321.4474, 20.36242
321.9295, 19.85565
322.4116, 19.54579
322.8937, 19.71525
323.3759, 19.87413
323.8580, 19.85509
324.3401, 19.64180
324.8222, 19.47948
325.3043, 19.43014
325.7864, 19.43097
326.2686, 19.43353
326.7507, 19.52940
327.2328, 19.52046
327.7149, 19.30410
328.1970, 18.91021
328.6791, 18.64744
329.1613, 18.59880
329.6434, 18.62043
330.1255, 18.64343
330.6076, 18.69899
331.0897, 18.71150
331.5718, 18.68794
332.0540, 18.61985
332.5361, 18.47148
333.0182, 18.13023
333.5003, 17.85519
333.9824, 17.77608
334.4645, 17.99535
334.9467, 18.09460
335.4288, 18.04971
335.9109, 17.90119
336.3930, 17.69092
336.8751, 17.34835
337.3572, 17.10834
337.8394, 17.07372
338.3215, 17.25726
338.8036, 17.35776
339.2857, 17.37012
339.7678, 17.30804
340.2499, 17.14750
340.7320, 16.85871
341.2141, 16.66996
341.6963, 16.65834
342.1784, 16.78485
342.6605, 16.87976
343.1426, 16.94403
343.6247, 16.96807
344.1068, 16.94714
344.5890, 16.88140
345.0711, 16.74477
345.5532, 16.50640
346.0353, 16.23478
346.5174, 16.07020
346.9995, 16.01075
347.4817, 16.02291
347.9638, 16.13256
348.4459, 16.30414
348.9280, 16.40811
349.4101, 16.43187
349.8922, 16.40099
350.3744, 16.32805
350.8565, 16.22244
351.3386, 16.11856
351.8207, 16.03753
352.3028, 15.96805
352.7849, 15.88331
353.2671, 15.78195
353.7492, 15.69541
354.2313, 15.63427
354.7134, 15.60862
355.1955, 15.64413
355.6776, 15.84676
356.1598, 16.02047
356.6419, 15.94713
357.1240, 15.66358
357.6061, 15.36678
358.0882, 15.08724
358.5703, 14.89405
359.0525, 14.88886
359.5346, 15.19940
360.0167, 15.48457
360.4988, 15.49818
360.9809, 15.33773
361.4630, 15.21659
361.9452, 15.27788
362.4273, 15.36148
362.9094, 15.36622
363.3915, 15.25887
363.8736, 15.17565
364.3557, 15.19645
364.8379, 15.25386
365.3200, 15.26903
365.8021, 15.16081
366.2842, 15.07053
366.7663, 15.05867
367.2484, 15.12723
367.7306, 15.15366
368.2127, 15.09328
368.6948, 15.00575
369.1769, 14.93027
369.6590, 14.87959
370.1411, 14.82732
370.6233, 14.76960
371.1054, 14.70892
371.5875, 14.65282
372.0696, 14.58704
372.5517, 14.54414
373.0338, 14.54797
373.5160, 14.63860
373.9981, 14.64871
374.4802, 14.51121
374.9623, 14.34678
375.4444, 14.37685
375.9265, 14.69212
376.4087, 14.94783
376.8908, 15.01802
377.3729, 14.91118
377.8550, 14.89891
378.3371, 15.02302
378.8192, 15.13041
379.3014, 15.03938
379.7835, 14.73841
380.2656, 14.47618
380.7477, 14.29884
381.2298, 14.19000
381.7119, 14.08970
382.1941, 13.99704
382.6762, 13.98898
383.1583, 14.21594
383.6404, 14.59141
384.1225, 14.73240
384.6046, 14.55828
385.0868, 14.30676
385.5689, 14.31573
386.0510, 14.51663
386.5331, 14.65179
387.0152, 14.51074
387.4973, 14.26968
387.9795, 14.20281
388.4616, 14.31318
388.9437, 14.43517
389.4258, 14.43614
389.9079, 14.36920
390.3900, 14.30945
390.8722, 14.28415
391.3543, 14.26885
391.8364, 14.23275
392.3185, 14.18841
392.8006, 14.18083
393.2827, 14.32237
393.7649, 14.45014
394.2470, 14.42430
394.7291, 14.15013
395.2112, 13.92552
395.6933, 13.89135
396.1754, 13.96384
396.6576, 14.01768
397.1397, 14.01316
397.6218, 13.99433
398.1039, 13.96012
398.5860, 13.90576
399.0681, 13.89915
399.5503, 13.97652
400.0324, 14.08695
400.5145, 14.19290
400.9966, 14.31118
401.4787, 14.40392
401.9608, 14.48438
402.4430, 14.53938
402.9251, 14.50655
403.4072, 14.31868
403.8893, 14.14463
404.3714, 14.06249
404.8535, 14.08864
405.3357, 14.15359
405.8178, 14.30531
406.2999, 14.43141
406.7820, 14.30571
407.2641, 13.85840
407.7462, 13.56987
408.2284, 13.63417
408.7105, 13.97383
409.1926, 14.23149
409.6747, 14.41069
410.1568, 14.48335
410.6389, 14.35018
411.1211, 14.05945
411.6032, 13.89477
412.0853, 13.93425
412.5674, 14.05546
413.0495, 14.07415
413.5316, 14.00721
414.0138, 13.94062
414.4959, 13.92569
414.9780, 13.93874
415.4601, 13.94293
415.9422, 13.93540
416.4243, 13.93282
416.9065, 13.98549
417.3886, 14.04366
417.8707, 14.02790
418.3528, 13.74080
418.8349, 13.53415
419.3170, 13.74340
419.7992, 14.27167
420.2813, 14.65343
420.7634, 14.57645
421.2455, 14.36288
421.7276, 14.23151
422.2097, 14.26410
422.6919, 14.26246
423.1740, 14.10517
423.6561, 13.89963
424.1382, 13.80701
424.6203, 13.99466
425.1024, 14.15685
425.5846, 14.20483
426.0667, 14.13034
426.5488, 14.08599
427.0309, 14.10719
427.5130, 14.12686
427.9951, 14.08893
428.4773, 13.92949
428.9594, 13.86047
429.4415, 13.94425
429.9236, 14.10480
430.4057, 14.13402
430.8878, 13.98880
431.3700, 13.84508
431.8521, 13.78998
432.3342, 13.82357
432.8163, 13.79604
433.2984, 13.68248
433.7805, 13.59457
434.2627, 13.71535
434.7448, 14.01668
435.2269, 14.20575
435.7090, 14.17310
436.1911, 14.02317
436.6732, 13.95334
437.1554, 13.95742
437.6375, 13.99044
438.1196, 14.08808
438.6017, 14.17627
439.0838, 14.09838
439.5659, 13.80489
440.0480, 13.51836
440.5302, 13.40880
441.0123, 13.43480
441.4944, 13.52691
441.9765, 13.76115
442.4586, 13.96592
442.9407, 14.00254
443.4229, 13.89096
443.9050, 13.80839
444.3871, 13.87784
444.8692, 13.96845
445.3513, 13.99340
445.8334, 13.91119
446.3156, 13.81229
446.7977, 13.67817
447.2798, 13.54323
447.7619, 13.46933
448.2440, 13.48094
448.7261, 13.53418
449.2083, 13.64635
449.6904, 13.82527
450.1725, 13.91322
450.6546, 13.88334
451.1367, 13.79534
451.6188, 13.67476
452.1010, 13.48508
452.5831, 13.39522
453.0652, 13.44775
453.5473, 13.57947
454.0294, 13.64887
454.5115, 13.64998
454.9937, 13.63764
455.4758, 13.61685
455.9579, 13.59860
456.4400, 13.66533
456.9221, 13.82709
457.4042, 13.98384
457.8864, 14.03415
458.3685, 14.00085
458.8506, 13.94633
459.3327, 13.87079
459.8148, 13.80639
460.2969, 13.79613
460.7791, 13.83023
461.2612, 13.87689
461.7433, 13.93762
462.2254, 13.99126
462.7075, 14.01573
463.1896, 14.00780
463.6718, 13.99161
464.1539, 13.97032
464.6360, 13.95142
465.1181, 13.94278
465.6002, 13.97792
466.0823, 13.98965
466.5645, 13.92338
467.0466, 13.81077
467.5287, 13.77321
468.0108, 13.90796
468.4929, 14.04429
468.9750, 14.11979
469.4572, 14.11727
469.9393, 14.12136
470.4214, 14.16825
470.9035, 14.18807
471.3856, 14.06544
471.8677, 13.69633
472.3499, 13.53045
472.8320, 13.71223
473.3141, 14.12032
473.7962, 14.32320
474.2783, 14.29770
474.7604, 14.23553
475.2426, 14.25770
475.7247, 14.34554
476.2068, 14.37480
476.6889, 14.33367
477.1710, 14.28381
477.6531, 14.29768
478.1353, 14.35820
478.6174, 14.41551
479.0995, 14.43223
479.5816, 14.46304
480.0637, 14.60103
480.5458, 14.81522
481.0280, 14.98819
481.5101, 15.05496
481.9922, 15.05281
482.4743, 14.99508
482.9564, 14.87169
483.4385, 14.76222
483.9207, 14.70058
484.4028, 14.66926
484.8849, 14.65032
485.3670, 14.64297
485.8491, 14.64506
486.3312, 14.66272
486.8134, 14.69213
487.2955, 14.71506
487.7776, 14.75504
488.2597, 14.75974
488.7418, 14.68815
489.2239, 14.50439
489.7061, 14.42584
490.1882, 14.47593
490.6703, 14.59694
491.1524, 14.74961
491.6345, 14.94761
492.1166, 15.06921
492.5988, 15.07384
493.0809, 15.00691
493.5630, 14.96739
494.0451, 14.95537
494.5272, 14.98793
495.0093, 15.10411
495.4915, 15.26777
495.9736, 15.40730
496.4557, 15.51985
496.9378, 15.59045
497.4199, 15.56718
497.9020, 15.50164
498.3842, 15.47555
498.8663, 15.53828
499.3484, 15.61089
499.8305, 15.64844
500.3126, 15.65754
500.7947, 15.65483
501.2769, 15.59681
501.7590, 15.57112
502.2411, 15.63453
502.7232, 15.80699
503.2053, 15.95351
503.6874, 16.03886
504.1696, 16.10147
504.6517, 16.16618
505.1338, 16.22375
505.6159, 16.30255
506.0980, 16.42845
506.5801, 16.56483
507.0623, 16.61481
507.5444, 16.54729
508.0265, 16.49219
508.5086, 16.48456
508.9907, 16.52686
509.4728, 16.67785
509.9550, 16.95599
510.4371, 17.19588
510.9192, 17.16698
511.4013, 16.96011
511.8834, 16.94941
512.3655, 17.23518
512.8477, 17.58560
513.3298, 17.71259
513.8119, 17.69309
514.2940, 17.70986
514.7761, 17.93432
515.2582, 18.15906
515.7404, 18.19221
516.2225, 18.05980
516.7046, 17.96585
517.1867, 17.99191
517.6688, 18.09294
518.1509, 18.25365
518.6331, 18.51430
519.1152, 18.72953
519.5973, 18.84312
520.0794, 18.90958
520.5615, 18.99817
521.0436, 19.14762
521.5258, 19.25736
522.0079, 19.29690
522.4900, 19.28272
522.9721, 19.29528
523.4542, 19.33688
523.9363, 19.39699
524.4185, 19.44655
524.9006, 19.48705
525.3827, 19.68701
525.8648, 20.07859
526.3469, 20.47339
526.8290, 20.64532
527.3112, 20.64089
527.7933, 20.63272
528.2754, 20.64348
528.7575, 20.70276
529.2396, 20.89837
529.7217, 21.18101
530.2039, 21.40200
530.6860, 21.50455
531.1681, 21.50456
531.6502, 21.31351
532.1323, 20.93854
532.6144, 20.78779
533.0966, 21.23286
533.5787, 21.82171
534.0608, 22.24780
534.5429, 22.45022
535.0250, 22.50327
535.5071, 22.31284
535.9893, 22.01300
536.4714, 21.80343
536.9535, 21.74793
537.4356, 21.65434
537.9177, 21.44590
538.3998, 21.15934
538.8820, 21.06464
539.3641, 21.20591
539.8462, 21.34022
540.3283, 21.27979
540.8104, 21.06076
541.2925, 20.96325
541.7747, 21.01782
542.2568, 21.07002
542.7389, 20.88156
543.2210, 20.56509
543.7031, 20.40717
544.1852, 20.59159
544.6674, 20.79365
545.1495, 20.67101
545.6316, 20.32956
546.1137, 20.03357
546.5958, 19.90591
547.0779, 19.85238
547.5601, 19.87896
548.0422, 19.98831
548.5243, 19.95724
549.0064, 19.54467
549.4885, 19.11499
549.9706, 18.90446
550.4528, 19.09973
550.9349, 19.15868
551.4170, 19.01159
551.8991, 18.78384
552.3812, 18.67416
552.8633, 18.72386
553.3455, 18.71863
553.8276, 18.58950
554.3097, 18.37980
554.7918, 18.25696
555.2739, 18.22301
555.7560, 18.12039
556.2382, 17.73198
556.7203, 17.22935
557.2024, 17.04069
557.6845, 17.19282
558.1666, 17.37686
558.6487, 17.31491
559.1309, 17.14064
559.6130, 17.03096
560.0951, 17.06787
560.5772, 17.09893
561.0593, 17.00563
561.5414, 16.86386
562.0236, 16.80878
562.5057, 16.98450
562.9878, 17.13340
563.4699, 17.18661
563.9520, 17.14912
564.4341, 17.07354
564.9163, 16.96047
565.3984, 16.80695
565.8805, 16.57716
566.3626, 16.22955
566.8447, 16.09129
567.3268, 16.22089
567.8090, 16.39099
568.2911, 16.29430
568.7732, 15.96849
569.2553, 15.77939
569.7374, 15.84938
570.2195, 15.98493
570.7017, 15.86162
571.1838, 15.56490
571.6659, 15.36749
572.1480, 15.49424
572.6301, 15.70831
573.1122, 15.83920
573.5944, 15.88488
574.0765, 15.85705
574.5586, 15.63633
575.0407, 15.43644
575.5228, 15.40377
576.0049, 15.63440
576.4871, 15.81182
576.9692, 15.91825
577.4513, 15.95737
577.9334, 15.91945
578.4155, 15.74877
578.8976, 15.63917
579.3798, 15.63472
579.8619, 15.68738
580.3440, 15.67585
580.8261, 15.59482
581.3082, 15.51884
581.7903, 15.46921
582.2725, 15.45095
582.7546, 15.50927
583.2367, 15.63616
583.7188, 15.72408
584.2009, 15.63895
584.6830, 15.48977
585.1652, 15.42777
585.6473, 15.48346
586.1294, 15.54869
586.6115, 15.51752
587.0936, 15.48111
587.5757, 15.53609
588.0578, 15.84975
588.5399, 16.08775
589.0220, 16.14757
589.5042, 16.09290
589.9863, 16.07573
590.4684, 16.13215
590.9505, 16.16660
591.4326, 16.14525
591.9147, 16.07684
592.3969, 16.03361
592.8790, 16.01248
593.3611, 16.02993
593.8432, 16.11773
594.3253, 16.25921
594.8074, 16.38247
595.2896, 16.48804
595.7717, 16.54304
596.2538, 16.43586
596.7359, 16.27089
597.2180, 16.26358
597.7001, 16.56594
598.1823, 16.82536
598.6644, 16.70444
599.1465, 16.39643
599.6286, 16.23253
600.1107, 16.45440
600.5928, 16.69770
601.0750, 16.85459
601.5571, 16.93056
602.0392, 17.01023
602.5213, 17.07906
603.0034, 17.17643
603.4855, 17.35727
603.9677, 17.64360
604.4498, 17.66129
604.9319, 17.32393
605.4140, 16.98692
605.8961, 17.02759
606.3782, 17.38781
606.8604, 17.69072
607.3425, 17.89659
607.8246, 18.01479
608.3067, 17.97161
608.7888, 17.85287
609.2709, 17.84951
609.7531, 18.12705
610.2352, 18.42699
610.7173, 18.56456
611.1994, 18.59036
611.6815, 18.64379
612.1636, 18.81842
612.6458, 18.98285
613.1279, 19.07202
613.6100, 19.07970
614.0921, 19.14448
614.5742, 19.31204
615.0563, 19.47783
615.5385, 19.57601
616.0206, 19.58918
616.5027, 19.63227
616.9848, 19.69462
617.4669, 19.81832
617.9490, 20.11015
618.4312, 20.52501
618.9133, 20.81146
619.3954, 20.89700
619.8775, 20.90370
620.3596, 20.93616
620.8417, 21.00389
621.3239, 21.12607
621.8060, 21.37933
622.2881, 21.62838
622.7702, 21.74796
623.2523, 21.78432
623.7344, 21.92886
624.2166, 22.31765
624.6987, 22.74414
625.1808, 23.14462
625.6629, 23.52402
626.1450, 23.80817
626.6271, 23.94200
627.1093, 24.07404
627.5914, 24.31632
628.0735, 24.67706
628.5556, 25.03236
629.0377, 25.37865
629.5198, 25.70300
630.0020, 25.98809
630.4841, 26.24103
630.9662, 26.47598
631.4483, 26.67679
631.9304, 26.90468
632.4125, 27.25473
632.8947, 27.67238
633.3768, 28.05551
633.8589, 28.24283
634.3410, 28.50165
634.8231, 29.02827
635.3052, 29.76106
635.7874, 30.32217
636.2695, 30.46410
636.7516, 30.65483
637.2337, 31.03601
637.7158, 31.61396
638.1979, 32.35349
638.6801, 33.33112
639.1622, 34.26117
639.6443, 34.87919
640.1264, 35.21723
640.6085, 35.59106
641.0906, 36.01465
641.5728, 36.51999
642.0549, 37.18262
642.5370, 37.94544
643.0191, 38.71463
643.5012, 39.45705
643.9833, 40.21841
644.4655, 41.14823
644.9476, 42.09551
645.4297, 42.84061
645.9118, 42.95046
646.3939, 43.25161
646.8760, 44.08127
647.3582, 45.28971
647.8403, 46.27752
648.3224, 46.95214
648.8045, 47.61414
649.2866, 48.39557
649.7687, 49.28128
650.2509, 50.06280
650.7330, 50.74360
651.2151, 51.35292
651.6972, 51.80022
652.1793, 52.21453
652.6614, 52.93691
653.1436, 54.00475
653.6257, 55.09656
654.1078, 55.91908
654.5899, 56.63498
655.0720, 57.45861
655.5541, 58.57671
656.0363, 59.50171
656.5184, 59.88018
657.0005, 60.04911
657.4826, 60.46597
657.9647, 61.40361
658.4468, 62.13908
658.9290, 62.50853
659.4111, 62.67036
659.8932, 63.02282
660.3753, 63.58932
660.8574, 64.15788
661.3395, 64.72437
661.8217, 65.19240
662.3038, 65.21445
662.7859, 64.85420
663.2680, 64.55285
663.7501, 64.71407
664.2322, 64.98441
664.7144, 65.04265
665.1965, 64.87185
665.6786, 64.55222
666.1607, 63.87614
666.6428, 63.24147
667.1249, 62.95910
667.6071, 63.33080
668.0892, 63.27803
668.5713, 62.58439
669.0534, 61.70334
669.5355, 61.07682
670.0176, 60.76656
670.4998, 60.23077
670.9819, 59.35783
671.4640, 58.40804
671.9461, 57.77898
672.4282, 57.40949
672.9103, 57.04256
673.3925, 56.69546
673.8746, 56.16177
674.3567, 55.01661
674.8388, 53.53962
675.3209, 52.33778
675.8030, 51.94598
676.2852, 51.60107
676.7673, 51.00201
677.2494, 50.17574
677.7315, 49.35313
678.2136, 48.42764
678.6957, 47.67473
679.1779, 47.32881
679.6600, 47.34472
680.1421, 46.66317
680.6242, 45.15324
681.1063, 43.66791
681.5884, 42.90979
682.0706, 42.63633
682.5527, 42.03077
683.0348, 41.03493
683.5169, 40.05729
683.9990, 39.44550
684.4811, 38.99962
684.9633, 38.48423
685.4454, 37.83422
685.9275, 37.19361
686.4096, 36.64430
686.8917, 36.10845
687.3738, 35.48970
687.8560, 34.66169
688.3381, 33.97716
688.8202, 33.49211
689.3023, 33.11556
689.7844, 32.70135
690.2665, 32.24335
690.7487, 31.76871
691.2308, 31.26357
691.7129, 30.77540
692.1950, 30.42777
692.6771, 30.16963
693.1592, 29.81217
693.6414, 29.16140
694.1235, 28.45926
694.6056, 27.88627
695.0877, 27.42954
695.5698, 27.00304
696.0519, 26.57365
696.5341, 26.17978
697.0162, 25.88074
697.4983, 25.67517
697.9804, 25.26825
698.4625, 24.53543
698.9446, 23.85546
699.4268, 23.49125
699.9089, 23.42150
700.3910, 23.24036
700.8731, 22.94073
701.3552, 22.62024
701.8373, 22.35699
702.3195, 22.13215
702.8016, 21.92964
703.2837, 21.75320
703.7658, 21.54345
704.2479, 21.27620
704.7300, 20.95131
705.2122, 20.55941
705.6943, 19.97141
706.1764, 19.53175
706.6585, 19.33326
707.1406, 19.23852
707.6227, 19.08803
708.1049, 18.87328
708.5870, 18.62853
709.0691, 18.34423
709.5512, 18.06260
710.0333, 17.87744
710.5154, 17.77012
710.9976, 17.64322
711.4797, 17.43864
711.9618, 17.23241
712.4439, 17.12439
712.9260, 17.07788
713.4081, 17.00158
713.8903, 16.90766
714.3724, 16.72764
714.8545, 16.35274
715.3366, 15.83400
715.8187, 15.49709
716.3008, 15.40604
716.7830, 15.38996
717.2651, 15.42635
717.7472, 15.49625
718.2293, 15.41470
718.7114, 15.17171
719.1935, 14.94538
719.6757, 14.88593
720.1578, 14.90861
720.6399, 14.84295
721.1220, 14.68880
721.6041, 14.53114
722.0862, 14.41050
722.5684, 14.32147
723.0505, 14.28829
723.5326, 14.34886
724.0147, 14.28197
724.4968, 13.88377
724.9789, 13.49866
725.4611, 13.36514
725.9432, 13.58450
726.4253, 13.65461
726.9074, 13.54595
727.3895, 13.36753
727.8716, 13.20798
728.3538, 13.07390
728.8359, 13.01804
729.3180, 13.07013
729.8001, 13.10144
730.2822, 12.96837
730.7643, 12.75146
731.2465, 12.55556
731.7286, 12.37605
732.2107, 12.27354
732.6928, 12.33476
733.1749, 12.45915
733.6570, 12.48608
734.1392, 12.34387
734.6213, 12.27430
735.1034, 12.35255
735.5855, 12.47123
736.0676, 12.36953
736.5497, 12.06555
737.0319, 11.84084
737.5140, 11.81820
737.9961, 11.88424
738.4782, 11.91283
738.9603, 11.91141
739.4424, 11.89896
739.9246, 11.90679
740.4067, 11.88319
740.8888, 11.78053
741.3709, 11.62001
741.8530, 11.49766
742.3351, 11.43131
742.8173, 11.38196
743.2994, 11.33443
743.7815, 11.29438
744.2636, 11.31096
744.7457, 11.39064
745.2278, 11.43675
745.7100, 11.35016
746.1921, 11.20902
746.6742, 11.17803
747.1563, 11.24278
747.6384, 11.30200
748.1205, 11.27870
748.6027, 11.24344
749.0848, 11.27509
749.5669, 11.38308
750.0490, 11.36791
750.5311, 11.09035
751.0132, 10.81327
751.4954, 10.64952
751.9775, 10.60377
752.4596, 10.62172
752.9417, 10.72009
753.4238, 10.80046
753.9059, 10.76282
754.3881, 10.65196
754.8702, 10.56503
755.3523, 10.50921
755.8344, 10.52083
756.3165, 10.75552
756.7986, 10.99060
757.2808, 10.99236
757.7629, 10.63593
758.2450, 10.39091
758.7271, 10.39365
759.2092, 10.48196
759.6913, 10.56474
760.1735, 10.66009
760.6556, 10.65318
761.1377, 10.51401
761.6198, 10.35876
762.1019, 10.33724
762.5840, 10.40646
763.0662, 10.42354
763.5483, 10.35713
764.0304, 10.27984
764.5125, 10.25244
764.9946, 10.24912
765.4767, 10.23701
765.9589, 10.17204
766.4410, 10.16378
766.9231, 10.29326
767.4052, 10.44888
767.8873, 10.50673
768.3694, 10.43173
768.8516, 10.39736
769.3337, 10.43283
769.8158, 10.48951
770.2979, 10.49773
770.7800, 10.46623
771.2621, 10.42663
771.7443, 10.38826
772.2264, 10.34163
772.7085, 10.25968
773.1906, 10.16972
773.6727, 10.11246
774.1548, 10.18041
774.6370, 10.17924
775.1191, 9.983044
775.6012, 9.742347
776.0833, 9.722356
776.5654, 9.994356
777.0475, 10.18284
777.5297, 10.20117
778.0118, 10.13562
778.4939, 10.13222
778.9760, 10.17777
779.4581, 10.22752
779.9402, 10.29336
780.4224, 10.31505
780.9045, 10.18360
781.3866, 9.982153
781.8687, 9.868258
782.3508, 9.990930
782.8329, 10.07514
783.3151, 10.03400
783.7972, 9.934908
784.2793, 9.950744
784.7614, 10.11651
785.2435, 10.19495
785.7256, 10.08528
786.2077, 9.900225
786.6898, 9.886724
787.1719, 10.00109
787.6541, 10.08387
788.1362, 10.05570
788.6183, 9.981460
789.1004, 9.861904
789.5825, 9.729719
790.0646, 9.669941
790.5468, 9.806750
791.0289, 9.884530
791.5110, 9.810468
791.9931, 9.655930
792.4752, 9.676514
792.9573, 9.900282
793.4395, 10.03886
793.9216, 9.946509
794.4037, 9.757036
794.8858, 9.732896
795.3679, 9.831306
795.8500, 9.918299
796.3322, 9.932216
796.8143, 9.913640
797.2964, 9.864411
797.7785, 9.797952
798.2606, 9.762656
798.7427, 9.779428
799.2249, 9.802197
799.7070, 9.820180
800.1891, 9.836846
800.6712, 9.881698
801.1533, 9.955609
801.6354, 9.969913
802.1176, 9.852527
802.5997, 9.688628
803.0818, 9.582973
803.5639, 9.534503
804.0460, 9.539906
804.5281, 9.671469
805.0103, 9.780770
805.4924, 9.793455
805.9745, 9.726063
806.4566, 9.664784
806.9387, 9.592913
807.4208, 9.569671
807.9030, 9.631311
808.3851, 9.739888
808.8672, 9.786222
809.3493, 9.772886
809.8314, 9.722269
810.3135, 9.605205
810.7957, 9.492846
811.2778, 9.451578
811.7599, 9.474512
812.2420, 9.542346
812.7241, 9.780218
813.2062, 9.913240
813.6884, 9.764979
814.1705, 9.453712
814.6526, 9.378672
815.1347, 9.609799
815.6168, 9.790009
816.0989, 9.808061
816.5811, 9.710704
817.0632, 9.523209
817.5453, 9.291324
818.0274, 9.203395
818.5095, 9.548395
818.9916, 9.878773
819.4738, 9.829149
819.9559, 9.534433
820.4380, 9.356932
820.9201, 9.503394
821.4022, 9.594753
821.8843, 9.543682
822.3665, 9.408799
822.8486, 9.331326
823.3307, 9.311889
823.8128, 9.356892
824.2949, 9.506165
824.7770, 9.665416
825.2592, 9.695616
825.7413, 9.626271
826.2234, 9.530028
826.7055, 9.368759
827.1876, 9.260992
827.6697, 9.283140
828.1519, 9.386716
828.6340, 9.456130
829.1161, 9.475095
829.5982, 9.496753
830.0803, 9.533613
830.5624, 9.573966
831.0446, 9.592126
831.5267, 9.592176
832.0088, 9.602448
832.4909, 9.658326
832.9730, 9.678211
833.4551, 9.521520
833.9373, 9.296527
834.4194, 9.178089
834.9015, 9.322098
835.3836, 9.434937
835.8657, 9.485629
836.3478, 9.484258
836.8300, 9.424194
837.3121, 9.293538
837.7942, 9.227814
838.2763, 9.255935
838.7584, 9.337463
839.2405, 9.457623
839.7227, 9.582997
840.2048, 9.638131
840.6869, 9.568110
841.1690, 9.502012
841.6511, 9.497982
842.1332, 9.532638
842.6154, 9.577478
843.0975, 9.620481
843.5796, 9.713011
844.0617, 9.908282
844.5438, 10.05742
845.0259, 9.922329
845.5081, 9.565203
845.9902, 9.274202
846.4723, 9.081890
846.9544, 9.028027
847.4365, 9.274597
847.9186, 9.613011
848.4008, 9.815059
848.8829, 9.816909
849.3650, 9.742214
849.8471, 9.526735
850.3292, 9.325349
850.8113, 9.271995
851.2935, 9.388106
851.7756, 9.430132
852.2577, 9.384011
852.7398, 9.317805
853.2219, 9.294967
853.7040, 9.291792
854.1862, 9.261182
854.6683, 9.196017
855.1504, 9.160151
855.6325, 9.219774
856.1146, 9.288918
856.5967, 9.305231
857.0789, 9.259388
857.5610, 9.250854
858.0431, 9.293180
858.5252, 9.331136
859.0073, 9.318027
859.4894, 9.271190
859.9716, 9.248647
860.4537, 9.250582
860.9358, 9.274667
861.4179, 9.375175
861.9000, 9.450945
862.3821, 9.399524
862.8643, 9.227271
863.3464, 9.136968
863.8285, 9.224062
864.3106, 9.256323
864.7927, 9.115034
865.2748, 8.861069
865.7570, 8.799967
866.2391, 8.921052
866.7212, 9.049621
867.2033, 9.124980
867.6854, 9.139159
868.1675, 9.021230
868.6497, 8.831515
869.1318, 8.746378
869.6139, 8.984305
870.0960, 9.138198
870.5781, 9.070806
871.0602, 8.870227
871.5424, 8.750884
872.0245, 8.718695
872.5066, 8.715555
872.9887, 8.739353
873.4708, 8.468565
873.9529, 8.810939
874.4351, 8.997124
874.9172, 9.035524
875.3993, 8.483483
875.8814, 8.693872
876.3635, 8.598715
876.8456, 8.491029
877.3278, 8.808722
877.8099, 8.342563
878.2920, 8.653514
878.7741, 8.654256
879.2562, 8.796973
879.7383, 8.632257
880.2205, 8.562493
880.7026, 8.800268
881.1847, 8.867757
881.6668, 8.667649
882.1489, 8.819391
882.6310, 8.342491
883.1132, 8.417229
883.5953, 8.729981
884.0774, 8.545332
884.5595, 8.702695
885.0416, 8.729800
885.5237, 8.164942
886.0059, 8.629565
886.4880, 8.648974
886.9701, 8.211240
887.4522, 8.640592
887.9343, 8.265879
888.4164, 8.178169
888.8986, 8.306442
889.3807, 8.209561
889.8628, 8.467669
890.3449, 8.383789
890.8270, 8.269354
891.3091, 8.288263
891.7913, 8.377489
892.2734, 8.428514
892.7555, 8.383800
893.2376, 8.315088
893.7197, 8.245366
894.2018, 8.182456
894.6840, 8.112895
895.1661, 8.054244
895.6482, 8.055855
896.1303, 8.262009
896.6124, 8.362943
897.0945, 8.250736
897.5767, 8.025578
898.0588, 7.904231
898.5409, 7.888632
899.0230, 7.884349
899.5051, 7.875694
899.9872, 7.852097
900.4694, 7.783299
900.9515, 7.694842
901.4336, 7.630294
901.9157, 7.613920
902.3978, 7.598190
902.8799, 7.562820
903.3621, 7.528617
903.8442, 7.518475
904.3263, 7.541206
904.8084, 7.521468
905.2905, 7.442675
905.7726, 7.394205
906.2548, 7.548059
906.7369, 7.755215
907.2190, 7.731809
907.7011, 7.443336
908.1832, 7.189072
908.6653, 7.108673
909.1475, 7.099236
909.6296, 7.102084
910.1117, 7.116335
910.5938, 7.192065
911.0759, 7.350892
911.5580, 7.452069
912.0402, 7.362878
912.5223, 7.192819
913.0044, 7.182792
913.4865, 7.292703
913.9686, 7.376564
914.4507, 7.357229
914.9329, 7.305243
915.4150, 7.231739
915.8971, 7.149330
916.3792, 7.083259
916.8613, 7.028795
917.3434, 7.017292
917.8256, 7.067948
918.3077, 7.138376
918.7898, 7.172831
919.2719, 7.171784
919.7540, 7.126531
920.2361, 6.999194
920.7183, 6.912941
921.2004, 6.990588
921.6825, 7.098015
922.1646, 7.083418
922.6467, 6.854291
923.1288, 6.804259
923.6110, 6.982314
924.0931, 7.182608
924.5752, 7.187248
925.0573, 7.071898
925.5394, 6.996017
926.0215, 6.971567
926.5037, 6.966162
926.9858, 6.930129
927.4679, 6.934902
927.9500, 7.085225
928.4321, 7.358791
928.9142, 7.416033
929.3964, 7.202734
929.8785, 6.970090
930.3606, 6.801256
930.8427, 6.704569
931.3248, 6.749807
931.8069, 6.891412
932.2891, 6.980464
932.7712, 6.895043
933.2533, 6.803283
933.7354, 6.773224
934.2175, 6.783871
934.6996, 6.788207
935.1818, 6.773882
935.6639, 6.808370
936.1460, 6.920654
936.6281, 7.027310
937.1102, 6.975111
937.5923, 6.842293
938.0745, 6.820415
938.5566, 6.976267
939.0387, 7.079931
939.5208, 6.960541
940.0029, 6.787603
940.4850, 6.687314
940.9672, 6.671149
941.4493, 6.638746
941.9314, 6.580535
942.4135, 6.552080
942.8956, 6.617118
943.3777, 6.727740
943.8599, 6.789824
944.3420, 6.809616
944.8241, 6.827790
945.3062, 6.882061
945.7883, 6.918353
946.2704, 6.893842
946.7526, 6.837642
947.2347, 6.842744
947.7168, 6.928505
948.1989, 6.941406
948.6810, 6.822325
949.1631, 6.659454
949.6453, 6.561563
950.1274, 6.516847
950.6095, 6.507102
951.0916, 6.538617
951.5737, 6.578142
952.0558, 6.662120
952.5380, 6.713640
953.0201, 6.638098
953.5022, 6.396425
953.9843, 6.362803
954.4664, 6.562207
954.9485, 6.776602
955.4307, 6.830493
955.9128, 6.791286
956.3949, 6.712060
956.8770, 6.606047
957.3591, 6.561716
957.8412, 6.707407
958.3234, 6.801863
958.8055, 6.737540
959.2876, 6.575163
959.7697, 6.581530
960.2518, 6.751325
960.7339, 6.810476
961.2161, 6.590625
961.6982, 6.345267
962.1803, 6.370506
962.6624, 6.545496
963.1445, 6.680924
963.6266, 6.714114
964.1088, 6.722572
964.5909, 6.703940
965.0730, 6.673156
965.5551, 6.642288
966.0372, 6.612133
966.5193, 6.581527
967.0015, 6.550191
967.4836, 6.549806
967.9657, 6.642236
968.4478, 6.748151
968.9299, 6.810686
969.4120, 6.823456
969.8942, 6.780218
970.3763, 6.647561
970.8584, 6.533297
971.3405, 6.479375
971.8226, 6.466044
972.3047, 6.431912
972.7869, 6.387345
973.2690, 6.377437
973.7511, 6.467248
974.2332, 6.528307
974.7153, 6.409400
975.1974, 6.254089
975.6796, 6.284413
976.1617, 6.626565
976.6438, 6.795553
977.1259, 6.742240
977.6080, 6.605632
978.0901, 6.505776
978.5723, 6.434351
979.0544, 6.377522
979.5365, 6.333992
980.0186, 6.291018
980.5007, 6.175160
980.9828, 6.129964
981.4650, 6.265800
981.9471, 6.541991
982.4291, 6.698314
982.9113, 6.730050
983.3934, 6.686395
983.8755, 6.544693
984.3576, 6.399984
984.8397, 6.383685
985.3218, 6.455038
985.8040, 6.540221
986.2861, 6.699112
986.7682, 6.739021
987.2503, 6.552030
987.7324, 6.338751
988.2145, 6.337059
988.6967, 6.531916
989.1788, 6.621817
989.6609, 6.586098
990.1430, 6.507081
990.6251, 6.408093
991.1072, 6.327132
991.5894, 6.306502
992.0715, 6.346609
992.5536, 6.378148
993.0357, 6.389973
993.5178, 6.403136
993.9999, 6.410228
994.4821, 6.437452
994.9642, 6.609282
995.4463, 6.863039
995.9284, 6.974731
996.4105, 6.773229
996.8926, 6.587145
997.3748, 6.609601
997.8569, 6.727758
998.3390, 6.821053
998.8211, 6.905797
999.3032, 6.882218
999.7853, 6.730548
1000.267, 6.570427
1000.750, 6.511384
1001.232, 6.508587
1001.714, 6.485380
1002.196, 6.445175
1002.678, 6.443645
1003.160, 6.578738
1003.642, 6.663762
1004.124, 6.629632
1004.607, 6.515002
1005.089, 6.397519
1005.571, 6.281131
1006.053, 6.288903
1006.535, 6.497807
1007.017, 6.711968
1007.499, 6.721642
1007.981, 6.645568
1008.463, 6.629247
1008.946, 6.749573
1009.428, 6.788977
1009.910, 6.714333
1010.392, 6.623864
1010.874, 6.573259
1011.356, 6.563133
1011.838, 6.644856
1012.320, 6.790742
1012.802, 6.846185
1013.285, 6.603037
1013.767, 6.377541
1014.249, 6.351135
1014.731, 6.446965
1015.213, 6.505455
1015.695, 6.519876
1016.177, 6.541901
1016.659, 6.584562
1017.142, 6.619016
1017.624, 6.588557
1018.106, 6.537403
1018.588, 6.532729
1019.070, 6.593761
1019.552, 6.645323
1020.034, 6.686896
1020.516, 6.692871
1020.998, 6.622455
1021.481, 6.506973
1021.963, 6.543132
1022.445, 6.709207
1022.927, 6.855696
1023.409, 6.921103
1023.891, 6.928002
1024.373, 6.834106
1024.855, 6.709065
1025.338, 6.690600
1025.820, 6.870069
1026.302, 6.888474
1026.784, 6.683952
1027.266, 6.454350
1027.748, 6.426999
1028.230, 6.513128
1028.712, 6.550933
1029.194, 6.528403
1029.677, 6.496462
1030.159, 6.454325
1030.641, 6.430882
1031.123, 6.432547
1031.605, 6.460238
1032.087, 6.537227
1032.569, 6.657945
1033.051, 6.725742
1033.534, 6.693168
1034.016, 6.640556
1034.498, 6.632739
1034.980, 6.650489
1035.462, 6.670835
1035.944, 6.686390
1036.426, 6.722517
1036.908, 6.791372
1037.391, 6.847055
1037.873, 6.842292
1038.355, 6.803574
1038.837, 6.812756
1039.319, 6.854513
1039.801, 6.858507
1040.283, 6.743676
1040.765, 6.641869
1041.247, 6.563839
1041.729, 6.541632
1042.212, 6.695375
1042.694, 7.030047
1043.176, 7.075899
1043.658, 6.728177
1044.140, 6.385524
1044.622, 6.466492
1045.104, 6.687699
1045.586, 6.775595
1046.069, 6.692447
1046.551, 6.612840
1047.033, 6.524636
1047.515, 6.493619
1047.997, 6.565664
1048.479, 6.686987
1048.961, 6.750810
1049.443, 6.767335
1049.926, 6.759023
1050.408, 6.700952
1050.890, 6.677625
1051.372, 6.794874
1051.854, 6.897513
1052.336, 6.832467
1052.818, 6.584443
1053.300, 6.485727
1053.782, 6.540254
1054.265, 6.598229
1054.747, 6.519433
1055.229, 6.426983
1055.711, 6.431654
1056.193, 6.512344
1056.675, 6.584669
1057.157, 6.667105
1057.639, 6.670610
1058.121, 6.560511
1058.604, 6.419433
1059.086, 6.338408
1059.568, 6.317453
1060.050, 6.381352
1060.532, 6.545590
1061.014, 6.651833
1061.496, 6.641081
1061.978, 6.543445
1062.461, 6.318231
1062.943, 6.024978
1063.425, 5.990188
1063.907, 6.184653
1064.389, 6.310178
1064.871, 6.181990
1065.353, 6.076857
1065.835, 6.298317
1066.318, 6.620262
1066.800, 6.736192
1067.282, 6.540286
1067.764, 6.465596
1068.246, 6.534460
1068.728, 6.621497
1069.210, 6.658692
1069.692, 6.637434
1070.174, 6.497148
1070.656, 6.278271
1071.139, 6.132964
1071.621, 6.165445
1072.103, 6.206903
1072.585, 6.231266
1073.067, 6.249675
1073.549, 6.286714
1074.031, 6.333882
1074.513, 6.353574
1074.996, 6.339528
1075.478, 6.318866
1075.960, 6.285878
1076.442, 6.273613
1076.924, 6.326373
1077.406, 6.424457
1077.888, 6.428859
1078.370, 6.332479
1078.853, 6.292793
1079.335, 6.402559
1079.817, 6.500264
1080.299, 6.342153
1080.781, 6.089513
1081.263, 5.966651
1081.745, 6.079005
1082.227, 6.145163
1082.709, 6.149611
1083.192, 6.144424
1083.674, 6.176262
1084.156, 6.218422
1084.638, 6.185694
1085.120, 6.101219
1085.602, 6.043582
1086.084, 6.076764
1086.566, 6.097436
1087.048, 6.052206
1087.531, 6.011690
1088.013, 6.109099
1088.495, 6.319047
1088.977, 6.295310
1089.459, 6.015085
1089.941, 5.779981
1090.423, 5.853184
1090.905, 5.998041
1091.387, 6.072320
1091.870, 6.084284
1092.352, 6.090367
1092.834, 6.089521
1093.316, 6.094134
1093.798, 6.112628
1094.280, 6.117495
1094.762, 6.046652
1095.244, 5.958982
1095.727, 5.936113
1096.209, 6.005019
1096.691, 6.040168
1097.173, 6.010381
1097.655, 6.004295
1098.137, 6.082825
1098.619, 6.191094
1099.101, 6.187745
1099.583, 6.108224
1100.066, 6.043125
1100.548, 6.025169
1101.030, 6.023129
1101.512, 6.047295
1101.994, 6.065341
1102.476, 6.041039
1102.958, 5.979898
1103.440, 5.977828
1103.922, 6.028484
1104.405, 6.059269
1104.887, 5.974986
1105.369, 5.913479
1105.851, 5.995362
1106.333, 6.138272
1106.815, 6.180633
1107.297, 6.108690
1107.779, 6.017992
1108.262, 5.908159
1108.744, 5.856181
1109.226, 6.021212
1109.708, 6.213202
1110.190, 6.230388
1110.672, 6.073855
1111.154, 5.918567
1111.636, 5.752241
1112.119, 5.663737
1112.601, 5.695125
1113.083, 5.761269
1113.565, 5.729404
1114.047, 5.642596
1114.529, 5.569252
1115.011, 5.515070
1115.493, 5.514575
1115.975, 5.593298
1116.458, 5.700044
1116.940, 5.833575
1117.422, 5.969196
1117.904, 6.019804
1118.386, 6.002533
1118.868, 5.978791
1119.350, 5.979198
1119.832, 5.959260
1120.314, 5.885140
1120.797, 5.794701
1121.279, 5.709227
1121.761, 5.628998
1122.243, 5.584820
1122.725, 5.576250
1123.207, 5.596922
1123.689, 5.684307
1124.171, 5.756632
1124.654, 5.720256
1125.136, 5.648766
1125.618, 5.693252
1126.100, 5.907341
1126.582, 5.930116
1127.064, 5.718776
1127.546, 5.512443
1128.028, 5.548345
1128.510, 5.670804
1128.993, 5.726653
1129.475, 5.720757
1129.957, 5.730243
1130.439, 5.776868
1130.921, 5.784243
1131.403, 5.719043
1131.885, 5.673517
1132.367, 5.852925
1132.849, 6.091027
1133.332, 6.087388
1133.814, 5.801805
1134.296, 5.625120
1134.778, 5.709620
1135.260, 5.791740
1135.742, 5.790237
1136.224, 5.743747
1136.706, 5.733928
1137.189, 5.746459
1137.671, 5.741072
1138.153, 5.702495
1138.635, 5.670302
1139.117, 5.653614
1139.599, 5.657059
1140.081, 5.707140
1140.563, 5.776099
1141.046, 5.706377
1141.528, 5.525466
1142.010, 5.368714
1142.492, 5.286285
1142.974, 5.251886
1143.456, 5.244193
1143.938, 5.290973
1144.420, 5.449944
1144.902, 5.733314
1145.385, 5.792379
1145.867, 5.636581
1146.349, 5.465064
1146.831, 5.378035
1147.313, 5.341971
1147.795, 5.371655
1148.277, 5.423997
1148.759, 5.416165
1149.241, 5.319453
1149.724, 5.332182
1150.206, 5.472946
1150.688, 5.604606
1151.170, 5.581298
1151.652, 5.520789
1152.134, 5.559945
1152.616, 5.658126
1153.098, 5.634424
1153.581, 5.410028
1154.063, 5.325351
1154.545, 5.451023
1155.027, 5.608717
1155.509, 5.592931
1155.991, 5.494238
1156.473, 5.389813
1156.955, 5.295036
1157.438, 5.336318
1157.920, 5.636265
1158.402, 5.775931
1158.884, 5.619414
1159.366, 5.351542
1159.848, 5.187773
1160.330, 5.128884
1160.812, 5.222834
1161.294, 5.501907
1161.776, 5.638300
1162.259, 5.459006
1162.741, 5.337977
1163.223, 5.432422
1163.705, 5.632226
1164.187, 5.714888
1164.669, 5.703169
1165.151, 5.629601
1165.633, 5.451043
1166.116, 5.401891
1166.598, 5.651854
1167.080, 5.902500
1167.562, 6.041102
1168.044, 6.054183
1168.526, 5.798198
1169.008, 5.363586
1169.490, 5.072278
1169.973, 5.101985
1170.455, 5.166658
1170.937, 5.144942
1171.419, 5.151396
1171.901, 5.296962
1172.383, 5.551056
1172.865, 5.675736
1173.347, 5.681138
1173.829, 5.636240
1174.312, 5.556790
1174.794, 5.456606
1175.276, 5.300331
1175.758, 5.155960
1176.240, 5.087243
1176.722, 5.093660
1177.204, 5.158360
1177.686, 5.274511
1178.168, 5.372887
1178.651, 5.364687
1179.133, 5.376169
1179.615, 5.536977
1180.097, 5.723488
1180.579, 5.736597
1181.061, 5.573250
1181.543, 5.476562
1182.025, 5.463015
1182.508, 5.453894
1182.990, 5.359093
1183.472, 5.281920
1183.954, 5.316653
1184.436, 5.413044
1184.918, 5.460977
1185.400, 5.458347
1185.882, 5.440961
1186.365, 5.412925
1186.847, 5.378126
1187.329, 5.318871
1187.811, 5.271953
1188.293, 5.265001
1188.775, 5.296377
1189.257, 5.381009
1189.739, 5.530579
1190.221, 5.557237
1190.703, 5.405845
1191.186, 5.234963
1191.668, 5.180792
1192.150, 5.187190
1192.632, 5.216809
1193.114, 5.264438
1193.596, 5.315067
1194.078, 5.368481
1194.560, 5.428994
1195.043, 5.501171
1195.525, 5.566071
1196.007, 5.610013
1196.489, 5.632592
1196.971, 5.627569
1197.453, 5.595404
1197.935, 5.584901
1198.417, 5.607326
1198.900, 5.537492
1199.382, 5.282829
1199.864, 5.041366
1200.346, 5.052527
1200.828, 5.174021
1201.310, 5.242393
1201.792, 5.236356
1202.274, 5.249624
1202.756, 5.280749
1203.239, 5.348742
1203.721, 5.495759
1204.203, 5.622950
1204.685, 5.586067
1205.167, 5.479209
1205.649, 5.435369
1206.131, 5.482498
1206.613, 5.489789
1207.095, 5.450272
1207.578, 5.433714
1208.060, 5.513726
1208.542, 5.588676
1209.024, 5.494336
1209.506, 5.340728
1209.988, 5.327950
1210.470, 5.547883
1210.952, 5.551521
1211.435, 5.311819
1211.917, 5.076514
1212.399, 4.962341
1212.881, 4.965322
1213.363, 5.193380
1213.845, 5.498537
1214.327, 5.596387
1214.809, 5.396652
1215.292, 5.252446
1215.774, 5.164341
1216.256, 5.157598
1216.738, 5.359901
1217.220, 5.555239
1217.702, 5.490235
1218.184, 5.274959
1218.666, 5.146818
1219.148, 5.128959
1219.630, 5.155563
1220.113, 5.227035
1220.595, 5.314639
1221.077, 5.454245
1221.559, 5.545781
1222.041, 5.433714
1222.523, 5.215961
1223.005, 5.140769
1223.487, 5.250712
1223.970, 5.323001
1224.452, 5.340349
1224.934, 5.350152
1225.416, 5.419980
1225.898, 5.472655
1226.380, 5.415220
1226.862, 5.291085
1227.344, 5.224410
1227.827, 5.219398
1228.309, 5.264122
1228.791, 5.362634
1229.273, 5.435500
1229.755, 5.373187
1230.237, 5.298882
1230.719, 5.311055
1231.201, 5.390825
1231.683, 5.491717
1232.166, 5.624994
1232.648, 5.612130
1233.130, 5.424787
1233.612, 5.245763
1234.094, 5.217315
1234.576, 5.257095
1235.058, 5.352293
1235.540, 5.457972
1236.022, 5.453896
1236.505, 5.337289
1236.987, 5.289660
1237.469, 5.337585
1237.951, 5.399522
1238.433, 5.412923
1238.915, 5.419475
1239.397, 5.445671
1239.879, 5.485082
1240.362, 5.533149
1240.844, 5.586839
1241.326, 5.597339
1241.808, 5.554632
1242.290, 5.509306
1242.772, 5.477154
1243.254, 5.474899
1243.736, 5.532572
1244.219, 5.611763
1244.701, 5.604002
1245.183, 5.527985
1245.665, 5.533948
1246.147, 5.655524
1246.629, 5.705611
1247.111, 5.447577
1247.593, 5.251225
1248.075, 5.304470
1248.557, 5.491996
1249.040, 5.550821
1249.522, 5.509420
1250.004, 5.469233
1250.486, 5.445803
1250.968, 5.456267
1251.450, 5.549447
1251.932, 5.627370
1252.414, 5.649617
1252.897, 5.645179
1253.379, 5.708030
1253.861, 5.788496
1254.343, 5.722601
1254.825, 5.470309
1255.307, 5.304145
1255.789, 5.384390
1256.271, 5.456310
1256.754, 5.444105
1257.236, 5.387886
1257.718, 5.342905
1258.200, 5.316016
1258.682, 5.324574
1259.164, 5.373133
1259.646, 5.436510
1260.128, 5.550953
1260.610, 5.578157
1261.093, 5.450869
1261.575, 5.276102
1262.057, 5.182259
1262.539, 5.164911
1263.021, 5.256104
1263.503, 5.470425
1263.985, 5.533432
1264.467, 5.380812
1264.949, 5.272243
1265.432, 5.295037
1265.914, 5.358702
1266.396, 5.338662
1266.878, 5.300202
1267.360, 5.338818
1267.842, 5.462624
1268.324, 5.478884
1268.806, 5.368777
1269.289, 5.308037
1269.771, 5.354394
1270.253, 5.437600
1270.735, 5.525799
1271.217, 5.590044
1271.699, 5.594810
1272.181, 5.548045
1272.663, 5.466136
1273.146, 5.351258
1273.628, 5.299054
1274.110, 5.342369
1274.592, 5.418417
1275.074, 5.535743
1275.556, 5.612012
1276.038, 5.571950
1276.520, 5.458520
1277.002, 5.435111
1277.484, 5.490548
1277.967, 5.571953
1278.449, 5.680708
1278.931, 5.726806
1279.413, 5.564501
1279.895, 5.444446
1280.377, 5.497187
1280.859, 5.650015
1281.341, 5.725596
1281.823, 5.743978
1282.306, 5.777511
1282.788, 5.851572
1283.270, 5.847480
1283.752, 5.671431
1284.234, 5.499942
1284.716, 5.373897
1285.198, 5.310097
1285.680, 5.377088
1286.163, 5.513446
1286.645, 5.630154
1287.127, 5.717551
1287.609, 5.673631
1288.091, 5.427428
1288.573, 5.252627
1289.055, 5.231331
1289.537, 5.313978
1290.020, 5.518524
1290.502, 5.733103
1290.984, 5.813741
1291.466, 5.744013
1291.948, 5.669875
1292.430, 5.582296
1292.912, 5.572797
1293.394, 5.686332
1293.876, 5.784554
1294.359, 5.686119
1294.841, 5.555782
1295.323, 5.569359
1295.805, 5.677214
1296.287, 5.657265
1296.769, 5.520497
1297.251, 5.468328
1297.733, 5.553698
1298.215, 5.621379
1298.698, 5.495446
1299.180, 5.415064
1299.662, 5.534714
1300.144, 5.746508
1300.626, 5.781924
1301.108, 5.687753
1301.590, 5.640556
1302.072, 5.671589
1302.555, 5.670859
1303.037, 5.539122
1303.519, 5.442398
1304.001, 5.421095
1304.483, 5.458097
1304.965, 5.532300
1305.447, 5.643987
##END=



