##NAMES=Magnesioferrite
##RRUFFID=R060869
##IDEAL CHEMISTRY=MgFe^3+^_2_O_4_
##LOCALITY=Langban, Filipstad, Varmland, Sweden
##OWNER=RRUFF
##SOURCE=Michael Scott
##DESCRIPTION=Black semimetallic massive
##STATUS=The identification of this mineral is confirmed by single-crystal X-ray diffraction and chemical analysis.
##URL=rruff.info/R060869
##MEASURED CHEMISTRY=(Mg_0.67_Mn^2+^_0.30_Fe^2+^_0.03_)_Σ=1_(Fe^3+^_1.97_Al_0.03_)_Σ=2_O_4_
125.3843, 459.7213
125.8665, 516.5320
126.3486, 562.7510
126.8307, 585.6690
127.3128, 607.7290
127.7949, 635.2692
128.2770, 669.9854
128.7592, 711.9000
129.2413, 764.3273
129.7234, 834.7656
130.2055, 892.2092
130.6876, 937.0070
131.1697, 970.5257
131.6519, 991.8796
132.1340, 1001.516
132.6161, 1001.389
133.0982, 992.9798
133.5803, 969.4006
134.0624, 950.9867
134.5446, 938.0479
135.0267, 929.0060
135.5088, 923.4125
135.9909, 920.9345
136.4730, 920.6917
136.9551, 921.5176
137.4373, 929.0075
137.9194, 928.7479
138.4015, 916.8779
138.8836, 899.6384
139.3657, 880.6497
139.8478, 861.3677
140.3300, 844.8453
140.8121, 837.6790
141.2942, 843.1667
141.7763, 855.6922
142.2584, 876.6232
142.7405, 904.1026
143.2227, 937.0202
143.7048, 975.2738
144.1869, 1016.773
144.6690, 1055.987
145.1511, 1091.075
145.6333, 1126.001
146.1154, 1163.127
146.5975, 1200.258
147.0796, 1234.953
147.5617, 1266.381
148.0438, 1293.474
148.5260, 1310.821
149.0081, 1309.196
149.4902, 1310.529
149.9723, 1328.234
150.4544, 1353.251
150.9365, 1365.755
151.4187, 1354.333
151.9008, 1323.594
152.3829, 1294.750
152.8650, 1267.569
153.3471, 1241.916
153.8292, 1217.236
154.3114, 1193.891
154.7935, 1173.667
155.2756, 1158.806
155.7577, 1147.370
156.2398, 1131.084
156.7219, 1101.901
157.2041, 1075.829
157.6862, 1063.940
158.1683, 1063.703
158.6504, 1062.379
159.1325, 1050.886
159.6146, 1033.025
160.0968, 1024.535
160.5789, 1029.750
161.0610, 1040.429
161.5431, 1055.933
162.0252, 1075.077
162.5073, 1086.272
162.9895, 1078.761
163.4716, 1057.676
163.9537, 1044.042
164.4358, 1043.249
164.9179, 1046.455
165.4000, 1045.423
165.8822, 1040.320
166.3643, 1039.530
166.8464, 1050.719
167.3285, 1070.022
167.8106, 1086.300
168.2927, 1100.178
168.7749, 1109.405
169.2570, 1109.361
169.7391, 1099.548
170.2212, 1090.854
170.7033, 1090.079
171.1854, 1095.418
171.6676, 1102.931
172.1497, 1116.028
172.6318, 1128.326
173.1139, 1130.534
173.5960, 1121.281
174.0781, 1114.594
174.5603, 1125.110
175.0424, 1143.335
175.5245, 1151.041
176.0066, 1135.946
176.4887, 1114.262
176.9708, 1106.726
177.4530, 1115.206
177.9351, 1126.480
178.4172, 1134.568
178.8993, 1139.872
179.3814, 1142.263
179.8635, 1140.010
180.3457, 1135.974
180.8278, 1133.893
181.3099, 1134.037
181.7920, 1134.827
182.2741, 1135.733
182.7562, 1136.611
183.2384, 1137.233
183.7205, 1137.449
184.2026, 1137.420
184.6847, 1137.607
185.1668, 1138.265
185.6489, 1138.024
186.1311, 1134.390
186.6132, 1129.687
187.0953, 1126.995
187.5774, 1127.052
188.0595, 1129.707
188.5416, 1136.248
189.0238, 1148.381
189.5059, 1157.642
189.9880, 1157.309
190.4701, 1151.918
190.9522, 1146.297
191.4343, 1140.510
191.9165, 1136.475
192.3986, 1137.438
192.8807, 1144.175
193.3628, 1152.860
193.8449, 1163.697
194.3270, 1174.852
194.8092, 1183.796
195.2913, 1188.992
195.7734, 1192.646
196.2555, 1198.145
196.7376, 1205.989
197.2197, 1213.589
197.7019, 1219.867
198.1840, 1225.187
198.6661, 1229.458
199.1482, 1231.945
199.6303, 1234.445
200.1124, 1238.866
200.5946, 1244.933
201.0767, 1254.243
201.5588, 1273.708
202.0409, 1294.700
202.5230, 1307.801
203.0051, 1308.585
203.4873, 1304.118
203.9694, 1302.940
204.4515, 1305.484
204.9336, 1308.800
205.4157, 1311.979
205.8978, 1315.213
206.3800, 1319.365
206.8621, 1325.814
207.3442, 1330.441
207.8263, 1326.418
208.3084, 1312.460
208.7905, 1301.393
209.2727, 1303.570
209.7548, 1308.239
210.2369, 1304.338
210.7190, 1288.560
211.2011, 1268.346
211.6832, 1250.987
212.1654, 1236.709
212.6475, 1222.719
213.1296, 1209.335
213.6117, 1195.077
214.0938, 1178.243
214.5759, 1158.178
215.0581, 1137.385
215.5402, 1117.750
216.0223, 1099.319
216.5044, 1081.394
216.9865, 1061.016
217.4686, 1043.529
217.9508, 1036.108
218.4329, 1041.004
218.9150, 1044.085
219.3971, 1030.682
219.8792, 1002.472
220.3613, 980.6885
220.8435, 973.1296
221.3256, 972.0301
221.8077, 969.0224
222.2898, 963.7760
222.7719, 958.8582
223.2540, 955.4670
223.7362, 953.6874
224.2183, 954.7014
224.7004, 961.2398
225.1825, 967.3934
225.6646, 966.9332
226.1467, 959.9811
226.6289, 952.0909
227.1110, 944.7631
227.5931, 938.6700
228.0752, 937.1806
228.5573, 943.7450
229.0394, 949.9618
229.5216, 946.1434
230.0037, 933.5923
230.4858, 922.4409
230.9679, 917.4612
231.4500, 916.9609
231.9321, 917.8569
232.4143, 920.5147
232.8964, 922.5800
233.3785, 920.8220
233.8606, 916.1910
234.3427, 912.8260
234.8248, 910.9263
235.3070, 911.4393
235.7891, 917.4151
236.2712, 930.3921
236.7533, 942.4603
237.2354, 945.0562
237.7175, 940.6852
238.1997, 938.6653
238.6818, 942.2066
239.1639, 948.2006
239.6460, 953.9703
240.1281, 959.4728
240.6102, 963.3693
241.0924, 964.9764
241.5745, 964.0286
242.0566, 960.2219
242.5387, 950.2207
243.0208, 939.8362
243.5029, 933.0843
243.9851, 929.9667
244.4672, 929.8199
244.9493, 932.7924
245.4314, 938.5988
245.9135, 945.0195
246.3956, 951.8741
246.8778, 959.5108
247.3599, 968.9302
247.8420, 979.5175
248.3241, 988.9933
248.8062, 996.4788
249.2883, 1001.875
249.7705, 1004.912
250.2526, 1003.903
250.7347, 1003.304
251.2168, 1003.373
251.6989, 1005.012
252.1810, 1011.170
252.6632, 1023.918
253.1453, 1039.198
253.6274, 1047.374
254.1095, 1044.559
254.5916, 1043.216
255.0737, 1047.961
255.5559, 1054.662
256.0380, 1056.427
256.5201, 1051.011
257.0022, 1044.728
257.4843, 1048.003
257.9665, 1067.299
258.4486, 1082.303
258.9307, 1089.871
259.4128, 1094.458
259.8949, 1100.544
260.3770, 1108.742
260.8592, 1115.557
261.3413, 1116.190
261.8234, 1107.075
262.3055, 1105.458
262.7876, 1117.870
263.2697, 1131.610
263.7519, 1138.492
264.2340, 1138.802
264.7161, 1138.093
265.1982, 1141.558
265.6803, 1149.866
266.1624, 1154.343
266.6446, 1151.891
267.1267, 1149.305
267.6088, 1150.455
268.0909, 1153.497
268.5730, 1153.363
269.0551, 1145.891
269.5373, 1132.581
270.0194, 1126.665
270.5015, 1134.287
270.9836, 1143.473
271.4657, 1153.723
271.9478, 1164.161
272.4300, 1174.556
272.9121, 1185.052
273.3942, 1193.931
273.8763, 1195.689
274.3584, 1182.712
274.8405, 1175.009
275.3227, 1178.403
275.8048, 1185.771
276.2869, 1190.277
276.7690, 1189.758
277.2511, 1188.245
277.7332, 1192.383
278.2154, 1203.900
278.6975, 1215.699
279.1796, 1229.078
279.6617, 1241.024
280.1438, 1250.113
280.6259, 1255.996
281.1081, 1258.465
281.5902, 1255.130
282.0723, 1245.353
282.5544, 1241.317
283.0365, 1246.113
283.5186, 1254.966
284.0008, 1267.310
284.4829, 1281.866
284.9650, 1294.822
285.4471, 1304.744
285.9292, 1311.221
286.4113, 1311.222
286.8935, 1300.398
287.3756, 1291.501
287.8577, 1292.222
288.3398, 1299.712
288.8219, 1309.207
289.3040, 1320.499
289.7862, 1331.689
290.2683, 1338.370
290.7504, 1339.251
291.2325, 1344.188
291.7146, 1362.690
292.1967, 1386.883
292.6789, 1403.799
293.1610, 1407.823
293.6431, 1410.668
294.1252, 1423.684
294.6073, 1444.891
295.0894, 1460.238
295.5716, 1459.589
296.0537, 1455.891
296.5358, 1472.569
297.0179, 1513.491
297.5000, 1557.808
297.9821, 1603.636
298.4643, 1645.857
298.9464, 1672.121
299.4285, 1677.166
299.9106, 1676.638
300.3927, 1692.544
300.8748, 1728.936
301.3570, 1758.109
301.8391, 1770.643
302.3212, 1778.952
302.8033, 1795.255
303.2854, 1820.267
303.7675, 1844.594
304.2497, 1859.043
304.7318, 1862.571
305.2139, 1875.636
305.6960, 1904.281
306.1781, 1935.079
306.6602, 1964.954
307.1424, 1992.218
307.6245, 2014.355
308.1066, 2029.585
308.5887, 2038.852
309.0708, 2046.953
309.5529, 2054.456
310.0351, 2059.945
310.5172, 2061.622
310.9993, 2061.830
311.4814, 2062.742
311.9635, 2065.235
312.4456, 2069.543
312.9278, 2077.022
313.4099, 2092.219
313.8920, 2100.562
314.3741, 2091.565
314.8562, 2083.914
315.3383, 2091.747
315.8205, 2115.249
316.3026, 2142.612
316.7847, 2160.950
317.2668, 2169.034
317.7489, 2183.503
318.2310, 2214.749
318.7132, 2241.137
319.1953, 2248.884
319.6774, 2244.591
320.1595, 2245.014
320.6416, 2263.133
321.1237, 2291.527
321.6059, 2308.059
322.0880, 2308.564
322.5701, 2308.230
323.0522, 2311.341
323.5343, 2318.549
324.0164, 2331.579
324.4986, 2351.817
324.9807, 2376.020
325.4628, 2404.329
325.9449, 2436.082
326.4270, 2458.202
326.9091, 2460.458
327.3913, 2456.712
327.8734, 2468.263
328.3555, 2498.269
328.8376, 2524.716
329.3197, 2537.386
329.8018, 2540.058
330.2840, 2538.606
330.7661, 2533.667
331.2482, 2527.795
331.7303, 2523.467
332.2124, 2520.799
332.6945, 2518.982
333.1767, 2518.751
333.6588, 2518.805
334.1409, 2518.386
334.6230, 2517.420
335.1051, 2516.469
335.5872, 2516.720
336.0694, 2517.315
336.5515, 2509.496
337.0336, 2487.820
337.5157, 2465.499
337.9978, 2448.351
338.4799, 2431.505
338.9621, 2405.809
339.4442, 2367.567
339.9263, 2324.368
340.4084, 2292.037
340.8905, 2275.757
341.3727, 2261.353
341.8548, 2252.012
342.3369, 2241.618
342.8190, 2226.414
343.3011, 2205.774
343.7832, 2180.810
344.2654, 2150.165
344.7475, 2112.988
345.2296, 2085.650
345.7117, 2076.176
346.1938, 2067.803
346.6759, 2053.397
347.1581, 2035.527
347.6402, 2019.595
348.1223, 2008.407
348.6044, 2000.604
349.0865, 1993.831
349.5686, 1988.552
350.0508, 1982.216
350.5329, 1967.999
351.0150, 1955.288
351.4971, 1958.693
351.9792, 1985.855
352.4613, 2005.194
352.9435, 1985.923
353.4256, 1937.250
353.9077, 1895.009
354.3898, 1867.339
354.8719, 1849.227
355.3540, 1836.801
355.8362, 1829.572
356.3183, 1825.111
356.8004, 1826.367
357.2825, 1828.096
357.7646, 1823.693
358.2467, 1813.292
358.7289, 1804.222
359.2110, 1803.377
359.6931, 1809.142
360.1752, 1802.622
360.6573, 1766.466
361.1394, 1739.707
361.6216, 1739.762
362.1037, 1755.852
362.5858, 1772.035
363.0679, 1781.846
363.5500, 1785.948
364.0321, 1785.818
364.5143, 1783.176
364.9964, 1772.351
365.4785, 1741.338
365.9606, 1712.426
366.4427, 1702.553
366.9248, 1710.950
367.4070, 1723.767
367.8891, 1728.272
368.3712, 1724.701
368.8533, 1723.378
369.3354, 1724.832
369.8175, 1728.035
370.2997, 1735.402
370.7818, 1743.435
371.2639, 1746.498
371.7460, 1741.517
372.2281, 1732.325
372.7102, 1722.953
373.1924, 1713.004
373.6745, 1707.906
374.1566, 1712.203
374.6387, 1720.011
375.1208, 1725.691
375.6029, 1729.273
376.0851, 1728.838
376.5672, 1718.229
377.0493, 1704.070
377.5314, 1701.984
378.0135, 1715.814
378.4956, 1728.383
378.9778, 1722.364
379.4599, 1697.839
379.9420, 1682.330
380.4241, 1684.753
380.9062, 1688.195
381.3883, 1682.763
381.8705, 1670.743
382.3526, 1658.529
382.8347, 1649.294
383.3168, 1642.122
383.7989, 1634.527
384.2810, 1617.088
384.7632, 1612.656
385.2453, 1638.501
385.7274, 1666.007
386.2095, 1668.080
386.6916, 1643.334
387.1737, 1613.282
387.6559, 1600.344
388.1380, 1605.385
388.6201, 1611.104
389.1022, 1618.076
389.5843, 1625.098
390.0664, 1631.672
390.5486, 1638.069
391.0307, 1645.086
391.5128, 1653.840
391.9949, 1661.781
392.4770, 1665.466
392.9591, 1665.025
393.4413, 1658.128
393.9234, 1635.552
394.4055, 1613.174
394.8876, 1609.297
395.3697, 1625.581
395.8518, 1643.155
396.3340, 1651.610
396.8161, 1655.409
397.2982, 1663.537
397.7803, 1677.509
398.2624, 1689.820
398.7445, 1693.721
399.2267, 1689.465
399.7088, 1687.435
400.1909, 1688.515
400.6730, 1690.756
401.1551, 1693.188
401.6372, 1696.176
402.1194, 1699.809
402.6015, 1704.000
403.0836, 1710.663
403.5657, 1724.132
404.0478, 1752.148
404.5299, 1772.811
405.0121, 1782.659
405.4942, 1789.136
405.9763, 1795.429
406.4584, 1802.586
406.9405, 1811.604
407.4226, 1824.454
407.9048, 1839.911
408.3869, 1848.981
408.8690, 1847.656
409.3511, 1847.316
409.8332, 1851.513
410.3153, 1858.898
410.7975, 1868.470
411.2796, 1880.280
411.7617, 1892.717
412.2438, 1903.794
412.7259, 1913.908
413.2080, 1926.111
413.6902, 1942.125
414.1723, 1958.042
414.6544, 1968.903
415.1365, 1975.338
415.6186, 1981.759
416.1007, 1988.137
416.5829, 1995.477
417.0650, 2003.750
417.5471, 2013.510
418.0292, 2027.049
418.5113, 2046.030
418.9934, 2069.076
419.4756, 2091.522
419.9577, 2113.651
420.4398, 2134.971
420.9219, 2156.916
421.4040, 2177.167
421.8861, 2192.109
422.3683, 2202.199
422.8504, 2212.431
423.3325, 2227.512
423.8146, 2247.389
424.2967, 2272.342
424.7788, 2307.898
425.2610, 2341.398
425.7431, 2364.494
426.2252, 2384.256
426.7073, 2412.407
427.1894, 2455.343
427.6715, 2500.498
428.1537, 2528.948
428.6358, 2541.739
429.1179, 2560.331
429.6000, 2590.119
430.0821, 2627.061
430.5642, 2668.744
431.0464, 2714.902
431.5285, 2759.546
432.0106, 2803.219
432.4927, 2843.270
432.9748, 2871.556
433.4569, 2891.023
433.9391, 2921.442
434.4212, 2977.761
434.9033, 3049.689
435.3854, 3098.063
435.8675, 3104.799
436.3496, 3110.835
436.8318, 3115.789
437.3139, 3123.138
437.7960, 3138.805
438.2781, 3162.019
438.7602, 3183.829
439.2423, 3194.236
439.7245, 3193.187
440.2066, 3194.563
440.6887, 3205.340
441.1708, 3208.414
441.6529, 3195.399
442.1350, 3172.848
442.6172, 3150.650
443.0993, 3133.083
443.5814, 3112.092
444.0635, 3074.918
444.5456, 3024.041
445.0277, 2979.290
445.5099, 2945.019
445.9920, 2918.431
446.4741, 2902.740
446.9562, 2896.547
447.4383, 2877.859
447.9204, 2831.539
448.4026, 2780.909
448.8847, 2743.204
449.3668, 2716.633
449.8489, 2692.743
450.3310, 2666.923
450.8131, 2641.792
451.2953, 2623.964
451.7774, 2620.874
452.2595, 2614.065
452.7416, 2602.259
453.2237, 2588.075
453.7059, 2570.180
454.1880, 2550.769
454.6701, 2536.202
455.1522, 2531.576
455.6343, 2535.874
456.1165, 2545.908
456.5986, 2566.247
457.0807, 2581.503
457.5628, 2578.150
458.0449, 2570.606
458.5270, 2574.272
459.0092, 2592.885
459.4913, 2612.568
459.9734, 2623.522
460.4555, 2629.056
460.9376, 2635.584
461.4197, 2643.751
461.9019, 2656.085
462.3840, 2676.866
462.8661, 2705.046
463.3482, 2723.707
463.8303, 2720.507
464.3124, 2722.578
464.7946, 2741.588
465.2767, 2770.641
465.7588, 2801.851
466.2409, 2832.290
466.7230, 2859.039
467.2051, 2877.890
467.6873, 2887.940
468.1694, 2894.306
468.6515, 2883.549
469.1336, 2883.444
469.6157, 2915.611
470.0978, 2963.528
470.5800, 2995.723
471.0621, 2995.537
471.5442, 2982.286
472.0263, 2979.430
472.5084, 2986.691
472.9905, 3000.820
473.4727, 3026.041
473.9548, 3049.877
474.4369, 3053.473
474.9190, 3038.183
475.4011, 3027.477
475.8832, 3029.519
476.3654, 3034.317
476.8475, 3035.681
477.3296, 3033.392
477.8117, 3029.397
478.2938, 3025.159
478.7759, 3017.307
479.2581, 2996.840
479.7402, 2951.659
480.2223, 2915.227
480.7044, 2890.619
481.1865, 2871.536
481.6686, 2856.958
482.1508, 2844.902
482.6329, 2831.503
483.1150, 2815.256
483.5971, 2795.003
484.0792, 2766.006
484.5613, 2726.697
485.0435, 2687.968
485.5256, 2653.486
486.0077, 2621.453
486.4898, 2590.389
486.9719, 2560.678
487.4540, 2527.531
487.9362, 2483.500
488.4183, 2438.457
488.9004, 2406.485
489.3825, 2386.571
489.8646, 2364.328
490.3467, 2329.593
490.8289, 2286.277
491.3110, 2250.524
491.7931, 2228.889
492.2752, 2206.662
492.7573, 2185.165
493.2394, 2161.350
493.7216, 2131.055
494.2037, 2095.184
494.6858, 2059.934
495.1679, 2028.786
495.6500, 2002.490
496.1321, 1986.139
496.6143, 1983.615
497.0964, 1979.176
497.5785, 1964.167
498.0606, 1945.211
498.5427, 1931.915
499.0248, 1926.988
499.5070, 1916.364
499.9891, 1884.648
500.4712, 1847.289
500.9533, 1827.118
501.4354, 1825.797
501.9175, 1831.685
502.3997, 1838.024
502.8818, 1843.865
503.3639, 1843.551
503.8460, 1833.534
504.3281, 1821.557
504.8102, 1805.436
505.2924, 1789.492
505.7745, 1776.227
506.2566, 1766.643
506.7387, 1762.312
507.2208, 1766.340
507.7029, 1776.820
508.1851, 1783.868
508.6672, 1786.708
509.1493, 1788.521
509.6314, 1792.763
510.1135, 1795.429
510.5956, 1790.096
511.0778, 1774.246
511.5599, 1760.092
512.0420, 1753.797
512.5241, 1752.112
513.0062, 1749.699
513.4883, 1746.575
513.9705, 1748.816
514.4526, 1762.031
514.9347, 1783.191
515.4168, 1796.018
515.8989, 1789.171
516.3810, 1788.992
516.8632, 1802.026
517.3453, 1818.842
517.8274, 1833.076
518.3095, 1843.472
518.7916, 1851.191
519.2737, 1857.238
519.7559, 1861.167
520.2380, 1860.101
520.7201, 1852.384
521.2022, 1847.816
521.6843, 1851.542
522.1664, 1859.954
522.6486, 1867.793
523.1307, 1875.432
523.6128, 1880.761
524.0949, 1882.179
524.5770, 1881.585
525.0591, 1880.582
525.5413, 1879.363
526.0234, 1878.034
526.5055, 1876.822
526.9876, 1875.100
527.4697, 1869.983
527.9518, 1854.510
528.4340, 1848.987
528.9161, 1863.028
529.3982, 1879.210
529.8803, 1885.532
530.3624, 1883.553
530.8445, 1883.409
531.3267, 1896.077
531.8088, 1909.847
532.2909, 1896.895
532.7730, 1857.832
533.2551, 1835.141
533.7372, 1848.134
534.2194, 1875.924
534.7015, 1886.818
535.1836, 1877.206
535.6657, 1879.299
536.1478, 1908.704
536.6299, 1939.318
537.1121, 1954.304
537.5942, 1957.476
538.0763, 1958.876
538.5584, 1963.076
539.0405, 1969.418
539.5226, 1977.256
540.0048, 1987.374
540.4869, 1995.513
540.9690, 2000.433
541.4511, 2004.440
541.9332, 2008.927
542.4153, 2013.458
542.8975, 2016.401
543.3796, 2014.416
543.8617, 2015.634
544.3438, 2031.507
544.8259, 2056.183
545.3080, 2072.681
545.7902, 2076.785
546.2723, 2075.597
546.7544, 2075.449
547.2365, 2076.279
547.7186, 2080.064
548.2007, 2087.613
548.6829, 2096.842
549.1650, 2109.689
549.6471, 2122.718
550.1292, 2131.099
550.6113, 2134.198
551.0934, 2137.274
551.5756, 2147.313
552.0577, 2162.511
552.5398, 2170.132
553.0219, 2166.056
553.5040, 2169.352
553.9861, 2196.759
554.4683, 2234.083
554.9504, 2252.469
555.4325, 2244.833
555.9146, 2239.382
556.3967, 2244.083
556.8788, 2255.412
557.3610, 2273.450
557.8431, 2295.677
558.3252, 2313.774
558.8073, 2321.878
559.2894, 2323.907
559.7715, 2332.959
560.2537, 2355.056
560.7358, 2369.348
561.2179, 2363.586
561.7000, 2357.548
562.1821, 2361.014
562.6642, 2373.595
563.1464, 2391.748
563.6285, 2418.030
564.1106, 2444.784
564.5927, 2463.188
565.0748, 2474.697
565.5569, 2484.774
566.0391, 2495.143
566.5212, 2503.627
567.0033, 2505.649
567.4854, 2498.290
567.9675, 2507.551
568.4496, 2552.739
568.9318, 2589.962
569.4139, 2595.844
569.8960, 2591.043
570.3781, 2602.899
570.8602, 2638.305
571.3423, 2680.555
571.8245, 2713.110
572.3066, 2737.818
572.7887, 2764.556
573.2708, 2793.713
573.7529, 2824.579
574.2350, 2857.034
574.7172, 2891.034
575.1993, 2927.044
575.6814, 2966.468
576.1635, 3004.280
576.6456, 3037.137
577.1277, 3069.533
577.6099, 3105.690
578.0920, 3145.175
578.5741, 3184.910
579.0562, 3222.684
579.5383, 3261.458
580.0204, 3309.288
580.5026, 3368.883
580.9847, 3426.443
581.4668, 3478.609
581.9489, 3529.768
582.4310, 3578.330
582.9131, 3628.008
583.3953, 3689.746
583.8774, 3774.513
584.3595, 3862.309
584.8416, 3938.751
585.3237, 4009.208
585.8058, 4084.607
586.2880, 4166.964
586.7701, 4250.675
587.2522, 4329.205
587.7343, 4402.865
588.2164, 4482.607
588.6985, 4570.165
589.1807, 4661.891
589.6628, 4757.171
590.1449, 4855.651
590.6270, 4958.932
591.1091, 5066.342
591.5912, 5173.122
592.0734, 5268.796
592.5555, 5366.082
593.0376, 5491.140
593.5197, 5640.343
594.0018, 5779.538
594.4839, 5892.902
594.9661, 5995.995
595.4482, 6112.450
595.9303, 6248.836
596.4124, 6377.984
596.8945, 6486.987
597.3766, 6604.276
597.8588, 6745.445
598.3409, 6900.396
598.8230, 7053.510
599.3051, 7199.891
599.7872, 7340.771
600.2693, 7475.361
600.7515, 7605.493
601.2336, 7742.744
601.7157, 7889.196
602.1978, 8029.834
602.6799, 8153.180
603.1620, 8266.449
603.6442, 8394.196
604.1263, 8555.706
604.6084, 8690.398
605.0905, 8767.756
605.5726, 8836.820
606.0547, 8939.160
606.5369, 9061.657
607.0190, 9165.736
607.5011, 9230.140
607.9832, 9270.845
608.4653, 9310.719
608.9474, 9349.564
609.4296, 9390.797
609.9117, 9438.458
610.3938, 9480.089
610.8759, 9513.790
611.3580, 9533.507
611.8401, 9518.962
612.3223, 9441.769
612.8044, 9369.741
613.2865, 9332.917
613.7686, 9303.459
614.2507, 9248.403
614.7328, 9169.521
615.2150, 9096.158
615.6971, 9052.587
616.1792, 9022.517
616.6613, 8958.264
617.1434, 8855.561
617.6255, 8744.785
618.1077, 8627.464
618.5898, 8510.022
619.0719, 8403.321
619.5540, 8303.489
620.0361, 8193.539
620.5182, 8061.294
621.0004, 7928.770
621.4825, 7809.674
621.9646, 7696.491
622.4467, 7576.100
622.9288, 7447.559
623.4109, 7324.090
623.8931, 7218.442
624.3752, 7126.863
624.8573, 7029.450
625.3394, 6928.831
625.8215, 6813.783
626.3036, 6674.109
626.7858, 6525.017
627.2679, 6373.624
627.7500, 6222.554
628.2321, 6092.638
628.7142, 6004.145
629.1964, 5923.129
629.6785, 5832.874
630.1606, 5732.179
630.6427, 5612.276
631.1248, 5473.629
631.6069, 5342.807
632.0891, 5251.559
632.5712, 5196.253
633.0533, 5130.687
633.5354, 5050.992
634.0175, 4969.396
634.4996, 4886.976
634.9818, 4806.363
635.4639, 4730.023
635.9460, 4658.393
636.4281, 4589.168
636.9102, 4518.993
637.3923, 4453.729
637.8745, 4401.081
638.3566, 4356.251
638.8387, 4307.394
639.3208, 4251.172
639.8029, 4195.849
640.2850, 4152.497
640.7672, 4120.577
641.2493, 4083.452
641.7314, 4034.667
642.2135, 3993.874
642.6956, 3980.623
643.1777, 3969.999
643.6599, 3932.062
644.1420, 3864.876
644.6241, 3808.542
645.1062, 3779.401
645.5883, 3763.333
646.0704, 3758.818
646.5526, 3757.298
647.0347, 3738.196
647.5168, 3695.750
647.9989, 3649.961
648.4810, 3626.627
648.9631, 3625.228
649.4453, 3617.824
649.9274, 3603.332
650.4095, 3585.099
650.8916, 3558.404
651.3737, 3532.505
651.8558, 3520.880
652.3380, 3524.845
652.8201, 3521.896
653.3022, 3498.985
653.7843, 3472.857
654.2664, 3455.266
654.7485, 3443.731
655.2307, 3432.481
655.7128, 3419.607
656.1949, 3407.077
656.6770, 3397.979
657.1591, 3391.843
657.6412, 3380.228
658.1234, 3359.977
658.6055, 3343.680
659.0876, 3339.277
659.5697, 3338.223
660.0518, 3331.259
660.5339, 3318.589
661.0161, 3297.764
661.4982, 3253.147
661.9803, 3215.531
662.4624, 3212.971
662.9445, 3227.035
663.4266, 3227.510
663.9088, 3206.068
664.3909, 3173.163
664.8730, 3134.355
665.3551, 3093.557
665.8372, 3076.576
666.3193, 3088.533
666.8015, 3097.177
667.2836, 3092.010
667.7657, 3078.286
668.2478, 3058.964
668.7299, 3033.270
669.2120, 3018.721
669.6942, 3027.388
670.1763, 3035.547
670.6584, 3034.506
671.1405, 3026.278
671.6226, 3010.784
672.1047, 2989.876
672.5869, 2972.595
673.0690, 2969.601
673.5511, 2974.411
674.0332, 2968.781
674.5153, 2952.572
674.9974, 2935.422
675.4796, 2919.476
675.9617, 2905.261
676.4438, 2892.172
676.9259, 2879.840
677.4080, 2877.783
677.8901, 2901.629
678.3723, 2914.986
678.8544, 2904.383
679.3365, 2883.062
679.8186, 2861.443
680.3007, 2841.760
680.7828, 2823.333
681.2650, 2803.131
681.7471, 2787.099
682.2292, 2788.973
682.7113, 2804.360
683.1934, 2812.256
683.6755, 2807.617
684.1577, 2795.606
684.6398, 2779.208
685.1219, 2759.494
685.6040, 2747.969
686.0861, 2756.322
686.5682, 2754.421
687.0504, 2733.001
687.5325, 2706.717
688.0146, 2682.323
688.4967, 2661.534
688.9788, 2647.586
689.4609, 2646.642
689.9431, 2643.906
690.4252, 2619.961
690.9073, 2587.914
691.3894, 2574.342
691.8715, 2581.403
692.3536, 2594.022
692.8358, 2603.211
693.3179, 2606.189
693.8000, 2591.657
694.2821, 2550.870
694.7642, 2523.606
695.2463, 2522.624
695.7285, 2523.934
696.2106, 2513.912
696.6927, 2496.135
697.1748, 2477.178
697.6569, 2456.578
698.1390, 2438.058
698.6212, 2430.118
699.1033, 2419.543
699.5854, 2386.750
700.0675, 2340.097
700.5496, 2306.936
701.0317, 2300.434
701.5139, 2303.242
701.9960, 2287.631
702.4781, 2255.324
702.9602, 2236.310
703.4423, 2237.369
703.9244, 2226.682
704.4066, 2181.552
704.8887, 2121.800
705.3708, 2085.250
705.8529, 2080.105
706.3350, 2068.527
706.8171, 2045.191
707.2993, 2019.406
707.7814, 1994.089
708.2635, 1969.505
708.7456, 1945.760
709.2277, 1922.732
709.7098, 1900.017
710.1920, 1877.494
710.6741, 1854.927
711.1562, 1831.840
711.6383, 1808.326
712.1204, 1783.759
712.6025, 1757.594
713.0847, 1734.599
713.5668, 1721.979
714.0489, 1719.553
714.5310, 1703.914
715.0131, 1661.328
715.4952, 1628.466
715.9774, 1625.230
716.4595, 1623.157
716.9416, 1597.187
717.4237, 1551.514
717.9058, 1512.309
718.3879, 1487.286
718.8701, 1472.137
719.3522, 1473.172
719.8343, 1478.159
720.3164, 1466.662
720.7985, 1438.870
721.2806, 1411.809
721.7628, 1397.040
722.2449, 1389.964
722.7270, 1381.161
723.2091, 1370.652
723.6912, 1357.867
724.1733, 1342.529
724.6555, 1325.578
725.1376, 1306.595
725.6197, 1286.858
726.1018, 1270.336
726.5839, 1260.186
727.0660, 1246.125
727.5482, 1220.236
728.0303, 1197.336
728.5124, 1186.473
728.9945, 1184.428
729.4766, 1187.993
729.9587, 1196.164
730.4409, 1197.182
730.9230, 1173.836
731.4051, 1139.866
731.8872, 1120.165
732.3693, 1113.979
732.8514, 1112.657
733.3336, 1113.344
733.8157, 1113.120
734.2978, 1107.882
734.7799, 1097.543
735.2620, 1088.553
735.7441, 1082.865
736.2263, 1074.657
736.7084, 1057.679
737.1905, 1041.281
737.6726, 1035.580
738.1547, 1038.805
738.6368, 1037.356
739.1190, 1019.784
739.6011, 1006.856
740.0832, 1013.955
740.5653, 1027.142
741.0474, 1029.856
741.5295, 1021.869
742.0117, 1012.330
742.4938, 1006.296
742.9759, 1003.589
743.4580, 1007.121
743.9401, 1014.951
744.4222, 1012.234
744.9044, 996.2425
745.3865, 978.1676
745.8686, 963.7526
746.3507, 953.2006
746.8328, 947.3611
747.3149, 948.5577
747.7971, 948.6452
748.2792, 946.2204
748.7613, 944.2860
749.2434, 944.2003
749.7255, 945.0233
750.2076, 945.6143
750.6898, 945.7857
751.1719, 945.7034
751.6540, 946.9389
752.1361, 946.6168
752.6182, 941.1873
753.1003, 932.5601
753.5825, 923.7997
754.0646, 916.0572
754.5467, 910.8094
755.0288, 910.4932
755.5109, 912.6652
755.9930, 908.4590
756.4752, 897.4402
756.9573, 888.3071
757.4394, 882.1973
757.9215, 880.4732
758.4036, 886.1140
758.8857, 897.0197
759.3679, 902.1901
759.8500, 900.6757
760.3321, 894.4995
760.8142, 876.3570
761.2963, 860.8845
761.7784, 858.6592
762.2606, 864.1270
762.7427, 866.4923
763.2248, 862.7595
763.7069, 856.3899
764.1890, 847.2590
764.6711, 838.2224
765.1533, 834.1956
765.6354, 833.1579
766.1175, 828.5253
766.5996, 818.1729
767.0817, 806.0583
767.5638, 796.2468
768.0460, 788.7720
768.5281, 782.2401
769.0102, 775.5436
769.4923, 780.1716
769.9744, 804.6032
770.4565, 829.5223
770.9387, 834.9403
771.4208, 822.6876
771.9029, 815.0540
772.3850, 821.5220
772.8671, 819.0209
773.3492, 790.4406
773.8314, 766.4927
774.3135, 772.6401
774.7956, 798.1276
775.2777, 817.2859
775.7598, 822.9887
776.2419, 818.4789
776.7241, 794.3308
777.2062, 768.8885
777.6883, 768.0215
778.1704, 786.0757
778.6525, 802.2579
779.1346, 808.5018
779.6168, 810.0128
780.0989, 813.5356
780.5810, 817.9382
781.0631, 815.1149
781.5452, 804.1594
782.0273, 795.5209
782.5095, 792.9119
782.9916, 791.7961
783.4737, 787.3373
783.9558, 779.8466
784.4379, 774.5472
784.9200, 770.7934
785.4022, 770.2979
785.8843, 779.8610
786.3664, 786.3268
786.8485, 777.9952
787.3306, 760.7642
787.8127, 748.5471
788.2949, 744.9290
788.7770, 746.1206
789.2591, 753.8057
789.7412, 762.5136
790.2233, 765.5131
790.7054, 765.1959
791.1876, 769.1971
791.6697, 779.7091
792.1518, 788.7474
792.6339, 786.9172
793.1160, 777.2963
793.5981, 768.6555
794.0803, 761.0099
794.5624, 755.0419
795.0445, 750.8975
795.5266, 748.9100
796.0087, 749.9161
796.4908, 753.1930
796.9730, 754.0332
797.4551, 751.8604
797.9372, 748.3923
798.4193, 740.7483
798.9014, 735.3203
799.3835, 738.8241
799.8657, 746.0696
800.3478, 746.7958
800.8299, 738.7657
801.3120, 728.6187
801.7941, 713.9274
802.2762, 701.9625
802.7584, 695.6263
803.2405, 695.9481
803.7226, 708.4266
804.2047, 731.9110
804.6868, 748.9326
805.1689, 741.8359
805.6511, 725.0483
806.1332, 718.1036
806.6153, 718.8217
807.0974, 722.1144
807.5795, 726.5596
808.0616, 728.8378
808.5438, 726.0021
809.0259, 721.0069
809.5080, 722.7787
809.9901, 732.6323
810.4722, 736.5598
810.9543, 732.2623
811.4365, 725.5754
811.9186, 717.0021
812.4007, 710.0693
812.8828, 711.9834
813.3649, 725.7532
813.8470, 734.9649
814.3292, 737.3789
814.8113, 738.2398
815.2934, 740.8168
815.7755, 741.1020
816.2576, 732.6196
816.7397, 717.3668
817.2219, 706.9363
817.7040, 707.3813
818.1861, 710.7526
818.6682, 712.8289
819.1503, 714.8481
819.6324, 720.1765
820.1146, 726.8284
820.5967, 727.9095
821.0788, 720.1387
821.5609, 709.9430
822.0430, 705.0019
822.5251, 703.7816
823.0073, 700.5214
823.4894, 695.7205
823.9716, 697.8472
824.4537, 710.3022
824.9358, 723.7982
825.4179, 728.1863
825.9000, 724.5947
826.3821, 721.8442
826.8643, 719.6595
827.3464, 719.6799
827.8285, 724.8940
828.3106, 727.7952
828.7927, 720.0506
829.2748, 706.6489
829.7570, 703.0447
830.2391, 715.6163
830.7212, 721.8309
831.2033, 715.6472
831.6854, 707.7669
832.1675, 700.6421
832.6497, 695.8495
833.1318, 697.1115
833.6139, 704.0009
834.0960, 706.6981
834.5781, 697.4740
835.0602, 685.7206
835.5424, 675.0745
836.0245, 667.8445
836.5066, 668.0469
836.9887, 675.1075
837.4708, 685.8049
837.9529, 699.0333
838.4351, 710.7576
838.9172, 715.6310
839.3993, 714.5328
839.8814, 707.2811
840.3635, 695.0980
840.8456, 691.0767
841.3278, 701.0586
841.8099, 714.2147
842.2920, 717.0775
842.7741, 710.7589
843.2562, 706.6718
843.7383, 705.1171
844.2205, 705.0734
844.7026, 707.8915
845.1847, 709.0912
845.6668, 703.3672
846.1489, 693.7129
846.6310, 691.0113
847.1132, 701.3083
847.5953, 706.8332
848.0774, 701.6162
848.5595, 698.5011
849.0416, 704.4445
849.5237, 714.3434
850.0059, 723.8420
850.4880, 731.9558
850.9701, 732.4691
851.4522, 714.2510
851.9343, 698.3894
852.4164, 700.5438
852.8986, 708.2498
853.3807, 705.5059
853.8628, 694.5435
854.3449, 690.0484
854.8270, 700.0562
855.3091, 709.9759
855.7913, 700.1317
856.2734, 682.6602
856.7555, 680.9333
857.2376, 692.0020
857.7197, 700.1255
858.2018, 700.1023
858.6840, 696.2827
859.1661, 691.5798
859.6482, 688.1365
860.1303, 696.7863
860.6124, 717.4149
861.0945, 725.4076
861.5767, 714.8986
862.0588, 702.5820
862.5409, 698.8530
863.0230, 701.0499
863.5051, 703.3788
863.9872, 706.5638
864.4694, 706.1811
864.9515, 698.5098
865.4336, 694.3329
865.9157, 699.6439
866.3978, 707.9643
866.8799, 715.0666
867.3621, 720.3600
867.8442, 714.9561
868.3263, 679.5588
868.8084, 660.4310
869.2905, 679.7923
869.7726, 702.9803
870.2548, 707.2935
870.7369, 698.9639
871.2190, 691.2975
871.7011, 686.9233
872.1832, 685.8425
872.6653, 689.7329
873.1475, 695.2064
873.6296, 703.1024
874.1117, 709.2408
874.5938, 705.5715
875.0759, 693.2133
875.5580, 682.5801
876.0402, 679.2304
876.5223, 681.4456
877.0044, 691.2440
877.4865, 703.6097
877.9686, 709.3228
878.4507, 708.0681
878.9329, 700.6924
879.4150, 687.8391
879.8971, 676.8521
880.3792, 676.9743
880.8613, 685.5853
881.3434, 695.4083
881.8256, 705.9615
882.3077, 707.1476
882.7898, 695.9395
883.2719, 686.8452
883.7540, 691.0793
884.2361, 702.1577
884.7183, 702.5170
885.2004, 688.5539
885.6825, 684.4315
886.1646, 693.9910
886.6467, 703.8912
887.1288, 713.1605
887.6110, 715.0527
888.0931, 696.1355
888.5752, 658.1458
889.0573, 644.3353
889.5394, 676.2978
890.0215, 698.7977
890.5037, 705.2180
890.9858, 704.5512
891.4679, 697.9396
891.9500, 688.6466
892.4321, 681.7780
892.9142, 677.8548
893.3964, 675.9990
893.8785, 671.9636
894.3606, 674.8620
894.8427, 698.2059
895.3248, 723.3107
895.8069, 731.8766
896.2891, 724.3484
896.7712, 709.0784
897.2533, 683.8704
897.7354, 666.8389
898.2175, 677.1299
898.6996, 693.9092
899.1818, 697.7542
899.6639, 691.8411
900.1460, 683.8212
900.6281, 676.4449
901.1102, 671.7107
901.5923, 671.4686
902.0745, 674.2094
902.5566, 680.0388
903.0387, 686.6744
903.5208, 689.3511
904.0029, 687.7310
904.4850, 682.4653
904.9672, 673.7920
905.4493, 667.1486
905.9314, 672.6051
906.4135, 685.7980
906.8956, 689.7389
907.3777, 685.3546
907.8599, 680.7322
908.3420, 677.7832
908.8241, 678.1704
909.3062, 683.8749
909.7883, 691.9335
910.2704, 694.7472
910.7526, 692.1271
911.2347, 687.6429
911.7168, 681.4755
912.1989, 672.2133
912.6810, 657.1341
913.1631, 644.7141
913.6453, 646.2349
914.1274, 660.0449
914.6095, 665.1979
915.0916, 656.5255
915.5737, 653.4743
916.0558, 660.6788
916.5380, 669.6477
917.0201, 678.0919
917.5022, 683.8445
917.9843, 682.0295
918.4664, 670.7792
918.9485, 661.9389
919.4307, 654.6563
919.9128, 650.9238
920.3949, 650.9722
920.8770, 654.7995
921.3591, 666.6017
921.8412, 681.8693
922.3234, 687.3930
922.8055, 677.5377
923.2876, 670.0806
923.7697, 673.3174
924.2518, 674.0558
924.7339, 659.0765
925.2161, 642.9063
925.6982, 645.9164
926.1803, 665.7238
926.6624, 677.8221
927.1445, 667.2029
927.6266, 660.0006
928.1088, 674.8888
928.5909, 692.1171
929.0730, 694.1119
929.5551, 686.2508
930.0372, 680.0990
930.5193, 678.2191
931.0015, 675.5883
931.4836, 666.0793
931.9657, 658.1439
932.4478, 660.5483
932.9299, 667.8241
933.4120, 673.2944
933.8942, 676.5461
934.3763, 679.8077
934.8584, 683.9685
935.3405, 686.3773
935.8226, 683.5281
936.3047, 678.2333
936.7869, 673.7481
937.2690, 670.3095
937.7511, 667.1522
938.2332, 664.9900
938.7153, 669.2436
939.1974, 684.0577
939.6796, 698.6069
940.1617, 695.0593
940.6438, 680.4277
941.1259, 673.6685
941.6080, 674.0096
942.0901, 674.4294
942.5723, 672.9094
943.0544, 669.3870
943.5365, 662.7479
944.0186, 657.3907
944.5007, 666.4025
944.9828, 686.8087
945.4650, 697.1546
945.9471, 696.0826
946.4292, 688.2054
946.9113, 674.6354
947.3934, 663.0117
947.8755, 662.3389
948.3577, 669.9175
948.8398, 674.6318
949.3219, 676.3764
949.8040, 678.2540
950.2861, 680.7414
950.7682, 682.2554
951.2504, 681.8536
951.7325, 680.6693
952.2146, 680.5430
952.6967, 681.3187
953.1788, 679.3926
953.6609, 673.6428
954.1431, 671.0985
954.6252, 674.1550
955.1073, 676.6549
955.5894, 674.1604
956.0715, 669.5457
956.5536, 668.4474
957.0358, 671.1398
957.5179, 675.7224
958.0000, 685.3021
958.4821, 687.6113
958.9642, 672.8787
959.4464, 663.0153
959.9285, 680.9406
960.4106, 712.8542
960.8927, 716.9732
961.3748, 678.9073
961.8569, 662.2728
962.3391, 682.2024
962.8212, 698.0613
963.3033, 695.9784
963.7854, 688.5578
964.2675, 685.7208
964.7496, 686.8799
965.2318, 689.3488
965.7139, 694.4067
966.1960, 698.2296
966.6781, 705.1482
967.1602, 705.4128
967.6423, 686.2502
968.1245, 666.0967
968.6066, 665.6597
969.0887, 682.3309
969.5708, 694.7172
970.0529, 701.5749
970.5350, 704.4681
971.0172, 705.5635
971.4993, 700.3483
971.9814, 674.6147
972.4635, 649.1049
972.9456, 655.3882
973.4277, 691.7048
973.9099, 711.6179
974.3920, 692.2427
974.8741, 680.4287
975.3562, 692.2881
975.8383, 705.0739
976.3204, 706.3815
976.8026, 700.2975
977.2847, 692.4041
977.7668, 683.4147
978.2489, 675.9409
978.7310, 666.4532
979.2131, 664.1107
979.6953, 681.1716
980.1774, 696.5530
980.6595, 691.6406
981.1416, 676.7009
981.6237, 670.9058
982.1058, 677.2847
982.5880, 681.8769
983.0701, 676.2450
983.5522, 674.1114
984.0343, 687.4488
984.5164, 699.9226
984.9985, 694.8635
985.4807, 680.0950
985.9628, 673.2163
986.4449, 678.0710
986.9270, 681.5607
987.4091, 677.4319
987.8912, 673.1578
988.3734, 673.5752
988.8555, 674.1152
989.3376, 669.8629
989.8197, 662.5410
990.3018, 656.7905
990.7839, 653.8382
991.2661, 650.8157
991.7482, 646.4673
992.2303, 641.9100
992.7124, 635.6437
993.1945, 631.1362
993.6766, 632.7255
994.1588, 638.8010
994.6409, 644.7993
995.1230, 649.6324
995.6051, 653.9060
996.0872, 653.5302
996.5693, 657.7729
997.0515, 681.8355
997.5336, 705.6005
998.0157, 702.1857
998.4978, 680.1738
998.9799, 669.9122
999.4620, 681.6808
999.9442, 693.6503
1000.426, 698.2448
1000.908, 697.3547
1001.391, 687.0864
1001.873, 675.7025
1002.355, 672.6771
1002.837, 676.5220
1003.319, 679.6640
1003.801, 679.4923
1004.283, 680.7541
1004.765, 689.0300
1005.247, 695.5047
1005.730, 692.3572
1006.212, 686.2907
1006.694, 683.9839
1007.176, 685.8251
1007.658, 690.7993
1008.140, 699.7305
1008.622, 705.7294
1009.104, 705.5429
1009.586, 701.7261
1010.069, 695.6824
1010.551, 686.9014
1011.033, 670.5266
1011.515, 651.0668
1011.997, 642.1046
1012.479, 648.9985
1012.961, 659.5378
1013.443, 673.3022
1013.926, 683.7877
1014.408, 687.4363
1014.890, 685.7072
1015.372, 676.5453
1015.854, 663.8368
1016.336, 658.6533
1016.818, 665.7379
1017.300, 671.3994
1017.782, 669.1315
1018.265, 665.6833
1018.747, 663.7093
1019.229, 663.0557
1019.711, 664.7704
1020.193, 667.4085
1020.675, 667.4304
1021.157, 664.2814
1021.639, 657.2504
1022.122, 641.9663
1022.604, 627.9102
1023.086, 618.3863
1023.568, 613.0543
1024.050, 613.9955
1024.532, 618.4199
1025.014, 618.4423
1025.496, 610.9002
1025.978, 607.5463
1026.461, 613.5485
1026.943, 621.6089
1027.425, 631.8787
1027.907, 640.3005
1028.389, 638.7733
1028.871, 633.6634
1029.353, 643.9897
1029.835, 677.8221
1030.318, 697.4025
1030.800, 686.6279
1031.282, 673.3318
1031.764, 664.4493
1032.246, 657.7328
1032.728, 647.3593
1033.210, 638.7436
1033.692, 647.3583
1034.174, 679.8661
1034.656, 697.8628
1035.139, 687.3783
1035.621, 676.3270
1036.103, 667.7590
1036.585, 663.4432
1037.067, 667.0325
1037.549, 674.7702
1038.031, 680.0158
1038.513, 682.7740
1038.996, 681.8654
1039.478, 673.1035
1039.960, 667.1672
1040.442, 666.7451
1040.924, 667.8156
1041.406, 668.8947
1041.888, 669.6179
1042.370, 669.1520
1042.853, 667.3654
1043.335, 666.8916
1043.817, 670.6533
1044.299, 669.1506
1044.781, 656.7770
1045.263, 647.0740
1045.745, 648.0909
1046.227, 654.1204
1046.709, 658.5551
1047.192, 661.1085
1047.674, 654.1616
1048.156, 631.6400
1048.638, 619.6250
1049.120, 622.5151
1049.602, 630.8560
1050.084, 642.6470
1050.566, 653.5620
1051.048, 658.0878
1051.531, 657.3666
1052.013, 658.0653
1052.495, 660.3314
1052.977, 663.7376
1053.459, 669.0713
1053.941, 669.8245
1054.423, 662.1435
1054.905, 656.3331
1055.388, 664.1517
1055.870, 679.1522
1056.352, 678.3122
1056.834, 661.8699
1057.316, 657.8251
1057.798, 667.6148
1058.280, 677.3615
1058.762, 683.1661
1059.245, 681.2631
1059.727, 666.9362
1060.209, 649.6894
1060.691, 652.5245
1061.173, 670.2485
1061.655, 673.6720
1062.137, 664.3151
1062.619, 658.2198
1063.101, 658.8381
1063.583, 660.2899
1064.066, 658.9445
1064.548, 656.0016
1065.030, 651.5237
1065.512, 647.4484
1065.994, 650.0577
1066.476, 656.8979
1066.958, 660.0137
1067.440, 659.0446
1067.923, 660.3971
1068.405, 667.1389
1068.887, 671.7584
1069.369, 662.8921
1069.851, 650.6246
1070.333, 648.0949
1070.815, 652.3173
1071.297, 661.3821
1071.780, 671.9668
1072.262, 676.1112
1072.744, 671.5895
1073.226, 665.5768
1073.708, 661.7202
1074.190, 660.0391
1074.672, 661.7149
1075.154, 664.5693
1075.636, 665.4193
1076.119, 665.9537
1076.601, 671.4329
1077.083, 681.7034
1077.565, 687.1192
1078.047, 681.9655
1078.529, 674.2836
1079.011, 663.7947
1079.493, 656.3043
1079.976, 659.9853
1080.458, 666.2761
1080.940, 661.6639
1081.422, 648.1479
1081.904, 642.1136
1082.386, 648.1927
1082.868, 658.4783
1083.350, 681.3855
1083.833, 695.6601
1084.315, 686.5505
1084.797, 671.4040
1085.279, 664.1585
1085.761, 663.4043
1086.243, 664.3527
1086.725, 668.9853
1087.207, 666.8066
1087.689, 649.4550
1088.172, 640.9890
1088.654, 650.2585
1089.136, 662.1055
1089.618, 668.4354
1090.100, 670.3307
1090.582, 668.6890
1091.064, 663.6108
1091.546, 663.4031
1092.028, 668.9769
1092.511, 675.1115
1092.993, 681.4069
1093.475, 687.7075
1093.957, 694.5028
1094.439, 698.4405
1094.921, 695.1816
1095.403, 686.7024
1095.885, 680.2141
1096.368, 675.3970
1096.850, 665.6976
1097.332, 651.7314
1097.814, 651.7545
1098.296, 670.4453
1098.778, 683.8820
1099.260, 672.3099
1099.742, 653.7827
1100.224, 660.7195
1100.707, 681.6935
1101.189, 691.0599
1101.671, 689.9194
1102.153, 679.0145
1102.635, 662.5966
1103.117, 658.0402
1103.599, 673.8840
1104.081, 691.0319
1104.563, 691.6224
1105.046, 685.3538
1105.528, 680.8137
1106.010, 676.9214
1106.492, 671.2369
1106.974, 665.0159
1107.456, 662.7136
1107.938, 664.9406
1108.420, 663.7985
1108.903, 647.3681
1109.385, 638.6152
1109.867, 658.4051
1110.349, 678.6121
1110.831, 677.3267
1111.313, 665.8595
1111.795, 657.9131
1112.277, 655.4099
1112.760, 660.7242
1113.242, 683.8921
1113.724, 693.3271
1114.206, 669.6025
1114.688, 653.9782
1115.170, 667.4356
1115.652, 682.1318
1116.134, 674.0226
1116.616, 654.0785
1117.099, 648.5590
1117.581, 659.4166
1118.063, 664.3539
1118.545, 661.7369
1119.027, 659.0731
1119.509, 657.2556
1119.991, 656.4229
1120.473, 656.5220
1120.955, 658.3053
1121.438, 663.4227
1121.920, 670.1818
1122.402, 671.2369
1122.884, 667.2688
1123.366, 665.7325
1123.848, 666.6337
1124.330, 662.8309
1124.812, 652.8317
1125.295, 646.8448
1125.777, 652.9078
1126.259, 663.6880
1126.741, 671.8784
1127.223, 675.7631
1127.705, 668.2472
1128.187, 655.5416
1128.669, 651.4809
1129.151, 655.8217
1129.634, 659.5955
1130.116, 659.3456
1130.598, 658.5721
1131.080, 657.3633
1131.562, 659.1874
1132.044, 675.7038
1132.526, 687.6578
1133.008, 667.3973
1133.490, 634.7699
1133.973, 626.4438
1134.455, 644.3536
1134.937, 656.5768
1135.419, 651.7101
1135.901, 649.2428
1136.383, 656.1498
1136.865, 660.8655
1137.347, 656.1397
1137.830, 650.3508
1138.312, 651.0756
1138.794, 655.3834
1139.276, 655.6776
1139.758, 651.4958
1140.240, 646.7027
1140.722, 640.9249
1141.204, 635.2749
1141.687, 628.7665
1142.169, 629.3458
1142.651, 642.4188
1143.133, 656.8959
1143.615, 659.5032
1144.097, 653.1298
1144.579, 644.1094
1145.061, 634.2089
1145.543, 634.9679
1146.026, 644.6246
1146.508, 649.9995
1146.990, 647.9932
1147.472, 643.6132
1147.954, 639.6080
1148.436, 636.8922
1148.918, 636.7857
1149.400, 638.2052
1149.882, 642.0550
1150.365, 645.0831
1150.847, 640.9419
1151.329, 632.1538
1151.811, 625.8589
1152.293, 623.9086
1152.775, 625.0515
1153.257, 632.9073
1153.739, 637.7878
1154.222, 632.5533
1154.704, 627.7461
1155.186, 628.9664
1155.668, 634.2862
1156.150, 644.7540
1156.632, 657.3726
1157.114, 658.6852
1157.596, 643.9105
1158.078, 634.8862
1158.561, 633.0911
1159.043, 633.6516
1159.525, 637.0536
1160.007, 638.0372
1160.489, 633.1039
1160.971, 625.5255
1161.453, 618.7051
1161.935, 614.2378
1162.417, 622.0031
1162.900, 639.4590
1163.382, 646.2703
1163.864, 642.1416
1164.346, 633.6981
1164.828, 624.2797
1165.310, 626.4335
1165.792, 650.4698
1166.274, 674.0903
1166.757, 669.5399
1167.239, 653.3736
1167.721, 642.5814
1168.203, 636.2288
1168.685, 632.2485
1169.167, 630.6270
1169.649, 634.2171
1170.131, 643.1190
1170.614, 645.6809
1171.096, 626.8284
1171.578, 616.9774
1172.060, 636.1444
1172.542, 652.9240
1173.024, 646.3979
1173.506, 633.8453
1173.988, 633.1226
1174.470, 640.9063
1174.953, 647.7985
1175.435, 654.4982
1175.917, 654.9335
1176.399, 647.3171
1176.881, 640.9899
1177.363, 637.4512
1177.845, 634.9828
1178.327, 632.7427
1178.809, 631.1916
1179.292, 630.2220
1179.774, 631.7408
1180.256, 644.6251
1180.738, 662.6835
1181.220, 664.6974
1181.702, 654.3188
1182.184, 645.0871
1182.666, 640.1157
1183.149, 638.8069
1183.631, 641.1422
1184.113, 642.1613
1184.595, 636.2554
1185.077, 630.1044
1185.559, 628.5814
1186.041, 628.9606
1186.523, 628.7059
1187.005, 628.6051
1187.488, 629.9231
1187.970, 632.8640
1188.452, 637.7350
1188.934, 645.5477
1189.416, 653.3068
1189.898, 663.2306
1190.380, 668.7457
1190.862, 668.0739
1191.344, 662.6846
1191.827, 651.6510
1192.309, 640.6669
1192.791, 639.0764
1193.273, 644.7380
1193.755, 646.7747
1194.237, 645.7012
1194.719, 647.2522
1195.201, 650.7569
1195.684, 645.6771
1196.166, 631.5178
1196.648, 628.2711
1197.130, 649.5677
1197.612, 671.8247
1198.094, 668.7749
1198.576, 657.7308
1199.058, 655.0627
1199.541, 655.8652
1200.023, 655.1226
1200.505, 652.3111
1200.987, 645.6911
1201.469, 636.1104
1201.951, 633.8408
1202.433, 646.1448
1202.915, 655.9185
1203.397, 663.5042
1203.880, 664.4166
1204.362, 653.7141
1204.844, 642.2665
1205.326, 638.4581
1205.808, 636.4641
1206.290, 625.2966
1206.772, 607.1677
1207.254, 596.3400
1207.736, 592.9909
1208.219, 603.7719
1208.701, 627.0387
1209.183, 645.1135
1209.665, 652.9749
1210.147, 653.8344
1210.629, 649.2809
1211.111, 642.3412
1211.593, 634.0536
1212.076, 627.2041
1212.558, 623.8254
1213.040, 624.4330
1213.522, 633.4560
1214.004, 645.1396
1214.486, 648.3012
1214.968, 642.2519
1215.450, 637.0469
1215.932, 635.8192
1216.415, 633.1769
1216.897, 627.1317
1217.379, 622.2372
1217.861, 620.9084
1218.343, 617.4921
1218.825, 605.5869
1219.307, 596.2391
1219.789, 607.6689
1220.271, 633.7041
1220.754, 646.6319
1221.236, 647.8100
1221.718, 647.1198
1222.200, 645.2526
1222.682, 641.5268
1223.164, 636.1503
1223.646, 630.5391
1224.128, 625.2336
1224.611, 623.4277
1225.093, 632.2281
1225.575, 640.2791
1226.057, 639.0878
1226.539, 632.3574
1227.021, 618.7096
1227.503, 604.9309
1227.985, 599.8535
1228.468, 603.6100
1228.950, 613.2938
1229.432, 633.9125
1229.914, 641.3008
1230.396, 629.9251
1230.878, 619.4915
1231.360, 612.6101
1231.842, 608.9265
1232.324, 608.5883
1232.807, 609.5657
1233.289, 609.6935
1233.771, 609.7702
1234.253, 614.2662
1234.735, 619.0144
1235.217, 610.1981
1235.699, 592.6532
1236.181, 578.1533
1236.663, 568.4357
1237.146, 561.6779
1237.628, 557.2168
1238.110, 554.1248
1238.592, 549.6711
1239.074, 550.4216
1239.556, 565.3000
1240.038, 578.2217
1240.520, 579.3068
1241.003, 576.2259
1241.485, 574.4462
1241.967, 574.5882
1242.449, 578.2952
1242.931, 585.3618
1243.413, 591.6302
1243.895, 597.3994
1244.377, 594.8828
1244.859, 583.9787
1245.342, 579.7399
1245.824, 585.9520
1246.306, 595.2090
1246.788, 603.4894
1247.270, 605.2704
1247.752, 585.4285
1248.234, 565.8339
1248.716, 577.4212
1249.198, 595.7223
1249.681, 590.4003
1250.163, 574.0371
1250.645, 570.4465
1251.127, 579.7155
1251.609, 586.9974
1252.091, 592.0567
1252.573, 587.9958
1253.055, 565.9278
1253.538, 556.0314
1254.020, 565.0551
1254.502, 579.3719
1254.984, 594.1654
1255.466, 605.8010
1255.948, 610.7106
1256.430, 610.4135
1256.912, 606.7021
1257.395, 600.7350
1257.877, 594.8254
1258.359, 589.2344
1258.841, 584.1169
1259.323, 579.7741
1259.805, 576.5546
1260.287, 574.6855
1260.769, 575.0685
1261.251, 578.4651
1261.734, 583.1524
1262.216, 596.6045
1262.698, 599.8545
1263.180, 574.5661
##END=



