##NAMES=Magnesiocopiapite
##RRUFFID=R060155
##IDEAL CHEMISTRY=MgFe^3+^_4_(S^6+^O_4_)_6_(OH)_2_&#183;20H_2_O
##LOCALITY=Denver mine, Santa Cruz County, Arizona, USA
##OWNER=RRUFF
##SOURCE=University of Arizona Mineral Museum
##DESCRIPTION=Yellow fine-grained efflorescence
##STATUS=The identification of this mineral has been confirmed by X-ray diffraction and chemical analysis
##URL=rruff.info/R060155
##MEASURED CHEMISTRY=(Mg_0.95_Mn_0.05_)_Σ=1_(Fe^3+^_3.56_Al_0.44_)_Σ=4_(S_1.00_O_4_)_6_(OH)_2_·17H_2_O ; H not measured but estimated by difference
92.02539, 237.0550
92.50751, 239.7996
92.98962, 242.8148
93.47174, 242.4933
93.95386, 240.9741
94.43597, 238.3768
94.91809, 234.9974
95.40021, 231.2075
95.88232, 227.2872
96.36444, 222.9670
96.84656, 218.9178
97.32867, 215.4916
97.81078, 212.5592
98.29290, 209.8948
98.77502, 207.2193
99.25713, 204.2373
99.73925, 201.1215
100.2214, 197.4522
100.7035, 194.0839
101.1856, 191.4252
101.6677, 189.4521
102.1498, 187.8537
102.6320, 186.2554
103.1141, 184.5048
103.5962, 183.1591
104.0783, 182.4401
104.5604, 181.9983
105.0425, 181.4630
105.5247, 180.7114
106.0068, 179.8422
106.4889, 178.9502
106.9710, 177.9910
107.4531, 177.1288
107.9352, 176.3787
108.4173, 175.7538
108.8995, 175.3835
109.3816, 175.6245
109.8637, 175.8923
110.3458, 175.5209
110.8279, 174.3316
111.3100, 172.8973
111.7922, 171.8324
112.2743, 171.1349
112.7564, 170.8579
113.2385, 171.1987
113.7206, 171.8310
114.2027, 172.5169
114.6849, 173.1560
115.1670, 173.7511
115.6491, 174.3016
116.1312, 174.8234
116.6133, 175.2734
117.0954, 175.6328
117.5776, 175.9200
118.0597, 176.1392
118.5418, 176.2764
119.0239, 176.3264
119.5060, 176.6359
119.9881, 177.3754
120.4703, 178.1533
120.9524, 178.8464
121.4345, 179.4376
121.9166, 179.9485
122.3987, 180.3967
122.8808, 180.7689
123.3630, 181.0485
123.8451, 181.3282
124.3272, 181.4685
124.8093, 181.2293
125.2914, 180.5171
125.7735, 179.7610
126.2557, 179.5238
126.7378, 179.6963
127.2199, 179.8824
127.7020, 179.9518
128.1841, 179.9226
128.6662, 179.8552
129.1483, 179.7834
129.6305, 179.6324
130.1126, 179.2983
130.5947, 178.8048
131.0768, 178.3617
131.5589, 178.2363
132.0410, 178.4977
132.5232, 178.5143
133.0053, 177.8492
133.4874, 177.1579
133.9695, 176.7542
134.4516, 176.7063
134.9337, 176.9066
135.4159, 177.2221
135.8980, 177.7872
136.3801, 178.2097
136.8622, 178.4066
137.3443, 178.5120
137.8264, 178.6463
138.3086, 178.8549
138.7907, 179.0852
139.2728, 179.1885
139.7549, 178.9801
140.2370, 178.8526
140.7191, 178.9683
141.2013, 179.1621
141.6834, 179.1465
142.1655, 178.3365
142.6476, 178.9596
143.1297, 179.3613
143.6118, 179.5535
144.0939, 178.9087
144.5761, 179.3447
145.0582, 179.3476
145.5403, 179.3327
146.0224, 179.9208
146.5045, 179.3977
146.9866, 179.9763
147.4688, 180.1151
147.9509, 180.4552
148.4330, 180.3595
148.9151, 180.3983
149.3972, 180.8732
149.8793, 181.1066
150.3615, 180.9607
150.8436, 181.3136
151.3257, 180.7753
151.8078, 181.0190
152.2899, 181.6001
152.7720, 181.2480
153.2542, 181.2578
153.7363, 181.0240
154.2184, 180.7253
154.7005, 180.2475
155.1826, 180.6791
155.6647, 180.8893
156.1469, 180.8900
156.6290, 180.0537
157.1111, 180.2982
157.5932, 180.1096
158.0753, 179.9032
158.5574, 179.9204
159.0396, 179.6331
159.5217, 179.3017
160.0038, 178.8355
160.4859, 178.2610
160.9680, 177.5529
161.4501, 176.7339
161.9323, 175.7834
162.4144, 174.6192
162.8965, 173.1354
163.3786, 171.2026
163.8607, 169.4644
164.3428, 168.0177
164.8250, 166.6838
165.3071, 165.3879
165.7892, 164.1062
166.2713, 162.7802
166.7534, 161.3013
167.2355, 159.6355
167.7177, 158.1081
168.1998, 156.6534
168.6819, 155.3837
169.1640, 154.5894
169.6461, 154.4510
170.1282, 154.3394
170.6104, 153.3179
171.0925, 151.5064
171.5746, 149.8250
172.0567, 148.5134
172.5388, 147.5965
173.0209, 147.2463
173.5031, 147.8450
173.9852, 148.5390
174.4673, 148.5387
174.9494, 147.9035
175.4315, 147.1822
175.9136, 146.7379
176.3958, 146.5626
176.8779, 146.4689
177.3600, 146.5573
177.8421, 146.6152
178.3242, 146.4399
178.8063, 146.0576
179.2885, 145.7378
179.7706, 145.8420
180.2527, 146.5269
180.7348, 146.9496
181.2169, 146.7124
181.6990, 146.4568
182.1812, 146.5699
182.6633, 147.0880
183.1454, 147.7349
183.6275, 148.1139
184.1096, 148.0640
184.5917, 148.0738
185.0738, 147.9912
185.5560, 148.0529
186.0381, 148.5403
186.5202, 149.4802
187.0023, 150.5491
187.4844, 151.1664
187.9665, 150.6965
188.4487, 150.8064
188.9308, 151.9331
189.4129, 153.3935
189.8950, 154.5488
190.3771, 155.1844
190.8592, 155.5521
191.3414, 156.1362
191.8235, 157.0809
192.3056, 157.9664
192.7877, 158.8080
193.2698, 159.5467
193.7519, 160.1339
194.2341, 160.5672
194.7162, 160.7862
195.1983, 160.5834
195.6804, 159.9100
196.1625, 159.1689
196.6446, 158.5478
197.1268, 157.9458
197.6089, 157.0789
198.0910, 155.7423
198.5731, 154.2741
199.0552, 153.2444
199.5373, 152.7129
200.0195, 152.1800
200.5016, 151.2328
200.9837, 149.9890
201.4658, 149.0871
201.9479, 148.8615
202.4300, 148.9281
202.9122, 148.8488
203.3943, 148.6045
203.8764, 148.3063
204.3585, 147.9707
204.8406, 147.5981
205.3227, 147.4212
205.8048, 147.5393
206.2870, 147.8680
206.7691, 148.3835
207.2512, 149.0792
207.7333, 149.8585
208.2154, 150.6600
208.6975, 151.5102
209.1797, 152.2222
209.6618, 152.5356
210.1439, 152.8546
210.6260, 153.4018
211.1081, 154.2138
211.5902, 155.1805
212.0724, 156.2105
212.5545, 157.3804
213.0366, 158.3494
213.5187, 158.8833
214.0008, 159.3739
214.4829, 160.0854
214.9651, 161.0556
215.4472, 162.1225
215.9293, 163.0193
216.4114, 163.5359
216.8935, 164.3364
217.3756, 165.5711
217.8578, 166.9317
218.3399, 168.3019
218.8220, 169.6131
219.3041, 170.7697
219.7862, 171.5807
220.2683, 171.6785
220.7505, 172.1558
221.2326, 173.0518
221.7147, 174.2542
222.1968, 175.7484
222.6789, 177.5068
223.1610, 179.3953
223.6432, 181.2066
224.1253, 182.7986
224.6074, 184.6382
225.0895, 187.5013
225.5716, 190.1902
226.0537, 191.3629
226.5358, 190.7524
227.0180, 189.4950
227.5001, 189.1665
227.9822, 190.0939
228.4643, 190.9963
228.9464, 191.8052
229.4285, 192.5521
229.9107, 193.2392
230.3928, 193.8642
230.8749, 194.4843
231.3570, 195.1683
231.8391, 195.9188
232.3212, 196.6952
232.8034, 197.5493
233.2855, 198.4029
233.7676, 199.1849
234.2497, 199.8946
234.7318, 200.4618
235.2139, 200.6433
235.6961, 200.4995
236.1782, 200.6472
236.6603, 201.6074
237.1424, 202.8419
237.6245, 203.4419
238.1066, 203.1549
238.5888, 202.7159
239.0709, 203.0405
239.5530, 203.8482
240.0351, 204.1762
240.5172, 203.3673
240.9993, 201.9294
241.4815, 200.7871
241.9636, 199.9829
242.4457, 199.5065
242.9278, 199.6369
243.4099, 200.0836
243.8920, 200.2205
244.3742, 199.6876
244.8563, 198.6812
245.3384, 197.5862
245.8205, 196.2959
246.3026, 195.1716
246.7847, 194.4761
247.2668, 194.0571
247.7490, 193.6937
248.2311, 193.3109
248.7132, 192.9096
249.1953, 192.4243
249.6774, 191.6721
250.1595, 191.2392
250.6417, 191.4880
251.1238, 192.1219
251.6059, 192.7741
252.0880, 193.2682
252.5701, 193.6939
253.0522, 194.3319
253.5344, 195.4069
254.0165, 196.2326
254.4986, 196.2334
254.9807, 196.0535
255.4628, 196.4347
255.9449, 197.7343
256.4271, 199.6237
256.9092, 201.3766
257.3913, 202.9715
257.8734, 204.4424
258.3555, 205.6789
258.8376, 206.8757
259.3198, 208.1859
259.8019, 209.6631
260.2840, 211.3430
260.7661, 213.3400
261.2482, 215.8907
261.7303, 218.3121
262.2125, 220.4886
262.6946, 222.5649
263.1767, 224.6873
263.6588, 226.9035
264.1409, 229.0738
264.6230, 230.9226
265.1052, 232.1139
265.5873, 233.6507
266.0694, 235.9927
266.5515, 238.3620
267.0336, 240.2252
267.5157, 241.4431
267.9979, 242.1773
268.4800, 242.6423
268.9621, 242.7885
269.4442, 242.7321
269.9263, 242.7616
270.4084, 242.4322
270.8906, 241.5117
271.3727, 239.9428
271.8548, 237.7466
272.3369, 234.9084
272.8190, 231.3191
273.3011, 227.4536
273.7833, 223.2540
274.2654, 218.8978
274.7475, 214.4344
275.2296, 209.9009
275.7117, 205.3931
276.1938, 201.0073
276.6760, 196.7524
277.1581, 192.5393
277.6402, 188.2614
278.1223, 184.0984
278.6044, 180.0177
279.0865, 176.0812
279.5686, 172.4873
280.0508, 169.4242
280.5329, 166.9096
281.0150, 164.3052
281.4971, 161.2338
281.9792, 158.4564
282.4613, 156.3987
282.9435, 154.8703
283.4256, 153.3947
283.9077, 151.6609
284.3898, 149.7060
284.8719, 147.9746
285.3540, 146.3937
285.8362, 145.0623
286.3183, 144.0688
286.8004, 143.3381
287.2825, 142.7612
287.7646, 142.2938
288.2467, 141.9072
288.7289, 141.4944
289.2110, 140.9178
289.6931, 140.4859
290.1752, 140.3621
290.6573, 140.3846
291.1394, 140.3138
291.6216, 140.0526
292.1037, 139.7085
292.5858, 139.4989
293.0679, 139.4629
293.5500, 139.4906
294.0321, 139.5213
294.5143, 139.6336
294.9964, 139.9456
295.4785, 140.4894
295.9606, 141.1462
296.4427, 141.7798
296.9248, 142.4497
297.4070, 142.8659
297.8891, 142.7500
298.3712, 142.5359
298.8533, 142.6776
299.3354, 143.2204
299.8175, 143.7948
300.2997, 144.0512
300.7818, 143.9402
301.2639, 143.6028
301.7460, 142.8191
302.2281, 141.9885
302.7102, 141.4051
303.1924, 141.0591
303.6745, 140.7036
304.1566, 140.1131
304.6387, 139.3165
305.1208, 138.7929
305.6029, 139.3643
306.0851, 139.4002
306.5672, 137.8846
307.0493, 135.1050
307.5314, 131.9788
308.0135, 128.9392
308.4956, 126.0139
308.9778, 123.3712
309.4599, 120.8957
309.9420, 118.7663
310.4241, 117.3015
310.9062, 116.2054
311.3883, 114.8966
311.8705, 113.1159
312.3526, 111.0870
312.8347, 109.3531
313.3168, 108.0790
313.7989, 106.6488
314.2810, 104.7161
314.7632, 102.6403
315.2453, 100.8710
315.7274, 99.53653
316.2095, 98.51420
316.6916, 97.70081
317.1737, 97.17915
317.6559, 96.47820
318.1380, 95.45162
318.6201, 94.29475
319.1022, 93.15725
319.5843, 92.06126
320.0664, 91.02125
320.5485, 90.04787
321.0306, 89.15343
321.5128, 88.31069
321.9949, 87.49801
322.4770, 86.74858
322.9591, 86.09899
323.4412, 85.53965
323.9233, 84.99829
324.4055, 84.40873
324.8876, 83.80317
325.3697, 83.42011
325.8518, 83.66530
326.3339, 83.66261
326.8160, 82.88946
327.2982, 81.63072
327.7803, 80.48302
328.2624, 79.71166
328.7445, 79.24065
329.2266, 78.89147
329.7087, 78.71748
330.1909, 78.54807
330.6730, 78.46778
331.1551, 78.33550
331.6372, 77.87973
332.1193, 77.01572
332.6014, 76.08228
333.0836, 75.58013
333.5657, 75.69602
334.0478, 75.72702
334.5299, 75.54316
335.0120, 75.33768
335.4941, 75.36514
335.9763, 75.61309
336.4584, 75.71732
336.9405, 75.27796
337.4226, 74.22240
337.9047, 73.56128
338.3868, 73.63471
338.8690, 73.72857
339.3511, 73.35472
339.8332, 72.66303
340.3153, 72.19479
340.7974, 72.33318
341.2795, 72.94890
341.7617, 73.20328
342.2438, 72.79477
342.7259, 72.43932
343.2080, 72.39152
343.6901, 72.47301
344.1722, 72.41090
344.6544, 72.09251
345.1365, 71.60142
345.6186, 71.10204
346.1007, 70.41866
346.5828, 70.02348
347.0649, 70.26488
347.5471, 70.59739
348.0292, 70.52148
348.5113, 69.95580
348.9934, 69.15310
349.4755, 68.37917
349.9576, 67.54990
350.4398, 67.14877
350.9219, 67.55472
351.4040, 67.97439
351.8861, 67.92852
352.3682, 67.50938
352.8503, 67.12633
353.3325, 67.10924
353.8146, 67.42220
354.2967, 67.49223
354.7788, 67.09428
355.2609, 66.71172
355.7430, 66.43739
356.2252, 66.24157
356.7073, 66.07973
357.1894, 65.93204
357.6715, 65.79016
358.1536, 65.62945
358.6357, 65.41905
359.1179, 65.23884
359.5999, 65.10954
360.0821, 64.99789
360.5642, 64.85640
361.0463, 64.68595
361.5284, 64.55482
362.0105, 64.56332
362.4926, 64.76755
362.9748, 64.89525
363.4569, 64.84481
363.9390, 64.81789
364.4211, 65.05025
364.9032, 65.39933
365.3853, 65.46036
365.8675, 64.85805
366.3496, 63.69504
366.8317, 62.96333
367.3138, 62.93788
367.7959, 63.03354
368.2780, 63.19906
368.7602, 63.37899
369.2423, 63.53457
369.7244, 63.65168
370.2065, 63.69137
370.6886, 63.52538
371.1707, 62.98425
371.6529, 62.67426
372.1350, 62.83452
372.6171, 63.12480
373.0992, 63.35841
373.5813, 63.49577
374.0634, 63.56923
374.5456, 63.62139
375.0277, 63.65605
375.5098, 63.57860
375.9919, 63.22043
376.4740, 62.93674
376.9561, 62.89973
377.4383, 63.05826
377.9204, 63.29952
378.4025, 63.62343
378.8846, 63.95032
379.3667, 64.00935
379.8488, 63.65857
380.3310, 63.40934
380.8131, 63.56857
381.2952, 63.88726
381.7773, 64.11889
382.2594, 64.19213
382.7415, 64.21201
383.2237, 64.28359
383.7058, 64.40668
384.1879, 64.53691
384.6700, 64.59155
385.1521, 64.73592
385.6342, 65.19090
386.1164, 65.92480
386.5985, 66.53776
387.0806, 66.71599
387.5627, 66.61864
388.0448, 66.63667
388.5269, 66.83060
389.0091, 67.03945
389.4912, 67.17648
389.9733, 67.23957
390.4554, 67.19621
390.9375, 66.83533
391.4196, 66.55337
391.9018, 66.80464
392.3839, 67.53350
392.8660, 68.20602
393.3481, 68.53716
393.8302, 68.73008
394.3123, 69.26625
394.7945, 70.36311
395.2766, 71.09284
395.7587, 70.66215
396.2408, 69.73280
396.7229, 69.52763
397.2050, 70.36633
397.6872, 71.46703
398.1693, 71.98367
398.6514, 71.85322
399.1335, 71.73174
399.6156, 71.55681
400.0977, 71.47056
400.5798, 71.59449
401.0620, 71.90730
401.5441, 72.33799
402.0262, 72.89713
402.5083, 73.49680
402.9904, 73.65792
403.4725, 72.70034
403.9547, 72.21085
404.4368, 72.85007
404.9189, 73.98373
405.4010, 74.81339
405.8831, 75.09111
406.3652, 75.10484
406.8474, 75.26128
407.3295, 75.58522
407.8116, 75.99769
408.2937, 76.68917
408.7758, 77.29070
409.2579, 77.53002
409.7401, 77.48029
410.2222, 77.39567
410.7043, 77.44180
411.1864, 77.63129
411.6685, 78.07912
412.1506, 79.22505
412.6328, 80.08434
413.1149, 80.29903
413.5970, 80.25512
414.0791, 80.39921
414.5612, 80.87954
415.0433, 81.47688
415.5255, 81.82291
416.0076, 81.80913
416.4897, 81.92559
416.9718, 82.15208
417.4539, 82.56169
417.9360, 83.30544
418.4182, 84.29729
418.9003, 85.25080
419.3824, 85.95698
419.8645, 86.46230
420.3466, 86.97395
420.8287, 87.45396
421.3109, 88.01675
421.7930, 88.73827
422.2751, 89.54415
422.7572, 90.36972
423.2393, 91.20932
423.7214, 92.00341
424.2036, 92.62357
424.6857, 93.08070
425.1678, 93.70956
425.6499, 94.69744
426.1320, 95.73675
426.6141, 96.53819
427.0963, 97.12630
427.5784, 97.69498
428.0605, 98.24362
428.5426, 98.85676
429.0247, 99.67471
429.5068, 100.7159
429.9890, 101.8746
430.4711, 103.1848
430.9532, 104.5323
431.4353, 105.5589
431.9174, 105.9367
432.3995, 106.4816
432.8817, 107.7741
433.3638, 109.5070
433.8459, 111.0138
434.3280, 112.0618
434.8101, 112.9609
435.2922, 114.1756
435.7744, 115.8497
436.2565, 117.2133
436.7386, 117.9250
437.2207, 118.5699
437.7028, 119.2882
438.1849, 120.2522
438.6671, 122.0962
439.1492, 125.4463
439.6313, 129.8184
440.1134, 132.2684
440.5955, 131.0744
441.0776, 130.0522
441.5598, 129.5975
442.0418, 129.5132
442.5240, 129.6339
443.0061, 129.8950
443.4882, 130.2489
443.9703, 130.6085
444.4524, 130.9198
444.9345, 131.5025
445.4167, 132.8707
445.8988, 134.0017
446.3809, 134.3330
446.8630, 134.1677
447.3451, 134.1045
447.8272, 134.4713
448.3094, 135.1705
448.7915, 135.9785
449.2736, 136.9188
449.7557, 137.8980
450.2378, 138.9803
450.7199, 140.0393
451.2021, 140.9673
451.6842, 141.7578
452.1663, 142.5183
452.6484, 143.3638
453.1305, 144.2580
453.6126, 144.9919
454.0948, 145.4805
454.5769, 145.9755
455.0590, 146.7139
455.5411, 147.5694
456.0232, 148.3083
456.5053, 148.7748
456.9875, 149.2516
457.4696, 149.9528
457.9517, 150.8634
458.4338, 151.9478
458.9159, 153.2300
459.3980, 154.6158
459.8802, 155.9854
460.3623, 157.3418
460.8444, 158.6616
461.3265, 159.8951
461.8086, 161.1146
462.2907, 162.3661
462.7729, 163.6598
463.2550, 165.0434
463.7371, 166.6050
464.2192, 168.2568
464.7013, 169.5314
465.1834, 170.0024
465.6656, 170.6663
466.1477, 172.0264
466.6298, 173.4748
467.1119, 174.2222
467.5940, 174.1514
468.0761, 173.9266
468.5583, 174.4230
469.0404, 175.8642
469.5225, 176.5971
470.0046, 176.0568
470.4867, 175.3780
470.9688, 174.8354
471.4510, 174.3942
471.9331, 173.9992
472.4152, 173.6427
472.8973, 173.1941
473.3794, 172.3626
473.8615, 171.0605
474.3437, 169.7502
474.8258, 168.4082
475.3079, 167.1792
475.7900, 166.3256
476.2721, 165.7481
476.7542, 164.8946
477.2364, 163.2666
477.7185, 161.1656
478.2006, 159.3149
478.6827, 157.7987
479.1648, 156.0841
479.6469, 153.7861
480.1291, 151.1559
480.6112, 148.7066
481.0933, 146.5766
481.5754, 144.3125
482.0575, 141.6383
482.5396, 138.6858
483.0217, 135.6556
483.5038, 132.5825
483.9860, 129.5146
484.4681, 126.4271
484.9502, 123.3326
485.4323, 120.6101
485.9144, 118.5846
486.3965, 116.5664
486.8787, 114.2480
487.3608, 111.7218
487.8429, 109.1553
488.3250, 106.6076
488.8071, 104.1128
489.2892, 101.7643
489.7714, 99.63314
490.2535, 97.43027
490.7356, 94.91438
491.2177, 92.56558
491.6998, 90.70791
492.1819, 89.23080
492.6641, 87.81013
493.1462, 86.22211
493.6283, 84.61115
494.1104, 83.48744
494.5925, 83.14517
495.0746, 82.49744
495.5568, 80.97366
496.0389, 79.28011
496.5210, 77.87073
497.0031, 76.78996
497.4852, 75.85777
497.9673, 75.06972
498.4495, 74.33468
498.9316, 73.33766
499.4137, 71.98808
499.8958, 70.75249
500.3779, 69.95677
500.8600, 69.43071
501.3422, 68.80386
501.8243, 67.98515
502.3064, 67.21884
502.7885, 66.56507
503.2706, 66.05654
503.7527, 65.85040
504.2349, 65.98814
504.7170, 66.03728
505.1991, 65.53077
505.6812, 64.42382
506.1633, 63.54283
506.6454, 63.00382
507.1276, 62.53442
507.6097, 62.03251
508.0918, 61.53539
508.5739, 61.08295
509.0560, 60.69474
509.5381, 60.43731
510.0203, 60.48690
510.5024, 61.06728
510.9845, 61.18561
511.4666, 60.33456
511.9487, 59.52293
512.4308, 59.18855
512.9130, 59.17822
513.3951, 59.14515
513.8772, 58.91375
514.3593, 58.57363
514.8414, 58.28889
515.3235, 58.06861
515.8057, 57.82140
516.2878, 57.47995
516.7699, 57.15142
517.2520, 56.89521
517.7341, 56.71833
518.2162, 56.66048
518.6984, 56.82121
519.1805, 57.06228
519.6626, 57.23911
520.1447, 57.34459
520.6268, 57.32356
521.1089, 57.11069
521.5911, 56.80096
522.0732, 56.60807
522.5553, 56.52030
523.0374, 56.54378
523.5195, 56.82786
524.0016, 57.12090
524.4838, 57.20189
524.9659, 57.06629
525.4480, 56.81001
525.9301, 56.48439
526.4122, 56.12127
526.8943, 55.88052
527.3765, 55.82882
527.8586, 55.81700
528.3407, 55.93524
528.8228, 56.01487
529.3049, 55.83081
529.7870, 55.41798
530.2692, 55.09948
530.7513, 55.21313
531.2334, 55.67203
531.7155, 55.94471
532.1976, 55.94494
532.6797, 55.95842
533.1619, 55.58321
533.6440, 56.28057
534.1261, 56.75654
534.6082, 57.02302
535.0903, 56.45248
535.5724, 56.96277
536.0546, 57.03997
536.5367, 57.09933
537.0188, 57.76173
537.5009, 57.31296
537.9830, 57.96577
538.4651, 58.17886
538.9473, 58.59326
539.4294, 58.57178
539.9115, 58.68494
540.3936, 59.23404
540.8757, 58.92545
541.3578, 58.94430
541.8400, 58.95111
542.3221, 58.96333
542.8042, 58.98308
543.2863, 59.00768
543.7684, 59.21003
544.2505, 59.75607
544.7326, 60.28740
545.2147, 60.88757
545.6968, 61.36332
546.1790, 61.42519
546.6611, 61.02724
547.1432, 60.54437
547.6253, 60.34607
548.1074, 60.42133
548.5895, 60.68942
549.0717, 61.25616
549.5538, 61.77911
550.0359, 62.10044
550.5180, 62.23275
551.0001, 62.13374
551.4822, 61.69319
551.9644, 61.27354
552.4465, 61.08985
552.9286, 61.08962
553.4107, 61.22829
553.8928, 61.50250
554.3749, 61.68341
554.8571, 61.53013
555.3392, 61.05439
555.8213, 60.74836
556.3034, 60.67109
556.7855, 60.66295
557.2676, 60.71102
557.7498, 60.79197
558.2319, 60.91814
558.7140, 61.07410
559.1961, 61.16230
559.6782, 61.08162
560.1603, 60.83290
560.6425, 60.42854
561.1246, 59.68679
561.6067, 59.06397
562.0888, 58.66002
562.5709, 58.45138
563.0530, 58.49390
563.5352, 58.81392
564.0173, 59.04380
564.4994, 58.80134
564.9815, 58.21384
565.4636, 57.65264
565.9457, 57.12103
566.4279, 56.78649
566.9100, 56.86899
567.3921, 57.22553
567.8742, 57.32889
568.3563, 57.03593
568.8384, 56.73139
569.3206, 56.48298
569.8027, 56.32539
570.2848, 56.36750
570.7669, 56.58826
571.2490, 56.74269
571.7311, 56.57806
572.2133, 56.15129
572.6954, 56.10520
573.1775, 56.88457
573.6596, 57.43867
574.1417, 57.40915
574.6238, 57.26160
575.1060, 57.38453
575.5881, 57.82969
576.0702, 58.43272
576.5523, 59.19691
577.0344, 59.99937
577.5165, 60.30251
577.9987, 59.98124
578.4808, 59.70472
578.9629, 59.72880
579.4450, 59.97632
579.9271, 60.35119
580.4092, 60.87440
580.8914, 61.36405
581.3735, 61.77088
581.8556, 62.09715
582.3377, 62.23132
582.8198, 62.24091
583.3019, 62.50511
583.7841, 63.27123
584.2662, 64.36958
584.7483, 65.34019
585.2304, 66.17763
585.7125, 66.88551
586.1946, 67.43044
586.6768, 67.88716
587.1589, 68.22669
587.6410, 68.51798
588.1231, 68.90886
588.6052, 69.48830
589.0873, 70.20262
589.5695, 70.93583
590.0516, 71.68350
590.5337, 72.49808
591.0158, 73.44289
591.4979, 74.40043
591.9800, 75.30563
592.4622, 76.14735
592.9443, 76.86732
593.4264, 77.40134
593.9085, 77.84658
594.3906, 78.25220
594.8727, 78.62682
595.3549, 78.96219
595.8370, 79.24502
596.3191, 79.62479
596.8012, 80.35368
597.2833, 81.55566
597.7654, 82.21333
598.2476, 82.06013
598.7297, 81.75947
599.2118, 81.38779
599.6939, 81.04147
600.1760, 80.84317
600.6581, 80.81928
601.1403, 80.85167
601.6224, 80.84327
602.1045, 80.78972
602.5866, 80.55656
603.0687, 80.01899
603.5508, 79.57910
604.0330, 79.48087
604.5151, 79.57854
604.9972, 79.75652
605.4793, 80.05410
605.9614, 80.17942
606.4435, 79.79836
606.9257, 79.25018
607.4078, 79.02945
607.8899, 79.15714
608.3720, 79.38516
608.8541, 79.58485
609.3362, 79.72595
609.8184, 79.70437
610.3005, 79.21996
610.7826, 79.03172
611.2647, 79.46542
611.7468, 79.89990
612.2289, 79.90218
612.7111, 79.56031
613.1932, 79.20339
613.6753, 79.01308
614.1574, 78.92184
614.6395, 78.84000
615.1216, 78.77792
615.6038, 78.56033
616.0859, 78.08151
616.5680, 77.54230
617.0501, 77.14610
617.5322, 76.83420
618.0143, 76.40128
618.4965, 75.76651
618.9786, 75.04538
619.4607, 74.25596
619.9428, 73.44063
620.4249, 72.64970
620.9070, 71.90137
621.3892, 71.26337
621.8713, 70.82365
622.3534, 70.57719
622.8355, 70.25617
623.3176, 69.73218
623.7997, 69.30088
624.2819, 69.07547
624.7640, 68.91576
625.2461, 68.69144
625.7282, 68.39278
626.2103, 68.10963
626.6924, 68.00797
627.1745, 67.93797
627.6566, 67.43244
628.1387, 66.44858
628.6208, 65.60883
629.1030, 65.11805
629.5851, 64.90944
630.0672, 64.99055
630.5493, 65.38481
631.0314, 65.59653
631.5135, 65.45395
631.9957, 65.20304
632.4778, 64.92881
632.9599, 64.67644
633.4420, 64.53253
633.9241, 64.52631
634.4063, 64.55645
634.8884, 64.43854
635.3705, 63.56271
635.8526, 64.11420
636.3347, 64.44428
636.8168, 64.56487
637.2990, 63.84848
637.7811, 64.21288
638.2632, 64.14413
638.7453, 64.05763
639.2274, 64.60771
639.7095, 64.42236
640.1917, 64.03476
640.6738, 63.67921
641.1559, 63.37607
641.6380, 63.13942
642.1201, 63.00007
642.6022, 62.89478
643.0844, 62.68961
643.5665, 62.45244
644.0486, 61.94369
644.5307, 60.81538
645.0128, 59.75481
645.4949, 59.13225
645.9771, 58.86655
646.4592, 58.81961
646.9413, 58.94386
647.4234, 58.96257
647.9055, 58.35915
648.3876, 57.15070
648.8698, 56.22016
649.3519, 55.70411
649.8340, 55.32140
650.3161, 54.93927
650.7982, 54.56598
651.2803, 54.25135
651.7625, 54.08515
652.2446, 53.75374
652.7267, 52.90932
653.2088, 51.98027
653.6909, 51.42760
654.1730, 51.26949
654.6552, 51.39462
655.1373, 51.78040
655.6194, 52.18786
656.1015, 51.89666
656.5836, 50.40576
657.0657, 49.51615
657.5479, 49.87103
658.0300, 50.32895
658.5121, 50.46832
658.9942, 50.34634
659.4763, 50.09107
659.9584, 49.68726
660.4406, 49.35244
660.9227, 49.44379
661.4048, 49.73836
661.8869, 49.54456
662.3690, 48.75167
662.8511, 48.07038
663.3333, 48.05536
663.8154, 48.51234
664.2975, 48.62646
664.7796, 47.97686
665.2617, 47.57549
665.7438, 47.68785
666.2260, 47.84238
666.7081, 47.66961
667.1902, 47.26538
667.6723, 46.96098
668.1544, 46.94032
668.6365, 47.03475
669.1187, 46.99700
669.6008, 46.82972
670.0829, 46.55135
670.5650, 46.08248
671.0471, 45.72748
671.5292, 45.79836
672.0114, 46.16523
672.4935, 46.35783
672.9756, 46.43590
673.4577, 46.22313
673.9398, 45.22093
674.4219, 44.21130
674.9041, 44.08642
675.3862, 44.73474
675.8683, 45.40240
676.3504, 45.63343
676.8325, 45.55509
677.3146, 45.48609
677.7968, 45.47493
678.2789, 45.20897
678.7610, 44.34607
679.2431, 43.62144
679.7252, 43.61475
680.2073, 44.02283
680.6895, 44.22240
681.1716, 44.01206
681.6537, 43.76925
682.1358, 43.80381
682.6179, 43.89345
683.1000, 43.61185
683.5822, 42.98955
684.0643, 42.55336
684.5464, 42.68110
685.0285, 43.11338
685.5106, 43.05969
685.9927, 42.13609
686.4749, 41.62976
686.9570, 42.03144
687.4391, 42.41919
687.9212, 42.31001
688.4033, 41.92145
688.8854, 41.68317
689.3676, 41.74617
689.8497, 41.91512
690.3318, 42.08044
690.8139, 42.21887
691.2960, 42.25294
691.7781, 42.18019
692.2603, 42.13728
692.7424, 42.22334
693.2245, 42.36497
693.7066, 42.36159
694.1887, 42.07535
694.6708, 41.92244
695.1530, 41.95301
695.6351, 42.05436
696.1172, 42.29926
696.5993, 42.54114
697.0814, 42.49916
697.5635, 42.06292
698.0457, 41.57426
698.5278, 41.34563
699.0099, 41.34233
699.4920, 41.50238
699.9741, 41.83309
700.4562, 42.12459
700.9384, 42.31368
701.4205, 42.33537
701.9026, 42.00705
702.3847, 41.09575
702.8668, 40.47027
703.3489, 40.15581
703.8311, 40.11431
704.3132, 40.55425
704.7953, 41.17506
705.2774, 41.54129
705.7595, 41.51416
706.2416, 41.26421
706.7238, 40.82965
707.2059, 40.30720
707.6880, 40.13904
708.1701, 40.29768
708.6522, 40.89753
709.1343, 41.27596
709.6164, 41.44490
710.0985, 40.77686
710.5806, 41.18962
711.0627, 41.16923
711.5449, 40.61009
712.0270, 40.48129
712.5091, 40.51273
712.9912, 40.63918
713.4733, 40.83807
713.9554, 41.07486
714.4376, 41.19023
714.9197, 40.97037
715.4018, 40.52699
715.8839, 40.29447
716.3660, 40.28971
716.8481, 40.39668
717.3303, 40.66260
717.8124, 40.91395
718.2945, 40.89296
718.7766, 40.62642
719.2587, 40.50788
719.7408, 40.75014
720.2230, 40.93394
720.7051, 40.85220
721.1872, 40.64737
721.6693, 40.41920
722.1514, 40.22992
722.6335, 40.23451
723.1157, 40.61847
723.5978, 41.15690
724.0799, 41.17419
724.5620, 40.60590
725.0441, 40.17562
725.5262, 40.01554
726.0084, 40.03476
726.4905, 40.27407
726.9726, 40.64564
727.4547, 40.79921
727.9368, 40.62505
728.4189, 40.37711
728.9011, 40.00502
729.3832, 39.68355
729.8653, 39.61151
730.3474, 39.75431
730.8295, 39.95163
731.3116, 40.11909
731.7938, 40.26057
732.2759, 40.40929
732.7580, 40.56690
733.2401, 40.54501
733.7222, 40.23112
734.2043, 39.99775
734.6865, 40.13027
735.1686, 40.45826
735.6507, 40.59486
736.1328, 40.47568
736.6149, 40.38802
737.0970, 40.40033
737.5792, 40.45280
738.0613, 40.55552
738.5434, 40.65430
739.0255, 40.66500
739.5076, 40.55652
739.9897, 40.33814
740.4719, 39.89850
740.9540, 39.32005
741.4361, 39.28673
741.9182, 39.92938
742.4003, 40.45443
742.8824, 40.57124
743.3646, 40.43212
743.8467, 40.10755
744.3288, 39.58486
744.8109, 39.45632
745.2930, 40.31227
745.7751, 40.93771
746.2573, 40.60097
746.7394, 39.89999
747.2215, 39.52632
747.7036, 39.58360
748.1857, 39.80515
748.6678, 40.03426
749.1500, 40.23109
749.6321, 40.30794
750.1142, 40.26479
750.5963, 40.09452
751.0784, 39.73579
751.5605, 39.42736
752.0427, 39.38323
752.5248, 39.55658
753.0069, 39.67670
753.4890, 39.64591
753.9711, 39.71727
754.4532, 40.05070
754.9354, 40.38383
755.4175, 40.52526
755.8996, 40.51176
756.3817, 40.45750
756.8638, 40.40775
757.3459, 40.36601
757.8281, 40.35637
758.3102, 40.35930
758.7923, 40.28579
759.2744, 40.12619
759.7565, 39.97772
760.2386, 39.88614
760.7208, 39.83248
761.2029, 39.77954
761.6850, 39.71136
762.1671, 39.71289
762.6492, 39.87855
763.1313, 39.99566
763.6135, 39.98353
764.0956, 39.89741
764.5777, 39.74613
765.0598, 39.56291
765.5419, 39.50777
766.0240, 39.84963
766.5062, 40.23052
766.9883, 40.02410
767.4704, 39.38503
767.9525, 38.93382
768.4346, 38.81531
768.9167, 38.99576
769.3989, 39.52109
769.8810, 40.28378
770.3631, 40.58311
770.8452, 40.05656
771.3273, 39.72513
771.8094, 39.81601
772.2916, 39.95744
772.7737, 39.93266
773.2558, 39.81598
773.7379, 39.80363
774.2200, 39.98859
774.7021, 40.11522
775.1843, 39.95152
775.6664, 39.66753
776.1485, 39.51123
776.6306, 39.46284
777.1127, 39.30248
777.5948, 38.92425
778.0770, 38.62171
778.5591, 38.92027
779.0412, 39.87012
779.5233, 40.31776
780.0054, 39.98848
780.4875, 39.73724
780.9697, 39.99848
781.4518, 40.33733
781.9339, 40.25341
782.4160, 39.78926
782.8981, 39.51887
783.3802, 39.79071
783.8624, 40.04627
784.3445, 39.96045
784.8266, 39.71564
785.3087, 39.52235
785.7908, 39.41897
786.2729, 39.36576
786.7551, 39.33444
787.2372, 39.34547
787.7193, 39.49083
788.2014, 39.76663
788.6835, 39.86300
789.1656, 39.71569
789.6478, 39.48312
790.1299, 39.18737
790.6120, 38.91657
791.0941, 38.91488
791.5762, 39.30342
792.0583, 39.58276
792.5404, 39.74333
793.0225, 39.77102
793.5046, 39.55022
793.9868, 39.24641
794.4689, 39.08558
794.9510, 39.10675
795.4331, 39.15460
795.9152, 39.07064
796.3973, 38.97052
796.8795, 39.05843
797.3616, 39.30854
797.8437, 39.64054
798.3258, 40.04452
798.8079, 40.31879
799.2900, 40.27214
799.7722, 39.95128
800.2543, 39.60473
800.7364, 39.12497
801.2185, 38.83678
801.7006, 38.91774
802.1827, 39.04586
802.6649, 39.10326
803.1470, 39.09666
803.6291, 39.03139
804.1112, 38.89103
804.5933, 38.79007
805.0754, 38.80668
805.5576, 38.87482
806.0397, 38.94610
806.5218, 39.01131
807.0039, 39.07938
807.4860, 39.14721
807.9681, 39.15008
808.4503, 38.99931
808.9324, 38.72613
809.4145, 38.47730
809.8966, 38.23499
810.3787, 38.12825
810.8608, 38.21679
811.3430, 38.40281
811.8251, 38.65553
812.3072, 38.94386
812.7893, 39.06755
813.2714, 38.92346
813.7535, 38.77102
814.2357, 38.62063
814.7178, 38.49660
815.1999, 38.40538
815.6820, 38.35746
816.1641, 38.37302
816.6462, 38.45929
817.1284, 38.58925
817.6105, 38.82478
818.0926, 39.05022
818.5747, 38.97303
819.0568, 38.64120
819.5389, 38.39265
820.0211, 38.34525
820.5032, 38.42231
820.9853, 38.55509
821.4674, 38.73504
821.9495, 38.82607
822.4316, 38.80030
822.9138, 38.74477
823.3959, 38.59682
823.8780, 38.50140
824.3601, 38.63843
824.8422, 38.89471
825.3243, 38.94576
825.8065, 38.60508
826.2886, 38.38305
826.7707, 38.67265
827.2528, 38.99683
827.7349, 38.34529
828.2170, 38.82985
828.6992, 39.09299
829.1813, 39.14664
829.6634, 38.36331
830.1455, 38.66077
830.6276, 38.52509
831.1097, 38.37166
831.5919, 38.82122
832.0740, 38.15963
832.5561, 38.59964
833.0382, 38.59991
833.5203, 38.80144
834.0024, 38.56716
834.4846, 38.46748
834.9667, 38.80376
835.4488, 38.89864
835.9309, 38.61420
836.4130, 38.82852
836.8951, 38.15170
837.3773, 38.25686
837.8594, 38.69942
838.3415, 38.43689
838.8236, 38.65918
839.3057, 38.69682
839.7878, 37.89532
840.2700, 38.55317
840.7521, 38.57990
841.2342, 37.95860
841.7163, 38.56645
842.1984, 38.03449
842.6805, 38.25722
843.1627, 38.33506
843.6448, 38.34737
844.1269, 38.29404
844.6090, 38.17146
845.0911, 37.94622
845.5732, 37.77759
846.0554, 37.81555
846.5375, 37.96424
847.0196, 37.92240
847.5017, 37.42210
847.9838, 37.35621
848.4659, 38.29396
848.9481, 38.98981
849.4302, 38.71717
849.9123, 38.08863
850.3944, 37.93391
850.8765, 38.30882
851.3586, 38.47801
851.8408, 37.78450
852.3229, 37.02157
852.8050, 36.88473
853.2871, 37.13197
853.7692, 37.40114
854.2513, 37.61697
854.7335, 37.83382
855.2156, 38.09870
855.6977, 38.27382
856.1798, 37.96440
856.6619, 37.19880
857.1440, 37.01067
857.6262, 37.60888
858.1083, 37.90380
858.5904, 37.26226
859.0725, 36.35154
859.5546, 36.14968
860.0367, 36.74555
860.5189, 37.01213
861.0010, 36.56398
861.4831, 36.32380
861.9652, 36.73865
862.4473, 37.15017
862.9294, 36.92844
863.4116, 36.28909
863.8937, 35.93803
864.3758, 36.16304
864.8579, 36.44829
865.3400, 36.46440
865.8221, 36.37632
866.3043, 36.35160
866.7864, 36.38727
867.2685, 36.46731
867.7506, 36.57409
868.2327, 36.59163
868.7148, 36.33092
869.1970, 35.93079
869.6791, 35.91106
870.1612, 36.27208
870.6433, 36.53563
871.1254, 36.58240
871.6075, 36.63120
872.0897, 36.89849
872.5718, 37.24987
873.0539, 37.22069
873.5360, 36.50441
874.0181, 36.11128
874.5002, 36.50967
874.9823, 36.69313
875.4644, 36.01465
875.9465, 35.14629
876.4286, 34.86684
876.9108, 35.22835
877.3929, 35.72886
877.8750, 36.51483
878.3571, 37.02909
878.8392, 36.69461
879.3214, 36.08726
879.8035, 35.97334
880.2856, 36.27407
880.7677, 36.37466
881.2498, 35.95454
881.7319, 35.38049
882.2141, 35.07890
882.6962, 34.99431
883.1783, 35.01839
883.6604, 35.12656
884.1425, 35.08568
884.6246, 34.79399
885.1068, 34.53128
885.5889, 34.63717
886.0710, 35.04408
886.5531, 35.19739
887.0352, 34.97884
887.5173, 34.85267
887.9995, 34.91043
888.4816, 35.02532
888.9637, 35.20609
889.4458, 35.36338
889.9279, 35.29671
890.4100, 34.94038
890.8922, 34.61775
891.3743, 34.32375
891.8564, 34.12997
892.3385, 34.09745
892.8206, 34.16553
893.3027, 34.26896
893.7849, 34.40147
894.2670, 34.61170
894.7491, 35.01752
895.2312, 35.30498
895.7133, 35.06379
896.1954, 34.57380
896.6776, 34.26411
897.1597, 34.15614
897.6418, 34.15239
898.1239, 34.20769
898.6060, 34.21892
899.0881, 33.99936
899.5703, 33.63010
900.0524, 33.55628
900.5345, 33.79050
901.0166, 34.11985
901.4987, 34.54722
901.9808, 34.85707
902.4630, 34.86736
902.9451, 34.63283
903.4272, 34.32724
903.9093, 33.81388
904.3914, 33.54583
904.8735, 33.65466
905.3557, 33.84889
905.8378, 34.09140
906.3199, 34.32438
906.8020, 34.50327
907.2841, 34.62006
907.7662, 34.62761
908.2484, 34.30880
908.7305, 34.14077
909.2126, 34.59628
909.6947, 35.06262
910.1768, 34.77898
910.6589, 34.03954
911.1411, 33.72772
911.6232, 34.18417
912.1053, 34.72967
912.5874, 34.76678
913.0695, 34.53692
913.5516, 34.32961
914.0338, 34.18368
914.5159, 34.20360
914.9980, 34.40167
915.4801, 34.67364
915.9622, 34.96911
916.4443, 35.18410
916.9265, 34.95118
917.4086, 34.27297
917.8907, 34.10652
918.3728, 34.63118
918.8549, 34.97977
919.3370, 34.67510
919.8192, 34.20557
920.3013, 34.28539
920.7834, 34.93591
921.2655, 35.27891
921.7476, 35.18838
922.2297, 35.00769
922.7119, 34.62807
923.1940, 34.32520
923.6761, 34.31435
924.1582, 34.48012
924.6403, 34.57772
925.1224, 34.55881
925.6046, 34.58174
926.0867, 34.77928
926.5688, 34.92163
927.0509, 34.82951
927.5330, 34.65098
928.0151, 34.55428
928.4973, 34.55418
928.9794, 34.57285
929.4615, 34.55005
929.9436, 34.59798
930.4257, 34.91119
930.9078, 35.29971
931.3900, 35.45336
931.8721, 35.42303
932.3542, 35.44569
932.8363, 35.59755
933.3184, 35.75805
933.8005, 35.82817
934.2827, 35.79523
934.7648, 35.52629
935.2469, 35.07084
935.7290, 34.95728
936.2111, 35.28407
936.6932, 35.62959
937.1754, 35.74421
937.6575, 35.73922
938.1396, 35.79432
938.6217, 35.89788
939.1038, 36.28870
939.5859, 37.26615
940.0681, 37.69217
940.5502, 36.91816
941.0323, 36.00988
941.5144, 35.90832
941.9965, 36.41985
942.4786, 36.72027
942.9608, 36.65832
943.4429, 36.70982
943.9250, 37.03066
944.4071, 37.30664
944.8892, 37.30774
945.3713, 37.26411
945.8535, 37.53130
946.3356, 38.06716
946.8177, 38.34633
947.2998, 38.00446
947.7819, 37.67393
948.2640, 37.55094
948.7462, 37.66733
949.2283, 38.22525
949.7104, 39.00093
950.1925, 39.54119
950.6746, 39.72062
951.1567, 39.81370
951.6389, 40.06338
952.1210, 40.31841
952.6031, 40.32536
953.0852, 40.20619
953.5673, 40.25586
954.0494, 40.48208
954.5316, 40.64995
955.0137, 40.62917
955.4958, 40.59280
955.9779, 40.82679
956.4600, 41.26794
956.9421, 41.60436
957.4242, 41.83954
957.9063, 42.02241
958.3884, 42.15532
958.8705, 42.37495
959.3527, 42.81407
959.8348, 43.37201
960.3169, 43.68670
960.7990, 43.64048
961.2811, 44.04413
961.7632, 45.10567
962.2454, 46.06910
962.7275, 46.64279
963.2096, 47.00598
963.6917, 47.27612
964.1738, 47.48227
964.6559, 47.96465
965.1381, 48.97260
965.6202, 49.85222
966.1023, 50.54757
966.5844, 51.15607
967.0665, 51.54957
967.5486, 51.97838
968.0308, 52.82379
968.5129, 54.10493
968.9950, 55.33865
969.4771, 56.47006
969.9592, 57.48045
970.4413, 58.09277
970.9235, 58.81988
971.4056, 60.10575
971.8877, 61.81422
972.3698, 63.69491
972.8519, 65.67944
973.3340, 67.45949
973.8162, 68.55274
974.2983, 69.68896
974.7804, 71.40731
975.2625, 73.57032
975.7446, 76.17244
976.2267, 79.01341
976.7089, 81.52531
977.1910, 83.41306
977.6731, 85.30014
978.1552, 87.69151
978.6373, 90.59041
979.1194, 94.35765
979.6016, 98.64526
980.0837, 102.2028
980.5658, 104.8677
981.0479, 107.5262
981.5300, 110.7685
982.0121, 114.3758
982.4943, 117.9387
982.9764, 121.4716
983.4585, 125.1337
983.9406, 128.9102
984.4227, 132.5536
984.9048, 135.9469
985.3870, 139.5993
985.8691, 144.0682
986.3512, 148.9758
986.8333, 153.1373
987.3154, 156.5060
987.7975, 159.3919
988.2797, 161.6813
988.7618, 163.9937
989.2439, 166.4826
989.7260, 169.3123
990.2081, 172.8294
990.6902, 176.8906
991.1724, 180.1870
991.6545, 182.1984
992.1366, 184.6804
992.6187, 188.0711
993.1008, 191.4724
993.5829, 194.5241
994.0651, 197.3267
994.5472, 200.1301
995.0293, 202.9436
995.5114, 204.9786
995.9935, 205.8694
996.4756, 206.5110
996.9578, 207.4630
997.4399, 207.7157
997.9220, 206.7983
998.4041, 204.7675
998.8862, 201.7318
999.3683, 197.7123
999.8505, 192.7379
1000.333, 186.3203
1000.815, 179.6290
1001.297, 172.6356
1001.779, 166.0080
1002.261, 160.3855
1002.743, 155.5621
1003.225, 151.1135
1003.707, 146.9492
1004.190, 142.9585
1004.672, 138.9659
1005.154, 135.2765
1005.636, 132.0985
1006.118, 129.2966
1006.600, 126.7860
1007.082, 124.4528
1007.564, 122.0911
1008.046, 119.6155
1008.529, 117.1169
1009.011, 114.5202
1009.493, 112.0785
1009.975, 110.0833
1010.457, 108.4479
1010.939, 107.0583
1011.421, 105.8688
1011.903, 104.7914
1012.385, 103.7885
1012.868, 102.9185
1013.350, 102.0626
1013.832, 101.4904
1014.314, 101.9161
1014.796, 103.0324
1015.278, 103.8504
1015.760, 104.2666
1016.242, 104.9393
1016.725, 106.2674
1017.207, 107.8970
1017.689, 109.2926
1018.171, 110.5675
1018.653, 112.1356
1019.135, 113.9602
1019.617, 115.7628
1020.099, 117.4894
1020.581, 119.4573
1021.064, 121.9305
1021.546, 124.5192
1022.028, 126.4127
1022.510, 127.6873
1022.992, 129.3829
1023.474, 131.5165
1023.956, 133.5756
1024.438, 135.4335
1024.921, 137.2056
1025.403, 139.0228
1025.885, 140.7138
1026.367, 141.8977
1026.849, 142.5723
1027.331, 142.6196
1027.813, 141.9168
1028.295, 141.3308
1028.777, 141.1931
1029.260, 140.8734
1029.742, 139.8249
1030.224, 138.2724
1030.706, 136.8913
1031.188, 135.7545
1031.670, 134.3856
1032.152, 132.8068
1032.634, 130.8892
1033.116, 128.4275
1033.599, 125.9391
1034.081, 123.8965
1034.563, 122.1353
1035.045, 120.1390
1035.527, 117.9146
1036.009, 115.4072
1036.491, 112.5343
1036.973, 109.5382
1037.456, 106.5326
1037.938, 103.3915
1038.420, 99.83911
1038.902, 96.10677
1039.384, 92.97308
1039.866, 90.70365
1040.348, 88.33860
1040.830, 85.82082
1041.313, 83.30348
1041.795, 80.62630
1042.277, 78.14162
1042.759, 76.22545
1043.241, 74.72946
1043.723, 73.22584
1044.205, 71.69234
1044.687, 70.17509
1045.169, 68.70820
1045.651, 67.21465
1046.134, 65.43331
1046.616, 63.83198
1047.098, 63.01778
1047.580, 62.68293
1048.062, 61.84227
1048.544, 60.16649
1049.026, 58.85377
1049.508, 58.18030
1049.991, 57.74048
1050.473, 57.65093
1050.955, 57.51778
1051.437, 56.91742
1051.919, 56.02257
1052.401, 55.34075
1052.883, 55.00728
1053.365, 54.60762
1053.848, 53.93941
1054.330, 53.33828
1054.812, 52.93358
1055.294, 52.64838
1055.776, 52.51276
1056.258, 52.41896
1056.740, 52.06922
1057.222, 51.33277
1057.704, 50.86795
1058.187, 50.97974
1058.669, 51.24530
1059.151, 51.72512
1059.633, 52.07291
1060.115, 51.85946
1060.597, 51.31443
1061.079, 50.96865
1061.561, 50.93512
1062.043, 51.01629
1062.526, 51.27835
1063.008, 51.46981
1063.490, 51.38447
1063.972, 51.26418
1064.454, 51.43698
1064.936, 51.70703
1065.418, 51.56915
1065.900, 50.91360
1066.383, 50.45222
1066.865, 50.55862
1067.347, 50.79388
1067.829, 50.84439
1068.311, 51.03606
1068.793, 51.91570
1069.275, 53.04993
1069.757, 53.54342
1070.240, 53.25146
1070.722, 53.03434
1071.204, 53.37964
1071.686, 53.70643
1072.168, 53.63649
1072.650, 53.53815
1073.132, 53.67527
1073.614, 54.02514
1074.096, 54.58474
1074.578, 55.30959
1075.061, 55.87417
1075.543, 55.97776
1076.025, 56.16065
1076.507, 56.90609
1076.989, 57.61150
1077.471, 57.59508
1077.953, 57.32522
1078.435, 57.67067
1078.918, 58.63077
1079.400, 59.29983
1079.882, 59.16798
1080.364, 59.05621
1080.846, 59.39685
1081.328, 59.85949
1081.810, 60.28661
1082.292, 60.63580
1082.774, 60.90816
1083.257, 61.07610
1083.739, 60.99114
1084.221, 60.42643
1084.703, 60.14668
1085.185, 60.68216
1085.667, 61.41952
1086.149, 61.99492
1086.631, 62.51568
1087.114, 63.25572
1087.596, 64.08488
1088.078, 64.50954
1088.560, 64.33007
1089.042, 64.02754
1089.524, 63.36757
1090.006, 63.15547
1090.488, 64.42698
1090.970, 65.90799
1091.453, 66.12428
1091.935, 65.47298
1092.417, 65.25611
1092.899, 65.81297
1093.381, 66.37362
1093.863, 66.78474
1094.345, 66.96780
1094.827, 66.68688
1095.309, 66.33961
1095.792, 66.22203
1096.274, 66.30965
1096.756, 66.49821
1097.238, 66.76998
1097.720, 67.17696
1098.202, 67.84171
1098.684, 68.49648
1099.166, 69.16535
1099.649, 69.68299
1100.131, 69.87589
1100.613, 69.87663
1101.095, 69.78988
1101.577, 69.66915
1102.059, 69.85789
1102.541, 70.61199
1103.023, 71.39574
1103.505, 72.24810
1103.988, 72.91322
1104.470, 73.11360
1104.952, 73.14675
1105.434, 73.34425
1105.916, 73.69982
1106.398, 74.05512
1106.880, 74.42195
1107.362, 74.70178
1107.844, 74.82975
1108.327, 74.58281
1108.809, 75.23810
1109.291, 75.65044
1109.773, 75.83170
1110.255, 75.15440
1110.737, 75.53633
1111.219, 75.46353
1111.701, 75.35141
1112.184, 75.82069
1112.666, 75.15722
1113.148, 75.57378
1113.630, 75.52901
1114.112, 75.66392
1114.594, 75.34148
1115.076, 75.10332
1115.558, 75.23807
1116.041, 75.44655
1116.523, 76.04581
1117.005, 76.15953
1117.487, 75.32494
1117.969, 74.51719
1118.451, 74.15086
1118.933, 74.10616
1119.415, 74.33265
1119.897, 74.78035
1120.380, 74.89355
1120.862, 74.55067
1121.344, 74.14722
1121.826, 73.56853
1122.308, 73.23608
1122.790, 73.49239
1123.272, 73.69397
1123.754, 73.15632
1124.236, 72.13212
1124.719, 71.50980
1125.201, 71.40714
1125.683, 71.05370
1126.165, 70.36666
1126.647, 69.74907
1127.129, 69.30527
1127.611, 68.83458
1128.093, 68.00038
1128.576, 67.89319
1129.058, 68.28535
1129.540, 68.45607
1130.022, 68.41732
1130.504, 67.54156
1130.986, 67.74662
1131.468, 67.51852
1131.950, 67.27268
1132.432, 67.62982
1132.915, 66.87556
1133.397, 67.22317
1133.879, 67.13100
1134.361, 66.81081
1134.843, 67.17820
1135.325, 67.00829
1135.807, 66.32182
1136.289, 65.98362
1136.771, 66.26622
1137.254, 66.66381
1137.736, 66.78288
1138.218, 66.70409
1138.700, 66.46700
1139.182, 66.17568
1139.664, 66.24873
1140.146, 66.59933
1140.628, 66.86563
1141.111, 66.95759
1141.593, 66.79195
1142.075, 66.31814
1142.557, 65.86617
1143.039, 65.99830
1143.521, 66.24112
1144.003, 65.60636
1144.485, 64.55864
1144.968, 64.07481
1145.450, 64.10099
1145.932, 64.05194
1146.414, 63.76093
1146.896, 63.62218
1147.378, 64.12603
1147.860, 64.44915
1148.342, 63.51733
1148.824, 62.20073
1149.307, 61.44388
1149.789, 61.10857
1150.271, 60.94447
1150.753, 60.81668
1151.235, 60.45698
1151.717, 59.70033
1152.199, 58.97034
1152.681, 58.55567
1153.163, 58.19341
1153.646, 57.63293
1154.128, 57.09925
1154.610, 56.94196
1155.092, 56.97911
1155.574, 56.77463
1156.056, 56.24260
1156.538, 55.55183
1157.020, 54.80894
1157.503, 55.13912
1157.985, 55.24830
1158.467, 55.14793
1158.949, 54.21062
1159.431, 54.35405
1159.913, 54.06440
1160.395, 53.75694
1160.877, 54.05253
1161.359, 53.23690
1161.842, 53.52253
1162.324, 53.36880
1162.806, 53.41630
1163.288, 51.56870
1163.770, 51.08771
1164.252, 50.77477
1164.734, 50.60004
1165.216, 50.53233
1165.698, 50.59688
1166.181, 50.40471
1166.663, 49.85029
1167.145, 48.94711
1167.627, 48.97566
1168.109, 48.78268
1168.591, 48.38032
1169.073, 47.14083
1169.555, 46.98213
1170.037, 46.39040
1170.520, 45.77982
1171.002, 45.85976
1171.484, 45.34754
1171.966, 44.45748
1172.448, 44.14336
1172.930, 44.64454
1173.412, 44.91017
1173.894, 44.19939
1174.377, 43.22594
1174.859, 43.20458
1175.341, 43.68595
1175.823, 43.31515
1176.305, 42.40245
1176.787, 41.92466
1177.269, 41.88508
1177.751, 41.69559
1178.234, 41.15685
1178.716, 40.57970
1179.198, 40.19633
1179.680, 39.89779
1180.162, 39.53877
1180.644, 39.21606
1181.126, 39.09825
1181.608, 39.08476
1182.090, 38.98494
1182.573, 38.79545
1183.055, 38.66157
1183.537, 38.66022
1184.019, 38.55154
1184.501, 38.14521
1184.983, 37.67905
1185.465, 37.05169
1185.947, 36.64262
1186.429, 36.99220
1186.912, 37.69363
1187.394, 38.00233
1187.876, 37.85007
1188.358, 37.66186
1188.840, 37.53194
1189.322, 37.32600
1189.804, 36.81071
1190.286, 36.51081
1190.769, 36.73579
1191.251, 37.10418
1191.733, 37.30716
1192.215, 37.40366
1192.697, 37.54175
1193.179, 37.71905
1193.661, 37.99254
1194.143, 38.47349
1194.625, 38.59434
1195.108, 38.19457
1195.590, 37.72313
1196.072, 37.35232
1196.554, 37.20844
1197.036, 37.49933
1197.518, 38.01530
1198.000, 38.06315
1198.482, 37.69927
1198.964, 37.37019
1199.447, 37.11921
1199.929, 37.18712
1200.411, 37.58384
1200.893, 37.84282
1201.375, 37.68990
1201.857, 37.42461
1202.339, 37.42776
1202.821, 37.50739
1203.304, 37.31474
1203.786, 36.99037
1204.268, 36.78623
1204.750, 36.67492
1205.232, 36.48636
1205.714, 36.21066
1206.196, 36.06322
1206.678, 36.17871
1207.161, 36.36545
1207.643, 36.60342
1208.125, 36.75845
1208.607, 36.69120
1209.089, 36.53255
1209.571, 36.44942
1210.053, 36.38371
1210.535, 36.11658
1211.017, 35.59754
1211.500, 35.30238
1211.982, 35.46863
1212.464, 35.59939
1212.946, 35.65805
1213.428, 35.63249
1213.910, 35.51915
1214.392, 35.31062
1214.874, 34.94863
1215.356, 34.51781
1215.839, 34.29512
1216.321, 34.31288
1216.803, 34.16053
1217.285, 33.74591
1217.767, 33.90346
1218.249, 34.86338
1218.731, 35.45618
1219.213, 35.08915
1219.696, 34.49423
1220.178, 34.49450
1220.660, 34.79516
1221.142, 34.67960
1221.624, 34.29030
1222.106, 34.04510
1222.588, 33.97462
1223.070, 34.21101
1223.552, 34.66877
1224.035, 34.80834
1224.517, 34.37566
1224.999, 33.96070
1225.481, 34.15480
1225.963, 34.48209
1226.445, 34.52620
1226.927, 34.46206
1227.409, 34.37169
1227.891, 34.36446
1228.374, 34.68098
1228.856, 35.25191
1229.338, 35.61887
1229.820, 35.65388
1230.302, 35.51699
1230.784, 34.80541
1231.266, 34.53487
1231.748, 35.46686
1232.231, 36.44208
1232.713, 36.65184
1233.195, 36.56158
1233.677, 36.85324
1234.159, 37.46584
1234.641, 37.84944
1235.123, 37.97130
1235.605, 38.01386
1236.088, 37.97161
1236.570, 37.91230
1237.052, 37.84912
1237.534, 37.79351
1238.016, 37.74029
1238.498, 37.79799
1238.980, 38.14775
1239.462, 38.69550
1239.944, 39.27216
1240.427, 39.81749
1240.909, 40.12336
1241.391, 40.23751
1241.873, 40.32085
1242.355, 40.44313
1242.837, 40.74802
1243.319, 41.36333
1243.801, 41.80260
1244.283, 41.49639
1244.766, 41.11542
1245.248, 41.20406
1245.730, 41.44179
1246.212, 41.56138
1246.694, 41.55732
1247.176, 41.45573
1247.658, 41.26729
1248.140, 41.04046
1248.622, 40.71697
1249.105, 40.49488
1249.587, 40.49657
1250.069, 40.41777
1250.551, 40.18372
1251.033, 39.85271
1251.515, 39.40912
1251.997, 38.97739
1252.479, 38.76233
1252.962, 38.71381
1253.444, 38.58990
1253.926, 38.38654
1254.408, 37.80809
1254.890, 36.88440
1255.372, 36.33226
1255.854, 36.29781
1256.336, 36.33278
1256.818, 36.18890
1257.301, 35.76466
1257.783, 34.73674
1258.265, 33.61364
1258.747, 33.11864
1259.229, 32.95705
1259.711, 32.75121
1260.193, 32.53883
1260.675, 32.52098
1261.157, 32.65501
1261.640, 32.62819
1262.122, 32.32552
1262.604, 31.95870
1263.086, 31.58324
1263.568, 31.16659
1264.050, 30.47828
1264.532, 30.00326
1265.014, 30.22021
1265.497, 30.61516
1265.979, 30.61166
1266.461, 30.28234
1266.943, 29.88951
1267.425, 29.38536
1267.907, 29.27074
1268.389, 29.61059
1268.871, 29.53655
1269.354, 28.88590
1269.836, 28.44104
1270.318, 28.55938
1270.800, 28.83870
1271.282, 28.90365
1271.764, 28.84832
1272.246, 28.87739
1272.728, 28.85412
1273.210, 28.31737
1273.693, 27.66064
1274.175, 27.82075
1274.657, 28.55305
1275.139, 28.71616
1275.621, 28.03145
1276.103, 27.57852
1276.585, 28.05297
1277.067, 28.42150
1277.549, 28.20744
1278.032, 27.98320
1278.514, 28.14569
1278.996, 28.29275
1279.478, 27.97661
1279.960, 27.47660
1280.442, 27.36604
1280.924, 27.62777
1281.406, 27.67746
1281.889, 27.47405
1282.371, 27.40262
1282.853, 27.50028
1283.335, 27.53298
1283.817, 27.43492
1284.299, 27.21125
1284.781, 26.84724
1285.263, 26.64426
1285.745, 26.90880
1286.228, 27.64256
##END=



