##NAMES=Magnesite
##RRUFFID=R050676
##IDEAL CHEMISTRY=MgCO_3_
##LOCALITY=Tyrol, Austria
##OWNER=RRUFF
##SOURCE=University of Arizona Mineral Museum
##DESCRIPTION=Brown rhombohedral crystals
##STATUS=The identification of this mineral has been confirmed by X-ray diffraction and chemical analysis
##URL=rruff.info/R050676
##MEASURED CHEMISTRY=(Mg_0.87_Fe^2+^_0.12_Ca_0.01_)_Î£=1_CO_3_; trace amounts of Mn and Cd; CO_2_ estimated by difference
90.26367, 12.64375
90.74579, 13.59442
91.22791, 13.26371
91.71002, 11.77905
92.19214, 10.24844
92.67426, 9.602384
93.15637, 9.617225
93.63850, 9.729633
94.12061, 9.827449
94.60273, 9.879580
95.08485, 9.780766
95.56696, 9.515290
96.04908, 9.211409
96.53120, 9.006436
97.01331, 8.901699
97.49543, 8.853131
97.97755, 8.913543
98.45966, 9.067549
98.94178, 8.988006
99.42390, 8.587962
99.90602, 8.077277
100.3881, 7.870300
100.8703, 8.030417
101.3524, 8.269898
101.8345, 8.480327
102.3166, 8.689131
102.7987, 8.726122
103.2808, 8.509452
103.7630, 8.113540
104.2451, 7.881885
104.7272, 7.880900
105.2093, 7.953620
105.6914, 8.003158
106.1735, 8.040963
106.6557, 8.035948
107.1378, 7.993742
107.6199, 7.914977
108.1020, 7.749425
108.5841, 7.264778
109.0662, 6.814770
109.5484, 6.710162
110.0305, 7.311128
110.5126, 7.898189
110.9947, 8.393812
111.4768, 8.832557
111.9590, 9.031240
112.4411, 8.777708
112.9232, 8.322231
113.4053, 7.994291
113.8874, 7.892416
114.3695, 7.891099
114.8517, 7.964566
115.3338, 8.150137
115.8159, 8.304528
116.2980, 8.365861
116.7801, 8.366476
117.2622, 8.377011
117.7444, 8.352027
118.2265, 8.388428
118.7086, 8.564990
119.1907, 8.990798
119.6728, 9.421695
120.1549, 9.721712
120.6371, 9.911452
121.1192, 10.07514
121.6013, 10.19781
122.0834, 10.33945
122.5655, 10.56841
123.0477, 10.93718
123.5298, 11.37367
124.0119, 11.83602
124.4940, 12.32148
124.9761, 12.79303
125.4582, 13.20456
125.9404, 13.57818
126.4225, 13.95357
126.9046, 14.34323
127.3867, 14.74495
127.8688, 15.14728
128.3509, 15.54758
128.8331, 15.97425
129.3152, 16.48876
129.7973, 17.07313
130.2794, 17.62438
130.7615, 18.06792
131.2436, 18.43778
131.7258, 18.85113
132.2079, 19.32326
132.6900, 19.80683
133.1721, 20.18186
133.6542, 20.44441
134.1364, 20.80494
134.6185, 21.39975
135.1006, 22.22553
135.5827, 23.10297
136.0648, 24.03077
136.5469, 24.99863
137.0291, 26.03092
137.5112, 27.16360
137.9933, 28.18223
138.4754, 28.95505
138.9575, 29.45653
139.4396, 29.82966
139.9218, 30.08698
140.4039, 30.22631
140.8860, 30.18173
141.3681, 29.83652
141.8502, 29.51571
142.3323, 29.50495
142.8145, 29.93434
143.2966, 30.33423
143.7787, 30.60933
144.2608, 30.76538
144.7429, 31.00689
145.2251, 31.36744
145.7072, 31.78661
146.1893, 32.21642
146.6714, 32.70459
147.1535, 33.12712
147.6356, 33.39217
148.1178, 33.43584
148.5999, 33.74983
149.0820, 34.50689
149.5641, 35.46149
150.0462, 36.31910
150.5283, 36.97476
151.0105, 37.62727
151.4926, 37.96634
151.9747, 38.27447
152.4568, 38.63213
152.9389, 39.06975
153.4210, 39.54723
153.9032, 40.01668
154.3853, 40.66482
154.8674, 41.13379
155.3495, 41.29324
155.8316, 41.04815
156.3138, 40.71954
156.7959, 40.19894
157.2780, 39.63681
157.7601, 39.32029
158.2422, 39.51847
158.7243, 39.81393
159.2065, 40.00179
159.6886, 39.98494
160.1707, 39.97498
160.6528, 40.03943
161.1349, 40.15649
161.6170, 40.26986
162.0992, 40.40312
162.5813, 40.49987
163.0634, 40.50682
163.5455, 40.26514
164.0276, 40.13142
164.5097, 40.32146
164.9919, 40.77054
165.4740, 41.23029
165.9561, 41.65417
166.4382, 42.00053
166.9203, 42.22917
167.4025, 42.19444
167.8846, 42.17772
168.3667, 42.35525
168.8488, 42.71043
169.3309, 43.14050
169.8130, 43.67511
170.2952, 44.22489
170.7773, 44.67116
171.2594, 44.91755
171.7415, 45.09368
172.2236, 45.25804
172.7057, 45.41737
173.1879, 45.68708
173.6700, 46.31285
174.1521, 47.08912
174.6342, 47.67139
175.1163, 47.77969
175.5984, 47.70707
176.0806, 47.78896
176.5627, 48.02546
177.0448, 48.31333
177.5269, 48.47028
178.0090, 48.59917
178.4911, 48.95183
178.9733, 49.82292
179.4554, 50.91951
179.9375, 51.78963
180.4196, 52.41004
180.9017, 52.91125
181.3839, 53.33052
181.8660, 53.71196
182.3481, 54.23017
182.8302, 55.09245
183.3123, 56.13453
183.7944, 56.90015
184.2766, 57.32921
184.7587, 57.78113
185.2408, 58.67391
185.7229, 59.97461
186.2050, 61.54618
186.6871, 63.28809
187.1693, 65.24983
187.6514, 67.33681
188.1335, 69.42958
188.6156, 72.10925
189.0977, 76.73552
189.5798, 83.18602
190.0620, 89.44888
190.5441, 94.47308
191.0262, 98.40761
191.5083, 102.1745
191.9904, 105.8290
192.4725, 109.4704
192.9547, 113.3508
193.4368, 117.5147
193.9189, 121.5761
194.4010, 125.2305
194.8831, 128.5155
195.3652, 132.0289
195.8474, 135.8456
196.3295, 139.8514
196.8116, 143.8427
197.2937, 147.8032
197.7758, 151.7677
198.2579, 155.5090
198.7401, 159.0042
199.2222, 163.3189
199.7043, 168.5449
200.1864, 174.5115
200.6685, 180.9084
201.1507, 187.6907
201.6328, 194.9542
202.1149, 202.7271
202.5970, 210.9962
203.0791, 219.8583
203.5612, 229.1129
204.0434, 239.0111
204.5255, 250.1370
205.0076, 262.5203
205.4897, 276.0108
205.9718, 290.7890
206.4539, 307.1040
206.9361, 323.4308
207.4182, 340.3244
207.9003, 356.8067
208.3824, 371.1879
208.8645, 384.9706
209.3466, 392.8324
209.8288, 391.9076
210.3109, 382.1283
210.7930, 363.3868
211.2751, 333.3027
211.7572, 294.9377
212.2393, 257.4380
212.7215, 220.0638
213.2036, 185.9642
213.6857, 157.2520
214.1678, 134.2479
214.6499, 115.4210
215.1321, 101.0071
215.6142, 90.47086
216.0963, 81.96782
216.5784, 75.92917
217.0605, 71.13213
217.5426, 66.87456
218.0248, 63.22011
218.5069, 60.04386
218.9890, 57.38194
219.4711, 55.19563
219.9532, 53.26316
220.4353, 51.59643
220.9175, 50.13531
221.3996, 48.81535
221.8817, 47.61871
222.3638, 46.64762
222.8459, 45.97132
223.3280, 45.53353
223.8102, 45.11023
224.2923, 44.72104
224.7744, 44.30504
225.2565, 43.81881
225.7386, 43.22673
226.2208, 42.63875
226.7029, 41.99405
227.1850, 41.34874
227.6671, 41.06117
228.1492, 41.33354
228.6313, 41.67578
229.1135, 41.79261
229.5956, 41.61382
230.0777, 41.36081
230.5598, 40.98981
231.0419, 40.54847
231.5240, 40.27696
232.0062, 40.27433
232.4883, 40.30748
232.9704, 40.24084
233.4525, 40.05317
233.9346, 39.80150
234.4167, 39.40217
234.8989, 38.93126
235.3810, 38.77901
235.8631, 39.16499
236.3452, 39.57825
236.8273, 39.70822
237.3095, 39.36930
237.7916, 39.14892
238.2737, 39.10350
238.7558, 39.20097
239.2379, 39.31598
239.7200, 39.48789
240.2022, 39.62342
240.6843, 39.65894
241.1664, 39.50939
241.6485, 39.45297
242.1306, 39.55610
242.6127, 39.76168
243.0949, 39.84453
243.5770, 39.75354
244.0591, 39.61243
244.5412, 39.47652
245.0233, 39.32125
245.5054, 39.22676
245.9876, 39.20714
246.4697, 39.24915
246.9518, 39.30676
247.4339, 39.35786
247.9160, 39.45811
248.3981, 39.64836
248.8803, 40.00252
249.3624, 40.26649
249.8445, 40.39404
250.3266, 40.43859
250.8087, 40.55330
251.2909, 40.78163
251.7730, 41.00668
252.2551, 41.17165
252.7372, 41.25512
253.2193, 41.33783
253.7014, 41.43425
254.1836, 41.52269
254.6657, 41.54946
255.1478, 41.49483
255.6299, 41.41318
256.1120, 41.32218
256.5941, 41.21717
257.0763, 41.11230
257.5584, 40.97048
258.0405, 40.85162
258.5226, 40.89296
259.0047, 41.16825
259.4868, 41.45222
259.9690, 41.64584
260.4511, 41.71357
260.9332, 41.86117
261.4153, 42.12544
261.8974, 42.43920
262.3795, 42.70039
262.8617, 42.93530
263.3438, 43.05454
263.8259, 42.96063
264.3080, 42.58464
264.7901, 42.53851
265.2722, 42.97726
265.7544, 43.56099
266.2365, 43.77122
266.7186, 43.50190
267.2007, 43.17913
267.6829, 42.89041
268.1650, 42.62361
268.6471, 42.59807
269.1292, 42.90239
269.6113, 43.30768
270.0934, 43.51324
270.5756, 43.46370
271.0577, 43.44398
271.5398, 43.58975
272.0219, 43.89008
272.5040, 43.83015
272.9861, 43.25583
273.4683, 42.65620
273.9504, 42.59846
274.4325, 43.18160
274.9146, 43.77686
275.3967, 44.31065
275.8788, 44.75294
276.3610, 44.72119
276.8431, 44.07127
277.3252, 43.38761
277.8073, 43.23649
278.2894, 43.65657
278.7715, 44.18454
279.2537, 44.80955
279.7358, 45.45754
280.2179, 45.78470
280.7000, 45.74068
281.1821, 45.60775
281.6642, 45.57609
282.1464, 45.64559
282.6285, 45.84710
283.1106, 46.21575
283.5927, 46.69433
284.0748, 47.15013
284.5569, 47.58833
285.0391, 47.96540
285.5212, 48.23140
286.0033, 48.39511
286.4854, 48.55993
286.9675, 48.72710
287.4496, 48.91757
287.9318, 49.15795
288.4139, 49.45052
288.8960, 49.83027
289.3781, 50.34045
289.8602, 50.96680
290.3424, 51.65446
290.8245, 52.41921
291.3066, 53.19603
291.7887, 53.82569
292.2708, 54.33217
292.7530, 54.91670
293.2351, 55.74033
293.7172, 56.73135
294.1993, 57.58138
294.6814, 58.23262
295.1635, 58.97539
295.6457, 60.19255
296.1278, 61.82135
296.6099, 63.59380
297.0920, 65.36345
297.5741, 67.16972
298.0562, 69.03205
298.5384, 70.92544
299.0205, 72.98406
299.5026, 75.19749
299.9847, 77.64925
300.4668, 80.65079
300.9489, 84.38249
301.4311, 88.65201
301.9132, 92.88852
302.3953, 97.15951
302.8774, 102.2229
303.3595, 108.6493
303.8416, 116.3160
304.3238, 125.2106
304.8059, 135.1937
305.2880, 146.3176
305.7701, 158.2997
306.2522, 171.3036
306.7343, 185.5990
307.2165, 202.3713
307.6986, 220.3699
308.1807, 238.0488
308.6628, 255.1928
309.1449, 272.0506
309.6270, 289.1117
310.1092, 306.3609
310.5913, 323.2144
311.0734, 338.8724
311.5555, 354.3156
312.0376, 370.0454
312.5197, 385.9501
313.0019, 402.7678
313.4840, 421.0049
313.9661, 440.6760
314.4482, 461.9501
314.9304, 484.5929
315.4125, 509.0981
315.8946, 535.4203
316.3767, 563.5660
316.8588, 594.0380
317.3409, 627.1281
317.8231, 662.8673
318.3052, 701.1328
318.7873, 741.9930
319.2694, 785.7799
319.7515, 833.2684
320.2336, 884.6625
320.7158, 937.2888
321.1979, 992.8866
321.6800, 1047.780
322.1621, 1098.425
322.6442, 1148.746
323.1263, 1189.991
323.6085, 1222.531
324.0906, 1245.828
324.5727, 1252.652
325.0548, 1243.372
325.5369, 1216.362
326.0190, 1170.583
326.5012, 1096.157
326.9833, 1014.131
327.4654, 920.8752
327.9475, 819.9428
328.4296, 726.7849
328.9117, 640.7059
329.3939, 563.1480
329.8760, 494.0517
330.3581, 433.3626
330.8402, 381.1648
331.3223, 338.6765
331.8044, 304.0163
332.2866, 273.4219
332.7687, 247.5184
333.2508, 225.2302
333.7329, 206.3962
334.2150, 191.3864
334.6971, 177.8833
335.1793, 165.9579
335.6614, 155.3110
336.1435, 145.7139
336.6256, 137.1216
337.1077, 129.5089
337.5899, 123.1512
338.0720, 117.9237
338.5541, 113.0013
339.0362, 108.3408
339.5183, 103.9969
340.0005, 100.1313
340.4826, 96.76380
340.9647, 93.48420
341.4468, 90.19262
341.9289, 86.96517
342.4110, 83.93906
342.8932, 81.11868
343.3753, 78.62398
343.8574, 76.72567
344.3395, 75.36071
344.8216, 73.78675
345.3037, 71.85944
345.7859, 69.83016
346.2680, 68.15327
346.7501, 66.79938
347.2322, 65.54208
347.7143, 64.23183
348.1964, 62.91199
348.6786, 61.71911
349.1607, 60.65221
349.6428, 59.66104
350.1249, 58.68863
350.6070, 57.73583
351.0891, 56.78062
351.5713, 55.72414
352.0534, 54.71819
352.5355, 54.05021
353.0176, 53.71630
353.4997, 53.37818
353.9818, 52.68449
354.4640, 51.83735
354.9461, 51.14363
355.4282, 50.75533
355.9103, 50.47858
356.3924, 50.18481
356.8745, 49.86811
357.3567, 49.51281
357.8388, 49.07531
358.3209, 48.61308
358.8030, 48.15791
359.2851, 47.69655
359.7672, 47.30611
360.2494, 47.13477
360.7315, 47.05390
361.2136, 46.82977
361.6957, 46.11971
362.1779, 45.44959
362.6600, 45.13360
363.1421, 45.24542
363.6242, 45.31554
364.1063, 45.18836
364.5884, 44.95555
365.0706, 44.71194
365.5527, 44.38871
366.0348, 44.14832
366.5169, 44.08063
366.9990, 44.17160
367.4811, 44.18119
367.9633, 43.98482
368.4454, 43.77043
368.9275, 43.64994
369.4096, 43.84397
369.8917, 43.82425
370.3738, 43.38954
370.8560, 42.74073
371.3381, 42.46534
371.8202, 42.85481
372.3023, 43.21933
372.7844, 43.27905
373.2665, 42.94970
373.7487, 42.65384
374.2308, 42.36938
374.7129, 42.14105
375.1950, 42.05770
375.6771, 42.19106
376.1592, 42.23429
376.6414, 42.06402
377.1235, 41.71337
377.6056, 41.53468
378.0877, 41.57113
378.5698, 41.63372
379.0519, 41.56197
379.5341, 41.35636
380.0162, 41.08374
380.4983, 40.72759
380.9804, 40.34510
381.4625, 40.10840
381.9446, 40.01097
382.4268, 39.89761
382.9089, 39.65245
383.3910, 39.31323
383.8731, 38.97831
384.3553, 38.64760
384.8374, 38.36731
385.3195, 38.20281
385.8016, 38.13525
386.2837, 38.10728
386.7658, 38.24158
387.2480, 38.32996
387.7301, 37.99546
388.2122, 37.25933
388.6943, 36.59590
389.1764, 36.45292
389.6585, 36.56008
390.1407, 36.59563
390.6228, 36.52763
391.1049, 36.28178
391.5870, 35.65869
392.0691, 34.78998
392.5512, 34.07235
393.0334, 33.73941
393.5155, 33.57970
393.9976, 33.47832
394.4797, 33.43716
394.9618, 33.39031
395.4439, 33.31607
395.9261, 33.22438
396.4082, 33.12884
396.8903, 33.11653
397.3724, 33.01614
397.8545, 32.72366
398.3366, 32.22735
398.8188, 31.84218
399.3009, 31.65064
399.7830, 31.53646
400.2651, 31.42650
400.7472, 31.28712
401.2293, 31.20834
401.7115, 31.26263
402.1936, 31.37381
402.6757, 31.29493
403.1578, 30.92190
403.6399, 30.53558
404.1220, 30.25208
404.6042, 30.08063
405.0863, 29.95616
405.5684, 29.90058
406.0505, 29.85876
406.5326, 29.74774
407.0147, 29.55490
407.4969, 29.38618
407.9790, 29.27035
408.4611, 29.19934
408.9432, 29.15414
409.4254, 29.13934
409.9075, 29.10577
410.3896, 28.96975
410.8717, 28.76900
411.3538, 28.69555
411.8359, 28.81604
412.3181, 28.97646
412.8002, 28.98138
413.2823, 28.84353
413.7644, 28.61477
414.2465, 28.18673
414.7286, 27.74278
415.2108, 27.55993
415.6929, 27.65839
416.1750, 27.79340
416.6571, 27.80653
417.1392, 27.73524
417.6213, 27.62793
418.1035, 27.45288
418.5856, 27.29823
419.0677, 27.27988
419.5498, 27.34399
420.0319, 27.28921
420.5140, 26.83518
420.9962, 26.37732
421.4783, 26.18451
421.9604, 26.41537
422.4425, 26.58230
422.9246, 26.48756
423.4067, 26.29444
423.8889, 26.22580
424.3710, 26.41906
424.8531, 26.62564
425.3352, 26.85289
425.8173, 27.10394
426.2994, 27.10743
426.7816, 26.67692
427.2637, 26.18741
427.7458, 25.87890
428.2279, 25.79235
428.7100, 25.79301
429.1921, 25.91718
429.6743, 26.09531
430.1564, 26.15898
430.6385, 26.09259
431.1206, 25.96970
431.6028, 25.77404
432.0849, 25.51366
432.5670, 25.44315
433.0491, 25.59092
433.5312, 25.81257
434.0133, 25.99575
434.4955, 26.13339
434.9776, 26.17184
435.4597, 26.08193
435.9418, 25.90719
436.4239, 25.65539
436.9060, 25.35509
437.3882, 25.17493
437.8703, 25.33819
438.3524, 25.64648
438.8345, 25.80256
439.3166, 25.75858
439.7987, 25.67435
440.2809, 25.69368
440.7630, 25.75246
441.2451, 25.75086
441.7272, 25.58392
442.2093, 25.40537
442.6914, 25.26530
443.1736, 25.17219
443.6557, 25.17350
444.1378, 25.37801
444.6199, 25.62115
445.1020, 25.79524
445.5841, 25.84026
446.0663, 25.90332
446.5484, 25.88645
447.0305, 25.92327
447.5126, 26.25528
447.9947, 27.42719
448.4768, 28.22554
448.9590, 28.27514
449.4411, 27.55662
449.9232, 26.97825
450.4053, 26.48996
450.8874, 26.20488
451.3695, 26.30233
451.8517, 26.94067
452.3338, 27.22429
452.8159, 26.95788
453.2980, 26.42820
453.7801, 26.24058
454.2622, 26.41900
454.7444, 26.60540
455.2265, 26.61426
455.7086, 26.49582
456.1907, 26.45892
456.6729, 26.50560
457.1550, 26.60742
457.6371, 26.76300
458.1192, 26.95335
458.6013, 27.14720
459.0834, 27.36329
459.5656, 27.52758
460.0477, 27.53512
460.5298, 27.41863
461.0119, 27.27597
461.4940, 27.06134
461.9761, 26.90385
462.4583, 26.93509
462.9404, 27.17791
463.4225, 27.42560
463.9046, 27.54885
464.3867, 27.64927
464.8688, 27.81990
465.3510, 28.26475
465.8331, 28.57887
466.3152, 28.56586
466.7973, 28.33327
467.2794, 28.26966
467.7615, 28.52469
468.2437, 28.82885
468.7258, 29.10492
469.2079, 29.35128
469.6900, 29.56078
470.1721, 29.72016
470.6542, 29.85489
471.1364, 29.98635
471.6185, 30.10883
472.1006, 30.24766
472.5827, 30.39944
473.0648, 30.57520
473.5469, 30.85188
474.0291, 31.24566
474.5112, 31.55152
474.9933, 31.53772
475.4754, 31.31341
475.9575, 31.38921
476.4396, 31.80914
476.9218, 32.32821
477.4039, 32.72561
477.8860, 33.01906
478.3681, 33.23710
478.8503, 33.34104
479.3324, 33.43187
479.8145, 33.62865
480.2966, 33.90423
480.7787, 34.14999
481.2608, 34.25977
481.7430, 34.35924
482.2251, 34.54719
482.7072, 34.85116
483.1893, 35.14539
483.6714, 35.42064
484.1535, 35.65009
484.6357, 35.80781
485.1178, 35.76982
485.5999, 35.79986
486.0820, 35.99504
486.5641, 36.29992
487.0462, 36.50929
487.5284, 36.54780
488.0105, 36.59283
488.4926, 36.71639
488.9747, 36.92877
489.4568, 37.15311
489.9389, 37.39631
490.4211, 37.63598
490.9032, 37.85206
491.3853, 38.04726
491.8674, 38.17839
492.3495, 38.20292
492.8316, 38.19646
493.3138, 38.31964
493.7959, 38.56743
494.2780, 38.88697
494.7601, 39.31255
495.2422, 39.77084
495.7243, 40.11420
496.2065, 40.33844
496.6886, 40.48277
497.1707, 40.55922
497.6528, 40.58680
498.1349, 40.59271
498.6170, 40.59063
499.0992, 40.56000
499.5813, 40.43629
500.0634, 40.27316
500.5455, 40.20070
501.0276, 40.31781
501.5097, 40.48312
501.9919, 40.64833
502.4740, 40.80983
502.9561, 40.96703
503.4382, 41.16989
503.9203, 41.33474
504.4025, 41.39838
504.8846, 41.30113
505.3667, 41.22731
505.8488, 41.20412
506.3309, 41.20035
506.8130, 41.15136
507.2952, 41.05681
507.7773, 40.91705
508.2594, 40.69413
508.7415, 40.42213
509.2236, 40.31159
509.7057, 40.37345
510.1879, 40.45859
510.6700, 40.44896
511.1521, 40.36461
511.6342, 40.26648
512.1163, 40.16799
512.5984, 40.04667
513.0806, 39.82185
513.5627, 39.55866
514.0448, 39.39330
514.5269, 39.49140
515.0090, 39.61985
515.4911, 39.61428
515.9733, 39.49030
516.4554, 39.36860
516.9375, 39.40764
517.4196, 39.38044
517.9017, 39.11843
518.3839, 38.44997
518.8660, 37.92092
519.3481, 37.69186
519.8302, 37.58531
520.3123, 37.41478
520.7944, 37.09757
521.2766, 36.87173
521.7587, 36.81450
522.2408, 36.87079
522.7229, 36.81979
523.2050, 36.64606
523.6871, 36.42512
524.1693, 36.16790
524.6514, 35.88578
525.1335, 35.67759
525.6156, 35.55083
526.0977, 35.44582
526.5798, 35.29027
527.0620, 35.10419
527.5441, 34.96450
528.0262, 34.92929
528.5083, 34.86313
528.9904, 34.58490
529.4725, 34.16019
529.9547, 33.75000
530.4368, 33.42802
530.9189, 33.15298
531.4010, 32.89457
531.8831, 32.64945
532.3652, 32.46957
532.8474, 32.46651
533.3295, 32.46460
533.8116, 32.34475
534.2937, 31.98067
534.7758, 31.69715
535.2579, 31.60156
535.7401, 31.54178
536.2222, 31.27014
536.7043, 30.60793
537.1865, 30.15237
537.6686, 30.08374
538.1507, 30.31256
538.6328, 30.46185
539.1149, 30.54261
539.5970, 30.48467
540.0792, 30.15836
540.5613, 29.63542
541.0434, 29.27291
541.5255, 29.08934
542.0076, 29.00858
542.4897, 29.03835
542.9719, 29.10500
543.4540, 29.04746
543.9361, 28.75760
544.4182, 28.44528
544.9003, 28.26897
545.3824, 28.19650
545.8646, 28.15667
546.3467, 28.27448
546.8288, 28.28031
547.3109, 27.93909
547.7930, 27.23883
548.2751, 26.78251
548.7573, 26.94214
549.2394, 27.15090
549.7215, 27.08741
550.2036, 26.54848
550.6857, 26.20117
551.1678, 26.09522
551.6500, 26.13047
552.1321, 26.22701
552.6142, 26.42785
553.0963, 26.39187
553.5784, 25.94629
554.0605, 25.29446
554.5427, 24.98210
555.0248, 24.99533
555.5069, 25.08454
555.9890, 25.17299
556.4711, 25.21566
556.9532, 25.09649
557.4354, 24.81197
557.9175, 24.52151
558.3996, 24.34861
558.8817, 24.23470
559.3638, 24.11203
559.8459, 23.94049
560.3281, 23.81086
560.8102, 23.82690
561.2923, 23.89432
561.7744, 23.86453
562.2565, 23.56537
562.7386, 23.32702
563.2208, 23.22550
563.7029, 23.24615
564.1850, 23.29478
564.6671, 23.42148
565.1492, 23.48620
565.6313, 23.38890
566.1135, 23.11142
566.5956, 22.93408
567.0777, 22.86951
567.5598, 22.86487
568.0419, 22.88522
568.5240, 22.92302
569.0062, 22.94916
569.4883, 22.97178
569.9704, 22.94578
570.4525, 22.75351
570.9346, 22.46107
571.4167, 22.24745
571.8989, 22.23203
572.3810, 22.28788
572.8631, 22.39310
573.3452, 22.52001
573.8273, 22.50784
574.3094, 22.06901
574.7916, 21.65263
575.2737, 21.54840
575.7558, 21.95062
576.2379, 22.11440
576.7200, 21.81889
577.2021, 21.44746
577.6843, 21.37125
578.1664, 21.75135
578.6485, 21.93122
579.1306, 21.78595
579.6127, 21.47179
580.0948, 21.29290
580.5770, 21.24970
581.0591, 21.24233
581.5412, 21.24537
582.0233, 21.25133
582.5054, 21.24227
582.9875, 21.21975
583.4697, 21.19429
583.9518, 21.20599
584.4340, 21.20125
584.9161, 21.09887
585.3982, 20.87739
585.8803, 20.68635
586.3624, 20.60269
586.8445, 20.58431
587.3267, 20.59278
587.8088, 20.63324
588.2909, 20.68415
588.7730, 20.79143
589.2551, 20.89523
589.7372, 20.88260
590.2194, 20.68156
590.7015, 20.50339
591.1836, 20.39467
591.6657, 20.34989
592.1478, 20.37014
592.6299, 20.46935
593.1121, 20.52745
593.5942, 20.42934
594.0763, 20.22705
594.5584, 20.11443
595.0405, 20.09997
595.5226, 20.12798
596.0048, 20.20232
596.4869, 20.27137
596.9690, 20.24673
597.4511, 20.06778
597.9332, 19.90047
598.4153, 19.83113
598.8975, 19.83725
599.3796, 19.88194
599.8617, 19.90074
600.3438, 20.01872
600.8259, 20.43270
601.3080, 21.00558
601.7902, 21.15582
602.2723, 20.64265
602.7544, 20.10361
603.2365, 19.74774
603.7186, 19.57586
604.2007, 19.53210
604.6829, 19.64318
605.1650, 19.75422
605.6471, 19.70129
606.1292, 19.53172
606.6113, 19.45411
607.0934, 19.50184
607.5756, 19.58391
608.0577, 19.62409
608.5398, 19.63153
609.0219, 19.62357
609.5040, 19.63202
609.9861, 19.59035
610.4683, 19.37613
610.9504, 19.09065
611.4325, 18.94940
611.9146, 19.16618
612.3967, 19.37420
612.8788, 19.45089
613.3610, 19.40919
613.8431, 19.42081
614.3252, 19.55545
614.8073, 19.62549
615.2894, 19.50981
615.7715, 19.19518
616.2537, 18.90797
616.7358, 18.62214
617.2179, 18.48600
617.7000, 18.79857
618.1821, 19.40816
618.6642, 19.74850
619.1464, 19.68408
619.6285, 19.49691
620.1106, 19.44058
620.5927, 19.46584
621.0748, 19.48802
621.5569, 19.48584
622.0391, 19.46244
622.5212, 19.37559
623.0033, 19.26346
623.4854, 19.24224
623.9675, 19.44361
624.4496, 19.62370
624.9318, 19.70078
625.4139, 19.67776
625.8960, 19.71578
626.3781, 19.87255
626.8602, 19.95719
627.3423, 19.76353
627.8245, 19.30692
628.3066, 19.18850
628.7887, 19.46540
629.2708, 19.80540
629.7529, 19.82670
630.2350, 19.65101
630.7172, 19.57385
631.1993, 19.70199
631.6815, 19.82034
632.1636, 19.68981
632.6457, 19.44668
633.1278, 19.30625
633.6099, 19.36223
634.0920, 19.50960
634.5742, 19.80012
635.0563, 20.17048
635.5384, 20.39199
636.0205, 20.39100
636.5026, 20.33817
636.9847, 20.25425
637.4669, 20.14815
637.9490, 20.17626
638.4311, 20.37101
638.9132, 20.55601
639.3953, 20.60617
639.8774, 20.54520
640.3596, 20.38262
640.8417, 20.09460
641.3238, 20.06914
641.8059, 21.08386
642.2880, 22.44545
642.7701, 23.09232
643.2523, 22.57761
643.7344, 21.94239
644.2165, 21.71289
644.6986, 21.67674
645.1807, 21.55348
645.6628, 20.75983
646.1450, 20.55210
646.6271, 21.57121
647.1092, 23.17674
647.5913, 23.60757
648.0734, 22.38979
648.5555, 21.34605
649.0377, 21.11387
649.5198, 21.50183
650.0019, 21.60577
650.4840, 21.43070
650.9661, 21.36654
651.4482, 21.86466
651.9304, 22.56984
652.4125, 22.79717
652.8946, 22.52707
653.3767, 22.25472
653.8588, 22.35071
654.3409, 22.56024
654.8231, 22.67192
655.3052, 22.62872
655.7873, 22.54589
656.2694, 22.36794
656.7515, 22.20699
657.2336, 22.17583
657.7158, 22.34809
658.1979, 22.48666
658.6800, 22.55875
659.1621, 22.60572
659.6442, 22.69546
660.1263, 22.82720
660.6085, 22.99698
661.0906, 23.22654
661.5727, 23.46306
662.0548, 23.60386
662.5369, 23.66943
663.0190, 23.73837
663.5012, 23.91332
663.9833, 24.06094
664.4654, 24.05548
664.9475, 23.91224
665.4296, 23.77175
665.9117, 23.62551
666.3939, 23.54026
666.8760, 23.54816
667.3581, 23.64681
667.8402, 23.86118
668.3223, 24.29265
668.8044, 24.68390
669.2866, 24.79203
669.7687, 24.60077
670.2508, 24.56979
670.7329, 24.74846
671.2150, 24.97528
671.6971, 25.04620
672.1793, 25.02308
672.6614, 25.06594
673.1435, 25.21990
673.6256, 25.42700
674.1077, 25.72654
674.5898, 26.03012
675.0720, 26.19790
675.5541, 26.02323
676.0362, 25.89308
676.5183, 25.89786
677.0004, 26.02523
677.4825, 26.25678
677.9647, 26.71854
678.4468, 27.02952
678.9290, 27.03246
679.4111, 26.80718
679.8932, 26.74323
680.3753, 26.84895
680.8574, 26.99009
681.3395, 27.07704
681.8217, 27.14896
682.3038, 27.29062
682.7859, 27.50051
683.2680, 27.73252
683.7501, 28.03123
684.2322, 28.29003
684.7144, 28.39604
685.1965, 28.30234
685.6786, 28.26143
686.1607, 28.35355
686.6428, 28.51229
687.1249, 28.69254
687.6071, 28.90936
688.0892, 29.10863
688.5713, 29.28101
689.0534, 29.45152
689.5355, 29.65357
690.0176, 29.88763
690.4998, 30.12882
690.9819, 30.38763
691.4640, 30.61010
691.9461, 30.61552
692.4282, 30.52926
692.9103, 30.63514
693.3925, 31.20246
693.8746, 31.79980
694.3567, 32.11503
694.8388, 32.27129
695.3209, 32.55827
695.8030, 33.25292
696.2852, 33.84329
696.7673, 34.17953
697.2494, 34.31529
697.7315, 34.49975
698.2136, 34.72306
698.6957, 35.03062
699.1779, 35.47912
699.6600, 36.02843
700.1421, 36.46864
700.6242, 36.80817
701.1063, 37.17080
701.5884, 37.58715
702.0706, 38.10566
702.5527, 38.85468
703.0348, 39.84004
703.5169, 40.74331
703.9990, 41.26142
704.4811, 41.73701
704.9633, 42.41198
705.4454, 43.41248
705.9275, 44.32920
706.4096, 45.06592
706.8917, 45.82355
707.3738, 46.81103
707.8560, 48.04306
708.3381, 49.18924
708.8202, 50.19719
709.3023, 51.21254
709.7844, 52.43254
710.2665, 53.80423
710.7487, 55.18802
711.2308, 56.47100
711.7129, 57.92906
712.1950, 59.83686
712.6771, 62.05796
713.1592, 64.39549
713.6414, 67.06362
714.1235, 69.49924
714.6056, 71.25759
715.0877, 72.75350
715.5698, 74.76875
716.0519, 77.40878
716.5341, 80.27825
717.0162, 83.27110
717.4983, 86.41530
717.9804, 89.62856
718.4625, 92.95461
718.9446, 96.62697
719.4268, 100.5468
719.9089, 105.0069
720.3910, 111.0487
720.8731, 118.1736
721.3552, 124.5203
721.8373, 128.1640
722.3195, 131.5841
722.8016, 136.0337
723.2837, 141.5407
723.7658, 147.3524
724.2479, 153.3558
724.7300, 159.6717
725.2122, 166.3209
725.6943, 173.3056
726.1765, 180.5254
726.6586, 188.0971
727.1407, 195.7264
727.6228, 203.2700
728.1049, 210.8078
728.5870, 218.3318
729.0692, 225.8410
729.5513, 233.4157
730.0334, 241.0885
730.5155, 248.9108
730.9976, 256.8137
731.4797, 264.9857
731.9619, 272.7878
732.4440, 280.3469
732.9261, 287.2957
733.4082, 293.4021
733.8903, 298.5678
734.3724, 303.1881
734.8546, 307.3696
735.3367, 310.7003
735.8188, 312.6854
736.3009, 313.3488
736.7830, 312.8223
737.2651, 311.1650
737.7473, 308.1974
738.2294, 303.6324
738.7115, 297.7033
739.1936, 290.7657
739.6757, 282.7036
740.1578, 273.9353
740.6400, 264.3835
741.1221, 254.2416
741.6042, 243.7125
742.0863, 232.5879
742.5684, 221.4328
743.0505, 210.1294
743.5327, 198.9475
744.0148, 188.4577
744.4969, 178.7227
744.9790, 169.4173
745.4611, 160.4409
745.9432, 151.8012
746.4254, 143.4032
746.9075, 135.3043
747.3896, 127.7457
747.8717, 120.9965
748.3538, 114.6522
748.8359, 108.4548
749.3181, 102.4409
749.8002, 96.90776
750.2823, 92.02682
750.7644, 87.33378
751.2465, 82.69767
751.7286, 78.15235
752.2108, 74.09379
752.6929, 70.50639
753.1750, 67.19296
753.6571, 64.14994
754.1392, 61.28994
754.6213, 58.46740
755.1035, 55.67504
755.5856, 53.03089
756.0677, 50.57704
756.5498, 48.27454
757.0319, 46.01766
757.5140, 43.81162
757.9962, 41.97040
758.4783, 40.67042
758.9604, 39.49721
759.4425, 38.26537
759.9246, 36.98693
760.4067, 35.72188
760.8889, 34.46770
761.3710, 33.30822
761.8531, 32.32906
762.3352, 31.48074
762.8173, 30.68275
763.2994, 29.93282
763.7816, 29.20635
764.2637, 28.45481
764.7458, 27.75268
765.2279, 27.19536
765.7100, 26.83164
766.1921, 26.35862
766.6743, 25.67011
767.1564, 24.98079
767.6385, 24.43007
768.1206, 24.02605
768.6027, 23.62911
769.0848, 23.22724
769.5670, 22.89322
770.0491, 22.79166
770.5312, 22.77742
771.0133, 22.51505
771.4954, 21.94167
771.9775, 21.39864
772.4597, 21.07644
772.9418, 20.89571
773.4240, 20.79449
773.9061, 20.79291
774.3882, 20.81126
774.8703, 20.93215
775.3524, 20.97485
775.8345, 20.74201
776.3167, 20.20227
776.7988, 19.78281
777.2809, 19.52587
777.7630, 19.32424
778.2451, 19.05441
778.7272, 18.75863
779.2094, 18.51358
779.6915, 18.33201
780.1736, 18.22049
780.6557, 18.24515
781.1378, 18.31042
781.6199, 18.32590
782.1021, 18.28962
782.5842, 18.16887
783.0663, 17.90879
783.5484, 17.62461
784.0305, 17.42520
784.5126, 17.30797
784.9948, 17.34394
785.4769, 17.57213
785.9590, 17.81032
786.4411, 17.83863
786.9232, 17.72728
787.4053, 17.60051
787.8875, 17.48519
788.3696, 17.36530
788.8517, 17.17744
789.3338, 17.00484
789.8159, 16.94819
790.2980, 17.14264
790.7802, 17.22207
791.2623, 17.15806
791.7444, 17.00032
792.2265, 16.73741
792.7086, 16.38522
793.1907, 16.35517
793.6729, 16.79895
794.1550, 17.23533
794.6371, 16.98895
795.1192, 16.40828
795.6013, 16.08053
796.0834, 16.33535
796.5656, 16.51839
797.0477, 16.27655
797.5298, 15.89456
798.0119, 15.72785
798.4940, 15.88807
798.9761, 16.00422
799.4583, 16.02774
799.9404, 16.04147
800.4225, 16.21177
800.9046, 16.49561
801.3867, 16.62610
801.8688, 16.52595
802.3510, 16.34975
802.8331, 16.19059
803.3152, 16.07118
803.7973, 16.03165
804.2794, 16.16505
804.7615, 16.23892
805.2437, 15.80198
805.7258, 15.51663
806.2079, 16.33587
806.6900, 18.87777
807.1721, 19.94054
807.6542, 18.90185
808.1364, 17.12121
808.6185, 16.29164
809.1006, 16.20202
809.5827, 16.27536
810.0648, 16.44464
810.5469, 16.53908
811.0291, 16.38609
811.5112, 16.10781
811.9933, 15.84178
812.4754, 15.56142
812.9575, 15.38290
813.4396, 15.31214
813.9218, 15.33963
814.4039, 15.49283
814.8860, 15.78690
815.3681, 15.97705
815.8502, 16.03135
816.3323, 16.00642
816.8145, 15.92917
817.2966, 15.83023
817.7787, 15.76742
818.2608, 15.76568
818.7429, 15.75968
819.2251, 15.67282
819.7072, 15.59181
820.1893, 15.61864
820.6714, 15.89478
821.1536, 15.95857
821.6357, 15.73239
822.1178, 15.43209
822.5999, 15.25725
823.0820, 15.20837
823.5641, 15.32536
824.0463, 15.63171
824.5284, 15.94275
825.0105, 16.12815
825.4926, 16.20035
825.9747, 16.14034
826.4568, 15.88029
826.9390, 15.71128
827.4211, 15.80685
827.9032, 15.93074
828.3853, 15.91967
828.8674, 15.73878
829.3495, 15.57072
829.8317, 15.40077
830.3138, 15.31898
830.7959, 15.50582
831.2780, 15.82551
831.7601, 15.96983
832.2422, 15.89931
832.7244, 15.80360
833.2065, 15.77838
833.6886, 15.79181
834.1707, 15.84490
834.6528, 15.97756
835.1349, 15.94354
835.6171, 15.62751
836.0992, 15.34086
836.5813, 15.31768
837.0634, 15.53787
837.5455, 15.69804
838.0276, 15.79765
838.5098, 15.88645
838.9919, 16.07309
839.4740, 16.22712
839.9561, 16.15766
840.4382, 15.85793
840.9203, 15.62582
841.4025, 15.57193
841.8846, 15.60180
842.3667, 15.70419
842.8488, 15.87555
843.3309, 15.90696
843.8130, 15.77662
844.2952, 15.62884
844.7773, 15.50832
845.2594, 15.44308
845.7415, 15.56334
846.2236, 15.82672
846.7057, 16.00132
847.1879, 15.84842
847.6700, 15.67212
848.1521, 15.66698
848.6342, 15.81363
849.1163, 15.88058
849.5984, 15.82759
850.0806, 15.75476
850.5627, 15.65808
851.0448, 15.58447
851.5269, 15.75662
852.0090, 16.13892
852.4911, 16.43928
852.9733, 16.48450
853.4554, 16.41072
853.9375, 16.13181
854.4196, 15.83466
854.9017, 15.98170
855.3839, 17.59698
855.8660, 18.54000
856.3481, 18.13453
856.8302, 16.95822
857.3123, 16.24089
857.7944, 15.99497
858.2766, 16.01219
858.7587, 16.32764
859.2408, 16.68712
859.7229, 16.64536
860.2050, 16.37954
860.6871, 16.25574
861.1693, 16.49441
861.6514, 16.73820
862.1335, 16.82883
862.6156, 16.86180
863.0977, 16.95354
863.5798, 17.08509
864.0620, 17.34098
864.5441, 17.75078
865.0262, 18.23895
865.5083, 18.77218
865.9904, 19.31458
866.4726, 19.75249
866.9547, 20.05973
867.4368, 20.31902
867.9189, 20.49527
868.4011, 20.71140
868.8832, 21.09230
869.3653, 21.72767
869.8474, 22.36152
870.3295, 22.98239
870.8116, 23.61538
871.2938, 24.28116
871.7759, 24.97834
872.2580, 25.66283
872.7401, 26.34218
873.2222, 26.97545
873.7043, 27.62349
874.1865, 28.15011
874.6686, 28.36206
875.1507, 28.24529
875.6328, 28.16643
876.1149, 28.20870
876.5970, 28.32267
877.0792, 28.57351
877.5613, 28.91521
878.0434, 28.84234
878.5255, 28.34664
879.0076, 27.69204
879.4897, 27.06508
879.9719, 26.35772
880.4540, 25.36849
880.9361, 24.15992
881.4182, 22.94796
881.9003, 21.70416
882.3824, 20.60189
882.8646, 19.72529
883.3467, 19.02778
883.8288, 18.39162
884.3109, 17.80046
884.7930, 17.35487
885.2751, 17.11657
885.7573, 16.97092
886.2394, 16.71643
886.7215, 16.40146
887.2036, 16.14841
887.6857, 16.01311
888.1678, 15.92478
888.6500, 15.89032
889.1321, 15.86912
889.6142, 15.80238
890.0963, 15.65622
890.5784, 15.56438
891.0605, 15.55377
891.5427, 15.55204
892.0248, 15.44920
892.5069, 15.28660
892.9890, 15.19188
893.4711, 15.18839
893.9532, 15.20727
894.4354, 15.25080
894.9175, 15.26360
895.3996, 15.17676
895.8817, 14.94007
896.3638, 14.81832
896.8459, 14.83618
897.3281, 14.91989
897.8102, 15.06320
898.2923, 15.24094
898.7744, 15.29691
899.2565, 15.23831
899.7386, 15.14542
900.2208, 15.04438
900.7029, 14.94923
901.1850, 14.87233
901.6671, 14.81196
902.1492, 14.73982
902.6313, 14.55140
903.1135, 14.54068
903.5956, 14.87008
904.0777, 15.36750
904.5598, 15.54626
905.0419, 15.43392
905.5240, 15.25327
906.0062, 15.05969
906.4883, 14.87512
906.9704, 14.66586
907.4525, 14.49391
907.9346, 14.45763
908.4167, 14.72818
908.8989, 14.93422
909.3810, 15.02923
909.8631, 15.07721
910.3452, 15.19814
910.8273, 15.37626
911.3094, 15.32704
911.7916, 14.98825
912.2737, 14.65434
912.7558, 14.62044
913.2380, 14.72525
913.7201, 14.79941
914.2022, 14.81033
914.6843, 14.83543
915.1664, 14.95045
915.6486, 14.99932
916.1307, 14.83149
916.6128, 14.47561
917.0949, 14.48500
917.5770, 14.85863
918.0591, 15.23478
918.5413, 15.38545
919.0234, 15.42028
919.5055, 15.39798
919.9876, 15.34919
920.4697, 15.38565
920.9518, 15.69901
921.4340, 15.89896
921.9161, 15.87425
922.3982, 15.69992
922.8803, 15.52597
923.3624, 15.35680
923.8445, 15.32228
924.3267, 15.52431
924.8088, 15.71770
925.2909, 15.55062
925.7730, 15.22864
926.2551, 15.05853
926.7372, 15.23610
927.2194, 15.35787
927.7015, 15.33293
928.1836, 15.28721
928.6657, 15.34160
929.1478, 15.49579
929.6299, 15.65260
930.1121, 15.81035
930.5942, 15.90523
931.0763, 15.81375
931.5584, 15.67329
932.0405, 15.65645
932.5226, 15.77629
933.0048, 15.82015
933.4869, 15.55029
933.9690, 15.43629
934.4511, 15.69069
934.9332, 16.23221
935.4153, 16.69762
935.8975, 17.08367
936.3796, 17.20487
936.8617, 16.40351
937.3438, 15.96627
937.8259, 18.28596
938.3080, 21.78172
938.7902, 23.24612
939.2723, 19.59590
939.7544, 16.90253
940.2365, 16.00981
940.7186, 16.09463
941.2007, 16.19354
941.6829, 16.30073
942.1650, 16.32662
942.6471, 16.24745
943.1292, 16.18444
943.6113, 16.26819
944.0934, 16.41025
944.5756, 16.53698
945.0577, 16.64400
945.5398, 16.68732
946.0219, 16.64452
946.5040, 16.57467
946.9861, 16.49043
947.4683, 16.40301
947.9504, 16.39234
948.4325, 16.45246
948.9146, 16.53475
949.3967, 16.55880
949.8788, 16.64218
950.3610, 16.96927
950.8431, 17.42919
951.3252, 17.67771
951.8073, 17.60490
952.2894, 17.48152
952.7715, 17.32936
953.2537, 17.16922
953.7358, 16.99417
954.2179, 16.83468
954.7000, 16.83487
955.1821, 17.05116
955.6642, 17.29633
956.1464, 17.49287
956.6285, 17.62302
957.1106, 17.64832
957.5927, 17.52600
958.0748, 17.50511
958.5569, 17.61402
959.0391, 17.74833
959.5212, 17.85862
960.0033, 17.93788
960.4855, 17.91513
960.9676, 17.82020
961.4497, 17.82096
961.9318, 18.18850
962.4139, 18.48794
962.8961, 18.40616
963.3782, 18.09632
963.8603, 17.98114
964.3424, 18.09613
964.8245, 18.26810
965.3066, 18.47835
965.7888, 18.69603
966.2709, 18.92835
966.7530, 19.12482
967.2351, 19.14517
967.7172, 18.87677
968.1993, 18.73019
968.6815, 18.95170
969.1636, 19.27837
969.6457, 19.56147
970.1278, 19.80890
970.6099, 19.81586
971.0920, 19.55692
971.5742, 19.39240
972.0563, 19.69747
972.5384, 20.15681
973.0205, 20.35739
973.5026, 20.34974
973.9847, 20.37892
974.4669, 20.67632
974.9490, 20.80340
975.4311, 20.54361
975.9132, 20.16339
976.3953, 20.28059
976.8774, 20.85450
977.3596, 21.23499
977.8417, 21.24909
978.3238, 21.15992
978.8059, 21.14055
979.2880, 21.18566
979.7701, 21.29627
980.2523, 21.49349
980.7344, 21.69707
981.2165, 21.94318
981.6986, 22.12506
982.1807, 22.14020
982.6628, 22.03815
983.1450, 22.03950
983.6271, 22.13388
984.1092, 22.25743
984.5913, 22.33427
985.0734, 22.47002
985.5555, 22.82168
986.0377, 23.26500
986.5198, 23.45983
987.0019, 23.29924
987.4840, 23.25598
987.9661, 23.42839
988.4482, 23.66565
988.9304, 23.75328
989.4125, 23.75855
989.8946, 23.81283
990.3767, 23.94778
990.8588, 24.07583
991.3409, 24.20614
991.8231, 24.27307
992.3052, 24.21557
992.7873, 24.04226
993.2694, 23.91626
993.7515, 23.83171
994.2336, 23.96905
994.7158, 24.65707
995.1979, 25.41243
995.6800, 25.60138
996.1621, 25.43172
996.6442, 25.38623
997.1263, 25.65932
997.6085, 25.99561
998.0906, 26.42107
998.5727, 26.83188
999.0548, 27.07245
999.5369, 27.17330
1000.019, 27.33829
1000.501, 27.59670
1000.983, 27.81242
1001.465, 27.83725
1001.948, 27.82182
1002.430, 27.86718
1002.912, 27.98402
1003.394, 28.15762
1003.876, 28.38330
1004.358, 28.69830
1004.840, 29.16594
1005.322, 29.68011
1005.804, 29.97283
1006.287, 30.15246
1006.769, 30.51598
1007.251, 31.54876
1007.733, 32.19230
1008.215, 31.65059
1008.697, 30.91716
1009.179, 30.96572
1009.661, 31.89777
1010.144, 32.36942
1010.626, 32.31108
1011.108, 32.24303
1011.590, 32.71620
1012.072, 33.29636
1012.554, 33.44867
1013.036, 33.23309
1013.518, 33.32744
1014.000, 34.08577
1014.483, 34.71407
1014.965, 34.97876
1015.447, 35.06940
1015.929, 35.40258
1016.411, 35.90681
1016.893, 36.29420
1017.375, 36.44331
1017.857, 36.65468
1018.340, 37.24027
1018.822, 37.87831
1019.304, 38.25476
1019.786, 38.30824
1020.268, 38.60535
1020.750, 39.18594
1021.232, 39.75276
1021.714, 40.07922
1022.196, 40.30128
1022.679, 40.46039
1023.161, 40.68137
1023.643, 41.32549
1024.125, 43.30364
1024.607, 44.62527
1025.089, 44.75925
1025.571, 44.36804
1026.053, 44.31221
1026.536, 44.56858
1027.018, 44.94585
1027.500, 45.42074
1027.982, 46.03952
1028.464, 47.05402
1028.946, 48.05912
1029.428, 48.69218
1029.910, 48.94002
1030.392, 49.20558
1030.875, 49.45050
1031.357, 49.86907
1031.839, 50.57327
1032.321, 51.43077
1032.803, 52.24005
1033.285, 53.01033
1033.767, 53.74126
1034.249, 54.40538
1034.732, 55.07907
1035.214, 55.71163
1035.696, 56.42883
1036.178, 57.40299
1036.660, 58.62214
1037.142, 59.53807
1037.624, 60.15001
1038.106, 60.85816
1038.589, 62.01769
1039.071, 63.29220
1039.553, 64.47470
1040.035, 65.57040
1040.517, 66.63723
1040.999, 67.67906
1041.481, 68.70927
1041.963, 69.71887
1042.445, 70.79200
1042.927, 72.12144
1043.410, 73.58888
1043.892, 74.95196
1044.374, 76.17840
1044.856, 77.45505
1045.338, 78.91940
1045.820, 80.39176
1046.302, 81.75606
1046.784, 83.05293
1047.267, 84.45364
1047.749, 85.97615
1048.231, 87.73515
1048.713, 89.90673
1049.195, 92.05701
1049.677, 93.67934
1050.159, 95.15970
1050.641, 97.07095
1051.124, 99.66027
1051.606, 102.0689
1052.088, 104.2532
1052.570, 106.4368
1053.052, 108.8098
1053.534, 111.3497
1054.016, 114.0292
1054.498, 116.8508
1054.980, 119.8268
1055.463, 122.8933
1055.945, 126.2311
1056.427, 129.8200
1056.909, 133.6788
1057.391, 137.8319
1057.873, 142.2703
1058.355, 146.9031
1058.837, 151.7065
1059.319, 156.8575
1059.802, 162.5871
1060.284, 168.5001
1060.766, 174.0715
1061.248, 179.3660
1061.730, 185.6656
1062.212, 193.0778
1062.694, 201.0074
1063.176, 209.2820
1063.659, 217.7550
1064.141, 226.0874
1064.623, 234.5948
1065.105, 243.8236
1065.587, 253.7375
1066.069, 264.6142
1066.551, 276.3982
1067.033, 289.1606
1067.516, 302.9328
1067.998, 317.7996
1068.480, 333.3659
1068.962, 349.7911
1069.444, 367.7646
1069.926, 388.1127
1070.408, 409.4712
1070.890, 430.1722
1071.372, 451.5856
1071.854, 475.6589
1072.337, 502.3140
1072.819, 530.4515
1073.301, 559.6776
1073.783, 590.8737
1074.265, 623.6563
1074.747, 659.2449
1075.229, 698.7687
1075.711, 742.1858
1076.194, 789.5175
1076.676, 839.6300
1077.158, 894.5381
1077.640, 954.2193
1078.122, 1019.173
1078.604, 1089.594
1079.086, 1166.096
1079.568, 1249.847
1080.051, 1342.223
1080.533, 1440.416
1081.015, 1543.131
1081.497, 1652.342
1081.979, 1768.613
1082.461, 1891.109
1082.943, 2020.548
1083.425, 2157.761
1083.907, 2300.823
1084.390, 2449.622
1084.872, 2603.347
1085.354, 2762.258
1085.836, 2924.710
1086.318, 3092.620
1086.800, 3265.322
1087.282, 3443.143
1087.764, 3626.698
1088.247, 3810.316
1088.729, 3992.966
1089.211, 4170.458
1089.693, 4344.125
1090.175, 4511.019
1090.657, 4660.333
1091.139, 4796.264
1091.621, 4904.931
1092.104, 4985.505
1092.586, 5035.857
1093.068, 5055.266
1093.550, 5041.654
1094.032, 4988.967
1094.514, 4896.517
1094.996, 4774.008
1095.478, 4616.226
1095.960, 4439.494
1096.443, 4247.440
1096.925, 4044.439
1097.407, 3835.730
1097.889, 3621.419
1098.371, 3408.758
1098.853, 3196.715
1099.335, 2992.066
1099.817, 2799.606
1100.299, 2616.467
1100.782, 2439.435
1101.264, 2266.617
1101.746, 2104.415
1102.228, 1952.248
1102.710, 1808.318
1103.192, 1673.363
1103.674, 1546.092
1104.156, 1426.593
1104.639, 1315.619
1105.121, 1213.198
1105.603, 1121.897
1106.085, 1036.149
1106.567, 955.4725
1107.049, 881.1942
1107.531, 813.6265
1108.013, 752.8331
1108.495, 696.4146
1108.978, 644.5271
1109.460, 597.1967
1109.942, 554.9182
1110.424, 516.2794
1110.906, 480.7569
1111.388, 448.1040
1111.870, 417.9851
1112.352, 390.2982
1112.834, 364.8413
1113.317, 341.3710
1113.799, 319.5718
1114.281, 299.3382
1114.763, 280.5796
1115.245, 263.5987
1115.727, 248.1852
1116.209, 234.3559
1116.691, 221.9844
1117.174, 210.3742
1117.656, 199.3879
1118.138, 189.0273
1118.620, 179.2341
1119.102, 170.1133
1119.584, 161.9284
1120.066, 154.6297
1120.548, 147.2956
1121.031, 139.8016
1121.513, 133.1851
1121.995, 128.0226
1122.477, 123.5098
1122.959, 118.5117
1123.441, 113.4401
1123.923, 108.8820
1124.405, 105.1672
1124.887, 101.2985
1125.370, 97.09399
1125.852, 93.20953
1126.334, 90.08758
1126.816, 87.49770
1127.298, 85.14845
1127.780, 82.89520
1128.262, 80.41166
1128.744, 77.14363
1129.227, 74.30348
1129.709, 72.07565
1130.191, 70.15551
1130.673, 68.28775
1131.155, 66.49132
1131.637, 64.79508
1132.119, 63.18779
1132.601, 61.60432
1133.083, 59.99734
1133.566, 58.41661
1134.048, 56.81300
1134.530, 55.29728
1135.012, 54.06017
1135.494, 53.08764
1135.976, 52.12326
1136.458, 51.14241
1136.940, 50.18604
1137.422, 49.29863
1137.905, 48.42907
1138.387, 47.53151
1138.869, 46.62236
1139.351, 45.77708
1139.833, 44.99389
1140.315, 44.15076
1140.797, 43.21827
1141.279, 42.27761
1141.762, 41.25616
1142.244, 40.36188
1142.726, 39.85221
1143.208, 39.70486
1143.690, 39.37280
1144.172, 38.84554
1144.654, 38.17240
1145.136, 37.31188
1145.619, 36.50631
1146.101, 36.23262
1146.583, 36.10841
1147.065, 35.59980
1147.547, 34.50032
1148.029, 33.75550
1148.511, 33.47024
1148.993, 33.24644
1149.475, 32.94445
1149.958, 32.56075
1150.440, 31.99940
1150.922, 31.37315
1151.404, 30.88782
1151.886, 30.65194
1152.368, 30.43083
1152.850, 30.21594
1153.332, 29.99456
1153.814, 29.78718
1154.297, 29.55293
1154.779, 29.15560
1155.261, 28.64018
1155.743, 28.14942
1156.225, 27.67799
1156.707, 27.32283
1157.189, 27.10708
1157.671, 26.97011
1158.154, 26.91844
1158.636, 26.90176
1159.118, 26.61535
1159.600, 26.13726
1160.082, 25.86129
1160.564, 26.28431
1161.046, 26.53345
1161.528, 26.33332
1162.010, 25.90133
1162.493, 25.39859
1162.975, 24.86155
1163.457, 24.56323
1163.939, 24.49807
1164.421, 24.43626
1164.903, 24.21105
1165.385, 23.99610
1165.867, 23.89398
1166.349, 23.83355
1166.832, 23.69441
1167.314, 23.48256
1167.796, 23.26872
1168.278, 23.05833
1168.760, 22.95309
1169.242, 23.15390
1169.724, 23.35454
1170.206, 23.37030
1170.689, 23.24286
1171.171, 23.03136
1171.653, 22.73735
1172.135, 22.56077
1172.617, 22.56023
1173.099, 22.51123
1173.581, 22.13007
1174.063, 21.71333
1174.546, 21.51038
1175.028, 21.47781
1175.510, 21.42793
1175.992, 21.36146
1176.474, 21.22778
1176.956, 20.98219
1177.438, 20.79508
1177.920, 20.89025
1178.402, 21.07033
1178.885, 21.15516
1179.367, 21.13892
1179.849, 21.11431
1180.331, 21.08015
1180.813, 21.04137
1181.295, 20.97886
1181.777, 20.96636
1182.259, 21.26132
1182.742, 21.53848
1183.224, 21.36298
1183.706, 20.65369
1184.188, 20.12311
1184.670, 19.77933
1185.152, 19.51852
1185.634, 19.26130
1186.116, 19.12721
1186.599, 19.36543
1187.081, 19.76006
1187.563, 20.01927
1188.045, 20.09336
1188.527, 20.07958
1189.009, 19.96070
1189.491, 19.85720
1189.973, 19.85173
1190.455, 19.87581
1190.938, 19.87572
1191.420, 19.83588
1191.902, 19.72056
1192.384, 19.48599
1192.866, 19.28248
1193.348, 19.09736
1193.830, 19.00500
1194.312, 19.07662
1194.794, 19.24771
1195.277, 19.53454
1195.759, 19.83632
1196.241, 19.92799
1196.723, 19.65029
1197.205, 19.47323
1197.687, 19.42000
1198.169, 19.38636
1198.651, 18.93924
1199.134, 18.72093
1199.616, 20.31114
1200.098, 22.75191
1200.580, 23.45616
1201.062, 20.59415
1201.544, 19.71427
1202.026, 21.51611
1202.508, 23.39577
1202.990, 22.81683
1203.473, 21.16391
1203.955, 20.06503
1204.437, 19.46791
1204.919, 18.98732
1205.401, 18.47449
1205.883, 18.32063
1206.365, 18.63279
1206.847, 18.98565
1207.329, 18.94141
1207.812, 18.71925
1208.294, 18.55946
1208.776, 18.47062
1209.258, 18.44669
1209.740, 18.53213
1210.222, 18.53078
1210.704, 18.39016
1211.186, 18.28638
1211.669, 18.45300
1212.151, 18.72248
1212.633, 18.91533
1213.115, 19.01969
1213.597, 19.00974
1214.079, 18.80722
1214.561, 18.76937
1215.043, 18.98858
1215.526, 19.19524
1216.008, 19.03665
1216.490, 18.74500
1216.972, 18.58549
1217.454, 18.56323
1217.936, 18.58493
1218.418, 18.67432
1218.900, 18.62518
1219.382, 18.32279
1219.865, 18.23104
1220.347, 19.38599
1220.829, 20.66846
1221.311, 20.60073
1221.793, 19.26700
1222.275, 18.47109
1222.757, 18.41214
1223.239, 18.26883
1223.722, 17.78636
1224.204, 17.64332
1224.686, 19.34194
1225.168, 21.21028
1225.650, 21.33650
1226.132, 19.71744
1226.614, 18.40661
1227.096, 17.35803
1227.578, 17.07068
1228.061, 17.79258
1228.543, 18.60719
1229.025, 18.44060
1229.507, 17.96790
1229.989, 17.80662
1230.471, 17.98159
1230.953, 18.24703
1231.435, 18.63807
1231.917, 18.79196
1232.400, 18.58788
1232.882, 18.31747
1233.364, 18.24812
1233.846, 18.24903
1234.328, 18.17891
1234.810, 18.06132
1235.292, 18.12320
1235.774, 18.37876
1236.257, 18.46416
1236.739, 18.26585
1237.221, 18.01705
1237.703, 17.88088
1238.185, 17.80493
1238.667, 17.74256
1239.149, 17.70210
1239.631, 17.78560
1240.114, 17.98334
1240.596, 18.03971
1241.078, 17.86887
1241.560, 17.68131
1242.042, 17.56626
1242.524, 17.56255
1243.006, 17.75216
1243.488, 18.05537
1243.970, 18.17442
1244.453, 18.12553
1244.935, 18.02026
1245.417, 17.87239
1245.899, 17.74494
1246.381, 17.70331
1246.863, 17.66043
1247.345, 17.54748
1247.827, 17.40811
1248.309, 17.40654
1248.792, 17.51364
1249.274, 17.61518
1249.756, 17.69232
1250.238, 17.70679
1250.720, 17.59625
1251.202, 17.46454
1251.684, 17.34348
1252.166, 17.24222
1252.649, 17.17875
1253.131, 17.15433
1253.613, 17.17375
1254.095, 17.24019
1254.577, 17.33774
1255.059, 17.50603
1255.541, 17.63465
1256.023, 17.66698
1256.505, 17.65893
1256.988, 17.78580
1257.470, 17.94510
1257.952, 17.86834
1258.434, 17.45779
1258.916, 17.25307
1259.398, 17.44094
1259.880, 17.57525
1260.362, 17.47919
1260.844, 17.31253
1261.327, 17.42701
1261.809, 17.60555
1262.291, 17.42349
1262.773, 16.76197
1263.255, 16.57730
1263.737, 17.09772
1264.219, 17.41245
1264.701, 17.17315
1265.184, 16.77750
1265.666, 16.64997
1266.148, 16.70210
1266.630, 16.88942
1267.112, 17.20512
1267.594, 17.31679
1268.076, 17.18690
1268.558, 17.17229
1269.041, 17.41857
1269.523, 17.64380
1270.005, 17.45742
1270.487, 17.21184
1270.969, 17.33480
1271.451, 17.72844
1271.933, 17.73406
1272.415, 17.35896
1272.897, 17.11227
1273.380, 17.13001
1273.862, 17.22509
1274.344, 17.26078
1274.826, 17.33586
1275.308, 17.56969
1275.790, 17.86785
1276.272, 17.86773
1276.754, 17.63380
1277.237, 17.54862
1277.719, 17.71770
1278.201, 17.78374
1278.683, 17.36064
1279.165, 17.03973
1279.647, 17.07768
1280.129, 17.32968
1280.611, 17.56778
1281.094, 17.75186
1281.576, 17.75231
1282.058, 17.54248
1282.540, 17.31033
1283.022, 16.97752
1283.504, 16.88022
1283.986, 17.17533
1284.468, 17.59850
1284.950, 17.76007
1285.432, 17.75876
1285.915, 17.73367
1286.397, 17.70207
1286.879, 17.66330
1287.361, 17.61839
1287.843, 17.55377
1288.325, 17.44863
1288.807, 17.39609
1289.289, 17.56808
1289.772, 17.80129
1290.254, 17.93882
1290.736, 17.96686
1291.218, 17.90517
1291.700, 17.73034
1292.182, 17.72725
1292.664, 17.96442
1293.146, 18.16105
1293.629, 18.02191
1294.111, 17.81260
1294.593, 17.69336
1295.075, 17.65196
1295.557, 17.69036
1296.039, 17.79692
1296.521, 17.83966
1297.003, 17.80441
1297.485, 17.75351
1297.968, 17.60674
1298.450, 17.61872
1298.932, 17.97860
1299.414, 18.39157
1299.896, 18.35819
1300.378, 18.01374
1300.860, 17.72396
1301.342, 17.52881
1301.824, 17.43430
1302.307, 17.43655
##END=



