##NAMES=Malachite
##RRUFFID=R050508
##IDEAL CHEMISTRY=Cu^2+^_2_CO_3_(OH)_2_
##LOCALITY=Kambova, Kantanga, Zaire
##OWNER=RRUFF
##SOURCE=University of Arizona Mineral Museum
##DESCRIPTION=Green short bladed crystals
##STATUS=The identification of this mineral has been confirmed by X-ray diffraction and chemical analysis
##URL=rruff.info/R050508
##MEASURED CHEMISTRY=Cu_2.00_(CO_3_)(OH)_2_
91.00781, 9.473571
91.48993, 9.220455
91.97205, 9.119535
92.45416, 9.302458
92.93628, 9.631681
93.41840, 9.783032
93.90051, 9.652658
94.38263, 9.416794
94.86475, 9.341044
95.34686, 9.424837
95.82898, 9.612597
96.31110, 9.903905
96.79321, 10.28768
97.27533, 10.61692
97.75745, 10.77751
98.23956, 10.86394
98.72168, 11.31486
99.20380, 12.18873
99.68591, 13.22884
100.1680, 14.11030
100.6501, 14.74863
101.1323, 15.61008
101.6144, 16.88269
102.0965, 18.60711
102.5786, 20.22729
103.0607, 21.68967
103.5428, 23.10715
104.0250, 24.67513
104.5071, 26.30806
104.9892, 28.21429
105.4713, 30.48316
105.9534, 33.26310
106.4355, 36.06044
106.9177, 38.76675
107.3998, 41.48299
107.8819, 44.64033
108.3640, 48.61514
108.8461, 52.69239
109.3282, 56.59624
109.8104, 59.98337
110.2925, 63.50196
110.7746, 67.15809
111.2567, 70.93394
111.7388, 74.84773
112.2209, 79.05342
112.7031, 83.27090
113.1852, 87.35497
113.6673, 90.46307
114.1494, 94.16998
114.6315, 98.92226
115.1136, 104.7884
115.5958, 111.2757
116.0779, 118.1063
116.5600, 125.5182
117.0421, 133.7419
117.5242, 143.8344
118.0063, 154.1269
118.4885, 164.2944
118.9706, 174.5840
119.4527, 183.1493
119.9348, 188.5913
120.4169, 191.5960
120.8990, 193.4853
121.3812, 193.2361
121.8633, 192.9254
122.3454, 194.4753
122.8275, 198.2669
123.3096, 203.7279
123.7917, 210.7649
124.2739, 219.1876
124.7560, 228.2983
125.2381, 237.3349
125.7202, 246.8548
126.2023, 257.6931
126.6844, 270.2945
127.1666, 284.0744
127.6487, 298.4122
128.1308, 313.3590
128.6129, 328.5742
129.0950, 345.3443
129.5771, 362.6714
130.0593, 377.1642
130.5414, 388.4028
131.0235, 395.8338
131.5056, 395.8767
131.9877, 386.5164
132.4698, 373.9012
132.9520, 365.7289
133.4341, 361.8354
133.9162, 360.8659
134.3983, 362.4601
134.8804, 366.5194
135.3625, 372.9403
135.8447, 381.8187
136.3268, 392.7088
136.8089, 404.9862
137.2910, 418.5276
137.7731, 434.2869
138.2552, 452.4338
138.7374, 472.6362
139.2195, 496.9399
139.7016, 525.8433
140.1837, 558.5441
140.6658, 593.2885
141.1479, 631.1853
141.6301, 669.2190
142.1122, 709.0944
142.5943, 759.2851
143.0764, 788.9477
143.5585, 796.6368
144.0406, 784.1774
144.5228, 755.3635
145.0049, 699.2854
145.4870, 640.9340
145.9691, 594.0622
146.4512, 558.5790
146.9333, 533.6035
147.4155, 520.5529
147.8976, 518.5118
148.3797, 520.4059
148.8618, 527.3312
149.3439, 537.3679
149.8260, 549.2333
150.3082, 565.4296
150.7903, 580.7836
151.2724, 596.0092
151.7545, 611.1262
152.2366, 622.3622
152.7188, 631.4313
153.2009, 635.7667
153.6830, 633.1719
154.1651, 620.0222
154.6472, 603.3278
155.1293, 583.5854
155.6115, 560.2338
156.0936, 538.5784
156.5757, 518.4992
157.0578, 500.8039
157.5399, 486.6768
158.0220, 476.7731
158.5042, 470.0444
158.9863, 466.3459
159.4684, 465.7401
159.9505, 467.4253
160.4326, 471.2160
160.9147, 477.1350
161.3969, 485.2206
161.8790, 496.4551
162.3611, 509.1481
162.8432, 522.4421
163.3253, 535.9785
163.8074, 550.4310
164.2896, 566.0571
164.7717, 582.7853
165.2538, 600.4813
165.7359, 619.7070
166.2180, 639.4991
166.7001, 659.7200
167.1823, 681.3129
167.6644, 700.5939
168.1465, 716.4866
168.6286, 728.4476
169.1107, 734.9209
169.5928, 731.7928
170.0750, 724.1133
170.5571, 716.5453
171.0392, 708.8730
171.5213, 703.7758
172.0034, 703.4238
172.4855, 707.6080
172.9677, 715.3302
173.4498, 726.6379
173.9319, 740.9380
174.4140, 757.5318
174.8961, 777.0662
175.3782, 797.8907
175.8604, 819.3402
176.3425, 841.3711
176.8246, 862.6673
177.3067, 885.2941
177.7888, 906.6600
178.2709, 921.3395
178.7531, 928.7101
179.2352, 928.0842
179.7173, 918.6075
180.1994, 900.3367
180.6815, 873.5247
181.1636, 836.3558
181.6458, 790.4418
182.1279, 741.6071
182.6100, 688.9462
183.0921, 635.4702
183.5742, 585.2190
184.0563, 539.0123
184.5385, 496.6134
185.0206, 458.7458
185.5027, 425.0312
185.9848, 395.6133
186.4669, 371.0773
186.9490, 350.6602
187.4312, 331.0583
187.9133, 312.4477
188.3954, 295.7368
188.8775, 282.7561
189.3596, 273.3181
189.8417, 265.1861
190.3239, 257.8085
190.8060, 251.1120
191.2881, 245.0080
191.7702, 239.5088
192.2523, 234.7919
192.7344, 231.2045
193.2166, 228.7644
193.6987, 226.7884
194.1808, 224.9416
194.6629, 223.2693
195.1450, 222.2244
195.6271, 221.8602
196.1093, 221.9820
196.5914, 222.3168
197.0735, 222.8559
197.5556, 223.6943
198.0377, 224.8007
198.5198, 226.1812
199.0020, 228.1425
199.4841, 230.7416
199.9662, 233.8226
200.4483, 237.1950
200.9304, 240.8521
201.4125, 244.8252
201.8947, 249.0960
202.3768, 253.6510
202.8589, 258.7229
203.3410, 264.4510
203.8231, 270.5392
204.3052, 276.3399
204.7874, 281.8286
205.2695, 287.2743
205.7516, 292.9355
206.2337, 298.9467
206.7158, 304.1349
207.1979, 308.1126
207.6801, 311.6524
208.1622, 316.3459
208.6443, 322.4828
209.1264, 328.9457
209.6085, 335.2918
210.0906, 341.5357
210.5728, 347.5922
211.0549, 353.3000
211.5370, 358.8999
212.0191, 364.6981
212.5012, 370.5997
212.9833, 377.0473
213.4655, 384.3595
213.9476, 392.9546
214.4297, 400.9530
214.9118, 408.0380
215.3939, 414.6436
215.8760, 422.0563
216.3581, 430.3401
216.8403, 439.1709
217.3224, 448.4793
217.8045, 458.7611
218.2866, 468.2086
218.7687, 476.7448
219.2508, 484.3937
219.7330, 491.1751
220.2151, 497.6220
220.6972, 502.1798
221.1793, 504.3033
221.6614, 504.6070
222.1435, 500.7072
222.6257, 491.8042
223.1078, 478.9201
223.5899, 464.5651
224.0720, 448.6832
224.5541, 431.3459
225.0362, 411.8761
225.5184, 388.9563
226.0005, 367.5487
226.4826, 347.6169
226.9647, 329.2360
227.4468, 311.9642
227.9289, 295.7223
228.4111, 280.9171
228.8932, 267.8449
229.3753, 257.0707
229.8574, 246.7103
230.3395, 236.5178
230.8216, 226.8639
231.3038, 218.6068
231.7859, 211.9468
232.2680, 206.4776
232.7501, 202.1257
233.2322, 199.3463
233.7143, 196.6566
234.1965, 193.9321
234.6786, 191.2982
235.1607, 189.0570
235.6428, 187.1735
236.1249, 185.7270
236.6070, 184.7425
237.0892, 184.1859
237.5713, 184.1719
238.0534, 184.7847
238.5355, 185.9151
239.0176, 187.2904
239.4997, 188.9482
239.9819, 190.8267
240.4640, 192.8403
240.9461, 194.8038
241.4282, 197.3665
241.9103, 200.5853
242.3924, 204.3847
242.8746, 208.6624
243.3567, 213.8124
243.8388, 218.8409
244.3209, 223.1809
244.8030, 226.0018
245.2851, 230.2997
245.7673, 236.6350
246.2494, 244.2207
246.7315, 251.2812
247.2136, 257.1568
247.6957, 263.5603
248.1778, 271.2715
248.6600, 280.6850
249.1421, 290.0043
249.6242, 298.9146
250.1063, 307.9561
250.5884, 318.2472
251.0705, 330.2803
251.5527, 342.7693
252.0348, 355.0394
252.5169, 366.8954
252.9990, 379.6805
253.4811, 393.8318
253.9632, 408.7696
254.4454, 423.1959
254.9275, 436.8087
255.4096, 450.6751
255.8917, 465.4758
256.3738, 481.6428
256.8560, 496.2724
257.3381, 509.1137
257.8202, 520.7405
258.3023, 532.2355
258.7844, 543.4762
259.2665, 554.6113
259.7487, 565.8603
260.2308, 577.3201
260.7129, 587.5883
261.1950, 595.7414
261.6771, 603.6545
262.1592, 613.8271
262.6414, 626.4300
263.1235, 640.6842
263.6056, 656.5861
264.0877, 674.4188
264.5698, 691.8226
265.0519, 708.9170
265.5341, 725.3551
266.0162, 741.4332
266.4983, 757.9983
266.9804, 771.2904
267.4625, 780.7473
267.9446, 786.2943
268.4268, 787.5145
268.9089, 784.7914
269.3910, 777.0628
269.8731, 762.6998
270.3552, 741.0560
270.8373, 715.5276
271.3195, 685.8228
271.8016, 652.4078
272.2837, 618.8627
272.7658, 584.4518
273.2479, 550.6091
273.7300, 517.7375
274.2122, 485.7296
274.6943, 456.0598
275.1764, 429.3886
275.6585, 405.4647
276.1406, 382.9697
276.6227, 361.8463
277.1049, 342.3420
277.5870, 324.7510
278.0691, 309.1237
278.5512, 294.7994
279.0333, 281.6289
279.5154, 269.7075
279.9976, 259.5504
280.4797, 251.2825
280.9618, 244.0099
281.4439, 237.0499
281.9260, 230.4326
282.4081, 224.1415
282.8903, 218.2788
283.3724, 212.6230
283.8545, 206.5592
284.3366, 200.0389
284.8187, 193.5971
285.3008, 187.5473
285.7830, 181.8511
286.2651, 176.7603
286.7472, 172.3662
287.2293, 168.3758
287.7114, 164.1738
288.1935, 159.7643
288.6757, 155.6675
289.1578, 152.3051
289.6399, 149.5474
290.1220, 146.8848
290.6041, 144.2396
291.0862, 141.7842
291.5684, 139.8712
292.0505, 138.4434
292.5326, 137.0475
293.0147, 135.3128
293.4968, 133.4293
293.9789, 131.9917
294.4611, 131.0838
294.9432, 130.2900
295.4253, 129.1283
295.9074, 127.6600
296.3895, 126.1803
296.8716, 124.8270
297.3538, 123.5311
297.8359, 122.2128
298.3180, 120.8700
298.8001, 119.3180
299.2822, 117.1608
299.7643, 114.6144
300.2465, 112.2803
300.7286, 110.4931
301.2107, 108.9552
301.6928, 107.2063
302.1749, 105.2776
302.6570, 103.4093
303.1392, 101.7385
303.6213, 100.2780
304.1034, 99.10070
304.5855, 98.29552
305.0676, 97.68156
305.5497, 97.12183
306.0319, 96.60207
306.5140, 96.01841
306.9961, 95.08275
307.4782, 94.13350
307.9603, 93.63615
308.4424, 93.95767
308.9246, 94.26910
309.4067, 93.72988
309.8888, 92.62413
310.3709, 91.75415
310.8530, 91.72032
311.3351, 92.02650
311.8173, 92.27872
312.2994, 92.42960
312.7815, 92.48347
313.2636, 92.34477
313.7457, 92.11914
314.2278, 91.99599
314.7100, 92.02554
315.1921, 92.20810
315.6742, 92.57420
316.1563, 93.14732
316.6384, 93.76830
317.1205, 94.32351
317.6027, 94.89165
318.0848, 95.56992
318.5669, 96.62830
319.0490, 97.58849
319.5311, 98.12450
320.0132, 98.19832
320.4954, 98.56103
320.9775, 99.72381
321.4596, 101.1173
321.9417, 102.2416
322.4238, 102.4596
322.9059, 102.9546
323.3881, 104.1864
323.8702, 106.0721
324.3523, 107.7005
324.8344, 108.6186
325.3165, 109.4528
325.7986, 110.5824
326.2808, 112.0151
326.7629, 113.7707
327.2450, 116.0575
327.7271, 118.7230
328.2092, 121.1715
328.6913, 123.3006
329.1735, 125.2940
329.6556, 127.2290
330.1377, 128.9350
330.6198, 130.9098
331.1019, 133.2686
331.5840, 135.8535
332.0662, 138.4348
332.5483, 141.1234
333.0304, 143.6531
333.5125, 145.7483
333.9946, 147.2029
334.4767, 149.4800
334.9589, 152.9514
335.4410, 156.8489
335.9231, 160.2341
336.4052, 163.0094
336.8873, 165.4311
337.3694, 167.4043
337.8516, 168.9644
338.3336, 170.9350
338.8158, 173.4575
339.2979, 176.1073
339.7800, 178.5042
340.2621, 180.5724
340.7442, 182.7708
341.2263, 185.0400
341.7085, 187.5311
342.1906, 190.8231
342.6727, 195.0847
343.1548, 199.2727
343.6369, 202.5552
344.1190, 204.9777
344.6012, 207.8188
345.0833, 211.2805
345.5654, 215.0388
346.0475, 218.5735
346.5296, 221.8746
347.0117, 225.0582
347.4939, 228.3853
347.9760, 231.6207
348.4581, 234.0426
348.9402, 235.5705
349.4223, 236.4803
349.9044, 237.1862
350.3866, 237.5790
350.8687, 237.3125
351.3508, 236.4542
351.8329, 234.7562
352.3150, 231.6280
352.7971, 227.0775
353.2793, 221.9966
353.7614, 216.9907
354.2435, 211.8522
354.7256, 206.1763
355.2077, 199.5814
355.6898, 192.7683
356.1720, 186.2693
356.6541, 180.0127
357.1362, 173.7437
357.6183, 166.9964
358.1004, 160.2684
358.5826, 153.9954
359.0647, 148.2730
359.5468, 142.9735
360.0289, 138.2260
360.5110, 133.8415
360.9931, 129.4417
361.4753, 124.4425
361.9574, 119.7942
362.4395, 116.1309
362.9216, 113.6596
363.4037, 111.1919
363.8858, 108.2988
364.3680, 105.2628
364.8501, 102.3693
365.3322, 99.62296
365.8143, 97.12233
366.2964, 94.93783
366.7785, 93.05694
367.2607, 91.29241
367.7428, 89.58872
368.2249, 88.00603
368.7070, 86.57812
369.1891, 85.35768
369.6712, 84.23939
370.1534, 83.30006
370.6355, 82.45736
371.1176, 81.42915
371.5997, 79.92724
372.0818, 78.60883
372.5639, 77.80907
373.0461, 77.81522
373.5282, 77.31802
374.0103, 76.00792
374.4924, 74.47012
374.9745, 73.71101
375.4566, 74.04157
375.9388, 74.14767
376.4209, 73.57083
376.9030, 72.35655
377.3851, 71.36796
377.8672, 70.60838
378.3493, 70.02466
378.8315, 69.60088
379.3136, 69.33641
379.7957, 69.13668
380.2778, 68.98741
380.7599, 68.88802
381.2420, 68.81654
381.7242, 68.77398
382.2063, 68.81825
382.6884, 69.08115
383.1705, 69.47432
383.6526, 69.66855
384.1347, 69.60885
384.6169, 69.43829
385.0990, 69.23666
385.5811, 69.05019
386.0632, 69.04299
386.5453, 69.49860
387.0274, 70.08305
387.5096, 70.28618
387.9917, 70.10594
388.4738, 69.92507
388.9559, 70.04082
389.4380, 70.33665
389.9201, 70.66943
390.4023, 71.06486
390.8844, 71.40087
391.3665, 71.54668
391.8486, 71.55193
392.3307, 71.59225
392.8128, 71.56458
393.2950, 71.72411
393.7771, 72.32046
394.2592, 73.61136
394.7413, 74.74090
395.2234, 75.26292
395.7055, 75.47771
396.1877, 75.85011
396.6698, 76.64185
397.1519, 77.45295
397.6340, 78.08401
398.1161, 78.47351
398.5982, 79.20081
399.0804, 80.50230
399.5625, 82.03777
400.0446, 83.57192
400.5267, 85.20218
401.0088, 86.68925
401.4909, 87.88269
401.9731, 88.90301
402.4552, 90.18629
402.9373, 91.65620
403.4194, 93.51566
403.9015, 95.95097
404.3836, 99.15623
404.8658, 102.1323
405.3479, 104.7155
405.8300, 107.2487
406.3121, 110.2026
406.7942, 113.5606
407.2763, 117.4536
407.7585, 121.9781
408.2406, 127.0982
408.7227, 132.4606
409.2048, 138.0224
409.6869, 143.9551
410.1690, 150.4373
410.6512, 157.3847
411.1333, 164.6261
411.6154, 172.0340
412.0975, 179.9159
412.5796, 188.7865
413.0617, 198.6256
413.5439, 209.4431
414.0260, 221.6521
414.5081, 234.8217
414.9902, 248.1344
415.4723, 261.5658
415.9544, 275.5323
416.4366, 290.5362
416.9187, 306.1516
417.4008, 321.6742
417.8829, 336.8333
418.3650, 351.9663
418.8471, 367.2043
419.3293, 382.5320
419.8114, 398.7294
420.2935, 415.9577
420.7756, 434.2187
421.2577, 453.0822
421.7398, 472.7862
422.2220, 493.0994
422.7041, 514.4498
423.1862, 536.4490
423.6683, 558.4587
424.1504, 580.1865
424.6325, 602.5097
425.1147, 625.4159
425.5968, 649.2168
426.0789, 673.5361
426.5610, 699.3084
427.0431, 724.7685
427.5252, 748.3284
428.0074, 770.0341
428.4895, 789.7849
428.9716, 807.6370
429.4537, 823.2216
429.9358, 835.3616
430.4179, 844.3027
430.9001, 848.8834
431.3822, 848.8141
431.8643, 844.1198
432.3464, 833.2628
432.8285, 816.1393
433.3106, 793.2158
433.7928, 763.9454
434.2749, 728.7654
434.7570, 691.1641
435.2391, 651.4932
435.7212, 610.6417
436.2033, 569.1973
436.6855, 527.7435
437.1676, 488.4980
437.6497, 453.0882
438.1318, 421.0038
438.6139, 391.5457
439.0960, 364.6703
439.5782, 340.1429
440.0603, 318.0491
440.5424, 298.0567
441.0245, 279.8727
441.5066, 263.1870
441.9887, 248.1760
442.4709, 235.3364
442.9530, 224.6055
443.4351, 214.3688
443.9172, 203.5817
444.3993, 193.3826
444.8814, 184.7801
445.3636, 178.9901
445.8457, 173.2705
446.3278, 167.0713
446.8099, 160.7130
447.2920, 154.8185
447.7741, 149.3347
448.2563, 144.3565
448.7384, 140.0884
449.2205, 136.5717
449.7026, 133.0993
450.1847, 129.7276
450.6668, 126.3827
451.1490, 122.8909
451.6311, 119.0256
452.1132, 115.9081
452.5953, 113.8291
453.0774, 112.4811
453.5595, 110.9694
454.0417, 109.2773
454.5238, 107.5143
455.0059, 105.7270
455.4880, 103.9157
455.9701, 101.9056
456.4522, 99.65163
456.9344, 97.52878
457.4165, 95.95252
457.8986, 94.82544
458.3807, 93.95036
458.8628, 93.41523
459.3449, 92.91740
459.8271, 92.08995
460.3092, 90.98184
460.7913, 89.79226
461.2734, 88.32627
461.7555, 87.02169
462.2376, 86.37392
462.7198, 86.63059
463.2019, 86.71844
463.6840, 85.87733
464.1661, 84.67459
464.6482, 83.79666
465.1303, 83.79626
465.6125, 83.74741
466.0946, 83.28990
466.5767, 82.48469
467.0588, 81.97649
467.5409, 82.10214
468.0230, 82.27722
468.5052, 82.20479
468.9873, 81.60886
469.4694, 81.49475
469.9515, 82.14158
470.4336, 83.02863
470.9157, 83.31640
471.3979, 82.71316
471.8800, 82.54575
472.3621, 83.33627
472.8442, 84.81129
473.3263, 85.59655
473.8084, 85.60582
474.2906, 85.59459
474.7727, 86.08340
475.2548, 87.01546
475.7369, 88.21220
476.2190, 89.74165
476.7011, 91.19956
477.1833, 92.01234
477.6654, 92.36327
478.1475, 92.75240
478.6296, 93.16335
479.1117, 93.86861
479.5938, 95.42504
480.0760, 97.69077
480.5581, 99.66042
481.0402, 100.4554
481.5223, 100.9179
482.0044, 101.7390
482.4865, 103.1302
482.9687, 104.6207
483.4508, 106.0584
483.9329, 107.5045
484.4150, 109.0247
484.8971, 110.8176
485.3792, 112.5040
485.8614, 114.1308
486.3435, 115.6746
486.8256, 116.6550
487.3077, 116.7467
487.7898, 116.6467
488.2719, 116.8214
488.7541, 117.6153
489.2362, 117.4570
489.7183, 115.9540
490.2004, 114.0045
490.6825, 113.0276
491.1646, 113.1261
491.6468, 113.1230
492.1289, 112.6446
492.6110, 111.8343
493.0931, 111.0216
493.5752, 110.2049
494.0573, 109.4936
494.5395, 108.9051
495.0216, 108.4822
495.5037, 108.3458
495.9858, 108.5465
496.4679, 108.8403
496.9500, 108.9180
497.4322, 108.9530
497.9143, 109.2319
498.3964, 109.8225
498.8785, 110.7291
499.3606, 112.1253
499.8427, 113.9137
500.3249, 115.5449
500.8070, 116.7835
501.2891, 117.8726
501.7712, 118.8522
502.2533, 119.5356
502.7354, 120.6511
503.2176, 122.4884
503.6997, 124.6557
504.1818, 126.8123
504.6639, 129.2154
505.1460, 131.0786
505.6281, 132.0060
506.1103, 132.3515
506.5924, 133.5786
507.0745, 135.9439
507.5566, 138.2776
508.0387, 139.9706
508.5208, 141.0486
509.0030, 142.0799
509.4851, 143.0988
509.9672, 143.8820
510.4493, 144.0081
510.9314, 143.6722
511.4135, 143.5664
511.8957, 143.9880
512.3778, 144.5016
512.8599, 144.5681
513.3420, 144.3037
513.8242, 144.0447
514.3063, 143.2503
514.7884, 143.0378
515.2705, 144.3980
515.7526, 147.3918
516.2347, 150.9546
516.7169, 154.8663
517.1990, 159.0576
517.6811, 163.4718
518.1632, 167.9747
518.6453, 172.8657
519.1274, 178.1420
519.6096, 183.8580
520.0917, 190.0501
520.5738, 196.7102
521.0559, 203.8167
521.5380, 211.4557
522.0201, 219.5948
522.5023, 227.5189
522.9844, 234.9809
523.4665, 243.0400
523.9486, 252.7301
524.4307, 263.9997
524.9128, 274.8937
525.3950, 285.0211
525.8771, 295.2233
526.3592, 306.7410
526.8413, 319.2189
527.3234, 331.8146
527.8055, 344.1276
528.2877, 356.2871
528.7698, 368.7550
529.2519, 381.3035
529.7340, 393.4621
530.2161, 405.0092
530.6982, 415.9870
531.1804, 427.0053
531.6625, 438.2525
532.1446, 447.5271
532.6267, 454.0396
533.1088, 458.1991
533.5909, 460.2848
534.0731, 460.9699
534.5552, 458.7939
535.0373, 453.5012
535.5194, 445.4022
536.0015, 434.7418
536.4836, 420.9539
536.9658, 405.8820
537.4479, 389.9445
537.9300, 373.2570
538.4121, 356.8941
538.8942, 340.9360
539.3763, 325.3007
539.8585, 309.6672
540.3406, 294.1996
540.8227, 279.9335
541.3048, 266.9230
541.7869, 254.9065
542.2690, 243.5637
542.7512, 232.9048
543.2333, 222.9568
543.7154, 213.8686
544.1975, 205.3828
544.6796, 197.3321
545.1617, 189.6694
545.6439, 182.5161
546.1260, 175.9134
546.6081, 169.8315
547.0902, 164.1856
547.5723, 158.9493
548.0544, 154.4816
548.5366, 151.2474
549.0187, 148.5374
549.5008, 145.6969
549.9829, 142.4121
550.4650, 139.5837
550.9471, 137.3887
551.4293, 135.6427
551.9114, 133.7721
552.3935, 131.6461
552.8756, 130.0383
553.3577, 129.3613
553.8398, 129.4404
554.3220, 129.5000
554.8041, 129.5383
555.2862, 129.6218
555.7683, 129.6237
556.2504, 129.7408
556.7325, 130.4834
557.2147, 132.0181
557.6968, 133.6232
558.1789, 134.5594
558.6610, 135.2115
559.1431, 136.1381
559.6252, 137.5443
560.1074, 139.2492
560.5895, 141.2813
561.0716, 143.5802
561.5537, 145.8997
562.0358, 148.5173
562.5179, 150.8636
563.0001, 152.8689
563.4822, 154.5925
563.9643, 155.2481
564.4464, 154.3392
564.9285, 153.0616
565.4106, 152.5552
565.8928, 153.1479
566.3749, 152.2221
566.8570, 149.3698
567.3391, 145.3792
567.8212, 141.3447
568.3033, 137.2053
568.7855, 132.7497
569.2676, 127.5976
569.7497, 122.3490
570.2318, 117.8005
570.7139, 113.9266
571.1960, 110.2348
571.6782, 106.6021
572.1603, 102.9759
572.6424, 99.19912
573.1245, 95.18086
573.6066, 91.79363
574.0887, 89.74860
574.5709, 88.20727
575.0530, 86.48085
575.5351, 83.96197
576.0172, 81.98959
576.4993, 80.71809
576.9814, 79.94329
577.4636, 79.38428
577.9457, 79.08070
578.4278, 78.90785
578.9099, 78.92052
579.3920, 79.01938
579.8741, 78.71120
580.3563, 77.95548
580.8384, 77.36211
581.3205, 77.36732
581.8026, 77.81228
582.2847, 78.16534
582.7668, 78.40412
583.2490, 78.92754
583.7311, 80.45132
584.2132, 82.31078
584.6953, 83.58608
585.1774, 83.76265
585.6595, 84.02573
586.1416, 85.10763
586.6237, 86.63589
587.1058, 88.06261
587.5880, 89.14247
588.0701, 90.23572
588.5522, 91.33395
589.0343, 92.48663
589.5164, 93.98508
589.9985, 96.10637
590.4807, 98.10743
590.9628, 99.64019
591.4449, 100.6917
591.9270, 101.9622
592.4091, 103.5034
592.8912, 105.0385
593.3734, 106.3278
593.8555, 107.4008
594.3376, 108.3497
594.8197, 109.1633
595.3018, 109.9441
595.7839, 111.1044
596.2661, 112.2789
596.7482, 112.7645
597.2303, 112.1786
597.7124, 110.9416
598.1945, 109.1523
598.6766, 106.8978
599.1588, 104.4325
599.6409, 102.0432
600.1230, 99.29018
600.6051, 95.76306
601.0872, 91.41311
601.5693, 87.67616
602.0515, 84.91024
602.5336, 82.31712
603.0157, 79.31808
603.4978, 75.76326
603.9799, 72.69651
604.4620, 70.20699
604.9442, 67.96739
605.4263, 65.52502
605.9084, 62.93190
606.3905, 60.70646
606.8726, 58.97506
607.3547, 57.56696
607.8369, 56.32152
608.3190, 55.21865
608.8011, 54.17127
609.2832, 53.13042
609.7653, 52.15215
610.2474, 51.26784
610.7296, 50.47084
611.2117, 49.76758
611.6938, 49.36488
612.1759, 48.87264
612.6580, 48.00989
613.1401, 46.58310
613.6223, 45.62564
614.1044, 45.34398
614.5865, 45.26561
615.0686, 44.98773
615.5507, 44.48461
616.0328, 44.04535
616.5150, 43.73750
616.9971, 43.41404
617.4792, 42.72986
617.9613, 41.79387
618.4434, 41.12498
618.9255, 41.01717
619.4077, 41.11333
619.8898, 41.08430
620.3719, 40.92850
620.8540, 40.64088
621.3361, 40.05309
621.8182, 39.47884
622.3004, 39.09184
622.7825, 38.90085
623.2646, 38.78361
623.7467, 38.89196
624.2288, 38.92132
624.7109, 38.68862
625.1931, 38.06227
625.6752, 37.61182
626.1573, 37.33426
626.6394, 37.22920
627.1215, 37.43111
627.6036, 37.94963
628.0858, 38.02649
628.5679, 37.44622
629.0500, 36.63633
629.5321, 36.17793
630.0142, 36.02242
630.4963, 36.03617
630.9785, 36.28368
631.4606, 36.55938
631.9427, 36.71471
632.4248, 36.75583
632.9069, 36.70133
633.3890, 36.50389
633.8712, 36.26327
634.3533, 36.01109
634.8354, 35.74803
635.3175, 35.49970
635.7996, 35.23430
636.2817, 35.01952
636.7639, 34.89224
637.2460, 34.86298
637.7281, 34.88264
638.2102, 34.96798
638.6923, 35.05303
639.1744, 35.04256
639.6566, 34.95719
640.1387, 34.93444
640.6208, 35.02169
641.1029, 35.11054
641.5850, 35.09212
642.0671, 34.98132
642.5493, 34.80700
643.0314, 34.46746
643.5135, 34.18090
643.9956, 34.12524
644.4777, 34.22276
644.9598, 34.22797
645.4420, 33.89600
645.9241, 33.66642
646.4062, 33.73750
646.8883, 34.08829
647.3704, 34.21802
647.8525, 34.05587
648.3347, 33.82579
648.8168, 33.62906
649.2989, 33.46502
649.7810, 33.45290
650.2631, 33.61483
650.7452, 33.74361
651.2274, 33.54015
651.7095, 33.17216
652.1916, 33.00582
652.6737, 33.15311
653.1558, 33.34181
653.6379, 33.32416
654.1201, 33.24506
654.6022, 33.29524
655.0843, 33.81817
655.5664, 34.14359
656.0485, 34.00625
656.5306, 33.57420
657.0128, 33.21838
657.4949, 32.87661
657.9770, 32.75217
658.4591, 33.02348
658.9412, 33.53296
659.4233, 33.47267
659.9055, 32.77953
660.3876, 32.21239
660.8697, 32.32872
661.3518, 32.84777
661.8339, 33.08814
662.3160, 33.05683
662.7982, 32.92655
663.2803, 32.66591
663.7624, 32.45621
664.2445, 32.54102
664.7266, 33.01849
665.2087, 33.35898
665.6909, 33.23274
666.1730, 32.98594
666.6551, 32.91290
667.1372, 33.16998
667.6193, 33.34655
668.1014, 33.43715
668.5836, 33.44893
669.0657, 33.36367
669.5478, 33.17006
670.0299, 33.03005
670.5120, 33.00014
670.9941, 32.99822
671.4763, 32.83700
671.9584, 32.56601
672.4405, 32.37495
672.9226, 32.41773
673.4047, 32.51864
673.8868, 32.52033
674.3690, 32.44953
674.8511, 32.40128
675.3332, 32.48995
675.8153, 32.53643
676.2974, 32.44097
676.7795, 32.19395
677.2617, 31.97573
677.7438, 31.71478
678.2259, 31.58908
678.7080, 31.73299
679.1901, 32.17004
679.6722, 32.53822
680.1544, 32.85403
680.6365, 33.03590
681.1186, 32.97857
681.6007, 32.73343
682.0828, 32.37704
682.5649, 31.88672
683.0471, 31.50417
683.5292, 31.52201
684.0113, 31.73324
684.4934, 31.89244
684.9755, 31.91252
685.4576, 31.91146
685.9398, 31.94998
686.4219, 31.97390
686.9040, 31.88974
687.3861, 31.60648
687.8682, 31.39312
688.3503, 31.27917
688.8325, 31.27033
689.3146, 31.45057
689.7967, 31.82394
690.2788, 32.07639
690.7609, 32.04757
691.2430, 31.84164
691.7252, 31.58059
692.2073, 31.28849
692.6894, 31.08507
693.1715, 31.14187
693.6536, 31.22961
694.1357, 31.13309
694.6179, 30.85618
695.1000, 30.72442
695.5821, 30.97921
696.0642, 31.25091
696.5463, 31.33012
697.0284, 31.15287
697.5106, 31.23711
697.9927, 31.66900
698.4748, 32.16270
698.9569, 32.46170
699.4390, 32.59564
699.9211, 32.78008
700.4033, 33.02565
700.8854, 33.36404
701.3675, 33.86953
701.8496, 34.47700
702.3317, 35.08665
702.8138, 35.66499
703.2960, 36.25389
703.7781, 36.96218
704.2602, 37.65788
704.7423, 38.17931
705.2244, 38.31502
705.7065, 38.50599
706.1887, 38.75611
706.6708, 39.08995
707.1529, 39.60803
707.6350, 40.35697
708.1171, 40.99142
708.5992, 41.37207
709.0814, 41.64748
709.5635, 42.06643
710.0456, 42.64789
710.5277, 43.46674
711.0098, 44.77113
711.4919, 46.15961
711.9741, 47.21859
712.4562, 48.03373
712.9383, 48.99202
713.4204, 50.26524
713.9025, 51.68439
714.3846, 53.25694
714.8668, 54.97847
715.3489, 56.51614
715.8310, 57.87336
716.3131, 59.06593
716.7952, 60.12451
717.2773, 61.03712
717.7595, 61.86869
718.2416, 62.63873
718.7237, 62.88760
719.2058, 62.08425
719.6879, 60.57837
720.1700, 58.89436
720.6522, 57.06844
721.1343, 55.12518
721.6164, 52.94263
722.0985, 50.71973
722.5806, 48.54260
723.0627, 46.35688
723.5449, 44.43305
724.0270, 42.78054
724.5091, 41.36407
724.9912, 40.15764
725.4733, 39.15545
725.9554, 38.34267
726.4376, 37.74417
726.9197, 37.24086
727.4018, 36.64129
727.8839, 36.00788
728.3660, 35.54954
728.8481, 35.35114
729.3303, 35.25575
729.8124, 35.12913
730.2945, 35.01762
730.7766, 34.99338
731.2587, 35.25982
731.7408, 35.40224
732.2230, 35.18777
732.7051, 34.82302
733.1872, 34.68941
733.6693, 34.83274
734.1514, 35.08641
734.6335, 35.44082
735.1157, 35.85473
735.5978, 36.19706
736.0799, 36.48380
736.5620, 36.84998
737.0441, 37.40477
737.5262, 38.03395
738.0084, 38.63617
738.4905, 39.21150
738.9726, 39.75982
739.4547, 40.27734
739.9368, 40.77122
740.4189, 41.14295
740.9011, 41.42997
741.3832, 42.11241
741.8653, 43.48736
742.3474, 44.71677
742.8295, 45.32225
743.3116, 45.43071
743.7938, 46.04356
744.2759, 47.16607
744.7580, 48.61162
745.2401, 50.51317
745.7222, 52.52232
746.2043, 54.13421
746.6865, 55.33789
747.1686, 56.28837
747.6507, 56.99388
748.1328, 57.55305
748.6149, 58.13416
749.0970, 58.87209
749.5792, 58.90480
750.0613, 58.13817
750.5434, 56.77184
751.0255, 54.74498
751.5076, 51.98607
751.9897, 49.63560
752.4719, 47.73055
752.9540, 46.00252
753.4361, 44.03805
753.9182, 42.05909
754.4003, 40.53997
754.8824, 39.60607
755.3646, 38.72297
755.8467, 37.26582
756.3288, 35.85273
756.8109, 35.14808
757.2930, 35.73794
757.7751, 36.00571
758.2573, 35.69692
758.7394, 35.19164
759.2215, 34.86927
759.7036, 34.77275
760.1857, 34.47738
760.6678, 33.87637
761.1500, 33.32325
761.6321, 33.40519
762.1142, 33.88781
762.5963, 34.18068
763.0784, 34.08269
763.5605, 33.93007
764.0427, 33.95601
764.5248, 34.06763
765.0069, 34.14857
765.4890, 33.87957
765.9711, 33.99839
766.4532, 34.88384
766.9354, 35.94827
767.4175, 36.26217
767.8996, 35.67947
768.3817, 35.26360
768.8638, 35.19281
769.3459, 35.37023
769.8281, 35.83546
770.3102, 36.43731
770.7923, 36.69903
771.2744, 36.22448
771.7565, 35.72799
772.2386, 35.77905
772.7208, 36.12561
773.2029, 36.32887
773.6850, 36.20473
774.1671, 36.03233
774.6492, 35.87914
775.1313, 35.68962
775.6135, 35.30761
776.0956, 34.70006
776.5777, 34.16570
777.0598, 33.80498
777.5419, 33.52739
778.0240, 33.20771
778.5062, 32.83284
778.9883, 32.35778
779.4704, 31.58257
779.9525, 30.89064
780.4346, 30.63668
780.9167, 30.64612
781.3989, 30.47885
781.8810, 29.81856
782.3631, 29.25839
782.8452, 28.96030
783.3273, 28.81724
783.8094, 28.46397
784.2916, 27.86635
784.7737, 27.40014
785.2558, 27.22533
785.7379, 27.22273
786.2200, 27.21091
786.7021, 27.18843
787.1843, 27.15128
787.6664, 27.17244
788.1485, 27.10550
788.6306, 26.80432
789.1127, 26.33483
789.5948, 25.95844
790.0770, 25.75025
790.5591, 25.55285
791.0412, 25.29930
791.5233, 25.03934
792.0054, 24.97049
792.4875, 25.09623
792.9697, 25.26873
793.4518, 25.49085
793.9339, 25.66123
794.4160, 25.55271
794.8981, 25.24012
795.3802, 24.97280
795.8624, 24.92496
796.3445, 24.89459
796.8266, 24.80244
797.3087, 24.64956
797.7908, 24.44469
798.2729, 24.08630
798.7551, 23.88935
799.2372, 24.02344
799.7193, 24.35120
800.2014, 24.29428
800.6835, 23.88710
801.1656, 23.60751
801.6478, 23.81200
802.1299, 24.18769
802.6120, 24.35152
803.0941, 24.37280
803.5762, 24.47715
804.0583, 24.93996
804.5405, 25.31073
805.0226, 25.32151
805.5047, 25.08407
805.9868, 25.05952
806.4689, 25.35015
806.9510, 25.52397
807.4332, 25.36658
807.9153, 25.03831
808.3974, 25.02023
808.8795, 25.26841
809.3616, 25.53253
809.8438, 25.61591
810.3259, 25.71428
810.8080, 26.05813
811.2901, 26.55748
811.7722, 26.92519
812.2543, 26.86606
812.7365, 26.92303
813.2186, 27.23861
813.7007, 27.76679
814.1828, 28.32949
814.6649, 28.92149
815.1470, 29.60962
815.6292, 30.42358
816.1113, 31.33146
816.5934, 32.53275
817.0755, 33.81942
817.5576, 34.48724
818.0397, 34.20696
818.5219, 33.21662
819.0040, 31.12311
819.4861, 28.36029
819.9682, 26.37132
820.4503, 25.44312
820.9324, 24.89770
821.4146, 24.72909
821.8967, 24.76586
822.3788, 24.52490
822.8609, 24.03205
823.3430, 23.65605
823.8251, 23.55885
824.3073, 23.60952
824.7894, 23.76846
825.2715, 23.94290
825.7536, 23.93852
826.2357, 23.48533
826.7178, 23.06815
827.2000, 22.83057
827.6821, 22.72014
828.1642, 22.65155
828.6463, 22.61536
829.1284, 22.66769
829.6105, 22.85568
830.0927, 23.07697
830.5748, 23.17109
831.0569, 23.14412
831.5390, 23.00363
832.0211, 22.65003
832.5032, 22.35300
832.9854, 22.30200
833.4675, 22.43193
833.9496, 22.64757
834.4317, 23.18560
834.9138, 23.43737
835.3959, 23.23690
835.8781, 22.85282
836.3602, 22.67426
836.8423, 22.70337
837.3244, 22.85315
837.8065, 23.15552
838.2886, 23.40752
838.7708, 23.26830
839.2529, 22.94458
839.7350, 22.79004
840.2171, 23.01570
840.6992, 23.18526
841.1813, 23.04904
841.6635, 22.84920
842.1456, 22.85188
842.6277, 23.14714
843.1098, 23.36417
843.5919, 23.46900
844.0740, 23.53314
844.5562, 23.63067
845.0383, 23.75665
845.5204, 23.92056
846.0025, 24.14017
846.4846, 24.27752
846.9667, 24.14609
847.4489, 23.93649
847.9310, 23.83016
848.4131, 23.88942
848.8952, 23.96424
849.3773, 24.08752
849.8594, 24.17170
850.3416, 24.09309
850.8237, 23.86045
851.3058, 23.86451
851.7879, 24.12959
852.2700, 24.47326
852.7521, 24.81516
853.2343, 25.11381
853.7164, 25.32615
854.1985, 25.44577
854.6806, 25.47381
855.1627, 25.28439
855.6448, 25.12088
856.1270, 25.11865
856.6091, 25.28159
857.0912, 25.38971
857.5733, 25.43385
858.0554, 25.46829
858.5375, 25.53177
859.0197, 25.60830
859.5018, 25.68324
859.9839, 25.74717
860.4660, 25.74760
860.9481, 25.60900
861.4302, 25.44188
861.9124, 25.26786
862.3945, 25.10557
862.8766, 25.07568
863.3587, 25.24950
863.8408, 25.38543
864.3229, 25.36573
864.8051, 25.27283
865.2872, 25.42092
865.7693, 25.75625
866.2514, 25.95340
866.7335, 25.67458
867.2156, 25.36934
867.6978, 25.47651
868.1799, 25.81612
868.6620, 25.97814
869.1441, 25.75330
869.6262, 25.47411
870.1083, 25.09963
870.5905, 24.75581
871.0726, 24.76450
871.5547, 25.11359
872.0368, 25.32973
872.5189, 25.27369
873.0010, 25.10704
873.4832, 24.99698
873.9653, 24.90773
874.4474, 24.77700
874.9295, 24.52970
875.4116, 24.33830
875.8937, 24.25454
876.3759, 24.23715
876.8580, 24.27356
877.3401, 24.38979
877.8222, 24.42205
878.3043, 24.36637
878.7864, 24.19130
879.2686, 23.72467
879.7507, 23.15638
880.2328, 22.85247
880.7149, 22.88346
881.1970, 22.98951
881.6791, 23.15976
882.1613, 23.26746
882.6434, 23.17695
883.1255, 22.83610
883.6076, 22.74374
884.0897, 22.97964
884.5718, 23.20718
885.0540, 23.16561
885.5361, 22.93953
886.0182, 22.79589
886.5003, 22.72788
886.9824, 22.66889
887.4645, 22.67257
887.9467, 22.58842
888.4288, 22.20533
888.9109, 21.57950
889.3930, 21.30322
889.8751, 21.60546
890.3572, 21.79096
890.8394, 21.60662
891.3215, 21.18336
891.8036, 20.85114
892.2857, 20.60904
892.7678, 20.43846
893.2499, 20.37925
893.7321, 20.33435
894.2142, 20.16564
894.6963, 19.97080
895.1784, 19.94180
895.6605, 20.34941
896.1426, 20.56778
896.6248, 20.48035
897.1069, 20.25863
897.5890, 20.16324
898.0711, 20.17942
898.5532, 20.17234
899.0353, 20.11693
899.5175, 20.03569
899.9996, 19.85676
900.4817, 19.70908
900.9638, 19.79575
901.4459, 20.34194
901.9280, 20.54452
902.4102, 20.05889
902.8923, 19.53485
903.3744, 19.50173
903.8565, 19.97483
904.3386, 20.01099
904.8207, 19.59130
905.3029, 19.20112
905.7850, 19.39529
906.2671, 19.71237
906.7492, 19.53739
907.2313, 18.89182
907.7134, 18.49657
908.1956, 18.81965
908.6777, 19.14894
909.1598, 19.24576
909.6419, 19.15970
910.1240, 19.12288
910.6061, 19.13544
911.0883, 19.19620
911.5704, 19.37490
912.0525, 19.51666
912.5346, 19.31609
913.0167, 18.93602
913.4988, 18.72967
913.9810, 18.99372
914.4631, 19.22810
914.9452, 19.34767
915.4273, 19.37519
915.9094, 19.33914
916.3915, 19.24036
916.8737, 19.03303
917.3558, 18.67231
917.8379, 18.37820
918.3200, 18.43188
918.8021, 18.70103
919.2842, 19.03845
919.7664, 19.46375
920.2485, 19.71563
920.7306, 19.65414
921.2127, 19.43228
921.6948, 19.07195
922.1769, 18.54017
922.6591, 18.42587
923.1412, 18.77200
923.6233, 19.10494
924.1054, 19.01690
924.5875, 18.75930
925.0696, 18.65007
925.5518, 18.69291
926.0339, 18.84605
926.5160, 19.31546
926.9981, 19.63337
927.4802, 19.56649
927.9623, 19.25980
928.4445, 19.16872
928.9266, 19.31067
929.4087, 19.46145
929.8908, 19.57233
930.3729, 19.62763
930.8550, 19.56790
931.3372, 19.44706
931.8193, 19.36522
932.3014, 19.39579
932.7835, 19.39415
933.2656, 19.28579
933.7477, 19.16246
934.2299, 19.10129
934.7120, 19.10496
935.1941, 19.16396
935.6762, 19.28383
936.1583, 19.40499
936.6404, 19.47109
937.1226, 19.50443
937.6047, 19.51219
938.0868, 19.49618
938.5689, 19.54148
939.0510, 19.79618
939.5331, 19.98384
940.0153, 19.96936
940.4974, 19.79012
940.9795, 19.71148
941.4616, 19.73398
941.9437, 19.77489
942.4258, 19.81819
942.9080, 19.83513
943.3901, 19.76530
943.8722, 19.64484
944.3543, 19.55112
944.8364, 19.51848
945.3185, 19.50231
945.8007, 19.48957
946.2828, 19.49508
946.7649, 19.55759
947.2470, 19.67443
947.7291, 19.72736
948.2112, 19.69531
948.6934, 19.64010
949.1755, 19.60546
949.6576, 19.58780
950.1397, 19.61360
950.6218, 19.71649
951.1039, 19.64337
951.5861, 19.17288
952.0682, 18.80403
952.5503, 18.83339
953.0324, 19.18799
953.5145, 19.34660
953.9966, 19.32549
954.4788, 19.33080
954.9609, 19.54504
955.4430, 19.77487
955.9251, 19.84445
956.4072, 19.80831
956.8893, 19.81588
957.3715, 19.92912
957.8536, 20.01265
958.3357, 20.02936
958.8178, 20.03811
959.2999, 20.17753
959.7820, 20.40138
960.2642, 20.47395
960.7463, 20.32593
961.2284, 20.17391
961.7105, 20.17584
962.1926, 20.24309
962.6747, 20.29646
963.1569, 20.31932
963.6390, 20.37987
964.1211, 20.48543
964.6032, 20.61019
965.0853, 20.73553
965.5674, 20.86685
966.0496, 21.02239
966.5317, 21.19701
967.0138, 21.37249
967.4959, 21.52779
967.9780, 21.69251
968.4601, 21.96191
968.9423, 22.23074
969.4244, 22.23455
969.9065, 21.89843
970.3886, 21.59949
970.8707, 21.37844
971.3528, 21.27724
971.8350, 21.44942
972.3171, 21.75048
972.7992, 21.92562
973.2813, 21.92036
973.7634, 21.81802
974.2455, 21.46610
974.7277, 21.19562
975.2098, 21.24354
975.6919, 21.61537
976.1740, 21.85196
976.6561, 21.94735
977.1382, 22.03504
977.6204, 22.28352
978.1025, 22.50948
978.5846, 22.40721
979.0667, 22.09350
979.5488, 21.91426
980.0309, 22.04785
980.5131, 22.25345
980.9952, 22.56787
981.4773, 22.85624
981.9594, 22.81711
982.4415, 22.50406
982.9236, 22.39306
983.4058, 22.59706
983.8879, 22.83155
984.3700, 22.81626
984.8521, 22.74372
985.3342, 22.83683
985.8163, 23.19817
986.2985, 23.25795
986.7806, 22.82888
987.2627, 22.53131
987.7448, 22.83999
988.2269, 23.46298
988.7090, 23.38046
989.1912, 22.76373
989.6733, 22.32767
990.1554, 22.56438
990.6375, 22.92202
991.1196, 23.21646
991.6017, 23.43363
992.0839, 23.53868
992.5660, 23.49659
993.0481, 23.48880
993.5302, 23.52775
994.0123, 23.63755
994.4944, 24.00735
994.9766, 24.39452
995.4587, 24.30418
995.9408, 23.63369
996.4229, 23.24097
996.9050, 23.74761
997.3871, 24.23339
997.8693, 24.25793
998.3514, 23.92890
998.8335, 23.91793
999.3156, 24.20721
999.7977, 24.49176
1000.280, 24.63620
1000.762, 24.71597
1001.244, 24.74476
1001.726, 24.77263
1002.208, 24.88699
1002.690, 25.20528
1003.173, 25.44073
1003.655, 25.58663
1004.137, 25.64427
1004.619, 25.52842
1005.101, 25.32403
1005.583, 25.38295
1006.065, 25.71298
1006.547, 25.99842
1007.029, 25.94448
1007.512, 25.89350
1007.994, 26.09670
1008.476, 26.48408
1008.958, 26.73613
1009.440, 26.83914
1009.922, 26.87329
1010.404, 26.82410
1010.886, 26.80036
1011.369, 27.02578
1011.851, 27.36279
1012.333, 27.56364
1012.815, 27.47104
1013.297, 27.47792
1013.779, 27.67095
1014.261, 27.95993
1014.743, 28.32782
1015.225, 28.76706
1015.708, 29.06151
1016.190, 29.21469
1016.672, 29.28034
1017.154, 29.13678
1017.636, 29.06279
1018.118, 29.28850
1018.600, 29.75089
1019.082, 30.24883
1019.565, 30.84848
1020.047, 31.25324
1020.529, 31.37788
1021.011, 31.38566
1021.493, 31.39276
1021.975, 31.48094
1022.457, 31.86579
1022.939, 32.61367
1023.421, 33.37890
1023.904, 34.10405
1024.386, 34.70937
1024.868, 35.16163
1025.350, 35.47079
1025.832, 35.70625
1026.314, 35.86921
1026.796, 36.03011
1027.278, 36.12783
1027.760, 36.36477
1028.243, 37.06748
1028.725, 38.01177
1029.207, 38.82056
1029.689, 39.38339
1030.171, 39.84009
1030.653, 40.10601
1031.135, 40.45843
1031.617, 41.30043
1032.100, 42.42517
1032.582, 43.18878
1033.064, 43.60170
1033.546, 44.16045
1034.028, 45.28402
1034.510, 46.47034
1034.992, 47.52934
1035.474, 48.46204
1035.957, 49.12304
1036.439, 49.48582
1036.921, 50.18151
1037.403, 51.37921
1037.885, 52.90626
1038.367, 54.77636
1038.849, 56.75227
1039.331, 58.39695
1039.813, 59.45924
1040.296, 61.13602
1040.778, 63.73088
1041.260, 66.41357
1041.742, 68.56065
1042.224, 70.48634
1042.706, 73.42588
1043.188, 77.07137
1043.670, 80.39333
1044.152, 82.30640
1044.635, 84.42406
1045.117, 87.32500
1045.599, 90.83525
1046.081, 94.82028
1046.563, 99.42226
1047.045, 103.6444
1047.527, 107.3855
1048.009, 111.2486
1048.492, 115.7951
1048.974, 120.6667
1049.456, 125.4147
1049.938, 130.0810
1050.420, 135.2214
1050.902, 141.4427
1051.384, 147.1555
1051.866, 151.8050
1052.349, 156.0137
1052.831, 161.1787
1053.313, 166.8700
1053.795, 171.9144
1054.277, 175.9294
1054.759, 179.4931
1055.241, 182.6984
1055.723, 185.6692
1056.205, 188.6572
1056.688, 191.6324
1057.170, 193.3852
1057.652, 193.9163
1058.134, 193.7136
1058.616, 192.7079
1059.098, 191.4505
1059.580, 190.5235
1060.062, 189.6974
1060.544, 188.5194
1061.027, 186.6855
1061.509, 184.9624
1061.991, 183.3435
1062.473, 181.9506
1062.955, 180.9842
1063.437, 180.3111
1063.919, 179.7788
1064.401, 179.3270
1064.884, 178.5422
1065.366, 176.9258
1065.848, 175.3164
1066.330, 173.9013
1066.812, 172.7278
1067.294, 172.0033
1067.776, 171.6898
1068.258, 171.3106
1068.740, 170.7574
1069.223, 170.2061
1069.705, 169.8642
1070.187, 169.5319
1070.669, 169.0915
1071.151, 168.5420
1071.633, 167.4438
1072.115, 165.5872
1072.597, 164.2061
1073.079, 164.1311
1073.562, 164.4475
1074.044, 163.6501
1074.526, 162.2416
1075.008, 161.1330
1075.490, 160.6064
1075.972, 160.4350
1076.454, 160.7586
1076.936, 161.1248
1077.419, 161.1369
1077.901, 160.8817
1078.383, 160.7225
1078.865, 160.6695
1079.347, 160.7583
1079.829, 161.2682
1080.311, 161.6355
1080.793, 161.3824
1081.275, 160.9220
1081.758, 160.8793
1082.240, 161.2628
1082.722, 161.8389
1083.204, 162.5583
1083.686, 163.6917
1084.168, 165.9798
1084.650, 168.4493
1085.132, 169.9743
1085.615, 170.5643
1086.097, 172.1190
1086.579, 175.0618
1087.061, 177.7724
1087.543, 179.6559
1088.025, 181.3152
1088.507, 183.8478
1088.989, 186.7626
1089.471, 189.0670
1089.953, 190.2550
1090.436, 191.9480
1090.918, 194.8824
1091.400, 197.8773
1091.882, 200.3455
1092.364, 202.3975
1092.846, 204.6251
1093.328, 206.9205
1093.810, 208.8769
1094.293, 210.4150
1094.775, 211.4129
1095.257, 211.5709
1095.739, 211.3071
1096.221, 211.1071
1096.703, 211.0170
1097.185, 210.7521
1097.667, 210.3302
1098.150, 208.9298
1098.632, 205.4535
1099.114, 201.1836
1099.596, 197.3343
1100.078, 193.5764
1100.560, 188.6899
1101.042, 182.3316
1101.524, 175.9571
1102.006, 169.7399
1102.489, 163.4635
1102.971, 156.5717
1103.453, 149.3853
1103.935, 142.4941
1104.417, 135.8916
1104.899, 129.3470
1105.381, 122.7201
1105.863, 116.0983
1106.345, 109.3592
1106.828, 102.8129
1107.310, 97.38438
1107.792, 92.80089
1108.274, 88.38448
1108.756, 83.89031
1109.238, 79.72993
1109.720, 76.24606
1110.202, 73.08899
1110.685, 70.20507
1111.167, 67.50297
1111.649, 64.34231
1112.131, 60.80652
1112.613, 57.57951
1113.095, 55.02177
1113.577, 52.86932
1114.059, 51.11539
1114.542, 49.61424
1115.024, 48.21460
1115.506, 46.93467
1115.988, 45.54073
1116.470, 44.02254
1116.952, 42.49220
1117.434, 40.92782
1117.916, 39.46972
1118.398, 38.29515
1118.880, 37.34533
1119.363, 36.48702
1119.845, 35.69867
1120.327, 34.98316
1120.809, 34.36878
1121.291, 33.75901
1121.773, 33.04068
1122.255, 32.27155
1122.737, 31.52633
1123.220, 30.81917
1123.702, 30.19926
1124.184, 29.76230
1124.666, 29.32343
1125.148, 28.85544
1125.630, 28.36560
1126.112, 27.86383
1126.594, 27.35014
1127.077, 26.80894
1127.559, 26.23366
1128.041, 25.71081
1128.523, 25.23346
1129.005, 24.87891
1129.487, 24.72211
1129.969, 24.68153
1130.451, 24.46748
1130.933, 24.10909
1131.416, 23.85845
1131.898, 23.81481
1132.380, 23.74125
1132.862, 23.49336
1133.344, 23.13021
1133.826, 22.65010
1134.308, 22.07340
1134.790, 21.66031
1135.272, 21.40924
1135.755, 21.37716
1136.237, 21.74910
1136.719, 22.05252
1137.201, 21.70413
1137.683, 21.09365
1138.165, 20.73569
1138.647, 20.72775
1139.129, 20.71193
1139.612, 20.70359
1140.094, 20.58870
1140.576, 20.18574
1141.058, 19.73050
1141.540, 19.49054
1142.022, 19.43503
1142.504, 19.50824
1142.986, 19.90211
1143.469, 20.00265
1143.951, 19.73289
1144.433, 19.36263
1144.915, 19.08603
1145.397, 18.88523
1145.879, 18.75453
1146.361, 18.67318
1146.843, 18.56361
1147.325, 18.36630
1147.807, 18.18130
1148.290, 18.00499
1148.772, 17.87418
1149.254, 17.86889
1149.736, 17.93649
1150.218, 17.92893
1150.700, 17.84236
1151.182, 17.77421
1151.664, 17.83075
1152.147, 17.82615
1152.629, 17.70013
1153.111, 17.49849
1153.593, 17.25936
1154.075, 17.01705
1154.557, 16.95031
1155.039, 17.09992
1155.521, 17.15920
1156.004, 16.86091
1156.486, 16.53318
1156.968, 16.29679
1157.450, 16.16411
1157.932, 16.24133
1158.414, 16.48350
1158.896, 16.54383
1159.378, 16.30170
1159.860, 16.04659
1160.343, 15.96704
1160.825, 15.95067
1161.307, 15.92909
1161.789, 15.89744
1162.271, 15.83338
1162.753, 15.73587
1163.235, 15.56056
1163.717, 15.22557
1164.199, 14.97322
1164.682, 15.13600
1165.164, 15.38839
1165.646, 15.36942
1166.128, 15.05167
1166.610, 14.94389
1167.092, 15.05182
1167.574, 15.24413
1168.056, 15.57876
1168.539, 15.78786
1169.021, 15.44237
1169.503, 14.90982
1169.985, 14.75587
1170.467, 15.15749
1170.949, 15.17438
1171.431, 14.75988
1171.913, 14.38367
1172.396, 14.40071
1172.878, 14.56131
1173.360, 14.65309
1173.842, 14.68384
1174.324, 14.66136
1174.806, 14.55721
1175.288, 14.48015
1175.770, 14.42294
1176.252, 14.44510
1176.734, 14.72770
1177.217, 15.01625
1177.699, 14.88019
1178.181, 14.48701
1178.663, 14.36871
1179.145, 14.84927
1179.627, 14.92998
1180.109, 14.44945
1180.591, 13.93069
1181.074, 13.93640
1181.556, 14.18001
1182.038, 14.28988
1182.520, 14.27015
1183.002, 14.23789
1183.484, 14.23068
1183.966, 14.17241
1184.448, 14.04216
1184.931, 13.89580
1185.413, 13.79957
1185.895, 13.72640
1186.377, 13.60887
1186.859, 13.45729
1187.341, 13.40399
1187.823, 13.55496
1188.305, 13.62830
1188.787, 13.54433
1189.270, 13.43011
1189.752, 13.54640
1190.234, 13.71666
1190.716, 13.55100
1191.198, 13.02823
1191.680, 12.75413
1192.162, 13.00625
1192.644, 13.22720
1193.126, 13.28543
1193.609, 13.25492
1194.091, 13.18448
1194.573, 13.13763
1195.055, 13.29721
1195.537, 13.70752
1196.019, 13.90112
1196.501, 13.65162
1196.983, 13.39985
1197.466, 13.25498
1197.948, 13.20831
1198.430, 13.33933
1198.912, 13.52543
1199.394, 13.48558
1199.876, 13.12914
1200.358, 12.85068
1200.840, 12.71155
1201.323, 12.69746
1201.805, 12.84469
1202.287, 13.05725
1202.769, 13.13066
1203.251, 13.11773
1203.733, 13.13076
1204.215, 13.20337
1204.697, 13.27060
1205.179, 13.38356
1205.661, 13.36510
1206.144, 13.06260
1206.626, 12.66402
1207.108, 12.63230
1207.590, 12.83423
1208.072, 12.98583
1208.554, 12.99467
1209.036, 13.00692
1209.518, 13.07634
1210.001, 13.08670
1210.483, 12.93285
1210.965, 12.72295
1211.447, 12.74165
1211.929, 12.90813
1212.411, 13.05959
1212.893, 13.20014
1213.375, 13.16063
1213.858, 12.82901
1214.340, 12.53796
1214.822, 12.49943
1215.304, 12.60967
1215.786, 12.65314
1216.268, 12.64010
1216.750, 12.58738
1217.232, 12.46875
1217.714, 12.37469
1218.197, 12.29445
1218.679, 12.27728
1219.161, 12.40164
1219.643, 12.57658
1220.125, 12.58912
1220.607, 12.49987
1221.089, 12.45099
1221.571, 12.52951
1222.053, 12.56058
1222.536, 12.51488
1223.018, 12.47641
1223.500, 12.52166
1223.982, 12.59924
1224.464, 12.60518
1224.946, 12.56260
1225.428, 12.52365
1225.910, 12.49133
1226.393, 12.49597
1226.875, 12.56273
1227.357, 12.59094
1227.839, 12.46004
1228.321, 12.27296
1228.803, 12.19797
1229.285, 12.20225
1229.767, 12.20757
1230.250, 12.11210
1230.732, 12.23758
1231.214, 12.67556
1231.696, 12.99440
1232.178, 12.71919
1232.660, 12.23151
1233.142, 12.03144
1233.624, 12.03775
1234.106, 12.06116
1234.589, 12.08729
1235.071, 12.08712
1235.553, 12.05853
1236.035, 12.01154
1236.517, 11.89364
1236.999, 11.81116
1237.481, 11.93493
1237.963, 12.17996
1238.445, 12.35301
1238.928, 12.43104
1239.410, 12.49056
1239.892, 12.54334
1240.374, 12.49728
1240.856, 12.08639
1241.338, 11.72699
1241.820, 11.90659
1242.302, 12.38979
1242.785, 12.67620
1243.267, 12.72929
1243.749, 12.68652
1244.231, 12.54906
1244.713, 12.41450
1245.195, 12.37652
1245.677, 12.34526
1246.159, 12.22546
1246.641, 12.07950
1247.124, 12.03483
1247.606, 12.10738
1248.088, 12.04668
1248.570, 11.84729
1249.052, 11.77442
1249.534, 12.23069
1250.016, 12.62244
1250.498, 12.43410
1250.980, 12.06066
1251.463, 12.06455
1251.945, 12.43807
1252.427, 12.60911
1252.909, 12.56524
1253.391, 12.43303
1253.873, 12.18265
1254.355, 11.98970
1254.837, 11.94053
1255.320, 11.97954
1255.802, 12.10140
1256.284, 12.27338
1256.766, 12.26149
1257.248, 12.07629
1257.730, 11.86375
1258.212, 11.60024
1258.694, 11.46270
1259.177, 11.53223
1259.659, 11.67784
1260.141, 11.79020
1260.623, 11.86331
1261.105, 11.85480
1261.587, 11.78149
1262.069, 11.72600
1262.551, 11.74894
1263.033, 11.75523
1263.516, 11.73757
1263.998, 11.69121
1264.480, 11.58566
1264.962, 11.45978
1265.444, 11.38788
1265.926, 11.36831
1266.408, 11.38820
1266.890, 11.57484
1267.372, 11.51805
1267.855, 11.11669
1268.337, 10.74150
1268.819, 10.77828
1269.301, 10.98711
1269.783, 11.03718
1270.265, 10.98210
1270.747, 10.99434
1271.229, 11.11095
1271.712, 11.25503
1272.194, 11.44431
1272.676, 11.49998
1273.158, 11.10994
1273.640, 10.68342
1274.122, 10.63516
1274.604, 10.81900
1275.086, 10.93523
1275.568, 10.96537
1276.051, 11.00101
1276.533, 11.04523
1277.015, 11.08685
1277.497, 11.13741
1277.979, 11.16344
1278.461, 11.15877
1278.943, 11.10538
1279.425, 10.97350
1279.907, 10.76378
1280.390, 10.53395
1280.872, 10.30071
1281.354, 10.18730
1281.836, 10.32168
1282.318, 10.51384
1282.800, 10.77026
1283.282, 10.97676
1283.764, 10.99356
1284.247, 10.87105
1284.729, 10.87601
1285.211, 10.97223
1285.693, 11.01958
1286.175, 10.87275
1286.657, 10.81557
1287.139, 10.91994
1287.621, 11.02898
1288.104, 11.00800
1288.586, 10.91556
1289.068, 10.87323
1289.550, 10.86031
1290.032, 10.82698
1290.514, 10.71636
1290.996, 10.67074
1291.478, 10.69039
1291.960, 10.78021
1292.443, 11.06017
1292.925, 11.28996
1293.407, 11.04265
1293.889, 10.59409
1294.371, 10.42780
1294.853, 10.63088
1295.335, 10.72162
1295.817, 10.69872
1296.299, 10.63127
1296.782, 10.51139
1297.264, 10.42876
1297.746, 10.47287
1298.228, 10.57419
1298.710, 10.67777
1299.192, 10.77785
1299.674, 10.74485
1300.156, 10.60449
1300.639, 10.53283
1301.121, 10.67351
1301.603, 10.72667
1302.085, 10.39019
1302.567, 10.10435
1303.049, 10.07040
1303.531, 10.28723
##END=



