##NAMES=Malachite
##RRUFFID=R050531
##IDEAL CHEMISTRY=Cu^2+^_2_CO_3_(OH)_2_
##LOCALITY=Tsumeb mine, Tsumeb, Otavi District, Oshikoto, Namibia
##OWNER=RRUFF
##SOURCE=University of Arizona Mineral Museum
##DESCRIPTION=Spherical aggregates of green radiating acicular crystals associated with olivenite and bayldonite
##STATUS=The identification of this mineral has been confirmed by X-ray diffraction and chemical analysis
##URL=rruff.info/R050531
##MEASURED CHEMISTRY=(Cu_1.95_Zn_0.05_)_Î£=2_(CO_3_)(OH)_2_ ; C not measured but estimated by stoichiometry
93.275, 290.827
93.757, 315.762
94.239, 342.552
94.721, 370.797
95.203, 398.964
95.685, 425.621
96.168, 452.791
96.650, 487.816
97.132, 531.497
97.614, 575.936
98.096, 615.278
98.578, 649.661
99.060, 678.650
99.542, 699.680
100.025, 714.115
100.507, 736.493
100.989, 768.638
101.471, 805.341
101.953, 838.199
102.435, 865.449
102.917, 895.981
103.399, 934.228
103.882, 982.000
104.364, 1027.906
104.846, 1070.979
105.328, 1112.790
105.810, 1156.094
106.292, 1204.993
106.774, 1250.248
107.256, 1287.322
107.738, 1302.003
108.221, 1331.753
108.703, 1388.596
109.185, 1463.582
109.667, 1519.026
110.149, 1534.642
110.631, 1544.347
111.113, 1564.716
111.595, 1614.310
112.077, 1654.546
112.560, 1675.392
113.042, 1678.923
113.524, 1691.740
114.006, 1730.144
114.488, 1772.963
114.970, 1804.079
115.452, 1803.650
115.934, 1806.692
116.417, 1827.514
116.899, 1867.249
117.381, 1904.039
117.863, 1928.486
118.345, 1945.894
118.827, 1962.499
119.309, 1986.873
119.791, 2006.620
120.273, 2012.603
120.756, 2002.183
121.238, 1989.000
121.720, 1982.938
122.202, 1979.941
122.684, 1972.276
123.166, 1951.781
123.648, 1926.723
124.130, 1905.921
124.613, 1892.205
125.095, 1878.718
125.577, 1860.286
126.059, 1837.153
126.541, 1810.173
127.023, 1774.860
127.505, 1736.706
127.987, 1706.082
128.469, 1687.182
128.952, 1673.782
129.434, 1655.187
129.916, 1632.135
130.398, 1614.154
130.880, 1611.139
131.362, 1620.263
131.844, 1630.872
132.326, 1643.044
132.809, 1653.666
133.291, 1652.721
133.773, 1639.426
134.255, 1622.767
134.737, 1611.537
135.219, 1605.625
135.701, 1598.600
136.183, 1587.557
136.665, 1573.500
137.148, 1563.878
137.630, 1558.748
138.112, 1557.892
138.594, 1561.912
139.076, 1571.424
139.558, 1582.103
140.040, 1590.870
140.522, 1596.865
141.005, 1615.238
141.487, 1652.099
141.969, 1694.209
142.451, 1719.869
142.933, 1721.073
143.415, 1723.348
143.897, 1735.888
144.379, 1761.490
144.861, 1788.101
145.344, 1815.191
145.826, 1843.207
146.308, 1872.315
146.790, 1904.260
147.272, 1935.518
147.754, 1964.328
148.236, 1987.496
148.718, 2014.314
149.200, 2045.127
149.683, 2079.625
150.165, 2116.685
150.647, 2158.187
151.129, 2201.004
151.611, 2244.277
152.093, 2301.593
152.575, 2342.939
153.057, 2358.774
153.540, 2354.458
154.022, 2358.971
154.504, 2385.029
154.986, 2413.352
155.468, 2433.378
155.950, 2441.074
156.432, 2443.426
156.914, 2442.969
157.396, 2438.979
157.879, 2425.830
158.361, 2390.678
158.843, 2352.303
159.325, 2323.620
159.807, 2321.012
160.289, 2316.069
160.771, 2299.732
161.253, 2272.080
161.736, 2241.375
162.218, 2204.303
162.700, 2167.779
163.182, 2138.393
163.664, 2120.590
164.146, 2108.013
164.628, 2100.930
165.110, 2099.422
165.592, 2092.709
166.075, 2068.021
166.557, 2036.949
167.039, 2013.890
167.521, 2005.853
168.003, 2006.790
168.485, 2015.556
168.967, 2032.780
169.449, 2048.464
169.932, 2054.583
170.414, 2054.925
170.896, 2055.483
171.378, 2059.772
171.860, 2065.060
172.342, 2068.217
172.824, 2068.616
173.306, 2069.865
173.788, 2075.661
174.271, 2084.598
174.753, 2093.417
175.235, 2101.322
175.717, 2107.962
176.199, 2113.688
176.681, 2119.055
177.163, 2120.816
177.645, 2114.550
178.127, 2101.714
178.610, 2086.550
179.092, 2071.023
179.574, 2054.844
180.056, 2036.760
180.538, 2015.997
181.020, 1995.151
181.502, 1975.315
181.984, 1957.192
182.467, 1943.822
182.949, 1938.683
183.431, 1939.563
183.913, 1942.197
184.395, 1947.559
184.877, 1951.031
185.359, 1945.001
185.841, 1929.870
186.323, 1911.182
186.806, 1889.475
187.288, 1866.399
187.770, 1847.943
188.252, 1836.482
188.734, 1827.592
189.216, 1811.826
189.698, 1789.436
190.180, 1768.997
190.663, 1759.781
191.145, 1759.476
191.627, 1753.411
192.109, 1737.913
192.591, 1717.665
193.073, 1701.705
193.555, 1689.934
194.037, 1684.441
194.519, 1691.547
195.002, 1710.055
195.484, 1719.555
195.966, 1714.681
196.448, 1701.079
196.930, 1692.491
197.412, 1688.629
197.894, 1691.648
198.376, 1707.102
198.859, 1735.309
199.341, 1757.010
199.823, 1767.640
200.305, 1770.595
200.787, 1776.517
201.269, 1785.299
201.751, 1797.337
202.233, 1813.172
202.715, 1832.807
203.198, 1855.290
203.680, 1882.188
204.162, 1911.431
204.644, 1932.360
205.126, 1941.838
205.608, 1952.398
206.090, 1975.315
206.572, 2013.229
207.054, 2049.175
207.537, 2079.995
208.019, 2106.978
208.501, 2137.366
208.983, 2172.485
209.465, 2208.137
209.947, 2240.302
210.429, 2267.144
210.911, 2298.964
211.394, 2339.060
211.876, 2385.855
212.358, 2429.404
212.840, 2468.539
213.322, 2505.839
213.804, 2542.705
214.286, 2578.649
214.768, 2616.493
215.250, 2657.367
215.733, 2700.757
216.215, 2742.477
216.697, 2784.729
217.179, 2821.715
217.661, 2849.147
218.143, 2865.683
218.625, 2875.852
219.107, 2877.235
219.590, 2871.603
220.072, 2875.793
220.554, 2896.089
221.036, 2916.754
221.518, 2926.340
222.000, 2923.740
222.482, 2912.536
222.964, 2892.800
223.446, 2864.858
223.929, 2829.364
224.411, 2784.291
224.893, 2734.906
225.375, 2683.981
225.857, 2625.189
226.339, 2579.344
226.821, 2554.303
227.303, 2546.843
227.786, 2524.906
228.268, 2481.094
228.750, 2432.750
229.232, 2392.434
229.714, 2361.345
230.196, 2336.425
230.678, 2321.738
231.160, 2314.822
231.642, 2294.404
232.125, 2252.241
232.607, 2207.457
233.089, 2172.647
233.571, 2151.622
234.053, 2133.437
234.535, 2118.356
235.017, 2105.577
235.499, 2089.395
235.982, 2068.622
236.464, 2045.904
236.946, 2022.338
237.428, 1994.546
237.910, 1973.365
238.392, 1962.476
238.874, 1959.595
239.356, 1952.169
239.838, 1940.194
240.321, 1923.651
240.803, 1901.037
241.285, 1865.311
241.767, 1838.824
242.249, 1825.710
242.731, 1823.354
243.213, 1820.302
243.695, 1817.920
244.177, 1813.034
244.660, 1802.892
245.142, 1782.389
245.624, 1767.860
246.106, 1761.948
246.588, 1762.617
247.070, 1763.294
247.552, 1766.544
248.034, 1766.019
248.517, 1756.700
248.999, 1730.485
249.481, 1714.817
249.963, 1714.382
250.445, 1724.465
250.927, 1730.662
251.409, 1731.714
251.891, 1730.754
252.373, 1728.688
252.856, 1723.898
253.338, 1722.356
253.820, 1725.778
254.302, 1731.870
254.784, 1734.436
255.266, 1730.649
255.748, 1728.222
256.230, 1731.607
256.713, 1745.143
257.195, 1751.213
257.677, 1746.589
258.159, 1736.289
258.641, 1730.238
259.123, 1727.845
259.605, 1731.146
260.087, 1743.848
260.569, 1771.092
261.052, 1783.685
261.534, 1773.684
262.016, 1755.474
262.498, 1755.830
262.980, 1782.530
263.462, 1809.411
263.944, 1826.776
264.426, 1833.620
264.909, 1838.792
265.391, 1840.582
265.873, 1842.658
266.355, 1850.668
266.837, 1865.598
267.319, 1883.708
267.801, 1904.992
268.283, 1929.666
268.765, 1950.091
269.248, 1962.933
269.730, 1976.350
270.212, 2002.803
270.694, 2046.665
271.176, 2086.008
271.658, 2112.633
272.140, 2127.016
272.622, 2151.401
273.104, 2187.126
273.587, 2230.659
274.069, 2277.545
274.551, 2327.266
275.033, 2386.542
275.515, 2461.619
275.997, 2548.274
276.479, 2621.602
276.961, 2680.733
277.444, 2731.242
277.926, 2772.018
278.408, 2800.357
278.890, 2849.771
279.372, 2934.575
279.854, 3043.746
280.336, 3124.884
280.818, 3174.792
281.300, 3214.721
281.783, 3262.324
282.265, 3317.802
282.747, 3365.037
283.229, 3401.372
283.711, 3428.318
284.193, 3451.682
284.675, 3472.523
285.157, 3480.380
285.640, 3464.675
286.122, 3426.870
286.604, 3386.337
287.086, 3346.660
287.568, 3302.681
288.050, 3241.928
288.532, 3163.877
289.014, 3085.057
289.496, 3012.083
289.979, 2945.239
290.461, 2887.583
290.943, 2841.110
291.425, 2798.855
291.907, 2747.690
292.389, 2689.761
292.871, 2636.710
293.353, 2592.323
293.836, 2557.315
294.318, 2537.996
294.800, 2536.474
295.282, 2538.909
295.764, 2526.304
296.246, 2502.444
296.728, 2482.502
297.210, 2474.027
297.692, 2473.835
298.175, 2476.964
298.657, 2483.696
299.139, 2489.480
299.621, 2487.419
300.103, 2480.785
300.585, 2477.843
301.067, 2481.449
301.549, 2490.435
302.032, 2505.125
302.514, 2525.066
302.996, 2545.196
303.478, 2559.490
303.960, 2571.329
304.442, 2586.832
304.924, 2610.197
305.406, 2635.104
305.888, 2657.142
306.371, 2675.809
306.853, 2689.624
307.335, 2692.626
307.817, 2691.799
308.299, 2696.833
308.781, 2714.079
309.263, 2729.259
309.745, 2726.159
310.227, 2710.965
310.710, 2700.854
311.192, 2711.036
311.674, 2727.179
312.156, 2738.561
312.638, 2744.924
313.120, 2741.786
313.602, 2719.518
314.084, 2686.364
314.567, 2657.630
315.049, 2642.350
315.531, 2631.575
316.013, 2621.171
316.495, 2610.905
316.977, 2598.516
317.459, 2581.032
317.941, 2561.469
318.423, 2543.474
318.906, 2528.120
319.388, 2514.592
319.870, 2502.835
320.352, 2492.945
320.834, 2484.271
321.316, 2479.448
321.798, 2474.356
322.280, 2465.618
322.763, 2443.901
323.245, 2427.572
323.727, 2423.061
324.209, 2428.928
324.691, 2433.683
325.173, 2436.188
325.655, 2436.722
326.137, 2435.443
326.619, 2432.777
327.102, 2427.765
327.584, 2417.663
328.066, 2404.770
328.548, 2396.314
329.030, 2389.433
329.512, 2389.554
329.994, 2399.287
330.476, 2423.018
330.959, 2446.460
331.441, 2460.841
331.923, 2478.455
332.405, 2525.145
332.887, 2656.552
333.369, 2735.019
333.851, 2706.357
334.333, 2546.682
334.815, 2435.854
335.298, 2386.416
335.780, 2371.630
336.262, 2364.518
336.744, 2367.581
337.226, 2372.165
337.708, 2377.201
338.190, 2382.458
338.672, 2386.652
339.154, 2390.962
339.637, 2391.498
340.119, 2382.716
340.601, 2362.628
341.083, 2348.231
341.565, 2342.854
342.047, 2344.039
342.529, 2345.307
343.011, 2346.635
343.494, 2348.255
343.976, 2351.700
344.458, 2356.640
344.940, 2356.152
345.422, 2348.574
345.904, 2338.308
346.386, 2333.041
346.868, 2332.425
347.351, 2330.170
347.833, 2321.750
348.315, 2309.216
348.797, 2300.536
349.279, 2296.375
349.761, 2290.991
350.243, 2275.355
350.725, 2252.817
351.207, 2234.603
351.690, 2227.976
352.172, 2225.424
352.654, 2214.468
353.136, 2195.832
353.618, 2176.571
354.100, 2161.629
354.582, 2149.856
355.064, 2139.499
355.546, 2130.191
356.029, 2122.054
356.511, 2115.870
356.993, 2111.217
357.475, 2106.859
357.957, 2104.575
358.439, 2100.896
358.921, 2090.622
359.403, 2070.151
359.886, 2054.589
360.368, 2058.626
360.850, 2072.506
361.332, 2080.894
361.814, 2077.288
362.296, 2067.348
362.778, 2050.400
363.260, 2025.875
363.742, 2007.672
364.225, 2005.766
364.707, 2009.760
365.189, 2010.147
365.671, 2000.515
366.153, 1991.907
366.635, 1986.364
367.117, 1983.799
367.599, 1983.275
368.082, 1986.596
368.564, 1990.559
369.046, 1993.628
369.528, 1998.005
370.010, 1998.262
370.492, 1993.844
370.974, 1985.335
371.456, 1973.554
371.938, 1952.188
372.421, 1935.837
372.903, 1930.619
373.385, 1939.087
373.867, 1945.338
374.349, 1949.612
374.831, 1951.410
375.313, 1949.240
375.795, 1940.827
376.278, 1935.231
376.760, 1934.762
377.242, 1938.918
377.724, 1944.620
378.206, 1952.667
378.688, 1959.831
379.170, 1963.851
379.652, 1964.699
380.134, 1962.382
380.617, 1955.200
381.099, 1947.261
381.581, 1948.865
382.063, 1959.857
382.545, 1968.678
383.027, 1966.934
383.509, 1957.453
383.991, 1949.736
384.473, 1943.961
384.956, 1941.374
385.438, 1946.062
385.920, 1955.606
386.402, 1962.376
386.884, 1962.925
387.366, 1959.323
387.848, 1952.723
388.330, 1943.567
388.813, 1935.693
389.295, 1934.195
389.777, 1934.953
390.259, 1932.000
390.741, 1920.611
391.223, 1910.894
391.705, 1913.478
392.187, 1923.729
392.669, 1929.327
393.152, 1916.678
393.634, 1903.285
394.116, 1902.294
394.598, 1918.455
395.080, 1931.170
395.562, 1928.962
396.044, 1920.570
396.526, 1916.612
397.009, 1925.631
397.491, 1933.099
397.973, 1934.040
398.455, 1928.535
398.937, 1924.584
399.419, 1924.106
399.901, 1924.656
400.383, 1924.547
400.865, 1917.662
401.348, 1919.401
401.830, 1937.015
402.312, 1962.537
402.794, 1974.525
403.276, 1965.490
403.758, 1954.962
404.240, 1950.448
404.722, 1952.975
405.205, 1954.414
405.687, 1954.545
406.169, 1953.923
406.651, 1951.161
407.133, 1944.564
407.615, 1947.672
408.097, 1968.817
408.579, 2000.928
409.061, 2011.880
409.544, 1999.721
410.026, 1985.717
410.508, 1986.321
410.990, 1999.172
411.472, 2012.889
411.954, 2026.972
412.436, 2038.587
412.918, 2040.042
413.400, 2034.065
413.883, 2032.200
414.365, 2042.644
414.847, 2059.632
415.329, 2076.795
415.811, 2094.106
416.293, 2107.707
416.775, 2114.303
417.257, 2115.843
417.740, 2114.640
418.222, 2107.523
418.704, 2102.477
419.186, 2105.853
419.668, 2115.779
420.150, 2125.881
420.632, 2131.172
421.114, 2137.120
421.596, 2148.377
422.079, 2169.319
422.561, 2184.312
423.043, 2182.948
423.525, 2175.325
424.007, 2174.646
424.489, 2196.896
424.971, 2211.691
425.453, 2206.008
425.936, 2180.018
426.418, 2169.866
426.900, 2189.606
427.382, 2211.831
427.864, 2218.508
428.346, 2200.721
428.828, 2187.024
429.310, 2179.319
429.792, 2176.080
430.275, 2175.420
430.757, 2179.777
431.239, 2178.607
431.721, 2165.452
432.203, 2140.667
432.685, 2121.381
433.167, 2107.827
433.649, 2097.716
434.132, 2089.877
434.614, 2083.939
435.096, 2076.107
435.578, 2064.648
436.060, 2051.851
436.542, 2040.245
437.024, 2030.417
437.506, 2025.554
437.988, 2033.927
438.471, 2046.869
438.953, 2048.380
439.435, 2035.194
439.917, 2021.838
440.399, 2022.287
440.881, 2030.691
441.363, 2037.669
441.845, 2038.879
442.327, 2037.926
442.810, 2035.777
443.292, 2032.802
443.774, 2031.312
444.256, 2033.253
444.738, 2036.335
445.220, 2039.403
445.702, 2043.895
446.184, 2045.250
446.667, 2039.037
447.149, 2029.811
447.631, 2025.495
448.113, 2032.429
448.595, 2038.014
449.077, 2039.464
449.559, 2036.627
450.041, 2032.285
450.523, 2022.791
451.006, 2016.313
451.488, 2020.948
451.970, 2041.849
452.452, 2054.837
452.934, 2055.295
453.416, 2049.087
453.898, 2050.287
454.380, 2059.804
454.863, 2068.636
455.345, 2072.615
455.827, 2072.322
456.309, 2070.923
456.791, 2068.364
457.273, 2065.444
457.755, 2063.378
458.237, 2061.654
458.719, 2058.407
459.202, 2051.616
459.684, 2045.506
460.166, 2048.091
460.648, 2056.362
461.130, 2060.369
461.612, 2046.369
462.094, 2030.636
462.576, 2029.681
463.059, 2046.841
463.541, 2062.103
464.023, 2060.841
464.505, 2054.007
464.987, 2053.204
465.469, 2069.026
465.951, 2083.243
466.433, 2090.247
466.915, 2091.458
467.398, 2093.859
467.880, 2101.938
468.362, 2108.033
468.844, 2108.053
469.326, 2097.844
469.808, 2095.025
470.290, 2104.323
470.772, 2116.855
471.254, 2120.728
471.737, 2111.632
472.219, 2107.219
472.701, 2111.451
473.183, 2122.821
473.665, 2138.550
474.147, 2160.557
474.629, 2175.194
475.111, 2167.008
475.594, 2141.083
476.076, 2129.531
476.558, 2135.216
477.040, 2150.856
477.522, 2175.465
478.004, 2204.098
478.486, 2221.808
478.968, 2217.506
479.450, 2204.773
479.933, 2194.863
480.415, 2188.694
480.897, 2190.348
481.379, 2207.862
481.861, 2230.810
482.343, 2250.199
482.825, 2263.180
483.307, 2278.085
483.790, 2303.272
484.272, 2330.637
484.754, 2350.123
485.236, 2348.853
485.718, 2351.311
486.200, 2365.992
486.682, 2391.274
487.164, 2410.061
487.646, 2416.348
488.129, 2422.743
488.611, 2435.457
489.093, 2457.193
489.575, 2476.427
490.057, 2491.939
490.539, 2506.252
491.021, 2522.272
491.503, 2539.753
491.986, 2560.485
492.468, 2587.373
492.950, 2616.100
493.432, 2632.296
493.914, 2635.890
494.396, 2638.832
494.878, 2650.951
495.360, 2668.291
495.842, 2679.265
496.325, 2681.618
496.807, 2686.870
497.289, 2711.224
497.771, 2744.955
498.253, 2771.990
498.735, 2783.846
499.217, 2789.138
499.699, 2793.373
500.181, 2795.582
500.664, 2792.034
501.146, 2772.535
501.628, 2753.713
502.110, 2745.297
502.592, 2751.425
503.074, 2757.346
503.556, 2762.141
504.038, 2765.415
504.521, 2766.976
505.003, 2767.657
505.485, 2764.839
505.967, 2755.398
506.449, 2742.431
506.931, 2738.275
507.413, 2745.115
507.895, 2754.364
508.378, 2761.670
508.860, 2767.122
509.342, 2775.650
509.824, 2787.533
510.306, 2801.129
510.788, 2815.536
511.270, 2830.318
511.752, 2844.382
512.234, 2857.948
512.717, 2869.293
513.199, 2876.999
513.681, 2880.727
514.163, 2879.397
514.645, 2866.746
515.127, 2852.566
515.609, 2846.667
516.091, 2849.542
516.573, 2850.869
517.056, 2848.303
517.538, 2840.860
518.020, 2827.266
518.502, 2797.066
518.984, 2774.831
519.466, 2769.115
519.948, 2773.432
520.430, 2774.521
520.913, 2769.710
521.395, 2765.446
521.877, 2763.531
522.359, 2763.885
522.841, 2763.905
523.323, 2763.853
523.805, 2762.842
524.287, 2759.950
524.769, 2755.191
525.252, 2750.474
525.734, 2746.099
526.216, 2741.327
526.698, 2735.621
527.180, 2728.762
527.662, 2720.011
528.144, 2709.473
528.626, 2696.617
529.108, 2678.469
529.591, 2656.507
530.073, 2637.291
530.555, 2628.949
531.037, 2622.740
531.519, 2611.111
532.001, 2592.358
532.483, 2572.438
532.965, 2552.022
533.448, 2532.433
533.930, 2515.357
534.412, 2501.688
534.894, 2489.651
535.376, 2479.084
535.858, 2469.980
536.340, 2462.052
536.822, 2457.139
537.304, 2450.372
537.787, 2439.365
538.269, 2424.031
538.751, 2410.451
539.233, 2398.839
539.715, 2388.534
540.197, 2378.226
540.679, 2368.193
541.161, 2361.033
541.644, 2357.515
542.126, 2355.736
542.608, 2353.272
543.090, 2350.281
543.572, 2347.419
544.054, 2343.143
544.536, 2340.363
545.018, 2343.792
545.500, 2352.284
545.983, 2358.293
546.465, 2354.258
546.947, 2348.816
547.429, 2349.551
547.911, 2361.629
548.393, 2366.474
548.875, 2352.580
549.357, 2332.994
549.840, 2322.172
550.322, 2324.677
550.804, 2329.916
551.286, 2341.133
551.768, 2353.398
552.250, 2346.590
552.732, 2312.496
553.214, 2287.214
553.696, 2292.392
554.179, 2323.441
554.661, 2334.206
555.143, 2322.796
555.625, 2307.599
556.107, 2306.975
556.589, 2315.366
557.071, 2317.550
557.553, 2309.631
558.035, 2298.816
558.518, 2291.912
559.000, 2287.344
559.482, 2282.138
559.964, 2274.575
560.446, 2266.534
560.928, 2256.889
561.410, 2246.777
561.892, 2242.087
562.375, 2253.608
562.857, 2263.311
563.339, 2259.929
563.821, 2237.170
564.303, 2226.021
564.785, 2233.875
565.267, 2245.785
565.749, 2246.940
566.231, 2234.419
566.714, 2223.335
567.196, 2214.995
567.678, 2209.983
568.160, 2211.638
568.642, 2219.512
569.124, 2224.478
569.606, 2219.027
570.088, 2209.562
570.571, 2211.584
571.053, 2223.590
571.535, 2231.450
572.017, 2218.016
572.499, 2199.224
572.981, 2193.700
573.463, 2207.300
573.945, 2218.307
574.427, 2214.079
574.910, 2203.287
575.392, 2195.393
575.874, 2197.294
576.356, 2195.852
576.838, 2183.198
577.320, 2166.336
577.802, 2166.044
578.284, 2193.918
578.767, 2216.226
579.249, 2219.326
579.731, 2205.264
580.213, 2199.866
580.695, 2204.564
581.177, 2210.666
581.659, 2209.883
582.141, 2204.455
582.623, 2206.058
583.106, 2217.405
583.588, 2226.600
584.070, 2216.793
584.552, 2196.739
585.034, 2182.781
585.516, 2184.159
585.998, 2188.645
586.480, 2190.130
586.963, 2188.947
587.445, 2185.906
587.927, 2175.208
588.409, 2168.431
588.891, 2171.293
589.373, 2184.904
589.855, 2196.908
590.337, 2208.452
590.819, 2217.038
591.302, 2221.100
591.784, 2220.062
592.266, 2215.763
592.748, 2206.135
593.230, 2197.966
593.712, 2203.512
594.194, 2220.999
594.676, 2231.659
595.159, 2228.319
595.641, 2220.197
596.123, 2223.873
596.605, 2234.933
597.087, 2239.014
597.569, 2216.868
598.051, 2193.548
598.533, 2193.154
599.015, 2214.238
599.498, 2229.125
599.980, 2218.786
600.462, 2205.545
600.944, 2203.690
601.426, 2221.643
601.908, 2233.927
602.390, 2239.287
602.872, 2239.582
603.355, 2235.291
603.837, 2223.605
604.319, 2217.618
604.801, 2220.081
605.283, 2227.800
605.765, 2236.738
606.247, 2246.644
606.729, 2249.784
607.211, 2236.929
607.694, 2218.792
608.176, 2214.489
608.658, 2222.794
609.140, 2235.335
609.622, 2253.365
610.104, 2268.952
610.586, 2274.240
611.068, 2267.458
611.551, 2257.972
612.033, 2240.674
612.515, 2226.762
612.997, 2225.818
613.479, 2259.239
613.961, 2276.619
614.443, 2271.390
614.925, 2253.872
615.407, 2239.190
615.890, 2225.363
616.372, 2223.935
616.854, 2243.239
617.336, 2273.304
617.818, 2285.541
618.300, 2280.231
618.782, 2267.868
619.264, 2246.762
619.746, 2225.501
620.229, 2220.505
620.711, 2231.696
621.193, 2245.942
621.675, 2259.202
622.157, 2268.691
622.639, 2270.867
623.121, 2261.436
623.603, 2254.675
624.086, 2254.823
624.568, 2259.292
625.050, 2265.146
625.532, 2272.783
626.014, 2281.483
626.496, 2294.071
626.978, 2306.081
627.460, 2303.674
627.942, 2283.847
628.425, 2270.711
628.907, 2277.393
629.389, 2295.368
629.871, 2298.181
630.353, 2287.016
630.835, 2274.210
631.317, 2265.061
631.799, 2260.502
632.282, 2263.616
632.764, 2274.897
633.246, 2285.249
633.728, 2286.729
634.210, 2286.852
634.692, 2292.600
635.174, 2314.434
635.656, 2325.325
636.138, 2315.236
636.621, 2296.998
637.103, 2286.930
637.585, 2289.752
638.067, 2287.316
638.549, 2272.709
639.031, 2254.299
639.513, 2258.393
639.995, 2284.749
640.478, 2305.159
640.960, 2299.825
641.442, 2283.080
641.924, 2282.860
642.406, 2297.269
642.888, 2313.638
643.370, 2329.322
643.852, 2339.636
644.334, 2338.017
644.817, 2322.270
645.299, 2308.747
645.781, 2303.077
646.263, 2301.038
646.745, 2299.439
647.227, 2298.368
647.709, 2296.877
648.191, 2292.756
648.674, 2290.395
649.156, 2298.602
649.638, 2319.433
650.120, 2331.951
650.602, 2329.221
651.084, 2319.774
651.566, 2320.336
652.048, 2329.093
652.530, 2337.858
653.013, 2337.858
653.495, 2339.061
653.977, 2286.456
654.459, 2218.413
654.941, 2327.205
655.423, 3037.748
655.905, 3670.615
656.387, 3795.769
656.869, 3272.407
657.352, 2860.659
657.834, 2608.962
658.316, 2451.362
658.798, 2352.760
659.280, 2322.198
659.762, 2314.086
660.244, 2333.313
660.726, 2359.478
661.209, 2365.744
661.691, 2355.814
662.173, 2349.568
662.655, 2352.195
663.137, 2358.374
663.619, 2365.012
664.101, 2370.448
664.583, 2371.112
665.065, 2362.175
665.548, 2351.505
666.030, 2339.529
666.512, 2328.116
666.994, 2324.281
667.476, 2336.379
667.958, 2348.725
668.440, 2357.294
668.922, 2362.118
669.405, 2366.989
669.887, 2373.040
670.369, 2375.513
670.851, 2368.136
671.333, 2353.136
671.815, 2346.892
672.297, 2350.301
672.779, 2356.206
673.261, 2359.029
673.744, 2359.864
674.226, 2359.843
674.708, 2358.333
675.190, 2358.910
675.672, 2367.042
676.154, 2376.938
676.636, 2381.729
677.118, 2374.353
677.601, 2369.167
678.083, 2368.662
678.565, 2370.527
679.047, 2369.990
679.529, 2366.237
680.011, 2363.263
680.493, 2362.652
680.975, 2363.208
681.457, 2360.508
681.940, 2355.086
682.422, 2351.982
682.904, 2353.757
683.386, 2359.677
683.868, 2371.859
684.350, 2389.088
684.832, 2401.037
685.314, 2396.617
685.796, 2389.902
686.279, 2390.795
686.761, 2402.754
687.243, 2409.285
687.725, 2406.276
688.207, 2400.984
688.689, 2397.816
689.171, 2396.753
689.653, 2398.594
690.136, 2404.470
690.618, 2410.057
691.100, 2408.066
691.582, 2400.629
692.064, 2397.898
692.546, 2403.740
693.028, 2409.924
693.510, 2404.693
693.992, 2394.661
694.475, 2390.909
694.957, 2405.659
695.439, 2418.817
695.921, 2422.851
696.403, 2419.857
696.885, 2415.594
697.367, 2407.427
697.849, 2402.474
698.332, 2401.659
698.814, 2405.471
699.296, 2420.335
699.778, 2448.118
700.260, 2468.773
700.742, 2465.772
701.224, 2448.463
701.706, 2440.498
702.188, 2441.346
702.671, 2443.963
703.153, 2444.084
703.635, 2443.390
704.117, 2443.673
704.599, 2445.417
705.081, 2445.828
705.563, 2441.205
706.045, 2437.147
706.528, 2437.933
707.010, 2447.257
707.492, 2451.224
707.974, 2447.204
708.456, 2442.389
708.938, 2445.688
709.420, 2456.578
709.902, 2467.041
710.384, 2476.038
710.867, 2483.107
711.349, 2488.287
711.831, 2491.128
712.313, 2490.571
712.795, 2484.641
713.277, 2477.453
713.759, 2469.217
714.241, 2461.471
714.723, 2457.316
715.206, 2464.953
715.688, 2466.891
716.170, 2457.790
716.652, 2441.372
717.134, 2428.467
717.616, 2417.907
718.098, 2418.397
718.580, 2440.613
719.063, 2473.287
719.545, 2481.652
720.027, 2468.804
720.509, 2457.361
720.991, 2463.692
721.473, 2476.424
721.955, 2485.820
722.437, 2491.320
722.919, 2496.145
723.402, 2503.593
723.884, 2508.808
724.366, 2507.516
724.848, 2497.283
725.330, 2495.666
725.812, 2507.637
726.294, 2518.888
726.776, 2515.115
727.259, 2497.665
727.741, 2489.532
728.223, 2493.026
728.705, 2499.427
729.187, 2499.951
729.669, 2497.475
730.151, 2496.448
730.633, 2497.427
731.115, 2501.260
731.598, 2512.316
732.080, 2524.800
732.562, 2532.012
733.044, 2527.397
733.526, 2525.147
734.008, 2527.303
734.490, 2530.902
734.972, 2530.774
735.455, 2526.477
735.937, 2522.142
736.419, 2517.621
736.901, 2515.383
737.383, 2522.884
737.865, 2536.895
738.347, 2546.590
738.829, 2541.537
739.311, 2536.039
739.794, 2542.469
740.276, 2556.442
740.758, 2565.517
741.240, 2565.268
741.722, 2560.230
742.204, 2545.837
742.686, 2526.495
743.168, 2531.370
743.650, 2568.213
744.133, 2600.167
744.615, 2608.688
745.097, 2599.527
745.579, 2591.293
746.061, 2584.068
746.543, 2577.924
747.025, 2568.322
747.507, 2562.975
747.990, 2572.134
748.472, 2596.023
748.954, 2618.231
749.436, 2639.563
749.918, 2652.082
750.400, 2647.896
750.882, 2622.638
751.364, 2613.957
751.846, 2628.091
752.329, 2644.839
752.811, 2646.411
753.293, 2635.381
753.775, 2633.129
754.257, 2641.122
754.739, 2652.200
755.221, 2663.762
755.703, 2672.723
756.186, 2672.847
756.668, 2659.792
757.150, 2651.630
757.632, 2662.984
758.114, 2678.207
758.596, 2682.563
759.078, 2670.235
759.560, 2656.669
760.042, 2636.517
760.525, 2623.082
761.007, 2639.586
761.489, 2683.358
761.971, 2714.753
762.453, 2726.692
762.935, 2726.007
763.417, 2709.232
763.899, 2687.846
764.382, 2682.892
764.864, 2717.248
765.346, 2743.655
765.828, 2734.521
766.310, 2708.234
766.792, 2695.387
767.274, 2704.813
767.756, 2713.947
768.238, 2721.229
768.721, 2725.640
769.203, 2722.767
769.685, 2712.989
770.167, 2706.805
770.649, 2707.633
771.131, 2713.330
771.613, 2727.149
772.095, 2743.530
772.577, 2748.978
773.060, 2720.893
773.542, 2698.056
774.024, 2700.047
774.506, 2720.594
774.988, 2737.795
775.470, 2751.552
775.952, 2760.655
776.434, 2764.178
776.917, 2763.082
777.399, 2758.434
777.881, 2750.427
778.363, 2747.724
778.845, 2759.211
779.327, 2775.117
779.809, 2779.709
780.291, 2775.924
780.773, 2774.511
781.256, 2779.094
781.738, 2788.563
782.220, 2804.857
782.702, 2827.118
783.184, 2845.148
783.666, 2858.850
784.148, 2868.317
784.630, 2872.211
785.113, 2871.906
785.595, 2873.725
786.077, 2877.704
786.559, 2886.202
787.041, 2907.652
787.523, 2930.541
788.005, 2937.088
788.487, 2929.122
788.969, 2924.114
789.452, 2926.851
789.934, 2937.134
790.416, 2958.275
790.898, 2990.233
791.380, 3015.675
791.862, 3032.179
792.344, 3047.030
792.826, 3062.271
793.309, 3078.850
793.791, 3105.098
794.273, 3140.948
794.755, 3174.078
795.237, 3190.988
795.719, 3203.556
796.201, 3224.945
796.683, 3256.280
797.165, 3290.776
797.648, 3328.518
798.130, 3366.653
798.612, 3403.427
799.094, 3438.573
799.576, 3473.472
800.058, 3507.319
800.540, 3541.665
801.022, 3575.843
801.504, 3611.348
801.987, 3659.256
802.469, 3719.649
802.951, 3773.715
803.433, 3800.931
803.915, 3819.333
804.397, 3847.758
804.879, 3890.728
805.361, 3922.935
805.844, 3929.156
806.326, 3931.697
806.808, 3943.739
807.290, 3968.123
807.772, 3975.879
808.254, 3964.449
808.736, 3948.881
809.218, 3941.140
809.700, 3938.875
810.183, 3935.620
810.665, 3930.817
811.147, 3930.523
811.629, 3939.976
812.111, 3954.569
812.593, 3971.781
813.075, 3992.686
813.557, 4009.951
814.040, 4020.437
814.522, 4031.081
815.004, 4046.456
815.486, 4066.704
815.968, 4089.293
816.450, 4114.765
816.932, 4136.688
817.414, 4149.443
817.896, 4154.778
818.379, 4151.028
818.861, 4136.955
819.343, 4132.407
819.825, 4161.848
820.307, 4192.750
820.789, 4199.820
821.271, 4175.974
821.753, 4162.127
822.236, 4161.135
822.718, 4163.783
823.200, 4159.688
823.682, 4152.088
824.164, 4162.709
824.646, 4192.868
825.128, 4223.014
825.610, 4234.094
826.092, 4239.955
826.575, 4251.206
827.057, 4268.048
827.539, 4300.833
828.021, 4372.958
828.503, 4442.847
828.985, 4486.167
829.467, 4497.980
829.949, 4527.901
830.431, 4575.853
830.914, 4639.390
831.396, 4719.655
831.878, 4812.222
832.360, 4913.258
832.842, 5021.761
833.324, 5124.618
833.806, 5200.729
834.288, 5279.833
834.771, 5387.278
835.253, 5533.543
835.735, 5663.596
836.217, 5767.501
836.699, 5872.293
837.181, 5997.553
837.663, 6140.746
838.145, 6261.465
838.627, 6361.426
839.110, 6461.906
839.592, 6577.940
840.074, 6703.747
840.556, 6835.507
841.038, 6972.632
841.520, 7108.214
842.002, 7233.136
842.484, 7362.688
842.967, 7499.721
843.449, 7644.375
843.931, 7815.646
844.413, 8016.377
844.895, 8228.707
845.377, 8441.390
845.859, 8657.207
846.341, 8894.344
846.823, 9148.945
847.306, 9393.788
847.788, 9584.986
848.270, 9786.463
848.752, 10049.390
849.234, 10370.390
849.716, 10660.710
850.198, 10900.970
850.680, 11145.310
851.163, 11421.700
851.645, 11715.800
852.127, 11959.740
852.609, 12155.750
853.091, 12320.650
853.573, 12472.410
854.055, 12593.520
854.537, 12683.780
855.019, 12733.850
855.502, 12707.900
855.984, 12592.590
856.466, 12396.010
856.948, 12114.810
857.430, 11761.470
857.912, 11367.070
858.394, 10926.430
858.876, 10477.410
859.358, 10029.020
859.841, 9578.295
860.323, 9105.501
860.805, 8629.345
861.287, 8203.239
861.769, 7871.075
862.251, 7565.364
862.733, 7263.544
863.215, 6969.476
863.698, 6698.525
864.180, 6450.249
864.662, 6219.568
865.144, 6001.275
865.626, 5798.881
866.108, 5620.169
866.590, 5461.413
867.072, 5314.518
867.554, 5173.942
868.037, 5045.644
868.519, 4944.795
869.001, 4856.208
869.483, 4760.214
869.965, 4630.424
870.447, 4524.502
870.929, 4454.184
871.411, 4399.035
871.894, 4328.624
872.376, 4244.805
872.858, 4168.116
873.340, 4100.834
873.822, 4043.362
874.304, 4000.067
874.786, 3964.899
875.268, 3930.172
875.750, 3894.944
876.233, 3858.118
876.715, 3818.861
877.197, 3778.249
877.679, 3735.533
878.161, 3688.981
878.643, 3652.318
879.125, 3626.978
879.607, 3605.686
880.090, 3585.045
880.572, 3562.507
881.054, 3530.391
881.536, 3486.773
882.018, 3452.919
882.500, 3450.549
882.982, 3452.364
883.464, 3438.548
883.946, 3406.715
884.429, 3383.396
884.911, 3370.696
885.393, 3359.420
885.875, 3344.879
886.357, 3326.951
886.839, 3299.634
887.321, 3265.229
887.803, 3243.485
888.285, 3262.214
888.768, 3282.967
889.250, 3277.881
889.732, 3248.033
890.214, 3232.224
890.696, 3242.914
891.178, 3242.433
891.660, 3211.020
892.142, 3162.759
892.625, 3145.857
893.107, 3155.575
893.589, 3161.946
894.071, 3147.407
894.553, 3125.995
895.035, 3105.081
895.517, 3085.979
895.999, 3072.453
896.481, 3070.090
896.964, 3066.430
897.446, 3058.571
897.928, 3049.743
898.410, 3047.459
898.892, 3051.106
899.374, 3053.683
899.856, 3054.037
900.338, 3051.098
900.821, 3042.212
901.303, 3029.921
901.785, 3017.455
902.267, 3004.844
902.749, 2994.146
903.231, 2988.276
903.713, 2981.739
904.195, 2966.190
904.677, 2940.957
905.160, 2928.511
905.642, 2931.285
906.124, 2940.472
906.606, 2953.718
907.088, 2965.235
907.570, 2965.930
908.052, 2953.303
908.534, 2941.103
909.017, 2932.121
909.499, 2925.875
909.981, 2923.824
910.463, 2926.139
910.945, 2918.776
911.427, 2900.738
911.909, 2883.777
912.391, 2874.985
912.873, 2872.542
913.356, 2875.254
913.838, 2882.361
914.320, 2890.155
914.802, 2901.369
915.284, 2908.274
915.766, 2903.752
916.248, 2892.837
916.730, 2898.507
917.213, 2924.598
917.695, 2938.898
918.177, 2926.961
918.659, 2903.221
919.141, 2884.482
919.623, 2872.604
920.105, 2871.418
920.587, 2900.312
921.069, 2918.490
921.552, 2903.342
922.034, 2875.269
922.516, 2860.781
922.998, 2862.981
923.480, 2863.946
923.962, 2861.639
924.444, 2857.907
924.926, 2852.830
925.409, 2848.580
925.891, 2850.405
926.373, 2860.685
926.855, 2869.270
927.337, 2871.476
927.819, 2870.416
928.301, 2867.707
928.783, 2862.494
929.265, 2863.021
929.748, 2870.874
930.230, 2875.887
930.712, 2866.798
931.194, 2851.093
931.676, 2840.585
932.158, 2836.089
932.640, 2840.825
933.122, 2877.517
933.605, 2902.214
934.087, 2883.115
934.569, 2833.648
935.051, 2813.678
935.533, 2828.377
936.015, 2844.294
936.497, 2850.900
936.979, 2851.273
937.461, 2850.688
937.944, 2848.041
938.426, 2840.595
938.908, 2818.826
939.390, 2802.907
939.872, 2800.029
940.354, 2806.570
940.836, 2819.798
941.318, 2842.018
941.801, 2859.206
942.283, 2870.442
942.765, 2874.136
943.247, 2860.544
943.729, 2841.001
944.211, 2836.611
944.693, 2852.530
945.175, 2866.726
945.657, 2872.015
946.140, 2870.881
946.622, 2862.085
947.104, 2844.760
947.586, 2845.976
948.068, 2868.397
948.550, 2885.921
949.032, 2875.893
949.514, 2853.945
949.996, 2841.150
950.479, 2837.168
950.961, 2839.308
951.443, 2852.477
951.925, 2864.755
952.407, 2873.096
952.889, 2878.095
953.371, 2881.514
953.853, 2883.478
954.336, 2880.953
954.818, 2871.899
955.300, 2861.171
955.782, 2853.518
956.264, 2848.491
956.746, 2845.192
957.228, 2841.976
957.710, 2843.634
958.192, 2852.169
958.675, 2864.465
959.157, 2881.661
959.639, 2904.273
960.121, 2905.412
960.603, 2883.256
961.085, 2862.211
961.567, 2865.315
962.049, 2877.912
962.532, 2888.314
963.014, 2895.110
963.496, 2890.987
963.978, 2859.521
964.460, 2839.471
964.942, 2848.850
965.424, 2876.936
965.906, 2881.925
966.388, 2866.241
966.871, 2851.659
967.353, 2849.275
967.835, 2848.992
968.317, 2838.966
968.799, 2826.349
969.281, 2823.816
969.763, 2839.517
970.245, 2855.917
970.728, 2874.590
971.210, 2889.226
971.692, 2889.033
972.174, 2877.738
972.656, 2870.300
973.138, 2868.936
973.620, 2866.407
974.102, 2852.670
974.584, 2839.719
975.067, 2839.188
975.549, 2853.106
976.031, 2856.541
976.513, 2846.166
976.995, 2835.419
977.477, 2830.774
977.959, 2830.668
978.441, 2832.273
978.924, 2835.252
979.406, 2838.385
979.888, 2843.583
980.370, 2846.086
980.852, 2838.824
981.334, 2829.538
981.816, 2834.264
982.298, 2857.800
982.780, 2865.932
983.263, 2850.506
983.745, 2830.878
984.227, 2831.367
984.709, 2842.865
985.191, 2851.474
985.673, 2854.537
986.155, 2856.280
986.637, 2853.324
987.119, 2854.272
987.602, 2867.920
988.084, 2892.894
988.566, 2892.511
989.048, 2866.891
989.530, 2840.120
990.012, 2821.262
990.494, 2812.423
990.976, 2822.202
991.459, 2844.133
991.941, 2858.336
992.423, 2851.790
992.905, 2851.313
993.387, 2863.198
993.869, 2879.190
994.351, 2884.873
994.833, 2882.174
995.315, 2880.367
995.798, 2881.768
996.280, 2881.801
996.762, 2870.168
997.244, 2860.443
997.726, 2867.872
998.208, 2897.736
998.690, 2915.519
999.172, 2919.416
999.655, 2916.989
1000.137, 2910.313
1000.619, 2901.647
1001.101, 2895.129
1001.583, 2890.853
1002.066, 2888.949
1002.548, 2891.899
1003.030, 2894.491
1003.512, 2893.088
1003.994, 2890.879
1004.476, 2897.139
1004.958, 2913.424
1005.440, 2912.593
1005.922, 2886.271
1006.405, 2855.780
1006.887, 2840.742
1007.369, 2838.257
1007.851, 2847.519
1008.333, 2872.839
1008.815, 2888.979
1009.297, 2887.791
1009.779, 2885.378
1010.262, 2891.990
1010.744, 2905.237
1011.226, 2909.251
1011.708, 2905.177
1012.190, 2901.883
1012.672, 2908.710
1013.154, 2913.734
1013.636, 2906.183
1014.118, 2891.379
1014.601, 2882.854
1015.083, 2881.089
1015.565, 2886.197
1016.047, 2900.367
1016.529, 2915.178
1017.011, 2921.777
1017.493, 2920.346
1017.975, 2906.802
1018.458, 2877.310
1018.940, 2860.445
1019.422, 2882.888
1019.904, 2905.937
1020.386, 2905.114
1020.868, 2883.421
1021.350, 2889.666
1021.832, 2923.732
1022.314, 2946.287
1022.797, 2922.428
1023.279, 2890.376
1023.761, 2890.222
1024.243, 2909.673
1024.725, 2922.382
1025.207, 2918.333
1025.689, 2915.105
1026.171, 2913.917
1026.653, 2914.055
1027.136, 2915.361
1027.618, 2917.225
1028.100, 2917.961
1028.582, 2917.398
1029.064, 2914.689
1029.546, 2903.322
1030.028, 2895.177
1030.510, 2899.310
1030.993, 2914.152
1031.475, 2927.080
1031.957, 2938.529
1032.439, 2944.234
1032.921, 2938.868
1033.403, 2931.799
1033.885, 2937.619
1034.367, 2950.783
1034.849, 2961.175
1035.332, 2969.465
1035.814, 2968.200
1036.296, 2951.246
1036.778, 2933.199
1037.260, 2930.438
1037.742, 2940.088
1038.224, 2945.257
1038.706, 2945.091
1039.188, 2940.661
1039.671, 2922.013
1040.153, 2909.082
1040.635, 2922.620
1041.117, 2955.543
1041.599, 2966.797
1042.081, 2952.136
1042.563, 2934.758
1043.045, 2918.051
1043.528, 2908.360
1044.010, 2923.256
1044.492, 2948.996
1044.974, 2961.128
1045.456, 2947.406
1045.938, 2937.004
1046.420, 2938.705
1046.902, 2940.538
1047.385, 2932.198
1047.867, 2915.592
1048.349, 2911.273
1048.831, 2918.545
1049.313, 2928.856
1049.795, 2940.928
1050.277, 2950.482
1050.759, 2953.259
1051.241, 2951.520
1051.724, 2952.596
1052.206, 2958.522
1052.688, 2959.260
1053.170, 2952.179
1053.652, 2944.034
1054.134, 2943.577
1054.616, 2947.197
1055.098, 2950.128
1055.580, 2951.994
1056.063, 2949.365
1056.545, 2934.244
1057.027, 2923.468
1057.509, 2925.286
1057.991, 2936.531
1058.473, 2943.992
1058.955, 2948.087
1059.437, 2951.603
1059.920, 2957.712
1060.402, 2960.618
1060.884, 2953.298
1061.366, 2942.279
1061.848, 2936.047
1062.330, 2934.403
1062.812, 2940.525
1063.294, 2956.327
1063.776, 2970.603
1064.259, 2970.551
1064.741, 2965.222
1065.223, 2968.604
1065.705, 2979.813
1066.187, 2986.261
1066.669, 2979.482
1067.151, 2974.390
1067.633, 2974.929
1068.115, 2978.133
1068.598, 2978.433
1069.080, 2976.178
1069.562, 2971.698
1070.044, 2963.497
1070.526, 2959.645
1071.008, 2972.956
1071.490, 2985.951
1071.972, 2983.480
1072.455, 2964.814
1072.937, 2954.628
1073.419, 2953.258
1073.901, 2956.469
1074.383, 2966.462
1074.865, 2975.710
1075.347, 2974.135
1075.829, 2965.752
1076.312, 2959.008
1076.794, 2953.637
1077.276, 2954.018
1077.758, 2962.346
1078.240, 2972.427
1078.722, 2977.691
1079.204, 2979.293
1079.686, 2979.459
1080.168, 2978.456
1080.651, 2977.329
1081.133, 2977.397
1081.615, 2976.478
1082.097, 2973.392
1082.579, 2968.900
1083.061, 2963.973
1083.543, 2958.928
1084.025, 2959.951
1084.508, 2971.851
1084.990, 2980.328
1085.472, 2967.088
1085.954, 2947.675
1086.436, 2938.357
1086.918, 2941.172
1087.400, 2949.235
1087.882, 2964.353
1088.365, 2976.611
1088.847, 2979.380
1089.329, 2976.111
1089.811, 2968.737
1090.293, 2960.082
1090.775, 2957.413
1091.257, 2966.786
1091.739, 2978.085
1092.221, 2993.490
1092.703, 3005.380
1093.186, 3000.426
1093.668, 2984.219
1094.150, 2981.656
1094.632, 2993.965
1095.114, 3002.738
1095.596, 2994.719
1096.078, 2982.687
1096.560, 2967.538
1097.043, 2954.644
1097.525, 2967.015
1098.007, 3005.211
1098.489, 3021.170
1098.971, 2997.881
1099.453, 2967.597
1099.935, 2958.328
1100.417, 2960.469
1100.900, 2964.213
1101.382, 2968.133
1101.864, 2976.831
1102.346, 2992.386
1102.828, 3004.390
1103.310, 3005.206
1103.792, 3000.823
1104.274, 3001.717
1104.756, 3005.969
1105.239, 3009.136
1105.721, 3004.774
1106.203, 3007.559
1106.685, 3023.848
1107.167, 3039.606
1107.649, 3039.975
1108.131, 3027.984
1108.613, 3013.161
1109.095, 2996.992
1109.578, 2988.680
1110.060, 3000.817
1110.542, 3014.168
1111.024, 3021.654
1111.506, 3023.750
1111.988, 3018.966
1112.470, 3007.612
1112.952, 3001.275
1113.435, 3002.431
1113.917, 3007.377
1114.399, 3018.116
1114.881, 3027.354
1115.363, 3026.381
1115.845, 3014.642
1116.327, 3009.521
1116.809, 3012.095
1117.292, 3015.184
1117.774, 3014.812
1118.256, 3015.175
1118.738, 3027.412
1119.220, 3042.761
1119.702, 3046.183
1120.184, 3020.800
1120.666, 3012.523
1121.148, 3029.756
1121.630, 3049.019
1122.113, 3051.792
1122.595, 3043.635
1123.077, 3040.445
1123.559, 3040.504
1124.041, 3036.735
1124.523, 3014.297
1125.005, 3003.809
1125.487, 3017.107
1125.970, 3039.548
1126.452, 3052.763
1126.934, 3057.565
1127.416, 3058.568
1127.898, 3056.261
1128.380, 3055.629
1128.862, 3064.555
1129.344, 3071.516
1129.827, 3068.254
1130.309, 3057.933
1130.791, 3048.841
1131.273, 3040.915
1131.755, 3035.900
1132.237, 3033.706
1132.719, 3036.328
1133.201, 2900.189
1133.683, 2864.871
1134.166, 3305.260
1134.648, 4309.053
1135.130, 4790.535
1135.612, 4689.870
1136.094, 4353.059
1136.576, 3818.145
1137.058, 3289.599
1137.540, 3072.463
1138.022, 3056.466
1138.505, 3060.068
1138.987, 3045.901
1139.469, 3042.871
1139.951, 3055.562
1140.433, 3068.647
1140.915, 3068.600
1141.397, 3060.921
1141.879, 3056.261
1142.362, 3054.764
1142.844, 3056.448
1143.326, 3070.081
1143.808, 3073.404
1144.290, 3056.337
1144.772, 3037.146
1145.254, 3044.476
1145.736, 3069.518
1146.219, 3077.289
1146.701, 3065.527
1147.183, 3054.289
1147.665, 3058.657
1148.147, 3060.497
1148.629, 3050.936
1149.111, 3034.656
1149.593, 3020.227
1150.075, 3008.743
1150.557, 3012.619
1151.040, 3037.582
1151.522, 3060.081
1152.004, 3059.128
1152.486, 3052.835
1152.968, 3055.127
1153.450, 3065.139
1153.932, 3072.093
1154.414, 3075.994
1154.897, 3075.991
1155.379, 3071.255
1155.861, 3063.502
1156.343, 3050.223
1156.825, 3036.792
1157.307, 3029.349
1157.789, 3026.752
1158.271, 3038.735
1158.754, 3068.043
1159.236, 3091.728
1159.718, 3091.012
1160.200, 3080.323
1160.682, 3073.325
1161.164, 3069.447
1161.646, 3067.748
1162.128, 3069.636
1162.610, 3069.740
1163.093, 3067.370
1163.575, 3064.938
1164.057, 3065.801
1164.539, 3067.289
1165.021, 3062.228
1165.503, 3053.061
1165.985, 3053.300
1166.467, 3074.835
1166.949, 3091.081
1167.432, 3098.822
1167.914, 3098.604
1168.396, 3084.363
1168.878, 3064.919
1169.360, 3060.064
1169.842, 3071.933
1170.324, 3081.083
1170.806, 3079.713
1171.289, 3076.818
1171.771, 3074.927
1172.253, 3072.645
1172.735, 3062.089
1173.217, 3049.211
1173.699, 3053.023
1174.181, 3081.556
1174.663, 3105.935
1175.146, 3114.016
1175.628, 3115.905
1176.110, 3115.654
1176.592, 3112.448
1177.074, 3100.520
1177.556, 3082.223
1178.038, 3068.143
1178.520, 3061.967
1179.002, 3059.923
1179.484, 3060.900
1179.967, 3065.252
1180.449, 3075.016
1180.931, 3089.348
1181.413, 3096.984
1181.895, 3097.991
1182.377, 3093.250
1182.859, 3074.767
1183.341, 3060.590
1183.824, 3059.128
1184.306, 3066.622
1184.788, 3083.424
1185.270, 3109.965
1185.752, 3113.494
1186.234, 3093.969
1186.716, 3072.691
1187.198, 3058.377
1187.681, 3052.123
1188.163, 3057.947
1188.645, 3071.282
1189.127, 3085.989
1189.609, 3102.676
1190.091, 3106.080
1190.573, 3094.117
1191.055, 3082.093
1191.537, 3078.100
1192.020, 3082.325
1192.502, 3102.688
1192.984, 3130.960
1193.466, 3140.236
1193.948, 3129.164
1194.430, 3117.084
1194.912, 3106.895
1195.394, 3100.297
1195.876, 3101.502
1196.359, 3104.940
1196.841, 3102.688
1197.323, 3096.408
1197.805, 3109.557
1198.287, 3146.103
1198.769, 3159.759
1199.251, 3129.623
1199.733, 3094.599
1200.216, 3098.443
1200.698, 3116.530
1201.180, 3123.411
1201.662, 3116.671
1202.144, 3107.639
1202.626, 3094.781
1203.108, 3093.839
1203.590, 3119.155
1204.073, 3144.651
1204.555, 3135.791
1205.037, 3112.786
1205.519, 3103.106
1206.001, 3111.579
1206.483, 3120.615
1206.965, 3130.537
1207.447, 3139.141
1207.929, 3148.424
1208.411, 3152.257
1208.894, 3134.632
1209.376, 3109.953
1209.858, 3105.489
1210.340, 3136.142
1210.822, 3145.315
1211.304, 3129.571
1211.786, 3113.628
1212.268, 3117.412
1212.751, 3128.897
1213.233, 3136.927
1213.715, 3141.963
1214.197, 3145.231
1214.679, 3146.538
1215.161, 3148.145
1215.643, 3150.658
1216.125, 3150.528
1216.608, 3138.481
1217.090, 3126.914
1217.572, 3135.642
1218.054, 3157.452
1218.536, 3159.812
1219.018, 3132.010
1219.500, 3120.039
1219.982, 3131.397
1220.464, 3147.972
1220.947, 3152.244
1221.429, 3151.250
1221.911, 3152.451
1222.393, 3155.684
1222.875, 3155.971
1223.357, 3151.444
1223.839, 3152.903
1224.321, 3164.700
1224.803, 3172.388
1225.286, 3147.765
1225.768, 3119.098
1226.250, 3120.465
1226.732, 3153.396
1227.214, 3173.060
1227.696, 3176.113
1228.178, 3181.906
1228.660, 3197.239
1229.143, 3210.772
1229.625, 3207.131
1230.107, 3196.635
1230.589, 3191.133
1231.071, 3191.942
1231.553, 3186.291
1232.035, 3172.905
1232.517, 3161.021
1233.000, 3152.316
1233.482, 3150.132
1233.964, 3162.290
1234.446, 3180.342
1234.928, 3196.729
1235.410, 3211.420
1235.892, 3213.234
1236.374, 3201.271
1236.856, 3185.117
1237.339, 3163.998
1237.821, 3149.212
1238.303, 3162.055
1238.785, 3181.625
1239.267, 3178.741
1239.749, 3149.246
1240.231, 3133.697
1240.713, 3131.973
1241.195, 3141.246
1241.678, 3166.247
1242.160, 3192.606
1242.642, 3213.002
1243.124, 3224.211
1243.606, 3219.975
1244.088, 3197.570
1244.570, 3187.504
1245.052, 3189.632
1245.535, 3193.062
1246.017, 3189.358
1246.499, 3186.913
1246.981, 3196.077
1247.463, 3207.042
1247.945, 3205.347
1248.427, 3189.213
1248.909, 3184.359
1249.391, 3190.647
1249.874, 3198.619
1250.356, 3201.875
1250.838, 3205.532
1251.320, 3214.264
1251.802, 3223.911
1252.284, 3230.617
1252.766, 3234.260
1253.248, 3224.457
1253.730, 3202.429
1254.213, 3191.290
1254.695, 3222.497
1255.177, 3247.539
1255.659, 3238.819
1256.141, 3217.064
1256.623, 3209.749
1257.105, 3213.946
1257.587, 3204.214
1258.070, 3180.326
1258.552, 3161.323
1259.034, 3156.932
1259.516, 3160.634
1259.998, 3172.136
1260.480, 3187.162
1260.962, 3201.238
1261.444, 3213.692
1261.927, 3220.821
1262.409, 3222.746
1262.891, 3224.197
1263.373, 3227.817
1263.855, 3230.104
1264.337, 3228.495
1264.819, 3227.857
1265.301, 3239.957
1265.783, 3257.408
1266.266, 3261.549
1266.748, 3251.183
1267.230, 3239.521
1267.712, 3225.989
1268.194, 3220.326
1268.676, 3227.320
1269.158, 3237.182
1269.640, 3231.351
1270.122, 3220.127
1270.605, 3223.569
1271.087, 3243.392
1271.569, 3254.126
1272.051, 3251.980
1272.533, 3242.188
1273.015, 3223.375
1273.497, 3205.272
1273.979, 3200.650
1274.462, 3204.805
1274.944, 3214.966
1275.426, 3230.391
1275.908, 3235.600
1276.390, 3227.262
1276.872, 3220.772
1277.354, 3218.594
1277.836, 3225.008
1278.318, 3259.899
1278.801, 3295.015
1279.283, 3294.828
1279.765, 3261.151
1280.247, 3247.528
1280.729, 3255.244
1281.211, 3260.320
1281.693, 3254.375
1282.175, 3251.339
1282.657, 3270.581
1283.140, 3291.689
1283.622, 3297.181
1284.104, 3289.523
1284.586, 3280.288
1285.068, 3269.682
1285.550, 3258.962
1286.032, 3246.542
1286.514, 3241.881
1286.997, 3258.530
1287.479, 3277.458
1287.961, 3288.506
1288.443, 3292.519
1288.925, 3290.312
1289.407, 3283.414
1289.889, 3278.540
1290.371, 3278.642
1290.854, 3276.014
1291.336, 3260.014
1291.818, 3250.991
1292.300, 3260.515
1292.782, 3280.024
1293.264, 3290.188
1293.746, 3292.530
1294.228, 3290.270
1294.710, 3283.766
1295.193, 3273.473
1295.675, 3256.628
1296.157, 3243.458
1296.639, 3238.358
1297.121, 3239.713
1297.603, 3247.720
1298.085, 3259.047
1298.567, 3268.371
1299.049, 3274.318
1299.532, 3279.012
1300.014, 3282.177
1300.496, 3285.544
1300.978, 3290.311
1301.460, 3294.788
1301.942, 3299.181
1302.424, 3300.917
1302.906, 3293.666
1303.389, 3277.069
1303.871, 3275.697
1304.353, 3289.746
1304.835, 3297.519
##END=



