##NAMES=Malayaite
##RRUFFID=R061106
##IDEAL CHEMISTRY=CaSn^4+^O(SiO_4_)
##LOCALITY=Meldon, Dartmoor, Devon, England
##OWNER=RRUFF
##SOURCE=Michael Scott
##DESCRIPTION=Dark yellow massive associated with wollastonite and garnet
##STATUS=The identification of this mineral is confirmed by single-crystal X-ray diffraction and chemical analysis.
##URL=rruff.info/R061106
##MEASURED CHEMISTRY=Ca_1.00_Sn_1.00_O(Si_1.00_O_4_)
124.9396, 2673.204
125.4217, 2754.535
125.9038, 2850.853
126.3860, 2981.467
126.8681, 3136.851
127.3502, 3292.241
127.8323, 3443.404
128.3144, 3587.419
128.7965, 3713.956
129.2787, 3818.669
129.7608, 3916.988
130.2429, 4034.355
130.7250, 4168.306
131.2071, 4295.713
131.6892, 4387.556
132.1714, 4452.601
132.6535, 4552.523
133.1356, 4702.743
133.6177, 4884.758
134.0998, 5073.169
134.5819, 5279.327
135.0640, 5421.939
135.5462, 5421.984
136.0283, 5275.325
136.5104, 5076.248
136.9925, 4825.263
137.4746, 4528.232
137.9567, 4288.580
138.4389, 4105.738
138.9210, 3968.671
139.4031, 3868.014
139.8852, 3805.466
140.3673, 3767.849
140.8494, 3755.382
141.3316, 3776.005
141.8137, 3785.473
142.2958, 3777.118
142.7779, 3761.705
143.2600, 3765.261
143.7421, 3796.776
144.2243, 3833.134
144.7064, 3863.003
145.1885, 3882.647
145.6706, 3903.601
146.1527, 3928.625
146.6348, 3956.227
147.1170, 3976.382
147.5991, 3985.857
148.0812, 3989.902
148.5633, 3991.616
149.0454, 3978.963
149.5275, 3977.273
150.0097, 3993.142
150.4918, 4029.086
150.9739, 4060.030
151.4560, 4083.119
151.9381, 4101.741
152.4202, 4119.673
152.9024, 4133.481
153.3845, 4149.542
153.8666, 4171.133
154.3487, 4201.989
154.8308, 4227.520
155.3129, 4239.620
155.7950, 4246.070
156.2772, 4260.089
156.7593, 4284.312
157.2414, 4316.837
157.7235, 4357.882
158.2056, 4413.438
158.6877, 4467.566
159.1699, 4504.819
159.6520, 4534.201
160.1341, 4586.404
160.6162, 4685.996
161.0983, 4804.420
161.5804, 4921.786
162.0626, 5019.579
162.5447, 5125.772
163.0268, 5253.176
163.5089, 5400.594
163.9910, 5554.197
164.4731, 5703.367
164.9553, 5856.484
165.4374, 6022.785
165.9195, 6208.093
166.4016, 6405.572
166.8837, 6614.315
167.3658, 6834.566
167.8480, 7061.029
168.3301, 7285.047
168.8122, 7513.037
169.2943, 7756.441
169.7764, 8041.988
170.2585, 8335.106
170.7407, 8607.471
171.2228, 8860.087
171.7049, 9083.278
172.1870, 9284.293
172.6691, 9453.869
173.1512, 9560.727
173.6334, 9561.345
174.1155, 9497.665
174.5976, 9428.051
175.0797, 9370.043
175.5618, 9299.532
176.0439, 9180.876
176.5260, 9019.705
177.0082, 8856.456
177.4903, 8705.641
177.9724, 8571.580
178.4545, 8468.033
178.9366, 8399.693
179.4187, 8359.492
179.9009, 8348.145
180.3830, 8365.150
180.8651, 8380.080
181.3472, 8380.475
181.8293, 8359.891
182.3114, 8297.370
182.7936, 8184.073
183.2757, 8024.409
183.7578, 7815.376
184.2399, 7555.875
184.7220, 7267.215
185.2041, 6965.177
185.6863, 6651.032
186.1684, 6352.930
186.6505, 6073.320
187.1326, 5818.009
187.6147, 5597.271
188.0968, 5412.216
188.5790, 5253.641
189.0611, 5108.217
189.5432, 4976.501
190.0253, 4852.581
190.5074, 4727.962
190.9895, 4606.198
191.4717, 4502.793
191.9538, 4420.087
192.4359, 4353.077
192.9180, 4292.088
193.4001, 4236.583
193.8822, 4186.428
194.3644, 4141.478
194.8465, 4101.632
195.3286, 4066.699
195.8107, 4037.658
196.2928, 4012.743
196.7749, 3986.664
197.2570, 3959.279
197.7392, 3931.410
198.2213, 3900.943
198.7034, 3866.706
199.1855, 3844.711
199.6676, 3842.220
200.1497, 3854.826
200.6319, 3857.169
201.1140, 3848.070
201.5961, 3832.532
202.0782, 3812.842
202.5603, 3787.011
203.0424, 3770.192
203.5246, 3772.513
204.0067, 3792.794
204.4888, 3788.810
204.9709, 3751.670
205.4530, 3706.058
205.9352, 3686.319
206.4173, 3698.905
206.8994, 3713.155
207.3815, 3718.394
207.8636, 3713.750
208.3457, 3710.504
208.8279, 3707.903
209.3100, 3707.379
209.7921, 3711.889
210.2742, 3722.608
210.7563, 3734.937
211.2384, 3745.442
211.7206, 3751.877
212.2027, 3767.771
212.6848, 3797.539
213.1669, 3833.960
213.6490, 3859.966
214.1311, 3873.569
214.6133, 3881.379
215.0954, 3883.138
215.5775, 3871.768
216.0596, 3878.731
216.5417, 3912.056
217.0238, 3962.733
217.5059, 4002.264
217.9881, 4025.410
218.4702, 4046.671
218.9523, 4075.412
219.4344, 4115.397
219.9165, 4152.649
220.3986, 4187.080
220.8808, 4218.188
221.3629, 4245.957
221.8450, 4275.454
222.3271, 4294.583
222.8092, 4295.207
223.2913, 4274.824
223.7735, 4240.412
224.2556, 4186.765
224.7377, 4116.186
225.2198, 4061.328
225.7019, 4029.182
226.1840, 4003.602
226.6662, 3969.198
227.1483, 3914.642
227.6304, 3875.014
228.1125, 3859.931
228.5946, 3869.350
229.0767, 3868.714
229.5589, 3850.158
230.0410, 3829.501
230.5231, 3823.741
231.0052, 3846.507
231.4873, 3858.482
231.9694, 3847.591
232.4516, 3811.206
232.9337, 3788.872
233.4158, 3781.445
233.8979, 3787.375
234.3800, 3808.267
234.8621, 3860.903
235.3443, 3899.004
235.8264, 3908.150
236.3085, 3883.179
236.7906, 3864.913
237.2727, 3855.538
237.7548, 3851.281
238.2369, 3846.532
238.7191, 3837.317
239.2012, 3834.333
239.6833, 3844.723
240.1654, 3876.029
240.6475, 3883.952
241.1296, 3853.599
241.6118, 3808.545
242.0939, 3786.704
242.5760, 3797.657
243.0581, 3816.238
243.5402, 3836.774
244.0223, 3862.099
244.5045, 3878.004
244.9866, 3881.201
245.4687, 3876.843
245.9508, 3874.281
246.4329, 3874.844
246.9150, 3875.556
247.3972, 3875.650
247.8793, 3875.581
248.3614, 3873.731
248.8435, 3867.790
249.3256, 3861.212
249.8077, 3861.880
250.2899, 3873.724
250.7720, 3886.301
251.2541, 3895.677
251.7362, 3901.452
252.2183, 3904.039
252.7004, 3900.956
253.1826, 3895.370
253.6647, 3895.320
254.1468, 3903.431
254.6289, 3912.467
255.1110, 3919.630
255.5931, 3925.283
256.0753, 3927.699
256.5574, 3925.370
257.0395, 3920.450
257.5216, 3919.006
258.0037, 3922.856
258.4858, 3927.176
258.9680, 3929.342
259.4501, 3927.983
259.9322, 3928.764
260.4143, 3931.695
260.8964, 3937.090
261.3785, 3946.396
261.8607, 3962.137
262.3428, 3977.194
262.8249, 3987.011
263.3070, 3988.594
263.7891, 3995.021
264.2712, 4008.608
264.7534, 4026.799
265.2355, 4042.218
265.7176, 4056.730
266.1997, 4064.526
266.6818, 4057.868
267.1639, 4028.480
267.6461, 4018.389
268.1282, 4035.808
268.6103, 4071.770
269.0924, 4100.282
269.5745, 4120.403
270.0566, 4134.705
270.5387, 4143.323
271.0208, 4144.578
271.5030, 4147.495
271.9851, 4151.125
272.4672, 4157.727
272.9493, 4177.813
273.4314, 4216.638
273.9135, 4251.488
274.3957, 4263.015
274.8778, 4246.637
275.3599, 4242.375
275.8420, 4255.199
276.3241, 4281.736
276.8062, 4315.222
277.2884, 4357.860
277.7705, 4398.235
278.2526, 4425.108
278.7347, 4437.189
279.2168, 4461.091
279.6989, 4503.018
280.1811, 4555.907
280.6632, 4602.134
281.1453, 4640.541
281.6274, 4680.184
282.1095, 4726.352
282.5916, 4779.059
283.0738, 4837.526
283.5559, 4902.333
284.0380, 4972.393
284.5201, 5042.744
285.0022, 5113.201
285.4843, 5189.421
285.9665, 5269.829
286.4486, 5355.987
286.9307, 5470.657
287.4128, 5624.497
287.8949, 5795.095
288.3770, 5933.201
288.8592, 6039.445
289.3413, 6134.957
289.8234, 6242.092
290.3055, 6354.117
290.7876, 6430.689
291.2697, 6462.388
291.7519, 6466.607
292.2340, 6469.529
292.7161, 6471.116
293.1982, 6470.382
293.6803, 6466.215
294.1624, 6459.231
294.6446, 6452.802
295.1267, 6449.517
295.6088, 6442.090
296.0909, 6411.193
296.5730, 6361.899
297.0551, 6322.674
297.5373, 6318.506
298.0194, 6336.517
298.5015, 6346.520
298.9836, 6339.350
299.4657, 6338.412
299.9478, 6375.175
300.4300, 6443.850
300.9121, 6522.491
301.3942, 6607.153
301.8763, 6690.828
302.3584, 6760.950
302.8405, 6816.176
303.3227, 6859.546
303.8048, 6887.717
304.2869, 6905.450
304.7690, 6928.087
305.2511, 6947.931
305.7332, 6983.713
306.2154, 7057.788
306.6975, 7173.706
307.1796, 7320.761
307.6617, 7487.694
308.1438, 7676.806
308.6259, 7899.967
309.1081, 8144.887
309.5901, 8433.591
310.0723, 8793.914
310.5544, 9232.826
311.0365, 9708.937
311.5186, 10194.82
312.0007, 10706.15
312.4828, 11265.12
312.9650, 11897.29
313.4471, 12574.65
313.9292, 13268.77
314.4113, 13973.34
314.8934, 14725.53
315.3755, 15551.16
315.8577, 16438.86
316.3398, 17348.52
316.8219, 18244.39
317.3040, 19187.35
317.7861, 20218.48
318.2682, 21346.64
318.7504, 22480.54
319.2325, 23632.19
319.7146, 24773.43
320.1967, 25864.34
320.6788, 27016.33
321.1609, 28014.35
321.6431, 28836.92
322.1252, 29489.23
322.6073, 29818.84
323.0894, 29792.16
323.5715, 29433.65
324.0536, 28761.59
324.5358, 27619.75
325.0179, 26338.72
325.5000, 24922.69
325.9821, 23382.88
326.4642, 21882.20
326.9464, 20391.78
327.4285, 18966.46
327.9106, 17636.56
328.3927, 16408.38
328.8748, 15282.84
329.3569, 14268.86
329.8391, 13361.98
330.3212, 12568.58
330.8033, 11930.46
331.2854, 11364.68
331.7675, 10826.72
332.2496, 10293.75
332.7318, 9822.291
333.2139, 9419.986
333.6960, 9081.986
334.1781, 8773.245
334.6602, 8494.467
335.1423, 8242.976
335.6245, 8014.852
336.1066, 7808.007
336.5887, 7628.140
337.0708, 7476.288
337.5529, 7347.629
338.0350, 7234.142
338.5172, 7137.676
338.9993, 7048.078
339.4814, 6957.672
339.9635, 6865.610
340.4456, 6787.457
340.9277, 6727.017
341.4099, 6674.921
341.8920, 6607.079
342.3741, 6520.924
342.8562, 6449.928
343.3383, 6417.979
343.8204, 6421.203
344.3026, 6411.455
344.7847, 6384.265
345.2668, 6356.793
345.7489, 6352.401
346.2310, 6369.939
346.7131, 6397.984
347.1953, 6430.667
347.6774, 6470.121
348.1595, 6521.325
348.6416, 6583.257
349.1237, 6659.088
349.6058, 6739.440
350.0880, 6833.001
350.5700, 6969.726
351.0522, 7179.033
351.5343, 7426.171
352.0164, 7656.118
352.4985, 7870.352
352.9806, 8098.620
353.4627, 8361.769
353.9449, 8655.291
354.4270, 8972.072
354.9091, 9310.236
355.3912, 9670.787
355.8733, 10045.55
356.3554, 10435.30
356.8376, 10861.45
357.3197, 11334.09
357.8018, 11849.74
358.2839, 12402.84
358.7660, 12981.20
359.2481, 13614.99
359.7303, 14387.43
360.2124, 15231.25
360.6945, 15995.99
361.1766, 16605.69
361.6587, 17117.49
362.1408, 17572.21
362.6230, 18020.53
363.1051, 18314.42
363.5872, 18534.89
364.0693, 18558.82
364.5514, 18166.39
365.0335, 17024.84
365.5157, 15710.06
365.9978, 14384.07
366.4799, 13014.84
366.9620, 11786.90
367.4441, 10733.52
367.9262, 9831.183
368.4084, 9070.619
368.8905, 8498.271
369.3726, 8003.205
369.8547, 7576.770
370.3368, 7218.847
370.8189, 6906.698
371.3011, 6651.685
371.7832, 6432.865
372.2653, 6226.912
372.7474, 6024.384
373.2295, 5859.826
373.7116, 5749.030
374.1938, 5684.025
374.6759, 5611.508
375.1580, 5526.268
375.6401, 5446.049
376.1222, 5384.515
376.6043, 5345.184
377.0865, 5309.199
377.5686, 5276.078
378.0507, 5244.262
378.5328, 5210.209
379.0149, 5173.355
379.4970, 5137.445
379.9792, 5104.080
380.4613, 5073.059
380.9434, 5046.764
381.4255, 5024.681
381.9076, 5007.682
382.3897, 5001.088
382.8719, 5002.836
383.3540, 4999.323
383.8361, 4978.240
384.3182, 4948.070
384.8003, 4928.351
385.2824, 4920.008
385.7646, 4914.897
386.2467, 4907.509
386.7288, 4897.542
387.2109, 4884.229
387.6930, 4861.080
388.1751, 4838.831
388.6573, 4831.022
389.1394, 4836.053
389.6215, 4839.186
390.1036, 4825.285
390.5857, 4807.000
391.0678, 4797.951
391.5499, 4808.795
392.0320, 4820.559
392.5142, 4826.485
392.9963, 4825.922
393.4784, 4816.630
393.9605, 4788.762
394.4426, 4758.151
394.9247, 4732.427
395.4069, 4708.766
395.8890, 4698.803
396.3711, 4718.139
396.8532, 4750.911
397.3353, 4770.070
397.8174, 4764.963
398.2996, 4752.705
398.7817, 4736.622
399.2638, 4715.478
399.7459, 4696.350
400.2280, 4675.106
400.7101, 4658.538
401.1923, 4653.989
401.6744, 4668.685
402.1565, 4682.902
402.6386, 4694.295
403.1207, 4702.741
403.6028, 4706.031
404.0850, 4701.952
404.5671, 4696.727
405.0492, 4693.899
405.5313, 4692.995
406.0134, 4698.080
406.4955, 4711.704
406.9777, 4729.500
407.4598, 4741.773
407.9419, 4748.575
408.4240, 4748.739
408.9061, 4735.163
409.3882, 4711.766
409.8704, 4704.241
410.3525, 4715.750
410.8346, 4735.850
411.3167, 4753.586
411.7988, 4769.197
412.2809, 4783.026
412.7631, 4798.356
413.2452, 4811.260
413.7273, 4813.797
414.2094, 4806.216
414.6915, 4796.028
415.1736, 4789.818
415.6558, 4784.902
416.1379, 4776.882
416.6200, 4758.064
417.1021, 4743.372
417.5842, 4746.261
418.0663, 4763.093
418.5485, 4779.289
419.0306, 4787.913
419.5127, 4793.427
419.9948, 4798.466
420.4769, 4801.830
420.9590, 4807.958
421.4412, 4821.136
421.9233, 4837.286
422.4054, 4849.601
422.8875, 4848.163
423.3696, 4850.287
423.8517, 4863.906
424.3339, 4893.091
424.8160, 4913.765
425.2981, 4921.153
425.7802, 4922.727
426.2623, 4923.464
426.7444, 4911.902
427.2266, 4920.678
427.7087, 4962.756
428.1908, 5030.927
428.6729, 5082.255
429.1550, 5110.692
429.6371, 5135.968
430.1193, 5172.174
430.6014, 5221.795
431.0835, 5259.905
431.5656, 5279.058
432.0477, 5295.400
432.5298, 5342.487
433.0119, 5420.603
433.4940, 5500.325
433.9762, 5561.453
434.4583, 5612.464
434.9404, 5687.320
435.4225, 5787.891
435.9046, 5895.533
436.3867, 5989.334
436.8689, 6074.682
437.3510, 6163.404
437.8331, 6257.203
438.3152, 6358.092
438.7973, 6474.127
439.2794, 6601.896
439.7616, 6724.066
440.2437, 6821.770
440.7258, 6911.744
441.2079, 7013.989
441.6900, 7147.579
442.1721, 7255.790
442.6543, 7311.177
443.1364, 7323.243
443.6185, 7309.212
444.1006, 7274.488
444.5827, 7214.732
445.0648, 7123.108
445.5470, 6995.208
446.0291, 6864.491
446.5112, 6738.407
446.9933, 6609.269
447.4754, 6467.673
447.9576, 6291.631
448.4397, 6138.029
448.9218, 6019.371
449.4039, 5929.412
449.8860, 5838.458
450.3681, 5741.281
450.8503, 5654.802
451.3324, 5591.357
451.8145, 5555.976
452.2966, 5514.106
452.7787, 5461.510
453.2608, 5407.336
453.7430, 5364.489
454.2251, 5333.289
454.7072, 5308.556
455.1893, 5291.465
455.6714, 5278.858
456.1535, 5260.046
456.6357, 5234.994
457.1178, 5207.877
457.5999, 5176.124
458.0820, 5145.620
458.5641, 5132.237
459.0462, 5148.203
459.5284, 5167.715
460.0105, 5163.340
460.4926, 5141.000
460.9747, 5117.595
461.4568, 5097.129
461.9389, 5081.991
462.4211, 5075.712
462.9032, 5080.189
463.3853, 5083.776
463.8674, 5081.509
464.3495, 5075.805
464.8316, 5069.395
465.3138, 5059.087
465.7959, 5051.961
466.2780, 5052.657
466.7601, 5060.153
467.2422, 5060.820
467.7243, 5044.487
468.2065, 5030.335
468.6886, 5028.651
469.1707, 5047.714
469.6528, 5061.173
470.1349, 5068.028
470.6170, 5069.961
471.0992, 5068.163
471.5813, 5060.298
472.0634, 5058.254
472.5455, 5067.518
473.0276, 5086.665
473.5097, 5108.138
473.9918, 5134.156
474.4739, 5150.008
474.9561, 5129.628
475.4382, 5083.050
475.9203, 5060.398
476.4024, 5078.081
476.8845, 5111.839
477.3666, 5130.971
477.8488, 5137.630
478.3309, 5140.346
478.8130, 5140.497
479.2951, 5140.985
479.7772, 5145.357
480.2593, 5154.208
480.7415, 5163.488
481.2236, 5169.881
481.7057, 5175.781
482.1878, 5183.919
482.6699, 5193.766
483.1520, 5207.491
483.6342, 5233.801
484.1163, 5267.926
484.5984, 5283.836
485.0805, 5254.111
485.5626, 5225.086
486.0447, 5218.068
486.5269, 5245.355
487.0090, 5265.172
487.4911, 5269.509
487.9732, 5272.015
488.4553, 5294.768
488.9374, 5346.750
489.4196, 5391.015
489.9017, 5416.458
490.3838, 5426.113
490.8659, 5437.338
491.3480, 5449.413
491.8301, 5466.478
492.3123, 5490.851
492.7944, 5522.522
493.2765, 5565.178
493.7586, 5621.286
494.2407, 5680.708
494.7228, 5723.585
495.2050, 5757.039
495.6871, 5802.804
496.1692, 5878.954
496.6513, 5967.763
497.1334, 6052.598
497.6155, 6132.997
498.0977, 6218.383
498.5798, 6308.037
499.0619, 6408.189
499.5440, 6523.210
500.0261, 6663.127
500.5082, 6804.603
500.9904, 6935.902
501.4725, 7062.921
501.9546, 7200.755
502.4367, 7349.155
502.9188, 7509.591
503.4009, 7680.042
503.8831, 7859.175
504.3652, 8060.995
504.8473, 8292.946
505.3294, 8537.960
505.8115, 8775.424
506.2936, 8996.958
506.7758, 9250.137
507.2579, 9550.355
507.7400, 9875.696
508.2221, 10179.22
508.7042, 10461.02
509.1863, 10725.99
509.6685, 10982.81
510.1506, 11224.92
510.6327, 11440.83
511.1148, 11631.81
511.5969, 11768.86
512.0790, 11834.55
512.5612, 11826.32
513.0433, 11737.28
513.5254, 11551.13
514.0075, 11304.93
514.4896, 11002.97
514.9717, 10661.34
515.4539, 10315.78
515.9360, 9974.428
516.4181, 9639.021
516.9002, 9306.467
517.3823, 8977.107
517.8644, 8666.606
518.3466, 8372.196
518.8287, 8100.752
519.3108, 7859.437
519.7929, 7645.018
520.2750, 7464.861
520.7571, 7332.080
521.2393, 7231.768
521.7214, 7109.913
522.2035, 6953.060
522.6856, 6812.830
523.1677, 6718.867
523.6498, 6668.953
524.1320, 6610.827
524.6141, 6542.252
525.0962, 6474.704
525.5783, 6417.055
526.0604, 6369.251
526.5425, 6332.686
527.0247, 6313.590
527.5068, 6297.475
527.9889, 6266.447
528.4710, 6224.140
528.9531, 6180.612
529.4352, 6132.945
529.9174, 6093.012
530.3995, 6074.414
530.8816, 6080.032
531.3637, 6083.295
531.8458, 6072.328
532.3279, 6055.313
532.8101, 6039.340
533.2922, 6016.110
533.7743, 6005.194
534.2564, 6016.733
534.7385, 6040.916
535.2206, 6054.577
535.7027, 6050.348
536.1848, 6047.097
536.6669, 6050.387
537.1490, 6060.157
537.6312, 6074.861
538.1133, 6095.160
538.5954, 6118.248
539.0775, 6143.087
539.5596, 6169.297
540.0417, 6193.524
540.5239, 6217.516
541.0060, 6234.893
541.4881, 6230.534
541.9702, 6209.908
542.4523, 6193.060
542.9344, 6186.688
543.4166, 6191.009
543.8987, 6211.556
544.3808, 6247.272
544.8629, 6278.294
545.3450, 6283.718
545.8271, 6285.456
546.3093, 6302.698
546.7914, 6352.376
547.2735, 6392.961
547.7556, 6399.052
548.2377, 6393.878
548.7198, 6419.259
549.2020, 6506.949
549.6841, 6581.510
550.1662, 6617.298
550.6483, 6620.056
551.1304, 6661.559
551.6125, 6748.689
552.0947, 6857.078
552.5768, 6975.448
553.0589, 7103.741
553.5410, 7222.702
554.0231, 7324.116
554.5052, 7442.407
554.9874, 7625.302
555.4695, 7862.911
555.9516, 8117.787
556.4337, 8369.854
556.9158, 8639.828
557.3979, 8954.829
557.8801, 9312.991
558.3622, 9697.306
558.8443, 10099.99
559.3264, 10530.37
559.8085, 10988.00
560.2906, 11472.93
560.7728, 11996.76
561.2549, 12563.30
561.7370, 13171.08
562.2191, 13818.54
562.7012, 14500.19
563.1833, 15235.22
563.6655, 16007.07
564.1476, 16832.18
564.6297, 17746.88
565.1118, 18733.97
565.5939, 19833.29
566.0760, 21065.56
566.5582, 22411.02
567.0403, 23895.08
567.5224, 25505.18
568.0045, 27255.13
568.4866, 29141.94
568.9688, 31161.82
569.4509, 33350.43
569.9330, 35749.30
570.4151, 38089.83
570.8972, 40381.53
571.3793, 42382.20
571.8615, 43559.24
572.3436, 43819.87
572.8257, 43100.22
573.3078, 41121.19
573.7899, 37962.15
574.2720, 34602.74
574.7542, 30821.48
575.2363, 27195.13
575.7184, 24002.12
576.2005, 21231.18
576.6826, 18845.35
577.1647, 16892.94
577.6469, 15269.78
578.1290, 13928.44
578.6111, 12889.51
579.0932, 11997.88
579.5753, 11241.83
580.0574, 10608.55
580.5396, 10087.99
581.0217, 9672.532
581.5038, 9307.848
581.9859, 8973.601
582.4680, 8668.860
582.9501, 8395.874
583.4323, 8152.426
583.9144, 7939.027
584.3965, 7763.310
584.8786, 7613.615
585.3607, 7478.344
585.8428, 7359.324
586.3250, 7248.908
586.8071, 7149.570
587.2892, 7056.440
587.7713, 6961.646
588.2534, 6845.870
588.7355, 6750.568
589.2177, 6690.005
589.6998, 6658.597
590.1819, 6613.073
590.6640, 6545.532
591.1461, 6482.966
591.6282, 6445.931
592.1104, 6433.718
592.5925, 6400.692
593.0746, 6343.852
593.5567, 6278.926
594.0388, 6216.163
594.5209, 6159.021
595.0031, 6120.880
595.4852, 6114.828
595.9673, 6110.549
596.4494, 6075.109
596.9315, 6019.459
597.4136, 5969.162
597.8958, 5930.611
598.3779, 5904.518
598.8600, 5898.841
599.3421, 5912.921
599.8242, 5914.497
600.3063, 5888.070
600.7885, 5856.542
601.2706, 5831.755
601.7527, 5816.802
602.2348, 5797.703
602.7169, 5771.756
603.1990, 5745.732
603.6812, 5728.065
604.1633, 5719.061
604.6454, 5715.111
605.1275, 5718.537
605.6096, 5722.095
606.0917, 5708.720
606.5739, 5681.691
607.0560, 5657.245
607.5381, 5642.743
608.0202, 5636.237
608.5023, 5638.395
608.9844, 5648.550
609.4666, 5658.140
609.9487, 5667.945
610.4308, 5672.157
610.9129, 5665.047
611.3950, 5637.308
611.8771, 5617.039
612.3593, 5614.547
612.8414, 5617.640
613.3235, 5611.979
613.8056, 5590.040
614.2877, 5578.448
614.7698, 5586.693
615.2520, 5604.775
615.7341, 5601.013
616.2162, 5574.173
616.6983, 5547.676
617.1804, 5530.781
617.6625, 5523.068
618.1446, 5527.841
618.6267, 5544.375
619.1088, 5557.276
619.5909, 5545.954
620.0731, 5528.391
620.5552, 5527.575
621.0373, 5552.219
621.5194, 5574.698
622.0015, 5578.151
622.4836, 5574.660
622.9658, 5578.492
623.4479, 5609.163
623.9300, 5625.453
624.4121, 5614.894
624.8942, 5588.073
625.3763, 5574.583
625.8585, 5577.605
626.3406, 5585.645
626.8227, 5598.951
627.3048, 5614.570
627.7869, 5607.954
628.2690, 5577.745
628.7512, 5552.069
629.2333, 5562.128
629.7154, 5590.206
630.1975, 5598.591
630.6796, 5581.037
631.1617, 5559.646
631.6439, 5554.749
632.1260, 5554.539
632.6081, 5544.201
633.0902, 5504.946
633.5723, 5473.020
634.0544, 5466.124
634.5366, 5473.176
635.0187, 5467.057
635.5008, 5431.283
635.9829, 5404.558
636.4650, 5399.804
636.9471, 5413.427
637.4293, 5417.608
637.9114, 5410.566
638.3935, 5399.904
638.8756, 5385.754
639.3577, 5370.886
639.8398, 5370.488
640.3220, 5386.004
640.8041, 5404.317
641.2862, 5413.876
641.7683, 5418.413
642.2504, 5423.615
642.7325, 5431.712
643.2147, 5438.790
643.6968, 5440.482
644.1789, 5440.434
644.6610, 5444.487
645.1431, 5466.869
645.6252, 5478.294
646.1074, 5467.967
646.5895, 5441.952
647.0716, 5426.548
647.5537, 5423.913
648.0358, 5427.137
648.5179, 5436.783
649.0001, 5451.108
649.4822, 5451.794
649.9643, 5438.007
650.4464, 5423.007
650.9285, 5416.997
651.4106, 5417.781
651.8928, 5421.404
652.3749, 5427.480
652.8570, 5435.865
653.3391, 5450.263
653.8212, 5465.470
654.3033, 5475.170
654.7855, 5469.549
655.2676, 5468.237
655.7497, 5481.812
656.2318, 5501.714
656.7139, 5509.374
657.1960, 5497.383
657.6782, 5486.084
658.1603, 5478.083
658.6424, 5474.724
659.1245, 5487.227
659.6066, 5517.868
660.0887, 5543.112
660.5709, 5544.353
661.0530, 5530.469
661.5351, 5523.250
662.0172, 5523.289
662.4993, 5529.561
662.9814, 5545.858
663.4636, 5565.563
663.9457, 5582.863
664.4278, 5598.518
664.9099, 5605.681
665.3920, 5594.299
665.8741, 5576.110
666.3563, 5565.565
666.8384, 5568.783
667.3205, 5570.419
667.8026, 5569.197
668.2847, 5565.748
668.7668, 5560.460
669.2490, 5552.827
669.7311, 5548.075
670.2132, 5547.705
670.6953, 5552.027
671.1774, 5569.012
671.6595, 5595.526
672.1417, 5608.239
672.6238, 5578.131
673.1059, 5535.736
673.5880, 5509.354
674.0701, 5501.358
674.5522, 5503.778
675.0344, 5521.440
675.5165, 5542.761
675.9986, 5559.851
676.4807, 5571.444
676.9628, 5580.021
677.4449, 5585.696
677.9271, 5587.946
678.4092, 5584.723
678.8913, 5574.701
679.3734, 5568.619
679.8555, 5568.660
680.3376, 5572.212
680.8198, 5577.301
681.3019, 5582.749
681.7840, 5583.048
682.2661, 5567.461
682.7482, 5553.919
683.2303, 5561.545
683.7125, 5585.581
684.1946, 5610.529
684.6767, 5632.987
685.1588, 5651.882
685.6409, 5669.405
686.1230, 5685.619
686.6052, 5685.961
687.0873, 5658.483
687.5694, 5632.011
688.0515, 5624.980
688.5336, 5640.398
689.0157, 5639.513
689.4979, 5618.482
689.9800, 5599.657
690.4621, 5612.910
690.9442, 5646.470
691.4263, 5668.160
691.9084, 5669.869
692.3906, 5667.403
692.8727, 5673.377
693.3548, 5683.615
693.8369, 5692.516
694.3190, 5687.013
694.8011, 5692.563
695.2833, 5726.425
695.7654, 5774.593
696.2475, 5804.405
696.7296, 5809.725
697.2117, 5807.774
697.6938, 5799.239
698.1760, 5787.277
698.6581, 5786.023
699.1402, 5795.619
699.6223, 5809.851
700.1044, 5828.478
700.5865, 5848.366
701.0686, 5865.334
701.5507, 5879.065
702.0328, 5885.137
702.5150, 5867.428
702.9971, 5850.402
703.4792, 5856.587
703.9613, 5895.373
704.4434, 5925.539
704.9255, 5934.105
705.4077, 5935.113
705.8898, 5936.515
706.3719, 5934.667
706.8540, 5945.745
707.3361, 5974.058
707.8182, 6007.892
708.3004, 6032.769
708.7825, 6049.162
709.2646, 6059.825
709.7467, 6062.968
710.2288, 6065.891
710.7109, 6073.353
711.1931, 6087.172
711.6752, 6111.367
712.1573, 6160.457
712.6394, 6207.134
713.1215, 6244.028
713.6036, 6269.964
714.0858, 6280.916
714.5679, 6269.938
715.0500, 6254.855
715.5321, 6240.600
716.0142, 6226.611
716.4963, 6208.231
716.9785, 6185.452
717.4606, 6157.960
717.9427, 6123.033
718.4248, 6083.775
718.9069, 6045.021
719.3890, 6007.485
719.8712, 5978.210
720.3533, 5972.194
720.8354, 5971.407
721.3175, 5955.904
721.7996, 5916.906
722.2817, 5889.194
722.7639, 5888.733
723.2460, 5898.783
723.7281, 5907.308
724.2102, 5918.997
724.6923, 5914.405
725.1744, 5885.601
725.6566, 5853.136
726.1387, 5845.611
726.6208, 5861.109
727.1029, 5881.230
727.5850, 5904.316
728.0671, 5924.650
728.5493, 5928.912
729.0314, 5925.508
729.5135, 5931.468
729.9956, 5967.296
730.4777, 5999.389
730.9598, 6001.613
731.4420, 5987.725
731.9241, 6002.832
732.4062, 6058.012
732.8883, 6131.029
733.3704, 6237.314
733.8525, 6356.333
734.3347, 6371.134
734.8168, 6270.743
735.2989, 6177.401
735.7810, 6164.049
736.2631, 6203.689
736.7452, 6243.050
737.2274, 6281.751
737.7095, 6315.522
738.1916, 6338.835
738.6737, 6358.336
739.1558, 6379.419
739.6379, 6402.968
740.1201, 6423.790
740.6022, 6449.247
741.0843, 6463.975
741.5664, 6456.811
742.0485, 6420.994
742.5306, 6392.811
743.0128, 6373.532
743.4949, 6357.973
743.9770, 6347.647
744.4591, 6337.361
744.9412, 6302.184
745.4233, 6233.002
745.9055, 6165.104
746.3876, 6123.774
746.8697, 6104.014
747.3518, 6100.781
747.8339, 6129.155
748.3160, 6148.693
748.7982, 6148.566
749.2803, 6134.343
749.7624, 6112.345
750.2445, 6077.226
750.7266, 6047.728
751.2087, 6024.966
751.6909, 6011.299
752.1730, 6016.302
752.6551, 6037.362
753.1372, 6054.755
753.6193, 6060.409
754.1014, 6059.663
754.5836, 6057.413
755.0657, 6053.885
755.5478, 6049.509
756.0299, 6049.296
756.5120, 6043.670
756.9941, 6021.180
757.4763, 5986.977
757.9584, 5974.444
758.4405, 5996.105
758.9226, 6014.983
759.4047, 6014.580
759.8868, 5999.644
760.3690, 5998.521
760.8511, 6011.178
761.3332, 6021.268
761.8153, 6017.196
762.2974, 6004.750
762.7795, 5988.047
763.2617, 5968.013
763.7438, 5956.766
764.2259, 5967.527
764.7080, 5983.021
765.1901, 5993.687
765.6722, 5998.137
766.1544, 5999.555
766.6365, 5996.550
767.1186, 5992.537
767.6007, 5988.623
768.0828, 5984.685
768.5649, 5988.762
769.0471, 6002.440
769.5292, 6011.925
770.0113, 5996.676
770.4934, 5970.628
770.9755, 5958.063
771.4576, 5965.019
771.9398, 5973.460
772.4219, 5977.361
772.9040, 5976.732
773.3861, 5971.098
773.8682, 5952.031
774.3503, 5943.782
774.8325, 5953.365
775.3146, 5965.475
775.7967, 5955.898
776.2788, 5924.756
776.7609, 5918.722
777.2430, 5951.360
777.7252, 5990.233
778.2073, 5991.668
778.6894, 5969.917
779.1715, 5951.296
779.6536, 5944.348
780.1357, 5941.520
780.6179, 5942.127
781.1000, 5944.067
781.5821, 5943.542
782.0642, 5936.393
782.5463, 5934.103
783.0284, 5940.458
783.5105, 5950.121
783.9926, 5949.522
784.4747, 5939.018
784.9568, 5936.912
785.4390, 5954.915
785.9211, 5974.658
786.4032, 5964.326
786.8853, 5935.523
787.3674, 5916.866
787.8495, 5928.927
788.3317, 5944.335
788.8138, 5952.524
789.2959, 5955.296
789.7780, 5960.382
790.2601, 5973.053
790.7422, 5978.153
791.2244, 5970.125
791.7065, 5953.063
792.1886, 5936.200
792.6707, 5920.302
793.1528, 5915.396
793.6349, 5939.018
794.1171, 5967.685
794.5992, 5968.401
795.0813, 5948.307
795.5634, 5934.717
796.0455, 5942.235
796.5276, 5955.612
797.0098, 5974.243
797.4919, 5995.404
797.9740, 5998.515
798.4561, 5977.071
798.9382, 5953.561
799.4203, 5935.932
799.9025, 5923.971
800.3846, 5918.188
800.8667, 5918.270
801.3488, 5918.567
801.8309, 5914.116
802.3130, 5909.319
802.7952, 5909.255
803.2773, 5913.715
803.7594, 5917.695
804.2415, 5919.739
804.7236, 5920.842
805.2057, 5921.749
805.6879, 5922.420
806.1700, 5921.616
806.6521, 5920.433
807.1342, 5913.336
807.6163, 5888.045
808.0984, 5854.261
808.5806, 5847.583
809.0627, 5866.886
809.5448, 5893.067
810.0269, 5922.523
810.5090, 5946.706
810.9911, 5956.606
811.4733, 5950.856
811.9554, 5946.112
812.4375, 5941.043
812.9196, 5942.422
813.4017, 5956.636
813.8839, 5984.366
814.3660, 5997.431
814.8481, 5994.352
815.3302, 5988.969
815.8123, 5989.896
816.2944, 5996.558
816.7766, 6008.822
817.2587, 6026.557
817.7408, 6045.852
818.2229, 6061.319
818.7050, 6079.738
819.1871, 6108.073
819.6693, 6150.953
820.1514, 6181.779
820.6335, 6194.315
821.1156, 6205.920
821.5977, 6230.073
822.0798, 6265.699
822.5620, 6293.439
823.0441, 6313.171
823.5262, 6321.417
824.0083, 6303.232
824.4904, 6278.520
824.9725, 6272.104
825.4547, 6287.730
825.9368, 6304.355
826.4189, 6314.626
826.9010, 6323.326
827.3831, 6332.318
827.8652, 6340.800
828.3474, 6357.184
828.8295, 6385.396
829.3116, 6407.997
829.7937, 6404.447
830.2758, 6384.221
830.7579, 6377.936
831.2401, 6386.939
831.7222, 6403.258
832.2043, 6420.420
832.6864, 6442.537
833.1685, 6476.664
833.6506, 6527.682
834.1328, 6562.912
834.6149, 6570.561
835.0970, 6573.441
835.5791, 6584.697
836.0612, 6604.557
836.5433, 6621.356
837.0255, 6634.577
837.5076, 6652.367
837.9897, 6685.924
838.4718, 6726.565
838.9539, 6762.729
839.4360, 6793.627
839.9182, 6819.377
840.4003, 6834.991
840.8824, 6850.178
841.3645, 6869.032
841.8466, 6890.607
842.3287, 6927.038
842.8109, 6984.239
843.2930, 7040.624
843.7751, 7075.098
844.2572, 7095.622
844.7393, 7134.507
845.2214, 7191.807
845.7036, 7256.143
846.1857, 7331.466
846.6678, 7401.455
847.1499, 7448.607
847.6320, 7469.491
848.1141, 7496.847
848.5963, 7540.196
849.0784, 7584.216
849.5605, 7622.124
850.0426, 7654.177
850.5247, 7684.396
851.0068, 7713.114
851.4890, 7735.759
851.9711, 7747.631
852.4532, 7752.880
852.9353, 7758.979
853.4174, 7765.372
853.8995, 7764.238
854.3817, 7752.095
854.8638, 7731.781
855.3459, 7701.056
855.8280, 7661.183
856.3101, 7628.822
856.7922, 7604.895
857.2744, 7584.905
857.7565, 7568.484
858.2386, 7553.821
858.7207, 7531.692
859.2028, 7504.723
859.6849, 7488.326
860.1671, 7497.561
860.6492, 7515.195
861.1313, 7534.520
861.6134, 7553.720
862.0955, 7561.276
862.5776, 7544.141
863.0598, 7535.900
863.5419, 7546.256
864.0240, 7573.192
864.5061, 7612.378
864.9882, 7663.036
865.4703, 7717.876
865.9524, 7784.187
866.4345, 7843.297
866.9166, 7866.006
867.3987, 7864.710
867.8809, 7873.961
868.3630, 7910.214
868.8451, 7954.120
869.3272, 8014.510
869.8093, 8075.468
870.2914, 8088.037
870.7736, 8046.763
871.2557, 8007.179
871.7378, 7993.275
872.2199, 7977.199
872.7020, 7907.355
873.1841, 7798.706
873.6663, 7689.819
874.1484, 7583.826
874.6305, 7493.541
875.1126, 7429.756
875.5947, 7382.959
876.0768, 7332.519
876.5590, 7272.771
877.0411, 7227.104
877.5232, 7203.306
878.0053, 7186.192
878.4874, 7145.102
878.9695, 7089.791
879.4517, 7054.328
879.9338, 7055.019
880.4159, 7056.989
880.8980, 7030.017
881.3801, 6993.686
881.8622, 6970.897
882.3444, 6966.064
882.8265, 6975.489
883.3086, 7006.248
883.7907, 7040.919
884.2728, 7056.441
884.7549, 7055.915
885.2371, 7066.986
885.7192, 7093.431
886.2013, 7126.886
886.6834, 7163.745
887.1655, 7200.937
887.6476, 7236.062
888.1298, 7270.366
888.6119, 7295.416
889.0940, 7303.390
889.5761, 7308.573
890.0582, 7318.103
890.5403, 7331.667
891.0225, 7360.478
891.5046, 7406.752
891.9867, 7436.393
892.4688, 7407.654
892.9509, 7353.192
893.4330, 7314.068
893.9152, 7292.933
894.3973, 7265.860
894.8794, 7218.935
895.3615, 7170.370
895.8436, 7129.431
896.3257, 7095.661
896.8079, 7054.909
897.2900, 7006.811
897.7721, 6958.216
898.2542, 6910.923
898.7363, 6867.223
899.2184, 6831.891
899.7006, 6804.190
900.1827, 6783.113
900.6648, 6773.822
901.1469, 6764.282
901.6290, 6745.111
902.1111, 6721.694
902.5933, 6712.264
903.0754, 6720.250
903.5575, 6728.462
904.0396, 6734.448
904.5217, 6734.172
905.0038, 6714.311
905.4860, 6682.078
905.9681, 6656.359
906.4502, 6645.746
906.9323, 6641.663
907.4144, 6650.070
907.8965, 6658.815
908.3787, 6646.823
908.8608, 6599.145
909.3429, 6572.000
909.8250, 6574.562
910.3071, 6589.853
910.7892, 6594.860
911.2714, 6593.849
911.7535, 6600.496
912.2356, 6619.007
912.7177, 6636.878
913.1998, 6649.372
913.6819, 6655.613
914.1641, 6653.914
914.6462, 6641.962
915.1283, 6628.710
915.6104, 6611.875
916.0925, 6599.116
916.5746, 6598.862
917.0568, 6607.920
917.5389, 6612.642
918.0210, 6612.782
918.5031, 6614.316
918.9852, 6620.288
919.4673, 6629.854
919.9495, 6645.966
920.4316, 6668.408
920.9137, 6678.241
921.3958, 6668.711
921.8779, 6659.579
922.3600, 6657.834
922.8422, 6662.762
923.3243, 6676.766
923.8064, 6697.192
924.2885, 6708.989
924.7706, 6685.120
925.2527, 6668.091
925.7349, 6699.762
926.2170, 6760.195
926.6991, 6793.288
927.1812, 6783.820
927.6633, 6767.242
928.1454, 6743.612
928.6276, 6722.539
929.1097, 6726.395
929.5918, 6749.647
930.0739, 6765.027
930.5560, 6763.307
931.0381, 6759.624
931.5203, 6767.444
932.0024, 6778.733
932.4845, 6784.064
932.9666, 6774.403
933.4487, 6775.140
933.9308, 6790.502
934.4130, 6808.878
934.8951, 6819.942
935.3772, 6825.031
935.8593, 6829.826
936.3414, 6834.659
936.8235, 6840.825
937.3057, 6848.094
937.7878, 6857.874
938.2699, 6874.032
938.7520, 6897.005
939.2341, 6908.787
939.7162, 6901.451
940.1984, 6898.137
940.6805, 6911.117
941.1626, 6934.140
941.6447, 6942.315
942.1268, 6938.886
942.6089, 6941.670
943.0911, 6965.974
943.5732, 6993.402
944.0553, 7017.112
944.5374, 7034.950
945.0195, 7038.852
945.5016, 7013.303
945.9838, 7010.270
946.4659, 7044.034
946.9480, 7090.999
947.4301, 7108.322
947.9122, 7106.631
948.3943, 7126.991
948.8764, 7184.385
949.3585, 7241.885
949.8406, 7271.777
950.3228, 7292.849
950.8049, 7323.204
951.2870, 7365.635
951.7691, 7413.027
952.2512, 7467.448
952.7333, 7521.648
953.2155, 7565.077
953.6976, 7604.056
954.1797, 7657.142
954.6618, 7724.109
955.1439, 7796.292
955.6260, 7863.311
956.1082, 7938.103
956.5903, 8026.861
957.0724, 8129.489
957.5545, 8247.239
958.0366, 8389.521
958.5187, 8511.792
959.0009, 8594.463
959.4830, 8657.207
959.9651, 8744.616
960.4472, 8842.214
960.9293, 8917.150
961.4114, 8953.264
961.8936, 8969.993
962.3757, 8977.670
962.8578, 8966.896
963.3399, 8925.056
963.8220, 8847.667
964.3041, 8759.997
964.7863, 8662.866
965.2684, 8555.282
965.7505, 8419.002
966.2326, 8277.198
966.7147, 8171.249
967.1968, 8109.663
967.6790, 8036.548
968.1611, 7913.928
968.6432, 7792.786
969.1253, 7696.022
969.6074, 7623.136
970.0895, 7560.599
970.5717, 7508.535
971.0538, 7458.915
971.5359, 7404.217
972.0180, 7352.982
972.5001, 7320.058
972.9822, 7298.512
973.4644, 7269.655
973.9465, 7207.334
974.4286, 7165.486
974.9107, 7161.443
975.3928, 7171.751
975.8749, 7154.831
976.3571, 7113.677
976.8392, 7084.826
977.3213, 7075.141
977.8034, 7077.225
978.2855, 7099.450
978.7676, 7121.232
979.2498, 7115.903
979.7319, 7066.454
980.2140, 7044.940
980.6961, 7067.923
981.1782, 7091.917
981.6603, 7088.872
982.1425, 7064.751
982.6246, 7046.402
983.1067, 7033.623
983.5888, 7023.229
984.0709, 7011.208
984.5530, 7003.042
985.0352, 7002.574
985.5173, 7008.516
985.9994, 7016.005
986.4815, 7025.429
986.9636, 7033.581
987.4457, 7039.275
987.9279, 7044.087
988.4100, 7053.706
988.8921, 7063.773
989.3742, 7063.917
989.8563, 7048.893
990.3384, 7033.358
990.8206, 7025.842
991.3027, 7018.442
991.7848, 7004.849
992.2669, 6984.166
992.7490, 6967.789
993.2311, 6955.914
993.7133, 6948.138
994.1954, 6944.279
994.6775, 6944.543
995.1596, 6954.453
995.6417, 6970.359
996.1238, 6975.146
996.6060, 6950.565
997.0881, 6930.917
997.5702, 6925.647
998.0523, 6927.919
998.5344, 6920.132
999.0165, 6904.409
999.4987, 6900.378
999.9808, 6917.011
1000.463, 6932.895
1000.945, 6924.254
1001.427, 6908.245
1001.909, 6904.037
1002.391, 6919.778
1002.873, 6929.668
1003.356, 6930.099
1003.838, 6932.933
1004.320, 6956.939
1004.802, 6988.490
1005.284, 6971.518
1005.766, 6915.486
1006.248, 6883.035
1006.730, 6937.415
1007.213, 6991.157
1007.695, 6996.104
1008.177, 6971.563
1008.659, 6966.143
1009.141, 6983.218
1009.623, 6996.972
1010.105, 7002.206
1010.587, 7001.612
1011.069, 6983.350
1011.552, 6967.436
1012.034, 6991.201
1012.516, 7085.533
1012.998, 7142.617
1013.480, 7129.696
1013.962, 7094.283
1014.444, 7058.049
1014.926, 7022.154
1015.409, 7001.965
1015.891, 6996.697
1016.373, 6996.870
1016.855, 7000.936
1017.337, 7004.183
1017.819, 7000.950
1018.301, 6994.168
1018.783, 6994.068
1019.265, 7006.219
1019.748, 7011.259
1020.230, 7004.107
1020.712, 6993.912
1021.194, 6992.987
1021.676, 6999.326
1022.158, 7009.588
1022.640, 7024.183
1023.122, 7036.527
1023.604, 7037.188
1024.087, 7040.807
1024.569, 7060.408
1025.051, 7094.506
1025.533, 7100.549
1026.015, 7077.794
1026.497, 7058.201
1026.979, 7065.697
1027.461, 7079.880
1027.943, 7078.533
1028.426, 7067.604
1028.908, 7060.997
1029.390, 7060.362
1029.872, 7068.540
1030.354, 7091.852
1030.836, 7114.039
1031.318, 7110.399
1031.800, 7088.073
1032.283, 7069.943
1032.765, 7058.757
1033.247, 7053.543
1033.729, 7061.924
1034.211, 7068.902
1034.693, 7061.029
1035.175, 7040.919
1035.657, 7035.705
1036.140, 7046.920
1036.622, 7057.762
1037.104, 7061.181
1037.586, 7060.478
1038.068, 7054.701
1038.550, 7049.115
1039.032, 7053.435
1039.514, 7080.375
1039.996, 7102.259
1040.479, 7118.057
1040.961, 7127.824
1041.443, 7129.790
1041.925, 7125.528
1042.407, 7124.605
1042.889, 7127.208
1043.371, 7127.393
1043.853, 7122.663
1044.335, 7113.333
1044.818, 7092.210
1045.300, 7066.078
1045.782, 7060.649
1046.264, 7129.479
1046.746, 7169.717
1047.228, 7182.904
1047.710, 7088.009
1048.192, 7132.679
1048.675, 7121.425
1049.157, 7107.869
1049.639, 7172.182
1050.121, 7093.007
1050.603, 7156.085
1051.085, 7107.344
1051.567, 7130.785
1052.049, 7153.545
1052.531, 7141.108
1053.014, 7100.038
1053.496, 7072.931
1053.978, 7101.417
1054.460, 7131.679
1054.942, 7130.820
1055.424, 7112.963
1055.906, 7108.061
1056.388, 7119.620
1056.870, 7126.678
1057.353, 7125.854
1057.835, 7124.630
1058.317, 7128.650
1058.799, 7138.137
1059.281, 7163.001
1059.763, 7205.142
1060.245, 7207.794
1060.727, 7118.095
1061.210, 7058.722
1061.692, 7084.836
1062.174, 7159.234
1062.656, 7173.828
1063.138, 7143.820
1063.620, 7127.811
1064.102, 7156.031
1064.584, 7184.098
1065.067, 7193.076
1065.549, 7188.733
1066.031, 7175.591
1066.513, 7150.363
1066.995, 7136.934
1067.477, 7135.682
1067.959, 7141.444
1068.441, 7152.586
1068.923, 7166.841
1069.406, 7185.512
1069.888, 7205.843
1070.370, 7216.363
1070.852, 7203.948
1071.334, 7205.014
1071.816, 7229.949
1072.298, 7260.717
1072.780, 7270.737
1073.262, 7266.528
1073.745, 7263.958
1074.227, 7265.593
1074.709, 7267.749
1075.191, 7269.011
1075.673, 7270.087
1076.155, 7271.751
1076.637, 7273.648
1077.119, 7273.853
1077.601, 7272.345
1078.084, 7267.030
1078.566, 7253.410
1079.048, 7242.190
1079.530, 7247.740
1080.012, 7259.042
1080.494, 7260.419
1080.976, 7249.544
1081.458, 7231.130
1081.941, 7201.303
1082.423, 7180.417
1082.905, 7192.341
1083.387, 7219.498
1083.869, 7234.381
1084.351, 7238.205
1084.833, 7240.417
1085.315, 7246.098
1085.797, 7246.589
1086.280, 7235.909
1086.762, 7224.712
1087.244, 7236.282
1087.726, 7263.477
1088.208, 7274.260
1088.690, 7262.332
1089.172, 7250.905
1089.654, 7259.128
1090.136, 7267.625
1090.619, 7258.808
1091.101, 7237.632
1091.583, 7248.158
1092.065, 7291.763
1092.547, 7318.040
1093.029, 7302.637
1093.511, 7273.065
1093.993, 7248.942
1094.476, 7232.724
1094.958, 7227.602
1095.440, 7236.385
1095.922, 7253.100
1096.404, 7283.394
1096.886, 7304.202
1097.368, 7291.830
1097.850, 7261.386
1098.333, 7232.220
1098.815, 7209.348
1099.297, 7209.950
1099.779, 7264.451
1100.261, 7310.477
1100.743, 7335.128
1101.225, 7349.380
1101.707, 7370.563
1102.189, 7395.083
1102.672, 7401.501
1103.154, 7387.624
1103.636, 7374.151
1104.118, 7376.000
1104.600, 7379.722
1105.082, 7376.521
1105.564, 7368.941
1106.046, 7366.897
1106.528, 7370.539
1107.011, 7373.189
1107.493, 7371.378
1107.975, 7373.521
1108.457, 7395.282
1108.939, 7421.188
1109.421, 7434.778
1109.903, 7432.850
1110.385, 7422.467
1110.868, 7399.672
1111.350, 7384.751
1111.832, 7392.914
1112.314, 7411.333
1112.796, 7416.948
1113.278, 7415.617
1113.760, 7419.665
1114.242, 7437.024
1114.724, 7454.637
1115.207, 7474.131
1115.689, 7488.882
1116.171, 7488.479
1116.653, 7478.557
1117.135, 7480.431
1117.617, 7493.007
1118.099, 7502.975
1118.581, 7503.841
1119.063, 7500.105
1119.546, 7487.930
1120.028, 7476.207
1120.510, 7483.778
1120.992, 7508.551
1121.474, 7526.626
1121.956, 7534.688
1122.438, 7534.524
1122.920, 7514.678
1123.403, 7497.935
1123.885, 7509.505
1124.367, 7542.222
1124.849, 7548.493
1125.331, 7525.125
1125.813, 7515.468
1126.295, 7540.199
1126.777, 7565.145
1127.260, 7544.658
1127.742, 7506.152
1128.224, 7480.973
1128.706, 7474.278
1129.188, 7485.439
1129.670, 7521.896
1130.152, 7550.878
1130.634, 7550.796
1131.116, 7535.465
1131.599, 7524.731
1132.081, 7518.412
1132.563, 7516.241
1133.045, 7525.147
1133.527, 7525.676
1134.009, 7508.618
1134.491, 7497.526
1134.973, 7520.836
1135.455, 7565.786
1135.938, 7595.310
1136.420, 7608.960
1136.902, 7610.817
1137.384, 7593.079
1137.866, 7575.043
1138.348, 7556.785
1138.830, 7546.285
1139.312, 7564.387
1139.795, 7604.154
1140.277, 7617.788
1140.759, 7599.186
1141.241, 7581.091
1141.723, 7592.564
1142.205, 7603.093
1142.687, 7591.594
1143.169, 7566.151
1143.651, 7552.902
1144.134, 7551.629
1144.616, 7553.542
1145.098, 7557.920
1145.580, 7558.715
1146.062, 7538.674
1146.544, 7521.348
1147.026, 7536.771
1147.508, 7585.076
1147.990, 7602.797
1148.473, 7587.326
1148.955, 7564.601
1149.437, 7541.271
1149.919, 7523.741
1150.401, 7527.227
1150.883, 7538.426
1151.365, 7535.532
1151.847, 7501.628
1152.330, 7501.393
1152.812, 7544.890
1153.294, 7584.458
1153.776, 7581.596
1154.258, 7560.670
1154.740, 7558.738
1155.222, 7569.711
1155.704, 7579.588
1156.186, 7581.396
1156.669, 7586.559
1157.151, 7596.299
1157.633, 7607.502
1158.115, 7549.680
1158.597, 7602.786
1159.079, 7633.020
1159.561, 7641.611
1160.043, 7563.737
1160.526, 7597.517
1161.008, 7586.550
1161.490, 7573.749
1161.972, 7623.241
1162.454, 7557.944
1162.936, 7606.448
1163.418, 7609.525
1163.900, 7633.394
1164.382, 7612.240
1164.865, 7604.995
1165.347, 7642.783
1165.829, 7655.634
1166.311, 7629.298
1166.793, 7654.488
1167.275, 7587.618
1167.757, 7593.363
1168.239, 7617.974
1168.721, 7644.446
1169.204, 7661.616
1169.686, 7667.457
1170.168, 7658.161
1170.650, 7638.371
1171.132, 7631.435
1171.614, 7635.604
1172.096, 7634.978
1172.578, 7620.887
1173.061, 7611.197
1173.543, 7621.105
1174.025, 7637.413
1174.507, 7648.752
1174.989, 7655.132
1175.471, 7667.451
1175.953, 7684.903
1176.435, 7695.073
1176.917, 7690.873
1177.400, 7678.572
1177.882, 7645.904
1178.364, 7617.964
1178.846, 7628.712
1179.328, 7687.211
1179.810, 7719.300
1180.292, 7724.219
1180.774, 7719.895
1181.256, 7713.660
1181.739, 7707.179
1182.221, 7699.548
1182.703, 7693.772
1183.185, 7696.154
1183.667, 7709.758
1184.149, 7716.441
1184.631, 7714.717
1185.113, 7713.751
1185.596, 7721.266
1186.078, 7732.676
1186.560, 7744.540
1187.042, 7756.711
1187.524, 7771.387
1188.006, 7794.479
1188.488, 7791.584
1188.970, 7754.259
1189.453, 7717.280
1189.935, 7719.269
1190.417, 7735.187
1190.899, 7740.215
1191.381, 7734.419
1191.863, 7729.646
1192.345, 7724.988
1192.827, 7729.857
1193.309, 7749.060
1193.792, 7767.232
1194.274, 7765.368
1194.756, 7753.555
1195.238, 7738.073
1195.720, 7720.569
1196.202, 7727.786
1196.684, 7774.306
1197.166, 7794.722
1197.648, 7762.353
1198.131, 7720.613
1198.613, 7735.229
1199.095, 7772.467
1199.577, 7784.711
1200.059, 7760.187
1200.541, 7752.669
1201.023, 7769.959
1201.505, 7783.604
1201.988, 7779.791
1202.470, 7773.057
1202.952, 7790.307
1203.434, 7817.219
1203.916, 7833.758
1204.398, 7836.179
1204.880, 7820.830
1205.362, 7780.557
1205.844, 7746.931
1206.327, 7736.936
1206.809, 7740.492
1207.291, 7741.837
1207.773, 7744.953
1208.255, 7757.952
1208.737, 7792.064
1209.219, 7811.136
1209.701, 7811.939
1210.183, 7807.153
1210.666, 7802.264
1211.148, 7798.332
1211.630, 7798.001
1212.112, 7799.703
1212.594, 7800.111
1213.076, 7790.859
1213.558, 7796.032
1214.040, 7819.143
1214.523, 7845.053
1215.005, 7868.183
1215.487, 7883.434
1215.969, 7882.920
1216.451, 7867.955
1216.933, 7840.471
1217.415, 7770.829
1217.897, 7754.183
1218.380, 7808.115
1218.862, 7865.083
1219.344, 7864.934
1219.826, 7836.266
1220.308, 7806.728
1220.790, 7784.904
1221.272, 7797.530
1221.754, 7877.055
1222.236, 7923.656
1222.719, 7923.830
1223.201, 7909.914
1223.683, 7910.250
1224.165, 7916.465
1224.647, 7916.894
1225.129, 7912.568
1225.611, 7910.377
1226.093, 7907.159
1226.575, 7917.406
1227.058, 7945.183
1227.540, 7975.552
1228.022, 7999.025
1228.504, 8012.304
1228.986, 8010.317
1229.468, 7993.759
1229.950, 7967.787
1230.432, 7928.700
1230.915, 7894.548
1231.397, 7865.562
1231.879, 7855.263
1232.361, 7901.604
1232.843, 7958.047
1233.325, 7965.967
1233.807, 7929.479
1234.289, 7914.794
1234.771, 7929.402
1235.254, 7941.066
1235.736, 7943.773
1236.218, 7941.328
1236.700, 7934.537
1237.182, 7926.856
1237.664, 7923.514
1238.146, 7923.284
1238.628, 7910.750
1239.110, 7880.833
1239.593, 7877.057
1240.075, 7914.025
1240.557, 7956.293
1241.039, 7969.063
1241.521, 7971.698
1242.003, 7987.132
1242.485, 8011.664
1242.967, 8004.201
1243.449, 7961.942
1243.932, 7939.054
1244.414, 7952.639
1244.896, 7974.194
1245.378, 7981.748
1245.860, 7983.521
1246.342, 7985.643
1246.824, 7988.129
1247.306, 7989.264
1247.789, 7989.018
1248.271, 7990.022
1248.753, 7992.812
1249.235, 7997.606
1249.717, 8009.996
1250.199, 8019.167
1250.681, 8014.949
1251.163, 8000.987
1251.646, 7997.009
1252.128, 8002.040
1252.610, 8010.430
1253.092, 8023.127
1253.574, 8028.271
1254.056, 8000.259
1254.538, 7982.546
1255.020, 8009.052
1255.502, 8063.945
1255.984, 8072.383
1256.467, 8044.379
1256.949, 8027.043
1257.431, 8039.028
1257.913, 8046.506
1258.395, 8025.449
1258.877, 8005.813
1259.359, 8002.449
1259.841, 8011.046
1260.324, 8019.974
1260.806, 8028.597
1261.288, 8034.908
1261.770, 8037.829
1262.252, 8039.313
1262.734, 8035.644
1263.216, 8037.580
1263.698, 8053.664
1264.181, 8075.368
1264.663, 8081.032
1265.145, 8076.149
1265.627, 8070.575
1266.109, 8061.055
1266.591, 8075.606
1267.073, 8130.222
1267.555, 8172.766
1268.037, 8174.608
1268.520, 8153.428
1269.002, 8128.402
1269.484, 8107.661
1269.966, 8107.446
1270.448, 8141.657
1270.930, 8158.392
1271.412, 8151.173
1271.894, 8152.512
1272.376, 8187.420
1272.859, 8224.611
1273.341, 8216.588
1273.823, 8188.133
1274.305, 8173.145
1274.787, 8175.569
1275.269, 8187.623
1275.751, 8210.461
1276.233, 8229.964
1276.716, 8242.421
1277.198, 8243.829
1277.680, 8215.214
1278.162, 8184.389
1278.644, 8189.153
1279.126, 8230.190
1279.608, 8222.751
1280.090, 8170.958
1280.573, 8147.047
1281.055, 8199.223
1281.537, 8252.487
1282.019, 8261.964
1282.501, 8249.895
1282.983, 8230.443
1283.465, 8205.853
1283.947, 8196.412
1284.429, 8199.760
1284.911, 8204.229
1285.394, 8206.013
1285.876, 8207.054
1286.358, 8206.860
1286.840, 8207.235
1287.322, 8207.529
1287.804, 8209.998
1288.286, 8228.764
1288.768, 8255.459
1289.251, 8265.963
1289.733, 8242.359
1290.215, 8230.783
1290.697, 8238.178
1291.179, 8254.672
1291.661, 8281.902
1292.143, 8306.927
##END=



