##NAMES=Malayaite
##RRUFFID=R061131
##IDEAL CHEMISTRY=CaSn^4+^O(SiO_4_)
##LOCALITY=Humpolec, Czech Republic
##OWNER=RRUFF
##SOURCE=Michael Scott
##DESCRIPTION=Pale tan colored grains disseminated through the rock
##STATUS=The identification of this mineral is confirmed by single-crystal X-ray diffraction and chemical analysis.
##URL=rruff.info/R061131
##MEASURED CHEMISTRY=(Ca_1.01_Fe_0.01_)(Sn_0.99_Ti_0.01_)Si_0.99_O_5_
115.0425, 88.23155
115.5246, 93.65260
116.0067, 101.8038
116.4888, 109.7036
116.9709, 114.9261
117.4530, 117.3457
117.9352, 119.1769
118.4173, 122.9524
118.8994, 129.2589
119.3815, 136.3909
119.8636, 144.5487
120.3457, 153.4011
120.8279, 162.3499
121.3100, 171.2469
121.7921, 181.0407
122.2742, 193.2977
122.7563, 208.1170
123.2384, 224.1274
123.7206, 239.4433
124.2027, 256.3431
124.6848, 278.8623
125.1669, 309.0941
125.6490, 342.2021
126.1311, 371.5675
126.6133, 397.6606
127.0954, 421.5013
127.5775, 443.7451
128.0596, 464.1296
128.5417, 482.2919
129.0238, 498.3441
129.5060, 511.7015
129.9881, 521.4152
130.4702, 527.4323
130.9523, 533.0890
131.4344, 541.6616
131.9165, 552.0787
132.3987, 558.3875
132.8808, 557.6221
133.3629, 553.4191
133.8450, 549.3826
134.3271, 545.5949
134.8092, 542.0488
135.2914, 537.5741
135.7735, 532.2316
136.2556, 530.9172
136.7377, 536.6504
137.2198, 545.8136
137.7019, 555.9145
138.1841, 566.6196
138.6662, 578.6721
139.1483, 593.0772
139.6304, 610.0908
140.1125, 627.4955
140.5946, 640.7382
141.0768, 657.0984
141.5589, 683.1157
142.0410, 719.8107
142.5231, 759.5359
143.0052, 792.5728
143.4873, 817.2797
143.9695, 840.6076
144.4516, 864.4786
144.9337, 887.0352
145.4158, 905.9799
145.8979, 921.0159
146.3800, 935.3278
146.8622, 954.7170
147.3443, 983.4514
147.8264, 1007.476
148.3085, 1025.148
148.7906, 1038.780
149.2727, 1050.157
149.7549, 1059.767
150.2370, 1066.778
150.7191, 1068.814
151.2012, 1059.694
151.6833, 1057.033
152.1654, 1064.853
152.6476, 1076.744
153.1297, 1088.142
153.6118, 1097.436
154.0939, 1104.959
154.5760, 1111.234
155.0581, 1114.058
155.5403, 1119.020
156.0224, 1130.065
156.5045, 1141.270
156.9866, 1144.465
157.4687, 1137.343
157.9508, 1127.961
158.4330, 1133.568
158.9151, 1174.123
159.3972, 1205.051
159.8793, 1218.085
160.3614, 1225.375
160.8435, 1239.717
161.3257, 1265.792
161.8078, 1297.766
162.2899, 1323.715
162.7720, 1340.532
163.2541, 1354.526
163.7362, 1360.251
164.2184, 1365.254
164.7005, 1379.414
165.1826, 1406.479
165.6647, 1440.081
166.1468, 1467.221
166.6289, 1484.621
167.1111, 1500.901
167.5932, 1514.706
168.0753, 1528.486
168.5574, 1547.173
169.0395, 1573.182
169.5216, 1599.894
170.0038, 1612.735
170.4859, 1602.538
170.9680, 1598.527
171.4501, 1606.455
171.9322, 1622.534
172.4143, 1643.971
172.8965, 1670.894
173.3786, 1697.399
173.8607, 1711.933
174.3428, 1712.724
174.8249, 1709.483
175.3070, 1701.093
175.7892, 1690.518
176.2713, 1681.862
176.7534, 1676.201
177.2355, 1673.460
177.7176, 1675.129
178.1997, 1682.782
178.6819, 1687.233
179.1640, 1686.246
179.6461, 1680.682
180.1282, 1670.201
180.6103, 1653.373
181.0924, 1636.156
181.5745, 1627.630
182.0567, 1626.954
182.5388, 1632.045
183.0209, 1645.713
183.5030, 1664.134
183.9851, 1680.743
184.4672, 1693.642
184.9494, 1705.450
185.4315, 1720.869
185.9136, 1739.978
186.3957, 1755.758
186.8778, 1766.134
187.3599, 1771.868
187.8421, 1772.688
188.3242, 1766.804
188.8063, 1761.377
189.2884, 1768.811
189.7705, 1787.302
190.2526, 1798.588
190.7348, 1788.336
191.2169, 1769.259
191.6990, 1764.539
192.1811, 1779.811
192.6632, 1802.143
193.1453, 1820.472
193.6275, 1835.525
194.1096, 1848.553
194.5917, 1859.071
195.0738, 1868.054
195.5559, 1876.519
196.0380, 1884.076
196.5202, 1892.947
197.0023, 1908.761
197.4844, 1928.550
197.9665, 1941.891
198.4486, 1939.582
198.9307, 1931.018
199.4129, 1931.982
199.8950, 1945.193
200.3771, 1960.511
200.8592, 1971.245
201.3413, 1978.370
201.8234, 1982.964
202.3056, 1984.927
202.7877, 1984.667
203.2698, 1981.680
203.7519, 1975.128
204.2340, 1969.942
204.7161, 1969.894
205.1983, 1973.564
205.6804, 1979.080
206.1625, 1987.635
206.6446, 1996.721
207.1267, 2005.365
207.6088, 2014.665
208.0910, 2015.516
208.5731, 1993.176
209.0552, 1961.285
209.5373, 1941.356
210.0194, 1944.236
210.5015, 1953.341
210.9837, 1950.196
211.4658, 1934.031
211.9479, 1916.270
212.4300, 1901.929
212.9121, 1889.161
213.3942, 1875.295
213.8764, 1858.999
214.3585, 1843.244
214.8406, 1830.991
215.3227, 1822.155
215.8048, 1814.728
216.2869, 1810.363
216.7691, 1805.336
217.2512, 1794.268
217.7333, 1774.833
218.2154, 1755.608
218.6975, 1744.598
219.1796, 1741.112
219.6618, 1735.893
220.1439, 1722.259
220.6260, 1709.665
221.1081, 1710.388
221.5902, 1726.500
222.0723, 1741.828
222.5545, 1742.580
223.0366, 1731.895
223.5187, 1726.849
224.0008, 1733.712
224.4829, 1744.732
224.9650, 1752.651
225.4472, 1757.567
225.9293, 1759.417
226.4114, 1756.440
226.8935, 1750.128
227.3756, 1745.910
227.8577, 1746.228
228.3399, 1745.743
228.8220, 1738.498
229.3041, 1725.732
229.7862, 1713.719
230.2683, 1705.157
230.7504, 1699.194
231.2325, 1694.641
231.7147, 1692.162
232.1968, 1688.880
232.6789, 1679.769
233.1610, 1667.510
233.6431, 1659.865
234.1252, 1662.553
234.6074, 1669.967
235.0895, 1674.028
235.5716, 1674.269
236.0537, 1672.600
236.5358, 1670.066
237.0179, 1666.484
237.5001, 1661.208
237.9822, 1651.648
238.4643, 1642.194
238.9464, 1638.922
239.4285, 1642.002
239.9106, 1643.308
240.3928, 1637.349
240.8749, 1626.934
241.3570, 1618.258
241.8391, 1612.633
242.3212, 1607.469
242.8033, 1599.108
243.2855, 1588.441
243.7676, 1582.939
244.2497, 1588.979
244.7318, 1599.145
245.2139, 1599.348
245.6960, 1586.218
246.1782, 1572.659
246.6603, 1563.513
247.1424, 1559.054
247.6245, 1561.374
248.1066, 1573.534
248.5887, 1588.630
249.0709, 1596.106
249.5530, 1595.527
250.0351, 1594.052
250.5172, 1595.784
250.9993, 1597.900
251.4814, 1595.163
251.9636, 1586.153
252.4457, 1573.582
252.9278, 1556.277
253.4099, 1533.902
253.8920, 1525.054
254.3741, 1544.313
254.8563, 1573.041
255.3384, 1589.767
255.8205, 1591.987
256.3026, 1592.256
256.7847, 1601.694
257.2668, 1620.331
257.7490, 1636.030
258.2311, 1649.081
258.7132, 1658.754
259.1953, 1662.049
259.6774, 1660.214
260.1595, 1660.864
260.6417, 1670.125
261.1238, 1685.930
261.6059, 1695.001
262.0880, 1694.802
262.5701, 1691.390
263.0522, 1686.863
263.5344, 1681.027
264.0165, 1673.067
264.4986, 1662.501
264.9807, 1649.861
265.4628, 1636.305
265.9449, 1616.610
266.4271, 1603.767
266.9092, 1604.359
267.3913, 1611.872
267.8734, 1618.660
268.3555, 1622.271
268.8376, 1622.564
269.3198, 1618.660
269.8019, 1604.680
270.2840, 1598.940
270.7661, 1607.691
271.2482, 1620.783
271.7303, 1631.591
272.2125, 1638.408
272.6946, 1640.303
273.1767, 1635.126
273.6588, 1619.877
274.1409, 1613.402
274.6230, 1619.858
275.1052, 1629.851
275.5873, 1641.108
276.0694, 1652.096
276.5515, 1659.683
277.0336, 1660.637
277.5157, 1655.619
277.9979, 1659.257
278.4800, 1680.567
278.9621, 1700.446
279.4442, 1714.953
279.9263, 1725.335
280.4084, 1733.802
280.8906, 1741.441
281.3727, 1748.272
281.8548, 1754.137
282.3369, 1756.109
282.8190, 1761.655
283.3011, 1774.748
283.7833, 1789.549
284.2654, 1800.604
284.7475, 1806.387
285.2296, 1809.849
285.7117, 1814.883
286.1938, 1820.927
286.6760, 1830.384
287.1581, 1844.925
287.6402, 1861.361
288.1223, 1879.261
288.6044, 1897.797
289.0865, 1914.903
289.5687, 1928.859
290.0508, 1939.692
290.5329, 1947.578
291.0150, 1950.740
291.4971, 1952.605
291.9792, 1952.657
292.4614, 1952.503
292.9435, 1954.791
293.4256, 1960.514
293.9077, 1970.168
294.3898, 1987.946
294.8719, 2022.547
295.3541, 2045.376
295.8362, 2038.105
296.3183, 2017.829
296.8004, 2002.027
297.2825, 1996.094
297.7646, 1995.187
298.2468, 1994.702
298.7289, 1994.925
299.2110, 1991.520
299.6931, 1977.312
300.1752, 1963.866
300.6573, 1961.845
301.1395, 1972.074
301.6216, 1986.381
302.1037, 1999.696
302.5858, 2012.657
303.0679, 2028.581
303.5500, 2050.058
304.0321, 2070.214
304.5143, 2078.147
304.9964, 2077.638
305.4785, 2085.998
305.9606, 2114.186
306.4427, 2151.550
306.9248, 2185.388
307.4070, 2214.952
307.8891, 2241.014
308.3712, 2259.539
308.8533, 2275.487
309.3354, 2305.773
309.8175, 2362.648
310.2997, 2421.710
310.7818, 2469.632
311.2639, 2508.544
311.7460, 2543.732
312.2281, 2575.477
312.7102, 2608.626
313.1924, 2655.768
313.6745, 2721.729
314.1566, 2787.188
314.6387, 2849.458
315.1208, 2908.540
315.6029, 2962.690
316.0851, 3011.908
316.5672, 3061.347
317.0493, 3118.401
317.5314, 3186.076
318.0135, 3247.633
318.4956, 3295.409
318.9778, 3343.852
319.4599, 3404.385
319.9420, 3473.568
320.4241, 3541.056
320.9062, 3600.016
321.3883, 3650.077
321.8705, 3685.028
322.3526, 3705.590
322.8347, 3709.348
323.3168, 3689.872
323.7989, 3655.245
324.2810, 3616.545
324.7632, 3578.317
325.2453, 3533.109
325.7274, 3464.985
326.2095, 3363.070
326.6916, 3261.542
327.1737, 3159.528
327.6559, 3060.440
328.1380, 2965.839
328.6201, 2876.715
329.1022, 2793.844
329.5843, 2720.330
330.0664, 2656.275
330.5486, 2587.135
331.0307, 2501.987
331.5128, 2425.881
331.9949, 2372.203
332.4770, 2333.927
332.9591, 2298.637
333.4413, 2261.322
333.9234, 2222.340
334.4055, 2180.583
334.8876, 2133.888
335.3697, 2093.266
335.8518, 2063.277
336.3340, 2041.588
336.8161, 2027.349
337.2982, 2021.381
337.7803, 2017.986
338.2624, 2014.309
338.7445, 2009.946
339.2267, 2003.671
339.7088, 1996.396
340.1909, 1984.806
340.6730, 1958.333
341.1551, 1919.261
341.6372, 1895.556
342.1194, 1908.509
342.6015, 1932.523
343.0836, 1938.388
343.5657, 1924.942
344.0478, 1907.727
344.5299, 1896.394
345.0121, 1890.296
345.4942, 1884.110
345.9763, 1875.020
346.4584, 1868.947
346.9405, 1868.859
347.4226, 1873.155
347.9048, 1879.831
348.3869, 1888.301
348.8690, 1896.563
349.3511, 1900.874
349.8332, 1897.910
350.3153, 1897.140
350.7975, 1899.872
351.2796, 1903.727
351.7617, 1905.737
352.2438, 1906.608
352.7259, 1910.579
353.2080, 1922.030
353.6902, 1940.919
354.1723, 1957.701
354.6544, 1975.735
355.1365, 1987.536
355.6186, 1987.245
356.1007, 1980.968
356.5829, 1975.735
357.0650, 1974.432
357.5471, 1978.683
358.0292, 1995.233
358.5113, 2032.098
358.9934, 2055.448
359.4756, 2041.472
359.9577, 2025.219
360.4398, 2029.923
360.9219, 2056.224
361.4040, 2086.349
361.8861, 2106.682
362.3683, 2119.162
362.8504, 2133.640
363.3325, 2152.740
363.8146, 2169.089
364.2967, 2176.404
364.7788, 2177.831
365.2610, 2179.077
365.7431, 2187.533
366.2252, 2189.856
366.7073, 2169.182
367.1894, 2128.352
367.6715, 2087.616
368.1537, 2055.653
368.6358, 2027.466
369.1179, 1994.244
369.6000, 1955.979
370.0821, 1914.996
370.5642, 1865.276
371.0464, 1816.644
371.5285, 1782.460
372.0106, 1764.263
372.4927, 1752.186
372.9748, 1738.013
373.4569, 1721.725
373.9391, 1703.052
374.4212, 1678.400
374.9033, 1655.630
375.3854, 1638.578
375.8675, 1625.135
376.3496, 1611.013
376.8318, 1594.110
377.3139, 1576.528
377.7960, 1562.690
378.2781, 1551.858
378.7602, 1546.622
379.2423, 1551.890
379.7245, 1558.080
380.2066, 1558.320
380.6887, 1552.688
381.1708, 1546.431
381.6529, 1545.363
382.1350, 1548.596
382.6172, 1543.594
383.0993, 1520.617
383.5814, 1505.637
384.0635, 1517.698
384.5456, 1540.298
385.0277, 1549.490
385.5099, 1534.533
385.9920, 1512.651
386.4741, 1504.530
386.9562, 1509.439
387.4383, 1513.296
387.9204, 1512.086
388.4026, 1508.994
388.8847, 1507.646
389.3668, 1507.970
389.8489, 1508.373
390.3310, 1508.452
390.8131, 1508.258
391.2953, 1508.343
391.7774, 1508.623
392.2595, 1506.844
392.7416, 1500.112
393.2237, 1490.233
393.7058, 1488.058
394.1880, 1505.130
394.6701, 1514.919
395.1522, 1503.125
395.6343, 1482.715
396.1164, 1472.514
396.5985, 1477.867
397.0807, 1487.746
397.5628, 1486.092
398.0449, 1467.611
398.5270, 1456.263
399.0091, 1459.678
399.4912, 1461.802
399.9734, 1453.265
400.4555, 1438.002
400.9376, 1425.742
401.4197, 1422.761
401.9018, 1425.404
402.3839, 1422.492
402.8660, 1410.534
403.3481, 1402.181
403.8303, 1403.614
404.3124, 1407.785
404.7945, 1408.819
405.2766, 1406.152
405.7587, 1405.392
406.2408, 1411.390
406.7230, 1422.735
407.2051, 1435.876
407.6872, 1452.135
408.1693, 1464.723
408.6514, 1463.191
409.1335, 1454.289
409.6157, 1457.089
410.0978, 1485.963
410.5799, 1513.884
411.0620, 1518.813
411.5441, 1509.211
412.0262, 1508.372
412.5084, 1525.487
412.9905, 1548.751
413.4726, 1559.580
413.9547, 1551.566
414.4368, 1547.624
414.9189, 1547.180
415.4011, 1551.260
415.8832, 1564.727
416.3653, 1583.877
416.8474, 1596.963
417.3295, 1594.914
417.8116, 1583.553
418.2938, 1590.142
418.7759, 1632.792
419.2580, 1663.959
419.7401, 1672.587
420.2222, 1671.915
420.7043, 1671.036
421.1865, 1672.144
421.6686, 1674.668
422.1507, 1677.898
422.6328, 1681.945
423.1149, 1687.876
423.5970, 1695.630
424.0792, 1705.527
424.5613, 1720.682
425.0434, 1737.453
425.5255, 1749.191
426.0076, 1751.899
426.4897, 1753.314
426.9719, 1758.164
427.4540, 1766.777
427.9361, 1782.357
428.4182, 1808.075
428.9003, 1834.192
429.3824, 1846.891
429.8646, 1843.731
430.3467, 1843.157
430.8288, 1843.693
431.3109, 1849.374
431.7930, 1868.870
432.2751, 1896.370
432.7573, 1915.905
433.2394, 1918.325
433.7215, 1907.347
434.2036, 1893.244
434.6857, 1862.189
435.1678, 1851.830
435.6500, 1877.741
436.1321, 1912.036
436.6142, 1937.980
437.0963, 1952.948
437.5784, 1960.546
438.0605, 1963.328
438.5427, 1961.310
439.0248, 1953.375
439.5069, 1935.671
439.9890, 1920.831
440.4711, 1915.167
440.9532, 1914.885
441.4354, 1917.280
441.9175, 1922.762
442.3996, 1926.956
442.8817, 1923.104
443.3638, 1915.777
443.8459, 1917.568
444.3281, 1931.376
444.8102, 1950.034
445.2923, 1967.706
445.7744, 1984.431
446.2565, 2002.602
446.7386, 2023.062
447.2208, 2043.872
447.7029, 2061.515
448.1850, 2079.480
448.6671, 2106.273
449.1492, 2144.804
449.6313, 2185.457
450.1135, 2211.128
450.5956, 2213.149
451.0777, 2227.182
451.5598, 2261.312
452.0419, 2298.923
452.5240, 2332.039
453.0062, 2363.341
453.4883, 2399.894
453.9704, 2446.094
454.4525, 2497.980
454.9346, 2547.656
455.4167, 2594.468
455.8989, 2644.480
456.3810, 2699.706
456.8631, 2758.687
457.3452, 2817.804
457.8273, 2877.533
458.3094, 2943.976
458.7916, 3018.964
459.2737, 3102.521
459.7558, 3199.960
460.2379, 3309.416
460.7200, 3413.906
461.2021, 3505.770
461.6843, 3584.729
462.1664, 3648.776
462.6485, 3697.284
463.1306, 3732.322
463.6127, 3765.632
464.0948, 3777.228
464.5770, 3748.351
465.0591, 3679.608
465.5412, 3582.533
466.0233, 3462.352
466.5054, 3324.087
466.9875, 3200.382
467.4697, 3102.734
467.9518, 3000.410
468.4339, 2876.214
468.9160, 2750.934
469.3981, 2643.361
469.8802, 2556.562
470.3624, 2479.155
470.8445, 2401.066
471.3266, 2325.310
471.8087, 2263.740
472.2908, 2218.096
472.7729, 2179.484
473.2551, 2144.407
473.7372, 2111.862
474.2193, 2078.265
474.7014, 2037.872
475.1835, 2005.281
475.6656, 1991.709
476.1478, 1986.738
476.6299, 1975.854
477.1120, 1956.346
477.5941, 1934.406
478.0762, 1916.300
478.5583, 1902.150
479.0405, 1887.042
479.5226, 1868.143
480.0047, 1851.665
480.4868, 1839.783
480.9689, 1830.537
481.4510, 1821.809
481.9332, 1812.939
482.4153, 1804.629
482.8974, 1797.226
483.3795, 1790.838
483.8616, 1786.266
484.3438, 1783.129
484.8259, 1782.714
485.3080, 1787.821
485.7901, 1795.963
486.2722, 1803.343
486.7543, 1812.244
487.2365, 1815.397
487.7186, 1801.323
488.2007, 1779.428
488.6828, 1771.501
489.1649, 1782.866
489.6470, 1797.537
490.1292, 1798.337
490.6113, 1783.811
491.0934, 1773.921
491.5755, 1770.951
492.0576, 1769.225
492.5397, 1765.792
493.0219, 1763.203
493.5040, 1766.182
493.9861, 1775.826
494.4682, 1786.383
494.9503, 1791.122
495.4324, 1790.011
495.9146, 1783.608
496.3967, 1767.659
496.8788, 1753.183
497.3609, 1747.232
497.8430, 1746.288
498.3251, 1744.539
498.8073, 1740.120
499.2894, 1735.844
499.7715, 1731.925
500.2536, 1729.898
500.7357, 1736.518
501.2178, 1754.020
501.6999, 1768.404
502.1820, 1764.460
502.6642, 1741.584
503.1463, 1726.857
503.6284, 1723.749
504.1105, 1723.643
504.5926, 1727.259
505.0747, 1731.079
505.5569, 1730.775
506.0390, 1725.283
506.5211, 1717.192
507.0032, 1709.069
507.4853, 1700.910
507.9674, 1693.461
508.4496, 1684.998
508.9317, 1680.240
509.4138, 1685.856
509.8959, 1694.535
510.3780, 1695.287
510.8601, 1683.823
511.3423, 1672.242
511.8244, 1671.789
512.3065, 1676.752
512.7886, 1673.859
513.2708, 1660.991
513.7529, 1646.734
514.2350, 1637.668
514.7171, 1633.465
515.1992, 1630.783
515.6813, 1629.436
516.1635, 1629.622
516.6456, 1634.279
517.1277, 1638.804
517.6098, 1639.179
518.0919, 1634.473
518.5740, 1624.989
519.0562, 1608.918
519.5383, 1587.941
520.0204, 1575.845
520.5025, 1575.800
520.9846, 1577.124
521.4667, 1577.234
521.9489, 1575.992
522.4310, 1572.214
522.9131, 1565.410
523.3952, 1560.738
523.8773, 1562.055
524.3594, 1566.414
524.8416, 1570.704
525.3237, 1574.386
525.8058, 1575.009
526.2879, 1570.205
526.7700, 1562.737
527.2521, 1561.425
527.7343, 1574.662
528.2164, 1582.059
528.6985, 1579.249
529.1806, 1574.341
529.6627, 1572.353
530.1448, 1573.315
530.6270, 1575.290
531.1091, 1577.537
531.5912, 1579.132
532.0733, 1576.359
532.5554, 1567.844
533.0375, 1565.769
533.5197, 1579.281
534.0018, 1593.229
534.4839, 1589.219
534.9660, 1569.820
535.4481, 1558.558
535.9302, 1569.168
536.4124, 1583.492
536.8945, 1588.507
537.3766, 1585.936
537.8587, 1579.755
538.3408, 1571.318
538.8229, 1564.402
539.3051, 1565.160
539.7872, 1575.822
540.2693, 1584.624
540.7514, 1586.619
541.2335, 1592.117
541.7156, 1608.420
542.1978, 1628.960
542.6799, 1644.695
543.1620, 1652.651
543.6441, 1654.766
544.1262, 1650.628
544.6083, 1641.772
545.0905, 1635.902
545.5726, 1634.025
546.0547, 1634.197
546.5368, 1633.519
547.0189, 1634.129
547.5010, 1644.153
547.9832, 1675.414
548.4653, 1698.203
548.9474, 1700.281
549.4295, 1692.529
549.9116, 1682.321
550.3937, 1672.943
550.8758, 1670.559
551.3579, 1681.514
551.8400, 1701.829
552.3221, 1712.220
552.8043, 1705.516
553.2864, 1705.770
553.7685, 1720.197
554.2506, 1742.384
554.7327, 1772.037
555.2148, 1807.444
555.6970, 1838.818
556.1791, 1858.647
556.6612, 1874.263
557.1433, 1890.812
557.6254, 1909.760
558.1075, 1938.080
558.5897, 1979.408
559.0718, 2026.273
559.5539, 2067.267
560.0360, 2098.978
560.5181, 2139.933
561.0002, 2196.582
561.4824, 2254.244
561.9645, 2306.626
562.4466, 2356.825
562.9287, 2408.549
563.4108, 2463.048
563.8929, 2520.448
564.3751, 2579.631
564.8572, 2640.926
565.3393, 2710.480
565.8214, 2791.289
566.3035, 2869.696
566.7856, 2933.995
567.2678, 2991.222
567.7499, 3060.120
568.2320, 3143.504
568.7141, 3231.797
569.1962, 3333.812
569.6783, 3431.409
570.1605, 3510.323
570.6426, 3568.783
571.1247, 3610.739
571.6068, 3638.905
572.0889, 3650.971
572.5710, 3640.498
573.0532, 3607.402
573.5353, 3551.512
574.0174, 3468.809
574.4995, 3365.520
574.9816, 3237.592
575.4637, 3091.452
575.9459, 2944.817
576.4280, 2799.367
576.9101, 2661.547
577.3922, 2533.901
577.8743, 2418.564
578.3564, 2323.438
578.8386, 2250.518
579.3207, 2185.430
579.8028, 2113.151
580.2849, 2033.963
580.7670, 1966.818
581.2491, 1914.997
581.7313, 1872.126
582.2134, 1842.484
582.6955, 1818.360
583.1776, 1793.690
583.6597, 1767.617
584.1418, 1741.886
584.6240, 1717.058
585.1061, 1693.907
585.5882, 1675.003
586.0703, 1660.373
586.5524, 1644.601
587.0345, 1624.057
587.5167, 1604.883
587.9988, 1597.807
588.4809, 1606.973
588.9630, 1605.926
589.4451, 1581.344
589.9272, 1559.919
590.4094, 1558.320
590.8915, 1566.551
591.3736, 1568.576
591.8557, 1559.308
592.3378, 1544.731
592.8199, 1529.430
593.3021, 1513.916
593.7842, 1506.735
594.2663, 1511.227
594.7484, 1514.230
595.2305, 1509.124
595.7126, 1499.075
596.1948, 1488.072
596.6769, 1474.301
597.1590, 1468.115
597.6411, 1479.086
598.1232, 1493.551
598.6053, 1497.204
599.0875, 1493.883
599.5696, 1499.993
600.0517, 1523.852
600.5338, 1549.607
601.0159, 1544.463
601.4980, 1499.733
601.9802, 1470.200
602.4623, 1463.223
602.9444, 1463.413
603.4265, 1463.372
603.9086, 1465.128
604.3907, 1473.848
604.8729, 1493.979
605.3550, 1508.531
605.8371, 1503.326
606.3192, 1489.147
606.8013, 1478.912
607.2834, 1474.541
607.7656, 1478.126
608.2477, 1492.425
608.7298, 1510.532
609.2119, 1512.787
609.6940, 1491.766
610.1761, 1471.924
610.6583, 1446.188
611.1404, 1429.702
611.6225, 1434.479
612.1046, 1453.040
612.5867, 1471.021
613.0688, 1485.675
613.5510, 1492.953
614.0331, 1483.479
614.5152, 1465.218
614.9973, 1456.639
615.4794, 1460.128
615.9615, 1467.669
616.4437, 1473.729
616.9258, 1479.086
617.4079, 1487.065
617.8900, 1503.488
618.3721, 1512.918
618.8542, 1506.978
619.3364, 1501.602
619.8185, 1508.548
620.3006, 1523.910
620.7827, 1536.952
621.2648, 1543.341
621.7469, 1544.139
622.2291, 1535.099
622.7112, 1520.966
623.1933, 1521.199
623.6754, 1540.072
624.1575, 1561.134
624.6396, 1572.262
625.1218, 1574.669
625.6039, 1575.221
626.0860, 1569.849
626.5681, 1568.224
627.0502, 1570.355
627.5323, 1576.730
628.0145, 1588.228
628.4966, 1604.317
628.9787, 1624.383
629.4608, 1650.404
629.9429, 1674.674
630.4250, 1685.929
630.9072, 1685.860
631.3893, 1683.433
631.8714, 1680.370
632.3535, 1673.625
632.8356, 1658.703
633.3177, 1637.940
633.7999, 1626.768
634.2820, 1638.759
634.7641, 1641.051
635.2462, 1622.774
635.7283, 1600.432
636.2104, 1586.398
636.6926, 1579.424
637.1747, 1570.633
637.6568, 1553.830
638.1389, 1536.877
638.6210, 1535.357
639.1031, 1546.006
639.5853, 1544.810
640.0674, 1525.861
640.5495, 1504.040
641.0316, 1490.316
641.5137, 1483.468
641.9958, 1476.531
642.4780, 1470.492
642.9601, 1462.993
643.4422, 1450.391
643.9243, 1439.070
644.4064, 1434.942
644.8885, 1436.342
645.3707, 1437.484
645.8528, 1435.367
646.3349, 1431.745
646.8170, 1428.761
647.2991, 1426.386
647.7813, 1424.858
648.2634, 1424.538
648.7455, 1422.914
649.2276, 1417.297
649.7097, 1409.158
650.1918, 1404.802
650.6740, 1406.875
651.1561, 1408.723
651.6382, 1410.403
652.1203, 1411.430
652.6024, 1409.037
653.0845, 1405.953
653.5667, 1410.131
654.0488, 1427.022
654.5309, 1442.775
655.0130, 1435.832
655.4951, 1412.460
655.9772, 1398.742
656.4594, 1397.984
656.9415, 1404.531
657.4236, 1418.277
657.9057, 1433.597
658.3878, 1433.038
658.8699, 1400.002
659.3521, 1379.861
659.8342, 1380.262
660.3163, 1385.675
660.7984, 1391.280
661.2805, 1394.930
661.7626, 1392.589
662.2448, 1382.111
662.7269, 1373.018
663.2090, 1376.973
663.6911, 1389.002
664.1732, 1397.115
664.6553, 1400.313
665.1375, 1399.981
665.6196, 1395.872
666.1017, 1390.835
666.5838, 1391.092
667.0659, 1399.410
667.5480, 1405.394
668.0302, 1408.300
668.5123, 1409.876
668.9944, 1411.809
669.4765, 1412.338
669.9586, 1407.246
670.4407, 1395.480
670.9229, 1386.842
671.4050, 1392.624
671.8871, 1403.634
672.3692, 1402.740
672.8513, 1391.993
673.3334, 1388.522
673.8156, 1400.212
674.2977, 1414.216
674.7798, 1410.588
675.2619, 1386.112
675.7440, 1369.826
676.2261, 1360.007
676.7083, 1361.385
677.1904, 1387.632
677.6725, 1416.842
678.1546, 1425.674
678.6367, 1412.944
679.1188, 1398.663
679.6010, 1391.583
680.0831, 1387.641
680.5652, 1383.110
681.0473, 1378.661
681.5294, 1375.504
682.0115, 1374.122
682.4937, 1376.353
682.9758, 1385.057
683.4579, 1398.920
683.9400, 1406.740
684.4221, 1407.290
684.9042, 1404.679
685.3864, 1395.151
685.8685, 1387.208
686.3506, 1392.048
686.8327, 1405.598
687.3148, 1407.595
687.7969, 1376.846
688.2791, 1354.070
688.7612, 1370.235
689.2433, 1399.259
689.7254, 1406.327
690.2075, 1390.477
690.6896, 1373.541
691.1718, 1369.532
691.6539, 1375.589
692.1360, 1389.078
692.6181, 1411.135
693.1002, 1418.905
693.5823, 1403.581
694.0645, 1387.807
694.5466, 1388.010
695.0287, 1399.490
695.5108, 1406.765
695.9929, 1408.987
696.4750, 1408.934
696.9572, 1407.007
697.4393, 1402.948
697.9214, 1393.443
698.4035, 1382.339
698.8856, 1378.798
699.3677, 1386.599
699.8499, 1393.823
700.3320, 1383.154
700.8141, 1361.472
701.2962, 1353.465
701.7783, 1360.322
702.2604, 1365.111
702.7426, 1359.267
703.2247, 1350.045
703.7068, 1349.881
704.1889, 1362.094
704.6710, 1367.231
705.1531, 1359.738
705.6353, 1352.004
706.1174, 1344.682
706.5995, 1340.143
707.0816, 1343.771
707.5637, 1354.661
708.0458, 1360.063
708.5280, 1344.145
709.0101, 1326.655
709.4922, 1332.665
709.9743, 1353.396
710.4564, 1366.640
710.9385, 1367.232
711.4207, 1363.850
711.9028, 1364.938
712.3849, 1368.041
712.8670, 1357.705
713.3491, 1324.671
713.8312, 1308.201
714.3134, 1329.677
714.7955, 1351.440
715.2776, 1338.985
715.7597, 1306.105
716.2418, 1291.547
716.7239, 1310.645
717.2061, 1328.528
717.6882, 1331.773
718.1703, 1329.078
718.6524, 1326.445
719.1345, 1325.142
719.6166, 1326.533
720.0988, 1331.399
720.5809, 1335.875
721.0630, 1332.951
721.5451, 1324.359
722.0272, 1321.938
722.5093, 1327.051
722.9915, 1331.205
723.4736, 1330.928
723.9557, 1326.794
724.4378, 1318.096
724.9199, 1301.111
725.4020, 1296.954
725.8842, 1315.857
726.3663, 1333.896
726.8484, 1347.846
727.3305, 1355.320
727.8126, 1349.607
728.2947, 1332.788
728.7769, 1322.043
729.2590, 1331.797
729.7411, 1347.174
730.2232, 1352.691
730.7053, 1351.652
731.1874, 1350.926
731.6696, 1352.146
732.1517, 1356.474
732.6338, 1366.248
733.1159, 1376.987
733.5980, 1368.936
734.0801, 1332.673
734.5623, 1319.757
735.0444, 1351.504
735.5265, 1383.711
736.0086, 1383.675
736.4907, 1365.050
736.9728, 1357.241
737.4550, 1364.756
737.9371, 1374.581
738.4192, 1389.831
738.9013, 1400.617
739.3834, 1397.147
739.8655, 1385.079
740.3477, 1373.504
740.8298, 1365.756
741.3119, 1364.010
741.7940, 1374.597
742.2761, 1391.594
742.7582, 1401.127
743.2404, 1403.291
743.7225, 1399.528
744.2046, 1389.556
744.6867, 1378.220
745.1688, 1370.610
745.6509, 1366.610
746.1331, 1363.517
746.6152, 1357.190
747.0973, 1359.066
747.5793, 1384.424
748.0615, 1406.182
748.5436, 1403.160
749.0257, 1382.243
749.5078, 1365.230
749.9899, 1358.039
750.4720, 1354.264
750.9542, 1352.644
751.4363, 1351.492
751.9184, 1347.998
752.4005, 1343.327
752.8826, 1341.634
753.3647, 1344.828
753.8469, 1349.807
754.3290, 1354.573
754.8111, 1358.042
755.2932, 1350.929
755.7753, 1331.736
756.2574, 1318.865
756.7396, 1321.420
757.2217, 1328.710
757.7038, 1325.736
758.1859, 1311.153
758.6680, 1305.154
759.1501, 1318.832
759.6323, 1326.802
760.1144, 1322.373
760.5965, 1313.294
761.0786, 1304.488
761.5607, 1296.492
762.0428, 1288.565
762.5250, 1277.361
763.0071, 1272.018
763.4892, 1286.993
763.9713, 1306.556
764.4534, 1305.516
764.9355, 1287.378
765.4177, 1275.785
765.8998, 1282.833
766.3819, 1297.676
766.8640, 1304.367
767.3461, 1303.394
767.8282, 1300.117
768.3104, 1293.967
768.7925, 1290.705
769.2746, 1293.916
769.7567, 1298.914
770.2388, 1299.082
770.7209, 1293.883
771.2031, 1289.880
771.6852, 1284.967
772.1673, 1284.054
772.6494, 1292.303
773.1315, 1301.398
773.6136, 1304.099
774.0958, 1301.448
774.5779, 1299.786
775.0600, 1303.535
775.5421, 1304.436
776.0242, 1292.127
776.5063, 1276.572
776.9885, 1271.227
777.4706, 1275.595
777.9527, 1283.361
778.4348, 1291.510
778.9169, 1298.725
779.3990, 1303.358
779.8812, 1305.375
780.3633, 1303.594
780.8454, 1297.563
781.3275, 1291.832
781.8096, 1287.657
782.2917, 1285.539
782.7739, 1286.614
783.2560, 1290.968
783.7381, 1293.490
784.2202, 1294.186
784.7023, 1292.932
785.1844, 1288.999
785.6666, 1283.795
786.1487, 1276.400
786.6308, 1268.615
787.1129, 1265.112
787.5950, 1267.794
788.0771, 1273.133
788.5593, 1285.903
789.0414, 1295.416
789.5235, 1283.604
790.0056, 1259.936
790.4877, 1250.699
790.9698, 1265.015
791.4520, 1285.847
791.9341, 1295.238
792.4162, 1295.912
792.8983, 1295.725
793.3804, 1294.749
793.8625, 1294.308
794.3447, 1294.701
794.8268, 1296.701
795.3089, 1302.407
795.7910, 1309.977
796.2731, 1305.858
796.7552, 1280.111
797.2374, 1265.106
797.7195, 1271.733
798.2016, 1280.387
798.6837, 1281.528
799.1658, 1277.068
799.6479, 1269.493
800.1301, 1257.459
800.6122, 1249.227
801.0943, 1250.670
801.5764, 1252.874
802.0585, 1249.259
802.5406, 1243.389
803.0228, 1240.390
803.5049, 1241.392
803.9870, 1244.952
804.4691, 1252.292
804.9512, 1258.934
805.4333, 1258.448
805.9155, 1252.200
806.3976, 1243.250
806.8797, 1232.424
807.3618, 1221.232
807.8439, 1210.255
808.3260, 1201.369
808.8082, 1198.884
809.2903, 1203.181
809.7724, 1211.436
810.2545, 1226.785
810.7366, 1236.003
811.2188, 1231.053
811.7009, 1219.928
812.1830, 1213.791
812.6651, 1213.485
813.1472, 1209.846
813.6293, 1194.741
814.1115, 1187.301
814.5936, 1196.729
815.0757, 1210.663
815.5578, 1223.440
816.0399, 1232.162
816.5220, 1230.272
817.0042, 1211.565
817.4863, 1194.051
817.9684, 1191.097
818.4505, 1192.373
818.9326, 1184.164
819.4147, 1171.070
819.8969, 1168.727
820.3790, 1181.457
820.8611, 1192.842
821.3432, 1181.034
821.8253, 1158.292
822.3074, 1159.744
822.7896, 1181.869
823.2717, 1197.878
823.7538, 1201.381
824.2359, 1200.422
824.7180, 1201.003
825.2001, 1202.579
825.6823, 1202.894
826.1644, 1200.610
826.6465, 1202.726
827.1286, 1213.793
827.6107, 1221.330
828.0928, 1215.661
828.5750, 1205.351
829.0571, 1204.878
829.5392, 1215.603
830.0213, 1222.329
830.5034, 1223.242
830.9855, 1221.029
831.4677, 1210.380
831.9498, 1201.704
832.4319, 1207.476
832.9140, 1224.109
833.3961, 1236.392
833.8782, 1237.971
834.3604, 1235.826
834.8425, 1231.899
835.3246, 1228.747
835.8067, 1227.591
836.2888, 1230.075
836.7709, 1242.263
837.2531, 1265.382
837.7352, 1286.791
838.2173, 1292.525
838.6994, 1287.551
839.1815, 1282.519
839.6636, 1278.053
840.1458, 1279.421
840.6279, 1287.913
841.1100, 1300.083
841.5921, 1314.774
842.0742, 1328.323
842.5563, 1328.864
843.0385, 1312.296
843.5206, 1302.141
844.0027, 1299.817
844.4848, 1302.310
844.9669, 1308.398
845.4490, 1318.674
845.9312, 1335.447
846.4133, 1359.586
846.8954, 1379.295
847.3775, 1395.749
847.8596, 1406.319
848.3417, 1404.464
848.8239, 1401.925
849.3060, 1409.590
849.7881, 1423.414
850.2702, 1432.187
850.7523, 1432.940
851.2344, 1428.815
851.7166, 1415.892
852.1987, 1403.703
852.6808, 1400.829
853.1629, 1404.509
853.6450, 1411.935
854.1271, 1420.746
854.6093, 1422.998
855.0914, 1409.377
855.5735, 1390.938
856.0556, 1383.515
856.5377, 1384.115
857.0198, 1386.504
857.5020, 1389.094
857.9841, 1387.652
858.4662, 1379.581
858.9483, 1369.767
859.4304, 1365.752
859.9125, 1367.359
860.3947, 1372.603
860.8768, 1382.026
861.3589, 1389.947
861.8410, 1394.556
862.3231, 1397.850
862.8052, 1402.640
863.2874, 1407.619
863.7695, 1404.313
864.2516, 1385.675
864.7337, 1375.055
865.2158, 1379.517
865.6979, 1384.454
866.1801, 1380.658
866.6622, 1374.137
867.1443, 1374.557
867.6264, 1383.260
868.1085, 1387.747
868.5906, 1382.194
869.0728, 1377.810
869.5549, 1378.527
870.0370, 1381.666
870.5191, 1387.871
871.0012, 1394.183
871.4833, 1392.201
871.9655, 1376.543
872.4476, 1361.886
872.9297, 1357.555
873.4118, 1357.298
873.8939, 1358.376
874.3760, 1357.878
874.8582, 1349.612
875.3403, 1333.282
875.8224, 1317.395
876.3045, 1307.382
876.7866, 1302.342
877.2687, 1303.381
877.7509, 1307.760
878.2330, 1307.146
878.7151, 1301.638
879.1972, 1299.838
879.6793, 1306.365
880.1614, 1313.144
880.6436, 1306.621
881.1257, 1289.372
881.6078, 1279.660
882.0899, 1277.765
882.5720, 1275.501
883.0541, 1269.891
883.5363, 1269.495
884.0184, 1284.067
884.5005, 1306.296
884.9826, 1308.349
885.4647, 1279.974
885.9468, 1269.944
886.4290, 1287.873
886.9111, 1307.106
887.3932, 1318.850
887.8753, 1324.240
888.3574, 1321.956
888.8395, 1311.526
889.3217, 1310.780
889.8038, 1328.944
890.2859, 1343.082
890.7680, 1350.825
891.2501, 1353.611
891.7322, 1349.445
892.2144, 1341.785
892.6965, 1337.149
893.1786, 1337.007
893.6607, 1335.996
894.1428, 1330.239
894.6249, 1325.967
895.1071, 1328.243
895.5892, 1332.371
896.0713, 1333.436
896.5534, 1331.189
897.0355, 1328.287
897.5176, 1327.270
897.9998, 1321.065
898.4819, 1297.637
898.9640, 1271.929
899.4461, 1263.576
899.9282, 1265.688
900.4103, 1261.352
900.8925, 1246.540
901.3746, 1229.247
901.8567, 1213.478
902.3388, 1201.879
902.8209, 1201.493
903.3030, 1207.608
903.7852, 1207.672
904.2673, 1201.421
904.7494, 1196.677
905.2315, 1197.048
905.7136, 1199.141
906.1957, 1200.195
906.6779, 1198.888
907.1600, 1187.536
907.6421, 1166.917
908.1242, 1147.696
908.6063, 1131.689
909.0884, 1126.784
909.5706, 1140.479
910.0527, 1162.955
910.5348, 1172.068
911.0169, 1166.639
911.4990, 1157.454
911.9811, 1142.298
912.4633, 1132.787
912.9454, 1133.896
913.4275, 1139.091
913.9096, 1142.999
914.3917, 1145.215
914.8738, 1143.152
915.3560, 1135.216
915.8381, 1126.399
916.3202, 1113.633
916.8023, 1105.075
917.2844, 1106.754
917.7665, 1112.802
918.2487, 1115.338
918.7308, 1114.232
919.2129, 1113.794
919.6950, 1118.694
920.1771, 1117.625
920.6592, 1098.275
921.1414, 1083.343
921.6235, 1092.593
922.1056, 1113.699
922.5877, 1122.916
923.0698, 1115.748
923.5519, 1110.338
924.0341, 1111.663
924.5162, 1114.925
924.9983, 1123.477
925.4804, 1128.795
925.9625, 1119.760
926.4446, 1100.648
926.9268, 1084.673
927.4089, 1074.824
927.8910, 1072.520
928.3731, 1086.303
928.8552, 1100.007
929.3373, 1097.358
929.8195, 1088.328
930.3016, 1090.310
930.7837, 1102.879
931.2658, 1109.698
931.7479, 1100.852
932.2300, 1088.293
932.7122, 1079.627
933.1943, 1075.235
933.6764, 1078.757
934.1585, 1086.323
934.6406, 1088.487
935.1227, 1083.288
935.6049, 1076.984
936.0870, 1073.494
936.5691, 1072.819
937.0512, 1077.094
937.5333, 1083.442
938.0154, 1085.483
938.4976, 1083.209
938.9797, 1079.740
939.4618, 1076.303
939.9439, 1071.616
940.4260, 1061.469
940.9081, 1051.780
941.3903, 1061.229
941.8724, 1084.766
942.3545, 1099.163
942.8366, 1101.357
943.3187, 1097.295
943.8008, 1089.643
944.2830, 1084.354
944.7651, 1092.146
945.2471, 1110.021
945.7292, 1121.618
946.2114, 1126.967
946.6935, 1123.903
947.1756, 1111.357
947.6577, 1101.790
948.1398, 1104.719
948.6219, 1111.697
949.1041, 1102.421
949.5862, 1076.188
950.0683, 1071.800
950.5504, 1093.149
951.0325, 1107.206
951.5146, 1103.653
951.9968, 1097.087
952.4789, 1099.179
952.9610, 1107.632
953.4431, 1115.613
953.9252, 1122.589
954.4073, 1131.860
954.8895, 1143.816
955.3716, 1157.222
955.8537, 1173.149
956.3358, 1187.292
956.8179, 1195.150
957.3000, 1197.524
957.7822, 1197.631
958.2643, 1191.418
958.7464, 1194.991
959.2285, 1216.211
959.7106, 1232.547
960.1927, 1231.555
960.6749, 1226.280
961.1570, 1232.924
961.6391, 1249.974
962.1212, 1258.774
962.6033, 1250.968
963.0854, 1250.863
963.5676, 1266.424
964.0497, 1280.650
964.5318, 1285.578
965.0139, 1285.630
965.4960, 1285.670
965.9781, 1285.686
966.4603, 1287.552
966.9424, 1294.180
967.4245, 1298.266
967.9066, 1298.845
968.3887, 1297.267
968.8708, 1291.025
969.3530, 1284.659
969.8351, 1285.537
970.3172, 1294.252
970.7993, 1302.008
971.2814, 1308.865
971.7635, 1313.511
972.2457, 1313.222
972.7278, 1313.207
973.2099, 1321.836
973.6920, 1330.745
974.1741, 1321.312
974.6563, 1289.675
975.1384, 1273.465
975.6205, 1295.344
976.1026, 1311.291
976.5847, 1300.802
977.0668, 1288.085
977.5490, 1292.970
978.0311, 1307.783
978.5132, 1315.995
978.9953, 1314.781
979.4774, 1311.477
979.9595, 1306.200
980.4417, 1301.341
980.9238, 1296.416
981.4059, 1293.487
981.8880, 1297.694
982.3701, 1304.306
982.8522, 1300.278
983.3344, 1280.795
983.8165, 1272.571
984.2986, 1299.286
984.7807, 1320.082
985.2628, 1309.251
985.7449, 1290.424
986.2271, 1286.428
986.7092, 1292.692
987.1913, 1291.448
987.6734, 1276.503
988.1555, 1270.474
988.6376, 1294.497
989.1198, 1314.036
989.6019, 1306.122
990.0840, 1289.510
990.5661, 1282.805
991.0482, 1284.080
991.5303, 1282.110
992.0125, 1273.033
992.4946, 1267.794
992.9767, 1276.167
993.4588, 1283.477
993.9409, 1280.176
994.4230, 1272.572
994.9052, 1266.631
995.3873, 1262.597
995.8694, 1258.359
996.3515, 1252.808
996.8336, 1250.566
997.3157, 1259.577
997.7979, 1265.682
998.2800, 1257.252
998.7621, 1243.944
999.2442, 1235.033
999.7263, 1230.945
1000.208, 1229.287
1000.691, 1229.664
1001.173, 1230.441
1001.655, 1230.083
1002.137, 1230.814
1002.619, 1234.895
1003.101, 1240.071
1003.583, 1244.921
1004.065, 1248.573
1004.547, 1249.465
1005.030, 1246.971
1005.512, 1243.053
1005.994, 1239.218
1006.476, 1233.447
1006.958, 1219.172
1007.440, 1206.435
1007.922, 1209.450
1008.404, 1223.103
1008.887, 1230.495
1009.369, 1226.311
1009.851, 1220.763
1010.333, 1213.327
1010.815, 1211.585
1011.297, 1229.814
1011.779, 1247.935
1012.261, 1241.002
1012.743, 1216.932
1013.226, 1201.050
1013.708, 1200.840
1014.190, 1201.239
1014.672, 1194.255
1015.154, 1188.798
1015.636, 1193.444
1016.118, 1198.446
1016.600, 1192.190
1017.083, 1178.809
1017.565, 1169.328
1018.047, 1165.973
1018.529, 1168.329
1019.011, 1184.143
1019.493, 1195.594
1019.975, 1191.382
1020.457, 1182.294
1020.939, 1177.020
1021.422, 1174.750
1021.904, 1171.957
1022.386, 1167.974
1022.868, 1163.786
1023.350, 1158.832
1023.832, 1154.899
1024.314, 1150.833
1024.796, 1149.772
1025.279, 1159.068
1025.761, 1171.352
1026.243, 1170.597
1026.725, 1153.534
1027.207, 1141.885
1027.689, 1146.559
1028.171, 1148.600
1028.653, 1138.143
1029.135, 1127.808
1029.618, 1127.902
1030.100, 1133.121
1030.582, 1133.464
1031.064, 1127.826
1031.546, 1124.838
1032.028, 1129.994
1032.510, 1131.649
1032.992, 1122.859
1033.474, 1115.203
1033.957, 1114.899
1034.439, 1119.869
1034.921, 1129.748
1035.403, 1144.363
1035.885, 1149.344
1036.367, 1135.999
1036.849, 1125.025
1037.331, 1119.291
1037.814, 1114.830
1038.296, 1109.847
1038.778, 1105.224
1039.260, 1101.880
1039.742, 1099.822
1040.224, 1099.195
1040.706, 1103.666
1041.188, 1102.299
1041.671, 1086.987
1042.153, 1078.283
1042.635, 1088.765
1043.117, 1103.544
1043.599, 1106.729
1044.081, 1100.610
1044.563, 1097.769
1045.045, 1098.597
1045.527, 1102.491
1046.010, 1113.914
1046.492, 1117.073
1046.974, 1101.907
1047.456, 1086.490
1047.938, 1088.438
1048.420, 1101.356
1048.902, 1104.844
1049.384, 1097.686
1049.866, 1085.678
1050.349, 1065.252
1050.831, 1055.025
1051.313, 1061.428
1051.795, 1073.589
1052.277, 1084.154
1052.759, 1093.600
1053.241, 1105.196
1053.723, 1119.091
1054.205, 1109.652
1054.688, 1074.161
1055.170, 1050.375
1055.652, 1046.010
1056.134, 1053.263
1056.616, 1068.959
1057.098, 1086.055
1057.580, 1093.579
1058.062, 1092.908
1058.545, 1088.473
1059.027, 1081.526
1059.509, 1092.799
1059.991, 1123.541
1060.473, 1139.856
1060.955, 1125.754
1061.437, 1100.671
1061.919, 1084.254
1062.401, 1076.727
1062.884, 1084.275
1063.366, 1100.653
1063.848, 1101.879
1064.330, 1088.069
1064.812, 1071.053
1065.294, 1055.496
1065.776, 1044.612
1066.258, 1042.146
1066.740, 1043.199
1067.223, 1039.624
1067.705, 1034.852
1068.187, 1037.478
1068.669, 1044.297
1069.151, 1045.206
1069.633, 1038.614
1070.115, 1030.981
1070.597, 1026.369
1071.080, 1020.907
1071.562, 1006.538
1072.044, 993.2502
1072.526, 991.3599
1073.008, 999.2973
1073.490, 1019.294
1073.972, 1045.799
1074.454, 1060.509
1074.937, 1054.845
1075.419, 1049.094
1075.901, 1056.332
1076.383, 1066.225
1076.865, 1072.024
1077.347, 1076.801
1077.829, 1085.248
1078.311, 1095.261
1078.793, 1101.396
1079.276, 1102.497
1079.758, 1101.010
1080.240, 1100.514
1080.722, 1093.641
1081.204, 1070.817
1081.686, 1048.297
1082.168, 1036.035
1082.650, 1031.601
1083.132, 1032.928
1083.615, 1039.384
1084.097, 1040.646
1084.579, 1035.530
1085.061, 1025.632
1085.543, 1002.297
1086.025, 986.0768
1086.507, 991.3864
1086.989, 999.5523
1087.472, 989.1245
1087.954, 966.2563
1088.436, 957.3146
1088.918, 965.5416
1089.400, 976.9493
1089.882, 992.7175
1090.364, 1008.755
1090.846, 1025.497
1091.328, 1037.394
1091.811, 1038.622
1092.293, 1035.838
1092.775, 1042.842
1093.257, 1059.168
1093.739, 1074.936
1094.221, 1090.229
1094.703, 1099.714
1095.185, 1102.418
1095.667, 1101.628
1096.150, 1098.657
1096.632, 1096.714
1097.114, 1099.553
1097.596, 1106.437
1098.078, 1120.281
1098.560, 1136.252
1099.042, 1130.264
1099.524, 1106.008
1100.007, 1090.587
1100.489, 1092.148
1100.971, 1103.566
1101.453, 1122.486
1101.935, 1138.451
1102.417, 1134.499
1102.899, 1122.178
1103.381, 1117.792
1103.864, 1119.100
1104.346, 1120.726
1104.828, 1121.561
1105.310, 1121.094
1105.792, 1118.440
1106.274, 1120.934
1106.756, 1139.543
1107.238, 1157.709
1107.720, 1164.475
1108.203, 1164.282
1108.685, 1158.943
1109.167, 1151.603
1109.649, 1146.192
1110.131, 1143.507
1110.613, 1146.855
1111.095, 1166.508
1111.577, 1178.339
1112.059, 1171.828
1112.542, 1161.989
1113.024, 1154.851
1113.506, 1150.027
1113.988, 1148.427
1114.470, 1148.872
1114.952, 1144.360
1115.434, 1129.822
1115.916, 1124.157
1116.399, 1130.623
1116.881, 1138.748
1117.363, 1146.578
1117.845, 1154.059
1118.327, 1162.164
1118.809, 1167.950
1119.291, 1164.489
1119.773, 1152.423
1120.255, 1145.962
1120.738, 1145.172
1121.220, 1148.649
1121.702, 1156.247
1122.184, 1163.303
1122.666, 1167.668
1123.148, 1173.793
1123.630, 1187.973
1124.112, 1203.203
1124.594, 1199.947
1125.077, 1186.912
1125.559, 1190.121
1126.041, 1205.902
1126.523, 1217.727
1127.005, 1221.680
1127.487, 1220.745
1127.969, 1215.810
1128.451, 1211.973
1128.934, 1214.140
1129.416, 1219.323
1129.898, 1229.913
1130.380, 1237.826
1130.862, 1227.797
1131.344, 1207.446
1131.826, 1197.412
1132.308, 1202.518
1132.791, 1211.540
1133.273, 1222.471
1133.755, 1233.739
1134.237, 1250.195
1134.719, 1260.780
1135.201, 1254.676
1135.683, 1242.085
1136.165, 1234.820
1136.647, 1232.649
1137.130, 1231.548
1137.612, 1232.508
1138.094, 1231.238
1138.576, 1224.033
1139.058, 1224.220
1139.540, 1238.801
1140.022, 1250.790
1140.504, 1247.143
1140.986, 1238.867
1141.469, 1245.671
1141.951, 1264.554
1142.433, 1272.007
1142.915, 1268.390
1143.397, 1262.392
1143.879, 1255.266
1144.361, 1250.807
1144.843, 1250.475
1145.326, 1258.270
1145.808, 1280.826
1146.290, 1300.189
1146.772, 1279.038
1147.254, 1242.612
1147.736, 1241.273
1148.218, 1259.934
1148.700, 1259.973
1149.182, 1242.772
1149.665, 1238.920
1150.147, 1260.139
1150.629, 1280.351
1151.111, 1283.847
1151.593, 1281.337
1152.075, 1276.507
1152.557, 1270.700
1153.039, 1261.736
1153.521, 1254.364
1154.004, 1258.301
1154.486, 1272.185
1154.968, 1278.226
1155.450, 1267.684
1155.932, 1263.140
1156.414, 1270.284
1156.896, 1274.628
1157.378, 1268.537
1157.861, 1266.482
1158.343, 1282.996
1158.825, 1302.997
1159.307, 1295.418
1159.789, 1263.468
1160.271, 1254.959
1160.753, 1270.628
1161.235, 1278.620
1161.718, 1275.680
1162.200, 1272.937
1162.682, 1274.423
1163.164, 1280.400
1163.646, 1292.608
1164.128, 1302.938
1164.610, 1293.526
1165.092, 1276.860
1165.574, 1280.705
1166.057, 1294.138
1166.539, 1290.458
1167.021, 1271.709
1167.503, 1257.041
1167.985, 1252.972
1168.467, 1256.903
1168.949, 1276.933
1169.431, 1291.465
1169.913, 1284.159
1170.396, 1273.257
1170.878, 1272.218
1171.360, 1275.160
1171.842, 1272.001
1172.324, 1264.396
1172.806, 1264.876
1173.288, 1278.364
1173.770, 1285.966
1174.253, 1286.011
1174.735, 1283.263
1175.217, 1275.894
1175.699, 1273.695
1176.181, 1283.943
1176.663, 1296.697
1177.145, 1298.135
1177.627, 1291.657
1178.109, 1290.815
1178.592, 1294.938
1179.074, 1299.341
1179.556, 1303.577
1180.038, 1305.786
1180.520, 1306.258
1181.002, 1311.619
1181.484, 1326.374
1181.966, 1338.051
1182.448, 1329.166
1182.931, 1315.860
1183.413, 1314.880
1183.895, 1320.450
1184.377, 1328.640
1184.859, 1336.088
1185.341, 1335.650
1185.823, 1327.963
1186.305, 1327.698
1186.788, 1345.087
1187.270, 1356.669
1187.752, 1352.906
1188.234, 1349.564
1188.716, 1353.375
1189.198, 1357.214
1189.680, 1355.638
1190.162, 1351.676
1190.645, 1350.548
1191.127, 1352.142
1191.609, 1356.446
1192.091, 1364.275
1192.573, 1358.218
1193.055, 1336.875
1193.537, 1327.555
1194.019, 1338.500
1194.501, 1352.792
1194.984, 1358.840
1195.466, 1358.631
1195.948, 1351.266
1196.430, 1342.188
1196.912, 1341.071
1197.394, 1343.901
1197.876, 1344.008
1198.358, 1341.826
1198.840, 1340.824
1199.323, 1341.536
1199.805, 1340.843
1200.287, 1336.720
1200.769, 1332.769
1201.251, 1327.346
1201.733, 1325.975
1202.215, 1332.391
1202.697, 1342.871
1203.180, 1359.411
1203.662, 1374.174
1204.144, 1370.388
1204.626, 1348.700
1205.108, 1337.883
1205.590, 1339.578
1206.072, 1339.083
1206.554, 1334.998
1207.036, 1333.472
1207.519, 1336.450
1208.001, 1342.170
1208.483, 1349.948
1208.965, 1355.390
1209.447, 1350.093
1209.929, 1340.267
1210.411, 1336.465
1210.893, 1335.789
1211.375, 1330.999
1211.858, 1325.510
1212.340, 1330.443
1212.822, 1346.393
1213.304, 1359.362
1213.786, 1363.842
1214.268, 1365.891
1214.750, 1363.540
1215.232, 1364.283
1215.715, 1375.166
1216.197, 1385.654
1216.679, 1387.810
1217.161, 1385.837
1217.643, 1385.362
1218.125, 1386.822
1218.607, 1396.368
1219.089, 1415.350
1219.572, 1420.737
1220.054, 1411.502
1220.536, 1405.134
1221.018, 1405.975
1221.500, 1409.314
1221.982, 1412.454
1222.464, 1416.041
1222.946, 1419.542
1223.428, 1425.318
1223.911, 1441.822
1224.393, 1458.058
1224.875, 1456.499
1225.357, 1445.667
1225.839, 1440.984
1226.321, 1444.190
1226.803, 1450.712
1227.285, 1460.689
1227.767, 1469.277
1228.250, 1475.863
1228.732, 1480.088
1229.214, 1475.249
1229.696, 1480.995
1230.178, 1513.014
1230.660, 1546.546
1231.142, 1552.967
1231.624, 1542.078
1232.107, 1542.997
1232.589, 1554.269
1233.071, 1565.397
1233.553, 1575.530
1234.035, 1579.294
1234.517, 1578.127
##END=



