##NAMES=Malayaite
##RRUFFID=R061106
##IDEAL CHEMISTRY=CaSn^4+^O(SiO_4_)
##LOCALITY=Meldon, Dartmoor, Devon, England
##OWNER=RRUFF
##SOURCE=Michael Scott
##DESCRIPTION=Dark yellow massive associated with wollastonite and garnet
##STATUS=The identification of this mineral is confirmed by single-crystal X-ray diffraction and chemical analysis.
##URL=rruff.info/R061106
##MEASURED CHEMISTRY=Ca_1.00_Sn_1.00_O(Si_1.00_O_4_)
127.4148, 1089.773
127.8969, 1156.453
128.3790, 1229.305
128.8611, 1308.406
129.3432, 1399.560
129.8254, 1510.738
130.3075, 1641.525
130.7896, 1783.905
131.2717, 1940.506
131.7538, 2106.420
132.2359, 2275.882
132.7181, 2448.577
133.2002, 2621.571
133.6823, 2808.986
134.1644, 3010.230
134.6465, 3155.285
135.1286, 3228.169
135.6108, 3226.229
136.0929, 3128.523
136.5750, 2894.660
137.0571, 2622.396
137.5392, 2403.629
138.0213, 2234.792
138.5035, 2108.041
138.9856, 2026.844
139.4677, 1987.412
139.9498, 1974.623
140.4319, 1990.822
140.9140, 2030.466
141.3961, 2084.025
141.8783, 2151.575
142.3604, 2233.229
142.8425, 2332.554
143.3246, 2448.842
143.8067, 2568.668
144.2888, 2691.830
144.7710, 2817.001
145.2531, 2948.694
145.7352, 3061.901
146.2173, 3129.045
146.6994, 3142.393
147.1815, 3124.149
147.6637, 3115.838
148.1458, 3136.066
148.6279, 3158.655
149.1100, 3169.576
149.5921, 3167.276
150.0742, 3158.983
150.5564, 3151.028
151.0385, 3142.368
151.5206, 3136.601
152.0027, 3141.238
152.4848, 3142.710
152.9669, 3129.571
153.4491, 3100.144
153.9312, 3066.278
154.4133, 3042.186
154.8954, 3026.527
155.3775, 3022.981
155.8596, 3037.910
156.3418, 3058.633
156.8239, 3074.608
157.3060, 3083.916
157.7881, 3096.006
158.2702, 3124.728
158.7523, 3170.376
159.2345, 3232.415
159.7166, 3313.118
160.1987, 3404.526
160.6808, 3500.979
161.1629, 3600.971
161.6451, 3707.527
162.1272, 3824.658
162.6093, 3951.722
163.0914, 4093.141
163.5735, 4247.788
164.0556, 4414.071
164.5378, 4589.565
165.0199, 4773.566
165.5020, 4968.565
165.9841, 5178.200
166.4662, 5403.763
166.9483, 5646.655
167.4305, 5916.089
167.9126, 6195.350
168.3947, 6471.723
168.8768, 6741.837
169.3589, 7010.828
169.8410, 7291.045
170.3232, 7611.683
170.8053, 7897.990
171.2874, 8160.167
171.7695, 8386.337
172.2516, 8576.137
172.7337, 8727.504
173.2159, 8825.258
173.6980, 8839.060
174.1801, 8736.634
174.6622, 8577.738
175.1443, 8337.820
175.6264, 8056.759
176.1085, 7760.465
176.5907, 7461.225
177.0728, 7167.942
177.5549, 6903.693
178.0370, 6675.644
178.5191, 6472.695
179.0012, 6300.905
179.4834, 6151.166
179.9655, 6020.331
180.4476, 5906.100
180.9297, 5801.359
181.4118, 5692.865
181.8939, 5589.315
182.3761, 5467.596
182.8582, 5326.928
183.3403, 5169.291
183.8224, 4995.465
184.3045, 4805.542
184.7866, 4602.730
185.2688, 4387.785
185.7509, 4135.211
186.2330, 3914.625
186.7151, 3742.154
187.1972, 3595.260
187.6793, 3453.608
188.1615, 3310.152
188.6436, 3171.884
189.1257, 3050.894
189.6078, 2955.245
190.0899, 2864.174
190.5720, 2774.608
191.0542, 2690.778
191.5363, 2615.670
192.0184, 2550.354
192.5005, 2494.807
192.9826, 2450.059
193.4647, 2422.377
193.9469, 2392.106
194.4290, 2354.332
194.9111, 2315.898
195.3932, 2283.627
195.8753, 2258.977
196.3574, 2238.825
196.8396, 2218.994
197.3217, 2197.790
197.8038, 2182.501
198.2859, 2182.745
198.7680, 2183.744
199.2501, 2168.300
199.7323, 2133.917
200.2144, 2097.260
200.6965, 2079.572
201.1786, 2090.310
201.6607, 2091.452
202.1428, 2074.067
202.6250, 2052.456
203.1071, 2038.994
203.5892, 2035.366
204.0713, 2035.136
204.5534, 2031.223
205.0355, 2022.080
205.5177, 2016.081
205.9998, 2018.817
206.4819, 2020.799
206.9640, 2012.901
207.4461, 1994.898
207.9282, 1975.296
208.4104, 1961.916
208.8925, 1955.784
209.3746, 1951.839
209.8567, 1950.164
210.3388, 1950.460
210.8209, 1952.712
211.3030, 1956.834
211.7852, 1962.489
212.2673, 1969.766
212.7494, 1978.777
213.2315, 1986.952
213.7136, 1994.331
214.1957, 2000.957
214.6779, 2004.430
215.1600, 2006.183
215.6421, 2012.641
216.1242, 2029.455
216.6063, 2056.463
217.0884, 2080.441
217.5706, 2096.254
218.0527, 2114.517
218.5348, 2142.858
219.0169, 2178.675
219.4990, 2213.007
219.9811, 2240.023
220.4633, 2260.390
220.9454, 2280.812
221.4275, 2315.476
221.9096, 2335.811
222.3917, 2324.178
222.8738, 2289.664
223.3560, 2254.261
223.8381, 2230.834
224.3202, 2215.372
224.8023, 2186.490
225.2844, 2131.594
225.7665, 2080.328
226.2487, 2042.111
226.7308, 2012.560
227.2129, 1982.471
227.6950, 1946.944
228.1771, 1910.784
228.6592, 1888.839
229.1414, 1894.291
229.6235, 1896.636
230.1056, 1887.105
230.5877, 1873.611
231.0698, 1868.483
231.5519, 1876.694
232.0341, 1890.062
232.5162, 1891.089
232.9983, 1866.002
233.4804, 1849.137
233.9625, 1846.935
234.4446, 1851.043
234.9268, 1853.676
235.4089, 1852.498
235.8910, 1848.732
236.3731, 1844.091
236.8552, 1837.709
237.3373, 1832.270
237.8195, 1829.362
238.3016, 1826.403
238.7837, 1819.225
239.2658, 1808.111
239.7479, 1799.576
240.2300, 1802.606
240.7122, 1823.664
241.1943, 1834.287
241.6764, 1825.629
242.1585, 1815.303
242.6406, 1814.041
243.1227, 1821.840
243.6049, 1832.518
244.0870, 1841.067
244.5691, 1848.208
245.0512, 1846.858
245.5333, 1825.489
246.0154, 1807.993
246.4975, 1807.626
246.9797, 1820.013
247.4618, 1832.360
247.9439, 1834.978
248.4260, 1828.209
248.9081, 1822.927
249.3902, 1819.317
249.8724, 1816.998
250.3545, 1816.868
250.8366, 1817.854
251.3187, 1817.817
251.8008, 1815.244
252.2829, 1811.408
252.7651, 1812.278
253.2472, 1825.753
253.7293, 1834.226
254.2114, 1831.132
254.6935, 1823.679
255.1756, 1820.805
255.6578, 1826.451
256.1399, 1836.122
256.6220, 1839.512
257.1041, 1834.768
257.5862, 1826.396
258.0684, 1807.681
258.5505, 1790.303
259.0326, 1784.608
259.5147, 1793.084
259.9968, 1809.269
260.4789, 1825.220
260.9611, 1843.194
261.4432, 1854.314
261.9253, 1853.434
262.4074, 1849.633
262.8895, 1845.771
263.3716, 1843.193
263.8537, 1844.264
264.3358, 1854.111
264.8180, 1874.642
265.3001, 1886.817
265.7822, 1882.320
266.2643, 1876.680
266.7464, 1876.340
267.2285, 1880.479
267.7107, 1885.265
268.1928, 1887.814
268.6749, 1888.538
269.1570, 1890.229
269.6391, 1892.234
270.1212, 1896.375
270.6034, 1904.983
271.0855, 1915.619
271.5676, 1923.868
272.0497, 1925.858
272.5318, 1925.477
273.0139, 1932.238
273.4961, 1948.861
273.9782, 1964.682
274.4603, 1972.101
274.9424, 1977.546
275.4245, 1988.526
275.9066, 2008.209
276.3888, 2031.275
276.8709, 2052.377
277.3530, 2071.629
277.8351, 2088.106
278.3172, 2097.057
278.7993, 2106.453
279.2815, 2125.204
279.7636, 2155.154
280.2457, 2187.769
280.7278, 2215.835
281.2099, 2241.149
281.6920, 2271.955
282.1742, 2310.373
282.6563, 2354.748
283.1384, 2404.536
283.6205, 2459.572
284.1026, 2514.119
284.5847, 2565.589
285.0669, 2615.329
285.5490, 2664.635
286.0311, 2712.255
286.5132, 2765.633
286.9953, 2833.639
287.4774, 2914.794
287.9596, 2996.090
288.4417, 3078.375
288.9238, 3158.093
289.4059, 3237.521
289.8880, 3315.206
290.3701, 3374.542
290.8523, 3402.233
291.3344, 3401.221
291.8165, 3398.671
292.2986, 3394.454
292.7807, 3388.910
293.2628, 3378.946
293.7450, 3367.600
294.2271, 3365.004
294.7092, 3378.281
295.1913, 3396.568
295.6734, 3388.796
296.1555, 3330.541
296.6377, 3284.530
297.1198, 3261.902
297.6019, 3253.930
298.0840, 3250.621
298.5661, 3249.299
299.0482, 3254.892
299.5304, 3275.254
300.0125, 3318.096
300.4946, 3357.263
300.9767, 3388.251
301.4588, 3419.772
301.9409, 3459.301
302.4231, 3505.752
302.9052, 3550.928
303.3873, 3585.844
303.8694, 3609.336
304.3515, 3646.880
304.8336, 3701.356
305.3158, 3767.124
305.7979, 3843.409
306.2800, 3930.056
306.7621, 4024.521
307.2442, 4123.653
307.7263, 4233.935
308.2085, 4381.251
308.6906, 4576.032
309.1727, 4794.631
309.6548, 5017.173
310.1369, 5264.991
310.6190, 5554.061
311.1012, 5890.802
311.5833, 6278.952
312.0654, 6728.858
312.5475, 7241.460
313.0296, 7802.233
313.5117, 8401.291
313.9939, 9056.181
314.4760, 9782.421
314.9581, 10578.98
315.4402, 11436.15
315.9223, 12347.11
316.4044, 13312.18
316.8866, 14339.28
317.3687, 15446.42
317.8508, 16586.47
318.3329, 17743.61
318.8150, 18911.00
319.2971, 20062.38
319.7793, 21250.98
320.2614, 22393.31
320.7435, 23425.58
321.2256, 24353.46
321.7077, 25050.47
322.1898, 25460.96
322.6720, 25560.61
323.1541, 25360.98
323.6362, 24835.65
324.1183, 24058.09
324.6004, 22995.53
325.0826, 21707.76
325.5647, 20330.77
326.0468, 18888.26
326.5289, 17438.21
327.0110, 16072.29
327.4931, 14777.33
327.9753, 13585.58
328.4574, 12518.19
328.9395, 11551.75
329.4216, 10669.25
329.9037, 9865.060
330.3858, 9144.075
330.8680, 8514.863
331.3501, 7984.774
331.8322, 7506.455
332.3143, 7084.534
332.7964, 6704.158
333.2785, 6366.672
333.7606, 6065.199
334.2427, 5787.841
334.7249, 5527.212
335.2070, 5285.354
335.6891, 5076.328
336.1712, 4914.826
336.6533, 4769.930
337.1354, 4643.307
337.6176, 4529.485
338.0997, 4423.182
338.5818, 4323.248
339.0639, 4230.080
339.5460, 4145.935
340.0281, 4071.506
340.5103, 4003.040
340.9924, 3938.684
341.4745, 3881.507
341.9566, 3838.371
342.4387, 3805.352
342.9208, 3769.406
343.4030, 3716.104
343.8851, 3651.264
344.3672, 3607.482
344.8493, 3592.698
345.3314, 3584.508
345.8135, 3566.639
346.2957, 3550.168
346.7778, 3551.867
347.2599, 3580.001
347.7420, 3622.244
348.2241, 3660.984
348.7062, 3696.735
349.1884, 3751.175
349.6705, 3828.662
350.1526, 3933.351
350.6347, 4066.303
351.1168, 4227.609
351.5989, 4411.580
352.0811, 4602.326
352.5632, 4817.879
353.0453, 5088.875
353.5274, 5421.624
354.0095, 5801.896
354.4916, 6219.137
354.9738, 6678.682
355.4559, 7193.240
355.9380, 7776.888
356.4201, 8403.508
356.9022, 9061.654
357.3843, 9753.471
357.8665, 10493.98
358.3486, 11296.75
358.8307, 12153.02
359.3128, 13032.97
359.7949, 13982.17
360.2770, 14911.49
360.7592, 15899.51
361.2413, 16819.76
361.7234, 17605.47
362.2055, 18216.58
362.6876, 18564.50
363.1697, 18532.73
363.6519, 18105.95
364.1340, 17352.37
364.6161, 16062.68
365.0982, 14642.27
365.5803, 13137.79
366.0624, 11622.42
366.5446, 10221.94
367.0267, 8998.492
367.5088, 7950.903
367.9909, 7057.959
368.4730, 6348.577
368.9551, 5740.593
369.4373, 5233.319
369.9194, 4802.556
370.4015, 4429.551
370.8836, 4114.261
371.3657, 3849.727
371.8478, 3641.850
372.3300, 3483.611
372.8121, 3339.986
373.2942, 3205.009
373.7763, 3080.459
374.2584, 2968.552
374.7405, 2867.868
375.2227, 2777.057
375.7048, 2697.095
376.1869, 2625.053
376.6690, 2557.890
377.1511, 2495.415
377.6332, 2439.217
378.1154, 2390.571
378.5975, 2348.438
379.0796, 2309.305
379.5617, 2268.479
380.0438, 2235.397
380.5259, 2220.562
381.0081, 2211.400
381.4902, 2189.685
381.9723, 2150.407
382.4544, 2105.523
382.9365, 2071.628
383.4186, 2051.074
383.9008, 2034.599
384.3829, 2026.004
384.8650, 2017.265
385.3471, 2005.088
385.8292, 1989.552
386.3113, 1971.797
386.7935, 1952.333
387.2756, 1931.672
387.7577, 1911.119
388.2398, 1887.854
388.7219, 1870.872
389.2040, 1868.454
389.6862, 1869.737
390.1683, 1864.391
390.6504, 1850.069
391.1325, 1834.116
391.6146, 1823.398
392.0967, 1817.294
392.5789, 1812.204
393.0610, 1809.006
393.5431, 1804.199
394.0252, 1792.216
394.5073, 1775.366
394.9894, 1762.771
395.4716, 1759.803
395.9537, 1759.793
396.4358, 1755.864
396.9179, 1748.721
397.4000, 1744.060
397.8821, 1745.569
398.3643, 1750.444
398.8464, 1750.461
399.3285, 1742.538
399.8106, 1735.789
400.2927, 1730.786
400.7748, 1728.035
401.2570, 1730.077
401.7391, 1736.341
402.2212, 1740.814
402.7033, 1736.436
403.1854, 1722.008
403.6675, 1712.358
404.1497, 1709.036
404.6317, 1708.985
405.1139, 1714.121
405.5960, 1721.408
406.0781, 1726.277
406.5602, 1726.536
407.0423, 1724.533
407.5244, 1725.087
408.0066, 1729.341
408.4887, 1730.984
408.9708, 1728.705
409.4529, 1723.339
409.9350, 1712.375
410.4171, 1697.094
410.8993, 1687.172
411.3814, 1690.929
411.8635, 1703.171
412.3456, 1714.459
412.8277, 1724.548
413.3098, 1732.497
413.7920, 1737.592
414.2741, 1739.924
414.7562, 1740.551
415.2383, 1736.908
415.7204, 1735.293
416.2025, 1741.352
416.6847, 1750.462
417.1668, 1753.980
417.6489, 1749.563
418.1310, 1743.118
418.6131, 1742.541
419.0952, 1750.170
419.5774, 1753.660
420.0595, 1748.843
420.5416, 1744.648
421.0237, 1744.766
421.5058, 1748.678
421.9879, 1754.789
422.4701, 1762.325
422.9522, 1770.981
423.4343, 1780.492
423.9164, 1792.554
424.3985, 1801.164
424.8806, 1800.592
425.3628, 1799.697
425.8449, 1801.499
426.3270, 1807.430
426.8091, 1822.781
427.2912, 1858.469
427.7733, 1906.436
428.2555, 1940.776
428.7376, 1957.726
429.2197, 1973.913
429.7018, 1995.464
430.1839, 2024.632
430.6660, 2066.026
431.1482, 2124.094
431.6303, 2188.125
432.1124, 2251.294
432.5945, 2316.743
433.0766, 2390.367
433.5587, 2474.026
434.0409, 2567.249
434.5230, 2670.315
435.0051, 2785.145
435.4872, 2902.230
435.9693, 3014.232
436.4514, 3136.617
436.9336, 3278.704
437.4157, 3436.103
437.8978, 3599.675
438.3799, 3765.755
438.8620, 3932.566
439.3441, 4096.364
439.8263, 4261.971
440.3084, 4412.930
440.7905, 4553.208
441.2726, 4672.794
441.7547, 4772.218
442.2368, 4847.000
442.7190, 4880.373
443.2011, 4855.021
443.6832, 4782.315
444.1653, 4686.227
444.6474, 4566.939
445.1295, 4420.871
445.6117, 4233.088
446.0938, 4022.326
446.5759, 3829.568
447.0580, 3660.983
447.5401, 3499.513
448.0222, 3336.994
448.5044, 3178.850
448.9865, 3029.950
449.4686, 2891.581
449.9507, 2765.138
450.4328, 2652.344
450.9149, 2553.365
451.3971, 2468.362
451.8792, 2407.644
452.3613, 2347.864
452.8434, 2277.222
453.3255, 2206.410
453.8076, 2152.226
454.2898, 2119.840
454.7719, 2095.948
455.2540, 2059.535
455.7361, 2007.864
456.2182, 1968.500
456.7003, 1952.162
457.1825, 1937.560
457.6646, 1912.048
458.1467, 1878.844
458.6288, 1846.024
459.1109, 1813.068
459.5930, 1785.330
460.0752, 1772.699
460.5573, 1772.719
461.0394, 1769.280
461.5215, 1756.032
462.0036, 1738.645
462.4857, 1726.081
462.9679, 1719.682
463.4500, 1711.802
463.9321, 1698.693
464.4142, 1686.434
464.8963, 1682.771
465.3784, 1684.212
465.8606, 1678.163
466.3427, 1655.972
466.8248, 1624.645
467.3069, 1607.338
467.7890, 1611.525
468.2711, 1615.904
468.7533, 1620.305
469.2354, 1622.651
469.7175, 1620.233
470.1996, 1613.741
470.6817, 1607.509
471.1638, 1604.740
471.6460, 1604.617
472.1281, 1605.692
472.6102, 1608.642
473.0923, 1609.000
473.5744, 1604.065
474.0565, 1595.315
474.5387, 1585.592
475.0208, 1573.751
475.5029, 1564.240
475.9850, 1558.292
476.4671, 1555.905
476.9492, 1559.293
477.4313, 1567.792
477.9135, 1574.166
478.3956, 1571.727
478.8777, 1561.441
479.3598, 1556.009
479.8419, 1562.559
480.3240, 1565.486
480.8062, 1558.723
481.2883, 1549.674
481.7704, 1546.173
482.2525, 1549.655
482.7346, 1555.353
483.2167, 1558.736
483.6989, 1559.919
484.1810, 1560.556
484.6631, 1559.722
485.1452, 1560.271
485.6273, 1565.052
486.1094, 1571.866
486.5916, 1577.553
487.0737, 1581.324
487.5558, 1584.576
488.0379, 1586.574
488.5200, 1588.981
489.0021, 1596.594
489.4843, 1610.472
489.9664, 1623.826
490.4485, 1629.573
490.9306, 1627.314
491.4127, 1628.323
491.8948, 1635.162
492.3770, 1641.784
492.8591, 1644.335
493.3412, 1646.702
493.8233, 1653.095
494.3054, 1664.954
494.7875, 1682.328
495.2697, 1708.337
495.7518, 1743.824
496.2339, 1768.368
496.7160, 1771.361
497.1981, 1779.287
497.6802, 1810.851
498.1624, 1855.080
498.6445, 1892.514
499.1266, 1912.860
499.6087, 1937.387
500.0908, 1984.532
500.5729, 2048.079
501.0551, 2112.271
501.5372, 2173.785
502.0193, 2237.574
502.5014, 2309.113
502.9835, 2388.728
503.4656, 2471.629
503.9478, 2551.185
504.4299, 2640.977
504.9120, 2752.973
505.3941, 2874.559
505.8762, 2989.125
506.3583, 3091.738
506.8405, 3191.830
507.3226, 3300.744
507.8047, 3418.574
508.2868, 3540.554
508.7689, 3672.200
509.2510, 3798.084
509.7332, 3923.575
510.2153, 4035.530
510.6974, 4110.207
511.1795, 4137.819
511.6616, 4137.529
512.1437, 4125.885
512.6259, 4095.921
513.1080, 4027.577
513.5901, 3916.441
514.0722, 3783.430
514.5543, 3645.108
515.0364, 3501.345
515.5186, 3359.006
516.0007, 3209.042
516.4828, 3070.357
516.9649, 2948.612
517.4470, 2839.869
517.9291, 2741.547
518.4113, 2651.895
518.8934, 2568.496
519.3755, 2487.274
519.8576, 2408.381
520.3397, 2338.614
520.8218, 2278.229
521.3040, 2226.544
521.7861, 2189.612
522.2682, 2159.032
522.7503, 2121.380
523.2324, 2069.539
523.7145, 2026.707
524.1967, 2012.424
524.6788, 2011.822
525.1609, 2000.810
525.6430, 1976.467
526.1251, 1951.547
526.6072, 1935.718
527.0894, 1928.187
527.5715, 1922.840
528.0536, 1926.549
528.5357, 1923.410
529.0178, 1901.478
529.4999, 1879.231
529.9821, 1876.818
530.4642, 1893.648
530.9463, 1908.082
531.4284, 1898.939
531.9105, 1874.537
532.3926, 1862.030
532.8748, 1862.490
533.3569, 1869.592
533.8390, 1884.397
534.3211, 1901.776
534.8032, 1913.156
535.2853, 1917.275
535.7675, 1921.754
536.2496, 1927.308
536.7317, 1935.047
537.2138, 1948.062
537.6959, 1964.632
538.1780, 1978.845
538.6602, 1987.212
539.1423, 1991.185
539.6244, 1993.825
540.1065, 1991.425
540.5886, 1996.385
541.0707, 2017.981
541.5529, 2039.508
542.0350, 2052.063
542.5171, 2057.066
542.9992, 2060.359
543.4813, 2063.672
543.9634, 2067.911
544.4456, 2074.244
544.9277, 2082.527
545.4098, 2091.156
545.8919, 2098.543
546.3740, 2109.917
546.8561, 2133.776
547.3383, 2172.827
547.8204, 2201.246
548.3025, 2207.266
548.7846, 2215.597
549.2667, 2238.050
549.7488, 2268.541
550.2310, 2296.542
550.7131, 2318.750
551.1952, 2343.113
551.6773, 2381.806
552.1594, 2434.918
552.6415, 2482.092
553.1237, 2519.347
553.6058, 2558.044
554.0879, 2597.092
554.5700, 2643.892
555.0521, 2712.805
555.5342, 2812.330
556.0164, 2915.293
556.4985, 2997.734
556.9806, 3080.679
557.4627, 3189.265
557.9448, 3327.304
558.4269, 3492.888
558.9091, 3682.495
559.3912, 3900.378
559.8733, 4162.165
560.3554, 4456.736
560.8375, 4819.816
561.3196, 5246.477
561.8018, 5738.097
562.2839, 6284.494
562.7660, 6895.049
563.2481, 7588.170
563.7302, 8374.290
564.2123, 9250.744
564.6945, 10213.43
565.1766, 11256.60
565.6587, 12361.79
566.1408, 13505.71
566.6229, 14732.14
567.1050, 16095.74
567.5872, 17607.66
568.0693, 19228.66
568.5514, 21064.51
569.0335, 22889.22
569.5156, 24734.67
569.9977, 26454.83
570.4799, 27973.14
570.9620, 29231.95
571.4441, 29974.38
571.9262, 29871.81
572.4083, 28930.50
572.8904, 27342.29
573.3726, 24897.86
573.8547, 22259.86
574.3368, 19559.70
574.8189, 16950.38
575.3010, 14657.04
575.7831, 12703.60
576.2653, 11028.66
576.7474, 9662.573
577.2295, 8525.851
577.7116, 7563.005
578.1937, 6758.443
578.6758, 6092.988
579.1580, 5564.180
579.6401, 5147.393
580.1222, 4771.760
580.6042, 4435.127
581.0864, 4145.090
581.5685, 3927.967
582.0506, 3737.075
582.5327, 3549.586
583.0148, 3370.188
583.4969, 3212.032
583.9791, 3085.030
584.4612, 2976.612
584.9433, 2880.008
585.4254, 2792.821
585.9075, 2709.782
586.3896, 2628.917
586.8718, 2552.033
587.3539, 2480.723
587.8360, 2414.973
588.3181, 2352.649
588.8002, 2290.363
589.2823, 2235.135
589.7645, 2189.771
590.2466, 2150.841
590.7287, 2117.762
591.2108, 2088.839
591.6929, 2057.943
592.1750, 2017.275
592.6572, 1972.481
593.1393, 1936.726
593.6214, 1910.148
594.1035, 1884.696
594.5856, 1857.507
595.0677, 1829.969
595.5499, 1803.400
596.0320, 1777.336
596.5141, 1755.406
596.9962, 1736.404
597.4783, 1723.084
597.9604, 1723.859
598.4426, 1728.779
598.9247, 1720.660
599.4068, 1694.188
599.8889, 1663.497
600.3710, 1647.243
600.8531, 1643.463
601.3353, 1629.635
601.8174, 1600.841
602.2995, 1576.545
602.7816, 1569.342
603.2637, 1571.659
603.7458, 1567.488
604.2280, 1555.106
604.7101, 1541.931
605.1922, 1529.562
605.6743, 1517.183
606.1564, 1502.772
606.6385, 1487.702
607.1207, 1476.624
607.6028, 1472.119
608.0849, 1469.756
608.5670, 1459.292
609.0491, 1438.431
609.5313, 1428.151
610.0134, 1436.821
610.4955, 1445.736
610.9776, 1442.290
611.4597, 1431.128
611.9418, 1420.372
612.4240, 1409.628
612.9061, 1402.525
613.3882, 1402.971
613.8703, 1406.673
614.3524, 1409.452
614.8345, 1410.381
615.3167, 1408.764
615.7988, 1403.932
616.2809, 1396.824
616.7630, 1389.860
617.2451, 1382.139
617.7272, 1377.652
618.2094, 1382.952
618.6915, 1385.131
619.1736, 1372.485
619.6557, 1350.329
620.1378, 1334.742
620.6199, 1332.374
621.1021, 1334.057
621.5842, 1334.998
622.0663, 1335.506
622.5484, 1336.839
623.0305, 1338.889
623.5126, 1339.171
623.9948, 1335.855
624.4769, 1328.881
624.9590, 1316.632
625.4411, 1291.801
625.9232, 1277.191
626.4053, 1287.178
626.8875, 1299.602
627.3696, 1298.080
627.8517, 1285.947
628.3338, 1279.793
628.8159, 1291.548
629.2980, 1305.109
629.7802, 1306.536
630.2623, 1299.787
630.7444, 1293.075
631.2265, 1288.399
631.7086, 1284.570
632.1907, 1280.602
632.6729, 1276.431
633.1550, 1271.100
633.6371, 1262.673
634.1192, 1256.527
634.6013, 1256.995
635.0834, 1257.266
635.5656, 1250.037
636.0477, 1236.865
636.5298, 1228.202
637.0119, 1231.539
637.4940, 1238.659
637.9761, 1243.210
638.4583, 1245.299
638.9404, 1245.029
639.4225, 1242.451
639.9046, 1237.749
640.3867, 1230.305
640.8688, 1220.543
641.3510, 1217.106
641.8331, 1226.258
642.3152, 1231.306
642.7973, 1225.381
643.2794, 1217.184
643.7615, 1213.679
644.2437, 1214.751
644.7258, 1215.647
645.2079, 1214.428
645.6900, 1211.897
646.1721, 1207.537
646.6542, 1202.555
647.1364, 1200.097
647.6185, 1200.997
648.1006, 1204.283
648.5827, 1209.904
649.0648, 1217.381
649.5469, 1217.103
650.0291, 1202.870
650.5112, 1191.754
650.9933, 1187.969
651.4754, 1188.099
651.9575, 1190.465
652.4396, 1194.674
652.9218, 1199.421
653.4039, 1206.632
653.8860, 1211.942
654.3681, 1208.260
654.8502, 1200.419
655.3323, 1201.697
655.8145, 1214.740
656.2966, 1226.136
656.7787, 1221.251
657.2608, 1202.326
657.7429, 1194.404
658.2250, 1206.100
658.7072, 1210.241
659.1893, 1190.147
659.6714, 1168.627
660.1535, 1164.494
660.6356, 1175.680
661.1177, 1184.563
661.5999, 1183.201
662.0820, 1179.998
662.5641, 1178.504
663.0462, 1179.784
663.5283, 1187.800
664.0104, 1202.283
664.4926, 1215.136
664.9747, 1219.136
665.4568, 1215.553
665.9389, 1210.397
666.4210, 1202.920
666.9031, 1196.205
667.3853, 1189.392
667.8674, 1185.178
668.3495, 1188.433
668.8316, 1196.892
669.3137, 1199.618
669.7958, 1186.563
670.2780, 1176.586
670.7601, 1184.225
671.2422, 1196.834
671.7243, 1196.889
672.2064, 1183.773
672.6885, 1170.334
673.1707, 1166.308
673.6528, 1168.092
674.1349, 1165.213
674.6170, 1156.795
675.0991, 1152.663
675.5812, 1155.916
676.0634, 1161.483
676.5455, 1165.911
677.0276, 1169.277
677.5097, 1172.171
677.9918, 1174.485
678.4739, 1176.447
678.9561, 1179.962
679.4382, 1181.733
679.9203, 1177.677
680.4024, 1168.960
680.8845, 1159.648
681.3666, 1151.309
681.8488, 1146.188
682.3309, 1149.772
682.8130, 1160.919
683.2951, 1169.603
683.7772, 1174.695
684.2593, 1176.165
684.7415, 1172.791
685.2236, 1166.357
685.7057, 1163.178
686.1878, 1166.777
686.6699, 1167.889
687.1520, 1164.219
687.6342, 1160.077
688.1163, 1158.309
688.5984, 1157.896
689.0805, 1156.218
689.5626, 1152.120
690.0447, 1148.196
690.5269, 1148.257
691.0090, 1149.958
691.4911, 1145.501
691.9732, 1135.236
692.4553, 1132.565
692.9374, 1145.985
693.4196, 1165.519
693.9017, 1171.107
694.3838, 1158.696
694.8659, 1146.466
695.3480, 1127.871
695.8301, 1117.613
696.3123, 1127.657
696.7944, 1144.978
697.2765, 1152.675
697.7586, 1147.518
698.2407, 1143.010
698.7228, 1146.751
699.2050, 1153.667
699.6871, 1162.243
700.1692, 1169.478
700.6513, 1166.085
701.1334, 1149.337
701.6155, 1130.570
702.0977, 1122.405
702.5798, 1124.595
703.0619, 1136.090
703.5440, 1163.129
704.0261, 1179.838
704.5082, 1171.629
704.9904, 1155.966
705.4725, 1152.409
705.9546, 1160.144
706.4367, 1167.455
706.9188, 1172.538
707.4009, 1177.102
707.8831, 1180.528
708.3652, 1184.535
708.8473, 1191.904
709.3294, 1202.261
709.8115, 1212.054
710.2936, 1218.374
710.7758, 1223.203
711.2579, 1230.259
711.7400, 1239.410
712.2221, 1250.332
712.7042, 1264.046
713.1863, 1273.977
713.6685, 1274.337
714.1506, 1266.749
714.6327, 1259.750
715.1148, 1255.593
715.5969, 1248.488
716.0790, 1235.651
716.5612, 1222.465
717.0433, 1211.671
717.5254, 1202.901
718.0075, 1195.537
718.4896, 1190.125
718.9717, 1182.723
719.4539, 1165.921
719.9360, 1147.499
720.4181, 1141.780
720.9002, 1147.218
721.3823, 1151.093
721.8644, 1147.185
722.3465, 1138.759
722.8286, 1130.549
723.3107, 1122.314
723.7928, 1116.802
724.2750, 1114.958
724.7571, 1113.793
725.2392, 1112.452
725.7213, 1110.921
726.2034, 1109.047
726.6855, 1106.744
727.1677, 1105.034
727.6498, 1102.246
728.1319, 1102.094
728.6140, 1110.881
729.0961, 1121.308
729.5782, 1120.259
730.0604, 1107.682
730.5425, 1100.096
731.0246, 1114.397
731.5067, 1138.095
731.9888, 1143.644
732.4709, 1133.567
732.9531, 1129.109
733.4352, 1135.203
733.9173, 1147.678
734.3994, 1164.456
734.8815, 1184.059
735.3636, 1196.177
735.8458, 1193.137
736.3279, 1195.991
736.8100, 1208.994
737.2921, 1225.218
737.7742, 1243.074
738.2563, 1260.932
738.7385, 1275.757
739.2206, 1286.839
739.7027, 1294.614
740.1848, 1300.779
740.6669, 1302.624
741.1490, 1298.474
741.6312, 1287.218
742.1133, 1262.798
742.5954, 1222.537
743.0775, 1182.772
743.5596, 1170.053
744.0417, 1181.804
744.5239, 1182.744
745.0060, 1171.156
745.4881, 1156.883
745.9702, 1141.850
746.4523, 1128.495
746.9344, 1121.024
747.4166, 1120.491
747.8987, 1116.487
748.3808, 1106.716
748.8629, 1096.585
749.3450, 1082.945
749.8271, 1072.714
750.3093, 1075.786
750.7914, 1089.583
751.2735, 1099.253
751.7556, 1096.073
752.2377, 1088.438
752.7198, 1083.737
753.2020, 1080.472
753.6841, 1073.951
754.1662, 1064.705
754.6483, 1060.788
755.1304, 1067.953
755.6125, 1080.969
756.0947, 1088.576
756.5768, 1090.590
757.0589, 1087.846
757.5410, 1077.911
758.0231, 1068.875
758.5052, 1063.419
758.9874, 1062.257
759.4695, 1069.348
759.9516, 1089.423
760.4337, 1097.263
760.9158, 1080.995
761.3979, 1063.223
761.8801, 1050.715
762.3622, 1044.077
762.8443, 1046.645
763.3264, 1057.120
763.8085, 1063.471
764.2906, 1053.710
764.7728, 1039.423
765.2549, 1036.728
765.7370, 1041.206
766.2191, 1038.416
766.7012, 1026.348
767.1833, 1019.811
767.6655, 1032.193
768.1476, 1055.361
768.6297, 1060.795
769.1118, 1044.003
769.5939, 1033.975
770.0760, 1034.339
770.5582, 1040.842
771.0403, 1056.797
771.5224, 1075.227
772.0045, 1077.466
772.4866, 1056.172
772.9688, 1040.396
773.4509, 1033.664
773.9330, 1032.824
774.4151, 1041.603
774.8972, 1052.795
775.3793, 1054.393
775.8615, 1044.801
776.3436, 1038.443
776.8257, 1050.043
777.3078, 1066.655
777.7899, 1071.024
778.2720, 1066.945
778.7542, 1066.193
779.2363, 1071.013
779.7184, 1073.106
780.2005, 1064.878
780.6826, 1049.439
781.1647, 1035.435
781.6469, 1021.708
782.1290, 1019.531
782.6111, 1035.601
783.0932, 1051.415
783.5753, 1054.462
784.0574, 1048.735
784.5396, 1045.188
785.0217, 1044.876
785.5038, 1044.103
785.9859, 1041.196
786.4680, 1039.463
786.9501, 1041.857
787.4323, 1045.573
787.9144, 1046.857
788.3965, 1045.029
788.8786, 1042.045
789.3607, 1036.789
789.8428, 1032.828
790.3250, 1036.078
790.8071, 1042.515
791.2892, 1042.840
791.7713, 1036.135
792.2534, 1030.919
792.7355, 1034.879
793.2177, 1041.854
793.6998, 1032.931
794.1819, 1008.635
794.6640, 1000.927
795.1461, 1017.027
795.6282, 1034.042
796.1104, 1038.553
796.5925, 1034.508
797.0746, 1030.684
797.5567, 1027.211
798.0388, 1023.580
798.5209, 1019.130
799.0031, 1015.290
799.4852, 1012.567
799.9673, 1010.595
800.4494, 1008.412
800.9315, 1006.118
801.4136, 1006.440
801.8958, 1011.378
802.3779, 1017.953
802.8600, 1028.386
803.3421, 1037.160
803.8242, 1035.334
804.3063, 1024.325
804.7885, 1013.679
805.2706, 1008.637
805.7527, 1007.423
806.2348, 1008.327
806.7169, 1011.019
807.1990, 1015.721
807.6812, 1022.065
808.1633, 1024.266
808.6454, 1019.031
809.1275, 1011.519
809.6096, 1009.981
810.0917, 1014.767
810.5739, 1018.209
811.0560, 1018.612
811.5381, 1022.426
812.0202, 1035.466
812.5023, 1048.253
812.9844, 1049.134
813.4666, 1039.705
813.9487, 1035.603
814.4308, 1041.918
814.9129, 1047.036
815.3950, 1050.381
815.8771, 1050.589
816.3593, 1043.502
816.8414, 1033.219
817.3235, 1028.669
817.8056, 1033.185
818.2877, 1039.051
818.7698, 1042.756
819.2520, 1044.009
819.7341, 1040.400
820.2162, 1034.427
820.6983, 1032.023
821.1804, 1034.758
821.6625, 1039.950
822.1447, 1045.731
822.6268, 1051.495
823.1089, 1054.577
823.5910, 1055.414
824.0731, 1060.863
824.5552, 1072.797
825.0374, 1083.477
825.5195, 1087.086
826.0016, 1085.907
826.4837, 1086.309
826.9658, 1088.759
827.4479, 1091.550
827.9301, 1096.092
828.4122, 1098.690
828.8943, 1094.201
829.3764, 1089.159
829.8585, 1092.278
830.3406, 1103.987
830.8228, 1116.621
831.3049, 1131.296
831.7870, 1144.247
832.2691, 1153.883
832.7512, 1161.538
833.2333, 1168.001
833.7155, 1173.714
834.1976, 1179.094
834.6797, 1183.727
835.1618, 1190.068
835.6439, 1200.007
836.1260, 1212.780
836.6082, 1227.200
837.0903, 1243.477
837.5724, 1263.029
838.0545, 1286.240
838.5366, 1310.546
839.0187, 1332.941
839.5009, 1354.476
839.9830, 1379.159
840.4651, 1406.711
840.9472, 1431.769
841.4293, 1452.615
841.9114, 1475.663
842.3936, 1505.831
842.8757, 1542.401
843.3578, 1583.319
843.8399, 1631.564
844.3220, 1673.802
844.8041, 1703.393
845.2863, 1738.125
845.7684, 1789.074
846.2505, 1848.231
846.7326, 1904.062
847.2147, 1957.284
847.6968, 2002.625
848.1790, 2033.939
848.6611, 2064.950
849.1432, 2103.475
849.6253, 2139.956
850.1074, 2164.312
850.5895, 2178.686
851.0717, 2193.925
851.5538, 2217.750
852.0359, 2232.220
852.5180, 2221.009
853.0001, 2200.713
853.4822, 2192.174
853.9644, 2187.317
854.4465, 2162.349
854.9286, 2110.969
855.4107, 2055.960
855.8928, 2018.216
856.3749, 1989.592
856.8571, 1954.286
857.3392, 1915.070
857.8213, 1882.033
858.3034, 1856.996
858.7855, 1838.646
859.2676, 1827.085
859.7498, 1816.739
860.2319, 1790.900
860.7140, 1748.862
861.1961, 1725.797
861.6782, 1725.815
862.1603, 1733.258
862.6425, 1744.158
863.1245, 1753.345
863.6066, 1750.994
864.0887, 1736.392
864.5709, 1741.859
865.0530, 1780.142
865.5351, 1815.120
866.0172, 1841.364
866.4993, 1862.150
866.9814, 1878.476
867.4636, 1891.278
867.9457, 1903.964
868.4278, 1920.288
868.9099, 1926.698
869.3920, 1915.848
869.8741, 1900.173
870.3563, 1885.158
870.8384, 1869.230
871.3205, 1852.864
871.8026, 1834.504
872.2847, 1803.864
872.7668, 1747.920
873.2490, 1688.509
873.7311, 1642.788
874.2132, 1600.279
874.6953, 1540.570
875.1774, 1471.583
875.6595, 1424.137
876.1417, 1411.750
876.6238, 1410.602
877.1059, 1396.781
877.5880, 1376.837
878.0701, 1364.990
878.5522, 1358.567
879.0344, 1342.464
879.5165, 1314.159
879.9986, 1293.619
880.4807, 1298.594
880.9628, 1319.654
881.4449, 1333.389
881.9271, 1340.134
882.4092, 1346.472
882.8913, 1352.012
883.3734, 1368.558
883.8555, 1404.220
884.3376, 1446.113
884.8198, 1473.153
885.3019, 1484.815
885.7840, 1508.906
886.2661, 1550.471
886.7482, 1591.078
887.2303, 1627.309
887.7125, 1661.394
888.1946, 1694.983
888.6767, 1727.714
889.1588, 1758.859
889.6409, 1795.067
890.1230, 1815.835
890.6052, 1809.239
891.0873, 1801.084
891.5694, 1809.975
892.0515, 1816.303
892.5336, 1795.421
893.0157, 1747.568
893.4979, 1697.291
893.9800, 1651.064
894.4621, 1603.031
894.9442, 1547.988
895.4263, 1493.023
895.9084, 1442.666
896.3906, 1397.768
896.8727, 1359.252
897.3548, 1327.540
897.8369, 1297.759
898.3190, 1264.766
898.8011, 1234.361
899.2833, 1214.084
899.7654, 1198.956
900.2475, 1179.855
900.7296, 1156.439
901.2117, 1135.619
901.6938, 1122.031
902.1760, 1110.261
902.6581, 1091.806
903.1402, 1071.128
903.6223, 1057.475
904.1044, 1050.495
904.5865, 1046.890
905.0687, 1045.258
905.5508, 1042.620
906.0329, 1036.073
906.5150, 1026.220
906.9971, 1012.817
907.4792, 996.7454
907.9614, 987.8954
908.4435, 987.8192
908.9256, 986.5006
909.4077, 977.9103
909.8898, 966.6789
910.3719, 960.9416
910.8541, 960.7177
911.3362, 959.6716
911.8183, 958.3469
912.3004, 952.0488
912.7825, 936.2397
913.2646, 924.9547
913.7468, 933.1329
914.2289, 953.3732
914.7110, 956.6595
915.1931, 932.9191
915.6752, 919.1109
916.1573, 918.9626
916.6395, 923.0870
917.1216, 933.6572
917.6037, 941.9230
918.0858, 933.0695
918.5679, 907.4366
919.0500, 897.4869
919.5322, 919.8387
920.0143, 933.3831
920.4964, 928.4691
920.9785, 919.8200
921.4606, 912.7209
921.9427, 908.4550
922.4249, 909.5666
922.9070, 917.0004
923.3891, 922.7679
923.8712, 923.7540
924.3533, 924.4770
924.8354, 928.2036
925.3176, 931.2487
925.7997, 929.1857
926.2818, 923.4657
926.7639, 919.0427
927.2460, 917.5722
927.7281, 916.6965
928.2103, 914.6483
928.6924, 913.3947
929.1745, 916.1220
929.6566, 919.7631
930.1387, 918.2281
930.6208, 912.1663
931.1030, 909.8237
931.5851, 916.8978
932.0672, 925.9549
932.5493, 931.3153
933.0314, 934.5204
933.5135, 935.4575
933.9957, 936.3058
934.4778, 944.8087
934.9599, 961.7135
935.4420, 971.5959
935.9241, 955.4886
936.4063, 933.2515
936.8884, 936.9779
937.3705, 955.1102
937.8526, 961.1803
938.3347, 954.8824
938.8168, 952.9469
939.2990, 963.1929
939.7811, 974.9237
940.2632, 972.5264
940.7453, 962.7625
941.2274, 966.1701
941.7095, 979.3671
942.1917, 984.7270
942.6738, 979.5688
943.1559, 977.2910
943.6380, 987.1094
944.1201, 1001.692
944.6022, 1007.500
945.0844, 1005.956
945.5665, 1007.349
946.0486, 1011.854
946.5307, 1017.780
947.0128, 1024.639
947.4949, 1032.557
947.9771, 1041.512
948.4592, 1052.135
948.9413, 1067.518
949.4234, 1088.022
949.9055, 1103.069
950.3876, 1110.727
950.8698, 1122.922
951.3519, 1144.363
951.8340, 1172.211
952.3161, 1204.401
952.7982, 1239.740
953.2803, 1269.038
953.7625, 1289.668
954.2446, 1316.881
954.7267, 1353.000
955.2088, 1393.724
955.6909, 1437.888
956.1730, 1484.105
956.6552, 1531.363
957.1373, 1579.584
957.6194, 1622.887
958.1015, 1658.996
958.5836, 1696.471
959.0657, 1738.867
959.5479, 1779.027
960.0300, 1813.845
960.5121, 1842.856
960.9942, 1864.874
961.4763, 1879.116
961.9584, 1891.236
962.4406, 1909.285
962.9227, 1911.258
963.4048, 1886.386
963.8869, 1851.125
964.3690, 1814.096
964.8511, 1776.508
965.3333, 1743.121
965.8154, 1717.758
966.2975, 1686.212
966.7796, 1638.990
967.2617, 1597.781
967.7438, 1574.901
968.2260, 1554.701
968.7081, 1520.720
969.1902, 1477.784
969.6723, 1445.907
970.1544, 1429.214
970.6365, 1417.332
971.1187, 1414.293
971.6008, 1410.071
972.0829, 1400.262
972.5650, 1387.777
973.0471, 1374.751
973.5292, 1361.739
974.0114, 1351.274
974.4935, 1349.342
974.9756, 1340.193
975.4577, 1308.657
975.9398, 1283.396
976.4219, 1287.033
976.9041, 1300.567
977.3862, 1298.627
977.8683, 1280.602
978.3504, 1266.044
978.8325, 1260.789
979.3146, 1257.361
979.7968, 1255.170
980.2789, 1252.981
980.7610, 1249.014
981.2431, 1245.043
981.7252, 1244.713
982.2073, 1248.200
982.6895, 1249.135
983.1716, 1246.781
983.6537, 1240.105
984.1358, 1221.174
984.6179, 1205.073
985.1000, 1205.716
985.5822, 1216.137
986.0643, 1224.281
986.5464, 1227.880
987.0285, 1227.761
987.5106, 1223.672
987.9927, 1216.587
988.4749, 1205.953
988.9570, 1193.316
989.4391, 1178.394
989.9212, 1163.017
990.4033, 1150.422
990.8854, 1141.296
991.3676, 1134.046
991.8497, 1126.800
992.3318, 1122.791
992.8139, 1128.983
993.2960, 1134.651
993.7781, 1127.180
994.2603, 1111.336
994.7424, 1100.025
995.2245, 1096.772
995.7066, 1094.632
996.1887, 1093.737
996.6708, 1089.453
997.1530, 1073.979
997.6351, 1058.033
998.1172, 1055.004
998.5993, 1060.419
999.0814, 1059.483
999.5635, 1047.396
1000.046, 1035.806
1000.528, 1032.668
1001.010, 1028.344
1001.492, 1012.661
1001.974, 996.1837
1002.456, 991.4005
1002.938, 995.9635
1003.420, 1000.777
1003.903, 1003.919
1004.385, 1002.496
1004.867, 991.1728
1005.349, 979.4656
1005.831, 970.8670
1006.313, 966.7860
1006.795, 972.9631
1007.277, 984.5444
1007.759, 986.6700
1008.242, 973.2518
1008.724, 959.4838
1009.206, 948.5574
1009.688, 943.4521
1010.170, 952.5755
1010.652, 963.6785
1011.134, 962.9774
1011.616, 951.7609
1012.099, 937.7702
1012.581, 921.2495
1013.063, 911.1497
1013.545, 914.8738
1014.027, 921.9031
1014.509, 928.8319
1014.991, 933.8510
1015.473, 934.1224
1015.955, 931.0347
1016.438, 930.1037
1016.920, 934.4201
1017.402, 933.8047
1017.884, 918.8094
1018.366, 904.4052
1018.848, 898.1552
1019.330, 897.0315
1019.812, 899.2575
1020.294, 903.3500
1020.777, 906.8619
1021.259, 910.5302
1021.741, 908.1954
1022.223, 888.8932
1022.705, 874.0213
1023.187, 878.7625
1023.669, 889.0518
1024.151, 889.7028
1024.634, 883.5146
1025.116, 884.3340
1025.598, 898.7660
1026.080, 904.7060
1026.562, 886.2591
1027.044, 871.3137
1027.526, 873.1132
1028.008, 882.2333
1028.490, 892.5389
1028.973, 902.3401
1029.455, 909.2349
1029.937, 913.5562
1030.419, 912.3694
1030.901, 898.5790
1031.383, 887.7913
1031.865, 888.7446
1032.347, 891.7391
1032.830, 886.6058
1033.312, 877.2847
1033.794, 875.5739
1034.276, 884.7307
1034.758, 892.8155
1035.240, 902.4003
1035.722, 905.8957
1036.204, 896.3569
1036.687, 884.8428
1037.169, 877.8218
1037.651, 875.3235
1038.133, 878.6630
1038.615, 891.4639
1039.097, 895.4386
1039.579, 880.9818
1040.061, 872.4610
1040.543, 881.8267
1041.026, 889.1594
1041.508, 876.8049
1041.990, 855.8801
1042.472, 850.0247
1042.954, 861.7944
1043.436, 871.9023
1043.918, 883.1299
1044.400, 886.3847
1044.882, 875.1464
1045.365, 864.2155
1045.847, 863.0485
1046.329, 867.0493
1046.811, 868.1398
1047.293, 866.1412
1047.775, 865.0770
1048.257, 865.2065
1048.739, 865.4832
1049.222, 865.9592
1049.704, 865.9846
1050.186, 865.1486
1050.668, 863.7682
1051.150, 862.1649
1051.632, 860.4301
1052.114, 859.7696
1052.596, 860.1880
1053.078, 861.5403
1053.561, 863.6390
1054.043, 868.7648
1054.525, 879.3156
1055.007, 887.3632
1055.489, 881.7090
1055.971, 866.1400
1056.453, 858.8969
1056.935, 859.9069
1057.417, 858.7064
1057.900, 854.2237
1058.382, 855.3950
1058.864, 866.1171
1059.346, 876.6339
1059.828, 876.5891
1060.310, 870.0612
1060.792, 868.5362
1061.274, 870.4010
1061.757, 865.7418
1062.239, 854.9053
1062.721, 844.4863
1063.203, 836.9962
1063.685, 839.0738
1064.167, 858.8890
1064.649, 881.0284
1065.131, 874.5962
1065.614, 852.0031
1066.096, 843.5120
1066.578, 847.2162
1067.060, 852.9072
1067.542, 857.2767
1068.024, 857.9703
1068.506, 852.9888
1068.988, 846.9872
1069.470, 843.4826
1069.953, 843.5534
1070.435, 853.0662
1070.917, 865.5167
1071.399, 866.1461
1071.881, 856.1431
1072.363, 851.0124
1072.845, 858.3682
1073.327, 864.6203
1073.809, 857.4819
1074.292, 847.0245
1074.774, 839.1964
1075.256, 835.4079
1075.738, 840.2637
1076.220, 849.9569
1076.702, 853.9801
1077.184, 849.0876
1077.666, 843.4963
1078.148, 839.3787
1078.631, 837.4667
1079.113, 838.2192
1079.595, 841.2659
1080.077, 849.0243
1080.559, 857.7197
1081.041, 860.2766
1081.523, 855.6360
1082.005, 850.7503
1082.488, 844.5325
1082.970, 841.9161
1083.452, 846.6257
1083.934, 852.1563
1084.416, 855.7826
1084.898, 857.7012
1085.380, 858.6861
1085.862, 858.5867
1086.344, 854.8419
1086.827, 841.8309
1087.309, 836.2628
1087.791, 840.8620
1088.273, 849.2914
1088.755, 863.6388
1089.237, 874.4488
1089.719, 871.5931
1090.201, 858.6736
1090.683, 848.0849
1091.166, 839.5455
1091.648, 835.4553
1092.130, 836.8479
1092.612, 837.7085
1093.094, 836.4431
1093.576, 834.3967
1094.058, 832.0941
1094.540, 831.0564
1095.023, 835.8434
1095.505, 845.0530
1095.987, 843.3580
1096.469, 831.8471
1096.951, 827.0831
1097.433, 831.3826
1097.915, 835.9245
1098.397, 836.2721
1098.880, 834.1599
1099.362, 831.1411
1099.844, 827.6276
1100.326, 822.2721
1100.808, 817.8000
1101.290, 823.1413
1101.772, 836.3478
1102.254, 848.0456
1102.736, 855.0561
1103.219, 859.6030
1103.701, 864.1896
1104.183, 864.9542
1104.665, 851.3840
1105.147, 837.1582
1105.629, 842.0339
1106.111, 857.1046
1106.593, 865.8533
1107.075, 866.1328
1107.558, 864.4385
1108.040, 862.5875
1108.522, 861.7291
1109.004, 863.4144
1109.486, 865.0757
1109.968, 862.8077
1110.450, 861.7055
1110.932, 871.3198
1111.415, 885.7404
1111.897, 886.5881
1112.379, 867.6075
1112.861, 856.6973
1113.343, 864.1784
1113.825, 870.4734
1114.307, 868.8702
1114.789, 868.3887
1115.271, 875.5372
1115.754, 885.2098
1116.236, 889.6501
1116.718, 889.1360
1117.200, 890.4901
1117.682, 894.6730
1118.164, 897.2391
1118.646, 897.4398
1119.128, 897.6670
1119.610, 898.8207
1120.093, 900.2354
1120.575, 901.2250
1121.057, 902.1124
1121.539, 905.5015
1122.021, 910.5485
1122.503, 902.9185
1122.985, 884.1902
1123.467, 877.6574
1123.950, 887.4451
1124.432, 893.7338
1124.914, 884.3441
1125.396, 872.2106
1125.878, 874.9228
1126.360, 885.5892
1126.842, 893.7816
1127.324, 898.7544
1127.807, 898.2191
1128.289, 893.1250
1128.771, 885.0876
1129.253, 875.4170
1129.735, 871.8762
1130.217, 883.4020
1130.699, 896.3649
1131.181, 901.8016
1131.663, 903.4920
1132.146, 904.4492
1132.628, 904.1610
1133.110, 900.2078
1133.592, 893.5160
1134.074, 889.6453
1134.556, 889.7037
1135.038, 893.0968
1135.520, 905.2825
1136.002, 913.4393
1136.485, 910.0125
1136.967, 904.0348
1137.449, 903.8058
1137.931, 905.0366
1138.413, 896.9045
1138.895, 877.7336
1139.377, 872.9106
1139.859, 888.0128
1140.342, 897.6410
1140.824, 897.4879
1141.306, 896.1752
1141.788, 897.2672
1142.270, 900.4044
1142.752, 906.1192
1143.234, 911.8816
1143.716, 907.3924
1144.198, 894.9962
1144.681, 892.1093
1145.163, 898.2065
1145.645, 904.9725
1146.127, 909.8702
1146.609, 910.7420
1147.091, 905.9694
1147.573, 899.8074
1148.055, 897.0786
1148.537, 895.8031
1149.020, 890.7357
1149.502, 886.8992
1149.984, 896.4440
1150.466, 913.5124
1150.948, 920.6014
1151.430, 913.3876
1151.912, 904.8634
1152.394, 899.7445
1152.877, 896.6434
1153.359, 891.7456
1153.841, 892.3478
1154.323, 909.6921
1154.805, 930.3695
1155.287, 939.7651
1155.769, 937.9212
1156.251, 928.4085
1156.734, 905.6713
1157.216, 894.0173
1157.698, 900.2805
1158.180, 901.7199
1158.662, 890.2900
1159.144, 881.6484
1159.626, 886.0945
1160.108, 896.6245
1160.590, 902.3337
1161.073, 904.6721
1161.555, 914.3948
1162.037, 930.4646
1162.519, 936.7827
1163.001, 932.8235
1163.483, 927.5087
1163.965, 923.9774
1164.447, 922.9930
1164.929, 925.2076
1165.412, 929.7488
1165.894, 938.2121
1166.376, 946.1044
1166.858, 943.2229
1167.340, 937.0997
1167.822, 943.8086
1168.304, 959.5660
1168.786, 966.5240
1169.269, 959.2268
1169.751, 953.0918
1170.233, 956.6607
1170.715, 960.5394
1171.197, 960.1361
1171.679, 959.9565
1172.161, 962.3477
1172.643, 966.9748
1173.125, 975.7392
1173.608, 986.6652
1174.090, 988.9413
1174.572, 978.0871
1175.054, 973.0041
1175.536, 974.3855
1176.018, 980.2733
1176.500, 991.9253
1176.982, 1000.713
1177.464, 1000.723
1177.947, 998.0246
1178.429, 1001.502
1178.911, 1009.353
1179.393, 1015.738
1179.875, 1020.661
1180.357, 1023.067
1180.839, 1023.884
1181.321, 1026.903
1181.804, 1033.208
1182.286, 1042.663
1182.768, 1056.362
1183.250, 1067.492
1183.732, 1067.074
1184.214, 1064.286
1184.696, 1065.104
1185.178, 1070.216
1185.661, 1085.129
1186.143, 1103.136
1186.625, 1106.957
1187.107, 1093.395
1187.589, 1087.703
1188.071, 1108.045
1188.553, 1114.559
1189.035, 1084.618
1189.517, 1067.989
1190.000, 1089.419
1190.482, 1119.098
1190.964, 1131.010
1191.446, 1130.569
1191.928, 1130.792
1192.410, 1131.683
1192.892, 1135.795
1193.374, 1143.082
1193.856, 1154.128
1194.339, 1168.090
1194.821, 1171.160
1195.303, 1158.025
1195.785, 1145.150
1196.267, 1147.660
1196.749, 1157.274
1197.231, 1166.290
1197.713, 1173.175
1198.196, 1172.073
1198.678, 1169.429
1199.160, 1180.561
1199.642, 1200.726
1200.124, 1205.599
1200.606, 1185.572
1201.088, 1174.528
1201.570, 1193.219
1202.052, 1207.611
1202.535, 1202.870
1203.017, 1197.717
1203.499, 1204.591
1203.981, 1212.984
1204.463, 1209.260
1204.945, 1198.029
1205.427, 1200.537
1205.909, 1219.388
1206.391, 1225.610
1206.874, 1218.368
1207.356, 1218.247
1207.838, 1229.149
1208.320, 1240.306
1208.802, 1246.326
1209.284, 1250.467
1209.766, 1256.504
1210.248, 1261.994
1210.731, 1262.408
1211.213, 1260.472
1211.695, 1259.406
1212.177, 1259.568
1212.659, 1260.059
1213.141, 1261.700
1213.623, 1268.797
1214.105, 1284.359
1214.588, 1295.889
1215.070, 1296.731
1215.552, 1297.104
1216.034, 1298.237
1216.516, 1301.748
1216.998, 1307.186
1217.480, 1317.235
1217.962, 1338.685
1218.444, 1365.878
1218.927, 1370.236
1219.409, 1349.584
1219.891, 1347.025
1220.373, 1362.863
1220.855, 1375.087
1221.337, 1379.240
1221.819, 1376.687
1222.301, 1368.179
1222.783, 1364.296
1223.266, 1377.771
1223.748, 1397.501
1224.230, 1412.554
1224.712, 1423.647
1225.194, 1426.945
1225.676, 1429.567
1226.158, 1446.621
1226.640, 1473.841
1227.122, 1488.786
1227.605, 1483.646
1228.087, 1481.113
1228.569, 1485.916
1229.051, 1492.318
1229.533, 1499.959
1230.015, 1508.371
1230.497, 1517.725
1230.979, 1527.267
1231.462, 1536.853
1231.944, 1544.818
1232.426, 1545.432
1232.908, 1539.630
1233.390, 1531.789
1233.872, 1524.438
1234.354, 1535.932
1234.836, 1562.717
1235.318, 1571.186
1235.801, 1550.275
1236.283, 1530.643
1236.765, 1530.724
1237.247, 1545.583
1237.729, 1590.030
1238.211, 1627.198
1238.693, 1621.917
1239.175, 1599.785
1239.657, 1586.719
1240.140, 1582.607
1240.622, 1582.195
1241.104, 1585.759
1241.586, 1583.073
1242.068, 1569.189
1242.550, 1567.627
1243.032, 1583.884
1243.514, 1592.376
1243.997, 1584.069
1244.479, 1571.461
1244.961, 1563.427
1245.443, 1558.887
1245.925, 1556.894
1246.407, 1556.716
1246.889, 1556.412
1247.371, 1557.090
1247.854, 1564.582
1248.336, 1573.465
1248.818, 1566.918
1249.300, 1545.793
1249.782, 1538.009
1250.264, 1561.065
1250.746, 1573.568
1251.228, 1548.913
1251.710, 1535.291
1252.193, 1560.263
1252.675, 1578.730
1253.157, 1560.652
1253.639, 1532.730
1254.121, 1530.178
1254.603, 1545.173
1255.085, 1548.821
1255.567, 1542.087
1256.049, 1531.772
1256.532, 1519.902
1257.014, 1517.727
1257.496, 1524.537
1257.978, 1525.712
1258.460, 1515.507
1258.942, 1503.460
1259.424, 1492.970
1259.906, 1488.472
1260.389, 1497.985
1260.871, 1508.570
1261.353, 1510.934
1261.835, 1510.029
1262.317, 1512.255
1262.799, 1515.706
1263.281, 1515.237
1263.763, 1510.812
1264.245, 1503.610
1264.728, 1492.731
1265.210, 1485.242
1265.692, 1481.654
1266.174, 1483.438
##END=



