##NAMES=Manaksite
##RRUFFID=R060693
##IDEAL CHEMISTRY=KNaMn^2+^Si_4_O_10_
##LOCALITY=Palitra pegmatite, Kedykverpakhk Mountain, Lovozero massif, Kola Peninsula, Russia
##OWNER=RRUFF
##SOURCE=Michael Scott
##DESCRIPTION=Pale brown massive associated with grayish-green bario-olgite, R060614, purple ussingite and colorless serandite
##STATUS=The identification of this mineral is confirmed by single-crystal X-ray diffraction and chemical analysis.
##URL=rruff.info/R060693
##MEASURED CHEMISTRY=(K_0.98_Na_0.02_)_Σ=1_Na_1.00_(Mn^2+^_0.78_Fe^2+^_0.21_Mg_0.01_)_Σ=1_Si_4.00_O_10_
149.484, 13592.490
149.967, 13643.340
150.449, 13686.890
150.931, 13721.660
151.413, 13768.190
151.895, 13839.080
152.377, 13917.150
152.859, 13986.040
153.342, 14036.800
153.824, 14086.840
154.306, 14140.060
154.788, 14197.880
155.270, 14257.640
155.752, 14321.160
156.234, 14387.560
156.716, 14455.960
157.198, 14532.000
157.680, 14605.390
158.163, 14666.460
158.645, 14698.180
159.127, 14754.460
159.609, 14862.620
160.091, 15005.100
160.573, 15144.740
161.055, 15273.880
161.538, 15390.720
162.020, 15488.820
162.502, 15544.390
162.984, 15612.790
163.466, 15735.060
163.948, 15894.010
164.430, 16027.830
164.912, 16096.010
165.394, 16131.270
165.876, 16162.800
166.359, 16203.940
166.841, 16238.860
167.323, 16255.680
167.805, 16256.540
168.287, 16255.990
168.769, 16270.360
169.251, 16287.030
169.733, 16290.960
170.216, 16290.190
170.698, 16266.830
171.180, 16194.910
171.662, 16073.890
172.144, 15952.510
172.626, 15865.100
173.108, 15801.190
173.590, 15742.920
174.072, 15682.650
174.555, 15623.300
175.037, 15562.810
175.519, 15499.180
176.001, 15448.800
176.483, 15433.380
176.965, 15444.670
177.447, 15461.090
177.929, 15474.790
178.412, 15485.660
178.894, 15488.600
179.376, 15478.640
179.858, 15477.300
180.340, 15497.834
180.822, 15532.884
181.304, 15564.416
181.786, 15592.608
182.268, 15607.479
182.751, 15639.551
183.233, 15664.730
183.715, 15689.627
184.197, 15720.330
184.679, 15731.560
185.161, 15770.270
185.643, 15820.990
186.125, 15878.100
186.607, 15923.520
187.090, 15950.680
187.572, 15967.400
188.054, 15985.490
188.536, 16004.520
189.018, 16032.390
189.500, 16087.160
189.982, 16161.950
190.464, 16213.980
190.947, 16228.220
191.429, 16215.790
191.911, 16206.480
192.393, 16200.600
192.875, 16196.580
193.357, 16193.190
193.839, 16190.540
194.321, 16188.820
194.803, 16188.230
195.286, 16188.830
195.768, 16189.490
196.250, 16189.660
196.732, 16192.880
197.214, 16204.430
197.696, 16225.040
198.178, 16246.580
198.661, 16267.980
199.143, 16289.110
199.625, 16307.180
200.107, 16322.980
200.589, 16334.910
201.071, 16336.860
201.553, 16325.910
202.035, 16324.720
202.517, 16344.580
202.999, 16385.539
203.482, 16418.711
203.964, 16440.551
204.446, 16459.150
204.928, 16486.561
205.410, 16523.141
205.892, 16564.801
206.374, 16611.920
206.857, 16665.920
207.339, 16712.029
207.821, 16753.410
208.303, 16782.789
208.785, 16781.109
209.267, 16737.080
209.749, 16695.869
210.231, 16680.400
210.713, 16699.301
211.195, 16706.949
211.678, 16705.000
212.160, 16691.570
212.642, 16654.289
213.124, 16575.939
213.606, 16516.801
214.088, 16513.051
214.570, 16585.230
215.052, 16640.881
215.535, 16676.270
216.017, 16694.279
216.499, 16701.330
216.981, 16694.061
217.463, 16681.289
217.945, 16660.051
218.427, 16611.910
218.909, 16611.350
219.391, 16679.770
219.874, 16794.449
220.356, 16873.221
220.838, 16903.320
221.320, 16916.930
221.802, 16929.199
222.284, 16934.100
222.766, 16955.010
223.248, 16998.270
223.731, 17059.920
224.213, 17117.930
224.695, 17171.170
225.177, 17224.471
225.659, 17283.711
226.141, 17357.430
226.623, 17416.301
227.105, 17448.330
227.587, 17460.779
228.070, 17501.570
228.552, 17583.820
229.034, 17676.039
229.516, 17757.471
229.998, 17828.240
230.480, 17886.779
230.962, 17933.109
231.444, 17966.480
231.926, 17979.109
232.409, 17960.449
232.891, 17933.400
233.373, 17915.570
233.855, 17916.801
234.337, 17907.881
234.819, 17885.480
235.301, 17849.830
235.783, 17804.480
236.266, 17741.900
236.748, 17678.760
237.230, 17629.160
237.712, 17600.900
238.194, 17570.230
238.676, 17530.551
239.158, 17483.400
239.640, 17449.881
240.122, 17433.721
240.605, 17427.391
241.087, 17424.580
241.569, 17422.859
242.051, 17430.020
242.533, 17449.561
243.015, 17480.891
243.497, 17509.289
243.980, 17525.359
244.462, 17548.301
244.944, 17587.510
245.426, 17613.939
245.908, 17622.932
246.390, 17664.605
246.872, 17698.344
247.354, 17724.574
247.836, 17720.818
248.318, 17755.785
248.801, 17775.232
249.283, 17794.051
249.765, 17834.467
250.247, 17835.072
250.729, 17875.146
251.211, 17899.465
251.693, 17930.994
252.176, 17946.916
252.658, 17967.652
253.140, 18004.010
253.622, 18031.719
254.104, 18045.838
254.586, 18077.824
255.068, 18077.891
255.550, 18105.967
256.032, 18146.133
256.514, 18161.035
256.997, 18193.311
257.479, 18218.967
257.961, 18226.330
258.443, 18252.109
258.925, 18272.920
259.407, 18283.609
259.889, 18295.160
260.371, 18318.490
260.854, 18358.061
261.336, 18395.561
261.818, 18424.609
262.300, 18445.920
262.782, 18483.631
263.264, 18546.330
263.746, 18609.660
264.228, 18648.109
264.711, 18652.461
265.193, 18661.240
265.675, 18684.891
266.157, 18720.670
266.639, 18738.990
267.121, 18730.090
267.603, 18721.449
268.085, 18740.930
268.567, 18797.859
269.050, 18846.240
269.532, 18874.150
270.014, 18885.760
270.496, 18913.730
270.978, 18966.029
271.460, 19017.711
271.942, 19041.391
272.424, 19026.859
272.906, 19039.430
273.389, 19094.891
273.871, 19108.195
274.353, 19153.502
274.835, 19191.045
275.317, 19221.234
275.799, 19222.057
276.281, 19260.799
276.763, 19284.344
277.246, 19307.268
277.728, 19351.350
278.210, 19356.445
278.692, 19400.188
279.174, 19428.504
279.656, 19463.879
280.138, 19483.965
280.620, 19508.779
281.103, 19548.883
281.585, 19580.518
282.067, 19598.844
282.549, 19634.668
283.031, 19639.229
283.513, 19673.770
283.995, 19700.080
284.477, 19719.740
284.959, 19726.971
285.441, 19738.029
285.924, 19811.500
286.406, 19953.000
286.888, 20071.391
287.370, 20094.230
287.852, 20031.270
288.334, 19956.939
288.816, 19879.420
289.298, 19797.740
289.781, 19704.400
290.263, 19599.760
290.745, 19498.539
291.227, 19404.830
291.709, 19321.189
292.191, 19261.490
292.673, 19233.270
293.155, 19214.160
293.638, 19165.061
294.120, 19089.631
294.602, 19015.971
295.084, 18919.840
295.566, 18874.012
296.048, 18871.027
296.530, 18857.641
297.012, 18834.416
297.494, 18771.875
297.977, 18760.096
298.459, 18727.975
298.941, 18695.023
299.423, 18679.189
299.905, 18672.840
300.387, 18694.820
300.869, 18727.221
301.351, 18756.570
301.833, 18781.840
302.316, 18799.900
302.798, 18795.070
303.280, 18786.650
303.762, 18804.631
304.244, 18852.240
304.726, 18903.971
305.208, 18935.539
305.690, 18953.539
306.172, 18972.250
306.655, 19003.939
307.137, 19035.359
307.619, 19050.080
308.101, 19047.250
308.583, 19043.881
309.065, 19055.600
309.547, 19074.430
310.030, 19088.449
310.512, 19080.381
310.994, 19076.150
311.476, 19101.881
311.958, 19156.590
312.440, 19203.770
312.922, 19224.141
313.404, 19226.391
313.886, 19220.260
314.369, 19183.961
314.851, 19162.080
315.333, 19192.971
315.815, 19268.500
316.297, 19323.539
316.779, 19303.471
317.261, 19265.779
317.743, 19256.039
318.225, 19314.631
318.708, 19372.949
319.190, 19405.570
319.672, 19418.039
320.154, 19436.570
320.636, 19473.490
321.118, 19516.039
321.600, 19556.270
322.082, 19586.170
322.565, 19622.840
323.047, 19678.920
323.529, 19745.381
324.011, 19794.580
324.493, 19806.881
324.975, 19812.850
325.457, 19825.641
325.939, 19851.369
326.422, 19874.199
326.904, 19887.260
327.386, 19896.910
327.868, 19916.670
328.350, 19973.211
328.832, 20013.961
329.314, 20021.289
329.796, 19983.770
330.278, 19943.230
330.760, 19891.279
331.243, 19840.609
331.725, 19810.551
332.207, 19813.279
332.689, 19819.859
333.171, 19824.750
333.653, 19828.830
334.135, 19825.730
334.617, 19813.430
335.100, 19796.561
335.582, 19778.189
336.064, 19754.369
336.546, 19741.080
337.028, 19742.250
337.510, 19757.520
337.992, 19785.430
338.474, 19834.779
338.957, 19878.430
339.439, 19884.641
339.921, 19844.051
340.403, 19823.250
340.885, 19838.609
341.367, 19879.980
341.849, 19907.119
342.331, 19916.760
342.813, 19930.039
343.296, 19969.461
343.778, 20033.721
344.260, 20081.109
344.742, 20102.250
345.224, 20111.600
345.706, 20143.320
346.188, 20197.740
346.670, 20241.580
347.152, 20235.010
347.635, 20197.811
348.117, 20213.211
348.599, 20296.930
349.081, 20400.971
349.563, 20467.740
350.045, 20499.520
350.527, 20508.850
351.009, 20478.641
351.491, 20434.801
351.974, 20429.840
352.456, 20468.051
352.938, 20509.631
353.420, 20514.971
353.902, 20496.350
354.384, 20478.650
354.866, 20477.199
355.349, 20478.949
355.831, 20465.711
356.313, 20439.279
356.795, 20425.029
357.277, 20451.980
357.759, 20497.051
358.241, 20533.080
358.723, 20545.529
359.205, 20554.160
359.688, 20567.311
360.170, 20585.381
360.652, 20610.199
361.134, 20646.580
361.616, 20687.359
362.098, 20725.381
362.580, 20745.869
363.062, 20785.400
363.544, 20872.510
364.027, 20986.680
364.509, 21082.359
364.991, 21131.830
365.473, 21173.730
365.955, 21224.020
366.437, 21287.949
366.919, 21350.891
367.401, 21402.551
367.884, 21454.910
368.366, 21525.869
368.848, 21657.881
369.330, 21765.840
369.812, 21826.699
370.294, 21833.500
370.776, 21849.619
371.258, 21891.961
371.741, 21930.051
372.223, 21933.449
372.705, 21882.461
373.187, 21834.340
373.669, 21793.500
374.151, 21760.711
374.633, 21748.740
375.115, 21768.221
375.597, 21785.930
376.079, 21772.619
376.562, 21718.891
377.044, 21688.311
377.526, 21696.410
378.008, 21722.109
378.490, 21699.520
378.972, 21617.711
379.454, 21567.660
379.936, 21624.211
380.419, 21772.961
380.901, 21869.891
381.383, 21904.109
381.865, 21905.600
382.347, 21901.260
382.829, 21894.500
383.311, 21906.990
383.793, 21962.529
384.276, 22040.359
384.758, 22100.510
385.240, 22142.590
385.722, 22166.180
386.204, 22163.561
386.686, 22142.029
387.168, 22118.180
387.650, 22102.490
388.132, 22078.711
388.615, 22023.711
389.097, 21941.480
389.579, 21857.461
390.061, 21785.250
390.543, 21719.420
391.025, 21654.779
391.507, 21592.211
391.989, 21527.330
392.471, 21451.760
392.954, 21372.221
393.436, 21303.750
393.918, 21261.471
394.400, 21225.600
394.882, 21184.961
395.364, 21136.119
395.846, 21097.301
396.328, 21082.660
396.810, 21076.449
397.293, 21061.109
397.775, 21006.680
398.257, 20971.100
398.739, 20978.080
399.221, 21028.500
399.703, 21053.801
400.185, 21044.000
400.668, 21015.689
401.150, 20974.680
401.632, 20886.070
402.114, 20848.650
402.596, 20888.180
403.078, 20980.061
403.560, 21045.580
404.042, 21074.109
404.524, 21098.150
405.007, 21134.971
405.489, 21188.920
405.971, 21227.920
406.453, 21247.900
406.935, 21260.350
407.417, 21277.859
407.899, 21299.600
408.381, 21337.840
408.863, 21402.500
409.346, 21487.039
409.828, 21564.119
410.310, 21633.949
410.792, 21697.039
411.274, 21750.830
411.756, 21797.650
412.238, 21844.150
412.720, 21885.789
413.203, 21938.000
413.685, 22039.369
414.167, 22178.840
414.649, 22299.221
415.131, 22344.189
415.613, 22359.881
416.095, 22403.980
416.577, 22488.150
417.060, 22581.439
417.542, 22668.480
418.024, 22748.820
418.506, 22823.830
418.988, 22902.760
419.470, 22968.160
419.952, 23005.070
420.434, 23013.910
420.916, 23016.949
421.398, 23021.840
421.881, 23024.529
422.363, 23022.080
422.845, 23028.990
423.327, 23014.920
423.809, 22967.859
424.291, 22895.211
424.773, 22822.510
425.255, 22750.961
425.738, 22680.789
426.220, 22612.320
426.702, 22549.131
427.184, 22478.580
427.666, 22390.961
428.148, 22302.340
428.630, 22231.561
429.112, 22176.529
429.595, 22144.430
430.077, 22139.420
430.559, 22160.020
431.041, 22193.609
431.523, 22242.170
432.005, 22297.590
432.487, 22355.150
432.969, 22414.680
433.451, 22474.539
433.934, 22536.590
434.416, 22595.580
434.898, 22632.020
435.380, 22649.980
435.862, 22685.010
436.344, 22757.400
436.826, 22861.320
437.308, 22996.619
437.790, 23168.000
438.273, 23329.850
438.755, 23414.820
439.237, 23463.580
439.719, 23548.789
440.201, 23738.369
440.683, 23943.850
441.165, 24123.971
441.647, 24273.211
442.129, 24358.131
442.612, 24339.740
443.094, 24262.820
443.576, 24157.949
444.058, 24029.170
444.540, 23877.900
445.022, 23688.439
445.504, 23477.520
445.987, 23280.760
446.469, 23100.109
446.951, 22936.070
447.433, 22786.990
447.915, 22654.471
448.397, 22544.480
448.879, 22465.699
449.361, 22402.230
449.843, 22340.990
450.326, 22278.570
450.808, 22225.270
451.290, 22180.801
451.772, 22146.850
452.254, 22132.289
452.736, 22138.740
453.218, 22156.410
453.700, 22188.689
454.182, 22233.779
454.665, 22247.189
455.147, 22219.680
455.629, 22186.461
456.111, 22204.039
456.593, 22261.811
457.075, 22303.730
457.557, 22300.930
458.039, 22274.881
458.522, 22260.869
459.004, 22257.779
459.486, 22253.730
459.968, 22245.301
460.450, 22229.221
460.932, 22198.961
461.414, 22146.340
461.896, 22096.020
462.379, 22071.340
462.861, 22059.551
463.343, 22036.779
463.825, 21963.539
464.307, 21903.420
464.789, 21899.270
465.271, 21958.820
465.753, 21991.391
466.235, 21952.641
466.717, 21894.631
467.200, 21856.480
467.682, 21841.801
468.164, 21847.449
468.646, 21889.090
469.128, 21950.740
469.610, 21974.500
470.092, 21929.449
470.574, 21900.811
471.057, 21933.490
471.539, 22039.279
472.021, 22100.250
472.503, 22108.590
472.985, 22090.580
473.467, 22073.330
473.949, 22056.689
474.431, 22043.570
474.914, 22034.680
475.396, 22029.949
475.878, 22029.510
476.360, 22033.590
476.842, 22041.789
477.324, 22064.820
477.806, 22090.039
478.288, 22089.270
478.770, 22055.000
479.253, 22022.730
479.735, 22028.289
480.217, 22056.660
480.699, 22083.010
481.181, 22092.211
481.663, 22101.131
482.145, 22118.340
482.627, 22143.230
483.109, 22171.840
483.592, 22196.660
484.074, 22227.250
484.556, 22269.400
485.038, 22330.801
485.520, 22388.949
486.002, 22443.680
486.484, 22492.010
486.966, 22530.221
487.448, 22554.141
487.931, 22573.359
488.413, 22591.740
488.895, 22609.170
489.377, 22611.020
489.859, 22591.471
490.341, 22572.439
490.823, 22569.340
491.306, 22583.029
491.788, 22614.721
492.270, 22671.461
492.752, 22732.920
493.234, 22756.770
493.716, 22748.480
494.198, 22750.520
494.680, 22785.730
495.162, 22842.850
495.645, 22907.180
496.127, 22978.369
496.609, 23043.711
497.091, 23083.520
497.573, 23115.881
498.055, 23163.080
498.537, 23229.211
499.019, 23312.779
499.501, 23428.160
499.984, 23559.350
500.466, 23675.939
500.948, 23756.270
501.430, 23830.131
501.912, 23904.650
502.394, 23978.289
502.876, 24071.869
503.358, 24222.100
503.841, 24367.320
504.323, 24465.680
504.805, 24500.850
505.287, 24523.340
505.769, 24541.869
506.251, 24545.270
506.733, 24508.051
507.215, 24426.400
507.698, 24311.740
508.180, 24143.311
508.662, 23936.189
509.144, 23818.631
509.626, 23798.750
510.108, 23800.830
510.590, 23757.449
511.072, 23678.689
511.554, 23591.449
512.036, 23488.631
512.519, 23407.061
513.001, 23409.061
513.483, 23468.330
513.965, 23514.740
514.447, 23485.330
514.929, 23450.840
515.411, 23469.211
515.893, 23543.141
516.375, 23611.301
516.858, 23644.260
517.340, 23663.961
517.822, 23686.971
518.304, 23721.180
518.786, 23751.240
519.268, 23790.670
519.750, 23821.971
520.232, 23807.711
520.715, 23715.660
521.197, 23629.199
521.679, 23576.180
522.161, 23556.279
522.643, 23514.850
523.125, 23444.891
523.607, 23374.260
524.089, 23329.609
524.571, 23310.320
525.054, 23285.080
525.536, 23249.770
526.018, 23208.109
526.500, 23167.150
526.982, 23125.670
527.464, 23077.480
527.946, 22998.529
528.429, 22923.230
528.911, 22908.449
529.393, 22948.020
529.875, 22974.449
530.357, 22917.070
530.839, 22843.340
531.321, 22816.561
531.803, 22871.551
532.286, 22919.520
532.768, 22932.160
533.250, 22920.561
533.732, 22900.891
534.214, 22862.279
534.696, 22830.961
535.178, 22813.869
535.660, 22810.100
536.142, 22807.230
536.625, 22805.779
537.107, 22805.260
537.589, 22802.730
538.071, 22795.869
538.553, 22810.420
539.035, 22855.090
539.517, 22901.250
539.999, 22900.980
540.481, 22860.609
540.964, 22836.230
541.446, 22849.801
541.928, 22882.670
542.410, 22905.119
542.892, 22918.811
543.374, 22932.949
543.856, 22954.680
544.338, 22978.330
544.820, 22997.881
545.303, 23011.980
545.785, 23025.721
546.267, 23043.859
546.749, 23061.711
547.231, 23074.920
547.713, 23078.510
548.195, 23082.330
548.677, 23082.211
549.159, 23083.619
549.642, 23102.301
550.124, 23146.061
550.606, 23197.311
551.088, 23261.359
551.570, 23339.961
552.052, 23355.850
552.534, 23285.520
553.016, 23217.010
553.499, 23244.061
553.981, 23358.330
554.463, 23442.119
554.945, 23476.381
555.427, 23480.641
555.909, 23477.119
556.391, 23465.699
556.873, 23446.061
557.356, 23412.400
557.838, 23374.330
558.320, 23339.881
558.802, 23309.650
559.284, 23285.051
559.766, 23268.461
560.248, 23257.141
560.730, 23247.779
561.213, 23235.660
561.695, 23237.520
562.177, 23263.449
562.659, 23302.260
563.141, 23340.211
563.623, 23375.061
564.105, 23412.859
564.587, 23457.119
565.069, 23503.730
565.552, 23538.270
566.034, 23560.010
566.516, 23569.430
566.998, 23550.189
567.480, 23510.740
567.962, 23537.779
568.444, 23637.381
568.926, 23742.631
569.408, 23782.609
569.891, 23779.660
570.373, 23782.580
570.855, 23802.631
571.337, 23829.770
571.819, 23860.420
572.301, 23891.641
572.783, 23918.391
573.265, 23922.570
573.747, 23936.301
574.230, 23980.010
574.712, 24052.211
575.194, 24117.480
575.676, 24154.080
576.158, 24195.939
576.640, 24260.520
577.122, 24358.311
577.604, 24447.641
578.086, 24521.189
578.569, 24594.180
579.051, 24685.760
579.533, 24797.250
580.015, 24911.311
580.497, 25013.631
580.979, 25130.580
581.461, 25329.600
581.943, 25603.430
582.426, 25881.439
582.908, 26135.480
583.390, 26371.660
583.872, 26577.600
584.354, 26756.461
584.836, 26985.840
585.318, 27343.301
585.800, 27754.680
586.282, 28162.750
586.765, 28541.369
587.247, 28939.449
587.729, 29350.061
588.211, 29792.420
588.693, 30297.381
589.175, 30880.510
589.657, 31503.529
590.140, 32153.141
590.622, 32834.988
591.104, 33558.328
591.586, 34316.660
592.068, 35139.250
592.550, 36062.680
593.032, 37080.289
593.514, 38082.941
593.996, 39066.789
594.479, 40037.449
594.961, 41086.969
595.443, 42112.750
595.925, 42916.570
596.407, 43477.680
596.889, 43753.672
597.371, 43730.570
597.853, 43401.410
598.335, 42750.699
598.818, 41602.121
599.300, 40300.621
599.782, 38894.578
600.264, 37399.270
600.746, 35986.000
601.228, 34623.121
601.710, 33366.980
602.192, 32238.430
602.674, 31230.660
603.157, 30357.340
603.639, 29639.770
604.121, 29028.590
604.603, 28480.301
605.085, 27997.949
605.567, 27599.109
606.049, 27300.500
606.531, 27052.029
607.013, 26787.180
607.496, 26516.930
607.978, 26276.561
608.460, 26100.330
608.942, 25949.029
609.424, 25788.580
609.906, 25624.160
610.388, 25477.029
610.870, 25363.820
611.353, 25265.449
611.835, 25172.189
612.317, 25079.180
612.799, 25004.699
613.281, 24959.561
613.763, 24924.500
614.245, 24886.340
614.727, 24846.039
615.209, 24802.020
615.692, 24755.670
616.174, 24704.990
616.656, 24637.461
617.138, 24554.850
617.620, 24493.330
618.102, 24475.609
618.584, 24477.051
619.067, 24448.160
619.549, 24397.039
620.031, 24364.090
620.513, 24391.830
620.995, 24435.051
621.477, 24454.910
621.959, 24446.070
622.441, 24438.939
622.923, 24452.609
623.406, 24465.881
623.888, 24461.730
624.370, 24412.090
624.852, 24390.619
625.334, 24417.971
625.816, 24457.520
626.298, 24447.289
626.780, 24372.000
627.263, 24325.670
627.745, 24338.859
628.227, 24386.330
628.709, 24410.891
629.191, 24412.961
629.673, 24397.180
630.155, 24347.080
630.637, 24290.260
631.119, 24270.910
631.602, 24287.869
632.084, 24303.740
632.566, 24293.270
633.048, 24274.430
633.530, 24261.840
634.012, 24261.971
634.494, 24257.350
634.976, 24233.430
635.458, 24209.439
635.941, 24206.689
636.423, 24244.000
636.905, 24262.381
637.387, 24251.311
637.869, 24220.930
638.351, 24188.289
638.833, 24152.381
639.315, 24132.439
639.797, 24141.590
640.280, 24168.500
640.762, 24193.891
641.244, 24216.580
641.726, 24226.029
642.208, 24199.320
642.690, 24166.529
643.172, 24158.520
643.654, 24180.369
644.137, 24207.279
644.619, 24240.539
645.101, 24268.551
645.583, 24282.189
646.065, 24266.400
646.547, 24257.949
647.029, 24261.381
647.511, 24268.891
647.994, 24265.490
648.476, 24245.240
648.958, 24239.449
649.440, 24252.100
649.922, 24284.539
650.404, 24358.529
650.886, 24465.561
651.368, 24543.590
651.851, 24531.029
652.333, 24484.859
652.815, 24478.510
653.297, 24509.039
653.779, 24539.039
654.261, 24545.000
654.743, 24546.170
655.225, 24555.311
655.707, 24575.480
656.190, 24600.689
656.672, 24629.141
657.154, 24664.400
657.636, 24716.891
658.118, 24812.250
658.600, 24839.930
659.082, 24765.100
659.564, 24661.820
660.046, 24667.891
660.529, 24774.289
661.011, 24860.010
661.493, 24878.010
661.975, 24869.650
662.457, 24898.131
662.939, 24953.910
663.421, 25004.480
663.903, 25012.660
664.385, 25027.320
664.868, 25084.730
665.350, 25184.551
665.832, 25287.949
666.314, 25381.420
666.796, 25480.539
667.278, 25593.869
667.760, 25722.859
668.242, 25853.830
668.724, 25986.850
669.207, 26116.641
669.689, 26227.770
670.171, 26320.410
670.653, 26443.359
671.135, 26602.420
671.617, 26791.680
672.099, 27025.340
672.581, 27282.881
673.064, 27515.869
673.546, 27695.789
674.028, 27858.189
674.510, 28010.500
674.992, 28165.670
675.474, 28347.840
675.956, 28573.221
676.438, 28824.480
676.920, 29109.061
677.403, 29422.350
677.885, 29721.539
678.367, 30030.680
678.849, 30273.350
679.331, 30406.930
679.813, 30433.801
680.295, 30401.730
680.778, 30310.789
681.260, 30149.160
681.742, 29878.680
682.224, 29534.891
682.706, 29195.119
683.188, 28873.670
683.670, 28529.570
684.152, 28077.369
684.634, 27610.779
685.117, 27240.369
685.599, 27054.381
686.081, 26882.039
686.563, 26693.490
687.045, 26504.730
687.527, 26335.881
688.009, 26185.039
688.491, 26057.631
688.973, 25955.471
689.456, 25877.859
689.938, 25830.420
690.420, 25812.500
690.902, 25801.080
691.384, 25782.439
691.866, 25763.600
692.348, 25759.650
692.830, 25767.391
693.312, 25768.801
693.795, 25733.770
694.277, 25702.471
694.759, 25697.631
695.241, 25719.510
695.723, 25778.590
696.205, 25910.900
696.687, 26051.510
697.169, 26166.289
697.652, 26259.391
698.134, 26307.010
698.616, 26297.510
699.098, 26270.939
699.580, 26272.289
700.062, 26298.721
700.544, 26337.500
701.026, 26395.711
701.508, 26439.631
701.991, 26427.311
702.473, 26374.850
702.955, 26311.461
703.437, 26251.119
703.919, 26178.811
704.401, 26090.990
704.883, 25986.119
705.365, 25860.211
705.847, 25687.420
706.330, 25528.221
706.812, 25396.760
707.294, 25291.070
707.776, 25210.289
708.258, 25158.490
708.740, 25106.080
709.222, 25021.141
709.705, 24924.490
710.187, 24889.320
710.669, 24911.939
711.151, 24934.270
711.633, 24910.789
712.115, 24870.689
712.597, 24843.471
713.079, 24837.221
713.561, 24817.109
714.044, 24741.359
714.526, 24669.850
715.008, 24649.930
715.490, 24715.109
715.972, 24753.131
716.454, 24757.311
716.936, 24743.539
717.418, 24726.670
717.901, 24707.039
718.383, 24698.230
718.865, 24703.859
719.347, 24717.410
719.829, 24742.350
720.311, 24768.160
720.793, 24773.109
721.275, 24718.971
721.757, 24672.711
722.240, 24673.721
722.722, 24706.260
723.204, 24727.461
723.686, 24731.131
724.168, 24722.109
724.650, 24693.990
725.132, 24653.119
725.614, 24635.410
726.096, 24644.381
726.579, 24653.900
727.061, 24642.500
727.543, 24623.350
728.025, 24638.461
728.507, 24685.150
728.989, 24733.109
729.471, 24782.289
729.953, 24809.609
730.435, 24778.561
730.918, 24679.930
731.400, 24611.500
731.882, 24626.869
732.364, 24661.801
732.846, 24679.949
733.328, 24682.920
733.810, 24655.939
734.292, 24581.641
734.775, 24513.670
735.257, 24514.109
735.739, 24574.369
736.221, 24635.090
736.703, 24692.500
737.185, 24729.520
737.667, 24717.721
738.149, 24677.150
738.631, 24637.850
739.114, 24601.029
739.596, 24580.119
740.078, 24534.350
740.560, 24613.305
741.042, 24661.984
741.524, 24682.014
742.006, 24587.592
742.489, 24640.965
742.971, 24635.105
743.453, 24626.818
743.935, 24700.990
744.417, 24623.213
744.899, 24687.990
745.381, 24792.480
745.863, 24851.600
746.345, 24871.920
746.828, 24878.131
747.310, 24865.010
747.792, 24856.199
748.274, 24873.869
748.756, 24913.039
749.238, 24930.680
749.720, 24910.230
750.202, 24882.529
750.684, 24856.750
751.167, 24833.961
751.649, 24816.961
752.131, 24808.250
752.613, 24797.400
753.095, 24774.359
753.577, 24745.529
754.059, 24718.570
754.541, 24694.689
755.023, 24693.789
755.506, 24751.430
755.988, 24823.471
756.470, 24872.971
756.952, 24894.109
757.434, 24896.070
757.916, 24854.061
758.398, 24813.650
758.880, 24808.461
759.362, 24852.520
759.845, 24872.010
760.327, 24864.369
760.809, 24836.971
761.291, 24786.869
761.773, 24723.850
762.255, 24680.080
762.737, 24663.430
763.219, 24661.961
763.702, 24675.189
764.184, 24695.311
764.666, 24711.820
765.148, 24707.340
765.630, 24721.160
766.112, 24762.000
766.594, 24822.930
767.076, 24906.369
767.558, 25036.230
768.041, 25094.289
768.523, 25039.260
769.005, 24941.330
769.487, 24923.570
769.969, 24973.529
770.451, 25040.721
770.933, 25112.199
771.416, 25185.580
771.898, 25266.230
772.380, 25346.609
772.862, 25410.840
773.344, 25448.381
773.826, 25475.480
774.308, 25484.480
774.790, 25487.881
775.272, 25524.971
775.755, 25602.000
776.237, 25691.510
776.719, 25791.279
777.201, 25893.551
777.683, 25973.770
778.165, 26035.260
778.647, 26095.939
779.129, 26153.723
779.612, 26336.480
780.094, 26488.885
780.576, 26612.578
781.058, 26621.648
781.540, 26778.752
782.022, 26876.516
782.504, 27003.699
782.986, 26955.670
783.468, 26872.711
783.951, 26746.631
784.433, 26616.920
784.915, 26510.039
785.397, 26417.029
785.879, 26301.551
786.361, 26164.350
786.843, 26020.289
787.325, 25856.631
787.807, 25707.100
788.290, 25605.670
788.772, 25555.141
789.254, 25523.461
789.736, 25516.119
790.218, 25514.160
790.700, 25512.211
791.182, 25511.980
791.664, 25484.869
792.146, 25422.289
792.629, 25366.061
793.111, 25343.100
793.593, 25264.209
794.075, 25321.918
794.557, 25346.473
795.039, 25339.652
795.521, 25207.471
796.003, 25237.164
796.485, 25201.986
796.968, 25164.143
797.450, 25216.617
797.932, 25102.674
798.414, 25144.859
798.896, 25124.189
799.378, 25162.520
799.860, 25177.039
800.343, 25162.881
800.825, 25141.051
801.307, 25135.109
801.789, 25136.631
802.271, 25123.920
802.753, 25090.051
803.235, 25065.881
803.717, 25088.100
804.199, 25117.711
804.682, 25117.760
805.164, 25050.160
805.646, 25018.961
806.128, 25046.721
806.610, 25083.580
807.092, 25072.230
807.574, 25012.811
808.056, 24985.340
808.539, 25000.711
809.021, 25034.420
809.503, 25070.811
809.985, 25104.180
810.467, 25125.670
810.949, 25131.971
811.431, 25130.391
811.913, 25113.900
812.395, 25096.199
812.878, 25092.250
813.360, 25109.000
813.842, 25125.779
814.324, 25146.500
814.806, 25158.080
815.288, 25134.990
815.770, 25084.449
816.252, 25052.369
816.734, 25049.631
817.217, 25055.461
817.699, 25046.211
818.181, 25034.600
818.663, 25038.279
819.145, 25073.340
819.627, 25104.631
820.109, 25135.020
820.591, 25153.131
821.073, 25139.949
821.556, 25083.869
822.038, 25055.170
822.520, 25067.949
823.002, 25092.529
823.484, 25081.080
823.966, 25048.930
824.448, 25039.340
824.930, 25068.711
825.413, 25106.490
825.895, 25138.449
826.377, 25163.891
826.859, 25181.830
827.341, 25174.279
827.823, 25183.930
828.305, 25222.180
828.787, 25265.801
829.269, 25286.830
829.752, 25285.160
830.234, 25258.410
830.716, 25197.090
831.198, 25145.340
831.680, 25184.160
832.162, 25261.869
832.644, 25290.000
833.127, 25214.359
833.609, 25145.461
834.091, 25110.270
834.573, 25108.869
835.055, 25143.580
835.537, 25244.961
836.019, 25297.211
836.501, 25279.930
836.983, 25236.600
837.466, 25223.561
837.948, 25233.510
838.430, 25236.039
838.912, 25221.400
839.394, 25210.619
839.876, 25231.580
840.358, 25261.311
840.840, 25270.740
841.322, 25227.520
841.805, 25207.859
842.287, 25225.150
842.769, 25258.430
843.251, 25287.850
843.733, 25313.609
844.215, 25326.320
844.697, 25321.520
845.179, 25317.070
845.661, 25343.270
846.144, 25380.551
846.626, 25393.949
847.108, 25367.039
847.590, 25342.000
848.072, 25333.949
848.554, 25337.221
849.036, 25337.551
849.518, 25327.586
850.000, 25364.783
850.483, 25390.537
850.965, 25405.453
851.447, 25377.092
851.929, 25404.615
852.411, 25409.742
852.893, 25413.951
853.375, 25449.344
853.857, 25448.061
854.340, 25455.250
854.822, 25451.369
855.304, 25415.141
855.786, 25386.490
856.268, 25370.090
856.750, 25358.859
857.232, 25348.100
857.714, 25337.609
858.196, 25321.820
858.679, 25298.760
859.161, 25285.721
859.643, 25287.939
860.125, 25314.631
860.607, 25299.473
861.089, 25360.348
861.571, 25402.773
862.054, 25427.730
862.536, 25382.908
863.018, 25428.189
863.500, 25437.361
863.982, 25445.053
864.464, 25503.020
864.946, 25468.348
865.428, 25520.580
865.910, 25533.430
866.393, 25539.010
866.875, 25532.449
867.357, 25527.520
867.839, 25540.449
868.321, 25551.949
868.803, 25549.881
869.285, 25532.631
869.767, 25505.301
870.250, 25450.131
870.732, 25422.900
871.214, 25472.141
871.696, 25575.180
872.178, 25606.480
872.660, 25570.270
873.142, 25525.779
873.624, 25493.779
874.106, 25483.990
874.589, 25525.750
875.071, 25607.680
875.553, 25648.160
876.035, 25574.990
876.517, 25518.900
876.999, 25520.570
877.481, 25567.000
877.963, 25597.010
878.445, 25609.859
878.928, 25619.359
879.410, 25626.900
879.892, 25639.471
880.374, 25683.279
880.856, 25741.811
881.338, 25766.311
881.820, 25694.211
882.302, 25634.449
882.784, 25635.131
883.267, 25669.811
883.749, 25667.080
884.231, 25612.600
884.713, 25599.500
885.195, 25665.381
885.677, 25760.381
886.159, 25801.439
886.641, 25802.891
887.123, 25798.090
887.606, 25785.500
888.088, 25788.990
888.570, 25849.990
889.052, 25923.109
889.534, 25928.670
890.016, 25819.699
890.498, 25771.520
890.981, 25817.949
891.463, 25897.189
891.945, 25907.900
892.427, 25875.311
892.909, 25893.000
893.391, 25996.930
893.873, 26087.410
894.355, 26068.789
894.837, 26014.230
895.320, 26001.461
895.802, 26073.650
896.284, 26114.080
896.766, 26109.150
897.248, 26093.461
897.730, 26106.990
898.212, 26141.311
898.694, 26128.410
899.177, 26062.301
899.659, 26010.721
900.141, 25975.953
900.623, 26002.889
901.105, 26014.846
901.587, 26012.631
902.069, 25953.789
902.551, 25968.068
903.033, 25953.045
903.516, 25952.529
903.998, 25932.590
904.480, 25889.840
904.962, 25824.789
905.444, 25790.680
905.926, 25853.561
906.408, 25939.990
906.890, 25963.881
907.372, 25936.590
907.855, 25934.680
908.337, 26017.580
908.819, 26085.490
909.301, 26116.230
909.783, 26111.760
910.265, 26063.131
910.747, 25969.689
911.229, 25906.471
911.711, 25916.020
912.194, 25952.359
912.676, 25963.289
913.158, 25955.891
913.640, 25945.199
914.122, 25930.000
914.604, 25919.090
915.086, 25905.189
915.568, 25901.211
916.050, 25936.359
916.533, 26015.689
917.015, 26071.391
917.497, 26092.240
917.979, 26088.051
918.461, 26051.221
918.943, 26004.449
919.425, 25986.119
919.907, 26016.381
920.390, 26045.449
920.872, 26058.631
921.354, 26065.170
921.836, 26066.090
922.318, 26053.949
922.800, 26089.580
923.282, 26182.920
923.764, 26262.551
924.247, 26241.859
924.729, 26177.020
925.211, 26154.301
925.693, 26179.270
926.175, 26209.980
926.657, 26236.230
927.139, 26256.131
927.621, 26266.631
928.104, 26268.961
928.586, 26281.301
929.068, 26306.580
929.550, 26320.160
930.032, 26295.730
930.514, 26262.699
930.996, 26292.881
931.478, 26359.750
931.960, 26379.619
932.443, 26248.061
932.925, 26142.641
933.407, 26136.520
933.889, 26191.381
934.371, 26238.920
934.853, 26280.410
935.335, 26307.930
935.817, 26320.051
936.299, 26317.859
936.782, 26284.711
937.264, 26242.820
937.746, 26237.500
938.228, 26308.699
938.710, 26356.420
939.192, 26316.600
939.674, 26260.689
940.156, 26254.230
940.638, 26310.510
941.121, 26340.180
941.603, 26339.221
942.085, 26324.381
942.567, 26301.471
943.049, 26279.330
943.531, 26275.779
944.013, 26291.850
944.495, 26300.369
944.978, 26276.439
945.460, 26257.230
945.942, 26262.859
946.424, 26290.641
946.906, 26305.010
947.388, 26305.619
947.870, 26301.900
948.352, 26301.590
948.834, 26297.420
949.317, 26267.039
949.799, 26223.750
950.281, 26204.580
950.763, 26237.270
951.245, 26278.760
951.727, 26329.891
952.209, 26376.641
952.692, 26390.869
953.174, 26371.230
953.656, 26342.160
954.138, 26300.359
954.620, 26277.689
955.102, 26331.820
955.584, 26417.820
956.066, 26473.131
956.548, 26473.270
957.031, 26474.301
957.513, 26491.061
957.995, 26506.439
958.477, 26504.109
958.959, 26483.971
959.441, 26490.430
959.923, 26524.150
960.405, 26562.699
960.888, 26594.820
961.370, 26619.430
961.852, 26631.500
962.334, 26632.600
962.816, 26638.539
963.298, 26649.680
963.780, 26668.551
964.262, 26696.080
964.744, 26731.340
965.227, 26783.971
965.709, 26848.279
966.191, 26880.430
966.673, 26846.480
967.155, 26804.051
967.637, 26795.100
968.119, 26809.660
968.601, 26833.760
969.083, 26886.410
969.566, 26904.891
970.048, 26912.342
970.530, 26951.562
971.012, 26983.074
971.494, 27007.287
971.976, 27002.340
972.458, 27035.051
972.940, 27052.668
973.422, 27069.664
973.905, 27107.670
974.387, 27106.967
974.869, 27144.637
975.351, 27164.189
975.833, 27246.471
976.315, 27301.939
976.797, 27290.010
977.279, 27244.199
977.761, 27256.150
978.244, 27305.150
978.726, 27322.170
979.208, 27230.410
979.690, 27148.369
980.172, 27121.330
980.654, 27135.061
981.136, 27179.471
981.619, 27271.420
982.101, 27286.070
982.583, 27189.670
983.065, 27072.350
983.547, 27046.551
984.029, 27071.631
984.511, 27080.711
984.993, 27054.461
985.475, 27051.520
985.958, 27126.689
986.440, 27195.770
986.922, 27210.119
987.404, 27171.070
987.886, 27137.090
988.368, 27107.939
988.850, 27104.869
989.332, 27168.650
989.815, 27242.670
990.297, 27264.600
990.779, 27247.920
991.261, 27244.230
991.743, 27274.660
992.225, 27303.160
992.707, 27322.500
993.189, 27339.270
993.671, 27365.570
994.154, 27400.350
994.636, 27439.840
995.118, 27485.170
995.600, 27526.279
996.082, 27539.820
996.564, 27556.070
997.046, 27609.039
997.528, 27711.170
998.010, 27804.029
998.493, 27886.760
998.975, 27959.891
999.457, 28020.811
999.939, 28071.939
1000.421, 28115.711
1000.903, 28154.221
1001.385, 28198.051
1001.867, 28292.600
1002.349, 28348.859
1002.832, 28307.189
1003.314, 28209.750
1003.796, 28151.600
1004.278, 28136.811
1004.760, 28113.170
1005.242, 28064.289
1005.724, 28017.230
1006.206, 28010.391
1006.689, 28024.830
1007.171, 28033.840
1007.653, 28028.971
1008.135, 28029.609
1008.617, 28050.010
1009.099, 28060.850
1009.581, 28026.920
1010.063, 27957.330
1010.545, 27957.670
1011.028, 28023.750
1011.510, 28099.820
1011.992, 28138.260
1012.474, 28185.840
1012.956, 28282.211
1013.438, 28417.000
1013.920, 28544.830
1014.402, 28667.699
1014.885, 28772.230
1015.367, 28854.539
1015.849, 28919.240
1016.331, 28964.600
1016.813, 29000.250
1017.295, 29055.080
1017.777, 29149.500
1018.259, 29212.590
1018.741, 29218.330
1019.224, 29178.400
1019.706, 29097.471
1020.188, 28974.461
1020.670, 28840.289
1021.152, 28694.010
1021.634, 28551.609
1022.116, 28406.410
1022.598, 28281.551
1023.081, 28201.141
1023.563, 28161.580
1024.045, 28151.221
1024.527, 28203.650
1025.009, 28223.660
1025.491, 28180.391
1025.973, 28120.859
1026.455, 28134.400
1026.938, 28200.689
1027.420, 28242.051
1027.902, 28239.539
1028.384, 28232.619
1028.866, 28251.990
1029.348, 28272.711
1029.830, 28269.301
1030.312, 28238.971
1030.794, 28246.400
1031.276, 28298.369
1031.759, 28348.740
1032.241, 28360.830
1032.723, 28364.490
1033.205, 28428.250
1033.687, 28521.881
1034.169, 28563.930
1034.651, 28446.420
1035.133, 28386.000
1035.616, 28445.369
1036.098, 28541.680
1036.580, 28551.471
1037.062, 28486.381
1037.544, 28439.061
1038.026, 28422.439
1038.508, 28401.881
1038.990, 28335.391
1039.473, 28264.900
1039.955, 28236.471
1040.437, 28252.400
1040.919, 28206.760
1041.401, 28075.949
1041.883, 27976.301
1042.365, 27973.789
1042.847, 28011.859
1043.329, 27983.721
1043.812, 27916.539
1044.294, 27869.150
1044.776, 27888.240
1045.258, 27894.051
1045.740, 27851.721
1046.222, 27812.619
1046.704, 27843.199
1047.186, 27938.561
1047.668, 27965.949
1048.151, 27918.760
1048.633, 27866.670
1049.115, 27853.600
1049.597, 27861.490
1050.079, 27884.850
1050.561, 27919.520
1051.043, 27934.600
1051.525, 27915.400
1052.008, 27928.141
1052.490, 28003.730
1052.972, 28095.619
1053.454, 28125.859
1053.936, 28114.711
1054.418, 28095.289
1054.900, 28055.699
1055.382, 28064.680
1055.865, 28190.590
1056.347, 28317.641
1056.829, 28370.670
1057.311, 28352.670
1057.793, 28322.830
1058.275, 28282.471
1058.757, 28259.711
1059.239, 28300.699
1059.721, 28337.820
1060.203, 28316.961
1060.686, 28256.289
1061.168, 28206.990
1061.650, 28169.420
1062.132, 28149.600
1062.614, 28147.801
1063.096, 28169.301
1063.578, 28245.160
1064.060, 28338.680
1064.543, 28385.910
1065.025, 28374.381
1065.507, 28360.480
1065.989, 28369.891
1066.471, 28367.430
1066.953, 28330.100
1067.435, 28273.100
1067.917, 28257.369
1068.400, 28279.650
1068.882, 28320.500
1069.364, 28386.221
1069.846, 28446.150
1070.328, 28467.500
1070.810, 28480.510
1071.292, 28529.961
1071.774, 28640.051
1072.256, 28686.340
1072.739, 28657.580
1073.221, 28618.949
1073.703, 28612.830
1074.185, 28635.381
1074.667, 28693.699
1075.149, 28780.301
1075.631, 28854.660
1076.113, 28840.131
1076.596, 28800.221
1077.078, 28925.807
1077.560, 29011.207
1078.042, 29058.570
1078.524, 28954.016
1079.006, 29045.633
1079.488, 29058.639
1079.970, 29068.412
1080.453, 29187.719
1080.935, 29105.262
1081.417, 29212.020
1081.899, 29256.260
1082.381, 29317.740
1082.863, 29397.090
1083.345, 29451.221
1083.827, 29426.480
1084.309, 29403.490
1084.792, 29479.750
1085.274, 29605.289
1085.756, 29688.961
1086.238, 29694.570
1086.720, 29709.180
1087.202, 29731.881
1087.684, 29772.939
1088.166, 29857.029
1088.648, 29960.670
1089.131, 30034.381
1089.613, 30080.711
1090.095, 30144.141
1090.577, 30263.301
1091.059, 30374.699
1091.541, 30449.789
1092.023, 30518.461
1092.505, 30642.750
1092.988, 30818.801
1093.470, 31025.949
1093.952, 31262.789
1094.434, 31514.131
1094.916, 31767.260
1095.398, 32034.381
1095.880, 32323.029
1096.362, 32634.090
1096.844, 32927.680
1097.327, 33199.070
1097.809, 33510.781
1098.291, 33906.941
1098.773, 34345.859
1099.255, 34777.160
1099.737, 35218.879
1100.219, 35703.461
1100.701, 36253.770
1101.183, 36799.070
1101.666, 37314.320
1102.148, 37890.809
1102.630, 38632.711
1103.112, 39500.012
1103.594, 40420.000
1104.076, 41393.570
1104.558, 42398.469
1105.040, 43395.949
1105.523, 44488.012
1106.005, 45734.250
1106.487, 47045.230
1106.969, 48256.391
1107.451, 49358.988
1107.933, 50248.449
1108.415, 50935.141
1108.897, 51252.359
1109.380, 51072.898
1109.862, 50496.711
1110.344, 49525.281
1110.826, 48211.309
1111.308, 46825.570
1111.790, 45356.629
1112.272, 43835.391
1112.754, 42217.750
1113.236, 40649.730
1113.719, 39249.180
1114.201, 38041.160
1114.683, 37036.078
1115.165, 36271.230
1115.647, 35639.121
1116.129, 35152.828
1116.611, 34733.531
1117.093, 34312.449
1117.575, 33917.719
1118.058, 33613.469
1118.540, 33384.398
1119.022, 33187.488
1119.504, 33029.219
1119.986, 32874.102
1120.468, 32715.670
1120.950, 32561.189
1121.432, 32424.750
1121.915, 32301.141
1122.397, 32172.961
1122.879, 32038.820
1123.361, 31897.920
1123.843, 31755.430
1124.325, 31599.641
1124.807, 31413.211
1125.289, 31215.141
1125.771, 31066.320
1126.254, 30963.369
1126.736, 30867.500
1127.218, 30771.500
1127.700, 30665.340
1128.182, 30517.721
1128.664, 30372.131
1129.146, 30273.400
1129.628, 30221.680
1130.110, 30184.961
1130.593, 30163.609
1131.075, 30139.711
1131.557, 30046.750
1132.039, 29916.459
1132.521, 29995.287
1133.003, 30023.352
1133.485, 30003.391
1133.967, 29791.510
1134.450, 29827.375
1134.932, 29786.900
1135.414, 29739.090
1135.896, 29745.500
1136.378, 29769.061
1136.860, 29743.750
1137.342, 29675.680
1137.824, 29600.529
1138.307, 29496.529
1138.789, 29439.711
1139.271, 29455.600
1139.753, 29499.900
1140.235, 29508.930
1140.717, 29492.990
1141.199, 29477.660
1141.681, 29465.330
1142.163, 29463.949
1142.646, 29502.471
1143.128, 29520.490
1143.610, 29485.039
1144.092, 29417.641
1144.574, 29381.131
1145.056, 29371.480
1145.538, 29363.699
1146.020, 29352.410
1146.502, 29340.721
1146.985, 29335.721
1147.467, 29328.631
1147.949, 29310.561
1148.431, 29283.051
1148.913, 29271.070
1149.395, 29274.850
1149.877, 29290.680
1150.359, 29325.660
1150.842, 29358.770
1151.324, 29365.939
1151.806, 29363.340
1152.288, 29375.631
1152.770, 29410.449
1153.252, 29424.961
1153.734, 29416.039
1154.216, 29403.449
1154.698, 29391.221
1155.181, 29390.770
1155.663, 29424.150
1156.145, 29479.869
1156.627, 29521.881
1157.109, 29547.830
1157.591, 29561.330
1158.073, 29562.020
1158.555, 29555.650
1159.037, 29551.070
1159.520, 29542.369
1160.002, 29511.051
1160.484, 29460.061
1160.966, 29438.971
1161.448, 29472.189
1161.930, 29502.721
1162.412, 29517.529
1162.894, 29522.670
1163.377, 29520.631
1163.859, 29518.199
1164.341, 29537.740
1164.823, 29589.510
1165.305, 29604.789
1165.787, 29534.410
1166.269, 29470.439
1166.751, 29443.061
1167.234, 29450.180
1167.716, 29512.080
1168.198, 29603.131
1168.680, 29640.949
1169.162, 29569.730
1169.644, 29524.221
1170.126, 29586.189
1170.608, 29646.949
1171.090, 29632.090
1171.573, 29558.910
1172.055, 29535.430
1172.537, 29554.109
1173.019, 29577.340
1173.501, 29579.369
1173.983, 29590.301
1174.465, 29613.400
1174.947, 29657.320
1175.430, 29747.670
1175.912, 29880.750
1176.394, 29953.760
1176.876, 29965.279
1177.358, 29941.029
1177.840, 29844.150
1178.322, 29773.631
1178.804, 29818.311
1179.286, 29907.770
1179.769, 29922.080
1180.251, 29858.279
1180.733, 29830.520
1181.215, 29849.561
1181.697, 29878.520
1182.179, 29887.900
1182.661, 29897.490
1183.143, 29921.689
1183.625, 29957.150
1184.108, 29999.250
1184.590, 30050.770
1185.072, 30061.330
1185.554, 30017.410
1186.036, 29954.721
1186.518, 29861.400
1187.000, 29797.721
1187.482, 29846.260
1187.965, 29992.949
1188.447, 30068.779
1188.929, 30068.420
1189.411, 30048.990
1189.893, 30022.859
1190.375, 30000.430
1190.857, 30011.660
1191.339, 30022.250
1191.822, 29983.230
1192.304, 29883.869
1192.786, 29827.641
1193.268, 29817.670
1193.750, 29832.000
1194.232, 29873.221
1194.714, 29914.410
1195.196, 29916.840
1195.678, 29899.840
1196.161, 29891.359
1196.643, 29899.180
1197.125, 29898.010
1197.607, 29885.971
1198.089, 29873.061
1198.571, 29856.850
1199.053, 29851.080
1199.535, 29878.779
1200.017, 29928.439
1200.500, 29978.689
1200.982, 30039.811
1201.464, 30065.711
1201.946, 30047.971
1202.428, 30030.420
1202.910, 30064.359
1203.392, 30107.910
1203.874, 30094.000
1204.357, 30042.369
1204.839, 30021.029
1205.321, 30048.400
1205.803, 30086.990
1206.285, 30138.631
1206.767, 30180.580
1207.249, 30168.221
1207.731, 30144.680
1208.214, 30181.619
1208.696, 30269.260
1209.178, 30320.270
1209.660, 30311.961
1210.142, 30299.221
1210.624, 30287.350
1211.106, 30283.631
1211.588, 30303.350
1212.070, 30332.971
1212.552, 30354.660
1213.035, 30366.869
1213.517, 30372.250
1213.999, 30362.570
1214.481, 30374.029
1214.963, 30424.760
1215.445, 30474.279
1215.927, 30465.881
1216.409, 30418.520
1216.892, 30332.830
1217.374, 30202.080
1217.856, 30211.420
1218.338, 30448.650
1218.820, 30587.391
1219.302, 30486.000
1219.784, 30294.721
1220.266, 30212.289
1220.749, 30211.150
1221.231, 30260.070
1221.713, 30370.141
1222.195, 30448.600
1222.677, 30492.301
1223.159, 30499.910
1223.641, 30454.131
1224.123, 30396.119
1224.605, 30379.580
1225.088, 30398.760
1225.570, 30447.971
1226.052, 30538.990
1226.534, 30631.039
1227.016, 30740.359
1227.498, 30787.660
1227.980, 30689.029
1228.462, 30546.279
1228.944, 30502.400
1229.427, 30528.490
1229.909, 30576.750
1230.391, 30664.609
1230.873, 30705.311
1231.355, 30689.770
1231.837, 30664.990
1232.319, 30658.779
1232.801, 30664.850
1233.284, 30677.340
1233.766, 30695.180
1234.248, 30717.471
1234.730, 30755.619
1235.212, 30761.420
1235.694, 30725.590
1236.176, 30701.881
1236.658, 30742.721
1237.141, 30809.420
1237.623, 30867.750
1238.105, 30913.211
1238.587, 30931.410
1239.069, 30905.320
1239.551, 30919.330
1240.033, 30986.430
1240.515, 31037.250
1240.997, 30981.760
1241.479, 30907.480
1241.962, 30925.750
1242.444, 30999.109
1242.926, 30987.900
1243.408, 30857.740
1243.890, 30801.439
1244.372, 30843.539
1244.854, 30915.369
1245.336, 30970.141
1245.819, 31013.330
1246.301, 31043.590
1246.783, 31064.760
1247.265, 31095.811
1247.747, 31139.289
1248.229, 31153.750
1248.711, 31129.891
1249.193, 31107.820
1249.676, 31128.311
1250.158, 31159.711
1250.640, 31192.539
1251.122, 31214.830
1251.604, 31180.850
1252.086, 31089.350
1252.568, 31028.539
1253.050, 31016.170
1253.532, 31017.961
1254.015, 31005.230
1254.497, 31000.279
1254.979, 31027.850
1255.461, 31073.020
1255.943, 31085.789
1256.425, 31069.090
1256.907, 31070.740
1257.389, 31100.990
1257.871, 31134.439
1258.354, 31153.010
1258.836, 31169.330
1259.318, 31193.420
1259.800, 31218.500
1260.282, 31217.211
1260.764, 31196.580
1261.246, 31201.750
1261.728, 31251.600
1262.211, 31274.881
1262.693, 31199.570
1263.175, 31131.820
1263.657, 31125.580
1264.139, 31159.250
1264.621, 31166.730
1265.103, 31158.119
1265.585, 31165.961
1266.068, 31203.869
1266.550, 31232.641
1267.032, 31232.301
1267.514, 31228.619
1267.996, 31227.141
1268.478, 31233.070
1268.960, 31236.131
1269.442, 31260.650
1269.924, 31181.207
1270.407, 31355.049
1270.889, 31467.359
1271.371, 31521.500
1271.853, 31343.285
1272.335, 31461.039
1272.817, 31476.400
1273.299, 31519.180
1273.781, 31577.301
1274.264, 31631.449
1274.746, 31676.510
1275.228, 31721.840
1275.710, 31775.580
1276.192, 31803.609
1276.674, 31782.900
1277.156, 31740.461
1277.638, 31701.850
1278.120, 31673.289
1278.603, 31669.600
1279.085, 31702.010
1279.567, 31699.689
1280.049, 31655.240
1280.531, 31651.490
1281.013, 31762.711
1281.495, 31876.350
1281.977, 31852.320
1282.459, 31779.260
1282.942, 31775.590
1283.424, 31852.119
1283.906, 31858.539
1284.388, 31796.420
1284.870, 31754.471
1285.352, 31790.051
1285.834, 31835.561
1286.316, 31836.461
1286.799, 31833.020
1287.281, 31865.570
1287.763, 31931.811
1288.245, 31996.330
1288.727, 32053.311
1289.209, 32061.029
1289.691, 31953.830
1290.173, 31873.551
1290.656, 31897.820
1291.138, 31948.711
1291.620, 31979.020
1292.102, 31992.631
1292.584, 32003.061
1293.066, 32006.580
##END=



