##NAMES=Manganosite
##RRUFFID=R060757
##IDEAL CHEMISTRY=Mn^2+^O
##LOCALITY=Nordmark, Sweden
##OWNER=RRUFF
##SOURCE=Michael Scott
##DESCRIPTION=Dark green crystals
##STATUS=The identification of this mineral is confirmed by single-crystal X-ray diffraction and chemical analysis.
##URL=rruff.info/R060757
##MEASURED CHEMISTRY=(Mn^2+^_0.99_Mg_0.01_)_Î£=1_O
142.254, 2861.302
142.736, 2856.227
143.218, 2861.136
143.700, 2868.903
144.182, 2880.649
144.664, 2893.294
145.146, 2905.410
145.629, 2917.409
146.111, 2928.129
146.593, 2938.587
147.075, 2948.061
147.557, 2951.603
148.039, 2944.040
148.521, 2934.646
149.003, 2929.158
149.486, 2928.876
149.968, 2931.057
150.450, 2936.773
150.932, 2946.492
151.414, 2954.189
151.896, 2959.302
152.378, 2963.059
152.860, 2966.609
153.342, 2963.949
153.824, 2967.225
154.307, 2966.244
154.789, 2973.597
155.271, 2978.927
155.753, 2982.343
156.235, 2978.110
156.717, 2983.753
157.199, 2986.351
157.682, 3002.344
158.164, 3015.673
158.646, 3026.761
159.128, 3031.365
159.610, 3019.878
160.092, 2999.527
160.574, 2989.752
161.056, 3006.336
161.538, 3030.199
162.020, 3048.870
162.503, 3057.449
162.985, 3062.294
163.467, 3063.994
163.949, 3063.221
164.431, 3063.839
164.913, 3069.096
165.395, 3076.145
165.877, 3082.238
166.360, 3088.731
166.842, 3092.485
167.324, 3088.374
167.806, 3076.555
168.288, 3069.737
168.770, 3077.283
169.252, 3094.660
169.734, 3115.198
170.217, 3145.215
170.699, 3171.890
171.181, 3180.193
171.663, 3166.341
172.145, 3152.042
172.627, 3157.726
173.109, 3176.543
173.591, 3192.431
174.073, 3193.804
174.555, 3188.457
175.038, 3186.328
175.520, 3189.121
176.002, 3194.043
176.484, 3186.872
176.966, 3208.755
177.448, 3223.585
177.930, 3231.742
178.413, 3213.239
178.895, 3229.162
179.377, 3231.288
179.859, 3232.848
180.341, 3253.617
180.823, 3238.990
181.305, 3259.455
181.787, 3265.911
182.269, 3269.121
182.751, 3264.267
183.234, 3270.775
183.716, 3282.401
184.198, 3287.028
184.680, 3284.535
185.162, 3277.096
185.644, 3267.563
186.126, 3255.276
186.608, 3235.972
187.091, 3200.312
187.573, 3156.417
188.055, 3135.628
188.537, 3140.932
189.019, 3154.106
189.501, 3155.186
189.983, 3144.551
190.465, 3127.408
190.947, 3102.976
191.430, 3072.505
191.912, 3045.408
192.394, 3021.993
192.876, 3002.349
193.358, 2989.443
193.840, 2983.633
194.322, 2976.041
194.804, 2961.503
195.286, 2940.321
195.769, 2918.041
196.251, 2893.517
196.733, 2869.730
197.215, 2852.257
197.697, 2841.433
198.179, 2834.795
198.661, 2832.474
199.143, 2834.800
199.626, 2834.940
200.108, 2832.585
200.590, 2827.286
201.072, 2816.658
201.554, 2799.604
202.036, 2781.135
202.518, 2763.646
203.000, 2746.549
203.482, 2734.646
203.965, 2729.740
204.447, 2730.532
204.929, 2730.970
205.411, 2731.624
205.893, 2730.233
206.375, 2723.694
206.857, 2710.459
207.339, 2699.065
207.822, 2690.993
208.304, 2686.246
208.786, 2685.850
209.268, 2692.604
209.750, 2699.018
210.232, 2696.964
210.714, 2685.317
211.196, 2669.309
211.678, 2648.059
212.161, 2620.986
212.643, 2602.512
213.125, 2594.535
213.607, 2592.628
214.089, 2591.287
214.571, 2590.674
215.053, 2590.131
215.535, 2589.695
216.018, 2589.556
216.500, 2587.593
216.982, 2583.413
217.464, 2577.588
217.946, 2570.713
218.428, 2561.788
218.910, 2553.881
219.392, 2548.554
219.874, 2547.057
220.357, 2543.455
220.839, 2537.085
221.321, 2529.113
221.803, 2521.773
222.285, 2515.608
222.767, 2509.405
223.249, 2502.524
223.731, 2493.928
224.214, 2487.638
224.696, 2484.776
225.178, 2483.921
225.660, 2480.699
226.142, 2472.627
226.624, 2466.142
227.106, 2464.608
227.588, 2470.035
228.070, 2476.201
228.553, 2486.391
229.035, 2496.891
229.517, 2493.105
229.999, 2463.015
230.481, 2435.126
230.963, 2426.391
231.445, 2447.890
231.927, 2464.909
232.410, 2474.486
232.892, 2477.772
233.374, 2480.325
233.856, 2482.450
234.338, 2483.508
234.820, 2483.787
235.302, 2486.571
235.784, 2481.306
236.266, 2461.936
236.749, 2431.392
237.231, 2415.103
237.713, 2416.487
238.195, 2427.834
238.677, 2446.411
239.159, 2484.277
239.641, 2505.095
240.123, 2499.584
240.605, 2469.660
241.088, 2445.842
241.570, 2426.767
242.052, 2415.024
242.534, 2414.290
243.016, 2433.544
243.498, 2446.019
243.980, 2443.627
244.462, 2426.996
244.945, 2424.665
245.427, 2446.647
245.909, 2472.048
246.391, 2481.890
246.873, 2467.229
247.355, 2453.995
247.837, 2447.037
248.319, 2446.455
248.801, 2443.397
249.284, 2435.567
249.766, 2427.880
250.248, 2425.497
250.730, 2431.460
251.212, 2436.836
251.694, 2439.294
252.176, 2438.711
252.658, 2441.807
253.141, 2450.229
253.623, 2460.727
254.105, 2470.462
254.587, 2480.585
255.069, 2487.425
255.551, 2489.404
256.033, 2486.234
256.515, 2483.687
256.997, 2480.319
257.480, 2479.046
257.962, 2484.403
258.444, 2501.628
258.926, 2513.090
259.408, 2511.353
259.890, 2494.837
260.372, 2492.628
260.854, 2512.567
261.336, 2537.614
261.819, 2548.058
262.301, 2538.708
262.783, 2527.229
263.265, 2516.942
263.747, 2507.811
264.229, 2501.906
264.711, 2499.222
265.193, 2499.859
265.676, 2506.084
266.158, 2522.157
266.640, 2530.665
267.122, 2524.300
267.604, 2502.285
268.086, 2486.981
268.568, 2479.685
269.050, 2477.090
269.532, 2474.930
270.015, 2472.545
270.497, 2473.257
270.979, 2479.566
271.461, 2491.635
271.943, 2498.646
272.425, 2500.351
272.907, 2497.537
273.389, 2488.960
273.871, 2472.348
274.354, 2461.352
274.836, 2462.760
275.318, 2475.999
275.800, 2479.323
276.282, 2470.096
276.764, 2456.569
277.246, 2448.280
277.728, 2445.831
278.211, 2444.165
278.693, 2434.068
279.175, 2426.937
279.657, 2437.595
280.139, 2443.935
280.621, 2446.189
281.103, 2432.118
281.585, 2439.128
282.068, 2437.689
282.550, 2435.904
283.032, 2445.880
283.514, 2434.183
283.996, 2443.973
284.478, 2445.186
284.960, 2450.324
285.442, 2445.206
285.924, 2444.000
286.406, 2443.763
286.889, 2443.779
287.371, 2439.797
287.853, 2431.078
288.335, 2422.754
288.817, 2420.564
289.299, 2424.134
289.781, 2429.570
290.263, 2437.175
290.746, 2445.363
291.228, 2448.795
291.710, 2447.178
292.192, 2443.718
292.674, 2442.994
293.156, 2443.820
293.638, 2440.034
294.120, 2427.050
294.603, 2409.645
295.085, 2395.598
295.567, 2384.848
296.049, 2381.872
296.531, 2400.757
297.013, 2432.626
297.495, 2448.872
297.977, 2432.350
298.459, 2401.111
298.942, 2382.994
299.424, 2377.612
299.906, 2379.868
300.388, 2391.637
300.870, 2407.859
301.352, 2416.655
301.834, 2411.875
302.316, 2400.805
302.798, 2388.580
303.281, 2376.071
303.763, 2370.441
304.245, 2386.206
304.727, 2410.561
305.209, 2422.584
305.691, 2410.818
306.173, 2391.588
306.655, 2379.507
307.138, 2373.639
307.620, 2368.339
308.102, 2360.765
308.584, 2351.537
309.066, 2341.213
309.548, 2329.352
310.030, 2317.471
310.512, 2305.879
310.994, 2294.912
311.477, 2286.151
311.959, 2284.056
312.441, 2282.700
312.923, 2276.415
313.405, 2261.195
313.887, 2245.846
314.369, 2235.712
314.851, 2229.063
315.333, 2221.026
315.816, 2212.412
316.298, 2199.890
316.780, 2179.091
317.262, 2141.857
317.744, 2112.410
318.226, 2105.484
318.708, 2112.612
319.190, 2115.783
319.672, 2101.871
320.155, 2088.290
320.637, 2085.660
321.119, 2102.765
321.601, 2111.217
322.083, 2096.931
322.565, 2071.145
323.047, 2052.296
323.530, 2050.677
324.012, 2050.493
324.494, 2047.027
324.976, 2040.322
325.458, 2028.890
325.940, 2004.030
326.422, 1976.788
326.904, 1961.831
327.386, 1973.044
327.868, 1983.838
328.351, 1988.603
328.833, 1986.670
329.315, 1981.537
329.797, 1968.270
330.279, 1954.573
330.761, 1949.036
331.243, 1960.079
331.725, 1967.635
332.208, 1967.128
332.690, 1958.117
333.172, 1950.540
333.654, 1945.516
334.136, 1940.949
334.618, 1933.835
335.100, 1919.917
335.582, 1914.148
336.065, 1923.801
336.547, 1945.916
337.029, 1951.067
337.511, 1932.692
337.993, 1909.090
338.475, 1893.429
338.957, 1886.892
339.439, 1883.469
339.921, 1883.838
340.404, 1886.189
340.886, 1883.932
341.368, 1876.592
341.850, 1866.612
342.332, 1852.815
342.814, 1835.015
343.296, 1827.701
343.778, 1835.692
344.260, 1850.143
344.743, 1851.580
345.225, 1839.644
345.707, 1827.127
346.189, 1822.894
346.671, 1824.932
347.153, 1823.032
347.635, 1815.602
348.117, 1806.497
348.599, 1801.182
349.082, 1799.089
349.564, 1796.815
350.046, 1790.571
350.528, 1783.210
351.010, 1781.583
351.492, 1786.485
351.974, 1792.570
352.457, 1795.126
352.939, 1794.657
353.421, 1792.423
353.903, 1786.170
354.385, 1779.981
354.867, 1780.404
355.349, 1787.451
355.831, 1792.365
356.313, 1788.409
356.796, 1778.602
357.278, 1766.974
357.760, 1749.322
358.242, 1735.292
358.724, 1733.721
359.206, 1742.966
359.688, 1751.742
360.170, 1757.350
360.652, 1758.445
361.135, 1753.435
361.617, 1735.898
362.099, 1719.904
362.581, 1710.565
363.063, 1706.835
363.545, 1705.243
364.027, 1711.562
364.509, 1714.838
364.991, 1707.474
365.474, 1676.223
365.956, 1656.652
366.438, 1662.691
366.920, 1683.578
367.402, 1697.264
367.884, 1697.773
368.366, 1694.403
368.848, 1689.185
369.331, 1680.450
369.813, 1674.781
370.295, 1672.611
370.777, 1673.198
371.259, 1675.993
371.741, 1684.021
372.223, 1689.461
372.705, 1689.878
373.188, 1684.905
373.670, 1680.365
374.152, 1675.774
374.634, 1672.159
375.116, 1670.340
375.598, 1670.036
376.080, 1672.560
376.562, 1678.961
377.044, 1688.364
377.526, 1697.417
378.009, 1707.322
378.491, 1712.386
378.973, 1704.729
379.455, 1684.255
379.937, 1672.185
380.419, 1672.961
380.901, 1680.542
381.384, 1683.427
381.866, 1681.651
382.348, 1677.554
382.830, 1671.374
383.312, 1663.823
383.794, 1657.169
384.276, 1651.411
384.758, 1647.237
385.240, 1645.415
385.723, 1645.875
386.205, 1648.460
386.687, 1654.908
387.169, 1662.569
387.651, 1666.976
388.133, 1667.900
388.615, 1669.724
389.097, 1680.405
389.579, 1693.083
390.062, 1697.867
390.544, 1683.473
391.026, 1667.022
391.508, 1660.882
391.990, 1663.485
392.472, 1665.489
392.954, 1662.180
393.436, 1656.570
393.918, 1650.895
394.401, 1644.536
394.883, 1639.899
395.365, 1638.982
395.847, 1640.482
396.329, 1641.084
396.811, 1638.761
397.293, 1636.376
397.775, 1634.407
398.258, 1630.747
398.740, 1632.790
399.222, 1645.786
399.704, 1663.197
400.186, 1676.595
400.668, 1687.962
401.150, 1692.495
401.632, 1685.151
402.114, 1664.614
402.597, 1658.401
403.079, 1675.589
403.561, 1696.339
404.043, 1702.765
404.525, 1691.060
405.007, 1676.016
405.489, 1655.963
405.971, 1635.266
406.453, 1631.619
406.936, 1648.130
407.418, 1668.720
407.900, 1683.255
408.382, 1691.784
408.864, 1701.074
409.346, 1712.838
409.828, 1723.057
410.310, 1722.842
410.793, 1713.303
411.275, 1705.730
411.757, 1710.694
412.239, 1721.084
412.721, 1716.340
413.203, 1694.292
413.685, 1674.679
414.167, 1679.309
414.650, 1699.678
415.132, 1717.943
415.614, 1726.364
416.096, 1731.213
416.578, 1739.626
417.060, 1750.706
417.542, 1757.709
418.024, 1753.338
418.506, 1744.975
418.988, 1739.000
419.471, 1736.518
419.953, 1737.337
420.435, 1742.166
420.917, 1750.322
421.399, 1760.169
421.881, 1777.044
422.363, 1790.696
422.845, 1794.941
423.328, 1785.429
423.810, 1781.154
424.292, 1787.413
424.774, 1798.738
425.256, 1808.973
425.738, 1820.125
426.220, 1827.457
426.702, 1829.148
427.185, 1825.493
427.667, 1822.095
428.149, 1816.894
428.631, 1814.744
429.113, 1820.432
429.595, 1837.190
430.077, 1848.366
430.559, 1849.826
431.041, 1847.277
431.524, 1856.082
432.006, 1877.955
432.488, 1899.314
432.970, 1914.638
433.452, 1923.974
433.934, 1925.373
434.416, 1917.187
434.898, 1909.069
435.380, 1914.999
435.863, 1931.644
436.345, 1944.868
436.827, 1946.953
437.309, 1944.919
437.791, 1948.485
438.273, 1957.426
438.755, 1969.766
439.237, 1988.427
439.720, 2008.040
440.202, 2021.406
440.684, 2024.792
441.166, 2026.426
441.648, 2029.781
442.130, 2035.284
442.612, 2043.883
443.094, 2059.573
443.576, 2075.516
444.059, 2088.598
444.541, 2098.435
445.023, 2106.132
445.505, 2106.567
445.987, 2107.419
446.469, 2116.011
446.951, 2148.916
447.433, 2171.446
447.915, 2173.504
448.398, 2158.836
448.880, 2155.337
449.362, 2170.092
449.844, 2186.923
450.326, 2196.569
450.808, 2195.147
451.290, 2199.197
451.772, 2210.498
452.254, 2225.596
452.737, 2238.366
453.219, 2248.294
453.701, 2258.513
454.183, 2270.082
454.665, 2282.864
455.147, 2298.042
455.629, 2316.020
456.112, 2331.962
456.594, 2337.520
457.076, 2336.359
457.558, 2341.931
458.040, 2359.506
458.522, 2381.573
459.004, 2400.226
459.486, 2415.503
459.968, 2428.240
460.451, 2439.183
460.933, 2447.591
461.415, 2450.953
461.897, 2447.995
462.379, 2447.201
462.861, 2453.038
463.343, 2464.000
463.825, 2478.114
464.307, 2502.789
464.790, 2522.684
465.272, 2525.217
465.754, 2513.301
466.236, 2515.974
466.718, 2562.081
467.200, 2606.177
467.682, 2622.174
468.164, 2582.019
468.647, 2561.570
469.129, 2570.787
469.611, 2595.613
470.093, 2610.127
470.575, 2607.670
471.057, 2610.159
471.539, 2627.208
472.021, 2658.100
472.503, 2676.844
472.986, 2680.304
473.468, 2681.624
473.950, 2694.971
474.432, 2719.292
474.914, 2738.906
475.396, 2751.125
475.878, 2757.438
476.360, 2758.076
476.842, 2754.043
477.325, 2751.256
477.807, 2754.780
478.289, 2761.026
478.771, 2763.837
479.253, 2762.503
479.735, 2762.950
480.217, 2771.019
480.699, 2783.233
481.181, 2794.781
481.664, 2801.764
482.146, 2809.846
482.628, 2822.378
483.110, 2838.291
483.592, 2853.212
484.074, 2868.673
484.556, 2880.481
485.039, 2885.157
485.521, 2877.365
486.003, 2874.475
486.485, 2880.205
486.967, 2889.607
487.449, 2896.116
487.931, 2896.766
488.413, 2900.406
488.895, 2909.961
489.378, 2924.485
489.860, 2937.546
490.342, 2950.397
490.824, 2958.069
491.306, 2953.822
491.788, 2938.028
492.270, 2929.890
492.752, 2932.385
493.234, 2939.380
493.717, 2941.358
494.199, 2939.494
494.681, 2939.953
495.163, 2950.962
495.645, 2963.228
496.127, 2959.584
496.609, 2941.225
497.091, 2923.162
497.573, 2910.023
498.056, 2905.235
498.538, 2915.210
499.020, 2951.229
499.502, 2981.599
499.984, 2988.068
500.466, 2978.927
500.948, 2970.223
501.430, 2958.407
501.913, 2955.105
502.395, 2971.436
502.877, 3011.663
503.359, 3029.389
503.841, 3003.438
504.323, 2971.484
504.805, 2960.530
505.287, 2981.664
505.770, 2997.209
506.252, 3003.914
506.734, 3004.367
507.216, 3003.357
507.698, 3000.101
508.180, 2999.689
508.662, 3005.698
509.144, 3016.786
509.626, 3025.917
510.108, 3033.348
510.591, 3036.392
511.073, 3029.919
511.555, 3017.125
512.037, 3005.461
512.519, 2995.141
513.001, 2989.818
513.483, 2996.692
513.966, 3011.893
514.448, 3025.461
514.930, 3036.567
515.412, 3041.201
515.894, 3032.918
516.376, 3010.676
516.858, 2993.544
517.340, 2990.099
517.822, 2993.045
518.305, 2996.774
518.787, 2997.130
519.269, 3002.497
519.751, 3015.620
520.233, 3033.861
520.715, 3051.036
521.197, 3069.571
521.679, 3083.156
522.161, 3089.682
522.644, 3089.131
523.126, 3081.755
523.608, 3064.746
524.090, 3049.573
524.572, 3048.842
525.054, 3061.238
525.536, 3073.638
526.018, 3085.547
526.500, 3093.211
526.983, 3085.923
527.465, 3067.678
527.947, 3054.389
528.429, 3055.732
528.911, 3065.701
529.393, 3083.066
529.875, 3107.018
530.357, 3121.320
530.839, 3108.757
531.322, 3086.053
531.804, 3067.480
532.286, 3053.792
532.768, 3048.527
533.250, 3062.070
533.732, 3083.504
534.214, 3091.437
534.696, 3061.715
535.179, 3044.222
535.661, 3057.337
536.143, 3100.973
536.625, 3120.045
537.107, 3103.845
537.589, 3082.848
538.071, 3079.362
538.553, 3095.111
539.036, 3110.664
539.518, 3126.474
540.000, 3137.160
540.482, 3129.484
540.964, 3106.347
541.446, 3086.266
541.928, 3078.498
542.410, 3077.162
542.892, 3073.302
543.375, 3067.260
543.857, 3062.405
544.339, 3061.846
544.821, 3062.914
545.303, 3062.611
545.785, 3059.357
546.267, 3058.530
546.749, 3070.062
547.231, 3082.798
547.714, 3082.741
548.196, 3048.532
548.678, 3022.135
549.160, 3013.690
549.642, 3020.437
550.124, 3028.946
550.606, 3043.484
551.088, 3053.271
551.570, 3053.658
552.053, 3044.411
552.535, 3025.083
553.017, 2991.624
553.499, 2958.803
553.981, 2945.045
554.463, 2948.795
554.945, 2955.468
555.427, 2962.937
555.909, 2969.741
556.392, 2973.217
556.874, 2974.117
557.356, 2975.278
557.838, 2961.531
558.320, 2959.436
558.802, 2939.137
559.284, 2956.034
559.766, 2963.902
560.249, 2963.227
560.731, 2928.417
561.213, 2937.086
561.695, 2927.350
562.177, 2925.779
562.659, 2932.991
563.141, 2942.011
563.623, 2939.271
564.106, 2915.550
564.588, 2896.233
565.070, 2889.533
565.552, 2893.711
566.034, 2893.127
566.516, 2887.454
566.998, 2878.300
567.480, 2861.145
567.963, 2839.281
568.445, 2838.069
568.927, 2863.018
569.409, 2890.967
569.891, 2894.471
570.373, 2880.410
570.855, 2864.091
571.337, 2846.647
571.819, 2833.797
572.302, 2833.832
572.784, 2842.845
573.266, 2847.980
573.748, 2840.364
574.230, 2830.328
574.712, 2822.382
575.194, 2816.747
575.676, 2814.431
576.158, 2821.584
576.641, 2827.592
577.123, 2823.644
577.605, 2802.130
578.087, 2789.799
578.569, 2791.824
579.051, 2800.659
579.533, 2799.870
580.015, 2788.576
580.497, 2779.553
580.980, 2778.939
581.462, 2783.349
581.944, 2784.093
582.426, 2781.227
582.908, 2776.185
583.390, 2765.526
583.872, 2755.077
584.354, 2754.544
584.836, 2767.063
585.319, 2777.729
585.801, 2771.880
586.283, 2761.191
586.765, 2759.191
587.247, 2782.728
587.729, 2800.396
588.211, 2802.431
588.693, 2793.129
589.176, 2786.606
589.658, 2779.097
590.140, 2780.334
590.622, 2797.438
591.104, 2830.249
591.586, 2850.140
592.068, 2855.793
592.550, 2853.140
593.032, 2843.446
593.515, 2828.253
593.997, 2818.419
594.479, 2815.349
594.961, 2817.577
595.443, 2824.841
595.925, 2836.056
596.407, 2848.881
596.890, 2866.623
597.372, 2881.590
597.854, 2884.241
598.336, 2878.647
598.818, 2879.815
599.300, 2904.189
599.782, 2927.052
600.264, 2934.775
600.746, 2921.680
601.229, 2917.860
601.711, 2930.234
602.193, 2945.615
602.675, 2952.344
603.157, 2945.815
603.639, 2949.822
604.121, 2968.526
604.603, 2994.147
605.085, 3016.028
605.568, 3033.799
606.050, 3043.948
606.532, 3039.515
607.014, 3031.573
607.496, 3042.892
607.978, 3069.420
608.460, 3090.414
608.942, 3094.217
609.424, 3086.800
609.907, 3068.727
610.389, 3038.717
610.871, 3016.936
611.353, 3013.170
611.835, 3019.396
612.317, 3029.439
612.799, 3048.280
613.281, 3063.417
613.763, 3076.436
614.246, 3084.770
614.728, 3080.874
615.210, 3058.967
615.692, 3048.550
616.174, 3062.727
616.656, 3091.117
617.138, 3097.842
617.620, 3083.583
618.103, 3067.906
618.585, 3063.725
619.067, 3066.209
619.549, 3068.069
620.031, 3068.874
620.513, 3068.723
620.995, 3069.174
621.477, 3067.834
621.959, 3061.360
622.442, 3042.911
622.924, 3030.973
623.406, 3037.533
623.888, 3051.317
624.370, 3054.442
624.852, 3037.957
625.334, 3024.409
625.816, 3019.072
626.299, 3019.270
626.781, 3013.457
627.263, 3000.451
627.745, 2987.674
628.227, 2978.636
628.709, 2972.930
629.191, 2968.691
629.673, 2965.926
630.156, 2964.944
630.638, 2968.825
631.120, 2973.568
631.602, 2972.330
632.084, 2961.739
632.566, 2953.281
633.048, 2955.208
633.530, 2962.494
634.012, 2968.654
634.495, 2977.597
634.977, 2978.921
635.459, 2963.318
635.941, 2939.549
636.423, 2931.675
636.905, 2948.966
637.387, 2961.501
637.869, 2956.350
638.351, 2937.131
638.834, 2930.003
639.316, 2935.879
639.798, 2942.950
640.280, 2941.462
640.762, 2934.944
641.244, 2932.105
641.726, 2933.970
642.208, 2936.229
642.690, 2940.201
643.173, 2940.800
643.655, 2930.690
644.137, 2894.761
644.619, 2868.935
645.101, 2872.041
645.583, 2891.496
646.065, 2903.827
646.547, 2904.935
647.029, 2903.118
647.512, 2898.065
647.994, 2891.118
648.476, 2889.488
648.958, 2894.375
649.440, 2898.410
649.922, 2894.810
650.404, 2886.752
650.886, 2893.668
651.369, 2915.718
651.851, 2926.954
652.333, 2892.085
652.815, 2839.367
653.297, 2810.107
653.779, 2816.358
654.261, 2821.353
654.743, 2802.302
655.226, 2773.816
655.708, 2751.547
656.190, 2736.805
656.672, 2731.552
657.154, 2741.585
657.636, 2758.911
658.118, 2766.103
658.600, 2759.995
659.083, 2754.242
659.565, 2755.217
660.047, 2758.634
660.529, 2748.942
661.011, 2726.207
661.493, 2696.140
661.975, 2652.124
662.457, 2607.197
662.939, 2583.608
663.422, 2582.248
663.904, 2585.207
664.386, 2586.906
664.868, 2584.928
665.350, 2575.560
665.832, 2550.780
666.314, 2535.988
666.796, 2547.232
667.278, 2563.579
667.761, 2563.191
668.243, 2536.996
668.725, 2516.314
669.207, 2504.798
669.689, 2500.323
670.171, 2499.452
670.653, 2502.038
671.135, 2506.072
671.617, 2514.411
672.100, 2520.761
672.582, 2512.816
673.064, 2493.135
673.546, 2472.395
674.028, 2456.231
674.510, 2441.969
674.992, 2425.778
675.474, 2407.205
675.956, 2397.681
676.439, 2413.604
676.921, 2428.351
677.403, 2425.858
677.885, 2397.977
678.367, 2378.542
678.849, 2368.858
679.331, 2364.788
679.813, 2362.219
680.296, 2361.091
680.778, 2363.299
681.260, 2370.706
681.742, 2376.724
682.224, 2371.845
682.706, 2358.929
683.188, 2344.402
683.670, 2326.363
684.153, 2312.208
684.635, 2308.169
685.117, 2311.658
685.599, 2315.368
686.081, 2322.258
686.563, 2324.031
687.045, 2316.888
687.527, 2301.495
688.010, 2287.807
688.492, 2274.147
688.974, 2266.520
689.456, 2273.990
689.938, 2293.822
690.420, 2294.462
690.902, 2274.683
691.384, 2251.417
691.866, 2237.244
692.349, 2230.488
692.831, 2231.630
693.313, 2244.143
693.795, 2249.159
694.277, 2225.259
694.759, 2193.091
695.241, 2174.352
695.723, 2188.124
696.205, 2197.165
696.688, 2196.254
697.170, 2190.927
697.652, 2190.835
698.134, 2197.560
698.616, 2203.757
699.098, 2209.032
699.580, 2211.484
700.062, 2204.310
700.544, 2188.836
701.027, 2173.970
701.509, 2164.702
701.991, 2158.218
702.473, 2150.597
702.955, 2142.452
703.437, 2138.011
703.919, 2143.286
704.401, 2149.211
704.883, 2152.205
705.366, 2152.462
705.848, 2144.127
706.330, 2119.263
706.812, 2096.170
707.294, 2087.770
707.776, 2095.478
708.258, 2102.214
708.740, 2106.633
709.222, 2114.237
709.705, 2142.885
710.187, 2179.340
710.669, 2182.595
711.151, 2133.446
711.633, 2084.594
712.115, 2085.069
712.597, 2109.606
713.080, 2122.818
713.562, 2097.090
714.044, 2079.197
714.526, 2086.055
715.008, 2105.621
715.490, 2114.383
715.972, 2108.906
716.454, 2100.947
716.936, 2092.270
717.419, 2083.685
717.901, 2078.313
718.383, 2076.006
718.865, 2072.837
719.347, 2060.552
719.829, 2049.518
720.311, 2060.245
720.793, 2088.948
721.276, 2109.763
721.758, 2098.718
722.240, 2084.282
722.722, 2087.360
723.204, 2114.030
723.686, 2123.601
724.168, 2100.967
724.650, 2076.840
725.132, 2071.914
725.615, 2090.598
726.097, 2095.961
726.579, 2085.174
727.061, 2072.161
727.543, 2071.667
728.025, 2080.437
728.507, 2091.592
728.989, 2106.116
729.471, 2114.045
729.954, 2098.238
730.436, 2074.651
730.918, 2062.995
731.400, 2077.153
731.882, 2092.604
732.364, 2112.423
732.846, 2128.381
733.328, 2125.399
733.810, 2093.857
734.293, 2071.326
734.775, 2066.647
735.257, 2072.873
735.739, 2074.111
736.221, 2071.314
736.703, 2072.161
737.185, 2085.089
737.667, 2099.071
738.149, 2100.296
738.632, 2091.479
739.114, 2081.564
739.596, 2068.022
740.078, 2060.390
740.560, 2065.789
741.042, 2084.052
741.524, 2098.569
742.006, 2110.661
742.489, 2116.204
742.971, 2108.688
743.453, 2089.791
743.935, 2091.351
744.417, 2114.733
744.899, 2138.135
745.381, 2141.828
745.863, 2134.675
746.346, 2128.831
746.828, 2125.121
747.310, 2129.269
747.792, 2155.572
748.274, 2183.948
748.756, 2197.070
749.238, 2181.960
749.720, 2172.330
750.203, 2160.075
750.685, 2178.603
751.167, 2189.658
751.649, 2193.643
752.131, 2169.379
752.613, 2181.592
753.095, 2179.187
753.577, 2176.183
754.059, 2193.530
754.542, 2173.375
755.024, 2188.403
755.506, 2216.206
755.988, 2224.184
756.470, 2222.135
756.952, 2224.139
757.434, 2245.874
757.916, 2255.238
758.398, 2239.853
758.881, 2214.298
759.363, 2209.438
759.845, 2229.750
760.327, 2247.417
760.809, 2254.977
761.291, 2256.235
761.773, 2256.302
762.255, 2256.227
762.737, 2259.975
763.220, 2278.260
763.702, 2293.663
764.184, 2284.333
764.666, 2259.260
765.148, 2251.341
765.630, 2292.736
766.112, 2326.964
766.594, 2335.533
767.076, 2321.656
767.559, 2310.927
768.041, 2302.768
768.523, 2299.762
769.005, 2305.450
769.487, 2316.793
769.969, 2324.632
770.451, 2329.094
770.933, 2332.295
771.416, 2335.517
771.898, 2338.242
772.380, 2337.512
772.862, 2333.223
773.344, 2337.299
773.826, 2367.326
774.308, 2393.314
774.790, 2398.755
775.273, 2380.508
775.755, 2371.132
776.237, 2372.574
776.719, 2376.602
777.201, 2375.327
777.683, 2371.290
778.165, 2374.416
778.647, 2385.552
779.130, 2397.651
779.612, 2407.762
780.094, 2414.484
780.576, 2415.625
781.058, 2409.053
781.540, 2403.367
782.022, 2398.281
782.504, 2396.251
782.986, 2399.969
783.468, 2411.682
783.951, 2420.528
784.433, 2426.089
784.915, 2428.674
785.397, 2426.113
785.879, 2420.736
786.361, 2420.419
786.843, 2427.543
787.325, 2435.678
787.807, 2441.672
788.290, 2444.963
788.772, 2444.246
789.254, 2429.980
789.736, 2427.014
790.218, 2448.388
790.700, 2474.522
791.182, 2482.048
791.664, 2467.616
792.146, 2451.368
792.629, 2433.896
793.111, 2421.149
793.593, 2426.725
794.075, 2444.482
794.557, 2457.320
795.039, 2459.820
795.521, 2457.031
796.003, 2443.209
796.486, 2429.006
796.968, 2430.733
797.450, 2482.337
797.932, 2508.525
798.414, 2489.028
798.896, 2449.589
799.378, 2439.970
799.860, 2462.955
800.343, 2479.100
800.825, 2477.989
801.307, 2467.099
801.789, 2453.392
802.271, 2439.219
802.753, 2430.511
803.235, 2432.861
803.717, 2437.824
804.200, 2441.155
804.682, 2444.228
805.164, 2450.723
805.646, 2466.325
806.128, 2476.247
806.610, 2478.557
807.092, 2473.200
807.574, 2451.735
808.056, 2415.594
808.539, 2403.064
809.021, 2443.378
809.503, 2494.771
809.985, 2496.028
810.467, 2463.505
810.949, 2438.437
811.431, 2444.454
811.913, 2453.365
812.395, 2452.695
812.878, 2447.135
813.360, 2440.941
813.842, 2429.378
814.324, 2442.781
814.806, 2450.125
815.288, 2451.733
815.770, 2430.431
816.252, 2438.713
816.734, 2435.140
817.217, 2431.080
817.699, 2443.525
818.181, 2425.556
818.663, 2436.121
819.145, 2427.825
819.627, 2414.263
820.109, 2402.917
820.591, 2394.939
821.073, 2390.491
821.556, 2392.599
822.038, 2403.728
822.520, 2406.014
823.002, 2387.751
823.484, 2361.923
823.966, 2356.846
824.448, 2367.889
824.930, 2378.958
825.413, 2383.256
825.895, 2383.653
826.377, 2382.692
826.859, 2379.316
827.341, 2368.292
827.823, 2336.573
828.305, 2318.494
828.787, 2327.168
829.269, 2353.176
829.752, 2364.880
830.234, 2362.502
830.716, 2356.988
831.198, 2353.251
831.680, 2348.980
832.162, 2339.803
832.644, 2327.531
833.127, 2317.334
833.609, 2309.091
834.091, 2305.662
834.573, 2313.731
835.055, 2327.422
835.537, 2328.271
836.019, 2312.891
836.501, 2295.815
836.983, 2279.277
837.466, 2265.680
837.948, 2264.386
838.430, 2271.703
838.912, 2272.710
839.394, 2251.273
839.876, 2229.222
840.358, 2219.400
840.840, 2220.531
841.322, 2229.332
841.805, 2258.791
842.287, 2277.324
842.769, 2279.285
843.251, 2266.948
843.733, 2239.812
844.215, 2197.659
844.697, 2172.744
845.179, 2182.683
845.661, 2206.753
846.144, 2224.035
846.626, 2233.370
847.108, 2232.131
847.590, 2201.423
848.072, 2179.892
848.554, 2187.777
849.036, 2212.102
849.518, 2227.716
850.000, 2233.050
850.483, 2234.935
850.965, 2234.509
851.447, 2231.882
851.929, 2223.800
852.411, 2213.290
852.893, 2211.327
853.375, 2229.835
853.857, 2245.470
854.340, 2237.229
854.822, 2216.885
855.304, 2203.567
855.786, 2204.507
856.268, 2207.150
856.750, 2210.605
857.232, 2215.239
857.714, 2223.149
858.196, 2233.937
858.679, 2239.066
859.161, 2234.707
859.643, 2229.754
860.125, 2234.788
860.607, 2245.718
861.089, 2257.031
861.571, 2272.219
862.054, 2279.068
862.536, 2269.148
863.018, 2252.473
863.500, 2237.136
863.982, 2221.196
864.464, 2218.304
864.946, 2232.008
865.428, 2250.911
865.910, 2262.221
866.393, 2268.208
866.875, 2272.522
867.357, 2274.920
867.839, 2280.392
868.321, 2301.304
868.803, 2320.943
869.285, 2320.475
869.767, 2284.944
870.249, 2271.191
870.732, 2287.352
871.214, 2308.713
871.696, 2308.939
872.178, 2293.518
872.660, 2288.355
873.142, 2295.805
873.624, 2307.535
874.106, 2321.724
874.588, 2333.963
875.071, 2336.591
875.553, 2323.967
876.035, 2329.055
876.517, 2369.218
876.999, 2406.825
877.481, 2416.392
877.963, 2398.904
878.445, 2398.875
878.927, 2416.935
879.410, 2431.722
879.892, 2419.457
880.374, 2400.554
880.856, 2401.375
881.338, 2421.671
881.820, 2437.499
882.302, 2434.150
882.784, 2431.633
883.266, 2438.177
883.749, 2452.877
884.231, 2468.496
884.713, 2485.759
885.195, 2497.690
885.677, 2497.834
886.159, 2492.070
886.641, 2489.776
887.123, 2490.456
887.606, 2492.378
888.088, 2495.699
888.570, 2499.144
889.052, 2500.333
889.534, 2501.280
890.016, 2510.094
890.498, 2530.770
890.980, 2543.190
891.463, 2538.367
891.945, 2527.348
892.427, 2534.655
892.909, 2554.437
893.391, 2568.562
893.873, 2561.906
894.355, 2558.341
894.837, 2579.673
895.320, 2609.534
895.802, 2618.816
896.284, 2591.377
896.766, 2576.956
897.248, 2582.853
897.730, 2598.625
898.212, 2614.158
898.694, 2627.359
899.176, 2624.737
899.659, 2598.781
900.141, 2578.867
900.623, 2597.185
901.105, 2628.086
901.587, 2643.771
902.069, 2628.279
902.551, 2624.262
903.033, 2636.988
903.515, 2653.598
903.998, 2663.609
904.480, 2667.668
904.962, 2672.774
905.444, 2679.237
905.926, 2685.497
906.408, 2691.409
906.890, 2695.764
907.372, 2694.976
907.854, 2688.165
908.337, 2690.142
908.819, 2712.584
909.301, 2730.878
909.783, 2732.227
910.265, 2719.788
910.747, 2718.597
911.229, 2728.254
911.711, 2739.581
912.193, 2746.988
912.676, 2753.306
913.158, 2761.527
913.640, 2771.223
914.122, 2780.767
914.604, 2794.324
915.086, 2801.368
915.568, 2796.519
916.050, 2785.452
916.533, 2783.939
917.015, 2791.910
917.497, 2798.082
917.979, 2797.098
918.461, 2797.118
918.943, 2812.138
919.425, 2833.783
919.907, 2847.915
920.390, 2838.746
920.872, 2838.170
921.354, 2855.436
921.836, 2878.868
922.318, 2896.096
922.800, 2906.636
923.282, 2919.853
923.764, 2937.988
924.247, 2950.095
924.729, 2936.942
925.211, 2915.554
925.693, 2908.346
926.175, 2920.157
926.657, 2936.618
927.139, 2963.933
927.621, 2985.230
928.103, 2990.934
928.586, 2981.194
929.068, 2961.348
929.550, 2930.097
930.032, 2915.231
930.514, 2951.065
930.996, 3004.686
931.478, 3038.780
931.960, 3052.562
932.442, 3051.659
932.925, 3016.932
933.407, 2992.257
933.889, 2995.077
934.371, 3015.727
934.853, 3020.908
935.335, 3009.719
935.817, 3004.444
936.299, 3012.922
936.781, 3029.063
937.264, 3052.606
937.746, 3076.734
938.228, 3089.018
938.710, 3069.678
939.192, 3061.040
939.674, 3077.766
940.156, 3100.911
940.638, 3108.752
941.120, 3100.601
941.603, 3092.121
942.085, 3083.934
942.567, 3081.677
943.049, 3099.545
943.531, 3121.980
944.013, 3126.798
944.495, 3108.274
944.977, 3096.846
945.460, 3104.453
945.942, 3116.205
946.424, 3126.763
946.906, 3135.928
947.388, 3140.602
947.870, 3140.862
948.352, 3142.411
948.834, 3146.932
949.317, 3155.778
949.799, 3176.060
950.281, 3202.965
950.763, 3219.056
951.245, 3208.793
951.727, 3201.190
952.209, 3203.599
952.691, 3209.984
953.173, 3202.546
953.656, 3183.307
954.138, 3183.144
954.620, 3215.331
955.102, 3251.417
955.584, 3267.083
956.066, 3269.476
956.548, 3266.685
957.030, 3255.353
957.513, 3249.545
957.995, 3251.811
958.477, 3256.738
958.959, 3259.144
959.441, 3259.819
959.923, 3265.489
960.405, 3276.265
960.887, 3288.365
961.369, 3304.117
961.852, 3315.950
962.334, 3311.755
962.816, 3292.930
963.298, 3295.408
963.780, 3334.800
964.262, 3363.659
964.744, 3359.983
965.226, 3340.513
965.708, 3358.821
966.191, 3403.303
966.673, 3428.210
967.155, 3400.225
967.637, 3367.725
968.119, 3356.449
968.601, 3359.018
969.083, 3363.904
969.565, 3371.409
970.047, 3377.906
970.530, 3382.533
971.012, 3387.788
971.494, 3396.128
971.976, 3407.230
972.458, 3423.575
972.940, 3445.817
973.422, 3459.134
973.904, 3451.698
974.386, 3435.844
974.869, 3412.553
975.351, 3382.910
975.833, 3387.168
976.315, 3432.329
976.797, 3466.895
977.279, 3457.364
977.761, 3428.338
978.244, 3418.707
978.726, 3423.107
979.208, 3426.845
979.690, 3417.477
980.172, 3415.798
980.654, 3435.164
981.136, 3458.619
981.618, 3455.677
982.100, 3425.381
982.583, 3415.595
983.065, 3435.643
983.547, 3463.650
984.029, 3483.165
984.511, 3494.381
984.993, 3496.036
985.475, 3486.340
985.957, 3475.458
986.440, 3458.526
986.922, 3449.998
987.404, 3460.702
987.886, 3486.810
988.368, 3507.593
988.850, 3522.503
989.332, 3526.129
989.814, 3496.231
990.296, 3472.064
990.779, 3495.639
991.261, 3545.731
991.743, 3560.181
992.225, 3516.402
992.707, 3487.340
993.189, 3486.172
993.671, 3497.371
994.153, 3495.457
994.635, 3488.342
995.118, 3501.929
995.600, 3547.366
996.082, 3577.130
996.564, 3547.411
997.046, 3509.349
997.528, 3502.414
998.010, 3529.289
998.492, 3537.374
998.974, 3523.971
999.457, 3512.129
999.939, 3517.013
1000.421, 3530.910
1000.903, 3545.400
1001.385, 3559.739
1001.867, 3571.415
1002.349, 3581.134
1002.831, 3585.771
1003.314, 3584.104
1003.796, 3578.227
1004.278, 3569.793
1004.760, 3559.391
1005.242, 3554.394
1005.724, 3556.938
1006.206, 3560.368
1006.688, 3554.537
1007.170, 3549.439
1007.653, 3556.516
1008.135, 3581.247
1008.617, 3597.404
1009.099, 3603.639
1009.581, 3603.657
1010.063, 3598.571
1010.545, 3589.086
1011.027, 3572.589
1011.510, 3552.217
1011.992, 3541.368
1012.474, 3556.371
1012.956, 3571.249
1013.438, 3571.804
1013.920, 3566.568
1014.402, 3571.741
1014.884, 3590.187
1015.366, 3598.960
1015.849, 3594.018
1016.331, 3584.143
1016.813, 3577.092
1017.295, 3571.994
1017.777, 3566.538
1018.259, 3559.740
1018.741, 3560.728
1019.223, 3582.522
1019.706, 3596.930
1020.188, 3587.396
1020.670, 3561.440
1021.152, 3556.608
1021.634, 3570.353
1022.116, 3584.485
1022.598, 3589.853
1023.080, 3593.366
1023.562, 3605.604
1024.045, 3616.975
1024.527, 3608.977
1025.009, 3568.210
1025.491, 3544.542
1025.973, 3543.373
1026.455, 3550.637
1026.937, 3555.101
1027.419, 3556.060
1027.901, 3551.417
1028.384, 3541.120
1028.866, 3529.243
1029.348, 3510.458
1029.830, 3498.527
1030.312, 3499.584
1030.794, 3511.350
1031.276, 3530.402
1031.758, 3556.023
1032.240, 3560.776
1032.723, 3523.669
1033.205, 3485.281
1033.687, 3490.760
1034.169, 3516.388
1034.651, 3530.261
1035.133, 3521.135
1035.615, 3512.677
1036.097, 3505.792
1036.580, 3497.115
1037.062, 3478.197
1037.544, 3456.329
1038.026, 3454.944
1038.508, 3472.080
1038.990, 3488.190
1039.472, 3499.624
1039.954, 3500.247
1040.437, 3480.967
1040.919, 3452.268
1041.401, 3437.938
1041.883, 3438.630
1042.365, 3440.973
1042.847, 3442.999
1043.329, 3442.594
1043.811, 3435.751
1044.293, 3426.330
1044.776, 3419.542
1045.258, 3418.184
1045.740, 3409.158
1046.222, 3386.551
1046.704, 3368.394
1047.186, 3367.789
1047.668, 3378.207
1048.150, 3381.500
1048.632, 3378.341
1049.115, 3371.298
1049.597, 3355.595
1050.079, 3343.239
1050.561, 3340.379
1051.043, 3342.746
1051.525, 3346.100
1052.007, 3350.792
1052.489, 3352.512
1052.972, 3351.031
1053.454, 3344.590
1053.936, 3325.346
1054.418, 3304.412
1054.900, 3294.103
1055.382, 3295.136
1055.864, 3296.738
1056.346, 3302.688
1056.828, 3297.221
1057.311, 3269.413
1057.793, 3234.818
1058.275, 3231.093
1058.757, 3247.836
1059.239, 3256.883
1059.721, 3247.104
1060.203, 3234.738
1060.685, 3220.412
1061.167, 3211.126
1061.650, 3214.251
1062.132, 3230.869
1062.614, 3243.067
1063.096, 3250.932
1063.578, 3244.922
1064.060, 3202.042
1064.542, 3157.169
1065.024, 3141.189
1065.507, 3148.036
1065.989, 3157.646
1066.471, 3172.666
1066.953, 3178.483
1067.435, 3171.979
1067.917, 3158.688
1068.399, 3142.633
1068.881, 3125.939
1069.364, 3113.091
1069.846, 3104.976
1070.328, 3096.120
1070.810, 3081.178
1071.292, 3068.475
1071.774, 3060.604
1072.256, 3057.556
1072.738, 3063.336
1073.220, 3076.184
1073.703, 3079.644
1074.185, 3063.012
1074.667, 3044.474
1075.149, 3038.090
1075.631, 3036.632
1076.113, 3031.657
1076.595, 3023.287
1077.077, 3007.235
1077.559, 2980.734
1078.042, 2961.708
1078.524, 2978.522
1079.006, 3001.711
1079.488, 2976.626
1079.970, 2918.115
1080.452, 2884.730
1080.934, 2930.724
1081.416, 2951.471
1081.898, 2923.848
1082.381, 2880.256
1082.863, 2872.143
1083.345, 2889.384
1083.827, 2897.457
1084.309, 2891.256
1084.791, 2878.979
1085.273, 2849.461
1085.755, 2831.367
1086.238, 2849.986
1086.720, 2894.444
1087.202, 2896.834
1087.684, 2857.400
1088.166, 2823.762
1088.648, 2815.233
1089.130, 2815.641
1089.612, 2814.476
1090.094, 2810.631
1090.577, 2803.229
1091.059, 2794.816
1091.541, 2772.141
1092.023, 2730.771
1092.505, 2691.368
1092.987, 2672.478
1093.469, 2663.609
1093.951, 2642.635
1094.433, 2614.672
1094.916, 2596.904
1095.398, 2610.909
1095.880, 2613.970
1096.362, 2595.716
1096.844, 2569.280
1097.326, 2552.783
1097.808, 2543.156
1098.290, 2521.141
1098.773, 2484.686
1099.255, 2461.740
1099.737, 2489.708
1100.219, 2514.795
1100.701, 2503.192
1101.183, 2465.052
1101.665, 2432.069
1102.147, 2404.073
1102.630, 2386.813
1103.112, 2386.556
1103.594, 2381.576
1104.076, 2341.339
1104.558, 2290.138
1105.040, 2256.967
1105.522, 2250.135
1106.004, 2229.013
1106.486, 2188.536
1106.969, 2152.229
1107.451, 2136.421
1107.933, 2128.576
1108.415, 2109.318
1108.897, 2080.821
1109.379, 2048.170
1109.861, 1999.927
1110.343, 1966.503
1110.825, 1944.845
1111.308, 1908.038
1111.790, 1908.143
1112.272, 1899.303
1112.754, 1881.989
1113.236, 1830.846
1113.718, 1823.387
1114.200, 1798.425
1114.682, 1772.740
1115.165, 1761.749
1115.647, 1731.903
1116.129, 1702.381
1116.611, 1673.311
1117.093, 1648.101
1117.575, 1627.403
1118.057, 1608.852
1118.539, 1592.410
1119.021, 1575.879
1119.504, 1557.300
1119.986, 1536.974
1120.468, 1518.052
1120.950, 1501.547
1121.432, 1478.220
1121.914, 1441.456
1122.396, 1405.421
1122.878, 1392.142
1123.360, 1387.762
1123.843, 1372.406
1124.325, 1335.145
1124.807, 1314.877
1125.289, 1318.720
1125.771, 1320.631
1126.253, 1303.280
1126.735, 1276.161
1127.217, 1258.746
1127.700, 1247.611
1128.182, 1234.138
1128.664, 1206.576
1129.146, 1190.821
1129.628, 1198.124
1130.110, 1203.769
1130.592, 1177.589
1131.074, 1130.140
1131.557, 1108.451
1132.039, 1110.861
1132.521, 1112.223
1133.003, 1095.242
1133.485, 1079.981
1133.967, 1076.564
1134.449, 1077.153
1134.931, 1069.161
1135.413, 1053.025
1135.896, 1032.183
1136.378, 1006.521
1136.860, 990.428
1137.342, 1009.662
1137.824, 1028.848
1138.306, 1015.863
1138.788, 980.821
1139.270, 970.083
1139.752, 985.813
1140.235, 990.658
1140.717, 973.065
1141.199, 948.374
1141.681, 930.107
1142.163, 914.381
1142.645, 896.131
1143.127, 873.651
1143.609, 861.146
1144.092, 860.138
1144.574, 861.259
1145.056, 862.173
1145.538, 860.569
1146.020, 853.208
1146.502, 840.955
1146.984, 824.481
1147.466, 794.736
1147.948, 782.847
1148.431, 793.760
1148.913, 810.815
1149.395, 826.432
1149.877, 838.365
1150.359, 839.946
1150.841, 833.556
1151.323, 826.380
1151.805, 825.104
1152.287, 815.992
1152.770, 792.896
1153.252, 769.531
1153.734, 761.663
1154.216, 765.109
1154.698, 767.092
1155.180, 766.761
1155.662, 763.081
1156.144, 751.066
1156.626, 741.425
1157.109, 738.081
1157.591, 737.704
1158.073, 734.703
1158.555, 729.727
1159.037, 725.369
1159.519, 721.886
1160.001, 722.229
1160.483, 736.687
1160.966, 746.206
1161.448, 738.823
1161.930, 720.260
1162.412, 706.688
1162.894, 697.786
1163.376, 689.227
1163.858, 679.382
1164.340, 672.602
1164.823, 674.613
1165.305, 678.843
1165.787, 680.304
1166.269, 679.180
1166.751, 678.675
1167.233, 678.815
1167.715, 675.247
1168.197, 664.526
1168.679, 653.516
1169.161, 648.466
1169.644, 646.358
1170.126, 643.984
1170.608, 641.028
1171.090, 637.913
1171.572, 634.379
1172.054, 633.698
1172.536, 637.670
1173.018, 645.326
1173.501, 664.105
1173.983, 682.981
1174.465, 681.027
1174.947, 642.982
1175.429, 627.775
1175.911, 639.566
1176.393, 651.755
1176.875, 640.819
1177.358, 622.338
1177.840, 612.709
1178.322, 611.219
1178.804, 616.833
1179.286, 639.301
1179.768, 642.492
1180.250, 620.056
1180.732, 594.340
1181.214, 587.914
1181.697, 591.058
1182.179, 589.196
1182.661, 583.646
1183.143, 585.865
1183.625, 606.546
1184.107, 615.254
1184.589, 604.837
1185.071, 589.322
1185.553, 585.592
1186.036, 588.684
1186.518, 591.656
1187.000, 593.727
1187.482, 593.807
1187.964, 589.849
1188.446, 588.144
1188.928, 591.658
1189.410, 594.890
1189.893, 585.837
1190.375, 571.251
1190.857, 565.022
1191.339, 569.720
1191.821, 573.226
1192.303, 569.886
1192.785, 571.218
1193.267, 584.542
1193.750, 599.400
1194.232, 587.338
1194.714, 562.228
1195.196, 557.430
1195.678, 586.808
1196.160, 600.875
1196.642, 576.159
1197.124, 555.017
1197.606, 557.183
1198.089, 573.001
1198.571, 578.942
1199.053, 578.156
1199.535, 572.406
1200.017, 559.353
1200.499, 566.195
1200.981, 568.209
1201.463, 565.652
1201.945, 544.839
1202.428, 547.591
1202.910, 540.904
1203.392, 533.831
1203.874, 539.910
1204.356, 530.521
1204.838, 531.303
1205.320, 538.727
1205.802, 543.964
1206.285, 537.015
1206.767, 523.294
1207.249, 526.820
1207.731, 542.596
1208.213, 553.295
1208.695, 543.554
1209.177, 539.588
1209.659, 549.423
1210.141, 560.509
1210.624, 561.541
1211.106, 554.622
1211.588, 545.157
1212.070, 534.342
1212.552, 526.492
1213.034, 522.233
1213.516, 524.384
1213.998, 537.813
1214.480, 550.357
1214.963, 549.521
1215.445, 537.049
1215.927, 511.234
1216.409, 476.410
1216.891, 458.767
1217.373, 486.042
1217.855, 510.644
1218.337, 525.256
1218.820, 529.667
1219.302, 518.711
1219.784, 498.178
1220.266, 484.191
1220.748, 477.698
1221.230, 477.297
1221.712, 489.942
1222.194, 498.184
1222.677, 496.934
1223.159, 491.849
1223.641, 490.977
1224.123, 492.906
1224.605, 494.076
1225.087, 494.183
1225.569, 494.581
1226.051, 501.125
1226.533, 498.809
1227.016, 478.220
1227.498, 457.085
1227.980, 472.564
1228.462, 506.660
1228.944, 517.229
1229.426, 498.923
1229.908, 485.619
1230.390, 490.956
1230.872, 496.782
1231.355, 499.212
1231.837, 498.919
1232.319, 492.215
1232.801, 485.249
1233.283, 494.762
1233.765, 524.916
1234.247, 537.850
1234.729, 515.412
1235.212, 497.945
1235.694, 499.327
1236.176, 508.255
1236.658, 506.459
1237.140, 497.977
1237.622, 487.377
1238.104, 474.382
1238.586, 473.499
1239.068, 493.064
1239.551, 504.538
1240.033, 495.782
1240.515, 478.661
1240.997, 466.722
1241.479, 461.431
1241.961, 468.095
1242.443, 490.833
1242.925, 499.352
1243.407, 488.105
1243.890, 477.913
1244.372, 477.293
1244.854, 480.793
1245.336, 478.249
1245.818, 475.943
1246.300, 464.350
1246.782, 474.736
1247.264, 479.787
1247.746, 479.790
1248.229, 459.620
1248.711, 465.497
1249.193, 460.938
1249.675, 455.950
1250.157, 465.493
1250.639, 448.260
1251.121, 457.573
1251.603, 454.348
1252.086, 456.409
1252.568, 461.426
1253.050, 468.883
1253.532, 474.158
1254.014, 466.842
1254.496, 458.491
1254.978, 467.229
1255.460, 494.950
1255.943, 491.457
1256.425, 456.985
1256.907, 433.188
1257.389, 444.424
1257.871, 460.852
1258.353, 459.343
1258.835, 451.955
1259.317, 450.569
1259.799, 455.205
1260.281, 461.982
1260.764, 470.437
1261.246, 475.464
1261.728, 473.688
1262.210, 470.067
1262.692, 469.149
1263.174, 465.515
1263.656, 452.157
1264.138, 431.610
1264.621, 427.833
1265.103, 437.888
1265.585, 447.024
1266.067, 447.426
1266.549, 448.853
1267.031, 458.179
1267.513, 465.677
1267.995, 463.712
1268.478, 455.059
1268.960, 450.066
1269.442, 448.404
1269.924, 449.318
1270.406, 455.737
1270.888, 457.377
1271.370, 446.386
1271.852, 440.904
1272.334, 427.496
1272.817, 445.338
1273.299, 455.593
1273.781, 458.671
1274.263, 433.073
1274.745, 444.504
1275.227, 441.096
1275.709, 437.078
1276.191, 453.721
1276.673, 432.294
1277.156, 448.609
1277.638, 449.858
1278.120, 458.003
1278.602, 451.216
1279.084, 449.041
1279.566, 461.801
1280.048, 466.292
1280.530, 450.196
1281.013, 449.214
1281.495, 453.109
1281.977, 448.544
1282.459, 441.573
1282.941, 442.091
1283.423, 452.128
1283.905, 456.754
1284.387, 455.974
1284.870, 454.850
1285.352, 458.599
1285.834, 459.636
1286.316, 449.833
1286.798, 436.742
1287.280, 427.396
1287.762, 421.852
1288.244, 425.792
1288.726, 437.606
1289.208, 446.851
1289.691, 448.250
1290.173, 446.448
1290.655, 439.736
1291.137, 434.211
1291.619, 435.520
1292.101, 441.328
1292.583, 439.130
1293.065, 431.949
1293.548, 429.831
1294.030, 441.818
1294.512, 448.184
1294.994, 443.680
##END=



