##NAMES=Manganite
##RRUFFID=R070593
##IDEAL CHEMISTRY=Mn^3+^O(OH)
##LOCALITY=Ilfeld, near Nordhausen, Harz Mountains, Thuringia, Germany
##OWNER=RRUFF
##SOURCE=James Shigley
##DESCRIPTION=Bundled aggregates of steel-gray metallic prisms
##STATUS=The identification of this mineral has been confirmed by X-ray diffraction and chemical analysis
##URL=rruff.info/R070593
##MEASURED CHEMISTRY=Mn^3+^_1.00_O(OH) ; OH estimated by difference and stoichiometry
116.3736, 715.5214
116.8557, 726.6708
117.3378, 737.5516
117.8199, 740.9429
118.3021, 732.6149
118.7842, 714.4700
119.2663, 698.7073
119.7484, 686.4850
120.2305, 674.7565
120.7126, 658.5604
121.1948, 640.5375
121.6769, 631.0133
122.1590, 640.7089
122.6411, 670.0170
123.1232, 688.1071
123.6053, 681.6975
124.0875, 671.3582
124.5696, 679.6385
125.0517, 711.7666
125.5338, 746.2326
126.0159, 759.6634
126.4980, 756.2174
126.9802, 748.5661
127.4623, 739.0849
127.9444, 728.6196
128.4265, 719.1210
128.9086, 708.5874
129.3907, 702.5867
129.8729, 706.0952
130.3550, 719.1307
130.8371, 734.2186
131.3192, 743.8423
131.8013, 746.8255
132.2834, 753.6458
132.7656, 768.1918
133.2477, 786.5359
133.7298, 807.5059
134.2119, 830.9427
134.6940, 855.0668
135.1761, 875.8615
135.6583, 888.5075
136.1404, 906.6315
136.6225, 939.1801
137.1046, 975.2401
137.5867, 1001.775
138.0688, 1010.783
138.5510, 1005.904
139.0331, 1011.775
139.5152, 1034.448
139.9973, 1062.612
140.4794, 1094.511
140.9615, 1130.320
141.4437, 1171.422
141.9258, 1220.301
142.4079, 1278.340
142.8900, 1326.477
143.3721, 1354.492
143.8542, 1383.046
144.3364, 1424.726
144.8185, 1479.965
145.3006, 1540.283
145.7827, 1599.770
146.2648, 1661.885
146.7469, 1701.159
147.2291, 1718.889
147.7112, 1712.538
148.1933, 1677.078
148.6754, 1609.682
149.1575, 1519.084
149.6396, 1405.038
150.1218, 1262.145
150.6039, 1142.380
151.0860, 1077.670
151.5681, 1052.779
152.0502, 1019.590
152.5323, 959.0489
153.0145, 887.6483
153.4966, 828.9645
153.9787, 784.6711
154.4608, 747.0540
154.9429, 708.4492
155.4250, 668.2453
155.9072, 637.3936
156.3893, 628.4761
156.8714, 627.5012
157.3535, 621.6948
157.8356, 606.2974
158.3177, 588.4543
158.7999, 580.8322
159.2820, 588.9519
159.7641, 594.0133
160.2462, 585.8960
160.7283, 572.8019
161.2104, 563.5369
161.6926, 562.2032
162.1747, 568.0463
162.6568, 579.2130
163.1389, 609.8918
163.6210, 627.4114
164.1031, 611.2267
164.5853, 577.0685
165.0674, 552.4839
165.5495, 560.9735
166.0316, 604.3157
166.5137, 628.9313
166.9958, 623.3068
167.4780, 609.9156
167.9601, 589.8464
168.4422, 567.0515
168.9243, 549.0070
169.4064, 544.4344
169.8885, 558.6381
170.3707, 565.9722
170.8528, 557.5041
171.3349, 550.0755
171.8170, 558.1419
172.2991, 582.0781
172.7813, 607.1196
173.2634, 613.2729
173.7455, 587.1634
174.2276, 568.0677
174.7097, 556.6307
175.1918, 551.8272
175.6740, 555.5399
176.1561, 568.7165
176.6382, 584.1918
177.1203, 587.6772
177.6024, 574.5771
178.0845, 562.2496
178.5667, 554.3398
179.0488, 549.3331
179.5309, 544.0970
180.0130, 536.7973
180.4951, 529.9517
180.9772, 529.0101
181.4594, 534.8533
181.9415, 543.1039
182.4236, 556.8226
182.9057, 573.2496
183.3878, 578.1351
183.8699, 558.0892
184.3521, 527.1261
184.8342, 512.6830
185.3163, 520.2031
185.7984, 536.8137
186.2805, 544.7681
186.7626, 561.7114
187.2448, 571.9557
187.7269, 575.8603
188.2090, 554.4387
188.6911, 565.7206
189.1732, 563.8965
189.6553, 561.5349
190.1375, 577.4201
190.6196, 559.6821
191.1017, 575.2776
191.5838, 577.5670
192.0659, 585.9462
192.5480, 581.1384
193.0302, 580.4040
193.5123, 592.8605
193.9944, 598.0130
194.4765, 591.6871
194.9586, 600.4535
195.4407, 582.2548
195.9229, 587.7186
196.4050, 603.3914
196.8871, 597.7285
197.3692, 606.7360
197.8513, 610.1562
198.3334, 588.1846
198.8156, 610.3723
199.2977, 613.4622
199.7798, 596.9436
200.2619, 617.6177
200.7440, 603.8024
201.2261, 628.5897
201.7083, 644.6408
202.1904, 648.1619
202.6725, 650.6493
203.1546, 658.9857
203.6367, 670.2504
204.1188, 674.8520
204.6010, 660.7839
205.0831, 621.1320
205.5652, 601.8478
206.0473, 620.0554
206.5294, 641.5731
207.0115, 649.0475
207.4937, 643.1920
207.9758, 637.1167
208.4579, 646.6654
208.9400, 680.4369
209.4221, 702.7261
209.9042, 702.4861
210.3864, 701.2029
210.8685, 714.6696
211.3506, 743.8116
211.8327, 776.3743
212.3148, 795.4784
212.7970, 790.9335
213.2791, 796.1567
213.7612, 817.4189
214.2433, 843.7868
214.7254, 864.3550
215.2075, 877.0473
215.6897, 891.1189
216.1718, 920.1158
216.6539, 970.0210
217.1360, 1026.878
217.6181, 1108.212
218.1002, 1188.708
218.5824, 1243.122
219.0645, 1264.010
219.5466, 1257.088
220.0287, 1228.052
220.5108, 1167.211
220.9929, 1107.521
221.4751, 1053.729
221.9572, 1003.266
222.4393, 951.1722
222.9214, 894.6487
223.4035, 839.7798
223.8856, 799.7716
224.3678, 776.1901
224.8499, 758.0117
225.3320, 743.5189
225.8141, 732.3622
226.2962, 723.7682
226.7783, 717.2579
227.2605, 713.6295
227.7426, 714.8726
228.2247, 721.5742
228.7068, 729.7348
229.1889, 738.4752
229.6710, 747.5540
230.1532, 756.4061
230.6353, 764.7197
231.1174, 772.7751
231.5995, 781.5054
232.0816, 791.9667
232.5637, 800.2373
233.0459, 800.1022
233.5280, 794.8013
234.0101, 798.4318
234.4922, 821.1785
234.9743, 850.6543
235.4564, 865.2874
235.9386, 859.7626
236.4207, 855.2369
236.9028, 865.1489
237.3849, 888.0975
237.8670, 914.8477
238.3491, 941.7115
238.8313, 971.7245
239.3134, 1010.384
239.7955, 1062.047
240.2776, 1109.745
240.7597, 1135.786
241.2418, 1141.804
241.7240, 1153.056
242.2061, 1178.973
242.6882, 1214.804
243.1703, 1252.645
243.6524, 1290.226
244.1345, 1335.212
244.6167, 1400.493
245.0988, 1486.318
245.5809, 1561.305
246.0630, 1601.189
246.5451, 1633.643
247.0272, 1688.473
247.5094, 1772.896
247.9915, 1865.667
248.4736, 1944.950
248.9557, 2009.672
249.4378, 2078.241
249.9199, 2155.362
250.4021, 2241.157
250.8842, 2334.433
251.3663, 2434.767
251.8484, 2545.980
252.3305, 2683.155
252.8126, 2852.059
253.2948, 2997.285
253.7769, 3086.411
254.2590, 3151.176
254.7411, 3211.813
255.2232, 3271.363
255.7053, 3332.515
256.1874, 3406.252
256.6696, 3498.965
257.1517, 3564.817
257.6338, 3579.323
258.1159, 3566.405
258.5980, 3539.298
259.0801, 3500.862
259.5623, 3447.471
260.0444, 3377.910
260.5265, 3294.238
261.0086, 3183.043
261.4907, 3013.753
261.9728, 2830.404
262.4550, 2658.948
262.9371, 2504.802
263.4192, 2360.035
263.9013, 2210.681
264.3834, 2054.142
264.8655, 1911.774
265.3477, 1789.862
265.8298, 1684.287
266.3119, 1596.852
266.7940, 1528.167
267.2761, 1469.527
267.7582, 1411.663
268.2404, 1353.996
268.7225, 1300.380
269.2046, 1253.004
269.6867, 1208.908
270.1688, 1163.393
270.6509, 1116.200
271.1331, 1077.423
271.6152, 1062.513
272.0973, 1076.450
272.5794, 1085.814
273.0615, 1081.536
273.5436, 1073.550
274.0258, 1064.324
274.5079, 1054.927
274.9900, 1050.310
275.4721, 1057.675
275.9542, 1079.156
276.4363, 1098.937
276.9185, 1115.583
277.4006, 1129.563
277.8827, 1135.655
278.3648, 1135.502
278.8469, 1142.664
279.3290, 1173.608
279.8112, 1231.585
280.2933, 1288.445
280.7754, 1340.016
281.2575, 1391.270
281.7396, 1442.602
282.2217, 1495.130
282.7039, 1552.062
283.1860, 1624.320
283.6681, 1714.905
284.1502, 1778.967
284.6323, 1805.067
285.1144, 1809.070
285.5966, 1800.420
286.0787, 1777.578
286.5608, 1731.692
287.0429, 1644.974
287.5250, 1517.065
288.0071, 1403.332
288.4893, 1316.096
288.9714, 1233.862
289.4535, 1145.912
289.9356, 1054.201
290.4177, 966.7236
290.8998, 887.3309
291.3820, 816.1202
291.8641, 761.2763
292.3462, 732.1128
292.8283, 709.8757
293.3104, 684.1752
293.7925, 657.9283
294.2747, 639.0132
294.7568, 636.4036
295.2389, 646.5477
295.7210, 646.4218
296.2031, 623.7884
296.6852, 608.6020
297.1674, 622.7461
297.6495, 652.0131
298.1316, 668.4752
298.6137, 650.3611
299.0958, 609.4926
299.5779, 589.8850
300.0601, 603.5341
300.5422, 617.5491
301.0243, 614.4821
301.5064, 603.9943
301.9885, 601.1647
302.4706, 616.9617
302.9528, 641.1201
303.4349, 646.7466
303.9170, 623.5557
304.3991, 606.6516
304.8812, 619.1461
305.3633, 642.1435
305.8455, 652.5425
306.3276, 638.4377
306.8097, 614.7601
307.2918, 607.3651
307.7739, 621.2720
308.2560, 633.6848
308.7382, 634.2152
309.2203, 629.9849
309.7024, 626.5446
310.1845, 625.0693
310.6666, 625.6676
311.1487, 629.1329
311.6309, 635.8856
312.1130, 642.2566
312.5951, 646.0068
313.0772, 649.5927
313.5593, 656.1655
314.0414, 666.7985
314.5236, 676.1238
315.0057, 678.7215
315.4878, 674.6741
315.9699, 668.0236
316.4520, 652.3810
316.9341, 641.5380
317.4163, 649.7563
317.8984, 678.4901
318.3805, 709.9452
318.8626, 734.5303
319.3447, 752.0430
319.8268, 759.8143
320.3090, 751.5131
320.7911, 740.8714
321.2732, 741.7648
321.7553, 753.3716
322.2374, 764.7563
322.7195, 767.9728
323.2017, 766.7161
323.6838, 772.6486
324.1659, 790.5311
324.6480, 808.5062
325.1301, 813.3120
325.6122, 808.2255
326.0944, 806.8361
326.5765, 817.6774
327.0586, 833.8635
327.5407, 843.3292
328.0228, 843.7277
328.5049, 845.0735
328.9871, 860.0504
329.4692, 883.2957
329.9513, 895.9246
330.4334, 886.1755
330.9155, 869.2891
331.3976, 857.9735
331.8798, 852.6108
332.3619, 857.0964
332.8440, 880.8502
333.3261, 916.0316
333.8082, 933.4639
334.2903, 915.7820
334.7725, 894.9244
335.2546, 892.4734
335.7367, 905.4272
336.2188, 918.8479
336.7010, 924.6144
337.1831, 926.5302
337.6652, 936.1282
338.1473, 957.2194
338.6294, 979.1725
339.1115, 998.0728
339.5937, 1014.814
340.0758, 1029.688
340.5579, 1041.396
341.0400, 1055.359
341.5221, 1085.230
342.0042, 1139.318
342.4864, 1188.134
342.9685, 1220.146
343.4506, 1246.233
343.9327, 1279.022
344.4148, 1321.781
344.8969, 1372.845
345.3791, 1430.483
345.8612, 1498.173
346.3433, 1563.474
346.8254, 1621.977
347.3075, 1680.975
347.7896, 1743.523
348.2718, 1811.303
348.7539, 1888.396
349.2360, 1980.205
349.7181, 2088.505
350.2002, 2199.357
350.6823, 2315.410
351.1645, 2431.242
351.6466, 2542.211
352.1287, 2650.610
352.6108, 2761.255
353.0929, 2878.103
353.5750, 3000.973
354.0572, 3130.596
354.5393, 3266.215
355.0214, 3409.288
355.5035, 3574.067
355.9856, 3744.354
356.4677, 3899.636
356.9499, 4029.917
357.4320, 4133.603
357.9141, 4206.497
358.3962, 4259.710
358.8783, 4258.910
359.3604, 4187.809
359.8426, 4072.906
360.3247, 3936.664
360.8068, 3787.639
361.2889, 3620.183
361.7710, 3421.067
362.2531, 3167.342
362.7353, 2942.042
363.2174, 2753.155
363.6995, 2589.192
364.1816, 2446.062
364.6637, 2322.691
365.1458, 2219.072
365.6280, 2137.896
366.1101, 2079.858
366.5922, 2030.596
367.0743, 1992.512
367.5564, 1961.480
368.0385, 1937.289
368.5207, 1918.451
369.0028, 1901.252
369.4849, 1877.842
369.9670, 1854.213
370.4491, 1853.554
370.9312, 1877.860
371.4134, 1922.238
371.8955, 1986.137
372.3776, 2066.151
372.8597, 2156.581
373.3418, 2249.860
373.8239, 2360.228
374.3061, 2512.446
374.7882, 2709.405
375.2703, 2917.529
375.7524, 3118.230
376.2345, 3326.631
376.7166, 3559.852
377.1988, 3819.197
377.6809, 4102.570
378.1630, 4410.957
378.6451, 4742.829
379.1272, 5089.186
379.6093, 5444.638
380.0915, 5822.317
380.5736, 6238.058
381.0557, 6687.002
381.5378, 7179.792
382.0199, 7709.993
382.5020, 8289.536
382.9842, 8931.450
383.4663, 9634.320
383.9484, 10414.94
384.4305, 11289.52
384.9126, 12276.07
385.3947, 13297.58
385.8769, 14513.98
386.3590, 15639.73
386.8411, 16525.92
387.3232, 17158.29
387.8053, 17542.28
388.2874, 17693.04
388.7696, 17596.00
389.2517, 17082.32
389.7338, 15987.22
390.2159, 14747.26
390.6980, 13383.23
391.1801, 11967.44
391.6623, 10572.62
392.1444, 9234.318
392.6265, 7984.484
393.1086, 6890.321
393.5907, 5997.349
394.0728, 5219.237
394.5550, 4569.078
395.0371, 4018.410
395.5192, 3556.604
396.0013, 3178.290
396.4834, 2859.404
396.9655, 2576.876
397.4477, 2329.088
397.9298, 2121.526
398.4119, 1980.946
398.8940, 1855.707
399.3761, 1724.633
399.8582, 1594.012
400.3404, 1484.071
400.8225, 1412.588
401.3046, 1370.206
401.7867, 1313.290
402.2688, 1229.299
402.7509, 1153.978
403.2331, 1100.732
403.7152, 1060.536
404.1973, 1023.650
404.6794, 986.8587
405.1615, 951.7607
405.6436, 919.5452
406.1258, 889.7910
406.6079, 866.7930
407.0900, 857.5309
407.5721, 850.7578
408.0542, 833.2480
408.5363, 803.7546
409.0185, 778.2928
409.5006, 773.7799
409.9827, 780.3697
410.4648, 769.0728
410.9469, 731.0209
411.4290, 690.2571
411.9112, 672.7595
412.3933, 674.5609
412.8754, 672.4918
413.3575, 659.0465
413.8396, 642.7313
414.3217, 632.6730
414.8039, 627.9625
415.2860, 618.4275
415.7681, 594.9661
416.2502, 562.9016
416.7323, 548.6636
417.2144, 565.8914
417.6966, 581.6789
418.1787, 589.6834
418.6608, 589.9915
419.1429, 579.4697
419.6250, 556.8401
420.1071, 532.1054
420.5893, 522.8102
421.0714, 539.7995
421.5535, 550.7065
422.0356, 554.9040
422.5177, 554.1283
422.9998, 548.4128
423.4820, 538.5137
423.9641, 526.0175
424.4462, 511.3798
424.9283, 494.5038
425.4104, 484.3544
425.8925, 487.8659
426.3747, 490.7554
426.8568, 489.9945
427.3389, 486.2332
427.8210, 480.2918
428.3031, 472.2271
428.7852, 463.4118
429.2674, 455.1075
429.7495, 444.9323
430.2316, 443.5358
430.7137, 471.9841
431.1958, 498.9331
431.6779, 495.0258
432.1601, 456.7475
432.6422, 422.4734
433.1243, 431.1277
433.6064, 471.5908
434.0885, 492.2474
434.5706, 482.2366
435.0528, 461.0258
435.5349, 435.8055
436.0170, 410.4464
436.4991, 402.3925
436.9812, 430.9372
437.4633, 468.7366
437.9455, 488.7741
438.4276, 491.9130
438.9097, 491.7980
439.3918, 495.9673
439.8739, 502.0435
440.3560, 501.7825
440.8382, 491.1803
441.3203, 481.3452
441.8024, 472.4700
442.2845, 467.1241
442.7666, 472.2685
443.2487, 489.3024
443.7309, 506.5789
444.2130, 507.0273
444.6951, 482.8708
445.1772, 467.3129
445.6593, 461.5316
446.1414, 461.8835
446.6236, 468.7328
447.1057, 480.2724
447.5878, 493.7935
448.0699, 508.5069
448.5520, 522.5970
449.0341, 524.4760
449.5163, 501.9524
449.9984, 486.0882
450.4805, 490.1194
450.9626, 499.5465
451.4447, 496.9216
451.9268, 476.9695
452.4090, 456.7293
452.8911, 460.6881
453.3732, 489.8374
453.8553, 511.3599
454.3374, 518.8027
454.8195, 518.8878
455.3017, 514.4094
455.7838, 506.7331
456.2659, 502.3138
456.7480, 505.1590
457.2301, 512.5903
457.7122, 521.3351
458.1944, 531.4562
458.6765, 540.4129
459.1586, 546.0998
459.6407, 549.7198
460.1228, 555.5939
460.6049, 567.8704
461.0871, 576.3200
461.5692, 574.2697
462.0513, 566.1164
462.5334, 558.5273
463.0155, 553.3989
463.4977, 551.7900
463.9798, 555.8113
464.4619, 568.5381
464.9440, 577.2144
465.4261, 578.1866
465.9082, 578.6633
466.3904, 584.3083
466.8725, 593.2989
467.3546, 598.7302
467.8367, 595.0137
468.3188, 585.1440
468.8009, 584.8760
469.2831, 601.2943
469.7652, 616.6484
470.2473, 634.1243
470.7294, 645.8108
471.2115, 638.0555
471.6936, 608.7000
472.1758, 582.3934
472.6579, 593.5554
473.1400, 641.6213
473.6221, 671.8672
474.1042, 671.1830
474.5863, 662.3336
475.0685, 658.5977
475.5506, 659.4759
476.0327, 663.6921
476.5148, 668.1117
476.9969, 677.2693
477.4790, 698.5849
477.9612, 731.3812
478.4433, 766.0846
478.9254, 799.3602
479.4075, 830.6187
479.8896, 857.0936
480.3717, 874.4781
480.8539, 897.7275
481.3360, 936.9421
481.8181, 980.8638
482.3002, 1011.945
482.7823, 1029.022
483.2644, 1051.542
483.7466, 1100.765
484.2287, 1179.798
484.7108, 1250.183
485.1929, 1306.359
485.6750, 1361.261
486.1571, 1410.386
486.6393, 1462.906
487.1214, 1534.778
487.6035, 1633.550
488.0856, 1746.822
488.5677, 1845.170
489.0498, 1918.400
489.5320, 2013.371
490.0141, 2165.066
490.4962, 2318.916
490.9783, 2450.099
491.4604, 2555.647
491.9425, 2638.540
492.4247, 2712.822
492.9068, 2763.148
493.3889, 2747.547
493.8710, 2658.473
494.3531, 2540.530
494.8352, 2406.751
495.3174, 2263.802
495.7995, 2127.196
496.2816, 1999.787
496.7637, 1875.252
497.2458, 1739.811
497.7279, 1607.708
498.2101, 1506.050
498.6922, 1441.949
499.1743, 1399.967
499.6564, 1363.017
500.1385, 1330.972
500.6206, 1305.946
501.1028, 1282.142
501.5849, 1269.815
502.0670, 1278.163
502.5491, 1300.821
503.0312, 1324.978
503.5133, 1343.551
503.9955, 1361.261
504.4776, 1390.189
504.9597, 1434.022
505.4418, 1479.902
505.9239, 1531.781
506.4060, 1580.883
506.8882, 1618.807
507.3703, 1646.748
507.8524, 1675.693
508.3345, 1708.698
508.8166, 1748.689
509.2987, 1806.201
509.7809, 1883.601
510.2630, 1967.851
510.7451, 2047.275
511.2272, 2130.359
511.7093, 2237.454
512.1914, 2389.213
512.6735, 2527.439
513.1556, 2610.430
513.6378, 2663.969
514.1199, 2728.952
514.6020, 2815.861
515.0841, 2918.445
515.5662, 3029.384
516.0483, 3147.819
516.5305, 3285.515
517.0126, 3458.419
517.4947, 3631.272
517.9768, 3784.382
518.4589, 3928.799
518.9410, 4085.085
519.4232, 4261.229
519.9053, 4453.503
520.3874, 4655.339
520.8695, 4871.624
521.3516, 5080.450
521.8337, 5263.471
522.3159, 5451.813
522.7980, 5666.247
523.2801, 5903.323
523.7622, 6140.725
524.2443, 6364.080
524.7264, 6583.153
525.2086, 6822.641
525.6907, 7083.924
526.1728, 7327.169
526.6549, 7526.650
527.1370, 7699.498
527.6191, 7887.119
528.1013, 8105.951
528.5834, 8294.210
529.0655, 8425.871
529.5476, 8522.403
530.0297, 8604.904
530.5118, 8676.879
530.9940, 8736.879
531.4761, 8788.709
531.9582, 8830.216
532.4403, 8806.010
532.9224, 8668.945
533.4045, 8516.495
533.8867, 8355.829
534.3688, 8191.826
534.8509, 8030.188
535.3330, 7872.990
535.8151, 7709.300
536.2972, 7521.353
536.7794, 7308.671
537.2615, 7110.939
537.7436, 6921.579
538.2257, 6759.444
538.7078, 6642.293
539.1899, 6557.643
539.6721, 6482.771
540.1542, 6409.935
540.6363, 6346.842
541.1184, 6291.050
541.6005, 6249.005
542.0826, 6245.601
542.5648, 6291.425
543.0469, 6363.865
543.5290, 6429.996
544.0111, 6479.634
544.4932, 6568.856
544.9753, 6706.277
545.4575, 6873.193
545.9396, 7065.471
546.4217, 7278.120
546.9038, 7505.371
547.3859, 7744.525
547.8680, 7997.712
548.3502, 8261.553
548.8323, 8544.267
549.3144, 8837.188
549.7965, 9145.021
550.2786, 9460.424
550.7607, 9778.947
551.2429, 10102.12
551.7250, 10438.89
552.2071, 10802.68
552.6892, 11180.45
553.1713, 11557.69
553.6534, 11935.84
554.1356, 12294.32
554.6177, 12626.70
555.0998, 12932.18
555.5819, 13214.72
556.0640, 13489.03
556.5461, 13708.33
557.0283, 13865.05
557.5104, 13961.26
557.9925, 14002.65
558.4746, 13986.21
558.9567, 13897.72
559.4388, 13725.38
559.9210, 13475.51
560.4031, 13183.25
560.8852, 12855.75
561.3673, 12470.01
561.8494, 12002.92
562.3315, 11501.48
562.8137, 10997.23
563.2958, 10495.23
563.7779, 9992.893
564.2600, 9482.895
564.7421, 8972.724
565.2242, 8483.873
565.7064, 8017.128
566.1885, 7571.688
566.6706, 7147.482
567.1527, 6750.833
567.6348, 6393.479
568.1169, 6091.917
568.5991, 5790.862
569.0812, 5457.049
569.5633, 5121.184
570.0454, 4818.379
570.5275, 4552.772
571.0096, 4318.484
571.4918, 4109.453
571.9739, 3925.350
572.4560, 3753.227
572.9381, 3594.579
573.4202, 3446.260
573.9023, 3309.087
574.3845, 3180.065
574.8666, 3056.515
575.3487, 2937.837
575.8308, 2824.510
576.3129, 2718.871
576.7950, 2619.012
577.2772, 2515.128
577.7593, 2402.033
578.2414, 2305.191
578.7235, 2248.236
579.2056, 2214.989
579.6877, 2166.013
580.1699, 2090.870
580.6520, 2019.539
581.1341, 1967.638
581.6162, 1923.935
582.0984, 1873.219
582.5805, 1814.082
583.0626, 1758.341
583.5447, 1716.292
584.0269, 1687.088
584.5090, 1661.135
584.9911, 1647.610
585.4732, 1624.585
585.9553, 1583.421
586.4374, 1535.047
586.9196, 1486.803
587.4017, 1441.120
587.8838, 1401.745
588.3659, 1373.363
588.8480, 1349.042
589.3301, 1345.454
589.8123, 1335.159
590.2944, 1318.532
590.7765, 1276.577
591.2586, 1267.325
591.7407, 1244.968
592.2228, 1222.075
592.7050, 1217.422
593.1871, 1179.154
593.6692, 1174.217
594.1513, 1155.974
594.6334, 1141.512
595.1155, 1136.011
595.5977, 1124.650
596.0798, 1108.631
596.5619, 1095.964
597.0440, 1087.598
597.5261, 1081.177
598.0082, 1075.889
598.4904, 1072.442
598.9725, 1071.858
599.4546, 1074.014
599.9367, 1077.125
600.4188, 1080.317
600.9009, 1083.512
601.3831, 1085.766
601.8652, 1086.959
602.3473, 1090.880
602.8294, 1100.047
603.3115, 1112.460
603.7936, 1123.101
604.2758, 1128.506
604.7579, 1141.043
605.2400, 1171.603
605.7221, 1202.657
606.2042, 1214.206
606.6863, 1212.589
607.1685, 1222.809
607.6506, 1262.279
608.1327, 1318.989
608.6148, 1356.297
609.0969, 1363.849
609.5790, 1384.504
610.0612, 1429.214
610.5433, 1486.619
611.0254, 1553.805
611.5075, 1628.390
611.9896, 1700.700
612.4717, 1765.517
612.9539, 1827.237
613.4360, 1894.867
613.9181, 1965.269
614.4002, 2018.773
614.8823, 2044.503
615.3644, 2068.969
615.8466, 2134.623
616.3287, 2257.286
616.8108, 2363.709
617.2929, 2446.236
617.7750, 2521.681
618.2571, 2600.820
618.7393, 2676.841
619.2214, 2735.900
619.7035, 2771.979
620.1856, 2798.700
620.6677, 2837.792
621.1498, 2888.768
621.6320, 2924.090
622.1141, 2939.320
622.5962, 2942.508
623.0783, 2942.289
623.5604, 2934.208
624.0425, 2903.975
624.5247, 2837.368
625.0068, 2766.085
625.4889, 2705.617
625.9710, 2648.543
626.4531, 2586.606
626.9352, 2517.180
627.4174, 2432.708
627.8995, 2322.068
628.3816, 2187.746
628.8637, 2088.567
629.3458, 2051.015
629.8279, 2007.377
630.3101, 1940.337
630.7922, 1863.279
631.2743, 1785.656
631.7564, 1709.471
632.2385, 1638.253
632.7206, 1574.435
633.2028, 1517.122
633.6849, 1464.645
634.1670, 1417.032
634.6491, 1374.985
635.1312, 1341.188
635.6133, 1309.665
636.0955, 1266.086
636.5776, 1194.807
637.0597, 1145.674
637.5418, 1140.883
638.0239, 1138.376
638.5060, 1112.309
638.9882, 1068.046
639.4703, 1021.180
639.9524, 978.3443
640.4345, 942.4817
640.9166, 922.6705
641.3987, 919.7041
641.8809, 906.1097
642.3630, 871.8324
642.8451, 836.3898
643.3272, 820.1653
643.8093, 816.4169
644.2914, 802.6706
644.7736, 762.8170
645.2557, 727.1517
645.7378, 710.8848
646.2199, 706.7738
646.7020, 707.6733
647.1841, 710.5060
647.6663, 708.4137
648.1484, 694.0825
648.6305, 668.2635
649.1126, 640.8852
649.5947, 605.1791
650.0768, 580.4838
650.5590, 583.2654
651.0411, 591.1736
651.5232, 569.8159
652.0053, 580.5520
652.4874, 584.5889
652.9695, 582.2870
653.4517, 554.6572
653.9338, 559.7327
654.4159, 551.7015
654.8980, 543.1328
655.3801, 552.8107
655.8622, 528.8662
656.3444, 538.2535
656.8265, 534.3364
657.3086, 536.5087
657.7907, 525.4938
658.2728, 518.5521
658.7549, 524.8022
659.2371, 523.7464
659.7192, 511.2141
660.2013, 513.7735
660.6834, 489.3678
661.1655, 488.6243
661.6476, 498.0906
662.1298, 486.2196
662.6119, 489.0207
663.0940, 486.2339
663.5761, 478.0982
664.0582, 478.1660
664.5403, 452.9077
665.0225, 460.3523
665.5046, 454.6915
665.9867, 448.4931
666.4688, 460.5411
666.9509, 438.9662
667.4330, 450.7251
667.9152, 449.1771
668.3973, 453.7197
668.8794, 445.0750
669.3615, 440.5034
669.8436, 449.1231
670.3257, 450.4389
670.8079, 440.2756
671.2900, 445.2054
671.7721, 423.1699
672.2542, 424.7965
672.7363, 436.6324
673.2184, 424.3042
673.7006, 426.3615
674.1827, 436.2429
674.6648, 446.3305
675.1469, 442.8856
675.6290, 423.8273
676.1111, 401.3803
676.5933, 387.3765
677.0754, 381.4615
677.5575, 380.6849
678.0396, 387.5378
678.5217, 393.8233
679.0038, 394.6555
679.4860, 395.2208
679.9681, 402.0048
680.4502, 415.4364
680.9323, 425.1944
681.4144, 427.7054
681.8965, 424.5419
682.3787, 410.9250
682.8608, 392.5965
683.3429, 387.5219
683.8250, 403.0294
684.3071, 426.4300
684.7892, 439.1935
685.2714, 441.0204
685.7535, 433.4561
686.2356, 404.5094
686.7177, 382.1526
687.1998, 381.1981
687.6819, 389.6791
688.1641, 392.6618
688.6462, 387.1102
689.1283, 377.8379
689.6104, 362.4084
690.0925, 347.7129
690.5746, 345.8566
691.0568, 355.9059
691.5389, 367.4081
692.0210, 375.2354
692.5031, 379.4632
692.9852, 379.7646
693.4673, 372.6954
693.9495, 370.0184
694.4316, 375.8357
694.9137, 381.8409
695.3958, 386.2346
695.8779, 388.0859
696.3600, 385.1152
696.8422, 375.1658
697.3243, 366.3187
697.8064, 365.4254
698.2885, 370.5425
698.7706, 378.5425
699.2527, 388.8369
699.7349, 400.2069
700.2170, 413.7944
700.6991, 425.1484
701.1812, 417.2597
701.6633, 363.1929
702.1454, 336.9344
702.6276, 359.5998
703.1097, 389.5510
703.5918, 406.5168
704.0739, 411.6352
704.5560, 412.3460
705.0381, 411.0520
705.5203, 407.9974
706.0024, 400.7447
706.4845, 392.0181
706.9666, 392.3720
707.4487, 403.8536
707.9308, 411.8158
708.4130, 403.6953
708.8951, 383.3554
709.3772, 371.1405
709.8593, 373.7275
710.3414, 374.7307
710.8235, 372.9784
711.3057, 369.7794
711.7878, 361.2422
712.2699, 351.7601
712.7520, 354.8553
713.2341, 383.2036
713.7162, 414.5172
714.1984, 421.6866
714.6805, 409.9016
715.1626, 394.9502
715.6447, 379.5101
716.1268, 369.5202
716.6089, 371.4955
717.0911, 383.2507
717.5732, 388.8016
718.0553, 386.2679
718.5374, 379.6763
719.0195, 360.8134
719.5016, 345.1926
719.9838, 346.5372
720.4659, 361.4927
720.9480, 375.4052
721.4301, 381.2285
721.9122, 382.4557
722.3943, 381.3443
722.8765, 378.9373
723.3586, 380.5817
723.8407, 387.7572
724.3228, 391.1299
724.8049, 381.0945
725.2870, 359.8554
725.7692, 347.6101
726.2513, 349.5479
726.7334, 353.1053
727.2155, 357.3817
727.6976, 362.6609
728.1797, 372.0473
728.6619, 383.0681
729.1440, 386.9195
729.6261, 375.4306
730.1082, 361.2466
730.5903, 358.4442
731.0724, 363.8269
731.5546, 369.0481
732.0367, 372.3659
732.5188, 373.7068
733.0009, 372.8552
733.4830, 370.0259
733.9651, 366.5861
734.4473, 361.3809
734.9294, 357.5842
735.4115, 355.9148
735.8936, 355.3322
736.3757, 356.5551
736.8578, 358.4296
737.3400, 357.2404
737.8221, 349.1753
738.3042, 341.2531
738.7863, 339.6564
739.2684, 342.5517
739.7505, 348.3741
740.2327, 356.1190
740.7148, 357.7667
741.1969, 345.3063
741.6790, 323.7538
742.1611, 316.6590
742.6432, 332.1290
743.1254, 343.0591
743.6075, 342.5989
744.0896, 340.0760
744.5717, 341.1894
745.0538, 344.5892
745.5359, 345.7687
746.0181, 342.0239
746.5002, 338.4039
746.9823, 339.3701
747.4644, 341.7464
747.9465, 338.7853
748.4286, 331.2834
748.9108, 328.8744
749.3929, 338.8548
749.8750, 355.9319
750.3571, 366.0095
750.8392, 368.3602
751.3214, 366.5190
751.8035, 357.3730
752.2856, 348.9470
752.7677, 347.0904
753.2498, 349.7555
753.7319, 353.1278
754.2141, 360.2786
754.6962, 361.0933
755.1783, 345.0335
755.6604, 325.8752
756.1425, 317.2413
756.6246, 318.3603
757.1068, 322.6745
757.5889, 327.0098
758.0710, 329.7796
758.5531, 326.1481
759.0352, 316.3026
759.5173, 313.5518
759.9995, 319.9312
760.4816, 331.2639
760.9637, 350.6656
761.4458, 371.1159
761.9279, 372.1101
762.4100, 343.0162
762.8922, 322.9607
763.3743, 323.9315
763.8564, 328.2887
764.3385, 325.3171
764.8206, 317.4952
765.3027, 310.4593
765.7849, 306.2670
766.2670, 305.2716
766.7491, 308.4302
767.2312, 315.0099
767.7133, 325.8477
768.1954, 340.9996
768.6776, 344.9371
769.1597, 327.2508
769.6418, 301.8140
770.1239, 293.8052
770.6060, 310.1755
771.0881, 318.0744
771.5703, 310.3154
772.0524, 302.9306
772.5345, 301.5020
773.0166, 302.6403
773.4987, 301.7562
773.9808, 298.1253
774.4630, 295.4743
774.9451, 296.2060
775.4272, 299.0267
775.9093, 303.6339
776.3914, 309.0297
776.8735, 311.9944
777.3557, 311.5175
777.8378, 309.0137
778.3199, 306.0113
778.8020, 302.5115
779.2841, 298.1461
779.7662, 292.1479
780.2484, 286.9236
780.7305, 281.5001
781.2126, 278.4860
781.6947, 280.7946
782.1768, 287.8901
782.6589, 295.2901
783.1411, 307.2647
783.6232, 313.2889
784.1053, 302.3429
784.5874, 285.4252
785.0695, 275.8214
785.5516, 275.4279
786.0338, 279.8083
786.5159, 286.5320
786.9980, 294.3101
787.4801, 301.4688
787.9622, 308.0338
788.4443, 307.3901
788.9265, 295.9781
789.4086, 285.6238
789.8907, 287.4530
790.3728, 297.3791
790.8549, 296.4779
791.3370, 271.8570
791.8192, 256.3827
792.3013, 259.4026
792.7834, 264.8416
793.2655, 260.0299
793.7476, 250.4732
794.2297, 251.0321
794.7119, 268.8925
795.1940, 285.0709
795.6761, 276.4754
796.1582, 256.8115
796.6403, 253.0434
797.1224, 265.4354
797.6046, 282.1956
798.0867, 298.7372
798.5688, 310.0490
799.0509, 305.4308
799.5330, 281.0319
800.0151, 267.8871
800.4973, 273.3205
800.9794, 278.0638
801.4615, 276.9171
801.9436, 270.4073
802.4257, 253.1461
802.9078, 224.2595
803.3900, 213.4015
803.8721, 250.9344
804.3542, 285.3807
804.8363, 278.9490
805.3184, 252.1502
805.8005, 235.3251
806.2827, 235.1642
806.7648, 242.6239
807.2469, 252.1315
807.7290, 261.9533
808.2111, 267.9262
808.6932, 270.0775
809.1754, 267.0072
809.6575, 255.8774
810.1396, 251.0712
810.6217, 269.6699
811.1038, 305.5847
811.5859, 318.6721
812.0681, 288.6329
812.5502, 265.4874
813.0323, 254.2617
813.5144, 247.4688
813.9965, 242.0517
814.4786, 237.3091
814.9608, 231.7269
815.4429, 223.5116
815.9250, 219.5620
816.4071, 228.4425
816.8892, 242.0227
817.3713, 248.6317
817.8535, 249.3685
818.3356, 253.0773
818.8177, 263.8660
819.2998, 275.6845
819.7819, 279.3955
820.2640, 274.9911
820.7462, 268.2631
821.2283, 257.7303
821.7104, 250.0474
822.1925, 247.8444
822.6746, 249.6307
823.1567, 254.6466
823.6389, 263.5110
824.1210, 268.7717
824.6031, 267.4584
825.0852, 265.9738
825.5673, 269.3019
826.0494, 271.3773
826.5316, 261.6508
827.0137, 243.1150
827.4958, 233.5882
827.9779, 247.2553
828.4600, 267.5399
828.9421, 278.0284
829.4243, 280.2835
829.9064, 275.5952
830.3885, 265.1430
830.8706, 257.6280
831.3527, 259.7177
831.8348, 266.0738
832.3170, 261.3570
832.7991, 241.5603
833.2812, 231.2567
833.7633, 236.2566
834.2454, 242.4360
834.7275, 241.2596
835.2097, 237.1138
835.6918, 238.8435
836.1739, 248.5710
836.6560, 255.4628
837.1381, 260.8832
837.6202, 259.8562
838.1024, 242.7254
838.5845, 220.8333
839.0666, 211.3504
839.5487, 216.6906
840.0308, 222.6186
840.5129, 214.1734
840.9951, 224.7205
841.4772, 212.2188
841.9593, 234.7247
842.4414, 249.2655
842.9235, 250.6755
843.4056, 244.2537
843.8878, 233.0762
844.3699, 219.6013
844.8520, 214.4510
845.3341, 220.4367
845.8162, 224.7308
846.2983, 225.1791
846.7805, 224.7600
847.2626, 226.3062
847.7447, 228.1336
848.2268, 225.9668
848.7089, 217.5284
849.1910, 210.8205
849.6732, 207.1973
850.1553, 205.7768
850.6374, 205.9196
851.1195, 207.9272
851.6016, 212.9813
852.0837, 221.2277
852.5659, 229.6510
853.0480, 238.0859
853.5301, 243.9601
854.0122, 239.3082
854.4943, 228.2655
854.9764, 228.0942
855.4586, 242.9940
855.9407, 256.9962
856.4228, 254.7291
856.9049, 239.6020
857.3870, 224.8102
857.8691, 207.6342
858.3513, 204.6662
858.8334, 226.0998
859.3155, 248.5656
859.7976, 255.7986
860.2797, 251.5933
860.7618, 248.6988
861.2440, 247.4959
861.7261, 246.7385
862.2082, 247.9145
862.6903, 247.8150
863.1724, 243.0015
863.6545, 236.4370
864.1367, 233.1531
864.6188, 234.2314
865.1009, 235.4218
865.5830, 234.2464
866.0651, 231.4572
866.5472, 227.7625
867.0294, 223.1848
867.5115, 215.2800
867.9936, 204.5535
868.4757, 200.7448
868.9578, 213.8930
869.4399, 237.6023
869.9221, 253.2300
870.4042, 260.6840
870.8863, 258.3470
871.3684, 241.5887
871.8505, 230.4513
872.3326, 241.9901
872.8148, 266.6037
873.2969, 276.3475
873.7790, 265.2884
874.2611, 252.3769
874.7432, 232.0055
875.2253, 216.3467
875.7075, 211.7716
876.1896, 213.5492
876.6717, 216.2617
877.1538, 219.0872
877.6359, 221.9422
878.1180, 224.9509
878.6002, 227.7918
879.0823, 230.5121
879.5644, 232.8068
880.0465, 234.3841
880.5286, 235.0986
881.0107, 233.9847
881.4929, 229.1371
881.9750, 225.6641
882.4571, 236.7515
882.9392, 257.3085
883.4213, 262.4947
883.9034, 249.6263
884.3856, 234.0282
884.8677, 223.3773
885.3498, 217.8862
885.8319, 219.5531
886.3140, 230.8164
886.7961, 232.5003
887.2783, 220.8274
887.7604, 206.7079
888.2425, 186.1819
888.7246, 171.1710
889.2067, 180.9203
889.6888, 213.5117
890.1710, 231.9184
890.6531, 223.1696
891.1352, 212.9493
891.6173, 204.9254
892.0994, 200.4845
892.5815, 203.8098
893.0637, 211.3628
893.5458, 212.9301
894.0279, 202.7604
894.5100, 194.3930
894.9921, 203.4175
895.4742, 216.8280
895.9564, 214.7284
896.4385, 201.2552
896.9206, 192.7202
897.4027, 194.8895
897.8848, 200.3481
898.3669, 202.0984
898.8491, 200.0951
899.3312, 189.6712
899.8133, 170.9990
900.2954, 172.1340
900.7775, 203.7719
901.2596, 232.8185
901.7418, 230.2398
902.2239, 204.2003
902.7060, 190.2635
903.1881, 194.2304
903.6702, 195.8298
904.1523, 188.7336
904.6345, 186.3748
905.1166, 203.9811
905.5987, 226.3208
906.0808, 227.9811
906.5629, 203.7572
907.0450, 189.0521
907.5272, 199.4836
908.0093, 209.6680
908.4914, 205.3006
908.9735, 196.8593
909.4556, 198.1274
909.9377, 208.1540
910.4199, 213.1311
910.9020, 201.8741
911.3841, 192.0677
911.8662, 208.4156
912.3483, 232.0178
912.8304, 228.2427
913.3126, 201.4063
913.7947, 180.7362
914.2768, 179.7613
914.7589, 190.3576
915.2410, 206.3196
915.7231, 224.9786
916.2053, 230.6034
916.6874, 223.2640
917.1695, 222.3623
917.6516, 235.4280
918.1337, 245.8629
918.6158, 236.1897
919.0980, 210.1929
919.5801, 190.5701
920.0622, 174.4995
920.5443, 173.7859
921.0264, 200.6362
921.5085, 226.7368
921.9907, 236.5594
922.4728, 234.1258
922.9549, 226.9597
923.4370, 212.9763
923.9191, 202.3938
924.4012, 197.0689
924.8834, 194.1510
925.3655, 193.6807
925.8476, 194.3173
926.3297, 194.9675
926.8118, 195.4409
927.2939, 195.4565
927.7761, 191.8628
928.2582, 192.6080
928.7403, 209.6610
929.2224, 229.1791
929.7045, 234.0018
930.1866, 226.2385
930.6688, 215.4302
931.1509, 205.5402
931.6330, 200.6464
932.1151, 210.4471
932.5972, 226.2286
933.0793, 226.7423
933.5615, 214.9061
934.0436, 205.9833
934.5257, 204.1629
935.0078, 206.8340
935.4899, 212.4422
935.9720, 219.3940
936.4542, 222.5563
936.9363, 221.8350
937.4184, 217.9662
937.9005, 210.1584
938.3826, 202.2833
938.8647, 195.3053
939.3469, 191.1136
939.8290, 193.5370
940.3111, 203.7094
940.7932, 213.7076
941.2753, 226.9844
941.7574, 234.7241
942.2396, 231.2350
942.7217, 224.4137
943.2038, 218.4120
943.6859, 214.0372
944.1680, 214.7967
944.6501, 229.1411
945.1323, 234.7382
945.6144, 217.8054
946.0965, 200.0260
946.5786, 196.0593
947.0607, 200.4503
947.5428, 201.6708
948.0250, 197.4632
948.5071, 198.7284
948.9892, 220.4412
949.4713, 240.6159
949.9534, 237.4980
950.4355, 223.6547
950.9177, 218.3632
951.3998, 222.6405
951.8819, 225.8781
952.3640, 222.0709
952.8461, 215.8907
953.3282, 212.4488
953.8104, 211.2296
954.2925, 211.8993
954.7746, 213.8540
955.2567, 213.9181
955.7388, 211.0055
956.2209, 208.5733
956.7031, 210.5246
957.1852, 215.7046
957.6673, 220.4912
958.1494, 224.8986
958.6315, 225.6938
959.1136, 222.0573
959.5958, 215.8320
960.0779, 206.5222
960.5600, 198.5065
961.0421, 203.1804
961.5242, 225.2803
962.0063, 232.0591
962.4885, 213.2369
962.9706, 202.4981
963.4527, 218.4587
963.9348, 236.8162
964.4169, 230.0665
964.8990, 201.3031
965.3812, 184.1756
965.8633, 183.3783
966.3454, 186.6329
966.8275, 194.5690
967.3096, 205.0029
967.7917, 222.7063
968.2739, 239.5534
968.7560, 240.5545
969.2381, 222.7774
969.7202, 210.9827
970.2023, 219.3770
970.6844, 226.6555
971.1666, 217.6373
971.6487, 206.3717
972.1308, 210.5252
972.6129, 226.1514
973.0950, 234.8795
973.5771, 228.1429
974.0593, 219.8060
974.5414, 220.1060
975.0235, 223.2805
975.5056, 224.6203
975.9877, 223.3557
976.4698, 216.9539
976.9520, 206.0240
977.4341, 198.0866
977.9162, 199.0161
978.3983, 205.6446
978.8804, 216.9984
979.3625, 229.4859
979.8447, 233.7772
980.3268, 229.5241
980.8089, 220.9463
981.2910, 209.9508
981.7731, 198.7049
982.2552, 187.8189
982.7374, 179.2643
983.2195, 185.9837
983.7016, 206.7755
984.1837, 206.3296
984.6658, 221.1596
985.1479, 229.2902
985.6301, 231.0814
986.1122, 207.5464
986.5943, 216.7151
987.0764, 212.7776
987.5585, 208.3027
988.0406, 222.0743
988.5228, 202.2228
989.0049, 215.7051
989.4870, 215.8811
989.9691, 222.1471
990.4512, 215.2260
990.9333, 212.3779
991.4155, 222.7211
991.8976, 225.7602
992.3797, 217.3211
992.8618, 223.9741
993.3439, 203.6622
993.8260, 207.0124
994.3082, 220.5717
994.7903, 212.7956
995.2724, 219.6897
995.7545, 220.9966
996.2366, 196.9118
996.7188, 216.9857
997.2009, 217.9624
997.6830, 199.3305
998.1651, 217.8914
998.6472, 201.9627
999.1293, 198.3447
999.6115, 203.9911
1000.094, 199.9793
1000.576, 211.1950
1001.058, 207.7414
1001.540, 202.9772
1002.022, 203.9326
1002.504, 188.6803
1002.986, 203.4965
1003.468, 197.7734
1003.951, 202.2591
1004.433, 209.0598
1004.915, 198.1411
1005.397, 205.9816
1005.879, 184.7310
1006.361, 187.8219
1006.843, 188.2918
1007.325, 204.3202
1007.807, 183.2115
1008.290, 185.6252
1008.772, 198.0558
1009.254, 196.4718
1009.736, 189.5225
1010.218, 180.6745
1010.700, 174.3209
1011.182, 173.4341
1011.664, 174.6511
1012.146, 175.4306
1012.629, 175.5710
1013.111, 173.3084
1013.593, 170.3425
1014.075, 173.7344
1014.557, 183.0282
1015.039, 185.4063
1015.521, 171.3810
1016.003, 153.4719
1016.486, 151.9314
1016.968, 162.3500
1017.450, 171.8905
1017.932, 179.7355
1018.414, 186.2818
1018.896, 191.5464
1019.378, 192.5216
1019.860, 185.1461
1020.342, 174.5902
1020.825, 175.1080
1021.307, 185.7246
1021.789, 197.7077
1022.271, 210.3440
1022.753, 215.0455
1023.235, 207.5028
1023.717, 195.2153
1024.199, 186.6982
1024.682, 181.9456
1025.164, 183.1057
1025.646, 191.4326
1026.128, 186.5356
1026.610, 161.6314
1027.092, 146.5241
1027.574, 161.5545
1028.056, 187.1496
1028.538, 187.6925
1029.021, 162.1879
1029.503, 152.2274
1029.985, 162.2982
1030.467, 170.6553
1030.949, 173.3584
1031.431, 171.3667
1031.913, 163.4594
1032.395, 153.1698
1032.877, 149.6257
1033.360, 153.1542
1033.842, 162.7029
1034.324, 182.6591
1034.806, 199.2330
1035.288, 210.7582
1035.770, 213.8935
1036.252, 201.0871
1036.734, 177.8650
1037.217, 168.9949
1037.699, 184.5793
1038.181, 191.9702
1038.663, 183.7655
1039.145, 178.7814
1039.627, 189.0768
1040.109, 200.9641
1040.591, 197.9849
1041.073, 181.7822
1041.556, 170.8737
1042.038, 169.6651
1042.520, 166.9083
1043.002, 156.8035
1043.484, 151.5092
1043.966, 161.2717
1044.448, 175.6827
1044.930, 180.9464
1045.412, 176.7190
1045.895, 173.7551
1046.377, 173.7335
1046.859, 173.6130
1047.341, 170.6967
1047.823, 169.9517
1048.305, 178.3908
1048.787, 188.9636
1049.269, 188.0931
1049.752, 173.4332
1050.234, 167.1133
1050.716, 180.5720
1051.198, 191.6238
1051.680, 194.6016
1052.162, 193.2174
1052.644, 189.9984
1053.126, 184.5493
1053.609, 172.8345
1054.091, 151.8141
1054.573, 144.4412
1055.055, 176.6301
1055.537, 197.0376
1056.019, 169.5587
1056.501, 136.9296
1056.983, 142.2874
1057.465, 172.0217
1057.948, 182.5901
1058.430, 160.0580
1058.912, 147.4514
1059.394, 171.9594
1059.876, 192.2678
1060.358, 179.0122
1060.840, 159.8566
1061.322, 168.0350
1061.804, 195.4102
1062.287, 207.1670
1062.769, 190.0103
1063.251, 174.6788
1063.733, 173.8485
1064.215, 176.4325
1064.697, 178.7248
1065.179, 179.2012
1065.661, 176.1170
1066.144, 169.9289
1066.626, 161.5644
1067.108, 147.1700
1067.590, 143.3819
1068.072, 172.0091
1068.554, 197.1368
1069.036, 187.4294
1069.518, 165.7117
1070.000, 164.8479
1070.483, 182.8858
1070.965, 190.0719
1071.447, 170.9891
1071.929, 152.9101
1072.411, 150.2666
1072.893, 150.6013
1073.375, 141.4141
1073.857, 131.8448
1074.339, 137.5399
1074.822, 157.3506
1075.304, 173.6048
1075.786, 179.4618
1076.268, 181.1890
1076.750, 177.3683
1077.232, 174.9304
1077.714, 180.9217
1078.197, 190.6706
1078.679, 198.8128
1079.161, 203.6448
1079.643, 201.4720
1080.125, 184.0879
1080.607, 172.2021
1081.089, 185.3018
1081.571, 197.9763
1082.053, 187.6523
1082.536, 165.4099
1083.018, 146.4920
1083.500, 134.4888
1083.982, 132.4130
1084.464, 145.2318
1084.946, 161.6400
1085.428, 184.1541
1085.910, 200.6412
1086.392, 194.6128
1086.875, 179.9160
1087.357, 181.4935
1087.839, 200.3935
1088.321, 208.9873
1088.803, 174.5941
1089.285, 190.0728
1089.767, 198.8520
1090.249, 201.2920
1090.732, 178.4061
1091.214, 188.2234
1091.696, 184.9346
1092.178, 181.1083
1092.660, 195.5286
1093.142, 176.3259
1093.624, 190.4568
1094.106, 191.2814
1094.589, 198.1964
1095.071, 191.9240
1095.553, 189.7246
1096.035, 200.7165
1096.517, 204.4043
1096.999, 196.6138
1097.481, 203.9155
1097.963, 184.2522
1098.445, 188.2510
1098.927, 202.4591
1099.410, 195.3320
1099.892, 202.8748
1100.374, 204.8304
1100.856, 181.3942
1101.338, 202.1169
1101.820, 203.7422
1102.302, 185.7589
1102.784, 204.9685
1103.267, 189.6888
1103.749, 186.7195
1104.231, 193.0147
1104.713, 189.6519
1105.195, 201.5161
1105.677, 198.7111
1106.159, 194.5954
1106.641, 196.1994
1107.124, 181.5960
1107.606, 197.0608
1108.088, 190.4612
1108.570, 192.3781
1109.052, 191.5370
1109.534, 188.5200
1110.016, 183.0019
1110.498, 198.4846
1110.980, 207.2680
1111.463, 209.7125
1111.945, 186.8303
1112.427, 196.6518
1112.909, 193.3671
1113.391, 189.5450
1113.873, 203.9694
1114.355, 184.7708
1114.837, 198.9058
1115.319, 199.7346
1115.802, 206.6538
1116.284, 200.3855
1116.766, 198.1902
1117.248, 209.1862
1117.730, 212.8781
1118.212, 205.0918
1118.694, 212.3976
1119.176, 192.7384
1119.659, 196.7418
1120.141, 210.9540
1120.623, 203.8307
1121.105, 211.3776
1121.587, 213.3373
1122.069, 189.9052
1122.551, 210.6320
1123.033, 212.2615
1123.516, 194.2827
1123.998, 213.4964
1124.480, 198.2205
1124.962, 195.2553
1125.444, 201.5546
1125.926, 198.1960
1126.408, 210.0643
1126.890, 207.2634
1127.372, 203.1518
1127.854, 204.7599
1128.337, 190.1608
1128.819, 205.6297
1129.301, 200.5593
1129.783, 205.6985
1130.265, 213.1519
1130.747, 202.8859
1131.229, 211.3791
1131.711, 190.7812
1132.194, 194.5252
1132.676, 195.6477
1133.158, 212.3288
1133.640, 203.9814
1134.122, 226.0388
1134.604, 245.2781
1135.086, 245.7054
1135.568, 235.5177
1136.051, 223.8101
1136.533, 213.3985
1137.015, 220.5843
1137.497, 242.1275
1137.979, 257.1085
1138.461, 262.7733
1138.943, 269.1187
1139.425, 281.3942
1139.907, 293.9189
1140.390, 297.8633
1140.872, 298.7300
1141.354, 311.2922
1141.836, 316.3947
1142.318, 323.9492
1142.800, 337.5465
1143.282, 342.8195
1143.764, 360.0884
1144.246, 376.1956
1144.729, 377.2644
1145.211, 373.6916
1145.693, 378.9641
1146.175, 388.7916
1146.657, 402.5386
1147.139, 413.2911
1147.621, 400.8667
1148.103, 363.1004
1148.586, 331.1268
1149.068, 329.2281
1149.550, 332.1981
1150.032, 321.5482
1150.514, 304.6172
1150.996, 281.5800
1151.478, 261.0988
1151.960, 261.1217
1152.443, 279.9440
1152.925, 290.0703
1153.407, 277.0242
1153.889, 262.2126
1154.371, 257.1906
1154.853, 251.3748
1155.335, 232.3638
1155.817, 212.7186
1156.299, 209.6052
1156.781, 220.5506
1157.264, 230.4981
1157.746, 240.7175
1158.228, 238.1282
1158.710, 201.7827
1159.192, 176.2593
1159.674, 183.9396
1160.156, 202.6670
1160.638, 221.0827
1161.121, 234.7152
1161.603, 229.7097
1162.085, 197.7134
1162.567, 185.5965
1163.049, 210.6799
1163.531, 222.3740
1164.013, 201.9194
1164.495, 183.1787
1164.978, 188.1174
1165.460, 204.6817
1165.942, 212.5524
1166.424, 211.8931
1166.906, 203.8145
1167.388, 219.2963
1167.870, 228.0788
1168.352, 230.5220
1168.834, 207.6389
1169.317, 217.4598
1169.799, 214.1742
1170.281, 210.3512
1170.763, 224.7746
1171.245, 205.5751
1171.727, 219.7093
1172.209, 220.5372
1172.691, 227.4550
1173.173, 221.1857
1173.656, 218.9900
1174.138, 229.9851
1174.620, 233.6761
1175.102, 225.8888
1175.584, 233.1937
1176.066, 213.5336
1176.548, 217.5357
1177.030, 231.7470
1177.513, 224.6231
1177.995, 232.1692
1178.477, 234.1280
1178.959, 210.6950
1179.441, 231.4209
1179.923, 233.0495
1180.405, 215.0694
1180.887, 234.2822
1181.370, 212.9942
1181.852, 201.2689
1182.334, 191.8515
1182.816, 201.4617
1183.298, 234.6362
1183.780, 257.8969
1184.262, 250.2407
1184.744, 234.2849
1185.226, 211.8780
1185.708, 194.6119
1186.191, 194.3889
1186.673, 203.5508
1187.155, 212.7194
1187.637, 219.9262
1188.119, 217.1265
1188.601, 188.4596
1189.083, 173.4069
1189.565, 182.1997
1190.048, 197.1230
1190.530, 217.6511
1191.012, 235.8618
1191.494, 247.0204
1191.976, 249.1411
1192.458, 231.3822
1192.940, 181.9747
1193.422, 170.6739
1193.905, 211.3495
1194.387, 242.0509
1194.869, 249.0373
1195.351, 243.2209
1195.833, 229.0448
1196.315, 213.8938
1196.797, 211.2905
1197.279, 218.5660
1197.761, 215.3598
1198.244, 203.4259
1198.726, 209.1353
1199.208, 233.4613
1199.690, 246.2103
1200.172, 235.7322
1200.654, 221.6322
1201.136, 223.0324
1201.618, 215.4206
1202.100, 225.2984
1202.583, 215.6891
1203.065, 219.0059
1203.547, 229.8733
1204.029, 231.1962
1204.511, 221.5050
1204.993, 213.2026
1205.475, 212.1020
1205.957, 215.9923
1206.440, 227.1457
1206.922, 238.3996
1207.404, 244.8039
1207.886, 247.6312
1208.368, 247.1914
1208.850, 244.9584
1209.332, 244.3864
1209.814, 246.4594
1210.297, 245.8798
1210.779, 241.2953
1211.261, 234.0641
1211.743, 219.8749
1212.225, 208.3028
1212.707, 206.0799
1213.189, 208.3177
1213.671, 208.5437
1214.153, 207.6468
1214.635, 213.9133
1215.118, 233.1107
1215.600, 239.1163
1216.082, 226.7132
1216.564, 218.3572
1217.046, 221.4703
1217.528, 226.7837
1218.010, 227.1030
1218.492, 225.6377
1218.975, 231.2397
1219.457, 241.1463
1219.939, 231.5960
1220.421, 206.9878
1220.903, 197.4250
1221.385, 205.8135
1221.867, 219.5167
1222.349, 232.7803
1222.832, 240.7610
1223.314, 239.1381
1223.796, 229.7006
1224.278, 206.7392
1224.760, 183.3991
1225.242, 182.0360
1225.724, 193.9489
1226.206, 199.5578
1226.688, 196.4301
1227.171, 194.9079
1227.653, 199.9702
1228.135, 203.9087
1228.617, 203.6896
1229.099, 200.8397
1229.581, 188.4872
1230.063, 180.7970
1230.545, 198.4399
1231.027, 227.9726
1231.510, 236.5428
1231.992, 219.4305
1232.474, 208.1121
1232.956, 205.9900
1233.438, 201.8858
1233.920, 191.5051
1234.402, 187.2811
1234.884, 196.5865
1235.367, 208.5761
1235.849, 212.1161
1236.331, 209.4045
1236.813, 208.0961
1237.295, 207.8088
1237.777, 197.5148
1238.259, 178.5032
1238.741, 170.8375
1239.224, 177.9534
1239.706, 188.7050
1240.188, 197.1540
1240.670, 204.9255
1241.152, 218.0617
1241.634, 227.5352
1242.116, 210.5121
1242.598, 187.0329
1243.080, 192.7706
1243.563, 217.4435
1244.045, 232.1281
1244.527, 231.3430
1245.009, 229.7505
1245.491, 236.9392
1245.973, 235.7254
1246.455, 203.1516
1246.937, 179.7336
1247.419, 195.9069
1247.902, 223.0340
1248.384, 238.4307
1248.866, 241.6385
1249.348, 231.7354
1249.830, 205.8870
1250.312, 195.2993
1250.794, 206.6630
1251.276, 213.1170
1251.759, 208.3630
1252.241, 211.4024
1252.723, 233.0582
1253.205, 253.7750
1253.687, 253.5448
1254.169, 238.0829
1254.651, 217.4959
1255.133, 194.7418
1255.615, 184.8593
1256.098, 186.8258
1256.580, 199.4914
1257.062, 218.4583
1257.544, 221.4986
1258.026, 198.1354
1258.508, 180.1212
1258.990, 204.2618
1259.472, 235.2095
1259.954, 245.1785
1260.437, 241.7649
1260.919, 226.2971
1261.401, 206.6423
1261.883, 193.2597
1262.365, 187.4516
1262.847, 186.2695
1263.329, 191.0020
1263.811, 195.8015
1264.294, 202.9964
1264.776, 205.4335
1265.258, 198.0957
1265.740, 190.2523
1266.222, 186.0215
1266.704, 187.7419
1267.186, 201.9901
1267.668, 225.6926
1268.151, 227.9811
1268.633, 208.7489
1269.115, 197.7617
1269.597, 197.0313
1270.079, 195.7268
1270.561, 190.7756
1271.043, 189.1066
1271.525, 196.4514
1272.007, 202.6160
1272.490, 187.2704
1272.972, 169.5117
1273.454, 182.7090
1273.936, 207.2100
1274.418, 215.6232
1274.900, 207.5375
1275.382, 185.2192
1275.864, 151.5843
1276.346, 136.6008
1276.829, 163.4996
1277.311, 188.5314
1277.793, 204.5067
1278.275, 211.4948
1278.757, 202.1314
1279.239, 191.1121
1279.721, 191.7466
1280.203, 197.3201
1280.686, 190.4208
1281.168, 170.6194
1281.650, 173.9484
1282.132, 203.4274
1282.614, 214.3775
##END=



