##NAMES=Manganite
##RRUFFID=R070593
##IDEAL CHEMISTRY=Mn^3+^O(OH)
##LOCALITY=Ilfeld, near Nordhausen, Harz Mountains, Thuringia, Germany
##OWNER=RRUFF
##SOURCE=James Shigley
##DESCRIPTION=Bundled aggregates of steel-gray metallic prisms
##STATUS=The identification of this mineral has been confirmed by X-ray diffraction and chemical analysis
##URL=rruff.info/R070593
##MEASURED CHEMISTRY=Mn^3+^_1.00_O(OH) ; OH estimated by difference and stoichiometry
127.6743, 382.0320
128.1564, 417.6993
128.6386, 468.9524
129.1207, 506.0973
129.6028, 531.5383
130.0849, 565.2800
130.5670, 630.9028
131.0491, 718.9329
131.5313, 778.5354
132.0134, 798.9041
132.4955, 796.5380
132.9776, 806.2104
133.4597, 828.6462
133.9418, 856.5875
134.4240, 883.3976
134.9061, 908.7231
135.3882, 942.6095
135.8703, 993.7380
136.3524, 1057.326
136.8345, 1098.216
137.3167, 1115.728
137.7988, 1112.666
138.2809, 1077.159
138.7630, 985.2158
139.2451, 939.8619
139.7272, 989.2969
140.2094, 1160.675
140.6915, 1291.590
141.1736, 1373.943
141.6557, 1422.197
142.1378, 1465.690
142.6199, 1490.975
143.1021, 1528.041
143.5842, 1586.434
144.0663, 1689.909
144.5484, 1798.390
145.0305, 1921.667
145.5126, 2053.382
145.9948, 2147.973
146.4769, 2202.883
146.9590, 2224.522
147.4411, 2217.308
147.9232, 2182.577
148.4053, 2119.116
148.8875, 2018.589
149.3696, 1871.301
149.8517, 1738.866
150.3338, 1611.537
150.8159, 1500.674
151.2980, 1421.360
151.7802, 1432.464
152.2623, 1422.506
152.7444, 1348.883
153.2265, 1153.725
153.7086, 1016.842
154.1907, 995.4536
154.6729, 1046.962
155.1550, 1076.774
155.6371, 1060.389
156.1192, 1023.098
156.6013, 977.4984
157.0834, 908.7526
157.5656, 850.9794
158.0477, 814.2305
158.5298, 796.4847
159.0119, 784.8245
159.4940, 771.3441
159.9761, 763.8348
160.4583, 768.9736
160.9404, 816.2751
161.4225, 853.2201
161.9046, 852.1633
162.3867, 810.3262
162.8688, 764.9551
163.3510, 725.4462
163.8331, 694.2223
164.3152, 674.6997
164.7973, 673.1276
165.2794, 680.6865
165.7615, 694.2740
166.2437, 716.8149
166.7258, 734.3974
167.2079, 737.5087
167.6900, 728.7699
168.1721, 714.6823
168.6542, 690.4415
169.1363, 666.2096
169.6185, 652.3577
170.1006, 653.2723
170.5827, 662.0689
171.0648, 682.4373
171.5469, 710.7122
172.0290, 723.8879
172.5112, 684.7067
172.9933, 623.9434
173.4754, 589.2315
173.9575, 616.0571
174.4396, 665.0706
174.9217, 693.9928
175.4039, 702.8163
175.8860, 669.3216
176.3681, 704.1833
176.8502, 723.5635
177.3323, 728.2939
177.8144, 674.4974
178.2966, 696.2762
178.7787, 687.7679
179.2608, 678.0177
179.7429, 710.4336
180.2250, 665.1497
180.7071, 696.8969
181.1893, 697.8945
181.6714, 712.9656
182.1535, 697.5623
182.6356, 691.5715
183.1177, 716.0649
183.5998, 723.6790
184.0820, 704.7675
184.5641, 720.7331
185.0462, 674.3846
185.5283, 682.7176
186.0104, 714.6432
186.4925, 697.2640
186.9747, 713.7867
187.4568, 717.3978
187.9389, 662.3304
188.4210, 709.3107
188.9031, 712.1588
189.3852, 669.6926
189.8673, 713.1763
190.3495, 676.9572
190.8316, 699.2083
191.3137, 720.0735
191.7958, 727.0541
192.2779, 718.6456
192.7600, 701.5311
193.2422, 680.4747
193.7243, 655.4135
194.2064, 635.1017
194.6885, 627.2807
195.1706, 631.2199
195.6527, 620.5788
196.1349, 587.9169
196.6170, 553.2901
197.0991, 561.1638
197.5812, 618.2715
198.0633, 668.1125
198.5454, 668.9028
199.0276, 615.7599
199.5097, 598.3965
199.9918, 632.5594
200.4739, 698.1694
200.9560, 741.8700
201.4381, 759.9246
201.9203, 768.7607
202.4024, 781.9590
202.8845, 802.6366
203.3666, 804.4255
203.8487, 776.7982
204.3308, 727.7457
204.8130, 697.8781
205.2951, 690.0283
205.7772, 694.6346
206.2593, 707.2492
206.7414, 731.9312
207.2235, 746.8997
207.7057, 743.9421
208.1878, 724.1431
208.6699, 713.8658
209.1520, 711.5378
209.6341, 721.1121
210.1162, 753.2953
210.5983, 820.6301
211.0805, 872.5289
211.5626, 890.8814
212.0447, 871.1946
212.5268, 857.5024
213.0089, 850.1891
213.4910, 848.2960
213.9732, 850.3654
214.4553, 856.2535
214.9374, 866.2529
215.4195, 880.1151
215.9016, 896.8685
216.3837, 920.7816
216.8659, 953.5043
217.3480, 992.6388
217.8301, 1035.196
218.3122, 1088.676
218.7943, 1132.509
219.2764, 1160.229
219.7586, 1177.911
220.2407, 1160.926
220.7228, 1094.359
221.2049, 993.6523
221.6870, 913.6392
222.1691, 857.7200
222.6513, 817.3053
223.1334, 790.7254
223.6155, 787.5199
224.0976, 774.8994
224.5797, 743.6089
225.0618, 698.0472
225.5440, 671.4014
226.0261, 674.0098
226.5082, 683.3369
226.9903, 679.3586
227.4724, 643.0914
227.9545, 633.1373
228.4367, 670.4402
228.9188, 754.7620
229.4009, 801.9524
229.8830, 796.6484
230.3651, 769.3286
230.8472, 748.4490
231.3293, 735.5854
231.8115, 725.9541
232.2936, 715.9774
232.7757, 703.8350
233.2578, 711.8895
233.7399, 757.2802
234.2220, 809.6843
234.7042, 829.9219
235.1863, 793.9256
235.6684, 767.2676
236.1505, 774.1338
236.6326, 828.9728
237.1147, 849.0814
237.5969, 808.9384
238.0790, 749.0934
238.5611, 735.2659
239.0432, 792.5594
239.5253, 856.9750
240.0074, 908.0085
240.4896, 941.2866
240.9717, 974.2415
241.4538, 1009.184
241.9359, 1042.782
242.4180, 1068.689
242.9001, 1085.182
243.3823, 1096.432
243.8644, 1102.076
244.3465, 1092.873
244.8286, 1099.419
245.3107, 1129.103
245.7928, 1173.365
246.2750, 1207.542
246.7571, 1230.680
247.2392, 1245.629
247.7213, 1250.305
248.2034, 1229.524
248.6855, 1233.391
249.1677, 1273.018
249.6498, 1339.375
250.1319, 1394.481
250.6140, 1438.053
251.0961, 1471.600
251.5782, 1494.344
252.0603, 1498.325
252.5425, 1509.182
253.0246, 1527.333
253.5067, 1553.535
253.9888, 1595.861
254.4709, 1664.118
254.9530, 1734.248
255.4352, 1789.918
255.9173, 1826.474
256.3994, 1860.495
256.8815, 1898.625
257.3636, 1938.473
257.8458, 1952.540
258.3279, 1932.148
258.8100, 1898.370
259.2921, 1867.685
259.7742, 1840.475
260.2563, 1815.385
260.7385, 1796.194
261.2206, 1781.639
261.7027, 1746.800
262.1848, 1685.721
262.6669, 1613.473
263.1490, 1539.896
263.6311, 1460.444
264.1133, 1395.015
264.5954, 1350.764
265.0775, 1327.338
265.5596, 1304.361
266.0417, 1282.114
266.5238, 1260.185
267.0060, 1237.286
267.4881, 1211.507
267.9702, 1190.297
268.4523, 1175.113
268.9344, 1165.829
269.4165, 1166.650
269.8987, 1185.564
270.3808, 1201.331
270.8629, 1181.062
271.3450, 1112.880
271.8271, 1059.696
272.3092, 1046.825
272.7914, 1074.375
273.2735, 1082.030
273.7556, 1063.198
274.2377, 1036.280
274.7198, 1026.293
275.2019, 1035.354
275.6841, 1048.328
276.1662, 1059.208
276.6483, 1068.069
277.1304, 1090.803
277.6125, 1135.038
278.0946, 1177.578
278.5768, 1177.527
279.0589, 1129.633
279.5410, 1089.836
280.0231, 1085.264
280.5052, 1113.603
280.9873, 1125.016
281.4695, 1114.093
281.9516, 1098.345
282.4337, 1104.355
282.9158, 1132.808
283.3979, 1166.354
283.8800, 1205.229
284.3622, 1247.316
284.8443, 1262.692
285.3264, 1246.426
285.8085, 1217.789
286.2906, 1211.858
286.7727, 1227.694
287.2549, 1225.057
287.7370, 1167.322
288.2191, 1068.682
288.7012, 1013.053
289.1833, 1011.374
289.6654, 1025.638
290.1476, 991.6736
290.6297, 916.0473
291.1118, 862.1317
291.5939, 884.9235
292.0760, 956.9278
292.5581, 982.4216
293.0403, 949.4722
293.5224, 898.8168
294.0045, 883.8568
294.4866, 899.5392
294.9687, 915.8746
295.4508, 918.3209
295.9330, 910.2733
296.4151, 897.0516
296.8972, 877.5800
297.3793, 859.5235
297.8614, 853.5342
298.3435, 857.3815
298.8257, 862.8419
299.3078, 870.5619
299.7899, 875.8720
300.2720, 867.7575
300.7541, 842.6534
301.2362, 817.0381
301.7184, 805.3066
302.2005, 806.2177
302.6826, 815.5873
303.1647, 843.0947
303.6468, 873.1719
304.1289, 884.8195
304.6110, 874.4346
305.0931, 855.1925
305.5753, 830.9512
306.0574, 805.8354
306.5395, 789.7084
307.0216, 792.2591
307.5037, 803.0392
307.9858, 811.9852
308.4680, 817.6033
308.9501, 824.5278
309.4322, 842.4969
309.9143, 864.0302
310.3964, 874.2186
310.8785, 856.7719
311.3607, 831.9270
311.8428, 813.4101
312.3249, 802.7964
312.8070, 797.7013
313.2891, 800.2449
313.7712, 807.0084
314.2534, 812.3551
314.7355, 811.6364
315.2176, 810.6063
315.6997, 813.8502
316.1818, 806.9807
316.6639, 828.6469
317.1461, 841.5737
317.6282, 846.2441
318.1103, 817.1789
318.5924, 832.2500
319.0745, 829.9841
319.5566, 827.2476
320.0388, 849.2473
320.5209, 826.3777
321.0030, 848.4895
321.4851, 852.9962
321.9672, 865.9252
322.4493, 861.4089
322.9315, 862.6095
323.4136, 881.7617
323.8957, 891.3624
324.3778, 885.8110
324.8599, 900.7623
325.3420, 879.7795
325.8242, 890.8007
326.3063, 915.7715
326.7884, 912.3619
327.2705, 928.8895
327.7526, 938.1696
328.2347, 913.6267
328.7169, 948.5930
329.1990, 958.1818
329.6811, 941.7073
330.1632, 975.3936
330.6453, 963.0476
331.1274, 967.4725
331.6096, 984.5814
332.0917, 988.9794
332.5738, 1014.061
333.0559, 1019.708
333.5380, 1027.328
334.0201, 1049.265
334.5023, 1063.706
334.9844, 1063.761
335.4665, 1050.311
335.9486, 1052.317
336.4307, 1074.896
336.9128, 1104.723
337.3950, 1129.862
337.8771, 1148.855
338.3592, 1168.146
338.8413, 1186.840
339.3234, 1206.421
339.8055, 1238.789
340.2877, 1286.722
340.7698, 1337.450
341.2519, 1379.418
341.7340, 1412.750
342.2161, 1442.021
342.6982, 1464.423
343.1804, 1485.290
343.6624, 1525.911
344.1446, 1588.139
344.6267, 1648.720
345.1088, 1680.328
345.5909, 1689.649
346.0730, 1723.774
346.5551, 1800.297
347.0373, 1894.586
347.5194, 1962.350
348.0015, 2004.722
348.4836, 2044.939
348.9657, 2103.206
349.4478, 2172.099
349.9300, 2234.050
350.4121, 2284.612
350.8942, 2328.646
351.3763, 2361.895
351.8584, 2389.260
352.3405, 2432.109
352.8227, 2506.227
353.3048, 2603.253
353.7869, 2716.348
354.2690, 2848.973
354.7511, 2981.129
355.2332, 3097.374
355.7154, 3200.675
356.1975, 3295.370
356.6796, 3399.493
357.1617, 3486.917
357.6438, 3539.718
358.1259, 3558.221
358.6081, 3531.680
359.0902, 3433.910
359.5723, 3290.050
360.0544, 3142.252
360.5365, 2997.690
361.0186, 2860.093
361.5008, 2733.215
361.9829, 2618.870
362.4650, 2505.132
362.9471, 2382.305
363.4292, 2259.102
363.9113, 2146.236
364.3935, 2046.629
364.8756, 1957.056
365.3577, 1874.208
365.8398, 1797.168
366.3219, 1738.106
366.8040, 1707.183
367.2862, 1691.172
367.7683, 1677.853
368.2504, 1656.115
368.7325, 1649.600
369.2146, 1666.343
369.6967, 1706.645
370.1789, 1741.401
370.6610, 1762.343
371.1431, 1784.726
371.6252, 1819.397
372.1073, 1866.211
372.5894, 1927.379
373.0716, 2012.377
373.5537, 2114.496
374.0358, 2185.696
374.5179, 2213.292
375.0000, 2237.045
375.4821, 2282.940
375.9643, 2353.845
376.4464, 2433.204
376.9285, 2523.095
377.4106, 2618.506
377.8927, 2703.891
378.3748, 2779.467
378.8570, 2851.009
379.3391, 2912.386
379.8212, 2967.336
380.3033, 3059.689
380.7854, 3195.086
381.2675, 3362.025
381.7497, 3540.487
382.2318, 3733.408
382.7139, 3944.036
383.1960, 4175.388
383.6781, 4428.123
384.1602, 4699.245
384.6423, 4992.004
385.1245, 5297.639
385.6066, 5653.869
386.0887, 6024.354
386.5708, 6301.035
387.0529, 6446.018
387.5350, 6472.858
388.0172, 6383.811
388.4993, 6178.630
388.9814, 5890.041
389.4635, 5494.049
389.9456, 5035.890
390.4277, 4579.717
390.9099, 4111.679
391.3920, 3677.754
391.8741, 3311.744
392.3562, 3010.499
392.8383, 2738.702
393.3204, 2476.521
393.8026, 2239.571
394.2847, 2045.601
394.7668, 1928.785
395.2489, 1819.232
395.7310, 1694.131
396.2131, 1561.759
396.6953, 1457.522
397.1774, 1404.300
397.6595, 1366.671
398.1416, 1328.218
398.6237, 1284.922
399.1058, 1246.959
399.5880, 1219.812
400.0701, 1197.057
400.5522, 1162.453
401.0343, 1097.386
401.5164, 1047.424
401.9985, 1035.541
402.4807, 1076.944
402.9628, 1085.641
403.4449, 1046.729
403.9270, 991.6471
404.4091, 970.2637
404.8912, 993.1116
405.3734, 1004.632
405.8555, 980.5336
406.3376, 925.6725
406.8197, 895.7373
407.3018, 893.3755
407.7839, 904.4913
408.2661, 926.5409
408.7482, 956.4417
409.2303, 955.7970
409.7124, 897.8592
410.1945, 816.3581
410.6766, 788.4841
411.1588, 812.0769
411.6409, 850.0103
412.1230, 888.0547
412.6051, 918.7392
413.0872, 924.5140
413.5693, 892.9113
414.0515, 852.7646
414.5336, 831.6549
415.0157, 825.8956
415.4978, 823.1265
415.9799, 811.9296
416.4620, 803.2949
416.9442, 811.4002
417.4263, 844.5411
417.9084, 868.6812
418.3905, 858.0653
418.8726, 827.7162
419.3547, 800.7397
419.8369, 771.2946
420.3190, 758.4225
420.8011, 785.3469
421.2832, 861.6910
421.7653, 896.8544
422.2474, 822.1729
422.7296, 723.7443
423.2117, 677.5004
423.6938, 755.0546
424.1759, 812.1457
424.6580, 828.4519
425.1401, 807.0695
425.6223, 779.5815
426.1043, 730.1339
426.5865, 692.1671
427.0686, 688.4488
427.5507, 734.4244
428.0328, 772.6553
428.5149, 801.0893
428.9970, 818.6223
429.4792, 818.9471
429.9613, 797.3464
430.4434, 776.6064
430.9255, 770.7312
431.4076, 779.1810
431.8897, 773.2242
432.3719, 746.9763
432.8540, 723.3806
433.3361, 745.8563
433.8182, 807.5357
434.3003, 850.9078
434.7824, 845.1797
435.2646, 809.6428
435.7467, 776.3121
436.2288, 745.2476
436.7109, 728.5440
437.1930, 748.2877
437.6751, 787.2814
438.1573, 816.0341
438.6394, 824.3188
439.1215, 822.4913
439.6036, 813.2939
440.0857, 799.3052
440.5678, 790.6140
441.0500, 804.4349
441.5321, 818.0394
442.0142, 810.5327
442.4963, 763.1364
442.9784, 730.9870
443.4605, 741.0164
443.9427, 775.9830
444.4248, 806.0832
444.9069, 832.9554
445.3890, 847.1458
445.8711, 842.3370
446.3532, 813.3416
446.8354, 789.3232
447.3175, 764.2603
447.7996, 748.3689
448.2817, 753.3149
448.7638, 795.8879
449.2459, 826.1411
449.7281, 832.1714
450.2102, 818.9499
450.6923, 819.4263
451.1744, 839.7540
451.6565, 856.9157
452.1386, 851.0713
452.6208, 821.0716
453.1029, 800.1740
453.5850, 791.6338
454.0671, 793.3749
454.5492, 806.0150
455.0313, 828.6548
455.5135, 847.9087
455.9956, 855.9582
456.4777, 855.9728
456.9598, 854.8042
457.4419, 852.6381
457.9240, 849.4629
458.4062, 839.1461
458.8883, 828.4338
459.3704, 830.0923
459.8525, 865.7043
460.3346, 901.3406
460.8167, 910.6003
461.2989, 896.1317
461.7810, 874.6238
462.2631, 835.9365
462.7452, 804.0085
463.2273, 799.0895
463.7094, 847.9602
464.1916, 885.4863
464.6737, 891.6502
465.1558, 875.5804
465.6379, 857.1254
466.1200, 826.6894
466.6021, 805.7319
467.0842, 801.7762
467.5663, 818.2159
468.0485, 836.3358
468.5306, 856.1118
469.0127, 877.5487
469.4948, 903.5312
469.9769, 941.1777
470.4590, 960.6566
470.9412, 948.7411
471.4233, 914.7621
471.9054, 906.6063
472.3875, 928.8520
472.8696, 952.6485
473.3517, 949.7410
473.8339, 926.1317
474.3160, 928.4799
474.7981, 968.2574
475.2802, 1017.523
475.7623, 1035.694
476.2444, 1028.754
476.7266, 1020.489
477.2087, 1018.959
477.6908, 1024.582
478.1729, 1042.181
478.6550, 1072.127
479.1371, 1097.279
479.6193, 1101.771
480.1014, 1096.408
480.5835, 1093.727
481.0656, 1102.272
481.5477, 1109.474
482.0298, 1105.334
482.5120, 1094.194
482.9941, 1094.139
483.4762, 1128.144
483.9583, 1159.777
484.4404, 1169.366
484.9225, 1135.214
485.4047, 1120.723
485.8868, 1133.260
486.3689, 1162.050
486.8510, 1194.958
487.3331, 1243.364
487.8152, 1271.850
488.2974, 1261.117
488.7795, 1215.506
489.2616, 1213.774
489.7437, 1266.139
490.2258, 1329.368
490.7079, 1369.223
491.1901, 1386.564
491.6722, 1387.929
492.1543, 1366.498
492.6364, 1343.601
493.1185, 1364.901
493.6006, 1422.911
494.0828, 1471.947
494.5649, 1477.792
495.0470, 1463.269
495.5291, 1460.964
496.0112, 1473.690
496.4933, 1489.240
496.9755, 1502.031
497.4576, 1511.377
497.9397, 1516.830
498.4218, 1515.521
498.9039, 1512.829
499.3860, 1505.630
499.8682, 1496.880
500.3503, 1501.534
500.8324, 1532.518
501.3145, 1570.771
501.7966, 1606.552
502.2787, 1630.627
502.7609, 1669.687
503.2430, 1736.187
503.7251, 1811.798
504.2072, 1868.164
504.6893, 1895.649
505.1714, 1925.390
505.6536, 1963.606
506.1357, 2010.449
506.6178, 2068.429
507.0999, 2138.341
507.5820, 2215.589
508.0641, 2303.262
508.5462, 2398.567
509.0284, 2477.574
509.5105, 2529.385
509.9926, 2578.416
510.4747, 2664.371
510.9568, 2779.470
511.4389, 2893.530
511.9211, 2982.712
512.4032, 3067.427
512.8853, 3168.855
513.3674, 3288.610
513.8495, 3416.500
514.3317, 3550.646
514.8138, 3688.059
515.2959, 3825.756
515.7780, 3962.413
516.2601, 4099.814
516.7422, 4240.793
517.2244, 4382.717
517.7065, 4520.771
518.1886, 4630.741
518.6707, 4759.086
519.1528, 4929.225
519.6349, 5158.140
520.1171, 5355.359
520.5992, 5508.671
521.0813, 5644.159
521.5634, 5790.979
522.0455, 5946.944
522.5276, 6119.994
523.0098, 6316.204
523.4919, 6529.048
523.9740, 6741.565
524.4561, 6955.995
524.9382, 7146.803
525.4203, 7278.976
525.9025, 7377.255
526.3846, 7512.199
526.8667, 7698.535
527.3488, 7883.090
527.8309, 8028.357
528.3130, 8136.354
528.7951, 8212.029
529.2772, 8238.806
529.7593, 8250.827
530.2415, 8270.606
530.7236, 8295.629
531.2057, 8305.395
531.6878, 8307.746
532.1699, 8282.021
532.6520, 8213.436
533.1342, 8068.948
533.6163, 7937.519
534.0984, 7839.811
534.5805, 7748.108
535.0626, 7612.532
535.5447, 7403.141
536.0269, 7216.752
536.5090, 7085.584
536.9911, 7003.539
537.4732, 6900.485
537.9553, 6769.275
538.4374, 6652.371
538.9196, 6583.812
539.4017, 6559.368
539.8838, 6550.040
540.3659, 6551.794
540.8480, 6568.922
541.3301, 6601.373
541.8123, 6652.637
542.2944, 6733.600
542.7765, 6868.415
543.2586, 7021.417
543.7407, 7158.192
544.2228, 7279.975
544.7050, 7415.830
545.1871, 7589.117
545.6692, 7776.049
546.1513, 7958.154
546.6334, 8119.042
547.1155, 8295.086
547.5977, 8491.925
548.0798, 8709.475
548.5619, 8946.125
549.0440, 9225.167
549.5261, 9489.063
550.0082, 9716.500
550.4904, 9909.064
550.9725, 10122.70
551.4546, 10359.39
551.9367, 10612.45
552.4188, 10880.50
552.9009, 11162.94
553.3831, 11437.74
553.8652, 11707.18
554.3473, 11956.88
554.8294, 12163.54
555.3115, 12330.85
555.7936, 12468.09
556.2758, 12583.98
556.7579, 12668.06
557.2400, 12712.35
557.7221, 12716.38
558.2042, 12674.68
558.6863, 12598.27
559.1685, 12467.07
559.6506, 12262.08
560.1327, 11960.50
560.6148, 11621.41
561.0969, 11232.53
561.5790, 10815.30
562.0612, 10406.86
562.5433, 10028.48
563.0254, 9633.761
563.5075, 9194.940
563.9896, 8725.243
564.4717, 8318.551
564.9539, 7994.674
565.4360, 7675.233
565.9181, 7276.823
566.4002, 6811.307
566.8823, 6419.086
567.3644, 6121.515
567.8466, 5870.917
568.3287, 5604.568
568.8108, 5331.522
569.2929, 5074.322
569.7750, 4841.649
570.2571, 4632.638
570.7393, 4462.419
571.2214, 4322.813
571.7035, 4177.052
572.1856, 3979.002
572.6677, 3784.218
573.1498, 3632.282
573.6320, 3553.075
574.1141, 3461.639
574.5962, 3323.910
575.0783, 3173.753
575.5604, 3055.336
576.0425, 2980.338
576.5247, 2913.446
577.0068, 2851.100
577.4889, 2791.826
577.9710, 2733.878
578.4531, 2680.103
578.9352, 2615.916
579.4174, 2516.508
579.8995, 2393.766
580.3816, 2324.443
580.8637, 2317.553
581.3458, 2322.522
581.8279, 2286.487
582.3101, 2222.482
582.7922, 2156.873
583.2743, 2094.606
583.7564, 2039.210
584.2385, 1993.659
584.7206, 1957.010
585.2028, 1925.651
585.6849, 1902.998
586.1670, 1881.202
586.6491, 1858.386
587.1312, 1835.929
587.6133, 1802.800
588.0955, 1742.514
588.5776, 1684.841
589.0597, 1655.533
589.5418, 1668.139
590.0239, 1668.995
590.5060, 1647.448
590.9882, 1617.620
591.4703, 1615.756
591.9524, 1642.657
592.4345, 1659.135
592.9166, 1642.621
593.3987, 1605.373
593.8809, 1573.295
594.3630, 1546.362
594.8451, 1526.226
595.3272, 1499.262
595.8093, 1525.970
596.2914, 1543.686
596.7736, 1552.899
597.2557, 1528.123
597.7378, 1547.233
598.2199, 1548.756
598.7020, 1549.558
599.1841, 1574.844
599.6663, 1555.014
600.1484, 1579.912
600.6305, 1586.955
601.1126, 1602.170
601.5947, 1599.690
602.0768, 1602.674
602.5590, 1623.362
603.0411, 1634.246
603.5232, 1629.728
604.0053, 1645.463
604.4874, 1625.013
604.9695, 1636.314
605.4517, 1661.318
605.9338, 1657.689
606.4159, 1643.066
606.8980, 1624.617
607.3801, 1610.881
607.8622, 1605.288
608.3444, 1617.719
608.8265, 1671.598
609.3086, 1729.381
609.7907, 1766.280
610.2728, 1779.119
610.7549, 1802.761
611.2370, 1866.356
611.7191, 1927.048
612.2012, 1957.029
612.6833, 1932.199
613.1655, 1926.388
613.6476, 1948.963
614.1297, 1982.492
614.6118, 1991.379
615.0939, 1971.364
615.5760, 1976.753
616.0582, 2037.266
616.5403, 2123.730
617.0224, 2163.186
617.5045, 2159.532
617.9866, 2153.000
618.4688, 2170.806
618.9509, 2199.824
619.4330, 2229.110
619.9151, 2258.628
620.3972, 2275.725
620.8793, 2264.370
621.3615, 2241.773
621.8436, 2224.409
622.3257, 2223.905
622.8078, 2219.141
623.2899, 2205.890
623.7720, 2187.373
624.2542, 2171.689
624.7363, 2165.882
625.2184, 2147.007
625.7005, 2102.649
626.1826, 2037.234
626.6647, 1990.113
627.1469, 1962.649
627.6290, 1938.192
628.1111, 1906.181
628.5932, 1867.098
629.0753, 1820.044
629.5574, 1762.502
630.0396, 1709.385
630.5217, 1677.625
631.0038, 1656.750
631.4859, 1631.845
631.9680, 1600.407
632.4501, 1561.151
632.9323, 1500.888
633.4144, 1430.468
633.8965, 1387.545
634.3786, 1407.991
634.8607, 1418.923
635.3428, 1393.340
635.8250, 1329.567
636.3071, 1297.884
636.7892, 1309.698
637.2713, 1323.860
637.7534, 1302.978
638.2355, 1251.807
638.7177, 1211.278
639.1998, 1184.923
639.6819, 1171.836
640.1640, 1178.401
640.6461, 1196.907
641.1282, 1210.491
641.6104, 1224.347
642.0925, 1219.350
642.5746, 1162.561
643.0567, 1073.457
643.5388, 1013.955
644.0209, 1034.560
644.5031, 1060.436
644.9852, 1057.038
645.4673, 1019.560
645.9494, 1001.060
646.4315, 1007.560
646.9136, 1023.532
647.3958, 1043.021
647.8779, 1067.892
648.3600, 1069.210
648.8421, 1039.198
649.3242, 1001.094
649.8063, 989.6631
650.2885, 997.9391
650.7706, 1000.621
651.2527, 984.1691
651.7348, 964.3074
652.2169, 959.4323
652.6990, 964.5240
653.1812, 963.6198
653.6633, 939.4738
654.1454, 916.7551
654.6275, 909.2216
655.1096, 920.0803
655.5917, 925.8125
656.0739, 921.1868
656.5560, 915.4151
657.0381, 915.3308
657.5202, 923.8214
658.0023, 924.1856
658.4844, 912.7412
658.9666, 899.8932
659.4487, 906.4777
659.9308, 927.7948
660.4129, 931.9592
660.8950, 902.5660
661.3771, 862.1985
661.8593, 831.2641
662.3414, 811.2534
662.8235, 806.6231
663.3056, 832.9196
663.7877, 863.8121
664.2698, 887.4384
664.7520, 903.1309
665.2341, 908.5528
665.7162, 893.8757
666.1983, 876.8619
666.6804, 864.8325
667.1625, 856.2068
667.6447, 861.4059
668.1268, 889.4995
668.6089, 914.4846
669.0910, 894.8943
669.5731, 836.1522
670.0552, 800.2952
670.5374, 805.5098
671.0195, 829.1569
671.5016, 847.4913
671.9837, 860.1191
672.4658, 865.7523
672.9479, 849.4480
673.4301, 838.5728
673.9122, 860.4514
674.3943, 909.6572
674.8764, 935.4652
675.3585, 900.5081
675.8406, 862.6945
676.3228, 848.1378
676.8049, 861.2859
677.2870, 874.5759
677.7691, 890.6232
678.2512, 901.8346
678.7333, 900.1114
679.2155, 885.9054
679.6976, 864.9478
680.1797, 833.9415
680.6618, 808.5382
681.1439, 817.3843
681.6260, 846.0760
682.1082, 862.1390
682.5903, 844.6691
683.0724, 818.2199
683.5545, 789.2019
684.0366, 761.8181
684.5187, 749.7587
685.0009, 775.8590
685.4830, 798.1181
685.9651, 799.7657
686.4472, 780.1801
686.9293, 773.1161
687.4114, 783.0563
687.8936, 795.2157
688.3757, 799.4066
688.8578, 796.2145
689.3399, 791.3377
689.8220, 784.3569
690.3041, 779.8812
690.7863, 784.9608
691.2684, 795.5644
691.7505, 804.1321
692.2326, 807.1660
692.7147, 810.5495
693.1968, 818.3222
693.6789, 828.5807
694.1610, 838.1364
694.6431, 856.6857
695.1252, 861.5608
695.6074, 838.8839
696.0895, 798.0477
696.5716, 783.5607
697.0537, 802.1761
697.5358, 826.0965
698.0179, 846.2188
698.5001, 861.4154
698.9822, 862.2408
699.4643, 848.4188
699.9464, 833.9299
700.4285, 828.4174
700.9106, 829.5095
701.3928, 836.7743
701.8749, 852.7593
702.3570, 861.1807
702.8391, 846.9771
703.3212, 824.3808
703.8033, 807.6949
704.2855, 810.1792
704.7676, 803.3459
705.2497, 779.1332
705.7318, 749.2469
706.2139, 733.8813
706.6960, 733.4975
707.1782, 746.0319
707.6603, 774.3271
708.1424, 811.9914
708.6245, 854.0151
709.1066, 896.6293
709.5887, 915.9414
710.0709, 870.1010
710.5530, 812.4944
711.0351, 801.3010
711.5172, 835.7931
711.9993, 863.9615
712.4814, 866.7243
712.9636, 856.3604
713.4457, 835.5925
713.9278, 793.8196
714.4099, 780.6993
714.8920, 811.6979
715.3741, 849.4623
715.8563, 854.7931
716.3384, 826.8627
716.8205, 817.3584
717.3026, 837.5205
717.7847, 863.1403
718.2668, 862.2355
718.7490, 841.2229
719.2311, 814.5978
719.7132, 774.2739
720.1953, 745.5645
720.6774, 750.0887
721.1595, 778.1343
721.6417, 805.0688
722.1238, 832.7515
722.6059, 849.0982
723.0880, 845.8148
723.5701, 826.4554
724.0522, 824.4453
724.5344, 846.4006
725.0165, 864.3729
725.4986, 855.7925
725.9807, 827.9130
726.4628, 827.0960
726.9449, 854.0568
727.4271, 879.0923
727.9092, 875.0795
728.3913, 857.0102
728.8734, 843.0415
729.3555, 837.0665
729.8376, 831.2013
730.3198, 818.5227
730.8019, 806.3954
731.2840, 803.2194
731.7661, 818.8962
732.2482, 825.0425
732.7303, 814.6737
733.2125, 799.9843
733.6946, 804.5781
734.1767, 829.1812
734.6588, 846.7055
735.1409, 849.5125
735.6230, 842.1337
736.1052, 824.6977
736.5873, 801.9677
737.0694, 789.2981
737.5515, 800.6702
738.0336, 818.9132
738.5157, 838.1778
738.9979, 857.0464
739.4800, 866.6152
739.9621, 858.2939
740.4442, 847.1628
740.9263, 835.6735
741.4084, 823.1990
741.8906, 829.7819
742.3727, 861.4973
742.8548, 887.0615
743.3369, 870.2964
743.8190, 826.5225
744.3011, 813.8083
744.7833, 839.1406
745.2654, 867.6279
745.7475, 870.3095
746.2296, 859.6816
746.7117, 848.8454
747.1938, 837.2488
747.6760, 832.5131
748.1581, 841.1241
748.6402, 855.6710
749.1223, 868.5981
749.6044, 884.0604
750.0865, 884.6948
750.5687, 862.8157
751.0508, 831.5849
751.5329, 818.0648
752.0150, 820.8274
752.4971, 826.7814
752.9792, 834.0266
753.4614, 838.6282
753.9435, 831.5805
754.4256, 817.2404
754.9077, 809.6677
755.3898, 816.0046
755.8719, 829.2536
756.3541, 855.7813
756.8362, 893.8714
757.3183, 898.2432
757.8004, 847.6926
758.2825, 801.5891
758.7646, 791.1127
759.2468, 814.0710
759.7289, 828.4407
760.2110, 834.1965
760.6931, 833.7674
761.1752, 822.5801
761.6573, 809.0305
762.1395, 806.7974
762.6216, 818.2349
763.1037, 834.7248
763.5858, 864.1299
764.0679, 889.5624
764.5500, 895.4345
765.0322, 863.1959
765.5143, 839.4988
765.9964, 826.4510
766.4785, 819.9478
766.9606, 816.9832
767.4427, 817.9000
767.9249, 813.5419
768.4070, 801.0204
768.8891, 786.0088
769.3712, 774.2396
769.8533, 766.2942
770.3354, 763.5027
770.8176, 764.4971
771.2997, 772.8745
771.7818, 801.5568
772.2639, 839.3054
772.7460, 855.7084
773.2281, 825.5295
773.7103, 803.2175
774.1924, 803.8956
774.6745, 820.5457
775.1566, 821.7742
775.6387, 806.0355
776.1208, 790.6414
776.6029, 783.6542
777.0850, 783.3540
777.5671, 788.0067
778.0493, 797.1215
778.5314, 807.3264
779.0135, 823.8494
779.4956, 835.0715
779.9777, 831.7079
780.4598, 812.0385
780.9420, 790.4000
781.4241, 757.7529
781.9062, 735.6580
782.3883, 739.8450
782.8704, 774.4761
783.3525, 793.2058
783.8347, 794.6239
784.3168, 789.0787
784.7989, 781.6879
785.2810, 775.3770
785.7631, 780.3293
786.2452, 801.3840
786.7274, 812.0961
787.2095, 782.5972
787.6916, 741.3229
788.1737, 715.6755
788.6558, 724.4208
789.1379, 726.9897
789.6201, 715.2571
790.1022, 703.8455
790.5843, 717.1227
791.0664, 758.4353
791.5485, 776.3433
792.0306, 755.8699
792.5128, 725.4254
792.9949, 724.9691
793.4770, 745.3060
793.9591, 765.3413
794.4412, 779.3643
794.9233, 788.2667
795.4055, 789.9658
795.8876, 787.1088
796.3697, 785.7453
796.8518, 792.3210
797.3339, 791.3658
797.8160, 778.7385
798.2982, 757.4477
798.7803, 731.0237
799.2624, 699.3624
799.7445, 687.1906
800.2266, 719.8258
800.7087, 766.2576
801.1909, 775.2735
801.6730, 754.7916
802.1551, 735.9388
802.6372, 730.8656
803.1193, 733.8972
803.6014, 744.3808
804.0836, 761.9816
804.5657, 779.8855
805.0478, 805.7749
805.5299, 816.9797
806.0120, 793.6060
806.4941, 743.6823
806.9763, 740.3909
807.4584, 783.0940
807.9405, 818.3444
808.4226, 796.4061
808.9047, 750.3596
809.3868, 720.7505
809.8690, 710.1559
810.3511, 703.3085
810.8332, 696.4124
811.3153, 689.2586
811.7974, 679.9026
812.2795, 665.5253
812.7617, 665.0409
813.2438, 682.7325
813.7259, 704.2156
814.2080, 717.0394
814.6901, 723.0254
815.1722, 734.8815
815.6544, 754.4074
816.1365, 768.1570
816.6186, 760.7880
817.1007, 743.4468
817.5828, 726.9059
818.0649, 711.2010
818.5471, 702.5096
819.0292, 707.9323
819.5113, 716.9573
819.9934, 720.7388
820.4755, 716.9413
820.9576, 719.5320
821.4398, 731.2355
821.9219, 743.7679
822.4040, 747.1456
822.8861, 743.3010
823.3682, 735.1098
823.8503, 719.1197
824.3325, 711.1993
824.8146, 731.3033
825.2967, 761.8910
825.7788, 781.3304
826.2609, 778.3690
826.7430, 772.7988
827.2252, 761.5551
827.7073, 751.4927
828.1894, 759.8038
828.6715, 787.3789
829.1536, 788.5253
829.6357, 744.9286
830.1179, 692.9950
830.6000, 682.2473
831.0821, 698.2636
831.5642, 713.0125
832.0463, 714.2075
832.5284, 714.6367
833.0106, 722.2026
833.4927, 731.1050
833.9748, 729.8441
834.4569, 713.7479
834.9390, 698.2398
835.4211, 685.2062
835.9033, 675.2157
836.3854, 671.3658
836.8675, 672.5947
837.3496, 672.2709
837.8317, 662.6956
838.3138, 657.0480
838.7960, 672.5336
839.2781, 700.6629
839.7602, 722.0300
840.2423, 740.2850
840.7244, 738.2515
841.2065, 700.1882
841.6887, 643.5701
842.1708, 624.0940
842.6529, 646.4063
843.1350, 669.8497
843.6171, 681.6351
844.0992, 684.7922
844.5814, 680.6932
845.0635, 672.0364
845.5456, 667.6149
846.0277, 678.5766
846.5098, 688.0182
846.9919, 684.9088
847.4741, 672.4106
847.9562, 666.2512
848.4383, 671.6243
848.9204, 673.1343
849.4025, 663.5635
849.8846, 648.4191
850.3668, 648.2461
850.8489, 661.5795
851.3310, 674.2305
851.8131, 674.5179
852.2952, 673.8750
852.7773, 688.8633
853.2595, 713.7591
853.7416, 726.4506
854.2237, 712.2018
854.7058, 692.5903
855.1879, 668.3146
855.6700, 643.5449
856.1522, 645.3986
856.6343, 677.5344
857.1164, 707.5278
857.5985, 720.3783
858.0806, 721.4766
858.5627, 718.9372
859.0448, 713.5303
859.5269, 708.5239
860.0090, 708.3359
860.4911, 706.4891
860.9733, 697.4448
861.4554, 682.3774
861.9375, 673.6277
862.4196, 673.9506
862.9017, 674.8130
863.3839, 672.9232
863.8660, 669.2431
864.3481, 668.7546
864.8302, 670.6951
865.3123, 668.9048
865.7944, 647.5869
866.2766, 630.6271
866.7587, 644.5778
867.2408, 684.0738
867.7229, 717.3788
868.2050, 739.2454
868.6871, 749.8408
869.1693, 744.5725
869.6514, 727.5125
870.1335, 725.5897
870.6156, 740.0563
871.0977, 747.4155
871.5798, 730.4967
872.0620, 702.2596
872.5441, 678.1354
873.0262, 658.6359
873.5083, 645.3949
873.9904, 641.2025
874.4725, 641.3920
874.9547, 645.3177
875.4368, 652.2355
875.9189, 658.5865
876.4010, 663.2673
876.8831, 671.6990
877.3652, 688.7708
877.8474, 709.3865
878.3295, 721.6953
878.8116, 726.0235
879.2937, 724.4230
879.7758, 705.0978
880.2579, 692.1283
880.7401, 711.5403
881.2222, 753.9241
881.7043, 766.3217
882.1864, 729.5878
882.6685, 692.4913
883.1506, 663.7771
883.6328, 646.7991
884.1149, 663.5361
884.5970, 708.9668
885.0791, 739.7263
885.5612, 727.7725
886.0433, 696.8566
886.5255, 653.1022
887.0076, 606.0685
887.4897, 586.0595
887.9718, 634.6724
888.4539, 670.1911
888.9360, 671.1035
889.4182, 648.5691
889.9003, 635.5918
890.3824, 632.4323
890.8645, 632.9852
891.3466, 635.8035
891.8287, 640.1923
892.3109, 643.0400
892.7930, 646.7203
893.2751, 657.1223
893.7572, 694.9086
894.2393, 718.5614
894.7214, 704.9065
895.2036, 671.9525
895.6857, 657.0039
896.1678, 664.0887
896.6499, 668.8440
897.1320, 665.2263
897.6141, 656.1865
898.0963, 637.2420
898.5784, 617.0854
899.0605, 618.9815
899.5426, 686.3590
900.0247, 734.3712
900.5068, 708.7278
900.9890, 645.0045
901.4711, 610.5089
901.9532, 615.1314
902.4353, 624.1295
902.9174, 633.3659
903.3995, 644.3206
903.8817, 666.2394
904.3638, 692.7620
904.8459, 699.0695
905.3280, 668.6172
905.8101, 639.8965
906.2922, 646.5635
906.7744, 666.5362
907.2565, 669.4689
907.7386, 634.1297
908.2207, 615.9807
908.7028, 622.8372
909.1849, 638.0988
909.6671, 635.2614
910.1492, 620.5933
910.6313, 632.7407
911.1134, 685.5873
911.5955, 728.5599
912.0776, 701.5088
912.5598, 651.3398
913.0419, 628.2352
913.5240, 655.4706
914.0061, 680.7134
914.4882, 705.1692
914.9703, 722.7137
915.4525, 724.6752
915.9346, 712.4819
916.4167, 708.9724
916.8988, 716.9256
917.3809, 716.7155
917.8630, 676.6747
918.3452, 628.6230
918.8273, 604.7025
919.3094, 611.3323
919.7915, 631.8323
920.2736, 680.4047
920.7557, 720.9935
921.2379, 729.8867
921.7200, 707.4298
922.2021, 696.7657
922.6842, 698.4435
923.1663, 694.7109
923.6484, 661.0303
924.1306, 622.2058
924.6127, 605.3334
925.0948, 611.6425
925.5769, 624.2791
926.0590, 651.0133
926.5411, 669.2310
927.0233, 662.8497
927.5054, 637.8825
927.9875, 659.4807
928.4696, 728.7503
928.9517, 777.9875
929.4338, 748.1531
929.9160, 690.5123
930.3981, 663.7958
930.8802, 663.2873
931.3623, 668.8831
931.8444, 684.4494
932.3265, 692.2504
932.8087, 685.3069
933.2908, 668.1755
933.7729, 654.1537
934.2550, 643.0651
934.7371, 636.1837
935.2192, 632.0298
935.7014, 635.1373
936.1835, 664.9224
936.6656, 705.0081
937.1477, 721.0834
937.6298, 674.8289
938.1119, 636.4753
938.5941, 623.0261
939.0762, 623.4150
939.5583, 618.9813
940.0404, 608.1863
940.5225, 618.9723
941.0046, 662.7648
941.4867, 707.3857
941.9688, 710.0350
942.4509, 689.0143
942.9330, 672.0172
943.4152, 666.9269
943.8973, 663.6707
944.3794, 659.1512
944.8615, 656.0685
945.3436, 658.7411
945.8257, 668.8156
946.3079, 667.1440
946.7900, 651.8696
947.2721, 633.0669
947.7542, 610.8784
948.2363, 595.5591
948.7184, 605.8336
949.2006, 646.7333
949.6827, 679.0706
950.1648, 682.8932
950.6469, 682.0773
951.1290, 689.8827
951.6111, 705.8583
952.0933, 700.8831
952.5754, 673.6038
953.0575, 650.7205
953.5396, 656.2583
954.0217, 671.4120
954.5038, 674.3747
954.9860, 666.3871
955.4681, 657.9396
955.9502, 645.9246
956.4323, 641.9022
956.9144, 650.9572
957.3965, 669.7771
957.8787, 690.4506
958.3608, 712.8178
958.8429, 719.5305
959.3250, 697.0005
959.8071, 665.2367
960.2892, 635.9801
960.7714, 615.3016
961.2535, 616.0413
961.7356, 679.8807
962.2177, 711.2420
962.6998, 681.5935
963.1819, 631.9891
963.6641, 631.7441
964.1462, 676.6315
964.6283, 693.0634
965.1104, 662.6672
965.5925, 624.5342
966.0746, 611.5389
966.5568, 613.5615
967.0389, 618.8283
967.5210, 623.9842
968.0031, 636.9111
968.4852, 664.9056
968.9673, 690.1293
969.4495, 695.5356
969.9316, 683.9417
970.4137, 681.5123
970.8958, 688.9223
971.3779, 694.2972
971.8600, 686.5908
972.3422, 674.8517
972.8243, 665.3869
973.3064, 658.8252
973.7885, 654.7894
974.2706, 653.6479
974.7527, 654.2819
975.2349, 657.4874
975.7170, 661.5798
976.1991, 661.7639
976.6812, 657.9932
977.1633, 649.9962
977.6454, 629.1822
978.1276, 612.7007
978.6097, 610.9988
979.0918, 621.0508
979.5739, 635.3827
980.0560, 657.0038
980.5381, 673.8643
981.0203, 685.4669
981.5024, 688.4479
981.9845, 672.1024
982.4666, 643.2689
982.9487, 617.8412
983.4308, 596.5524
983.9130, 588.6509
984.3951, 604.9940
984.8772, 632.8821
985.3593, 662.7329
985.8414, 701.3859
986.3235, 711.6406
986.8057, 689.0854
987.2878, 659.6778
987.7699, 642.4579
988.2520, 635.6046
988.7341, 638.7471
989.2162, 651.4979
989.6984, 664.7246
990.1805, 682.5614
990.6626, 691.6674
991.1447, 685.0298
991.6268, 664.8183
992.1089, 643.7807
992.5911, 621.9362
993.0732, 607.5107
993.5553, 607.7524
994.0374, 614.1027
994.5195, 614.7992
995.0016, 613.9729
995.4838, 621.5551
995.9659, 656.8196
996.4480, 677.3597
996.9301, 672.2253
997.4122, 656.6825
997.8943, 656.4006
998.3765, 669.3743
998.8586, 682.7881
999.3407, 696.4904
999.8228, 699.1543
1000.305, 671.0479
1000.787, 633.1923
1001.269, 606.0914
1001.751, 594.6893
1002.233, 589.0484
1002.716, 590.5059
1003.198, 594.7021
1003.680, 599.6135
1004.162, 604.6492
1004.644, 605.8404
1005.126, 603.9585
1005.608, 606.9014
1006.090, 635.1475
1006.572, 653.9328
1007.055, 630.9547
1007.537, 580.9242
1008.019, 567.7715
1008.501, 598.6849
1008.983, 623.1851
1009.465, 621.7324
1009.947, 610.6811
1010.429, 618.2994
1010.911, 634.1325
1011.394, 636.8597
1011.876, 598.7137
1012.358, 577.0758
1012.840, 591.9261
1013.322, 618.6386
1013.804, 633.7003
1014.286, 637.3273
1014.768, 626.2803
1015.251, 598.6471
1015.733, 575.7288
1016.215, 585.4430
1016.697, 602.7125
1017.179, 599.2975
1017.661, 569.3609
1018.143, 559.0870
1018.625, 579.4643
1019.107, 601.7156
1019.590, 612.5938
1020.072, 615.4604
1020.554, 622.4185
1021.036, 631.8634
1021.518, 636.7935
1022.000, 626.7098
1022.482, 618.6959
1022.964, 623.6594
1023.446, 635.8471
1023.929, 643.8455
1024.411, 647.1510
1024.893, 647.5942
1025.375, 644.1841
1025.857, 642.3344
1026.339, 653.9545
1026.821, 669.7018
1027.303, 676.0558
1027.786, 670.9344
1028.268, 653.3969
1028.750, 597.3518
1029.232, 557.5003
1029.714, 576.8309
1030.196, 648.9065
1030.678, 657.7716
1031.160, 606.4329
1031.642, 558.3218
1032.125, 558.3511
1032.607, 574.5545
1033.089, 589.6403
1033.571, 600.8594
1034.053, 599.9066
1034.535, 579.2330
1035.017, 563.5251
1035.499, 555.6946
1035.982, 558.3329
1036.464, 581.1359
1036.946, 617.2658
1037.428, 652.3851
1037.910, 690.7885
1038.392, 705.4260
1038.874, 655.0507
1039.356, 599.4340
1039.839, 588.6014
1040.321, 629.9183
1040.803, 644.3593
1041.285, 630.3949
1041.767, 614.3559
1042.249, 618.0430
1042.731, 628.3952
1043.213, 633.0105
1043.695, 631.7118
1044.177, 626.5219
1044.660, 614.4462
1045.142, 604.3115
1045.624, 597.5793
1046.106, 594.4143
1046.588, 596.9150
1047.070, 603.3917
1047.552, 608.6028
1048.034, 612.4225
1048.517, 611.0742
1048.999, 590.0454
1049.481, 571.2766
1049.963, 578.5763
1050.445, 622.1943
1050.927, 646.2875
1051.409, 649.3076
1051.891, 645.3610
1052.374, 640.0510
1052.856, 638.0002
1053.338, 649.3755
1053.820, 672.1487
1054.302, 686.4761
1054.784, 684.8063
1055.266, 678.0735
1055.748, 669.3586
1056.230, 656.5251
1056.713, 624.1565
1057.195, 580.3967
1057.677, 568.4551
1058.159, 621.4583
1058.641, 659.8362
1059.123, 603.1349
1059.605, 526.8682
1060.087, 516.7834
1060.569, 600.3868
1061.052, 639.5649
1061.534, 628.5138
1062.016, 607.7435
1062.498, 612.2954
1062.980, 625.0984
1063.462, 617.0793
1063.944, 591.8113
1064.426, 584.5681
1064.908, 630.1789
1065.391, 661.4377
1065.873, 659.1526
1066.355, 637.7335
1066.837, 630.4124
1067.319, 634.2294
1067.801, 635.9520
1068.283, 630.6924
1068.765, 625.3885
1069.248, 626.9155
1069.730, 628.8165
1070.212, 622.9911
1070.694, 604.8299
1071.176, 604.8708
1071.658, 625.8698
1072.140, 644.9507
1072.622, 636.2555
1073.104, 620.8348
1073.587, 633.3818
1074.069, 666.7463
1074.551, 677.3206
1075.033, 631.0656
1075.515, 597.6786
1075.997, 595.3950
1076.479, 606.8497
1076.961, 586.0333
1077.443, 549.2188
1077.926, 560.9172
1078.408, 655.4926
1078.890, 731.4658
1079.372, 717.3924
1079.854, 674.9602
1080.336, 653.8296
1080.818, 655.3595
1081.300, 661.2117
1081.783, 671.7253
1082.265, 680.5411
1082.747, 686.1915
1083.229, 685.9274
1083.711, 668.7717
1084.193, 642.5542
1084.675, 635.6940
1085.157, 671.8555
1085.640, 685.7127
1086.122, 662.9312
1086.604, 624.8781
1087.086, 594.4924
1087.568, 574.5310
1088.050, 572.4879
1088.532, 591.5811
1089.014, 615.7367
1089.496, 648.6612
1089.979, 673.7992
1090.461, 678.6499
1090.943, 666.3380
1091.425, 675.4996
1091.907, 703.7460
1092.389, 717.4683
1092.871, 679.7958
1093.353, 640.7325
1093.835, 641.9008
1094.318, 666.3020
1094.800, 680.6785
1095.282, 681.5257
1095.764, 676.9393
1096.246, 665.3227
1096.728, 640.6981
1097.210, 662.3362
1097.692, 674.9847
1098.175, 679.1285
1098.657, 649.2839
1099.139, 663.3253
1099.621, 659.7791
1100.103, 655.5118
1100.585, 675.7297
1101.067, 650.8286
1101.549, 670.6582
1102.031, 672.6323
1102.514, 682.7807
1102.996, 675.2306
1103.478, 673.1465
1103.960, 688.7639
1104.442, 694.5799
1104.924, 684.9927
1105.406, 695.6584
1105.888, 670.1389
1106.370, 676.3724
1106.853, 696.3080
1107.335, 687.6106
1107.817, 698.5999
1108.299, 702.0911
1108.781, 671.5089
1109.263, 700.1841
1109.745, 703.2326
1110.227, 679.9678
1110.710, 706.6148
1111.192, 686.9775
1111.674, 683.8600
1112.156, 693.1750
1112.638, 689.5295
1113.120, 663.6713
1113.602, 644.4659
1114.084, 643.2830
1114.567, 654.4183
1115.049, 682.6065
1115.531, 720.3112
1116.013, 727.0175
1116.495, 707.7615
1116.977, 689.6893
1117.459, 690.5577
1117.941, 690.9488
1118.423, 674.2840
1118.906, 656.4965
1119.388, 662.1340
1119.870, 693.7413
1120.352, 716.4881
1120.834, 727.0043
1121.316, 731.4938
1121.798, 729.4497
1122.280, 728.2442
1122.762, 739.1276
1123.245, 734.1691
1123.727, 762.6209
1124.209, 735.3145
1124.691, 716.8296
1125.173, 721.2665
1125.655, 734.7980
1126.137, 737.8461
1126.619, 734.3180
1127.102, 730.9012
1127.584, 730.0021
1128.066, 726.5109
1128.548, 715.2807
1129.030, 709.5927
1129.512, 724.1696
1129.994, 751.7427
1130.476, 766.3665
1130.958, 768.3390
1131.441, 759.6197
1131.923, 720.0256
1132.405, 695.9352
1132.887, 707.5247
1133.369, 739.3306
1133.851, 776.0857
1134.333, 816.2414
1134.815, 830.7581
1135.297, 814.1903
1135.780, 791.6199
1136.262, 770.9899
1136.744, 760.9811
1137.226, 777.8738
1137.708, 816.2310
1138.190, 823.8365
1138.672, 796.2657
1139.154, 783.5547
1139.637, 812.2413
1140.119, 848.6949
1140.601, 855.2106
1141.083, 844.5864
1141.565, 833.8997
1142.047, 820.3739
1142.529, 822.7767
1143.011, 844.8226
1143.494, 870.2554
1143.976, 889.5379
1144.458, 903.0154
1144.940, 911.8365
1145.422, 915.7158
1145.904, 912.9984
1146.386, 891.7358
1146.868, 880.5329
1147.350, 886.5164
1147.833, 899.1600
1148.315, 905.4201
1148.797, 905.6861
1149.279, 901.9697
1149.761, 894.8023
1150.243, 879.6680
1150.725, 843.2969
1151.207, 810.1835
1151.689, 787.1710
1152.172, 776.6882
1152.654, 802.6781
1153.136, 856.5699
1153.618, 875.1594
1154.100, 817.0953
1154.582, 761.8491
1155.064, 764.3868
1155.546, 788.2342
1156.028, 795.9771
1156.511, 785.4391
1156.993, 778.2136
1157.475, 774.2765
1157.957, 780.8940
1158.439, 815.2139
1158.921, 850.5167
1159.403, 866.3100
1159.885, 866.2211
1160.368, 862.1091
1160.850, 854.9789
1161.332, 840.0841
1161.814, 814.6451
1162.296, 792.8608
1162.778, 790.3087
1163.260, 799.2191
1163.742, 817.4618
1164.224, 843.7872
1164.707, 843.7299
1165.189, 802.0639
1165.671, 771.7928
1166.153, 767.7124
1166.635, 783.7555
1167.117, 828.7019
1167.599, 880.8753
1168.081, 898.2097
1168.563, 855.4686
1169.046, 828.2352
1169.528, 832.6924
1170.010, 837.0133
1170.492, 814.9945
1170.974, 781.4425
1171.456, 785.7375
1171.938, 817.4490
1172.420, 841.8073
1172.903, 839.5222
1173.385, 834.2997
1173.867, 830.7047
1174.349, 826.4553
1174.831, 819.4115
1175.313, 809.5668
1175.795, 792.3475
1176.277, 768.8780
1176.760, 760.3857
1177.242, 797.8702
1177.724, 830.1779
1178.206, 832.5494
1178.688, 818.7473
1179.170, 820.3754
1179.652, 835.1259
1180.134, 846.2297
1180.616, 851.4193
1181.099, 846.1019
1181.581, 810.4680
1182.063, 778.2612
1182.545, 773.8201
1183.027, 794.1520
1183.509, 821.2288
1183.991, 854.0685
1184.473, 866.0555
1184.955, 832.5132
1185.438, 800.6857
1185.920, 815.2639
1186.402, 847.5305
1186.884, 863.5234
1187.366, 860.2306
1187.848, 854.5831
1188.330, 846.5854
1188.812, 836.3898
1189.295, 810.4694
1189.777, 794.7072
1190.259, 828.7744
1190.741, 887.6243
1191.223, 909.1133
1191.705, 882.7402
1192.187, 851.6526
1192.669, 816.8065
1193.151, 794.6546
1193.634, 810.9810
1194.116, 841.1725
1194.598, 867.8904
1195.080, 886.5615
1195.562, 871.1868
1196.044, 803.1705
1196.526, 769.1664
1197.008, 795.4493
1197.490, 846.1563
1197.973, 890.8090
1198.455, 923.5650
1198.937, 935.6729
1199.419, 924.0601
1199.901, 893.6490
1200.383, 829.2287
1200.865, 795.4041
1201.347, 832.8169
1201.830, 898.9365
1202.312, 929.9523
1202.794, 935.3972
1203.276, 930.9014
1203.758, 911.5070
1204.240, 902.1429
1204.722, 907.7861
1205.204, 912.5292
1205.687, 894.7527
1206.169, 873.2441
1206.651, 900.1882
1207.133, 956.6119
1207.615, 981.6754
1208.097, 919.3502
1208.579, 880.1451
1209.061, 879.7454
1209.543, 889.6211
1210.026, 873.3316
1210.508, 846.2929
1210.990, 845.2321
1211.472, 869.1158
1211.954, 884.5231
1212.436, 875.5553
1212.918, 863.2321
1213.400, 847.6048
1213.882, 836.8574
1214.365, 848.9926
1214.847, 875.3711
1215.329, 900.8341
1215.811, 924.3322
1216.293, 928.4813
1216.775, 886.9442
1217.257, 859.1993
1217.739, 874.1990
1218.222, 908.1490
1218.704, 899.5429
1219.186, 864.4075
1219.668, 842.6155
1220.150, 850.5385
1220.632, 856.4670
1221.114, 850.7989
1221.596, 845.2492
1222.078, 845.1144
1222.561, 850.6982
1223.043, 870.6395
1223.525, 897.3911
1224.007, 908.0427
1224.489, 876.5264
1224.971, 852.3181
1225.453, 845.0598
1225.935, 844.0434
1226.417, 841.0524
1226.900, 836.4789
1227.382, 830.7081
1227.864, 824.1914
1228.346, 819.1584
1228.828, 812.4365
1229.310, 813.9994
1229.792, 828.7540
1230.274, 847.3911
1230.756, 858.0782
1231.239, 863.0066
1231.721, 871.7720
1232.203, 884.3231
1232.685, 885.6105
1233.167, 847.7897
1233.649, 827.8361
1234.131, 850.0269
1234.613, 884.6328
1235.096, 866.5249
1235.578, 816.5898
1236.060, 793.4374
1236.542, 810.1071
1237.024, 824.8867
1237.506, 817.5834
1237.988, 812.4571
1238.470, 816.5856
1238.953, 829.4695
1239.435, 860.9141
1239.917, 898.9286
1240.399, 908.1884
1240.881, 867.8994
1241.363, 835.9307
1241.845, 825.9404
1242.327, 825.3575
1242.809, 830.2119
1243.292, 838.2092
1243.774, 839.7556
1244.256, 838.9312
1244.738, 848.2700
1245.220, 892.2953
1245.702, 908.7200
1246.184, 882.3391
1246.666, 844.8964
1247.148, 814.8353
1247.631, 793.7365
1248.113, 786.2621
1248.595, 791.4730
1249.077, 806.6505
1249.559, 849.0125
1250.041, 873.0423
1250.523, 870.7332
1251.005, 857.1885
1251.488, 840.0313
1251.970, 826.5379
1252.452, 838.6584
1252.934, 871.6255
1253.416, 889.8655
1253.898, 865.9388
1254.380, 858.5535
1254.862, 885.0068
1255.344, 908.9067
1255.827, 862.4922
1256.309, 790.9661
1256.791, 777.6652
1257.273, 827.3348
1257.755, 860.0500
1258.237, 862.2476
1258.719, 849.1278
1259.201, 818.3651
1259.683, 788.4597
1260.166, 791.7313
1260.648, 810.3784
1261.130, 816.9835
1261.612, 806.2840
1262.094, 806.0753
1262.576, 822.8395
1263.058, 832.2056
1263.540, 824.9956
1264.023, 808.2145
1264.505, 782.8409
1264.987, 758.4356
1265.469, 748.1188
1265.951, 756.0123
1266.433, 772.7239
1266.915, 801.9825
1267.397, 818.7552
1267.880, 800.0147
1268.362, 780.7476
1268.844, 817.0692
1269.326, 872.9561
1269.808, 891.2064
1270.290, 861.2070
1270.772, 836.0297
1271.254, 815.8564
1271.736, 797.3466
1272.219, 773.1389
1272.701, 754.9777
1273.183, 756.1440
1273.665, 768.7226
1274.147, 781.5161
1274.629, 796.8342
1275.111, 790.8713
1275.593, 762.8674
1276.075, 740.0478
1276.558, 740.5070
1277.040, 752.6079
1277.522, 782.5820
1278.004, 812.1179
1278.486, 808.0035
1278.968, 769.8708
1279.450, 750.3522
1279.932, 752.5292
1280.415, 760.0392
1280.897, 767.4816
1281.379, 771.2933
1281.861, 771.2064
1282.343, 765.3475
1282.825, 740.5955
1283.307, 703.4136
1283.789, 707.9564
1284.271, 759.5264
1284.754, 801.4248
1285.236, 809.6197
1285.718, 790.1582
1286.200, 730.9951
1286.682, 665.4692
1287.164, 665.8973
1287.646, 713.7258
##END=



