##NAMES=Manganite
##RRUFFID=R060827
##IDEAL CHEMISTRY=Mn^3+^O(OH)
##LOCALITY=Roberts mine, Crosby, Minnesota, USA
##OWNER=RRUFF
##SOURCE=Michael Scott
##DESCRIPTION=Black submetallic prismatic crystals
##STATUS=The identification of this mineral has been confirmed by X-ray diffraction and chemical analysis
##URL=rruff.info/R060827
##MEASURED CHEMISTRY=Mn^3+^_1.00_O(OH)
121.0456, 536.5112
121.5277, 545.4254
122.0098, 556.7023
122.4920, 569.5301
122.9741, 585.7728
123.4562, 609.8035
123.9383, 641.5259
124.4204, 669.8635
124.9025, 682.7423
125.3847, 684.8594
125.8668, 700.0051
126.3489, 740.0140
126.8310, 788.4180
127.3131, 830.0728
127.7952, 864.3876
128.2773, 894.1321
128.7595, 921.5911
129.2416, 946.6639
129.7237, 967.5814
130.2058, 978.5590
130.6879, 989.0959
131.1700, 1007.610
131.6522, 1035.330
132.1343, 1063.815
132.6164, 1082.623
133.0985, 1089.691
133.5806, 1099.085
134.0627, 1122.725
134.5449, 1144.484
135.0270, 1154.031
135.5091, 1148.766
135.9912, 1132.469
136.4733, 1107.579
136.9554, 1068.102
137.4376, 1036.993
137.9197, 1019.853
138.4018, 1010.525
138.8839, 1003.721
139.3660, 997.5757
139.8481, 996.8751
140.3303, 1013.192
140.8124, 1060.576
141.2945, 1097.929
141.7766, 1105.661
142.2587, 1108.918
142.7408, 1132.765
143.2230, 1187.622
143.7051, 1260.555
144.1872, 1319.365
144.6693, 1350.607
145.1514, 1385.987
145.6335, 1430.087
146.1157, 1479.128
146.5978, 1531.725
147.0799, 1587.294
147.5620, 1641.925
148.0441, 1682.601
148.5262, 1696.224
149.0084, 1709.865
149.4905, 1731.009
149.9726, 1752.258
150.4547, 1763.381
150.9368, 1758.772
151.4190, 1742.109
151.9011, 1728.794
152.3832, 1724.492
152.8653, 1717.299
153.3474, 1705.790
153.8295, 1690.337
154.3117, 1671.920
154.7938, 1650.968
155.2759, 1627.159
155.7580, 1597.948
156.2401, 1557.495
156.7222, 1518.650
157.2044, 1485.200
157.6865, 1454.951
158.1686, 1422.210
158.6507, 1382.704
159.1328, 1338.891
159.6149, 1308.996
160.0971, 1299.014
160.5792, 1293.103
161.0613, 1288.536
161.5434, 1284.648
162.0255, 1280.635
162.5076, 1276.085
162.9898, 1270.920
163.4719, 1264.898
163.9540, 1257.575
164.4361, 1250.019
164.9182, 1240.993
165.4003, 1231.789
165.8825, 1226.026
166.3646, 1226.676
166.8467, 1232.374
167.3288, 1234.785
167.8109, 1231.380
168.2930, 1227.752
168.7752, 1227.239
169.2573, 1228.832
169.7394, 1229.346
170.2215, 1227.683
170.7036, 1222.964
171.1857, 1212.539
171.6679, 1191.587
172.1500, 1170.239
172.6321, 1153.459
173.1142, 1140.657
173.5963, 1128.652
174.0784, 1114.296
174.5606, 1100.215
175.0427, 1094.993
175.5248, 1109.458
176.0069, 1121.913
176.4890, 1117.757
176.9711, 1099.517
177.4533, 1080.745
177.9354, 1067.374
178.4175, 1059.759
178.8996, 1056.532
179.3817, 1062.574
179.8638, 1067.622
180.3460, 1064.324
180.8281, 1053.632
181.3102, 1041.567
181.7923, 1029.614
182.2744, 1019.315
182.7565, 1013.589
183.2387, 1014.492
183.7208, 1017.459
184.2029, 1021.326
184.6850, 1025.564
185.1671, 1025.469
185.6492, 1015.799
186.1314, 1001.627
186.6135, 995.1959
187.0956, 1002.009
187.5777, 1008.659
188.0598, 1002.473
188.5419, 985.2169
189.0241, 973.4016
189.5062, 976.3539
189.9883, 988.5541
190.4704, 999.0880
190.9525, 1010.611
191.4346, 1015.282
191.9168, 1001.423
192.3989, 971.6894
192.8810, 950.3282
193.3631, 951.7112
193.8452, 964.5967
194.3273, 968.2008
194.8095, 957.9463
195.2916, 948.3306
195.7737, 951.7452
196.2558, 966.5151
196.7379, 978.8973
197.2200, 983.5200
197.7022, 983.2643
198.1843, 982.6788
198.6664, 981.2831
199.1485, 981.2181
199.6306, 966.3448
200.1127, 978.0228
200.5949, 984.4814
201.0770, 986.0012
201.5591, 967.7900
202.0412, 975.0574
202.5233, 972.1141
203.0054, 968.7521
203.4876, 979.6053
203.9697, 964.2639
204.4518, 974.8918
204.9339, 975.1533
205.4160, 980.1592
205.8981, 973.1837
206.3803, 974.4167
206.8624, 976.1855
207.3445, 976.8101
207.8266, 977.2659
208.3087, 982.4676
208.7908, 996.1989
209.2730, 1011.486
209.7551, 1019.161
210.2372, 1019.067
210.7193, 1021.809
211.2014, 1038.377
211.6835, 1062.943
212.1657, 1074.863
212.6478, 1063.591
213.1299, 1049.747
213.6120, 1054.562
214.0941, 1076.276
214.5762, 1100.299
215.0584, 1120.429
215.5405, 1137.912
216.0226, 1156.527
216.5047, 1178.102
216.9868, 1198.156
217.4689, 1212.076
217.9511, 1220.912
218.4332, 1228.864
218.9153, 1244.694
219.3974, 1259.460
219.8795, 1252.453
220.3616, 1216.156
220.8438, 1174.409
221.3259, 1148.131
221.8080, 1132.878
222.2901, 1116.746
222.7722, 1092.129
223.2543, 1065.775
223.7365, 1049.592
224.2186, 1046.141
224.7007, 1043.666
225.1828, 1029.842
225.6649, 1009.921
226.1470, 997.9066
226.6292, 1003.749
227.1113, 1015.465
227.5934, 1018.371
228.0755, 1011.604
228.5576, 1003.617
229.0397, 997.8190
229.5219, 995.1426
230.0040, 997.8497
230.4861, 1012.790
230.9682, 1027.957
231.4503, 1029.958
231.9324, 1019.153
232.4146, 1010.248
232.8967, 1012.536
233.3788, 1021.829
233.8609, 1027.153
234.3430, 1025.772
234.8251, 1023.378
235.3073, 1024.463
235.7894, 1028.374
236.2715, 1030.725
236.7536, 1027.909
237.2357, 1023.755
237.7178, 1026.291
238.2000, 1037.786
238.6821, 1050.693
239.1642, 1063.664
239.6463, 1075.357
240.1284, 1080.036
240.6105, 1072.631
241.0927, 1062.061
241.5748, 1064.883
242.0569, 1082.883
242.5390, 1103.757
243.0211, 1126.069
243.5033, 1147.870
243.9854, 1164.526
244.4675, 1173.970
244.9496, 1181.009
245.4317, 1193.523
245.9138, 1212.568
246.3960, 1228.789
246.8781, 1238.430
247.3602, 1245.040
247.8423, 1252.902
248.3244, 1262.801
248.8065, 1273.797
249.2887, 1283.465
249.7708, 1290.990
250.2529, 1307.281
250.7350, 1343.913
251.2171, 1382.888
251.6992, 1407.103
252.1814, 1415.632
252.6635, 1420.420
253.1456, 1432.624
253.6277, 1452.688
254.1098, 1463.032
254.5919, 1454.563
255.0741, 1444.775
255.5562, 1445.198
256.0383, 1454.283
256.5204, 1463.200
257.0025, 1466.021
257.4846, 1463.196
257.9668, 1459.956
258.4489, 1461.129
258.9310, 1457.003
259.4131, 1440.247
259.8952, 1415.832
260.3773, 1394.048
260.8595, 1380.486
261.3416, 1372.806
261.8237, 1362.318
262.3058, 1345.990
262.7879, 1330.649
263.2701, 1316.471
263.7522, 1303.935
264.2343, 1294.858
264.7164, 1289.897
265.1985, 1285.766
265.6806, 1275.789
266.1628, 1253.459
266.6449, 1234.601
267.1270, 1218.684
267.6091, 1206.376
268.0912, 1199.716
268.5733, 1198.484
269.0555, 1198.749
269.5376, 1194.955
270.0197, 1184.410
270.5018, 1177.899
270.9839, 1176.405
271.4660, 1177.181
271.9482, 1177.399
272.4303, 1177.932
272.9124, 1182.764
273.3945, 1196.194
273.8766, 1219.120
274.3587, 1240.645
274.8409, 1262.118
275.3230, 1280.768
275.8051, 1291.752
276.2872, 1299.285
276.7693, 1311.519
277.2514, 1334.349
277.7336, 1365.897
278.2157, 1395.815
278.6978, 1424.359
279.1799, 1450.521
279.6620, 1476.260
280.1441, 1498.899
280.6263, 1515.928
281.1084, 1526.503
281.5905, 1529.549
282.0726, 1521.957
282.5547, 1500.974
283.0368, 1476.211
283.5190, 1454.077
284.0011, 1426.611
284.4832, 1384.272
284.9653, 1325.014
285.4474, 1262.502
285.9295, 1212.059
286.4117, 1174.790
286.8938, 1138.698
287.3759, 1101.289
287.8580, 1065.544
288.3401, 1032.098
288.8222, 1001.411
289.3044, 975.2607
289.7865, 955.4636
290.2686, 941.3748
290.7507, 930.4988
291.2328, 923.1273
291.7149, 918.3652
292.1971, 916.5419
292.6792, 916.7287
293.1613, 916.6358
293.6434, 913.6890
294.1255, 910.5545
294.6076, 912.8716
295.0898, 921.7017
295.5719, 928.7948
296.0540, 928.7025
296.5361, 923.3932
297.0182, 916.7541
297.5003, 907.3625
297.9825, 899.0388
298.4646, 895.2422
298.9467, 895.4382
299.4288, 896.3743
299.9109, 896.1100
300.3930, 896.5504
300.8752, 902.1757
301.3573, 915.3874
301.8394, 926.6362
302.3215, 933.2766
302.8036, 935.5031
303.2857, 931.6678
303.7679, 920.4899
304.2500, 909.1456
304.7321, 907.9212
305.2142, 919.5584
305.6963, 930.1471
306.1784, 938.6407
306.6606, 945.8752
307.1427, 954.1474
307.6248, 962.8877
308.1069, 966.6422
308.5890, 959.1666
309.0711, 939.4393
309.5533, 930.8563
310.0354, 938.5991
310.5175, 949.8875
310.9996, 963.1816
311.4817, 976.0803
311.9638, 984.2856
312.4460, 984.9399
312.9281, 980.2588
313.4102, 978.9613
313.8923, 987.8342
314.3744, 991.6050
314.8565, 981.8969
315.3387, 970.1096
315.8208, 969.2241
316.3029, 982.8395
316.7850, 1002.300
317.2671, 1013.303
317.7492, 1010.784
318.2314, 1013.377
318.7135, 1029.411
319.1956, 1043.927
319.6777, 1047.951
320.1598, 1042.022
320.6419, 1032.838
321.1241, 1024.026
321.6062, 1015.922
322.0883, 1016.551
322.5704, 1032.395
323.0525, 1048.780
323.5346, 1058.416
324.0168, 1064.553
324.4989, 1073.752
324.9810, 1091.184
325.4631, 1110.716
325.9452, 1119.258
326.4273, 1113.865
326.9095, 1110.242
327.3916, 1116.191
327.8737, 1126.340
328.3558, 1135.099
328.8379, 1141.086
329.3200, 1147.912
329.8022, 1160.334
330.2843, 1176.801
330.7664, 1188.725
331.2485, 1192.813
331.7306, 1193.671
332.2127, 1196.317
332.6949, 1200.663
333.1770, 1205.514
333.6591, 1210.584
334.1412, 1215.953
334.6233, 1220.863
335.1054, 1225.250
335.5876, 1232.783
336.0697, 1248.606
336.5518, 1271.634
337.0339, 1284.943
337.5160, 1280.419
337.9981, 1274.651
338.4803, 1273.077
338.9624, 1276.578
339.4445, 1286.984
339.9266, 1305.588
340.4087, 1330.306
340.8908, 1355.582
341.3730, 1385.734
341.8551, 1410.666
342.3372, 1423.952
342.8193, 1435.296
343.3014, 1453.124
343.7835, 1479.406
344.2657, 1512.208
344.7478, 1550.130
345.2299, 1596.022
345.7120, 1635.144
346.1941, 1658.924
346.6762, 1684.897
347.1584, 1718.870
347.6405, 1761.007
348.1226, 1810.276
348.6047, 1867.412
349.0868, 1930.008
349.5689, 1986.446
350.0511, 2033.817
350.5332, 2080.046
351.0153, 2128.998
351.4974, 2177.523
351.9795, 2221.965
352.4616, 2261.012
352.9438, 2298.198
353.4259, 2339.748
353.9080, 2385.801
354.3901, 2424.352
354.8722, 2456.791
355.3543, 2475.515
355.8365, 2472.574
356.3186, 2449.727
356.8007, 2425.655
357.2828, 2415.603
357.7649, 2408.070
358.2470, 2381.996
358.7292, 2334.795
359.2113, 2278.398
359.6934, 2218.695
360.1755, 2156.308
360.6576, 2094.902
361.1397, 2035.558
361.6219, 1975.933
362.1040, 1910.624
362.5861, 1843.987
363.0682, 1788.495
363.5503, 1750.281
364.0324, 1721.867
364.5146, 1687.282
364.9967, 1639.030
365.4788, 1599.179
365.9609, 1570.818
366.4430, 1549.959
366.9251, 1533.624
367.4073, 1521.267
367.8894, 1512.920
368.3715, 1508.608
368.8536, 1508.327
369.3357, 1512.541
369.8178, 1524.669
370.3000, 1537.804
370.7821, 1547.607
371.2642, 1557.877
371.7463, 1574.869
372.2284, 1601.827
372.7105, 1635.331
373.1927, 1666.119
373.6748, 1689.176
374.1569, 1724.604
374.6390, 1779.769
375.1211, 1846.426
375.6032, 1920.610
376.0854, 2001.676
376.5675, 2089.606
377.0496, 2183.287
377.5317, 2283.144
378.0138, 2394.423
378.4959, 2518.496
378.9781, 2651.253
379.4602, 2793.973
379.9423, 2943.181
380.4244, 3095.419
380.9065, 3246.698
381.3886, 3402.319
381.8708, 3572.048
382.3529, 3751.422
382.8350, 3920.337
383.3171, 4070.301
383.7992, 4205.589
384.2813, 4337.299
384.7635, 4477.000
385.2456, 4586.262
385.7277, 4657.823
386.2098, 4696.925
386.6919, 4712.315
387.1740, 4703.604
387.6562, 4659.496
388.1383, 4569.141
388.6204, 4431.857
389.1025, 4253.338
389.5846, 3999.140
390.0667, 3743.769
390.5489, 3501.458
391.0310, 3272.465
391.5131, 3056.779
391.9952, 2853.292
392.4773, 2660.644
392.9594, 2473.001
393.4416, 2286.112
393.9237, 2116.396
394.4058, 1963.085
394.8879, 1829.140
395.3700, 1719.306
395.8521, 1632.092
396.3343, 1560.643
396.8164, 1506.492
397.2985, 1464.461
397.7806, 1416.632
398.2627, 1361.450
398.7448, 1305.469
399.2270, 1247.311
399.7091, 1192.492
400.1912, 1152.215
400.6733, 1134.162
401.1554, 1121.090
401.6375, 1101.109
402.1197, 1076.647
402.6018, 1054.914
403.0839, 1037.985
403.5660, 1024.575
404.0481, 1013.397
404.5302, 1005.561
405.0124, 995.5077
405.4945, 984.0723
405.9766, 969.4752
406.4587, 945.3395
406.9408, 915.8239
407.4229, 895.0862
407.9051, 894.0301
408.3872, 907.8606
408.8693, 911.4240
409.3514, 894.3393
409.8335, 880.5184
410.3156, 873.9045
410.7978, 870.6693
411.2799, 866.7910
411.7620, 861.5651
412.2441, 857.8834
412.7262, 862.6996
413.2083, 876.7206
413.6905, 875.4871
414.1726, 846.3032
414.6547, 818.1852
415.1368, 807.3065
415.6189, 808.3055
416.1010, 810.6406
416.5832, 811.4581
417.0653, 810.7477
417.5474, 807.9663
418.0295, 803.2826
418.5116, 798.8308
418.9937, 795.7943
419.4759, 792.8262
419.9580, 787.0276
420.4401, 777.6199
420.9222, 770.4357
421.4043, 766.3121
421.8864, 765.3654
422.3686, 769.2390
422.8507, 777.2650
423.3328, 785.1278
423.8149, 789.8505
424.2970, 791.5008
424.7791, 790.6702
425.2613, 785.6095
425.7434, 780.1592
426.2255, 770.4634
426.7076, 762.8187
427.1897, 766.0289
427.6718, 781.7548
428.1540, 800.8553
428.6361, 812.2985
429.1182, 815.6218
429.6003, 814.5768
430.0824, 804.9576
430.5645, 795.7463
431.0467, 790.6692
431.5288, 788.9969
432.0109, 789.3583
432.4930, 792.5673
432.9751, 795.6350
433.4572, 792.9537
433.9394, 784.8481
434.4215, 780.8218
434.9036, 786.3568
435.3857, 794.5436
435.8678, 793.7980
436.3499, 782.8077
436.8321, 775.9340
437.3142, 780.6379
437.7963, 788.5494
438.2784, 790.0307
438.7605, 785.6326
439.2426, 783.8618
439.7248, 791.0125
440.2069, 805.4127
440.6890, 817.5855
441.1711, 832.1797
441.6532, 838.2738
442.1353, 826.0297
442.6175, 809.8955
443.0996, 803.4459
443.5817, 809.2846
444.0638, 820.7153
444.5459, 832.7676
445.0280, 845.5780
445.5102, 849.5797
445.9923, 838.1746
446.4744, 827.4280
446.9565, 825.5830
447.4386, 828.5087
447.9207, 829.1478
448.4029, 823.3467
448.8850, 819.5790
449.3671, 830.8460
449.8492, 853.2415
450.3313, 864.8779
450.8134, 857.8839
451.2956, 844.9218
451.7777, 840.8871
452.2598, 846.1263
452.7419, 850.1693
453.2240, 848.7307
453.7061, 848.7477
454.1883, 858.7479
454.6704, 874.1863
455.1525, 882.2110
455.6346, 875.9630
456.1167, 860.6546
456.5988, 848.4438
457.0810, 836.9617
457.5631, 833.5704
458.0452, 845.4013
458.5273, 858.3679
459.0095, 860.8358
459.4916, 855.4100
459.9737, 855.4680
460.4558, 873.8987
460.9379, 903.0596
461.4200, 917.2243
461.9022, 911.6445
462.3843, 908.9341
462.8664, 923.0914
463.3485, 941.3481
463.8306, 946.9634
464.3127, 936.3546
464.7949, 928.9583
465.2770, 939.7253
465.7591, 957.7270
466.2412, 964.6011
466.7233, 958.4741
467.2054, 951.1700
467.6876, 951.0928
468.1697, 957.7985
468.6518, 967.1612
469.1339, 984.9927
469.6160, 998.0138
470.0981, 999.3283
470.5803, 996.7227
471.0624, 1000.123
471.5445, 1011.120
472.0266, 1021.817
472.5087, 1022.072
472.9908, 1011.219
473.4730, 1005.014
473.9551, 999.9039
474.4372, 1005.348
474.9193, 1033.665
475.4014, 1070.577
475.8835, 1093.458
476.3657, 1091.952
476.8478, 1089.081
477.3299, 1113.026
477.8120, 1155.254
478.2941, 1177.615
478.7762, 1167.976
479.2584, 1154.259
479.7405, 1164.292
480.2226, 1198.847
480.7047, 1228.152
481.1868, 1248.213
481.6689, 1266.560
482.1511, 1283.420
482.6332, 1301.957
483.1153, 1328.096
483.5974, 1364.101
484.0795, 1405.308
484.5616, 1445.180
485.0438, 1484.132
485.5259, 1520.446
486.0080, 1547.899
486.4901, 1579.033
486.9722, 1618.394
487.4543, 1664.912
487.9365, 1717.844
488.4186, 1780.281
488.9007, 1840.361
489.3828, 1880.782
489.8649, 1902.269
490.3470, 1917.962
490.8292, 1929.477
491.3113, 1938.775
491.7934, 1951.090
492.2755, 1966.045
492.7576, 1967.981
493.2397, 1949.467
493.7219, 1921.692
494.2040, 1890.765
494.6861, 1856.698
495.1682, 1816.047
495.6503, 1766.809
496.1324, 1716.375
496.6146, 1678.538
497.0967, 1657.363
497.5788, 1639.635
498.0609, 1625.172
498.5430, 1614.072
499.0251, 1605.470
499.5073, 1600.347
499.9894, 1601.555
500.4715, 1612.269
500.9536, 1626.468
501.4357, 1633.070
501.9178, 1632.016
502.4000, 1634.949
502.8821, 1645.310
503.3642, 1660.182
503.8463, 1676.650
504.3284, 1694.615
504.8105, 1714.409
505.2927, 1732.604
505.7748, 1755.708
506.2569, 1792.128
506.7390, 1837.437
507.2211, 1880.253
507.7032, 1915.683
508.1854, 1945.704
508.6675, 1972.847
509.1496, 1991.114
509.6317, 2021.438
510.1138, 2069.209
510.5959, 2123.211
511.0781, 2184.251
511.5602, 2247.198
512.0423, 2299.858
512.5244, 2332.000
513.0065, 2361.356
513.4886, 2418.807
513.9708, 2503.164
514.4529, 2580.322
514.9350, 2638.830
515.4171, 2693.367
515.8992, 2761.754
516.3813, 2842.968
516.8635, 2921.979
517.3456, 2989.447
517.8277, 3061.446
518.3098, 3158.431
518.7919, 3266.293
519.2740, 3352.109
519.7562, 3402.719
520.2383, 3443.379
520.7204, 3517.118
521.2025, 3637.314
521.6846, 3740.728
522.1667, 3809.661
522.6489, 3879.056
523.1310, 3965.785
523.6131, 4060.294
524.0952, 4145.320
524.5773, 4214.731
525.0594, 4272.026
525.5416, 4313.919
526.0237, 4344.728
526.5058, 4391.281
526.9879, 4463.509
527.4700, 4534.251
527.9521, 4578.079
528.4343, 4594.817
528.9164, 4609.923
529.3985, 4627.194
529.8806, 4638.652
530.3627, 4638.344
530.8448, 4631.822
531.3270, 4627.432
531.8091, 4627.022
532.2912, 4624.766
532.7733, 4612.713
533.2554, 4590.607
533.7375, 4573.784
534.2197, 4567.268
534.7018, 4557.782
535.1839, 4534.112
535.6660, 4507.693
536.1481, 4491.217
536.6302, 4486.735
537.1124, 4493.753
537.5945, 4518.378
538.0766, 4552.272
538.5587, 4576.109
539.0408, 4588.074
539.5229, 4608.883
540.0051, 4653.664
540.4872, 4718.542
540.9693, 4783.594
541.4514, 4847.699
541.9335, 4914.423
542.4156, 4980.858
542.8978, 5052.371
543.3799, 5132.998
543.8620, 5223.034
544.3441, 5319.969
544.8262, 5423.469
545.3083, 5531.459
545.7905, 5635.840
546.2726, 5734.205
546.7547, 5841.914
547.2368, 5962.653
547.7189, 6095.949
548.2010, 6243.889
548.6832, 6406.706
549.1653, 6566.084
549.6474, 6722.746
550.1295, 6869.731
550.6116, 6989.973
551.0938, 7095.021
551.5759, 7220.140
552.0580, 7383.428
552.5401, 7556.017
553.0222, 7688.161
553.5043, 7772.627
553.9865, 7837.513
554.4686, 7869.294
554.9507, 7894.204
555.4328, 7932.182
555.9149, 7967.449
556.3970, 7971.294
556.8792, 7932.016
557.3613, 7864.467
557.8434, 7781.452
558.3255, 7682.327
558.8076, 7564.978
559.2897, 7429.990
559.7719, 7274.122
560.2540, 7090.633
560.7361, 6881.756
561.2182, 6683.042
561.7003, 6513.475
562.1824, 6327.654
562.6646, 6100.722
563.1467, 5862.922
563.6288, 5644.018
564.1109, 5447.548
564.5930, 5253.350
565.0751, 5040.132
565.5573, 4816.837
566.0394, 4620.883
566.5215, 4457.329
567.0036, 4301.258
567.4857, 4145.412
567.9678, 3992.576
568.4500, 3843.621
568.9321, 3698.213
569.4142, 3562.849
569.8963, 3440.363
570.3784, 3327.854
570.8605, 3222.441
571.3427, 3124.817
571.8248, 3040.182
572.3069, 2970.882
572.7890, 2908.139
573.2711, 2835.597
573.7532, 2746.062
574.2354, 2673.382
574.7175, 2633.800
575.1996, 2592.740
575.6817, 2533.143
576.1638, 2464.084
576.6459, 2401.784
577.1281, 2352.109
577.6102, 2305.278
578.0923, 2250.752
578.5744, 2193.977
579.0565, 2149.888
579.5386, 2120.494
580.0208, 2092.034
580.5029, 2053.114
580.9850, 2007.031
581.4671, 1972.048
581.9492, 1953.094
582.4313, 1939.569
582.9135, 1949.170
583.3956, 1950.086
583.8777, 1905.169
584.3598, 1826.199
584.8419, 1764.030
585.3240, 1758.433
585.8062, 1779.700
586.2883, 1769.558
586.7704, 1729.125
587.2525, 1700.527
587.7346, 1698.373
588.2167, 1704.969
588.6989, 1702.150
589.1810, 1689.321
589.6631, 1673.306
590.1452, 1643.705
590.6273, 1622.642
591.1094, 1631.985
591.5916, 1649.625
592.0737, 1638.010
592.5558, 1591.732
593.0379, 1550.099
593.5200, 1563.499
594.0021, 1622.400
594.4843, 1642.731
594.9664, 1610.206
595.4485, 1584.362
595.9306, 1596.359
596.4127, 1623.021
596.8948, 1631.016
597.3770, 1617.406
597.8591, 1605.667
598.3412, 1600.651
598.8233, 1601.765
599.3054, 1583.615
599.7875, 1613.528
600.2697, 1635.326
600.7518, 1649.438
601.2339, 1632.858
601.7160, 1655.911
602.1981, 1663.081
602.6802, 1669.599
603.1624, 1698.234
603.6445, 1686.117
604.1266, 1718.465
604.6087, 1756.084
605.0908, 1794.104
605.5729, 1830.232
606.0551, 1862.723
606.5372, 1888.989
607.0193, 1912.033
607.5014, 1934.372
607.9835, 1957.070
608.4656, 1984.645
608.9478, 2020.059
609.4299, 2061.082
609.9120, 2100.795
610.3941, 2133.265
610.8762, 2177.646
611.3583, 2244.282
611.8405, 2314.206
612.3226, 2377.657
612.8047, 2437.393
613.2868, 2502.675
613.7689, 2581.226
614.2510, 2655.615
614.7332, 2704.406
615.2153, 2738.527
615.6974, 2784.893
616.1795, 2847.983
616.6616, 2915.739
617.1437, 2981.186
617.6259, 3042.354
618.1080, 3086.847
618.5901, 3103.150
619.0722, 3120.134
619.5543, 3146.912
620.0364, 3169.290
620.5186, 3178.609
621.0007, 3174.763
621.4828, 3161.290
621.9649, 3140.168
622.4470, 3109.694
622.9291, 3064.631
623.4113, 3007.782
623.8934, 2951.401
624.3755, 2898.565
624.8576, 2843.258
625.3397, 2778.917
625.8218, 2705.918
626.3040, 2640.827
626.7861, 2596.814
627.2682, 2543.709
627.7503, 2471.063
628.2324, 2392.863
628.7145, 2318.440
629.1967, 2249.920
629.6788, 2189.819
630.1609, 2142.012
630.6430, 2100.678
631.1251, 2057.713
631.6072, 2013.303
632.0894, 1969.711
632.5715, 1927.539
633.0536, 1886.256
633.5357, 1844.391
634.0178, 1801.794
634.4999, 1765.356
634.9821, 1745.763
635.4642, 1718.464
635.9463, 1670.592
636.4284, 1618.198
636.9105, 1574.466
637.3926, 1541.949
637.8748, 1518.473
638.3569, 1507.966
638.8390, 1501.744
639.3211, 1481.338
639.8032, 1448.805
640.2853, 1425.278
640.7675, 1419.203
641.2496, 1415.320
641.7317, 1394.503
642.2138, 1354.685
642.6959, 1324.021
643.1780, 1309.863
643.6602, 1294.997
644.1423, 1275.748
644.6244, 1254.057
645.1065, 1230.128
645.5886, 1205.190
646.0707, 1184.445
646.5529, 1174.572
647.0350, 1169.608
647.5171, 1159.119
647.9992, 1143.742
648.4813, 1128.356
648.9634, 1114.390
649.4456, 1101.313
649.9277, 1087.924
650.4098, 1073.845
650.8919, 1065.238
651.3740, 1071.386
651.8561, 1071.246
652.3383, 1052.964
652.8204, 1031.272
653.3025, 1021.754
653.7846, 1025.248
654.2667, 1028.751
654.7488, 1021.159
655.2310, 1010.188
655.7131, 1009.663
656.1952, 1017.210
656.6773, 1019.385
657.1594, 1011.654
657.6415, 1000.503
658.1237, 993.4874
658.6058, 990.8660
659.0879, 973.0477
659.5700, 982.5740
660.0521, 983.9813
660.5342, 977.7073
661.0164, 940.7370
661.4985, 943.4035
661.9806, 930.1857
662.4627, 916.3165
662.9448, 924.5602
663.4269, 892.0576
663.9091, 899.9482
664.3912, 891.7167
664.8733, 890.8644
665.3554, 867.9583
665.8375, 864.0519
666.3196, 863.5239
666.8018, 866.1174
667.2839, 865.8894
667.7660, 859.7549
668.2481, 855.9388
668.7302, 857.2409
669.2123, 860.1050
669.6945, 863.8162
670.1766, 867.1750
670.6587, 865.4227
671.1408, 853.7014
671.6229, 839.2100
672.1050, 825.8430
672.5872, 814.5634
673.0693, 807.5103
673.5514, 805.0229
674.0335, 805.7878
674.5156, 809.6005
674.9977, 814.8950
675.4799, 812.5125
675.9620, 798.5118
676.4441, 787.1824
676.9262, 775.7563
677.4083, 773.3204
677.8904, 794.9561
678.3726, 831.9441
678.8547, 851.7383
679.3368, 836.2434
679.8189, 816.5268
680.3010, 808.0843
680.7831, 804.7646
681.2653, 797.0249
681.7474, 785.2845
682.2295, 779.5532
682.7116, 787.9957
683.1937, 802.5992
683.6758, 800.7581
684.1580, 779.5615
684.6401, 769.0845
685.1222, 778.2424
685.6043, 789.4616
686.0864, 791.1375
686.5685, 784.7891
687.0507, 776.1657
687.5328, 761.8848
688.0149, 751.4010
688.4970, 745.3192
688.9791, 745.1020
689.4612, 755.9961
689.9434, 773.6971
690.4255, 787.4329
690.9076, 792.0355
691.3897, 791.7056
691.8718, 791.3028
692.3539, 790.8895
692.8361, 791.4720
693.3182, 793.5308
693.8003, 793.0861
694.2824, 787.0815
694.7645, 777.8989
695.2466, 770.9042
695.7288, 765.7983
696.2109, 763.8714
696.6930, 766.5606
697.1751, 770.8068
697.6572, 778.9019
698.1393, 786.2107
698.6215, 784.1953
699.1036, 770.3593
699.5857, 758.1415
700.0678, 762.0211
700.5499, 772.0629
701.0320, 770.8499
701.5142, 759.5472
701.9963, 748.0391
702.4784, 740.0044
702.9605, 736.2985
703.4426, 739.9305
703.9247, 752.5703
704.4069, 751.1476
704.8890, 719.7247
705.3711, 700.1656
705.8532, 715.2012
706.3353, 739.8846
706.8174, 753.3573
707.2996, 754.3910
707.7817, 749.8762
708.2638, 735.5667
708.7459, 723.0609
709.2280, 721.1971
709.7101, 726.3065
710.1923, 734.3085
710.6744, 743.1553
711.1565, 748.0055
711.6386, 743.6134
712.1207, 733.4081
712.6028, 729.8538
713.0850, 734.0399
713.5671, 733.5029
714.0492, 722.1350
714.5313, 712.6371
715.0134, 717.3306
715.4955, 716.4313
715.9777, 740.6644
716.4598, 754.4587
716.9419, 758.3755
717.4240, 722.8301
717.9061, 738.2419
718.3882, 733.2324
718.8704, 727.3856
719.3525, 749.9693
719.8346, 720.1636
720.3167, 742.2966
720.7988, 743.6965
721.2809, 754.5854
721.7631, 744.9271
722.2452, 741.6150
722.7273, 758.8570
723.2094, 744.3116
723.6915, 743.7365
724.1736, 743.7573
724.6558, 744.5977
725.1379, 745.3307
725.6200, 747.6031
726.1021, 747.5234
726.5842, 742.0705
727.0663, 734.5433
727.5485, 727.6605
728.0306, 721.5129
728.5127, 721.1475
728.9948, 734.2728
729.4769, 748.5445
729.9590, 755.3323
730.4412, 756.0240
730.9233, 753.7721
731.4054, 749.4512
731.8875, 741.7135
732.3696, 727.1462
732.8517, 709.3942
733.3339, 702.9149
733.8160, 708.4847
734.2981, 712.9283
734.7802, 712.3661
735.2623, 711.2748
735.7444, 713.5701
736.2266, 719.1126
736.7087, 726.1183
737.1908, 740.8459
737.6729, 748.1680
738.1550, 742.5535
738.6371, 732.5182
739.1193, 720.7169
739.6014, 709.7409
740.0835, 704.7325
740.5656, 708.9141
741.0477, 715.0464
741.5298, 717.2877
742.0120, 717.3918
742.4941, 719.0493
742.9762, 721.8464
743.4583, 722.4841
743.9404, 719.4349
744.4225, 711.6668
744.9047, 693.4371
745.3868, 662.0681
745.8689, 653.7083
746.3510, 679.2974
746.8331, 701.3494
747.3152, 703.6990
747.7974, 695.7549
748.2795, 689.0642
748.7616, 683.3052
749.2437, 682.1255
749.7258, 688.5711
750.2079, 696.5840
750.6901, 707.3292
751.1722, 716.2083
751.6543, 716.0953
752.1364, 707.8405
752.6185, 700.9911
753.1006, 702.9713
753.5828, 707.5067
754.0649, 704.2253
754.5470, 696.2070
755.0291, 695.9883
755.5112, 705.3180
755.9933, 709.1593
756.4755, 694.7967
756.9576, 671.1204
757.4397, 667.1003
757.9218, 690.5071
758.4039, 706.9774
758.8860, 712.6084
759.3682, 714.2089
759.8503, 715.5466
760.3324, 715.0248
760.8145, 709.0427
761.2966, 695.5950
761.7787, 684.5999
762.2609, 677.5273
762.7430, 674.5303
763.2251, 676.9254
763.7072, 682.9986
764.1893, 658.4027
764.6714, 691.8317
765.1536, 710.6468
765.6357, 715.6331
766.1178, 665.3724
766.5999, 686.4518
767.0820, 678.9413
767.5641, 670.2585
768.0463, 701.3788
768.5284, 659.1536
769.0105, 689.6426
769.4926, 691.1055
769.9747, 705.8528
770.4568, 691.8337
770.9390, 686.6998
771.4211, 689.9172
771.9032, 691.0985
772.3853, 689.1579
772.8674, 684.7812
773.3495, 678.3416
773.8317, 667.0354
774.3138, 661.9777
774.7959, 674.0192
775.2780, 685.6901
775.7601, 681.9394
776.2422, 670.1374
776.7244, 665.8743
777.2065, 673.0608
777.6886, 678.9315
778.1707, 664.9890
778.6528, 645.7631
779.1349, 656.1255
779.6171, 688.5415
780.0992, 702.2497
780.5813, 685.9612
781.0634, 662.0970
781.5455, 651.2992
782.0276, 651.8072
782.5098, 654.6718
782.9919, 661.3602
783.4740, 665.7599
783.9561, 667.8345
784.4382, 666.2864
784.9203, 655.6803
785.4025, 641.3936
785.8846, 637.9123
786.3667, 652.5757
786.8488, 661.3591
787.3309, 655.2691
787.8130, 646.8305
788.2952, 643.1116
788.7773, 642.3414
789.2594, 640.1389
789.7415, 635.5909
790.2236, 633.1353
790.7057, 637.0216
791.1879, 644.2468
791.6700, 653.0353
792.1521, 661.5728
792.6342, 664.3168
793.1163, 660.0699
793.5984, 651.0032
794.0806, 637.3978
794.5627, 623.0894
795.0448, 624.6183
795.5269, 645.3840
796.0090, 653.2737
796.4911, 639.5356
796.9733, 623.3986
797.4554, 616.6473
797.9375, 616.6776
798.4196, 616.9995
798.9017, 619.3740
799.3839, 617.9022
799.8660, 604.5120
800.3481, 596.4190
800.8302, 607.6550
801.3123, 624.4125
801.7944, 627.6938
802.2766, 615.4209
802.7587, 604.3627
803.2408, 602.1302
803.7229, 604.7367
804.2050, 611.8137
804.6871, 620.3992
805.1693, 626.5032
805.6514, 629.2267
806.1335, 628.2827
806.6156, 622.6447
807.0977, 616.2563
807.5798, 617.5165
808.0620, 624.9556
808.5441, 628.2004
809.0262, 626.0389
809.5083, 623.7155
809.9904, 623.8943
810.4725, 625.7614
810.9547, 628.2048
811.4368, 631.7029
811.9189, 632.1769
812.4010, 625.8296
812.8831, 623.1290
813.3652, 633.0657
813.8474, 643.4032
814.3295, 641.1492
814.8116, 627.6729
815.2937, 616.3147
815.7758, 604.2308
816.2579, 600.8441
816.7401, 618.1760
817.2222, 637.7123
817.7043, 643.0132
818.1864, 637.0578
818.6685, 630.9978
819.1506, 628.8134
819.6328, 629.5046
820.1149, 636.3057
820.5970, 643.0632
821.0791, 638.9481
821.5612, 626.3254
822.0433, 612.7789
822.5255, 601.3928
823.0076, 596.5202
823.4897, 605.1111
823.9718, 622.8412
824.4539, 631.4944
824.9360, 630.7669
825.4182, 627.1850
825.9003, 620.8109
826.3824, 617.2823
826.8645, 622.6793
827.3466, 633.0314
827.8287, 633.6003
828.3109, 615.1759
828.7930, 606.7065
829.2751, 617.5426
829.7573, 627.1135
830.2394, 625.7723
830.7215, 619.5712
831.2036, 615.9605
831.6857, 615.5767
832.1678, 616.5872
832.6500, 620.7751
833.1321, 623.6635
833.6142, 621.2420
834.0963, 617.6862
834.5784, 618.8138
835.0605, 623.6378
835.5427, 625.6058
836.0248, 620.6525
836.5069, 614.2090
836.9890, 611.2886
837.4711, 610.5721
837.9532, 609.6186
838.4354, 608.5679
838.9175, 609.2458
839.3996, 612.3947
839.8817, 616.1505
840.3638, 617.5399
840.8459, 617.4780
841.3281, 622.5742
841.8102, 633.1689
842.2923, 636.9678
842.7744, 629.2579
843.2565, 621.1172
843.7386, 623.3196
844.2208, 632.6052
844.7029, 633.0667
845.1850, 618.0465
845.6671, 610.7709
846.1492, 618.2226
846.6313, 625.6423
847.1135, 623.0840
847.5956, 617.2399
848.0777, 619.1748
848.5598, 630.9593
849.0419, 637.9030
849.5240, 636.6742
850.0062, 631.8572
850.4883, 621.6172
850.9704, 611.2173
851.4525, 604.3829
851.9346, 602.2162
852.4167, 606.8157
852.8989, 622.3896
853.3810, 637.1330
853.8631, 643.0578
854.3452, 643.0795
854.8273, 638.6553
855.3094, 631.6608
855.7916, 625.3109
856.2737, 620.9333
856.7558, 619.0494
857.2379, 621.5605
857.7200, 626.3794
858.2021, 629.4583
858.6843, 630.4146
859.1664, 625.1739
859.6485, 612.8896
860.1306, 603.1773
860.6127, 603.6284
861.0948, 611.8387
861.5770, 617.6891
862.0591, 612.6992
862.5412, 635.6999
863.0233, 648.2621
863.5054, 650.9468
863.9875, 614.1691
864.4697, 628.3484
864.9518, 622.1067
865.4339, 614.8455
865.9160, 617.4385
866.3981, 622.4141
866.8802, 625.8531
867.3624, 628.0570
867.8445, 627.7398
868.3266, 622.8205
868.8087, 614.7344
869.2908, 606.7818
869.7729, 596.3713
870.2551, 593.8426
870.7372, 612.3414
871.2193, 628.6127
871.7014, 623.0070
872.1835, 608.4096
872.6656, 604.1572
873.1478, 613.3817
873.6299, 625.7581
874.1120, 640.0354
874.5941, 649.9568
875.0762, 647.5417
875.5583, 638.7485
876.0405, 630.5317
876.5226, 624.5918
877.0047, 623.1870
877.4868, 627.7863
877.9689, 630.9886
878.4510, 618.2713
878.9332, 598.9109
879.4153, 599.1799
879.8974, 616.4984
880.3795, 632.4891
880.8616, 641.6135
881.3438, 647.5183
881.8259, 653.4546
882.3080, 658.8000
882.7901, 662.5414
883.2722, 664.9426
883.7543, 657.1848
884.2365, 635.1266
884.7186, 619.9424
885.2007, 624.6492
885.6828, 638.8025
886.1649, 645.3771
886.6470, 643.9615
887.1292, 637.5259
887.6113, 619.3582
888.0934, 610.4105
888.5755, 620.9230
889.0576, 636.0650
889.5397, 644.9501
890.0219, 648.3651
890.5040, 650.2690
890.9861, 653.8436
891.4682, 649.8078
891.9503, 627.1198
892.4324, 608.4592
892.9146, 608.3519
893.3967, 615.6918
893.8788, 614.3810
894.3609, 603.6480
894.8430, 600.2222
895.3251, 619.1192
895.8073, 634.1774
896.2894, 630.9493
896.7715, 620.6489
897.2536, 612.4678
897.7357, 606.9177
898.2178, 601.4639
898.7000, 595.1051
899.1821, 591.0015
899.6642, 592.6871
900.1463, 596.7084
900.6284, 601.9463
901.1105, 605.7885
901.5927, 600.3765
902.0748, 586.8524
902.5569, 579.6196
903.0390, 590.1953
903.5211, 604.7808
904.0032, 598.5540
904.4854, 582.2957
904.9675, 590.0505
905.4496, 618.1588
905.9317, 629.9952
906.4138, 611.3323
906.8959, 586.1166
907.3781, 581.7479
907.8602, 591.7582
908.3423, 589.8463
908.8244, 576.7353
909.3065, 573.3463
909.7886, 583.8376
910.2708, 595.0364
910.7529, 598.8604
911.2350, 598.0135
911.7171, 597.4871
912.1992, 597.2422
912.6813, 597.5348
913.1635, 597.8339
913.6456, 601.3168
914.1277, 611.3297
914.6098, 619.6063
915.0919, 617.7345
915.5740, 607.8381
916.0562, 600.3583
916.5383, 593.7841
917.0204, 593.1780
917.5025, 603.3892
917.9846, 612.7790
918.4667, 615.3426
918.9489, 615.3372
919.4310, 619.9838
919.9131, 629.4867
920.3952, 630.7841
920.8773, 613.9713
921.3594, 602.2750
921.8416, 602.0220
922.3237, 605.4067
922.8058, 606.9183
923.2879, 608.6083
923.7700, 616.7769
924.2521, 634.2460
924.7343, 644.0748
925.2164, 635.5337
925.6985, 625.4105
926.1806, 620.2095
926.6627, 618.4092
927.1448, 619.1885
927.6270, 621.5999
928.1091, 623.4131
928.5912, 623.5787
929.0733, 624.0007
929.5554, 626.2814
930.0375, 628.7505
930.5197, 630.0467
931.0018, 630.4462
931.4839, 631.8370
931.9660, 633.6286
932.4481, 630.2020
932.9302, 614.4751
933.4124, 599.4302
933.8945, 600.3215
934.3766, 607.8416
934.8587, 607.2852
935.3408, 601.1949
935.8229, 601.9778
936.3051, 613.3359
936.7872, 624.2067
937.2693, 623.7660
937.7514, 617.4711
938.2335, 612.0364
938.7156, 608.3928
939.1978, 610.0421
939.6799, 616.4873
940.1620, 622.9774
940.6441, 627.1244
941.1262, 628.2541
941.6083, 624.7978
942.0905, 617.7117
942.5726, 607.9037
943.0547, 596.6942
943.5368, 592.8317
944.0189, 598.0759
944.5010, 606.5258
944.9832, 614.6177
945.4653, 620.2599
945.9474, 615.8884
946.4295, 603.3119
946.9116, 606.4577
947.3937, 626.4154
947.8759, 636.3809
948.3580, 626.6896
948.8401, 614.1234
949.3222, 616.0104
949.8043, 626.3956
950.2864, 620.4626
950.7686, 595.9758
951.2507, 584.6011
951.7328, 590.5004
952.2149, 601.5272
952.6970, 614.8064
953.1791, 623.2081
953.6613, 615.1011
954.1434, 593.0773
954.6255, 588.5093
955.1076, 607.4368
955.5897, 619.0971
956.0718, 616.0114
956.5540, 615.5486
957.0361, 630.0711
957.5182, 649.0264
958.0003, 653.6663
958.4824, 642.7301
958.9645, 632.6384
959.4467, 617.1766
959.9288, 590.5513
960.4109, 615.5857
960.8930, 630.1816
961.3751, 634.8998
961.8572, 600.1558
962.3394, 616.3694
962.8215, 612.1612
963.3036, 607.1158
963.7857, 630.5012
964.2678, 601.4969
964.7499, 624.4313
965.2321, 625.1891
965.7142, 623.6796
966.1963, 623.1096
966.6784, 628.6333
967.1605, 648.4433
967.6426, 655.8934
968.1248, 636.5533
968.6069, 622.7902
969.0890, 630.1680
969.5711, 643.2135
970.0532, 648.5694
970.5353, 646.5009
971.0175, 640.3291
971.4996, 625.3026
971.9817, 615.1679
972.4638, 614.0642
972.9459, 614.8633
973.4280, 615.3893
973.9102, 615.5136
974.3923, 617.0107
974.8744, 619.0931
975.3565, 613.9631
975.8386, 587.1185
976.3207, 572.3955
976.8029, 584.7449
977.2850, 601.6520
977.7671, 614.0462
978.2492, 621.0810
978.7313, 621.3218
979.2134, 615.0066
979.6956, 609.2302
980.1777, 605.5306
980.6598, 602.8474
981.1419, 598.0618
981.6240, 596.9700
982.1061, 607.6813
982.5883, 623.2107
983.0704, 631.6768
983.5525, 631.1645
984.0346, 628.3211
984.5167, 621.6984
984.9988, 617.6727
985.4810, 621.2657
985.9631, 626.1707
986.4452, 627.2195
986.9273, 625.6072
987.4094, 625.2414
987.8915, 627.1689
988.3737, 625.2181
988.8558, 612.0848
989.3379, 600.8781
989.8200, 599.4302
990.3021, 601.3980
990.7842, 600.4755
991.2664, 598.0791
991.7485, 600.4469
992.2306, 610.2478
992.7127, 613.3673
993.1948, 595.7910
993.6769, 579.8284
994.1591, 578.3848
994.6412, 584.0306
995.1233, 591.4512
995.6054, 598.5650
996.0875, 600.8420
996.5696, 594.9659
997.0518, 597.9536
997.5339, 633.8939
998.0160, 661.8666
998.4981, 646.1726
998.9802, 617.6426
999.4623, 612.3271
999.9445, 626.1729
1000.427, 633.5118
1000.909, 625.5234
1001.391, 616.2435
1001.873, 609.3774
1002.355, 606.3693
1002.837, 609.5982
1003.319, 616.1555
1003.801, 626.3290
1004.284, 636.7389
1004.766, 636.9900
1005.248, 621.1630
1005.730, 606.2743
1006.212, 600.1499
1006.694, 597.5049
1007.176, 595.0696
1007.658, 594.0379
1008.140, 597.4143
1008.623, 603.8412
1009.105, 608.0865
1009.587, 608.8662
1010.069, 605.9682
1010.551, 593.3907
1011.033, 583.6440
1011.515, 585.6196
1011.997, 594.4536
1012.479, 607.8387
1012.962, 622.3569
1013.444, 627.3633
1013.926, 614.7619
1014.408, 607.6943
1014.890, 623.4666
1015.372, 639.0324
1015.854, 641.4652
1016.336, 634.7426
1016.819, 620.5680
1017.301, 602.2884
1017.783, 589.4033
1018.265, 584.9741
1018.747, 585.0816
1019.229, 593.6417
1019.711, 600.1953
1020.193, 598.6398
1020.675, 591.9130
1021.158, 582.0254
1021.640, 570.3312
1022.122, 559.9905
1022.604, 550.9064
1023.086, 545.5387
1023.568, 545.5610
1024.050, 548.4478
1024.532, 554.1796
1025.015, 561.1758
1025.497, 567.9236
1025.979, 574.4396
1026.461, 582.0448
1026.943, 593.3337
1027.425, 599.2822
1027.907, 594.2078
1028.389, 587.5403
1028.871, 578.1010
1029.354, 573.2995
1029.836, 587.0839
1030.318, 612.5582
1030.800, 621.0635
1031.282, 602.2525
1031.764, 583.3696
1032.246, 558.4627
1032.728, 546.8052
1033.210, 567.3421
1033.693, 594.4603
1034.175, 605.0572
1034.657, 601.8911
1035.139, 597.8231
1035.621, 591.4232
1036.103, 590.4413
1036.585, 605.1911
1037.067, 612.5958
1037.550, 595.0912
1038.032, 577.1459
1038.514, 584.1153
1038.996, 606.8127
1039.478, 613.6703
1039.960, 595.5953
1040.442, 588.7522
1040.924, 604.4365
1041.406, 613.5377
1041.889, 602.0700
1042.371, 590.5500
1042.853, 596.7278
1043.335, 613.3222
1043.817, 620.7473
1044.299, 615.5870
1044.781, 617.3409
1045.263, 633.4719
1045.745, 639.7654
1046.228, 626.3298
1046.710, 610.1813
1047.192, 602.1924
1047.674, 600.3600
1048.156, 600.4539
1048.638, 602.4756
1049.120, 607.0798
1049.602, 616.1985
1050.085, 620.8297
1050.567, 618.0364
1051.049, 614.2398
1051.531, 613.4200
1052.013, 614.0101
1052.495, 613.0228
1052.977, 610.5488
1053.459, 610.3804
1053.942, 612.6623
1054.424, 617.0394
1054.906, 624.2693
1055.388, 628.1027
1055.870, 625.1923
1056.352, 616.5840
1056.834, 600.2919
1057.316, 580.8980
1057.798, 593.4732
1058.281, 635.9652
1058.763, 644.2261
1059.245, 610.4002
1059.727, 580.7563
1060.209, 576.0441
1060.691, 585.8371
1061.173, 601.3668
1061.655, 618.0640
1062.137, 622.0501
1062.620, 615.4846
1063.102, 606.0875
1063.584, 595.7139
1064.066, 589.2905
1064.548, 588.7190
1065.030, 596.2065
1065.512, 617.8093
1065.994, 639.6882
1066.477, 634.0735
1066.959, 612.0215
1067.441, 593.7487
1067.923, 582.6863
1068.405, 585.9538
1068.887, 603.0109
1069.369, 617.3075
1069.851, 617.3388
1070.333, 611.3079
1070.816, 604.4537
1071.298, 600.1257
1071.780, 605.5109
1072.262, 615.9918
1072.744, 623.0334
1073.226, 624.9330
1073.708, 622.8928
1074.190, 616.3810
1074.672, 610.9586
1075.155, 611.1642
1075.637, 613.5004
1076.119, 612.1769
1076.601, 613.0378
1077.083, 629.5851
1077.565, 655.5378
1078.047, 666.2672
1078.530, 651.5729
1079.012, 638.5578
1079.494, 641.3702
1079.976, 644.4574
1080.458, 637.6702
1080.940, 629.9712
1081.422, 633.2308
1081.904, 641.0686
1082.386, 636.0510
1082.869, 613.5148
1083.351, 598.8083
1083.833, 597.1396
1084.315, 601.7049
1084.797, 617.0249
1085.279, 631.7888
1085.761, 641.3305
1086.243, 644.8906
1086.725, 638.4651
1087.208, 621.8442
1087.690, 616.4467
1088.172, 630.2240
1088.654, 637.9657
1089.136, 636.0825
1089.618, 630.9454
1090.100, 622.6739
1090.582, 616.6240
1091.065, 619.2715
1091.547, 629.1925
1092.029, 640.4160
1092.511, 654.4432
1092.993, 657.2809
1093.475, 645.3907
1093.957, 644.3342
1094.439, 664.4965
1094.922, 681.7267
1095.404, 675.6192
1095.886, 654.9092
1096.368, 636.2502
1096.850, 620.2980
1097.332, 614.9109
1097.814, 618.8016
1098.296, 618.9915
1098.778, 613.3963
1099.260, 612.1873
1099.743, 621.5175
1100.225, 632.9884
1100.707, 636.5876
1101.189, 634.2867
1101.671, 624.2368
1102.153, 613.5920
1102.635, 624.0620
1103.117, 650.9708
1103.600, 668.6826
1104.082, 668.0276
1104.564, 662.2211
1105.046, 658.8712
1105.528, 657.9825
1106.010, 663.2423
1106.492, 667.9394
1106.974, 660.9959
1107.457, 648.9747
1107.939, 645.8427
1108.421, 653.0926
1108.903, 660.2852
1109.385, 664.6744
1109.867, 665.5320
1110.349, 656.4168
1110.831, 650.6807
1111.313, 662.7235
1111.796, 677.4343
1112.278, 675.5407
1112.760, 660.5536
1113.242, 651.2680
1113.724, 651.3686
1114.206, 652.2032
1114.688, 653.9529
1115.170, 655.3001
1115.652, 654.1230
1116.135, 655.2997
1116.617, 666.4645
1117.099, 678.2446
1117.581, 671.6281
1118.063, 646.0956
1118.545, 624.5468
1119.027, 603.8562
1119.509, 604.8697
1119.992, 635.8505
1120.474, 658.5719
1120.956, 654.4571
1121.438, 642.1022
1121.920, 643.3511
1122.402, 651.8571
1122.884, 645.1658
1123.366, 626.4248
1123.849, 617.0146
1124.331, 617.4551
1124.813, 621.3156
1125.295, 626.5042
1125.777, 632.2512
1126.259, 638.4513
1126.741, 642.6467
1127.223, 640.4332
1127.705, 635.0915
1128.188, 628.3947
1128.670, 624.1718
1129.152, 633.8453
1129.634, 652.8870
1130.116, 661.8323
1130.598, 653.5946
1131.080, 643.5996
1131.562, 642.7565
1132.044, 641.6052
1132.527, 630.4631
1133.009, 620.1151
1133.491, 622.9415
1133.973, 631.9376
1134.455, 632.8363
1134.937, 625.1127
1135.419, 624.4542
1135.901, 640.1506
1136.384, 652.3480
1136.866, 658.3837
1137.348, 660.9091
1137.830, 658.0361
1138.312, 655.3445
1138.794, 659.4229
1139.276, 666.4377
1139.758, 664.2093
1140.240, 650.2881
1140.723, 645.7546
1141.205, 653.4203
1141.687, 655.7576
1142.169, 648.2690
1142.651, 643.4575
1143.133, 648.4545
1143.615, 657.9725
1144.097, 666.6769
1144.579, 672.4531
1145.062, 664.3156
1145.544, 647.0093
1146.026, 644.6157
1146.508, 655.1669
1146.990, 658.7716
1147.472, 650.0627
1147.954, 636.4893
1148.436, 620.5422
1148.919, 612.3552
1149.401, 631.2557
1149.883, 655.8590
1150.365, 660.5077
1150.847, 654.0856
1151.329, 650.7070
1151.811, 650.7955
1152.293, 648.3951
1152.776, 641.6617
1153.258, 634.4393
1153.740, 625.2759
1154.222, 619.9483
1154.704, 621.8619
1155.186, 626.8585
1155.668, 636.7944
1156.150, 645.3979
1156.632, 639.3535
1157.115, 621.3922
1157.597, 619.2792
1158.079, 644.9559
1158.561, 654.0839
1159.043, 639.8946
1159.525, 625.9723
1160.007, 617.8677
1160.489, 615.8082
1160.971, 621.0399
1161.454, 629.3287
1161.936, 632.7410
1162.418, 631.9018
1162.900, 630.5272
1163.382, 628.6568
1163.864, 625.0630
1164.346, 620.6462
1164.828, 622.6821
1165.311, 633.4736
1165.793, 645.4042
1166.275, 652.8088
1166.757, 656.6235
1167.239, 658.2625
1167.721, 656.6791
1168.203, 647.6130
1168.685, 635.9207
1169.167, 631.3337
1169.650, 632.4482
1170.132, 626.7188
1170.614, 606.7030
1171.096, 599.1757
1171.578, 628.6921
1172.060, 650.9804
1172.542, 642.7561
1173.024, 630.1722
1173.506, 632.1996
1173.989, 640.6949
1174.471, 642.6879
1174.953, 639.0289
1175.435, 641.9507
1175.917, 656.7038
1176.399, 655.7031
1176.881, 632.8782
1177.363, 620.0632
1177.846, 628.1455
1178.328, 639.0420
1178.810, 639.6058
1179.292, 634.6389
1179.774, 631.1002
1180.256, 629.2228
1180.738, 629.2921
1181.220, 631.7257
1181.703, 641.1618
1182.185, 654.4755
1182.667, 657.0641
1183.149, 645.4090
1183.631, 635.1821
1184.113, 638.3176
1184.595, 642.5169
1185.077, 636.5467
1185.559, 629.9752
1186.042, 631.3289
1186.524, 636.1505
1187.006, 639.1971
1187.488, 640.2094
1187.970, 639.7925
1188.452, 636.8420
1188.934, 638.4548
1189.416, 652.4743
1189.898, 657.4050
1190.381, 643.5237
1190.863, 634.1353
1191.345, 641.8450
1191.827, 655.3997
1192.309, 662.8057
1192.791, 664.8387
1193.273, 663.3200
1193.755, 658.5556
1194.238, 653.9413
1194.720, 650.2683
1195.202, 656.3025
1195.684, 671.5973
1196.166, 676.8802
1196.648, 662.2783
1197.130, 646.1252
1197.612, 646.5610
1198.094, 654.2889
1198.577, 663.9678
1199.059, 670.7405
1199.541, 665.9008
1200.023, 655.2558
1200.505, 649.4400
1200.987, 649.2203
1201.469, 648.6361
1201.951, 647.4410
1202.433, 642.3631
1202.916, 626.0903
1203.398, 615.7968
1203.880, 622.3442
1204.362, 625.8918
1204.844, 610.3027
1205.326, 591.6624
1205.808, 596.7291
1206.290, 619.4570
1206.773, 616.4817
1207.255, 587.7782
1207.737, 572.5494
1208.219, 572.9610
1208.701, 585.0275
1209.183, 606.7925
1209.665, 632.1266
1210.147, 658.4187
1210.630, 673.1640
1211.112, 647.5268
1211.594, 617.2033
1212.076, 635.3753
1212.558, 668.7595
1213.040, 673.4003
1213.522, 657.5226
1214.004, 642.7715
1214.486, 633.8549
1214.969, 631.7260
1215.451, 641.3860
1215.933, 647.1998
1216.415, 641.6835
1216.897, 639.3817
1217.379, 648.7867
1217.861, 655.0939
1218.343, 647.6285
1218.825, 633.1045
1219.308, 621.0347
1219.790, 612.0087
1220.272, 610.6641
1220.754, 616.5486
1221.236, 621.3648
1221.718, 624.8934
1222.200, 632.6959
1222.682, 644.9998
1223.165, 651.2603
1223.647, 644.7020
1224.129, 634.5955
1224.611, 628.7032
1225.093, 625.1399
1225.575, 620.3891
1226.057, 618.4551
1226.539, 628.3202
1227.021, 642.0247
1227.504, 643.8660
1227.986, 633.5108
1228.468, 626.4534
1228.950, 622.9615
1229.432, 628.4652
1229.914, 654.4359
1230.396, 664.4648
1230.878, 642.5704
1231.360, 589.6638
1231.843, 611.6024
1232.325, 623.1069
1232.807, 624.7334
1233.289, 586.8981
1233.771, 600.0197
1234.253, 592.7199
1234.735, 584.5833
1235.217, 604.8769
1235.700, 572.7776
1236.182, 592.6205
1236.664, 591.7309
1237.146, 590.6658
1237.628, 585.9757
1238.110, 566.9998
1238.592, 556.4055
1239.074, 576.4918
1239.557, 599.1490
1240.039, 603.6114
1240.521, 598.2614
1241.003, 593.1024
1241.485, 589.1263
1241.967, 588.8317
1242.449, 592.4017
1242.931, 599.5370
1243.413, 611.4908
1243.896, 618.4450
1244.378, 618.6871
1244.860, 616.3999
1245.342, 613.4001
1245.824, 607.7540
1246.306, 595.4291
1246.788, 586.6295
1247.270, 603.5279
1247.752, 627.8049
1248.235, 632.4640
1248.717, 625.7128
1249.199, 618.8101
1249.681, 615.2569
1250.163, 619.9073
1250.645, 633.7950
1251.127, 643.9295
1251.609, 648.8475
1252.092, 646.7076
1252.574, 628.4440
1253.056, 618.6013
1253.538, 628.7354
1254.020, 640.8389
1254.502, 642.1194
1254.984, 636.3556
1255.466, 628.1138
1255.948, 619.8458
##END=



