##NAMES=Manganoneptunite
##RRUFFID=R060901
##IDEAL CHEMISTRY=KNa_2_LiMn^2+^_2_Ti^4+^_2_Si_8_O_24_
##LOCALITY=Mont St. Hilaire, Quebec, Canada
##OWNER=RRUFF
##SOURCE=Royal Ontario Museum
##DESCRIPTION=Dark reddish-brown single crystal cleavage fragment.
##STATUS=The identification of this mineral has been confirmed by X-ray diffraction and chemical analysis
##URL=rruff.info/R060901
##MEASURED CHEMISTRY=(K_0.92_Na_0.08_)_Σ=1_Na_2.00_Li_1.00_(Mn^2+^_1.44_Zn_0.25_Mg_0.20_Fe^3+^_0.11_)_Σ=2_(Ti_1.89_Fe^3+^_0.08_Al_0.03_)_Σ=2_Si_8.00_O_24_ ; Li not measured but estimated by difference and stoichiometry; Fe as Fe3 by charge balance
119.5989, 125.4742
120.0811, 125.1029
120.5632, 128.0408
121.0453, 135.0545
121.5274, 147.7243
122.0095, 165.7487
122.4916, 184.0888
122.9738, 199.8512
123.4559, 219.1874
123.9380, 242.9119
124.4201, 271.9000
124.9022, 308.3473
125.3843, 356.9411
125.8665, 419.5356
126.3486, 478.7512
126.8307, 539.8998
127.3128, 592.9464
127.7949, 631.0735
128.2770, 654.8926
128.7592, 670.7834
129.2413, 685.3013
129.7234, 697.7339
130.2055, 711.0570
130.6876, 736.5229
131.1697, 755.1115
131.6519, 754.6788
132.1340, 733.2193
132.6161, 697.7615
133.0982, 657.1924
133.5803, 605.1343
134.0624, 560.7093
134.5446, 526.7239
135.0267, 497.5681
135.5088, 468.6613
135.9909, 438.6674
136.4730, 410.4511
136.9551, 388.9226
137.4373, 371.9656
137.9194, 366.7164
138.4015, 379.4364
138.8836, 400.3012
139.3657, 419.5281
139.8478, 433.3896
140.3300, 445.2075
140.8121, 463.6249
141.2942, 493.0689
141.7763, 524.6742
142.2584, 559.4964
142.7405, 595.9825
143.2227, 632.2045
143.7048, 667.4202
144.1869, 702.0308
144.6690, 738.0622
145.1511, 779.0997
145.6333, 817.1445
146.1154, 849.3332
146.5975, 878.0233
147.0796, 908.4077
147.5617, 943.8052
148.0438, 981.2672
148.5260, 1006.151
149.0081, 1015.478
149.4902, 1018.864
149.9723, 1018.105
150.4544, 1013.352
150.9365, 1004.500
151.4187, 991.3312
151.9008, 974.0645
152.3829, 954.7955
152.8650, 932.0809
153.3471, 909.1702
153.8292, 887.4995
154.3114, 866.7118
154.7935, 844.8303
155.2756, 818.9050
155.7577, 791.8586
156.2398, 776.8322
156.7219, 785.1242
157.2041, 793.8952
157.6862, 787.9117
158.1683, 770.0662
158.6504, 755.9721
159.1325, 755.6130
159.6146, 767.7463
160.0968, 779.9263
160.5789, 793.8417
161.0610, 806.3619
161.5431, 814.8825
162.0252, 819.6387
162.5073, 823.4750
162.9895, 828.7335
163.4716, 834.3740
163.9537, 836.6371
164.4358, 830.9738
164.9179, 825.0333
165.4000, 825.7253
165.8822, 833.0392
166.3643, 841.0026
166.8464, 845.7164
167.3285, 848.0261
167.8106, 851.0388
168.2927, 857.0048
168.7749, 862.5501
169.2570, 863.8361
169.7391, 860.6251
170.2212, 857.2094
170.7033, 856.8233
171.1854, 858.3361
171.6676, 858.8115
172.1497, 857.2361
172.6318, 854.7506
173.1139, 852.4451
173.5960, 850.3184
174.0781, 848.3935
174.5603, 847.0481
175.0424, 845.9022
175.5245, 844.1091
176.0066, 839.8446
176.4887, 835.6997
176.9708, 836.4393
177.4530, 843.3159
177.9351, 847.7646
178.4172, 839.5671
178.8993, 825.4221
179.3814, 817.6315
179.8635, 823.4063
180.3457, 834.8894
180.8278, 841.8071
181.3099, 843.5117
181.7920, 843.4424
182.2741, 841.3505
182.7562, 839.1520
183.2384, 840.3151
183.7205, 847.3000
184.2026, 857.2778
184.6847, 866.1843
185.1668, 873.5438
185.6489, 881.4890
186.1311, 891.4584
186.6132, 902.8251
187.0953, 915.0325
187.5774, 928.7850
188.0595, 942.7554
188.5416, 953.5198
189.0238, 959.4425
189.5059, 968.7120
189.9880, 988.4089
190.4701, 1014.077
190.9522, 1040.280
191.4343, 1065.949
191.9165, 1091.031
192.3986, 1114.771
192.8807, 1136.468
193.3628, 1160.014
193.8449, 1193.363
194.3270, 1228.665
194.8092, 1254.705
195.2913, 1265.606
195.7734, 1268.187
196.2555, 1272.489
196.7376, 1279.313
197.2197, 1284.567
197.7019, 1285.296
198.1840, 1283.430
198.6661, 1281.097
199.1482, 1279.845
199.6303, 1277.310
200.1124, 1269.800
200.5946, 1256.637
201.0767, 1241.658
201.5588, 1226.287
202.0409, 1210.185
202.5230, 1192.501
203.0051, 1172.527
203.4873, 1151.750
203.9694, 1132.141
204.4515, 1113.931
204.9336, 1095.785
205.4157, 1075.702
205.8978, 1055.921
206.3800, 1039.433
206.8621, 1027.679
207.3442, 1017.720
207.8263, 1006.040
208.3084, 992.3951
208.7905, 979.0293
209.2727, 966.3698
209.7548, 954.7959
210.2369, 944.9343
210.7190, 937.2852
211.2011, 930.5565
211.6832, 922.7557
212.1654, 913.6785
212.6475, 907.3924
213.1296, 908.1229
213.6117, 910.9052
214.0938, 910.7766
214.5759, 906.9589
215.0581, 900.6888
215.5402, 892.0114
216.0223, 880.9574
216.5044, 871.1544
216.9865, 863.8807
217.4686, 858.4073
217.9508, 854.7042
218.4329, 853.5089
218.9150, 850.4284
219.3971, 839.1758
219.8792, 820.7190
220.3613, 808.4638
220.8435, 810.5333
221.3256, 816.3552
221.8077, 813.7718
222.2898, 801.6160
222.7719, 788.8145
223.2540, 781.4939
223.7362, 778.8605
224.2183, 776.6539
224.7004, 773.7981
225.1825, 771.2702
225.6646, 770.6745
226.1467, 772.0989
226.6289, 772.2883
227.1110, 766.4109
227.5931, 757.3775
228.0752, 756.1576
228.5573, 768.4606
229.0394, 782.9385
229.5216, 787.0834
230.0037, 781.7744
230.4858, 776.3541
230.9679, 773.5264
231.4500, 773.5783
231.9321, 778.2776
232.4143, 789.5947
232.8964, 801.1572
233.3785, 806.0367
233.8606, 805.4211
234.3427, 804.5724
234.8248, 805.3093
235.3070, 806.7824
235.7891, 807.6557
236.2712, 807.7357
236.7533, 807.5565
237.2354, 807.3393
237.7175, 807.1732
238.1997, 807.5994
238.6818, 809.7966
239.1639, 812.0743
239.6460, 811.2461
240.1281, 806.9021
240.6102, 804.9697
241.0924, 811.7302
241.5745, 825.2473
242.0566, 834.6078
242.5387, 836.4199
243.0208, 835.6826
243.5029, 836.0370
243.9851, 837.4844
244.4672, 839.0154
244.9493, 840.3715
245.4314, 841.1872
245.9135, 840.3625
246.3956, 836.1365
246.8778, 831.9641
247.3599, 829.7391
247.8420, 829.1937
248.3241, 829.6846
248.8062, 831.5345
249.2883, 833.6421
249.7705, 832.2363
250.2526, 826.1558
250.7347, 818.7014
251.2168, 809.0017
251.6989, 798.8179
252.1810, 792.1553
252.6632, 791.0464
253.1453, 793.4853
253.6274, 794.7255
254.1095, 793.9652
254.5916, 793.5690
255.0737, 793.8826
255.5559, 794.8254
256.0380, 796.3738
256.5201, 798.5292
257.0022, 801.0857
257.4843, 803.7357
257.9665, 806.4144
258.4486, 809.3292
258.9307, 811.4661
259.4128, 814.4269
259.8949, 820.0969
260.3770, 828.7089
260.8592, 838.4856
261.3413, 847.4987
261.8234, 855.8837
262.3055, 862.7559
262.7876, 866.3782
263.2697, 870.0779
263.7519, 875.3989
264.2340, 882.6588
264.7161, 892.1302
265.1982, 904.4554
265.6803, 920.3025
266.1624, 932.9232
266.6446, 938.8499
267.1267, 945.4650
267.6088, 956.2580
268.0909, 970.0802
268.5730, 983.5514
269.0551, 994.1063
269.5373, 1002.229
270.0194, 1013.021
270.5015, 1029.958
270.9836, 1046.084
271.4657, 1060.369
271.9478, 1073.131
272.4300, 1084.345
272.9121, 1093.873
273.3942, 1102.910
273.8763, 1115.547
274.3584, 1134.400
274.8405, 1152.652
275.3227, 1168.964
275.8048, 1184.343
276.2869, 1199.860
276.7690, 1215.774
277.2511, 1231.811
277.7332, 1248.059
278.2154, 1265.602
278.6975, 1279.777
279.1796, 1291.868
279.6617, 1299.209
280.1438, 1297.256
280.6259, 1286.415
281.1081, 1275.117
281.5902, 1273.705
282.0723, 1283.048
282.5544, 1286.551
283.0365, 1279.138
283.5186, 1269.074
284.0008, 1262.591
284.4829, 1258.202
284.9650, 1249.330
285.4471, 1228.188
285.9292, 1198.105
286.4113, 1174.228
286.8935, 1159.220
287.3756, 1145.769
287.8577, 1128.040
288.3398, 1108.642
288.8219, 1092.938
289.3040, 1083.677
289.7862, 1078.845
290.2683, 1076.254
290.7504, 1076.389
291.2325, 1075.707
291.7146, 1070.086
292.1967, 1063.229
292.6789, 1061.543
293.1610, 1068.008
293.6431, 1076.677
294.1252, 1082.851
294.6073, 1086.972
295.0894, 1091.622
295.5716, 1097.080
296.0537, 1104.462
296.5358, 1115.413
297.0179, 1129.852
297.5000, 1147.234
297.9821, 1170.542
298.4643, 1195.972
298.9464, 1214.133
299.4285, 1220.907
299.9106, 1228.243
300.3927, 1254.837
300.8748, 1305.684
301.3570, 1350.494
301.8391, 1381.117
302.3212, 1407.538
302.8033, 1437.335
303.2854, 1471.933
303.7675, 1511.120
304.2497, 1555.573
304.7318, 1605.833
305.2139, 1654.851
305.6960, 1698.547
306.1781, 1745.308
306.6602, 1804.060
307.1424, 1869.262
307.6245, 1928.004
308.1066, 1971.927
308.5887, 2003.148
309.0708, 2033.652
309.5529, 2073.774
310.0351, 2100.506
310.5172, 2107.070
310.9993, 2100.276
311.4814, 2088.256
311.9635, 2074.158
312.4456, 2054.668
312.9278, 2022.666
313.4099, 1973.911
313.8920, 1921.138
314.3741, 1860.574
314.8562, 1800.261
315.3383, 1744.523
315.8205, 1694.356
316.3026, 1649.427
316.7847, 1610.370
317.2668, 1577.821
317.7489, 1544.415
318.2310, 1505.157
318.7132, 1470.623
319.1953, 1445.995
319.6774, 1429.639
320.1595, 1416.506
320.6416, 1403.609
321.1237, 1391.833
321.6059, 1385.066
322.0880, 1385.951
322.5701, 1384.760
323.0522, 1372.161
323.5343, 1356.103
324.0164, 1346.568
324.4986, 1346.424
324.9807, 1352.703
325.4628, 1367.348
325.9449, 1389.427
326.4270, 1400.560
326.9091, 1390.470
327.3913, 1369.629
327.8734, 1352.984
328.3555, 1340.123
328.8376, 1332.783
329.3197, 1334.417
329.8018, 1341.566
330.2840, 1348.593
330.7661, 1354.606
331.2482, 1358.667
331.7303, 1358.289
332.2124, 1352.718
332.6945, 1352.977
333.1767, 1364.460
333.6588, 1378.500
334.1409, 1388.223
334.6230, 1394.043
335.1051, 1401.321
335.5872, 1414.842
336.0694, 1433.354
336.5515, 1442.914
337.0336, 1431.583
337.5157, 1426.434
337.9978, 1437.123
338.4799, 1457.158
338.9621, 1479.292
339.4442, 1500.503
339.9263, 1517.024
340.4084, 1519.615
340.8905, 1494.988
341.3727, 1480.067
341.8548, 1485.454
342.3369, 1492.427
342.8190, 1486.746
343.3011, 1467.688
343.7832, 1445.677
344.2654, 1432.369
344.7475, 1428.683
345.2296, 1417.311
345.7117, 1389.888
346.1938, 1363.842
346.6759, 1347.115
347.1581, 1336.588
347.6402, 1325.973
348.1223, 1311.991
348.6044, 1295.856
349.0865, 1280.604
349.5686, 1266.993
350.0508, 1250.979
350.5329, 1228.345
351.0150, 1203.628
351.4971, 1182.026
351.9792, 1165.091
352.4613, 1148.597
352.9435, 1129.279
353.4256, 1107.762
353.9077, 1085.983
354.3898, 1064.050
354.8719, 1043.096
355.3540, 1024.764
355.8362, 1008.923
356.3183, 994.3424
356.8004, 982.2355
357.2825, 970.4914
357.7646, 957.2484
358.2467, 942.2926
358.7289, 925.6830
359.2110, 906.3305
359.6931, 884.9684
360.1752, 870.1365
360.6573, 869.3071
361.1394, 865.6149
361.6216, 850.1548
362.1037, 829.0491
362.5858, 813.3336
363.0679, 807.6968
363.5500, 806.2991
364.0321, 796.5433
364.5143, 767.8622
364.9964, 749.2897
365.4785, 747.2711
365.9606, 749.1256
366.4427, 746.8729
366.9248, 739.8039
367.4070, 731.5759
367.8891, 725.6056
368.3712, 721.8279
368.8533, 717.5081
369.3354, 711.4359
369.8175, 706.4553
370.2997, 702.0123
370.7818, 699.5504
371.2639, 702.2972
371.7460, 713.5825
372.2281, 726.5069
372.7102, 729.7463
373.1924, 722.2779
373.6745, 715.0366
374.1566, 709.8107
374.6387, 707.9063
375.1208, 711.0260
375.6029, 719.7568
376.0851, 729.0411
376.5672, 737.2753
377.0493, 744.1212
377.5314, 747.4486
378.0135, 746.2600
378.4956, 747.2553
378.9778, 757.8840
379.4599, 778.2604
379.9420, 793.8723
380.4241, 800.0627
380.9062, 805.6533
381.3883, 817.0904
381.8705, 832.0048
382.3526, 843.2374
382.8347, 846.6160
383.3168, 845.9024
383.7989, 851.6073
384.2810, 872.8406
384.7632, 888.6145
385.2453, 894.5685
385.7274, 897.7382
386.2095, 905.4336
386.6916, 917.7927
387.1737, 927.7960
387.6559, 927.3288
388.1380, 915.6601
388.6201, 904.6418
389.1022, 894.9020
389.5843, 885.1099
390.0664, 873.5216
390.5486, 861.7241
391.0307, 853.2050
391.5128, 850.8465
391.9949, 849.7246
392.4770, 840.6320
392.9591, 822.6035
393.4413, 805.3556
393.9234, 791.8211
394.4055, 780.4825
394.8876, 769.8081
395.3697, 759.8746
395.8518, 749.6461
396.3340, 737.7808
396.8161, 725.5908
397.2982, 715.2499
397.7803, 707.0370
398.2624, 700.8671
398.7445, 697.3068
399.2267, 696.2092
399.7088, 693.4141
400.1909, 689.3964
400.6730, 683.2889
401.1551, 670.8696
401.6372, 656.5519
402.1194, 649.8718
402.6015, 655.1792
403.0836, 666.1251
403.5657, 669.4459
404.0478, 657.7286
404.5299, 651.8179
405.0121, 657.1385
405.4942, 663.0875
405.9763, 661.2172
406.4584, 652.9262
406.9405, 646.7415
407.4226, 650.8417
407.9048, 663.1711
408.3869, 668.6563
408.8690, 662.1100
409.3511, 658.2727
409.8332, 665.9411
410.3153, 677.4485
410.7975, 684.0571
411.2796, 683.2165
411.7617, 678.4527
412.2438, 670.2367
412.7259, 659.8656
413.2080, 656.3196
413.6902, 663.6852
414.1723, 674.1042
414.6544, 678.5380
415.1365, 677.7080
415.6186, 678.0071
416.1007, 682.5900
416.5829, 687.2825
417.0650, 689.0052
417.5471, 687.7459
418.0292, 683.7835
418.5113, 676.6125
418.9934, 667.9821
419.4756, 663.9081
419.9577, 671.5336
420.4398, 674.5318
420.9219, 669.1395
421.4040, 660.6835
421.8861, 652.3605
422.3683, 645.4565
422.8504, 641.8631
423.3325, 644.9703
423.8146, 655.1094
424.2967, 658.6469
424.7788, 649.7614
425.2610, 641.6133
425.7431, 640.7113
426.2252, 642.7545
426.7073, 640.6987
427.1894, 630.9214
427.6715, 619.7369
428.1537, 616.6426
428.6358, 621.1366
429.1179, 621.3688
429.6000, 612.5258
430.0821, 601.1586
430.5642, 595.7756
431.0464, 595.9908
431.5285, 592.4683
432.0106, 578.9290
432.4927, 563.0979
432.9748, 552.1086
433.4569, 546.0686
433.9391, 542.6805
434.4212, 541.1017
434.9033, 540.5635
435.3854, 538.0056
435.8675, 530.4094
436.3496, 524.7521
436.8318, 523.6108
437.3139, 523.3596
437.7960, 520.1865
438.2781, 513.8176
438.7602, 507.2411
439.2423, 503.6624
439.7245, 503.1049
440.2066, 502.1304
440.6887, 499.4251
441.1708, 498.2009
441.6529, 502.4024
442.1350, 507.6893
442.6172, 506.9372
443.0993, 496.2587
443.5814, 484.6283
444.0635, 483.4857
444.5456, 491.3291
445.0277, 496.0882
445.5099, 495.0107
445.9920, 490.2460
446.4741, 481.7755
446.9562, 470.0132
447.4383, 463.1488
447.9204, 467.3102
448.4026, 472.8477
448.8847, 471.1149
449.3668, 464.1678
449.8489, 460.3239
450.3310, 464.2549
450.8131, 472.3066
451.2953, 474.9659
451.7774, 466.8306
452.2595, 461.3591
452.7416, 459.9130
453.2237, 459.9597
453.7059, 459.7289
454.1880, 459.2383
454.6701, 459.6838
455.1522, 462.3633
455.6343, 466.6736
456.1165, 470.2206
456.5986, 474.2859
457.0807, 474.5255
457.5628, 462.3683
458.0449, 448.9052
458.5270, 447.0090
459.0092, 460.3400
459.4913, 473.8387
459.9734, 476.0789
460.4555, 471.5988
460.9376, 470.5461
461.4197, 474.5809
461.9019, 479.9403
462.3840, 483.5252
462.8661, 485.4551
463.3482, 488.3362
463.8303, 494.9893
464.3124, 499.3192
464.7946, 497.6756
465.2767, 492.9680
465.7588, 488.2654
466.2409, 484.8020
466.7230, 484.3663
467.2051, 490.8187
467.6873, 506.9662
468.1694, 516.4121
468.6515, 510.9767
469.1336, 507.0686
469.6157, 511.6326
470.0978, 521.7245
470.5800, 532.0683
471.0621, 541.4526
471.5442, 547.8053
472.0263, 546.0258
472.5084, 536.7130
472.9905, 531.5574
473.4727, 533.7775
473.9548, 540.8532
474.4369, 551.7289
474.9190, 566.2190
475.4011, 578.1541
475.8832, 585.3259
476.3654, 590.5201
476.8475, 594.8939
477.3296, 599.0378
477.8117, 604.1259
478.2938, 610.7069
478.7759, 618.8413
479.2581, 629.0355
479.7402, 645.4074
480.2223, 656.3845
480.7044, 656.5186
481.1865, 656.4346
481.6686, 662.6727
482.1508, 674.6038
482.6329, 688.1419
483.1150, 701.7275
483.5971, 714.0914
484.0792, 720.6868
484.5613, 719.8927
485.0435, 722.4615
485.5256, 734.6774
486.0077, 750.1699
486.4898, 759.9116
486.9719, 762.9692
487.4540, 768.4619
487.9362, 784.6152
488.4183, 802.1583
488.9004, 809.4642
489.3825, 806.7049
489.8646, 801.5302
490.3467, 798.3013
490.8289, 797.0643
491.3110, 798.0107
491.7931, 805.2179
492.2752, 809.1656
492.7573, 809.4656
493.2394, 806.4687
493.7216, 799.8839
494.2037, 790.0850
494.6858, 778.4364
495.1679, 765.2943
495.6500, 751.2922
496.1321, 739.2734
496.6143, 729.5803
497.0964, 720.9838
497.5785, 713.5668
498.0606, 706.7622
498.5427, 699.3699
499.0248, 690.7319
499.5070, 684.7836
499.9891, 686.1561
500.4712, 690.0942
500.9533, 689.5659
501.4354, 684.0801
501.9175, 677.2590
502.3997, 670.9734
502.8818, 665.8890
503.3639, 666.0088
503.8460, 677.6310
504.3281, 686.5711
504.8102, 690.3444
505.2924, 691.8701
505.7745, 692.6758
506.2566, 693.5601
506.7387, 696.1330
507.2208, 703.4440
507.7029, 713.7034
508.1851, 716.9871
508.6672, 711.0313
509.1493, 704.8095
509.6314, 702.9440
510.1135, 702.3840
510.5956, 699.0652
511.0778, 692.1914
511.5599, 685.0464
512.0420, 678.1849
512.5241, 672.3699
513.0062, 669.3385
513.4883, 668.9127
513.9705, 668.2127
514.4526, 665.0659
514.9347, 660.0914
515.4168, 656.5586
515.8989, 656.4936
516.3810, 655.1873
516.8632, 648.9078
517.3453, 643.7186
517.8274, 645.6394
518.3095, 654.2573
518.7916, 663.6534
519.2737, 669.1794
519.7559, 671.7488
520.2380, 674.7725
520.7201, 678.7521
521.2022, 680.2953
521.6843, 674.6448
522.1664, 668.2325
522.6486, 671.5414
523.1307, 686.7050
523.6128, 700.1994
524.0949, 706.7080
524.5770, 710.1611
525.0591, 714.6143
525.5413, 719.9447
526.0234, 723.8073
526.5055, 724.7595
526.9876, 723.2628
527.4697, 720.5402
527.9518, 714.3922
528.4340, 711.2420
528.9161, 712.5734
529.3982, 715.7220
529.8803, 720.6627
530.3624, 726.1978
530.8445, 729.0363
531.3267, 727.2188
531.8088, 721.6280
532.2909, 711.4922
532.7730, 696.9594
533.2551, 688.7509
533.7372, 693.0463
534.2194, 701.1559
534.7015, 698.9445
535.1836, 684.3030
535.6657, 676.7203
536.1478, 683.8567
536.6299, 693.3334
537.1121, 698.7875
537.5942, 700.3292
538.0763, 698.4709
538.5584, 693.3611
539.0405, 688.2182
539.5226, 689.8677
540.0048, 700.7031
540.4869, 707.9850
540.9690, 711.1220
541.4511, 710.3405
541.9332, 703.6203
542.4153, 693.5496
542.8975, 685.9996
543.3796, 684.4393
543.8617, 683.1192
544.3438, 674.6053
544.8259, 662.4106
545.3080, 657.3751
545.7902, 662.3571
546.2723, 670.1254
546.7544, 673.8714
547.2365, 673.5245
547.7186, 671.1581
548.2007, 663.7850
548.6829, 658.1895
549.1650, 654.7091
549.6471, 654.4768
550.1292, 661.3746
550.6113, 675.1142
551.0934, 686.2931
551.5756, 682.9844
552.0577, 668.0588
552.5398, 659.1733
553.0219, 658.0485
553.5040, 657.4067
553.9861, 654.5510
554.4683, 649.4843
554.9504, 641.7617
555.4325, 629.2531
555.9146, 620.7183
556.3967, 623.1914
556.8788, 627.9217
557.3610, 625.5095
557.8431, 616.6403
558.3252, 608.2979
558.8073, 605.0418
559.2894, 604.9237
559.7715, 602.0250
560.2537, 595.4813
560.7358, 588.2642
561.2179, 578.1384
561.7000, 569.6270
562.1821, 566.0331
562.6642, 566.3706
563.1464, 566.9276
563.6285, 566.6935
564.1106, 565.3064
564.5927, 562.3549
565.0748, 557.8988
565.5569, 551.6008
566.0391, 542.9722
566.5212, 534.9133
567.0033, 531.2981
567.4854, 533.0275
567.9675, 531.9413
568.4496, 523.9015
568.9318, 518.2399
569.4139, 519.8036
569.8960, 524.3271
570.3781, 525.7717
570.8602, 522.7590
571.3423, 520.2820
571.8245, 524.5272
572.3066, 533.9241
572.7887, 540.8476
573.2708, 544.8260
573.7529, 547.4605
574.2350, 549.8693
574.7172, 551.2763
575.1993, 549.3351
575.6814, 541.1457
576.1635, 537.5616
576.6456, 545.6235
577.1277, 555.6742
577.6099, 558.5248
578.0920, 555.6819
578.5741, 555.4521
579.0562, 563.1863
579.5383, 574.1094
580.0204, 575.9604
580.5026, 565.8947
580.9847, 559.4337
581.4668, 560.0611
581.9489, 563.0273
582.4310, 564.6827
582.9131, 565.9299
583.3953, 569.6933
583.8774, 579.9476
584.3595, 588.8307
584.8416, 589.1945
585.3237, 584.9154
585.8058, 583.8675
586.2880, 587.6595
586.7701, 591.7520
587.2522, 591.6421
587.7343, 587.5488
588.2164, 583.8666
588.6985, 582.0337
589.1807, 578.3807
589.6628, 572.0458
590.1449, 563.9615
590.6270, 555.0190
591.1091, 545.2501
591.5912, 533.7554
592.0734, 518.3230
592.5555, 501.7462
593.0376, 487.8765
593.5197, 476.5845
594.0018, 467.1176
594.4839, 459.4548
594.9661, 452.5999
595.4482, 444.9304
595.9303, 435.5872
596.4124, 428.5309
596.8945, 425.7433
597.3766, 422.7424
597.8588, 417.1385
598.3409, 410.5054
598.8230, 405.7800
599.3051, 403.8797
599.7872, 401.5539
600.2693, 394.0543
600.7515, 383.2427
601.2336, 377.0284
601.7157, 376.6208
602.1978, 375.2411
602.6799, 368.2270
603.1620, 358.2174
603.6442, 352.2231
604.1263, 351.3217
604.6084, 351.6593
605.0905, 354.1740
605.5726, 356.6710
606.0547, 357.9074
606.5369, 357.8405
607.0190, 357.0016
607.5011, 355.7658
607.9832, 353.2178
608.4653, 346.4887
608.9474, 335.6755
609.4296, 328.7781
609.9117, 327.4453
610.3938, 328.8315
610.8759, 332.2552
611.3580, 336.8279
611.8401, 339.0867
612.3223, 338.4531
612.8044, 336.2267
613.2865, 330.4727
613.7686, 324.7781
614.2507, 323.0925
614.7328, 325.3454
615.2150, 329.0733
615.6971, 332.9282
616.1792, 336.2296
616.6613, 336.4413
617.1434, 332.7589
617.6255, 331.0311
618.1077, 334.0631
618.5898, 337.1941
619.0719, 335.2050
619.5540, 329.4717
620.0361, 326.1243
620.5182, 327.1308
621.0004, 329.6365
621.4825, 333.4944
621.9646, 337.4863
622.4467, 339.7252
622.9288, 340.0124
623.4109, 339.6906
623.8931, 339.7887
624.3752, 340.3744
624.8573, 341.9515
625.3394, 344.9190
625.8215, 347.6815
626.3036, 350.5657
626.7858, 352.3936
627.2679, 352.0484
627.7500, 349.6590
628.2321, 346.5521
628.7142, 339.5897
629.1964, 335.4730
629.6785, 340.2639
630.1606, 350.4814
630.6427, 360.4891
631.1248, 368.6173
631.6069, 375.0006
632.0891, 379.4726
632.5712, 382.2251
633.0533, 385.3739
633.5354, 388.4924
634.0175, 393.0902
634.4996, 401.7625
634.9818, 410.5316
635.4639, 413.2802
635.9460, 410.3065
636.4281, 414.6712
636.9102, 438.9116
637.3923, 464.2702
637.8745, 473.7267
638.3566, 474.0188
638.8387, 480.2781
639.3208, 496.9919
639.8029, 517.5402
640.2850, 534.5615
640.7672, 548.1559
641.2493, 558.9227
641.7314, 562.9867
642.2135, 572.7297
642.6956, 595.9234
643.1777, 624.3676
643.6599, 651.4094
644.1420, 676.7756
644.6241, 698.8825
645.1062, 715.7053
645.5883, 730.4700
646.0704, 745.5669
646.5526, 760.6036
647.0347, 773.8767
647.5168, 784.9272
647.9989, 796.0644
648.4810, 810.2819
648.9631, 827.5775
649.4453, 843.8101
649.9274, 859.4421
650.4095, 873.0879
650.8916, 883.6273
651.3737, 892.2564
651.8558, 900.6293
652.3380, 908.8626
652.8201, 913.9916
653.3022, 915.4989
653.7843, 913.2184
654.2664, 905.9728
654.7485, 895.0428
655.2307, 882.8149
655.7128, 870.0570
656.1949, 856.3005
656.6770, 841.7231
657.1591, 825.9740
657.6412, 802.4441
658.1234, 767.0626
658.6055, 735.9410
659.0876, 716.4519
659.5697, 702.3036
660.0518, 685.6814
660.5339, 666.4669
661.0161, 647.6956
661.4982, 628.1027
661.9803, 611.0227
662.4624, 599.8048
662.9445, 592.0308
663.4266, 582.7569
663.9088, 571.1677
664.3909, 562.7442
664.8730, 564.9238
665.3551, 575.1844
665.8372, 578.9016
666.3193, 574.5054
666.8015, 571.9770
667.2836, 574.4814
667.7657, 580.4527
668.2478, 588.7330
668.7299, 599.3641
669.2120, 609.4775
669.6942, 618.1464
670.1763, 627.0245
670.6584, 637.3725
671.1405, 648.0038
671.6226, 656.7613
672.1047, 663.6467
672.5869, 671.4908
673.0690, 683.0261
673.5511, 697.0255
674.0332, 710.8715
674.5153, 724.6249
674.9974, 735.0795
675.4796, 740.4432
675.9617, 744.1695
676.4438, 749.6060
676.9259, 756.7967
677.4080, 765.7951
677.8901, 778.9728
678.3723, 790.7592
678.8544, 796.3737
679.3365, 802.4846
679.8186, 816.7385
680.3007, 838.4122
680.7828, 859.4883
681.2650, 873.9036
681.7471, 886.1956
682.2292, 901.8370
682.7113, 920.8733
683.1934, 944.2728
683.6755, 972.2988
684.1577, 1002.899
684.6398, 1034.137
685.1219, 1066.306
685.6040, 1101.282
686.0861, 1136.481
686.5682, 1178.746
687.0504, 1235.698
687.5325, 1293.273
688.0146, 1338.554
688.4967, 1376.246
688.9788, 1423.436
689.4609, 1493.703
689.9431, 1562.297
690.4252, 1602.899
690.9073, 1629.706
691.3894, 1672.209
691.8715, 1732.289
692.3536, 1786.943
692.8358, 1820.295
693.3179, 1837.664
693.8000, 1856.471
694.2821, 1882.464
694.7642, 1889.297
695.2463, 1869.917
695.7285, 1836.939
696.2106, 1795.908
696.6927, 1747.310
697.1748, 1692.281
697.6569, 1631.045
698.1390, 1562.497
698.6212, 1481.187
699.1033, 1396.178
699.5854, 1313.168
700.0675, 1234.556
700.5496, 1164.202
701.0317, 1103.925
701.5139, 1050.765
701.9960, 999.3993
702.4781, 950.4885
702.9602, 911.6100
703.4423, 885.6373
703.9244, 857.7082
704.4066, 816.7838
704.8887, 773.1570
705.3708, 745.9713
705.8529, 739.6334
706.3350, 732.9163
706.8171, 725.7311
707.2993, 717.2480
707.7814, 704.8722
708.2635, 692.0532
708.7456, 683.5340
709.2277, 680.1882
709.7098, 678.8155
710.1920, 676.8727
710.6741, 675.2241
711.1562, 676.7914
711.6383, 680.6320
712.1204, 680.5672
712.6025, 674.3734
713.0847, 666.1487
713.5668, 660.2925
714.0489, 656.7931
714.5310, 654.1953
715.0131, 655.0698
715.4952, 652.5380
715.9774, 642.7938
716.4595, 631.4663
716.9416, 622.4210
717.4237, 615.4496
717.9058, 608.6645
718.3879, 603.7681
718.8701, 595.8390
719.3522, 580.0478
719.8343, 560.1768
720.3164, 539.3347
720.7985, 519.3892
721.2806, 505.6790
721.7628, 502.6490
722.2449, 504.3983
722.7270, 497.1854
723.2091, 480.4829
723.6912, 464.4700
724.1733, 449.4956
724.6555, 437.5016
725.1376, 430.1245
725.6197, 426.5788
726.1018, 425.0302
726.5839, 427.3084
727.0660, 427.1007
727.5482, 423.4089
728.0303, 417.5392
728.5124, 405.7620
728.9945, 393.8945
729.4766, 392.8283
729.9587, 405.8137
730.4409, 419.2934
730.9230, 420.1817
731.4051, 414.6755
731.8872, 414.3157
732.3693, 418.4988
732.8514, 421.0317
733.3336, 419.5249
733.8157, 417.2261
734.2978, 418.5249
734.7799, 423.4518
735.2620, 425.7737
735.7441, 424.7690
736.2263, 422.4765
736.7084, 415.0391
737.1905, 410.0385
737.6726, 415.9340
738.1547, 430.8720
738.6368, 442.4128
739.1190, 444.6524
739.6011, 446.6337
740.0832, 454.6279
740.5653, 463.2035
741.0474, 464.5492
741.5295, 459.8318
742.0117, 456.9925
742.4938, 460.9012
742.9759, 468.6184
743.4580, 475.9051
743.9401, 482.8032
744.4222, 490.4904
744.9044, 499.4994
745.3865, 504.4774
745.8686, 500.2874
746.3507, 492.8455
746.8328, 496.4466
747.3149, 516.4717
747.7971, 533.0489
748.2792, 545.1236
748.7613, 554.8952
749.2434, 562.2554
749.7255, 568.1002
750.2076, 574.1669
750.6898, 580.6783
751.1719, 584.0187
751.6540, 577.2081
752.1361, 571.3503
752.6182, 579.1557
753.1003, 594.3358
753.5825, 603.7734
754.0646, 604.7493
754.5467, 604.1833
755.0288, 608.1049
755.5109, 615.3246
755.9930, 623.1855
756.4752, 631.9247
756.9573, 635.4797
757.4394, 630.4368
757.9215, 626.8864
758.4036, 634.4695
758.8857, 650.0466
759.3679, 658.6236
759.8500, 651.6595
760.3321, 650.0541
760.8142, 658.5323
761.2963, 667.7594
761.7784, 673.4548
762.2606, 676.1558
762.7427, 677.1962
763.2248, 676.7458
763.7069, 676.2113
764.1890, 675.8613
764.6711, 676.3172
765.1533, 680.1089
765.6354, 685.2502
766.1175, 685.7593
766.5996, 679.8001
767.0817, 671.5443
767.5638, 665.4265
768.0460, 661.1505
768.5281, 655.9892
769.0102, 649.1192
769.4923, 648.9691
769.9744, 661.1816
770.4565, 672.9567
770.9387, 670.2269
771.4208, 655.0022
771.9029, 648.8607
772.3850, 659.2866
772.8671, 667.8770
773.3492, 674.2321
773.8314, 677.4192
774.3135, 676.3202
774.7956, 671.7250
775.2777, 664.6878
775.7598, 654.7280
776.2419, 646.2821
776.7241, 642.9974
777.2062, 642.3234
777.6883, 641.8018
778.1704, 641.1129
778.6525, 640.9227
779.1346, 641.3142
779.6168, 638.9900
780.0989, 627.9472
780.5810, 610.7266
781.0631, 602.7623
781.5452, 604.8441
782.0273, 607.6599
782.5095, 609.5357
782.9916, 608.7433
783.4737, 602.6887
783.9558, 591.9066
784.4379, 583.9072
784.9200, 581.1909
785.4022, 577.6119
785.8843, 572.8358
786.3664, 567.0259
786.8485, 559.5815
787.3306, 551.3256
787.8127, 543.5679
788.2949, 536.1049
788.7770, 531.2257
789.2591, 532.1658
789.7412, 534.6652
790.2233, 535.9296
790.7054, 535.0643
791.1876, 529.5172
791.6697, 518.9158
792.1518, 509.2525
792.6339, 507.7789
793.1160, 511.6711
793.5981, 511.9489
794.0803, 508.8866
794.5624, 507.5646
795.0445, 509.4835
795.5266, 511.9981
796.0087, 511.9194
796.4908, 510.6660
796.9730, 517.7720
797.4551, 542.1085
797.9372, 554.4670
798.4193, 538.5739
798.9014, 526.0958
799.3835, 542.4194
799.8657, 571.1453
800.3478, 579.9612
800.8299, 559.6760
801.3120, 543.3307
801.7941, 539.7886
802.2762, 542.9382
802.7584, 550.1367
803.2405, 560.9580
803.7226, 576.5057
804.2047, 596.3168
804.6868, 616.1783
805.1689, 632.4948
805.6511, 647.6416
806.1332, 662.6737
806.6153, 679.5050
807.0974, 704.7698
807.5795, 739.2050
808.0616, 776.0296
808.5438, 810.2509
809.0259, 844.0977
809.5080, 883.0442
809.9901, 927.3684
810.4722, 973.9867
810.9543, 1020.459
811.4365, 1076.080
811.9186, 1145.675
812.4007, 1226.091
812.8828, 1311.957
813.3649, 1401.273
813.8470, 1504.625
814.3292, 1621.686
814.8113, 1752.794
815.2934, 1899.581
815.7755, 2059.052
816.2576, 2227.520
816.7397, 2406.124
817.2219, 2602.964
817.7040, 2828.267
818.1861, 3060.118
818.6682, 3273.772
819.1503, 3493.828
819.6324, 3753.724
820.1146, 4045.681
820.5967, 4343.992
821.0788, 4635.211
821.5609, 4914.083
822.0430, 5175.133
822.5251, 5417.394
823.0073, 5639.453
823.4894, 5840.674
823.9716, 5999.792
824.4537, 6110.219
824.9358, 6174.520
825.4179, 6192.425
825.9000, 6167.745
826.3821, 6130.917
826.8643, 6089.092
827.3464, 6008.231
827.8285, 5869.371
828.3106, 5712.815
828.7927, 5556.760
829.2748, 5405.581
829.7570, 5271.265
830.2391, 5163.592
830.7212, 5046.696
831.2033, 4906.278
831.6854, 4770.519
832.1675, 4643.121
832.6497, 4532.958
833.1318, 4454.685
833.6139, 4407.700
834.0960, 4367.614
834.5781, 4319.939
835.0602, 4278.312
835.5424, 4264.798
836.0245, 4256.687
836.5066, 4211.650
836.9887, 4137.537
837.4708, 4088.180
837.9529, 4095.820
838.4351, 4111.909
838.9172, 4066.467
839.3993, 3976.728
839.8814, 3896.771
840.3635, 3828.701
840.8456, 3758.159
841.3278, 3680.323
841.8099, 3592.005
842.2920, 3486.834
842.7741, 3367.531
843.2562, 3254.844
843.7383, 3152.643
844.2205, 3043.920
844.7026, 2925.194
845.1847, 2800.512
845.6668, 2667.207
846.1489, 2530.446
846.6310, 2406.500
847.1132, 2302.323
847.5953, 2197.213
848.0774, 2085.434
848.5595, 1978.772
849.0416, 1880.016
849.5237, 1789.891
850.0059, 1711.479
850.4880, 1644.291
850.9701, 1576.880
851.4522, 1500.043
851.9343, 1428.110
852.4164, 1371.460
852.8986, 1322.113
853.3807, 1270.840
853.8628, 1218.827
854.3449, 1174.820
854.8270, 1143.579
855.3091, 1115.955
855.7913, 1081.457
856.2734, 1045.561
856.7555, 1019.900
857.2376, 1002.009
857.7197, 980.4216
858.2018, 951.5698
858.6840, 922.7412
859.1661, 901.3523
859.6482, 885.4763
860.1303, 868.0042
860.6124, 848.9903
861.0945, 834.0594
861.5767, 825.0468
862.0588, 813.3670
862.5409, 792.1950
863.0230, 767.0085
863.5051, 750.5135
863.9872, 745.7091
864.4694, 735.3306
864.9515, 714.9151
865.4336, 697.3169
865.9157, 687.5662
866.3978, 681.6588
866.8799, 675.8275
867.3621, 670.1144
867.8442, 665.1597
868.3263, 663.2914
868.8084, 658.9110
869.2905, 647.9600
869.7726, 637.4186
870.2548, 633.0499
870.7369, 631.9228
871.2190, 628.1736
871.7011, 620.3634
872.1832, 612.3513
872.6653, 604.5256
873.1475, 598.4956
873.6296, 597.2520
874.1117, 597.5858
874.5938, 594.5454
875.0759, 588.0931
875.5580, 582.3604
876.0402, 580.2096
876.5223, 578.1042
877.0044, 570.9910
877.4865, 561.5695
877.9686, 554.4590
878.4507, 550.0553
878.9329, 548.8199
879.4150, 550.7662
879.8971, 552.1786
880.3792, 549.0199
880.8613, 541.8511
881.3434, 530.0033
881.8256, 514.2463
882.3077, 508.7339
882.7898, 517.1013
883.2719, 526.2240
883.7540, 527.1627
884.2361, 522.5399
884.7183, 517.5471
885.2004, 511.0440
885.6825, 511.7235
886.1646, 522.7219
886.6467, 532.3276
887.1288, 536.5166
887.6110, 537.4374
888.0931, 536.2286
888.5752, 533.2197
889.0573, 534.8958
889.5394, 551.3719
890.0215, 556.5806
890.5037, 537.5064
890.9858, 519.2012
891.4679, 517.4275
891.9500, 523.7090
892.4321, 522.9679
892.9142, 512.5347
893.3964, 504.9369
893.8785, 504.4060
894.3606, 505.2017
894.8427, 506.7911
895.3248, 507.1768
895.8069, 504.2916
896.2891, 498.4469
896.7712, 490.8317
897.2533, 480.4780
897.7354, 472.8526
898.2175, 472.7734
898.6996, 475.6828
899.1818, 479.0195
899.6639, 481.3058
900.1460, 479.4782
900.6281, 473.4794
901.1102, 468.3090
901.5923, 467.9910
902.0745, 469.8751
902.5566, 471.9709
903.0387, 473.2106
903.5208, 470.8696
904.0029, 465.1774
904.4850, 457.7173
904.9672, 449.2359
905.4493, 443.4489
905.9314, 448.0045
906.4135, 458.8546
906.8956, 460.0131
907.3777, 452.6394
907.8599, 447.7269
908.3420, 447.8579
908.8241, 449.1887
909.3062, 449.2474
909.7883, 447.1632
910.2704, 439.6015
910.7526, 426.0812
911.2347, 416.3888
911.7168, 411.2427
912.1989, 407.8708
912.6810, 405.3019
913.1631, 404.1082
913.6453, 405.6585
914.1274, 409.3108
914.6095, 407.7120
915.0916, 396.7003
915.5737, 392.1763
916.0558, 399.4581
916.5380, 407.0916
917.0201, 408.7990
917.5022, 407.1888
917.9843, 406.5157
918.4664, 406.7021
918.9485, 408.2936
919.4307, 409.9614
919.9128, 414.8557
920.3949, 427.6154
920.8770, 440.0341
921.3591, 445.1866
921.8412, 445.4254
922.3234, 447.5674
922.8055, 453.0335
923.2876, 458.3414
923.7697, 461.6179
924.2518, 466.0011
924.7339, 472.5000
925.2161, 481.2003
925.6982, 494.6205
926.1803, 510.9121
926.6624, 521.0021
927.1445, 518.6106
927.6266, 515.7734
928.1088, 514.5632
928.5909, 518.3782
929.0730, 535.0588
929.5551, 556.8680
930.0372, 569.0533
930.5193, 569.3334
931.0015, 570.8635
931.4836, 583.6741
931.9657, 598.2791
932.4478, 606.6556
932.9299, 612.0354
933.4120, 619.3107
933.8942, 627.6871
934.3763, 633.5155
934.8584, 635.3927
935.3405, 633.7433
935.8226, 625.7488
936.3047, 616.8147
936.7869, 616.8054
937.2690, 621.5015
937.7511, 621.4652
938.2332, 615.2907
938.7153, 604.7529
939.1974, 590.1987
939.6796, 578.1600
940.1617, 582.0001
940.6438, 593.9919
941.1259, 592.4543
941.6080, 579.0370
942.0901, 564.4054
942.5723, 551.5504
943.0544, 540.7485
943.5365, 532.4160
944.0186, 525.2772
944.5007, 515.7463
944.9828, 504.5951
945.4650, 497.7658
945.9471, 495.5936
946.4292, 496.7525
946.9113, 501.1131
947.3934, 503.5700
947.8755, 497.9553
948.3577, 486.7101
948.8398, 479.9225
949.3219, 477.7337
949.8040, 475.7987
950.2861, 473.4500
950.7682, 473.5013
951.2504, 478.1599
951.7325, 482.8100
952.2146, 480.1478
952.6967, 470.8587
953.1788, 467.8948
953.6609, 473.7241
954.1431, 472.7680
954.6252, 459.9950
955.1073, 447.9738
955.5894, 444.8177
956.0715, 446.4983
956.5536, 445.2817
957.0358, 440.7640
957.5179, 437.1185
958.0000, 434.6353
958.4821, 432.4809
958.9642, 431.5884
959.4464, 428.8803
959.9285, 420.3384
960.4106, 409.2579
960.8927, 405.0668
961.3748, 410.3040
961.8569, 413.6018
962.3391, 415.9142
962.8212, 414.4287
963.3033, 404.9360
963.7854, 395.1067
964.2675, 391.4802
964.7496, 393.1047
965.2318, 396.1112
965.7139, 404.9732
966.1960, 406.0401
966.6781, 388.1242
967.1602, 376.4183
967.6423, 385.1644
968.1245, 398.9805
968.6066, 402.1630
969.0887, 396.2154
969.5708, 393.0045
970.0529, 394.3073
970.5350, 396.3802
971.0172, 401.8287
971.4993, 404.6878
971.9814, 399.8280
972.4635, 392.5576
972.9456, 389.0572
973.4277, 389.4807
973.9099, 390.7717
974.3920, 395.7537
974.8741, 396.8273
975.3562, 388.6106
975.8383, 380.6079
976.3204, 378.7972
976.8026, 380.1378
977.2847, 379.7432
977.7668, 377.2251
978.2489, 376.4510
978.7310, 382.5244
979.2131, 384.4252
979.6953, 374.6552
980.1774, 364.2162
980.6595, 360.1665
981.1416, 360.7559
981.6237, 363.3359
982.1058, 367.5114
982.5880, 369.4905
983.0701, 365.4721
983.5522, 362.7163
984.0343, 366.2712
984.5164, 369.8933
984.9985, 365.8825
985.4807, 359.1002
985.9628, 360.7023
986.4449, 373.2245
986.9270, 383.1998
987.4091, 382.1472
987.8912, 382.4944
988.3734, 392.5566
988.8555, 404.0870
989.3376, 410.0023
989.8197, 411.3439
990.3018, 411.9032
990.7839, 412.5641
991.2661, 412.1014
991.7482, 408.9851
992.2303, 405.9014
992.7124, 403.4647
993.1945, 402.3525
993.6766, 402.5361
994.1588, 404.6909
994.6409, 411.2269
995.1230, 423.5278
995.6051, 433.3007
996.0872, 436.0252
996.5693, 436.2386
997.0515, 434.3001
997.5336, 432.8701
998.0157, 437.4083
998.4978, 444.4272
998.9799, 442.4626
999.4620, 426.4377
999.9442, 415.2396
1000.426, 422.3339
1000.908, 431.1694
1001.391, 431.4877
1001.873, 428.6176
1002.355, 427.6177
1002.837, 429.0799
1003.319, 432.8637
1003.801, 439.4760
1004.283, 444.8110
1004.765, 446.4623
1005.247, 446.9340
1005.730, 447.9119
1006.212, 448.4478
1006.694, 445.5486
1007.176, 441.3398
1007.658, 442.6666
1008.140, 452.4734
1008.622, 462.6394
1009.104, 471.7950
1009.586, 477.6304
1010.069, 474.2132
1010.551, 470.1010
1011.033, 476.4762
1011.515, 490.5624
1011.997, 500.8064
1012.479, 502.9321
1012.961, 505.9116
1013.443, 515.0599
1013.926, 524.2887
1014.408, 528.6891
1014.890, 532.4635
1015.372, 541.4550
1015.854, 553.8385
1016.336, 562.8026
1016.818, 566.0051
1017.300, 568.7103
1017.782, 574.7211
1018.265, 578.6062
1018.747, 572.8635
1019.229, 567.2847
1019.711, 576.0981
1020.193, 593.2623
1020.675, 598.3864
1021.157, 583.9401
1021.639, 572.3029
1022.122, 576.3732
1022.604, 578.0339
1023.086, 564.2683
1023.568, 548.1908
1024.050, 543.6709
1024.532, 547.2042
1025.014, 547.1072
1025.496, 541.0810
1025.978, 532.2125
1026.461, 512.4228
1026.943, 501.3864
1027.425, 515.6783
1027.907, 534.0147
1028.389, 538.4048
1028.871, 532.4285
1029.353, 526.9852
1029.835, 522.9047
1030.318, 522.9654
1030.800, 530.7250
1031.282, 538.5729
1031.764, 546.6920
1032.246, 551.7065
1032.728, 548.5404
1033.210, 541.1241
1033.692, 537.8534
1034.174, 539.5870
1034.656, 544.2135
1035.139, 555.9846
1035.621, 564.3727
1036.103, 564.5042
1036.585, 563.1540
1037.067, 565.8503
1037.549, 569.6794
1038.031, 567.4908
1038.513, 557.0752
1038.996, 554.8585
1039.478, 572.4886
1039.960, 580.3193
1040.442, 567.3923
1040.924, 552.7085
1041.406, 547.5276
1041.888, 546.3588
1042.370, 540.0444
1042.853, 528.1686
1043.335, 518.6238
1043.817, 511.5359
1044.299, 506.5535
1044.781, 503.3241
1045.263, 502.9168
1045.745, 507.1615
1046.227, 513.0774
1046.709, 517.0032
1047.192, 518.8816
1047.674, 517.2028
1048.156, 509.8080
1048.638, 506.4156
1049.120, 510.1078
1049.602, 511.1170
1050.084, 503.5323
1050.566, 495.0995
1051.048, 495.2963
1051.531, 502.5328
1052.013, 508.2253
1052.495, 512.8831
1052.977, 511.4535
1053.459, 501.9617
1053.941, 496.2316
1054.423, 499.1230
1054.905, 504.6867
1055.388, 507.1704
1055.870, 507.6176
1056.352, 510.0326
1056.834, 514.3461
1057.316, 513.0340
1057.798, 505.6115
1058.280, 503.3987
1058.762, 509.9289
1059.245, 517.5175
1059.727, 520.0754
1060.209, 519.9302
1060.691, 522.1148
1061.173, 525.8883
1061.655, 527.6877
1062.137, 527.3616
1062.619, 523.3347
1063.101, 515.7501
1063.583, 510.9802
1064.066, 513.4428
1064.548, 515.8401
1065.030, 506.8683
1065.512, 490.4727
1065.994, 473.0043
1066.476, 456.9503
1066.958, 451.2726
1067.440, 455.3032
1067.923, 458.8581
1068.405, 457.1695
1068.887, 453.5331
1069.369, 451.7470
1069.851, 449.5942
1070.333, 441.6152
1070.815, 432.4238
1071.297, 431.7280
1071.780, 437.2453
1072.262, 439.5849
1072.744, 435.7259
1073.226, 429.2893
1073.708, 420.6389
1074.190, 413.2101
1074.672, 411.3217
1075.154, 410.7869
1075.636, 407.3509
1076.119, 401.6134
1076.601, 395.0541
1077.083, 388.1718
1077.565, 381.5683
1078.047, 373.5763
1078.529, 369.4041
1079.011, 376.6969
1079.493, 382.9771
1079.976, 378.0118
1080.458, 368.1386
1080.940, 360.6745
1081.422, 356.5191
1081.904, 355.4895
1082.386, 360.1615
1082.868, 361.5222
1083.350, 354.1858
1083.833, 347.9868
1084.315, 347.3753
1084.797, 348.7770
1085.279, 350.3600
1085.761, 351.2131
1086.243, 348.3805
1086.725, 340.2424
1087.207, 335.0695
1087.689, 334.2914
1088.172, 333.8205
1088.654, 333.0553
1089.136, 332.1270
1089.618, 330.6378
1090.100, 329.7060
1090.582, 332.1674
1091.064, 337.8811
1091.546, 336.1004
1092.028, 325.1261
1092.511, 314.8078
1092.993, 306.1988
1093.475, 298.4324
1093.957, 290.8695
1094.439, 285.4347
1094.921, 284.7193
1095.403, 287.3607
1095.885, 288.7963
1096.368, 289.0686
1096.850, 289.6462
1097.332, 290.2487
1097.814, 283.7097
1098.296, 268.3218
1098.778, 256.7169
1099.260, 259.2219
1099.742, 266.9121
1100.224, 265.4823
1100.707, 258.1493
1101.189, 251.5505
1101.671, 246.0723
1102.153, 241.9222
1102.635, 239.2835
1103.117, 239.3186
1103.599, 242.6773
1104.081, 245.4119
1104.563, 243.6693
1105.046, 239.7835
1105.528, 234.0902
1106.010, 229.2990
1106.492, 230.0492
1106.974, 234.5535
1107.456, 238.3672
1107.938, 240.2312
1108.420, 239.9330
1108.903, 235.8858
1109.385, 231.7894
1109.867, 227.1868
1110.349, 225.4235
1110.831, 232.1138
1111.313, 240.9688
1111.795, 241.2773
1112.277, 234.6378
1112.760, 236.3964
1113.242, 256.2883
1113.724, 267.7566
1114.206, 263.0209
1114.688, 256.3208
1115.170, 249.1240
1115.652, 244.3694
1116.134, 245.9460
1116.616, 250.5675
1117.099, 250.0414
1117.581, 243.4474
1118.063, 241.9133
1118.545, 247.8445
1119.027, 249.1833
1119.509, 242.3999
1119.991, 238.3425
1120.473, 243.3872
1120.955, 249.6734
1121.438, 246.4355
1121.920, 237.0302
1122.402, 235.8608
1122.884, 241.7325
1123.366, 241.9258
1123.848, 236.2703
1124.330, 232.5169
1124.812, 233.0039
1125.295, 236.1208
1125.777, 241.2364
1126.259, 245.5107
1126.741, 244.1191
1127.223, 239.7228
1127.705, 235.8528
1128.187, 233.2592
1128.669, 233.6776
1129.151, 236.5919
1129.634, 240.0539
1130.116, 243.3126
1130.598, 244.3579
1131.080, 239.7251
1131.562, 235.0318
1132.044, 235.5039
1132.526, 236.3591
1133.008, 232.0361
1133.490, 225.4551
1133.973, 222.2325
1134.455, 222.7201
1134.937, 222.4075
1135.419, 218.5636
1135.901, 217.0872
1136.383, 221.6825
1136.865, 225.2096
1137.347, 223.5719
1137.830, 221.1693
1138.312, 222.1875
1138.794, 224.7742
1139.276, 223.6137
1139.758, 217.7523
1140.240, 216.1161
1140.722, 220.1859
1141.204, 221.9905
1141.687, 219.5923
1142.169, 218.0243
1142.651, 219.8826
1143.133, 223.4692
1143.615, 227.4043
1144.097, 230.4695
1144.579, 227.7184
1145.061, 220.4894
1145.543, 215.1995
1146.026, 212.3777
1146.508, 213.0209
1146.990, 216.8942
1147.472, 220.7881
1147.954, 222.8710
1148.436, 223.1346
1148.918, 221.4975
1149.400, 218.1155
1149.882, 211.2820
1150.365, 204.0768
1150.847, 200.1435
1151.329, 200.0634
1151.811, 205.5590
1152.293, 216.6160
1152.775, 223.0746
1153.257, 216.8164
1153.739, 210.5620
1154.222, 208.3447
1154.704, 207.8572
1155.186, 209.5083
1155.668, 210.8500
1156.150, 208.2759
1156.632, 202.7751
1157.114, 199.4832
1157.596, 198.9601
1158.078, 198.7350
1158.561, 199.1958
1159.043, 198.6912
1159.525, 196.1902
1160.007, 195.2303
1160.489, 198.6868
1160.971, 201.9449
1161.453, 197.6912
1161.935, 188.3936
1162.417, 184.8148
1162.900, 186.2099
1163.382, 186.5534
1163.864, 185.5889
1164.346, 185.5747
1164.828, 186.8992
1165.310, 186.5075
1165.792, 181.9170
1166.274, 177.9733
1166.757, 181.3688
1167.239, 187.3116
1167.721, 191.2272
1168.203, 192.7893
1168.685, 190.8037
1169.167, 186.5358
1169.649, 182.2695
1170.131, 178.7292
1170.614, 178.2784
1171.096, 186.0816
1171.578, 190.7473
1172.060, 186.2421
1172.542, 181.0587
1173.024, 178.7440
1173.506, 178.6233
1173.988, 180.3496
1174.470, 183.4025
1174.953, 186.5653
1175.435, 190.3719
1175.917, 190.1062
1176.399, 183.7164
1176.881, 182.8905
1177.363, 190.7509
1177.845, 196.8931
1178.327, 196.3487
1178.809, 191.4527
1179.292, 183.8847
1179.774, 175.9851
1180.256, 173.9328
1180.738, 176.1887
1181.220, 178.7559
1181.702, 181.0561
1182.184, 182.0472
1182.666, 181.7928
1183.149, 181.2025
1183.631, 180.5833
1184.113, 181.7745
1184.595, 189.3323
1185.077, 195.3161
1185.559, 193.4186
1186.041, 187.8075
1186.523, 178.7231
1187.005, 170.6444
1187.488, 172.1782
1187.970, 182.4483
1188.452, 186.6929
1188.934, 177.9438
1189.416, 174.6030
1189.898, 180.5323
1190.380, 185.0385
1190.862, 185.1389
1191.344, 184.3836
1191.827, 185.0141
1192.309, 186.0651
1192.791, 186.0475
1193.273, 185.1022
1193.755, 183.7865
1194.237, 182.1876
1194.719, 181.2238
1195.201, 180.8120
1195.684, 179.6425
1196.166, 177.5450
1196.648, 176.4469
1197.130, 177.7959
1197.612, 178.3401
1198.094, 172.0405
1198.576, 166.1773
1199.058, 169.8859
1199.541, 177.1652
1200.023, 181.3004
1200.505, 182.7788
1200.987, 184.9182
1201.469, 187.7726
1201.951, 185.6578
1202.433, 170.5310
1202.915, 163.2677
1203.397, 175.0183
1203.880, 182.3243
1204.362, 176.7894
1204.844, 169.1286
1205.326, 166.4516
1205.808, 166.4933
1206.290, 165.6346
1206.772, 163.8476
1207.254, 159.4397
1207.736, 152.9137
1208.219, 154.8013
1208.701, 164.8360
1209.183, 173.0394
1209.665, 176.4735
1210.147, 176.3880
1210.629, 173.0816
1211.111, 170.7046
1211.593, 176.3728
1212.076, 182.3856
1212.558, 178.4121
1213.040, 171.5724
1213.522, 171.2073
1214.004, 174.7015
1214.486, 175.0262
1214.968, 171.5855
1215.450, 170.1351
1215.932, 174.2602
1216.415, 175.4756
1216.897, 170.6499
1217.379, 166.5444
1217.861, 163.9769
1218.343, 163.9118
1218.825, 167.2402
1219.307, 173.0196
1219.789, 180.8788
1220.271, 189.2309
1220.754, 189.5336
1221.236, 182.9194
1221.718, 177.8141
1222.200, 174.6505
1222.682, 172.5208
1223.164, 171.1257
1223.646, 170.3196
1224.128, 170.0352
1224.611, 170.0963
1225.093, 170.6769
1225.575, 171.1490
1226.057, 170.0959
1226.539, 169.5775
1227.021, 172.8033
1227.503, 177.0959
1227.985, 177.7234
1228.468, 175.1604
1228.950, 174.8904
1229.432, 179.1413
1229.914, 179.5866
1230.396, 174.7207
1230.878, 169.4902
1231.360, 163.5611
1231.842, 162.1021
1232.324, 168.3712
1232.807, 176.0408
1233.289, 178.5287
1233.771, 177.1142
1234.253, 173.5296
1234.735, 168.8026
1235.217, 165.7122
1235.699, 163.9502
1236.181, 161.9913
1236.663, 160.2912
1237.146, 161.8942
1237.628, 167.5193
1238.110, 171.1256
1238.592, 168.2644
1239.074, 164.9703
1239.556, 162.5309
1240.038, 161.7108
1240.520, 164.1421
1241.003, 167.2061
1241.485, 167.8036
1241.967, 168.0036
1242.449, 173.3223
1242.931, 183.3603
1243.413, 181.4969
1243.895, 166.7072
1244.377, 157.8446
1244.859, 156.3766
1245.342, 158.7137
1245.824, 163.5750
1246.306, 169.1827
1246.788, 174.4906
1247.270, 178.8914
1247.752, 181.6788
1248.234, 183.2024
1248.716, 184.0257
1249.198, 183.6534
1249.681, 180.5238
1250.163, 176.3434
1250.645, 173.6428
1251.127, 172.6791
1251.609, 172.9699
1252.091, 175.4383
1252.573, 175.9247
1253.055, 173.5325
1253.538, 170.7890
1254.020, 167.1696
1254.502, 166.6650
1254.984, 171.6792
1255.466, 177.4165
1255.948, 179.2711
1256.430, 178.3141
1256.912, 175.8802
1257.395, 172.7350
1257.877, 169.5579
1258.359, 167.7731
1258.841, 172.2769
1259.323, 180.7317
1259.805, 186.1107
##END=



