##NAMES=Manganoquadratite
##RRUFFID=R090021
##IDEAL CHEMISTRY=Ag^1+^Mn^2+^As^3+^S^2-^_3_
##LOCALITY=Uchucchacua, Lima Department, Peru
##OWNER=RRUFF
##SOURCE=William W. Pinch
##DESCRIPTION=Tetragonal stepped crystals associated with proustite and alabandite.
##STATUS=The identification of this mineral is confirmed by single-crystal X-ray diffraction and chemical analysis.
##URL=rruff.info/R090021
##MEASURED CHEMISTRY=Ag_0.99_Mn_1.02_(As_0.85_Sb_0.14_)S_3.00_
92.37695, 1076.659
92.85907, 1063.711
93.34119, 1066.687
93.82330, 1076.802
94.30542, 1083.962
94.78754, 1087.658
95.26965, 1089.550
95.75177, 1087.124
96.23389, 1078.460
96.71600, 1066.975
97.19812, 1056.086
97.68024, 1046.190
98.16235, 1037.939
98.64447, 1033.012
99.12659, 1033.612
99.60870, 1029.050
100.0908, 1017.919
100.5729, 1004.797
101.0551, 993.3317
101.5372, 985.0913
102.0193, 979.5510
102.5014, 974.9666
102.9835, 972.5086
103.4656, 969.6242
103.9478, 965.6851
104.4299, 960.8966
104.9120, 955.6965
105.3941, 950.3383
105.8762, 944.6458
106.3583, 940.0480
106.8405, 937.7162
107.3226, 935.0148
107.8047, 929.4026
108.2868, 920.9644
108.7689, 913.1216
109.2510, 910.1129
109.7332, 912.2568
110.2153, 914.6124
110.6974, 917.8049
111.1795, 920.5477
111.6616, 920.6846
112.1437, 917.2769
112.6259, 912.0890
113.1080, 906.3422
113.5901, 900.1261
114.0722, 895.2551
114.5543, 893.4523
115.0364, 894.5613
115.5185, 895.6230
116.0007, 896.6908
116.4828, 896.9653
116.9649, 895.6945
117.4470, 892.7994
117.9291, 889.2255
118.4112, 885.9984
118.8934, 882.7955
119.3755, 880.8836
119.8576, 881.4634
120.3397, 882.5610
120.8218, 882.9166
121.3039, 881.9930
121.7861, 879.7123
122.2682, 875.8024
122.7503, 865.5892
123.2324, 858.9164
123.7145, 858.5692
124.1966, 861.8561
124.6788, 864.9938
125.1609, 865.8127
125.6430, 864.5753
126.1251, 863.6068
126.6072, 863.5155
127.0893, 863.0399
127.5715, 861.3029
128.0536, 858.5350
128.5357, 855.9786
129.0178, 854.6522
129.4999, 854.3671
129.9821, 853.6203
130.4642, 851.8032
130.9463, 849.7884
131.4284, 848.4388
131.9105, 847.8254
132.3926, 847.7043
132.8748, 848.1063
133.3569, 848.8592
133.8390, 849.7005
134.3211, 850.9301
134.8032, 852.2294
135.2853, 852.5150
135.7674, 851.6631
136.2496, 849.7814
136.7317, 846.0308
137.2138, 841.2759
137.6959, 837.6190
138.1780, 836.9590
138.6601, 839.5775
139.1423, 842.2601
139.6244, 846.4341
140.1065, 849.4782
140.5886, 849.9916
141.0707, 848.1511
141.5528, 845.2013
142.0350, 842.4066
142.5171, 839.2026
142.9992, 837.8732
143.4813, 840.1898
143.9634, 842.8073
144.4455, 842.9291
144.9277, 840.0609
145.4098, 836.4997
145.8919, 836.0661
146.3740, 841.0050
146.8561, 845.1603
147.3382, 848.4819
147.8204, 850.8577
148.3025, 851.8905
148.7846, 851.2745
149.2667, 849.8727
149.7488, 849.6620
150.2309, 851.1635
150.7131, 851.9308
151.1952, 850.2057
151.6773, 846.8468
152.1594, 844.7458
152.6415, 845.6022
153.1236, 847.6906
153.6058, 847.9032
154.0879, 845.4808
154.5700, 843.5123
155.0521, 845.5749
155.5342, 851.9301
156.0163, 856.2816
156.4985, 853.2837
156.9806, 848.6703
157.4627, 847.3846
157.9448, 850.9876
158.4269, 856.3830
158.9090, 858.5850
159.3912, 855.7074
159.8733, 854.3807
160.3554, 857.7840
160.8375, 862.5415
161.3196, 865.8159
161.8017, 866.3548
162.2839, 864.7352
162.7660, 862.5682
163.2481, 858.7933
163.7302, 855.9331
164.2123, 854.4631
164.6944, 854.0143
165.1766, 854.1862
165.6587, 854.7703
166.1408, 855.7357
166.6229, 856.9042
167.1050, 859.5104
167.5871, 861.0020
168.0693, 859.8881
168.5514, 857.2650
169.0335, 855.3219
169.5156, 855.5913
169.9977, 857.9030
170.4798, 859.2993
170.9620, 858.5628
171.4441, 858.2590
171.9262, 860.0187
172.4083, 863.4592
172.8904, 866.7283
173.3725, 868.4767
173.8547, 868.7208
174.3368, 868.9473
174.8189, 869.4932
175.3010, 869.7938
175.7831, 868.8524
176.2652, 866.5707
176.7474, 865.1159
177.2295, 866.8846
177.7116, 870.7441
178.1937, 873.9076
178.6758, 875.5179
179.1579, 876.2117
179.6401, 876.9032
180.1222, 877.6237
180.6043, 878.2286
181.0864, 878.9437
181.5685, 879.4781
182.0506, 879.1839
182.5328, 876.9912
183.0149, 873.8371
183.4970, 872.8410
183.9791, 875.3939
184.4612, 878.0829
184.9433, 879.7130
185.4255, 880.4117
185.9076, 880.3226
186.3897, 879.1566
186.8718, 877.1219
187.3539, 876.5266
187.8360, 878.3532
188.3182, 880.7635
188.8003, 883.9664
189.2824, 887.3510
189.7645, 889.7654
190.2466, 890.0319
190.7287, 887.9979
191.2109, 887.5961
191.6930, 890.3303
192.1751, 893.2303
192.6572, 895.5264
193.1393, 897.1840
193.6214, 898.5107
194.1036, 899.8224
194.5857, 901.2560
195.0678, 901.4572
195.5499, 898.4874
196.0320, 896.2918
196.5141, 896.8299
196.9963, 899.9868
197.4784, 904.5939
197.9605, 909.8561
198.4426, 915.9828
198.9247, 920.2969
199.4068, 921.0743
199.8890, 921.5241
200.3711, 923.4246
200.8532, 927.0131
201.3353, 932.2369
201.8174, 940.1443
202.2995, 950.7985
202.7817, 956.8042
203.2638, 953.9069
203.7459, 948.5350
204.2280, 946.6611
204.7101, 948.9977
205.1922, 952.8226
205.6744, 955.8298
206.1565, 958.2828
206.6386, 961.4521
207.1207, 967.0916
207.6028, 973.0221
208.0849, 975.5703
208.5671, 973.5853
209.0492, 971.6561
209.5313, 973.6632
210.0134, 978.4546
210.4955, 984.0521
210.9776, 990.7259
211.4598, 997.6162
211.9419, 1002.748
212.4240, 1005.645
212.9061, 1007.586
213.3882, 1008.446
213.8703, 1009.005
214.3525, 1010.795
214.8346, 1014.773
215.3167, 1020.584
215.7988, 1027.246
216.2809, 1036.570
216.7630, 1043.759
217.2451, 1045.118
217.7273, 1043.422
218.2094, 1043.585
218.6915, 1049.093
219.1736, 1058.937
219.6557, 1067.024
220.1378, 1072.427
220.6200, 1076.935
221.1021, 1080.134
221.5842, 1082.976
222.0663, 1087.138
222.5484, 1094.076
223.0305, 1103.303
223.5127, 1110.054
223.9948, 1110.859
224.4769, 1112.660
224.9590, 1117.626
225.4411, 1124.552
225.9232, 1131.185
226.4054, 1135.995
226.8875, 1139.176
227.3696, 1143.385
227.8517, 1148.195
228.3338, 1154.532
228.8159, 1163.202
229.2981, 1173.533
229.7802, 1184.403
230.2623, 1195.189
230.7444, 1205.889
231.2265, 1216.166
231.7086, 1227.543
232.1908, 1236.921
232.6729, 1242.821
233.1550, 1246.168
233.6371, 1248.169
234.1192, 1249.076
234.6013, 1249.662
235.0835, 1256.213
235.5656, 1274.399
236.0477, 1291.161
236.5298, 1300.829
237.0119, 1306.085
237.4940, 1313.520
237.9762, 1327.344
238.4583, 1345.593
238.9404, 1358.961
239.4225, 1363.782
239.9046, 1368.783
240.3867, 1376.735
240.8689, 1387.062
241.3510, 1398.472
241.8331, 1410.590
242.3152, 1423.132
242.7973, 1435.239
243.2794, 1446.093
243.7616, 1457.798
244.2437, 1472.011
244.7258, 1487.868
245.2079, 1502.333
245.6900, 1513.129
246.1721, 1523.110
246.6543, 1538.541
247.1364, 1561.439
247.6185, 1583.598
248.1006, 1599.543
248.5827, 1610.996
249.0648, 1624.345
249.5470, 1641.897
250.0291, 1662.423
250.5112, 1684.165
250.9933, 1707.527
251.4754, 1730.014
251.9576, 1749.732
252.4397, 1767.264
252.9218, 1785.905
253.4039, 1806.982
253.8860, 1828.714
254.3681, 1848.311
254.8503, 1865.785
255.3324, 1884.834
255.8145, 1908.122
256.2966, 1935.039
256.7787, 1962.663
257.2608, 1991.095
257.7430, 2019.317
258.2251, 2046.683
258.7072, 2073.178
259.1893, 2098.706
259.6714, 2121.799
260.1535, 2143.281
260.6357, 2168.425
261.1178, 2199.771
261.5999, 2232.190
262.0820, 2262.596
262.5641, 2291.390
263.0462, 2319.858
263.5284, 2348.351
264.0105, 2376.961
264.4926, 2407.043
264.9747, 2438.749
265.4568, 2471.661
265.9389, 2506.407
266.4211, 2542.034
266.9032, 2576.322
267.3853, 2607.270
267.8674, 2635.835
268.3495, 2666.716
268.8316, 2701.493
269.3138, 2736.378
269.7959, 2771.588
270.2780, 2805.690
270.7601, 2836.301
271.2422, 2861.539
271.7243, 2883.071
272.2065, 2906.122
272.6886, 2931.583
273.1707, 2956.929
273.6528, 2981.087
274.1349, 3004.959
274.6170, 3029.438
275.0992, 3055.129
275.5813, 3081.363
276.0634, 3106.323
276.5455, 3130.078
277.0276, 3152.388
277.5097, 3174.151
277.9919, 3194.340
278.4740, 3211.959
278.9561, 3226.737
279.4382, 3239.110
279.9203, 3249.563
280.4024, 3256.109
280.8846, 3264.973
281.3667, 3280.489
281.8488, 3295.825
282.3309, 3305.441
282.8130, 3308.158
283.2951, 3307.272
283.7773, 3307.248
284.2594, 3307.788
284.7415, 3310.107
285.2236, 3316.614
285.7057, 3322.846
286.1878, 3325.992
286.6700, 3325.829
287.1521, 3324.150
287.6342, 3323.108
288.1163, 3323.313
288.5984, 3321.637
289.0805, 3317.234
289.5627, 3311.887
290.0448, 3304.995
290.5269, 3297.518
291.0090, 3292.245
291.4911, 3292.607
291.9732, 3299.556
292.4554, 3299.803
292.9375, 3285.554
293.4196, 3272.460
293.9017, 3266.394
294.3838, 3265.557
294.8659, 3265.252
295.3481, 3262.190
295.8302, 3256.563
296.3123, 3251.126
296.7944, 3245.521
297.2765, 3240.528
297.7586, 3235.939
298.2408, 3232.152
298.7229, 3229.994
299.2050, 3230.000
299.6871, 3231.565
300.1692, 3232.356
300.6513, 3231.671
301.1335, 3231.005
301.6156, 3229.715
302.0977, 3228.831
302.5798, 3229.870
303.0619, 3233.381
303.5440, 3237.962
304.0262, 3240.631
304.5083, 3239.568
304.9904, 3239.202
305.4725, 3239.758
305.9546, 3240.862
306.4367, 3243.035
306.9189, 3246.039
307.4010, 3247.942
307.8831, 3245.626
308.3652, 3236.188
308.8473, 3230.120
309.3294, 3231.955
309.8116, 3232.918
310.2937, 3228.607
310.7758, 3218.280
311.2579, 3202.621
311.7400, 3182.017
312.2221, 3155.573
312.7043, 3129.139
313.1864, 3104.040
313.6685, 3077.582
314.1506, 3048.756
314.6327, 3017.601
315.1148, 2984.243
315.5970, 2948.693
316.0791, 2911.148
316.5612, 2874.313
317.0433, 2841.824
317.5254, 2805.744
318.0075, 2761.578
318.4897, 2713.421
318.9718, 2667.601
319.4539, 2627.439
319.9360, 2591.168
320.4181, 2552.658
320.9002, 2510.718
321.3824, 2468.196
321.8645, 2423.906
322.3466, 2379.852
322.8287, 2337.023
323.3108, 2296.244
323.7929, 2258.238
324.2751, 2225.067
324.7572, 2200.606
325.2393, 2173.446
325.7214, 2141.701
326.2035, 2108.876
326.6856, 2076.836
327.1678, 2046.027
327.6499, 2015.838
328.1320, 1985.073
328.6141, 1952.569
329.0962, 1925.358
329.5783, 1907.796
330.0605, 1890.589
330.5426, 1869.880
331.0247, 1846.097
331.5068, 1821.419
331.9889, 1797.180
332.4710, 1773.508
332.9532, 1752.630
333.4353, 1735.646
333.9174, 1720.302
334.3995, 1707.356
334.8816, 1695.580
335.3637, 1683.405
335.8459, 1670.124
336.3280, 1655.958
336.8101, 1641.908
337.2922, 1627.760
337.7743, 1614.018
338.2564, 1599.631
338.7386, 1586.160
339.2206, 1575.847
339.7028, 1568.956
340.1849, 1562.921
340.6670, 1553.510
341.1491, 1538.549
341.6312, 1525.711
342.1133, 1517.309
342.5955, 1508.888
343.0776, 1497.635
343.5597, 1483.770
344.0418, 1469.544
344.5239, 1457.152
345.0060, 1446.734
345.4882, 1435.646
345.9703, 1422.150
346.4524, 1409.683
346.9345, 1398.599
347.4166, 1389.289
347.8987, 1382.548
348.3809, 1379.209
348.8630, 1378.276
349.3451, 1375.510
349.8272, 1368.079
350.3093, 1363.291
350.7914, 1364.349
351.2736, 1367.492
351.7557, 1369.062
352.2378, 1367.784
352.7199, 1364.757
353.2020, 1361.797
353.6841, 1359.135
354.1663, 1355.785
354.6484, 1352.427
355.1305, 1347.772
355.6126, 1340.939
356.0947, 1331.914
356.5768, 1321.369
357.0590, 1310.674
357.5411, 1300.084
358.0232, 1284.763
358.5053, 1262.591
358.9874, 1237.568
359.4695, 1211.036
359.9517, 1183.182
360.4338, 1154.102
360.9159, 1123.298
361.3980, 1091.701
361.8801, 1061.991
362.3622, 1035.480
362.8444, 1008.265
363.3265, 977.3959
363.8086, 945.8245
364.2907, 916.6445
364.7728, 890.7467
365.2549, 866.8304
365.7371, 843.5210
366.2192, 820.7949
366.7013, 797.9516
367.1834, 773.9664
367.6655, 750.5635
368.1476, 728.9783
368.6298, 709.1805
369.1119, 690.6547
369.5940, 673.5853
370.0761, 657.6486
370.5582, 641.3281
371.0403, 624.0416
371.5225, 607.2436
372.0046, 591.8020
372.4867, 577.5521
372.9688, 564.0513
373.4509, 551.4767
373.9330, 539.4304
374.4152, 527.2843
374.8973, 515.0314
375.3794, 503.0863
375.8615, 491.3632
376.3436, 480.3493
376.8257, 470.6273
377.3079, 462.2431
377.7900, 455.1519
378.2721, 450.0134
378.7542, 446.3408
379.2363, 441.8677
379.7184, 435.5331
380.2006, 428.8612
380.6827, 423.6507
381.1648, 419.8207
381.6469, 416.9478
382.1290, 416.2834
382.6111, 415.9255
383.0933, 412.5831
383.5754, 405.7217
384.0575, 398.9775
384.5396, 395.6263
385.0217, 395.1725
385.5038, 392.9830
385.9860, 386.9823
386.4681, 380.9896
386.9502, 377.1307
387.4323, 375.2117
387.9144, 374.6966
388.3965, 375.7648
388.8787, 377.4075
389.3608, 376.7630
389.8429, 372.9315
390.3250, 369.2071
390.8071, 366.1622
391.2892, 363.6185
391.7714, 361.2569
392.2535, 359.0269
392.7356, 357.3576
393.2177, 356.8817
393.6998, 357.9575
394.1819, 358.5116
394.6641, 359.3354
395.1462, 358.9932
395.6283, 355.6805
396.1104, 350.3479
396.5925, 345.7995
397.0746, 343.8824
397.5568, 344.1783
398.0389, 344.3105
398.5210, 344.0758
399.0031, 343.9187
399.4852, 344.6444
399.9673, 345.1309
400.4495, 343.4175
400.9316, 339.1247
401.4137, 334.7493
401.8958, 334.5407
402.3779, 341.1610
402.8600, 344.6693
403.3422, 344.0581
403.8243, 341.7285
404.3064, 337.6942
404.7885, 332.8481
405.2706, 329.0999
405.7527, 328.1186
406.2349, 329.4990
406.7170, 330.0305
407.1991, 328.8208
407.6812, 328.0262
408.1633, 328.4490
408.6454, 329.3839
409.1276, 330.1049
409.6097, 330.3535
410.0918, 330.2218
410.5739, 330.0095
411.0560, 329.9119
411.5381, 328.6641
412.0203, 324.4359
412.5024, 320.3665
412.9845, 318.7720
413.4666, 319.2495
413.9487, 319.3571
414.4308, 316.0290
414.9130, 310.8136
415.3951, 310.3568
415.8772, 316.8526
416.3593, 322.7199
416.8414, 323.3308
417.3235, 320.9114
417.8057, 317.9356
418.2878, 314.4222
418.7699, 311.6849
419.2520, 311.8182
419.7341, 314.4264
420.2162, 315.5034
420.6984, 313.1683
421.1805, 309.6809
421.6626, 307.9502
422.1447, 307.9304
422.6268, 308.1542
423.1089, 308.3476
423.5911, 308.3665
424.0732, 307.8299
424.5553, 306.6923
425.0374, 305.7238
425.5195, 305.5106
426.0016, 306.0147
426.4838, 306.6431
426.9659, 308.0161
427.4480, 308.8634
427.9301, 308.3176
428.4122, 306.8470
428.8943, 305.2936
429.3765, 303.9224
429.8586, 302.9877
430.3407, 303.0898
430.8228, 305.5207
431.3049, 306.0099
431.7870, 302.2997
432.2692, 298.3095
432.7513, 297.1736
433.2334, 298.7436
433.7155, 300.7464
434.1976, 301.3416
434.6797, 300.6522
435.1619, 300.4884
435.6440, 302.4223
436.1261, 303.0400
436.6082, 300.6544
437.0903, 297.1277
437.5724, 294.6238
438.0546, 293.8987
438.5367, 294.0958
439.0188, 293.9069
439.5009, 293.2030
439.9830, 292.5226
440.4651, 292.3300
440.9473, 291.7480
441.4294, 289.4269
441.9115, 286.2645
442.3936, 284.8071
442.8757, 287.3770
443.3578, 292.5052
443.8400, 294.8324
444.3221, 292.9934
444.8042, 291.7938
445.2863, 294.3486
445.7684, 297.6035
446.2505, 298.5364
446.7327, 296.4442
447.2148, 293.5839
447.6969, 292.1473
448.1790, 291.7657
448.6611, 289.9764
449.1432, 285.3948
449.6254, 281.3697
450.1075, 281.5213
450.5896, 284.6796
451.0717, 287.4697
451.5538, 289.4732
452.0359, 290.3831
452.5181, 289.2197
453.0002, 286.3267
453.4823, 284.1256
453.9644, 283.8633
454.4465, 284.7661
454.9286, 285.1356
455.4108, 284.9014
455.8929, 284.5044
456.3750, 283.9674
456.8571, 283.3576
457.3392, 282.8441
457.8214, 282.4107
458.3035, 281.7059
458.7856, 280.3658
459.2677, 278.3784
459.7498, 276.5853
460.2319, 274.0746
460.7141, 272.7512
461.1962, 274.1907
461.6783, 276.8174
462.1604, 278.2835
462.6425, 277.7224
463.1246, 276.3035
463.6068, 276.1097
464.0889, 277.8969
464.5710, 278.9042
465.0531, 278.5805
465.5352, 278.0418
466.0173, 277.7800
466.4995, 277.7502
466.9816, 277.7659
467.4637, 277.8466
467.9458, 277.7202
468.4279, 276.1106
468.9100, 271.7769
469.3922, 269.1919
469.8743, 272.1411
470.3564, 275.8536
470.8385, 275.9979
471.3206, 271.9842
471.8027, 267.6625
472.2849, 265.8749
472.7670, 266.2056
473.2491, 267.4995
473.7312, 270.2456
474.2133, 272.2255
474.6954, 271.0974
475.1776, 268.0186
475.6597, 265.5609
476.1418, 263.7886
476.6239, 263.1657
477.1060, 264.9423
477.5881, 268.2193
478.0703, 270.2376
478.5524, 269.9385
479.0345, 268.5375
479.5166, 267.6472
479.9987, 267.2894
480.4808, 267.4433
480.9630, 268.3210
481.4451, 269.5396
481.9272, 271.7945
482.4093, 274.2985
482.8914, 274.5816
483.3735, 270.9422
483.8557, 264.6310
484.3378, 260.0548
484.8199, 257.1097
485.3020, 256.3282
485.7841, 260.0033
486.2662, 264.1313
486.7484, 264.9724
487.2305, 262.6075
487.7126, 260.3838
488.1947, 261.6079
488.6768, 265.9959
489.1589, 268.9676
489.6411, 270.1806
490.1232, 270.4226
490.6053, 269.7265
491.0874, 268.4569
491.5695, 266.9026
492.0516, 265.1133
492.5338, 263.4610
493.0159, 262.1988
493.4980, 261.3577
493.9801, 261.4338
494.4622, 263.0233
494.9443, 264.5494
495.4265, 264.4161
495.9086, 263.1583
496.3907, 262.2115
496.8728, 261.8949
497.3549, 262.0376
497.8370, 263.3472
498.3192, 265.1947
498.8013, 264.8267
499.2834, 260.7530
499.7655, 255.2365
500.2476, 251.7648
500.7297, 250.4760
501.2119, 250.8957
501.6940, 254.9828
502.1761, 259.1492
502.6582, 260.6700
503.1403, 259.9435
503.6224, 258.9499
504.1045, 258.9112
504.5866, 259.5286
505.0688, 259.6918
505.5509, 258.7219
506.0330, 258.3877
506.5151, 259.6054
506.9972, 260.8328
507.4793, 260.6476
507.9615, 259.1792
508.4436, 257.8374
508.9257, 257.9310
509.4078, 259.1735
509.8899, 259.7707
510.3720, 259.4547
510.8542, 259.0768
511.3363, 258.7437
511.8184, 258.6147
512.3005, 259.1184
512.7827, 260.4299
513.2648, 261.2418
513.7469, 259.9994
514.2290, 257.4911
514.7111, 256.0070
515.1932, 255.8893
515.6754, 256.5699
516.1575, 258.0873
516.6396, 260.0960
517.1217, 261.0487
517.6038, 259.9674
518.0859, 258.8937
518.5681, 258.8137
519.0502, 259.3363
519.5323, 259.9114
520.0144, 260.3771
520.4965, 260.5973
520.9786, 260.4246
521.4608, 259.8703
521.9429, 258.8068
522.4250, 256.7718
522.9071, 254.8013
523.3892, 252.8309
523.8713, 251.2924
524.3535, 250.9785
524.8356, 252.1977
525.3177, 254.0802
525.7998, 255.3328
526.2819, 256.0071
526.7640, 255.7581
527.2462, 253.7087
527.7283, 251.6028
528.2104, 250.1198
528.6925, 249.2348
529.1746, 248.7758
529.6567, 248.5886
530.1389, 248.9229
530.6210, 250.7067
531.1031, 253.7906
531.5852, 255.3194
532.0673, 253.8004
532.5494, 251.4677
533.0316, 251.2139
533.5137, 252.8803
533.9958, 254.4079
534.4779, 255.3625
534.9600, 256.0449
535.4421, 257.1764
535.9243, 258.3206
536.4064, 257.6661
536.8885, 254.1181
537.3706, 249.4913
537.8527, 247.7339
538.3348, 250.8885
538.8170, 252.8996
539.2991, 253.2041
539.7812, 252.9621
540.2633, 252.2805
540.7454, 251.6239
541.2275, 252.1414
541.7097, 254.7890
542.1918, 258.2229
542.6739, 258.5855
543.1560, 254.7006
543.6381, 251.4908
544.1202, 249.3862
544.6024, 248.7443
545.0845, 250.8862
545.5666, 255.1475
546.0487, 258.2087
546.5308, 257.5020
547.0129, 254.9791
547.4951, 253.7575
547.9772, 253.7968
548.4593, 253.5520
548.9414, 252.1047
549.4235, 250.3654
549.9056, 250.2496
550.3878, 252.0662
550.8699, 253.2805
551.3520, 253.0327
551.8341, 252.2976
552.3162, 251.3799
552.7983, 250.6326
553.2805, 251.2857
553.7626, 254.2848
554.2447, 258.2377
554.7268, 258.8778
555.2089, 252.7679
555.6910, 249.4791
556.1732, 251.0294
556.6553, 253.5688
557.1374, 255.1862
557.6195, 255.6908
558.1016, 255.4283
558.5837, 254.5294
559.0659, 253.1357
559.5480, 251.0113
560.0301, 247.6475
560.5122, 246.8763
560.9943, 252.3156
561.4764, 258.3502
561.9586, 258.7567
562.4407, 253.9352
562.9228, 250.3453
563.4049, 251.2759
563.8870, 253.9661
564.3691, 256.1876
564.8513, 257.6883
565.3334, 257.2528
565.8155, 253.8079
566.2976, 249.7268
566.7797, 249.8347
567.2618, 257.5728
567.7440, 261.4338
568.2261, 258.0216
568.7082, 253.8690
569.1903, 253.3131
569.6724, 255.0947
570.1545, 255.1002
570.6367, 250.9646
571.1188, 245.4662
571.6009, 245.1743
572.0830, 252.0287
572.5651, 256.6373
573.0472, 256.5700
573.5294, 255.3586
574.0115, 254.6831
574.4936, 254.4233
574.9757, 254.0252
575.4578, 253.1333
575.9399, 252.1802
576.4221, 251.8049
576.9042, 251.8755
577.3863, 251.6855
577.8684, 251.1024
578.3505, 249.9562
578.8326, 247.5516
579.3148, 243.7227
579.7969, 242.1546
580.2790, 245.0214
580.7611, 248.0128
581.2432, 248.5828
581.7253, 247.9967
582.2075, 248.9499
582.6896, 252.2466
583.1717, 255.5712
583.6538, 255.3505
584.1359, 250.8258
584.6180, 248.2342
585.1002, 249.5927
585.5823, 250.5005
586.0643, 248.7074
586.5464, 246.0181
587.0286, 245.0520
587.5107, 246.6495
587.9928, 248.7101
588.4749, 249.1149
588.9570, 248.2870
589.4391, 247.6970
589.9213, 247.3517
590.4034, 248.0760
590.8855, 251.5302
591.3676, 256.3334
591.8497, 257.4312
592.3318, 252.1279
592.8140, 247.7831
593.2961, 247.2179
593.7782, 248.5089
594.2603, 250.2590
594.7424, 251.8585
595.2245, 251.9195
595.7067, 248.9798
596.1888, 243.8942
596.6709, 241.6999
597.1530, 244.4528
597.6351, 246.5801
598.1172, 247.1603
598.5994, 247.0921
599.0815, 246.9317
599.5636, 246.7434
600.0457, 246.3921
600.5278, 245.6567
601.0099, 244.7939
601.4921, 244.0112
601.9742, 243.2925
602.4563, 244.0328
602.9384, 247.5923
603.4205, 251.6180
603.9026, 252.5347
604.3848, 250.3544
604.8669, 247.9890
605.3490, 244.1171
605.8311, 241.7769
606.3132, 244.5921
606.7953, 250.2315
607.2775, 253.5116
607.7596, 252.4154
608.2417, 249.1038
608.7238, 246.8678
609.2059, 245.9879
609.6880, 244.7620
610.1702, 241.9865
610.6523, 240.2902
611.1344, 241.6312
611.6165, 244.1260
612.0986, 244.9447
612.5807, 243.1743
613.0629, 241.0865
613.5450, 240.8848
614.0271, 242.0598
614.5092, 243.0909
614.9913, 243.8776
615.4734, 244.1200
615.9556, 243.4995
616.4377, 242.2188
616.9198, 240.8359
617.4019, 237.9995
617.8840, 237.5406
618.3661, 242.9851
618.8483, 249.1575
619.3304, 251.0854
619.8125, 249.0491
620.2946, 246.3212
620.7767, 245.0126
621.2589, 244.6295
621.7410, 243.5280
622.2231, 240.9288
622.7052, 239.9617
623.1873, 243.5005
623.6694, 246.5162
624.1516, 245.0047
624.6337, 240.5213
625.1158, 237.9665
625.5979, 240.2865
626.0800, 243.7637
626.5621, 244.5412
627.0443, 243.3080
627.5264, 242.5925
628.0085, 243.0986
628.4906, 243.3938
628.9727, 241.9086
629.4548, 238.6401
629.9370, 236.1270
630.4191, 234.4920
630.9012, 233.3384
631.3833, 231.9645
631.8654, 231.3816
632.3475, 233.2653
632.8297, 237.4130
633.3118, 241.4412
633.7939, 243.1992
634.2760, 243.2112
634.7581, 243.9987
635.2402, 246.3677
635.7224, 246.1182
636.2045, 239.0874
636.6866, 231.4343
637.1687, 230.2218
637.6508, 235.1374
638.1329, 239.3506
638.6151, 240.4783
639.0972, 240.3181
639.5793, 240.2281
640.0614, 240.0694
640.5435, 239.2587
641.0256, 237.5909
641.5078, 235.5326
641.9899, 233.6046
642.4720, 231.6997
642.9541, 230.8038
643.4362, 231.3228
643.9183, 232.4494
644.4005, 235.2589
644.8826, 237.9205
645.3647, 238.0129
645.8468, 235.2171
646.3289, 232.1578
646.8110, 230.9398
647.2932, 231.0703
647.7753, 231.4591
648.2574, 232.0875
648.7395, 232.8223
649.2216, 233.8544
649.7037, 234.6327
650.1859, 233.8979
650.6680, 231.1009
651.1501, 229.3532
651.6322, 229.2874
652.1143, 229.9382
652.5964, 231.9173
653.0786, 233.9295
653.5607, 233.2766
654.0428, 229.0700
654.5249, 223.9639
655.0070, 221.8387
655.4891, 222.8333
655.9713, 222.7517
656.4534, 220.3950
656.9355, 219.2884
657.4176, 223.8150
657.8997, 229.2757
658.3818, 229.2119
658.8640, 222.1053
659.3461, 216.2016
659.8282, 216.1698
660.3103, 218.6057
660.7924, 220.1294
661.2745, 220.5529
661.7567, 220.4103
662.2388, 219.9441
662.7209, 219.1499
663.2030, 217.9821
663.6851, 216.2795
664.1672, 214.7157
664.6494, 212.3348
665.1315, 211.1425
665.6136, 212.9643
666.0957, 215.9508
666.5778, 217.4950
667.0599, 216.8570
667.5421, 215.3457
668.0242, 213.5304
668.5063, 211.7927
668.9884, 211.2224
669.4705, 211.9005
669.9526, 212.8367
670.4348, 213.7060
670.9169, 214.2175
671.3990, 213.5427
671.8811, 210.4498
672.3632, 209.2796
672.8453, 212.3134
673.3275, 215.1073
673.8096, 215.0875
674.2917, 213.1493
674.7738, 210.8837
675.2559, 208.9330
675.7380, 207.5230
676.2202, 207.3106
676.7023, 208.1085
677.1844, 207.9020
677.6665, 206.3585
678.1486, 204.6372
678.6307, 202.8293
679.1129, 201.5092
679.5950, 201.8063
680.0771, 204.0694
680.5592, 206.3264
681.0413, 208.6323
681.5234, 210.2906
682.0056, 210.5741
682.4877, 209.7805
682.9698, 208.4986
683.4519, 206.9959
683.9340, 205.6341
684.4161, 205.1166
684.8983, 205.5758
685.3804, 205.2082
685.8625, 203.2051
686.3446, 201.8010
686.8267, 202.8730
687.3088, 204.5923
687.7910, 204.7137
688.2731, 202.8635
688.7552, 201.1719
689.2373, 200.3649
689.7194, 200.3255
690.2015, 201.7896
690.6837, 204.0071
691.1658, 204.2339
691.6479, 201.2668
692.1300, 197.3958
692.6121, 196.1315
693.0942, 197.9692
693.5764, 198.9387
694.0585, 198.6490
694.5406, 197.9704
695.0227, 197.1223
695.5048, 196.0517
695.9869, 194.2700
696.4691, 191.8101
696.9512, 190.4478
697.4333, 192.4867
697.9154, 195.4329
698.3975, 195.6695
698.8796, 193.6122
699.3618, 191.5790
699.8439, 190.3615
700.3260, 189.9677
700.8081, 190.5543
701.2902, 192.2771
701.7723, 193.5022
702.2545, 194.1765
702.7366, 194.3858
703.2187, 193.7183
703.7008, 192.8573
704.1829, 192.5193
704.6650, 192.7329
705.1472, 192.9353
705.6293, 193.0223
706.1114, 192.6856
706.5935, 190.4807
707.0756, 186.9816
707.5577, 186.5286
708.0399, 190.9018
708.5220, 196.1252
709.0041, 198.0688
709.4862, 196.7258
709.9683, 194.4268
710.4504, 188.9652
710.9326, 185.4759
711.4147, 186.0126
711.8968, 187.9699
712.3789, 189.6423
712.8610, 190.5850
713.3431, 190.3392
713.8253, 187.9953
714.3074, 185.3861
714.7895, 186.4482
715.2716, 190.3902
715.7537, 190.8053
716.2358, 185.6688
716.7180, 180.4238
717.2001, 179.8703
717.6822, 183.2067
718.1643, 185.1126
718.6464, 184.0617
719.1285, 183.8290
719.6107, 185.3276
720.0928, 187.2905
720.5749, 189.1601
721.0570, 190.6815
721.5391, 191.6039
722.0212, 191.8338
722.5034, 191.2611
722.9855, 189.3163
723.4676, 186.2866
723.9497, 183.9581
724.4318, 182.5472
724.9139, 181.6896
725.3961, 181.2778
725.8782, 181.1882
726.3603, 181.0966
726.8424, 180.9878
727.3245, 180.9127
727.8066, 180.4084
728.2888, 180.4004
728.7709, 182.0143
729.2530, 184.3232
729.7351, 185.5427
730.2172, 185.0857
730.6993, 184.3508
731.1815, 185.4276
731.6636, 187.4882
732.1457, 186.9846
732.6278, 183.6212
733.1099, 180.5546
733.5920, 179.1157
734.0742, 178.6342
734.5563, 178.1383
735.0384, 177.6063
735.5205, 177.1796
736.0026, 176.7375
736.4847, 176.5399
736.9669, 176.5984
737.4490, 176.9961
737.9311, 178.3906
738.4132, 180.5232
738.8953, 181.4356
739.3774, 178.9105
739.8596, 174.7926
740.3417, 172.9318
740.8238, 173.2218
741.3059, 174.1555
741.7880, 175.4731
742.2701, 176.9002
742.7523, 178.3076
743.2344, 179.6527
743.7165, 180.1929
744.1986, 179.6091
744.6807, 178.7296
745.1628, 177.2406
745.6450, 175.8320
746.1271, 174.7681
746.6092, 174.2618
747.0913, 174.9901
747.5734, 177.6959
748.0555, 180.0844
748.5377, 177.9814
749.0198, 173.0413
749.5019, 172.3799
749.9840, 177.0559
750.4661, 180.7836
750.9482, 179.4488
751.4304, 175.1414
751.9125, 172.9760
752.3946, 173.8891
752.8767, 174.8226
753.3588, 176.2186
753.8409, 177.1543
754.3231, 176.6598
754.8052, 175.7295
755.2873, 176.0103
755.7694, 177.8346
756.2515, 179.3414
756.7336, 178.7761
757.2158, 177.1740
757.6979, 176.4026
758.1800, 176.2970
758.6621, 175.4672
759.1442, 173.3326
759.6263, 171.2730
760.1085, 171.0628
760.5906, 172.7110
761.0727, 173.2966
761.5548, 171.3888
762.0369, 170.5652
762.5190, 172.3643
763.0012, 174.5405
763.4833, 175.3929
763.9654, 175.0985
764.4475, 174.9129
764.9296, 175.7436
765.4117, 176.1028
765.8939, 174.1042
766.3760, 170.9970
766.8581, 169.0268
767.3402, 168.4790
767.8223, 168.6401
768.3044, 169.0373
768.7866, 169.8977
769.2687, 172.2391
769.7508, 177.3206
770.2329, 179.0570
770.7150, 174.3638
771.1971, 170.3920
771.6793, 170.9836
772.1614, 173.8865
772.6435, 176.5040
773.1256, 178.6517
773.6077, 179.4802
774.0898, 177.6492
774.5720, 175.2717
775.0541, 173.8525
775.5362, 173.2769
776.0183, 173.2243
776.5004, 173.5583
776.9825, 174.0683
777.4647, 174.5367
777.9468, 175.0023
778.4289, 175.8397
778.9110, 177.3025
779.3931, 177.6915
779.8752, 175.9487
780.3574, 174.0187
780.8395, 173.8853
781.3216, 175.1472
781.8037, 175.7148
782.2858, 174.7439
782.7679, 174.1786
783.2501, 174.9124
783.7322, 175.8859
784.2143, 176.0912
784.6964, 175.7722
785.1785, 176.2034
785.6606, 178.0778
786.1428, 179.0432
786.6249, 174.6325
787.1070, 166.6710
787.5891, 162.9510
788.0712, 164.0028
788.5533, 167.0617
789.0355, 171.6168
789.5176, 175.9202
789.9997, 176.9571
790.4818, 173.9546
790.9639, 172.5588
791.4460, 174.6843
791.9282, 175.9068
792.4103, 174.2518
792.8924, 171.9803
793.3745, 170.9485
793.8566, 171.3517
794.3387, 172.7433
794.8209, 175.5634
795.3030, 178.2717
795.7851, 179.5761
796.2672, 179.5970
796.7493, 177.9019
797.2314, 174.7479
797.7136, 172.8139
798.1957, 174.0114
798.6778, 176.8434
799.1599, 177.4884
799.6420, 175.2218
800.1241, 173.7363
800.6063, 173.2280
801.0884, 173.3091
801.5705, 174.7348
802.0526, 176.1816
802.5347, 175.6349
803.0168, 172.7793
803.4990, 170.7154
803.9811, 170.2243
804.4632, 170.8853
804.9453, 173.9679
805.4274, 177.3454
805.9095, 176.9996
806.3917, 172.9262
806.8738, 169.8873
807.3559, 172.0500
807.8380, 176.9339
808.3201, 178.8504
808.8022, 177.9354
809.2844, 176.8764
809.7665, 175.9036
810.2486, 175.9250
810.7307, 178.1925
811.2128, 181.5168
811.6949, 182.0855
812.1771, 177.8396
812.6592, 174.9989
813.1413, 174.2421
813.6234, 174.1174
814.1055, 174.4139
814.5876, 174.7739
815.0698, 174.7390
815.5519, 174.2382
816.0340, 173.6913
816.5161, 173.4271
816.9982, 173.2016
817.4803, 172.3560
817.9625, 171.3533
818.4446, 171.7550
818.9267, 173.7971
819.4088, 175.6644
819.8909, 175.7469
820.3730, 174.5674
820.8552, 173.9661
821.3373, 174.0449
821.8194, 174.2019
822.3015, 174.1139
822.7836, 174.5540
823.2657, 176.9524
823.7479, 179.8700
824.2300, 180.0014
824.7121, 176.0646
825.1942, 174.0540
825.6763, 177.6203
826.1584, 180.8281
826.6406, 179.5819
827.1227, 176.1131
827.6048, 173.7513
828.0869, 173.2042
828.5690, 173.2184
829.0511, 172.8613
829.5333, 172.4705
830.0154, 172.6425
830.4975, 173.3136
830.9796, 174.4497
831.4617, 176.0779
831.9438, 176.8681
832.4260, 175.6907
832.9081, 173.2224
833.3902, 171.4420
833.8723, 170.3333
834.3544, 169.9719
834.8365, 170.8412
835.3187, 171.8518
835.8008, 172.6514
836.2829, 173.3048
836.7650, 174.1631
837.2471, 175.2706
837.7292, 175.1989
838.2114, 171.5685
838.6935, 168.6720
839.1756, 170.4148
839.6577, 173.9637
840.1398, 175.4532
840.6219, 174.3680
841.1041, 171.9098
841.5862, 168.4599
842.0683, 165.5203
842.5504, 166.4782
843.0325, 170.6489
843.5146, 173.7244
843.9968, 175.3049
844.4789, 174.3150
844.9610, 169.0880
845.4431, 163.3576
845.9252, 164.7347
846.4073, 175.8336
846.8895, 180.6726
847.3716, 173.9107
847.8537, 167.9263
848.3358, 165.4957
848.8179, 164.8360
849.3000, 164.3970
849.7822, 164.2056
850.2643, 165.1819
850.7464, 169.1445
851.2285, 171.8892
851.7106, 169.5660
852.1927, 165.6964
852.6749, 164.4087
853.1570, 165.4694
853.6391, 166.7470
854.1212, 167.2544
854.6033, 167.2559
855.0854, 166.9438
855.5676, 166.4004
856.0497, 165.9284
856.5318, 165.5204
857.0139, 165.6596
857.4960, 166.6120
857.9781, 167.7662
858.4603, 168.5352
858.9424, 168.9162
859.4245, 168.9377
859.9066, 169.1003
860.3887, 168.0226
860.8708, 163.2679
861.3530, 159.6577
861.8351, 160.7775
862.3172, 164.4680
862.7993, 166.8467
863.2814, 167.2120
863.7635, 166.4610
864.2457, 162.9844
864.7278, 160.4374
865.2099, 162.9422
865.6920, 167.9957
866.1741, 171.6318
866.6563, 172.7740
867.1384, 171.5507
867.6205, 167.3309
868.1026, 162.2673
868.5847, 161.1544
869.0668, 163.2449
869.5490, 163.4066
870.0311, 160.8438
870.5132, 158.4088
870.9953, 157.7814
871.4774, 158.2162
871.9595, 158.1213
872.4417, 157.1826
872.9238, 157.4747
873.4059, 159.9661
873.8880, 162.1574
874.3701, 163.3754
874.8522, 163.9356
875.3344, 164.0612
875.8165, 163.7472
876.2986, 162.9074
876.7807, 161.1851
877.2628, 159.4401
877.7449, 157.1261
878.2271, 155.6321
878.7092, 157.1552
879.1913, 160.3350
879.6734, 161.9730
880.1555, 160.9638
880.6376, 159.1415
881.1198, 157.6307
881.6019, 156.7516
882.0840, 157.8727
882.5661, 160.2995
883.0482, 161.0611
883.5303, 159.4010
884.0125, 156.0076
884.4946, 150.9810
884.9767, 145.6727
885.4588, 145.3471
885.9409, 151.4461
886.4230, 154.1021
886.9052, 150.7698
887.3873, 148.3069
887.8694, 151.2289
888.3515, 156.1342
888.8336, 156.9278
889.3157, 152.7546
889.7979, 151.0804
890.2800, 154.5490
890.7621, 157.3463
891.2442, 157.7231
891.7263, 156.9629
892.2084, 155.5681
892.6906, 154.0604
893.1727, 153.6215
893.6548, 154.9149
894.1369, 156.4016
894.6190, 157.8297
895.1011, 158.3194
895.5833, 155.3596
896.0654, 150.7630
896.5475, 149.8800
897.0296, 153.9456
897.5117, 157.8285
897.9938, 156.2117
898.4760, 151.4579
898.9581, 150.0368
899.4402, 151.6539
899.9223, 152.5179
900.4044, 151.8799
900.8865, 151.9062
901.3687, 154.2715
901.8508, 157.5336
902.3329, 158.6134
902.8150, 157.2970
903.2971, 154.6430
903.7792, 148.5060
904.2614, 144.7608
904.7435, 147.3225
905.2256, 151.2113
905.7077, 151.4387
906.1898, 148.7839
906.6719, 147.7814
907.1541, 150.7735
907.6362, 152.5942
908.1183, 150.9203
908.6004, 148.6552
909.0825, 147.2827
909.5646, 147.0189
910.0468, 148.1905
910.5289, 150.7917
911.0110, 153.4241
911.4931, 155.7163
911.9752, 157.0609
912.4573, 155.9652
912.9395, 153.6841
913.4216, 153.0321
913.9037, 154.1797
914.3858, 155.1736
914.8679, 154.8303
915.3500, 153.7336
915.8321, 152.5932
916.3142, 151.5067
916.7963, 151.3237
917.2784, 152.1065
917.7606, 153.0190
918.2427, 153.7677
918.7248, 154.6366
919.2069, 156.1687
919.6890, 158.0775
920.1711, 157.9946
920.6533, 154.6022
921.1354, 152.4117
921.6175, 152.6737
922.0996, 153.0159
922.5817, 151.4104
923.0638, 149.4845
923.5460, 150.2793
924.0281, 154.4123
924.5102, 156.2175
924.9923, 152.9560
925.4744, 149.7396
925.9565, 147.2433
926.4387, 146.4864
926.9208, 150.3527
927.4029, 156.6437
927.8850, 158.6424
928.3671, 153.1410
928.8492, 147.3542
929.3314, 146.2807
929.8135, 147.4773
930.2956, 148.9594
930.7777, 150.2928
931.2598, 150.7240
931.7419, 150.2391
932.2241, 149.9705
932.7062, 150.8738
933.1883, 152.3478
933.6704, 153.3534
934.1525, 153.9625
934.6346, 154.5275
935.1168, 155.0759
935.5989, 155.4225
936.0810, 155.4960
936.5631, 155.1540
937.0452, 153.9481
937.5273, 152.0345
938.0095, 152.4173
938.4916, 156.2139
938.9737, 157.5869
939.4558, 154.7062
939.9379, 150.6120
940.4200, 146.3159
940.9022, 142.8880
941.3843, 143.5189
941.8664, 150.7765
942.3485, 154.1870
942.8306, 150.5016
943.3127, 147.2968
943.7949, 146.7801
944.2770, 147.4071
944.7591, 147.9460
945.2412, 148.3744
945.7233, 148.9883
946.2054, 149.7444
946.6876, 150.9306
947.1697, 153.9790
947.6518, 156.1996
948.1339, 155.0997
948.6160, 152.0190
949.0981, 148.6080
949.5803, 145.5385
950.0624, 143.9628
950.5445, 145.2316
951.0266, 147.2979
951.5087, 147.8790
951.9908, 147.9862
952.4730, 149.9469
952.9551, 153.1998
953.4372, 154.5190
953.9193, 152.6460
954.4014, 150.7207
954.8835, 153.5829
955.3657, 149.7480
955.8478, 155.8372
956.3299, 147.0306
956.8120, 142.8596
957.2941, 145.4725
957.7762, 147.9856
958.2584, 145.6348
958.7405, 141.6758
959.2226, 143.4635
959.7047, 151.6360
960.1868, 154.5621
960.6689, 150.8549
961.1511, 147.4065
961.6332, 145.9177
962.1153, 145.8598
962.5974, 147.3418
963.0795, 149.7308
963.5616, 150.2397
964.0438, 148.3172
964.5259, 145.6454
965.0080, 139.7123
965.4901, 136.2997
965.9722, 139.7312
966.4543, 144.8943
966.9365, 146.0255
967.4186, 143.5420
967.9007, 142.7659
968.3828, 145.6077
968.8649, 148.4579
969.3470, 151.6048
969.8292, 153.4318
970.3113, 151.9580
970.7934, 148.8869
971.2755, 146.8368
971.7576, 146.2552
972.2397, 145.8221
972.7219, 144.2903
973.2040, 143.4438
973.6861, 145.5601
974.1682, 148.1674
974.6503, 148.1348
975.1324, 146.0451
975.6146, 143.8568
976.0967, 142.3265
976.5788, 142.2385
977.0609, 145.8668
977.5430, 150.1304
978.0251, 150.0293
978.5073, 147.3129
978.9894, 146.3918
979.4715, 147.5417
979.9536, 147.6345
980.4357, 144.8906
980.9178, 141.6600
981.4000, 141.4250
981.8821, 143.4882
982.3642, 145.5015
982.8463, 147.3763
983.3284, 148.5217
983.8105, 148.7820
984.2927, 148.4858
984.7748, 147.8231
985.2569, 146.9635
985.7390, 146.1469
986.2211, 145.3368
986.7032, 145.5923
987.1854, 147.1981
987.6675, 148.2069
988.1496, 147.7364
988.6317, 147.3757
989.1138, 148.8648
989.5959, 151.5534
990.0781, 152.5758
990.5602, 151.4122
991.0423, 150.0598
991.5244, 148.4760
992.0065, 146.7770
992.4886, 144.1197
992.9708, 142.2674
993.4529, 144.0288
993.9350, 148.9272
994.4171, 151.2868
994.8992, 149.8148
995.3813, 147.8199
995.8635, 143.4576
996.3456, 140.8109
996.8277, 144.1136
997.3098, 148.6563
997.7919, 147.5974
998.2740, 141.0840
998.7562, 137.4544
999.2383, 140.8624
999.7204, 143.7628
1000.203, 143.6550
1000.685, 142.9486
1001.167, 143.0813
1001.649, 143.8475
1002.131, 145.1802
1002.613, 146.9181
1003.095, 147.1725
1003.577, 143.4090
1004.059, 140.0567
1004.542, 140.0625
1005.024, 141.2470
1005.506, 141.0214
1005.988, 140.2814
1006.470, 142.1314
1006.952, 147.1859
1007.434, 150.8711
1007.916, 148.6784
1008.398, 145.1150
1008.881, 144.1246
1009.363, 144.7766
1009.845, 146.3980
1010.327, 148.3229
1010.809, 149.0845
1011.291, 148.1448
1011.773, 146.7782
1012.255, 145.7573
1012.738, 145.3854
1013.220, 146.8176
1013.702, 149.1003
1014.184, 149.7613
1014.666, 148.7339
1015.148, 147.4700
1015.630, 146.6803
1016.112, 146.4740
1016.594, 147.2951
1017.077, 148.6440
1017.559, 149.1127
1018.041, 148.8583
1018.523, 148.6409
1019.005, 148.5923
1019.487, 148.6888
1019.969, 148.9662
1020.451, 148.7619
1020.934, 146.5828
1021.416, 143.0376
1021.898, 141.9267
1022.380, 143.1782
1022.862, 144.2567
1023.344, 144.6790
1023.826, 144.6050
1024.308, 144.0166
1024.791, 143.5061
1025.273, 144.2619
1025.755, 146.2400
1026.237, 147.8216
1026.719, 149.0473
1027.201, 149.3718
1027.683, 148.4083
1028.165, 147.8462
1028.647, 149.1205
1029.130, 150.9058
1029.612, 150.1853
1030.094, 149.8741
1030.576, 149.2219
1031.058, 146.2676
1031.540, 146.0163
1032.022, 142.2923
1032.504, 139.3073
1032.986, 140.3266
1033.469, 143.7729
1033.951, 146.1927
1034.433, 147.5312
1034.915, 148.1269
1035.397, 147.9309
1035.879, 146.9932
1036.361, 144.2836
1036.843, 142.4344
1037.326, 144.4585
1037.808, 148.0474
1038.290, 147.3042
1038.772, 140.4473
1039.254, 137.2899
1039.736, 139.9859
1040.218, 143.0109
1040.700, 146.3392
1041.182, 148.5832
1041.665, 147.8609
1042.147, 145.5628
1042.629, 145.0362
1043.111, 146.7996
1043.593, 148.0316
1044.075, 149.4963
1044.557, 149.2787
1045.039, 144.7525
1045.521, 140.6019
1046.004, 140.8128
1046.486, 143.5104
1046.968, 144.3748
1047.450, 142.6364
1047.932, 141.9042
1048.414, 143.5243
1048.896, 144.8743
1049.378, 146.0092
1049.861, 145.9321
1050.343, 142.2430
1050.825, 137.3860
1051.307, 136.6204
1051.789, 141.0657
1052.271, 144.7707
1052.753, 146.4266
1053.235, 147.3957
1053.718, 148.0871
1054.200, 148.2332
1054.682, 147.2671
1055.164, 145.7334
1055.646, 144.5583
1056.128, 143.8771
1056.610, 143.6672
1057.092, 144.1711
1057.574, 144.8098
1058.057, 145.6649
1058.539, 146.3102
1059.021, 146.0324
1059.503, 145.4693
1059.985, 146.2285
1060.467, 148.5327
1060.949, 149.2061
1061.431, 145.4876
1061.913, 142.2856
1062.396, 141.1125
1062.878, 141.5406
1063.360, 144.9873
1063.842, 149.0033
1064.324, 148.9800
1064.806, 144.5127
1065.288, 141.1567
1065.770, 141.5213
1066.253, 142.6437
1066.735, 144.4124
1067.217, 145.3892
1067.699, 143.1772
1068.181, 140.0565
1068.663, 140.4290
1069.145, 144.3657
1069.627, 146.2740
1070.109, 142.2213
1070.592, 138.8941
1071.074, 139.4836
1071.556, 141.7335
1072.038, 145.3210
1072.520, 148.6982
1073.002, 149.5449
1073.484, 147.9431
1073.966, 146.5282
1074.448, 146.6459
1074.931, 146.2215
1075.413, 142.7149
1075.895, 139.9438
1076.377, 141.7378
1076.859, 145.3199
1077.341, 147.0930
1077.823, 146.7496
1078.305, 145.5387
1078.788, 143.5325
1079.270, 141.8571
1079.752, 140.8123
1080.234, 140.5418
1080.716, 142.1239
1081.198, 143.8446
1081.680, 143.2318
1082.162, 140.8419
1082.644, 139.5157
1083.127, 140.4306
1083.609, 140.8859
1084.091, 138.2810
1084.573, 136.4694
1085.055, 138.6842
1085.537, 142.2194
1086.019, 144.7426
1086.501, 145.8877
1086.984, 145.1623
1087.466, 142.1597
1087.948, 140.5219
1088.430, 143.0083
1088.912, 145.7171
1089.394, 147.1106
1089.876, 147.3750
1090.358, 145.9406
1090.840, 143.8137
1091.323, 142.9574
1091.805, 143.7735
1092.287, 144.8009
1092.769, 147.2603
1093.251, 147.4636
1093.733, 140.4441
1094.215, 133.9025
1094.697, 135.2275
1095.179, 140.5913
1095.662, 143.3003
1096.144, 142.5321
1096.626, 141.5190
1097.108, 140.4199
1097.590, 140.5378
1098.072, 144.0953
1098.554, 147.0529
1099.036, 146.2141
1099.519, 143.6675
1100.001, 141.8675
1100.483, 141.1330
1100.965, 141.3532
1101.447, 143.1785
1101.929, 144.4616
1102.411, 143.9878
1102.893, 143.6458
1103.375, 144.5724
1103.858, 145.8907
1104.340, 147.1804
1104.822, 148.0299
1105.304, 147.2642
1105.786, 144.3482
1106.268, 141.1053
1106.750, 135.3429
1107.232, 132.6220
1107.714, 138.4054
1108.197, 144.5318
1108.679, 143.2088
1109.161, 137.7349
1109.643, 136.5543
1110.125, 141.2682
1110.607, 143.2246
1111.089, 138.6415
1111.571, 135.5579
1112.054, 136.8945
1112.536, 138.5718
1113.018, 137.7225
1113.500, 136.0398
1113.982, 136.5255
1114.464, 139.2560
1114.946, 140.5962
1115.428, 139.1926
1115.911, 138.6873
1116.393, 140.6136
1116.875, 141.5520
1117.357, 139.0980
1117.839, 135.9938
1118.321, 135.1892
1118.803, 136.3664
1119.285, 137.7352
1119.767, 139.8174
1120.250, 140.6725
1120.732, 139.2414
1121.214, 138.7945
1121.696, 140.6455
1122.178, 143.2752
1122.660, 146.1392
1123.142, 148.2723
1123.624, 146.6254
1124.106, 140.2614
1124.589, 137.4693
1125.071, 139.0002
1125.553, 142.0192
1126.035, 147.1752
1126.517, 149.7636
1126.999, 146.1755
1127.481, 140.2695
1127.963, 138.1302
1128.446, 139.4686
1128.928, 141.2559
1129.410, 143.6963
1129.892, 144.5868
1130.374, 143.5392
1130.856, 141.9240
1131.338, 140.1886
1131.820, 138.9812
1132.302, 139.1419
1132.785, 140.1137
1133.267, 139.8545
1133.749, 138.5251
1134.231, 139.2099
1134.713, 141.9480
1135.195, 143.1854
1135.677, 141.9483
1136.159, 141.0636
1136.641, 142.8031
1137.124, 144.5302
1137.606, 140.2502
1138.088, 132.3999
1138.570, 130.8975
1139.052, 134.4094
1139.534, 136.8368
1140.016, 137.2144
1140.498, 136.4782
1140.981, 135.1177
1141.463, 135.0531
1141.945, 139.4371
1142.427, 145.0164
1142.909, 145.5434
1143.391, 143.1671
1143.873, 142.4634
1144.355, 143.2535
1144.838, 143.2910
1145.320, 142.0656
1145.802, 141.0588
1146.284, 141.4379
1146.766, 141.8408
1147.248, 140.2375
1147.730, 138.4311
1148.212, 138.2246
1148.694, 139.6305
1149.177, 143.6499
1149.659, 149.1225
1150.141, 151.8914
1150.623, 150.1995
1151.105, 147.5376
1151.587, 144.8560
1152.069, 143.3674
1152.551, 146.0522
1153.033, 148.5149
1153.516, 143.8104
1153.998, 136.2273
1154.480, 136.3201
1154.962, 145.3977
1155.444, 150.7740
1155.926, 144.1448
1156.408, 139.2749
1156.890, 141.9249
1157.373, 145.6355
1157.855, 147.4565
1158.337, 147.8218
1158.819, 146.7838
1159.301, 144.8758
1159.783, 144.4973
1160.265, 143.3016
1160.747, 141.1229
1161.229, 142.1184
1161.712, 138.5462
1162.194, 138.7422
1162.676, 141.5561
1163.158, 148.9685
1163.640, 156.5421
1164.122, 155.2811
1164.604, 144.8067
1165.086, 138.8206
1165.568, 138.7787
1166.051, 138.7684
1166.533, 137.9539
1167.015, 138.1950
1167.497, 140.8148
1167.979, 143.1650
1168.461, 142.2653
1168.943, 139.3092
1169.425, 138.2444
1169.908, 139.1441
1170.390, 139.1068
1170.872, 138.0334
1171.354, 138.5619
1171.836, 141.3424
1172.318, 143.5381
1172.800, 143.3684
1173.282, 142.4637
1173.765, 143.0928
1174.247, 144.7911
1174.729, 146.5078
1175.211, 148.0553
1175.693, 148.8712
1176.175, 148.8445
1176.657, 147.6196
1177.139, 145.1993
1177.621, 142.5021
1178.104, 139.8872
1178.586, 138.3506
1179.068, 139.6334
1179.550, 142.3038
1180.032, 145.6949
1180.514, 148.3244
1180.996, 146.6175
1181.478, 141.7179
1181.960, 138.9878
1182.443, 140.4179
1182.925, 142.8347
1183.407, 145.2708
1183.889, 147.0002
1184.371, 148.0077
1184.853, 147.7139
1185.335, 144.1000
1185.817, 139.6417
1186.300, 138.6540
1186.782, 141.1689
1187.264, 142.9576
1187.746, 142.5697
1188.228, 142.6447
1188.710, 144.3692
1189.192, 145.6541
1189.674, 145.0157
1190.156, 144.3663
1190.639, 145.8964
1191.121, 144.7225
1191.603, 147.7856
1192.085, 144.3957
1192.567, 142.8629
1193.049, 143.7800
1193.531, 144.8256
1194.013, 145.6278
1194.495, 147.2311
1194.978, 150.7487
1195.460, 152.9166
1195.942, 149.8793
1196.424, 143.7784
1196.906, 140.7326
1197.388, 140.6770
1197.870, 143.4126
1198.352, 148.6286
1198.835, 151.3126
1199.317, 150.5122
1199.799, 148.0683
1200.281, 144.9310
1200.763, 141.4530
1201.245, 137.5137
1201.727, 134.2419
1202.209, 134.4030
1202.692, 136.4068
1203.174, 136.0899
1203.656, 134.8070
1204.138, 138.0775
1204.620, 145.8755
1205.102, 151.0661
1205.584, 149.6067
1206.066, 147.0521
1206.548, 147.5788
1207.031, 148.4041
1207.513, 146.6615
1207.995, 144.7122
1208.477, 146.0789
1208.959, 148.9419
1209.441, 148.7786
1209.923, 145.0159
1210.405, 142.1833
1210.887, 141.6024
1211.370, 141.6286
1211.852, 142.7341
1212.334, 143.4769
1212.816, 142.7293
1213.298, 141.8806
1213.780, 141.7309
1214.262, 142.5388
1214.744, 145.4494
1215.227, 150.9998
1215.709, 152.4607
1216.191, 148.6723
1216.673, 145.5010
1217.155, 143.6467
1217.637, 142.8551
1218.119, 143.1353
1218.601, 143.7427
1219.083, 143.9404
1219.566, 143.8731
1220.048, 144.2017
1220.530, 144.5756
1221.012, 142.5175
1221.494, 138.8504
1221.976, 137.7655
1222.458, 139.6618
1222.940, 142.3449
1223.422, 144.7764
1223.905, 146.5730
1224.387, 147.6054
1224.869, 147.5213
1225.351, 144.4159
1225.833, 141.2666
1226.315, 142.7973
1226.797, 141.1081
1227.279, 141.0927
1227.762, 143.1203
1228.244, 142.6075
1228.726, 146.9499
1229.208, 150.6302
1229.690, 151.8060
1230.172, 151.9818
1230.654, 151.4694
1231.136, 150.3250
1231.619, 148.0604
1232.101, 145.5111
1232.583, 143.3498
1233.065, 141.8133
1233.547, 142.6564
1234.029, 147.2309
1234.511, 149.5615
1234.993, 149.2741
1235.475, 148.0213
1235.958, 145.9531
1236.440, 144.0473
1236.922, 142.8626
1237.404, 142.1160
1237.886, 141.3031
1238.368, 140.8047
1238.850, 142.4893
1239.332, 145.4800
1239.814, 145.3197
1240.297, 142.9323
1240.779, 144.2001
1241.261, 149.5130
1241.743, 152.7785
1242.225, 150.7343
1242.707, 147.6785
1243.189, 147.3488
1243.671, 147.8012
1244.154, 147.1568
1244.636, 146.4519
1245.118, 147.0460
1245.600, 148.2962
1246.082, 149.0363
1246.564, 149.1631
1247.046, 149.0676
1247.528, 148.4759
1248.010, 148.7263
1248.493, 152.5221
1248.975, 153.5336
1249.457, 147.3913
1249.939, 141.8755
1250.421, 141.8513
1250.903, 139.5585
1251.385, 143.9266
1251.867, 142.2212
1252.349, 143.9401
1252.832, 149.5629
1253.314, 152.0790
1253.796, 151.2041
1254.278, 150.2181
1254.760, 149.8410
1255.242, 148.3086
1255.724, 144.6142
1256.206, 141.5486
1256.689, 142.6055
1257.171, 145.6343
1257.653, 148.2526
1258.135, 149.5914
1258.617, 146.1205
1259.099, 141.0326
1259.581, 141.5916
1260.063, 147.4777
1260.546, 152.7352
1261.028, 155.4265
1261.510, 155.9997
1261.992, 153.5379
1262.474, 150.5683
1262.956, 146.3078
1263.438, 143.8635
1263.920, 146.7381
1264.402, 151.3078
1264.885, 153.4862
1265.367, 153.6172
1265.849, 152.7257
1266.331, 150.2983
1266.813, 150.6408
1267.295, 154.9161
1267.777, 156.0843
1268.259, 152.7591
1268.741, 148.4927
1269.224, 144.6128
1269.706, 143.2654
1270.188, 147.0257
1270.670, 152.4715
1271.152, 152.8120
1271.634, 150.2223
1272.116, 149.8064
1272.598, 150.6530
1273.081, 149.7995
1273.563, 147.8548
1274.045, 148.2896
1274.527, 151.7679
1275.009, 154.0327
1275.491, 151.6424
1275.973, 150.5865
1276.455, 156.6106
1276.938, 161.2315
1277.420, 158.6184
1277.902, 153.5780
1278.384, 149.2870
1278.866, 146.3960
1279.348, 146.1437
1279.830, 148.3900
1280.312, 149.6240
1280.794, 149.3587
1281.276, 150.0386
1281.759, 151.8783
1282.241, 154.2420
1282.723, 157.1234
1283.205, 158.6492
1283.687, 157.6379
1284.169, 155.3706
1284.651, 153.2679
1285.133, 151.3833
1285.616, 149.7938
1286.098, 148.4848
##END=



