##NAMES=Mangano-mangani-ungarettiite
##RRUFFID=R050244
##IDEAL CHEMISTRY=NaNa_2_(Mn^2+^_2_Mn^3+^_3_)Si_8_O_22_O_2_
##LOCALITY=Hoskins mine, near Grenfell, New South Wales, Australia
##OWNER=RRUFF
##SOURCE=Marcus Origlieri
##DESCRIPTION=Dark red granular, associated with namansilite, R070006
##STATUS=The identification of this mineral is confirmed by single-crystal X-ray diffraction and chemical analysis.
##URL=rruff.info/R050244
##MEASURED CHEMISTRY=Na_1.00_Na_2.00_(Mn^2+^_2.00_(Mn^3+^_2.35_Fe^3+^_0.63_Al_0.02_)_Î£=3_)Si_8.00_O_22_O_2_
123.2385, 720.8304
123.7206, 762.7034
124.2028, 803.1541
124.6849, 848.9553
125.1670, 909.1113
125.6491, 989.7355
126.1312, 1065.930
126.6133, 1131.820
127.0955, 1198.571
127.5776, 1274.545
128.0597, 1360.469
128.5418, 1448.639
129.0239, 1528.470
129.5060, 1594.612
129.9882, 1666.096
130.4703, 1745.245
130.9524, 1827.850
131.4345, 1912.540
131.9166, 1998.199
132.3987, 2082.218
132.8809, 2159.966
133.3630, 2232.753
133.8451, 2293.159
134.3272, 2333.975
134.8093, 2365.205
135.2914, 2395.920
135.7736, 2428.585
136.2557, 2463.365
136.7378, 2500.183
137.2199, 2538.205
137.7020, 2580.701
138.1841, 2620.437
138.6663, 2666.941
139.1484, 2737.549
139.6305, 2840.952
140.1126, 2960.088
140.5947, 3064.857
141.0768, 3150.558
141.5590, 3248.642
142.0411, 3371.043
142.5232, 3513.390
143.0053, 3665.484
143.4874, 3826.481
143.9695, 3994.668
144.4517, 4170.233
144.9338, 4354.913
145.4159, 4534.646
145.8980, 4703.502
146.3801, 4862.407
146.8622, 5015.525
147.3444, 5162.376
147.8265, 5305.535
148.3086, 5451.473
148.7907, 5603.220
149.2728, 5742.883
149.7549, 5854.219
150.2371, 5940.474
150.7192, 6024.450
151.2013, 6115.315
151.6834, 6201.613
152.1655, 6271.864
152.6476, 6324.889
153.1298, 6369.434
153.6119, 6411.526
154.0940, 6450.978
154.5761, 6485.592
155.0582, 6512.538
155.5403, 6535.360
156.0225, 6551.916
156.5046, 6561.886
156.9867, 6580.876
157.4688, 6628.805
157.9509, 6708.384
158.4330, 6782.626
158.9152, 6832.695
159.3973, 6883.094
159.8794, 6954.475
160.3615, 7048.851
160.8436, 7142.354
161.3257, 7200.846
161.8079, 7213.628
162.2900, 7254.293
162.7721, 7360.477
163.2542, 7482.056
163.7363, 7594.084
164.2184, 7692.500
164.7006, 7784.901
165.1827, 7881.416
165.6648, 7986.076
166.1469, 8081.871
166.6290, 8158.610
167.1111, 8232.299
167.5933, 8313.356
168.0754, 8402.994
168.5575, 8491.668
169.0396, 8566.316
169.5217, 8622.157
170.0038, 8678.822
170.4860, 8741.708
170.9681, 8802.711
171.4502, 8856.339
171.9323, 8901.996
172.4144, 8943.386
172.8965, 8986.325
173.3787, 9036.156
173.8608, 9073.099
174.3429, 9086.836
174.8250, 9096.631
175.3071, 9110.691
175.7892, 9131.594
176.2714, 9160.059
176.7535, 9197.937
177.2356, 9249.105
177.7177, 9299.760
178.1998, 9355.487
178.6819, 9406.535
179.1641, 9445.836
179.6462, 9473.146
180.1283, 9494.324
180.6104, 9515.531
181.0925, 9534.079
181.5746, 9560.990
182.0567, 9594.237
182.5389, 9635.353
183.0210, 9692.500
183.5031, 9762.341
183.9852, 9828.000
184.4673, 9868.063
184.9494, 9869.801
185.4316, 9886.927
185.9137, 9928.871
186.3958, 9975.048
186.8779, 10012.34
187.3600, 10040.94
187.8421, 10071.62
188.3243, 10118.02
188.8064, 10189.58
189.2885, 10237.39
189.7706, 10245.57
190.2527, 10248.78
190.7348, 10265.16
191.2170, 10295.17
191.6991, 10329.38
192.1812, 10358.53
192.6633, 10381.80
193.1454, 10404.93
193.6275, 10430.43
194.1097, 10453.68
194.5918, 10465.75
195.0739, 10471.19
195.5560, 10487.42
196.0381, 10533.04
196.5202, 10614.00
197.0024, 10667.26
197.4845, 10680.07
197.9666, 10684.05
198.4487, 10690.18
198.9308, 10699.61
199.4129, 10709.75
199.8951, 10717.34
200.3772, 10721.89
200.8593, 10742.56
201.3414, 10787.92
201.8235, 10836.88
202.3056, 10886.63
202.7878, 10933.76
203.2699, 10972.47
203.7520, 10998.90
204.2341, 11013.26
204.7162, 11018.09
205.1983, 11004.14
205.6805, 10992.39
206.1626, 10985.66
206.6447, 10986.30
207.1268, 11000.00
207.6089, 11031.97
208.0910, 11078.41
208.5732, 11113.00
209.0553, 11133.36
209.5374, 11146.72
210.0195, 11153.67
210.5016, 11154.93
210.9837, 11148.47
211.4659, 11131.50
211.9480, 11110.70
212.4301, 11113.46
212.9122, 11175.75
213.3943, 11216.87
213.8764, 11205.21
214.3586, 11168.02
214.8407, 11145.43
215.3228, 11155.04
215.8049, 11186.64
216.2870, 11214.10
216.7691, 11237.98
217.2513, 11256.92
217.7334, 11264.10
218.2155, 11268.54
218.6976, 11276.55
219.1797, 11290.14
219.6618, 11225.65
220.1440, 11355.67
220.6261, 11434.19
221.1082, 11463.98
221.5903, 11299.05
222.0724, 11385.55
222.5546, 11371.30
223.0367, 11352.91
223.5188, 11474.79
224.0009, 11338.19
224.4830, 11457.85
224.9651, 11475.22
225.4473, 11539.40
225.9294, 11464.25
226.4115, 11462.68
226.8936, 11465.56
227.3757, 11470.11
227.8578, 11472.78
228.3400, 11471.81
228.8221, 11477.24
229.3042, 11505.07
229.7863, 11525.97
230.2684, 11510.36
230.7505, 11464.16
231.2327, 11426.67
231.7148, 11435.95
232.1969, 11498.10
232.6790, 11541.74
233.1611, 11553.17
233.6432, 11563.04
234.1254, 11588.86
234.6075, 11626.01
235.0896, 11659.11
235.5717, 11677.43
236.0538, 11681.30
236.5359, 11677.33
237.0181, 11651.74
237.5002, 11634.19
237.9823, 11642.05
238.4644, 11663.64
238.9465, 11675.09
239.4286, 11661.41
239.9108, 11630.45
240.3929, 11618.97
240.8750, 11643.62
241.3571, 11668.40
241.8392, 11690.55
242.3213, 11709.60
242.8035, 11726.22
243.2856, 11740.71
243.7677, 11751.10
244.2498, 11752.18
244.7319, 11720.44
245.2140, 11710.91
245.6962, 11742.41
246.1783, 11786.16
246.6604, 11816.72
247.1425, 11826.39
247.6246, 11823.98
248.1067, 11822.83
248.5889, 11823.35
249.0710, 11824.47
249.5531, 11825.98
250.0352, 11828.12
250.5173, 11831.43
250.9994, 11835.76
251.4816, 11839.91
251.9637, 11841.62
252.4458, 11838.15
252.9279, 11844.92
253.4100, 11869.19
253.8921, 11895.70
254.3743, 11922.08
254.8564, 11945.46
255.3385, 11959.97
255.8206, 11959.11
256.3027, 11942.85
256.7849, 11934.90
257.2670, 11950.12
257.7491, 11958.82
258.2312, 11944.19
258.7133, 11919.12
259.1954, 11905.45
259.6776, 11916.71
260.1597, 11948.75
260.6418, 11985.29
261.1239, 12040.07
261.6060, 12078.57
262.0881, 12087.63
262.5703, 12081.96
263.0524, 12076.12
263.5345, 12076.05
264.0166, 12080.79
264.4987, 12090.14
264.9808, 12110.52
265.4630, 12120.60
265.9451, 12108.80
266.4272, 12092.66
266.9093, 12083.58
267.3914, 12084.45
267.8735, 12092.89
268.3557, 12107.39
268.8378, 12129.06
269.3199, 12150.75
269.8020, 12181.01
270.2841, 12203.60
270.7662, 12203.35
271.2484, 12184.76
271.7305, 12169.89
272.2126, 12182.78
272.6947, 12221.63
273.1768, 12245.04
273.6589, 12243.56
274.1411, 12237.91
274.6232, 12236.12
275.1053, 12237.87
275.5874, 12242.77
276.0695, 12255.14
276.5516, 12268.53
277.0338, 12261.55
277.5159, 12223.65
277.9980, 12191.52
278.4801, 12181.37
278.9622, 12186.00
279.4443, 12199.25
279.9265, 12220.92
280.4086, 12247.11
280.8907, 12274.98
281.3728, 12305.13
281.8549, 12330.42
282.3370, 12352.11
282.8192, 12364.31
283.3013, 12353.51
283.7834, 12312.91
284.2655, 12285.23
284.7476, 12317.77
285.2297, 12396.84
285.7119, 12447.20
286.1940, 12440.00
286.6761, 12418.14
287.1582, 12434.12
287.6403, 12484.81
288.1224, 12519.87
288.6046, 12504.72
289.0867, 12464.96
289.5688, 12444.36
290.0509, 12449.25
290.5330, 12464.40
291.0151, 12480.72
291.4973, 12497.47
291.9794, 12510.70
292.4615, 12514.99
292.9436, 12519.17
293.4257, 12537.16
293.9078, 12566.15
294.3900, 12580.26
294.8721, 12558.15
295.3542, 12511.85
295.8363, 12489.41
296.3184, 12506.06
296.8005, 12525.12
297.2827, 12528.31
297.7648, 12524.10
298.2469, 12533.34
298.7290, 12566.56
299.2111, 12606.29
299.6932, 12616.12
300.1754, 12577.37
300.6575, 12550.67
301.1396, 12547.47
301.6217, 12556.01
302.1038, 12566.63
302.5859, 12576.97
303.0681, 12587.07
303.5501, 12597.15
304.0323, 12607.49
304.5144, 12616.02
304.9965, 12613.35
305.4786, 12617.57
305.9607, 12647.67
306.4428, 12694.11
306.9250, 12728.50
307.4071, 12729.73
307.8892, 12701.86
308.3713, 12682.49
308.8534, 12670.78
309.3355, 12669.26
309.8177, 12683.83
310.2998, 12706.97
310.7819, 12730.08
311.2640, 12749.58
311.7461, 12767.14
312.2282, 12788.24
312.7104, 12823.46
313.1925, 12838.55
313.6746, 12816.63
314.1567, 12787.43
314.6388, 12768.37
315.1209, 12762.71
315.6031, 12765.99
316.0852, 12776.78
316.5673, 12796.31
317.0494, 12808.15
317.5315, 12803.88
318.0136, 12800.69
318.4958, 12805.22
318.9779, 12816.34
319.4600, 12831.51
319.9421, 12853.06
320.4242, 12875.41
320.9063, 12879.89
321.3885, 12856.95
321.8706, 12842.86
322.3527, 12874.44
322.8348, 12914.27
323.3169, 12917.58
323.7990, 12865.46
324.2812, 12803.39
324.7633, 12771.76
325.2454, 12769.97
325.7275, 12792.61
326.2096, 12853.81
326.6917, 12921.11
327.1739, 12958.00
327.6560, 12964.43
328.1381, 12963.60
328.6202, 12963.89
329.1023, 12963.87
329.5844, 12958.91
330.0666, 12947.32
330.5487, 12939.43
331.0308, 12945.18
331.5129, 12963.61
331.9950, 12982.77
332.4771, 13005.29
332.9593, 13025.50
333.4414, 13042.06
333.9235, 13053.56
334.4056, 13053.31
334.8877, 13034.91
335.3698, 13006.35
335.8520, 12994.61
336.3341, 13011.56
336.8162, 13025.37
337.2983, 13026.89
337.7804, 13024.26
338.2625, 13027.97
338.7447, 13040.43
339.2268, 13054.97
339.7089, 13063.04
340.1910, 13063.90
340.6731, 13059.92
341.1552, 13042.98
341.6374, 13029.30
342.1195, 13030.09
342.6016, 13041.80
343.0837, 13052.54
343.5658, 13053.22
344.0479, 13046.00
344.5301, 13046.42
345.0122, 13059.08
345.4943, 13073.76
345.9764, 13090.47
346.4585, 13107.37
346.9406, 13121.90
347.4228, 13133.29
347.9049, 13144.44
348.3870, 13161.73
348.8691, 13188.15
349.3512, 13205.46
349.8333, 13194.67
350.3155, 13188.33
350.7976, 13217.50
351.2797, 13273.67
351.7618, 13311.12
352.2439, 13281.01
352.7260, 13207.08
353.2082, 13169.92
353.6903, 13178.87
354.1724, 13201.00
354.6545, 13226.66
355.1366, 13250.82
355.6187, 13263.39
356.1009, 13255.63
356.5830, 13245.75
357.0651, 13252.22
357.5472, 13271.95
358.0293, 13286.63
358.5114, 13288.60
358.9936, 13284.62
359.4757, 13284.82
359.9578, 13288.51
360.4399, 13297.36
360.9220, 13321.44
361.4041, 13345.96
361.8863, 13347.27
362.3684, 13324.30
362.8505, 13306.45
363.3326, 13322.91
363.8147, 13374.38
364.2968, 13398.98
364.7790, 13370.81
365.2611, 13347.70
365.7432, 13359.54
366.2253, 13389.88
366.7074, 13407.86
367.1895, 13399.31
367.6717, 13374.29
368.1538, 13354.52
368.6359, 13334.62
369.1180, 13331.12
369.6001, 13355.70
370.0822, 13385.91
370.5644, 13405.85
371.0465, 13415.11
371.5286, 13425.21
372.0107, 13451.77
372.4928, 13493.37
372.9749, 13502.11
373.4571, 13443.55
373.9392, 13400.21
374.4213, 13407.03
374.9034, 13443.17
375.3855, 13481.81
375.8676, 13515.59
376.3498, 13539.78
376.8319, 13542.38
377.3140, 13521.87
377.7961, 13510.87
378.2782, 13524.20
378.7603, 13544.82
379.2425, 13553.92
379.7246, 13551.56
380.2067, 13550.78
380.6888, 13556.83
381.1709, 13568.52
381.6530, 13588.76
382.1352, 13618.76
382.6173, 13638.21
383.0994, 13628.15
383.5815, 13593.23
384.0636, 13568.77
384.5457, 13562.57
385.0279, 13558.21
385.5100, 13544.17
385.9921, 13527.73
386.4742, 13525.63
386.9563, 13544.56
387.4384, 13570.50
387.9206, 13578.76
388.4027, 13554.44
388.8848, 13547.99
389.3669, 13574.74
389.8490, 13605.01
390.3311, 13620.88
390.8133, 13623.42
391.2954, 13622.58
391.7775, 13624.98
392.2596, 13630.82
392.7417, 13641.36
393.2238, 13656.96
393.7060, 13677.22
394.1881, 13718.35
394.6702, 13754.87
395.1523, 13752.68
395.6344, 13704.10
396.1165, 13652.56
396.5987, 13652.15
397.0808, 13701.94
397.5629, 13744.99
398.0450, 13781.76
398.5271, 13800.86
399.0092, 13783.69
399.4914, 13742.92
399.9735, 13716.30
400.4556, 13724.37
400.9377, 13748.29
401.4198, 13767.59
401.9019, 13782.63
402.3841, 13798.39
402.8662, 13820.50
403.3483, 13841.04
403.8304, 13839.29
404.3125, 13802.11
404.7946, 13784.27
405.2768, 13816.34
405.7589, 13865.69
406.2410, 13898.93
406.7231, 13910.54
407.2052, 13908.43
407.6873, 13898.33
408.1695, 13880.13
408.6516, 13861.97
409.1337, 13825.22
409.6158, 13809.62
410.0979, 13844.17
410.5800, 13899.24
411.0622, 13934.66
411.5443, 13935.45
412.0264, 13918.85
412.5085, 13911.92
412.9906, 13916.64
413.4727, 13923.82
413.9549, 13934.69
414.4370, 13946.64
414.9191, 13960.56
415.4012, 13974.83
415.8833, 13985.46
416.3654, 13990.55
416.8476, 13990.42
417.3297, 13980.68
417.8118, 13957.84
418.2939, 13951.51
418.7760, 13990.19
419.2581, 14040.88
419.7403, 14053.55
420.2224, 14017.87
420.7045, 13987.23
421.1866, 13991.21
421.6687, 14014.22
422.1508, 14032.73
422.6330, 14043.29
423.1151, 14050.05
423.5972, 14056.12
424.0793, 14061.43
424.5614, 14065.78
425.0435, 14074.19
425.5257, 14076.18
426.0078, 14062.99
426.4899, 14042.87
426.9720, 14026.65
427.4541, 14018.30
427.9362, 14017.12
428.4184, 14022.61
428.9005, 14036.41
429.3826, 14051.90
429.8647, 14069.31
430.3468, 14088.22
430.8289, 14112.87
431.3111, 14138.65
431.7932, 14156.72
432.2753, 14162.98
432.7574, 14157.51
433.2395, 14132.22
433.7216, 14079.45
434.2038, 14052.64
434.6859, 14085.06
435.1680, 14136.16
435.6501, 14168.16
436.1322, 14179.85
436.6143, 14179.83
437.0965, 14161.31
437.5786, 14138.10
438.0607, 14128.91
438.5428, 14135.21
439.0249, 14157.62
439.5070, 14202.67
439.9892, 14262.50
440.4713, 14299.75
440.9534, 14300.51
441.4355, 14300.38
441.9176, 14308.26
442.3997, 14318.47
442.8819, 14325.09
443.3640, 14326.72
443.8461, 14324.18
444.3282, 14316.78
444.8103, 14303.38
445.2924, 14300.89
445.7746, 14317.83
446.2567, 14337.01
446.7388, 14353.35
447.2209, 14369.79
447.7030, 14393.70
448.1852, 14428.96
448.6673, 14460.24
449.1494, 14466.75
449.6315, 14448.45
450.1136, 14418.33
450.5957, 14358.64
451.0779, 14316.93
451.5600, 14349.32
452.0421, 14434.14
452.5242, 14493.66
453.0063, 14487.19
453.4884, 14460.99
453.9706, 14453.05
454.4527, 14460.50
454.9348, 14470.51
455.4169, 14477.73
455.8990, 14485.93
456.3811, 14503.53
456.8633, 14542.03
457.3454, 14560.62
457.8275, 14537.83
458.3096, 14512.88
458.7917, 14511.84
459.2738, 14531.43
459.7560, 14555.27
460.2381, 14573.06
460.7202, 14586.99
461.2023, 14604.91
461.6844, 14632.03
462.1665, 14651.71
462.6487, 14655.59
463.1308, 14655.80
463.6129, 14659.80
464.0950, 14668.23
464.5771, 14678.30
465.0592, 14694.26
465.5414, 14709.42
466.0235, 14702.57
466.5056, 14670.17
466.9877, 14641.17
467.4698, 14625.53
467.9519, 14626.19
468.4341, 14650.21
468.9162, 14711.79
469.3983, 14757.99
469.8804, 14763.97
470.3625, 14748.15
470.8446, 14723.31
471.3268, 14695.16
471.8089, 14682.90
472.2910, 14705.80
472.7731, 14759.68
473.2552, 14792.91
473.7373, 14794.22
474.2195, 14786.57
474.7016, 14763.85
475.1837, 14738.08
475.6658, 14720.79
476.1479, 14714.14
476.6300, 14712.13
477.1122, 14705.45
477.5943, 14695.59
478.0764, 14706.13
478.5585, 14750.80
479.0406, 14786.98
479.5227, 14780.47
480.0049, 14755.56
480.4870, 14745.30
480.9691, 14758.48
481.4512, 14776.77
481.9333, 14797.60
482.4154, 14813.50
482.8976, 14801.86
483.3797, 14757.56
483.8618, 14715.27
484.3439, 14705.12
484.8260, 14727.05
485.3081, 14761.85
485.7903, 14831.76
486.2724, 14885.84
486.7545, 14906.81
487.2366, 14906.15
487.7187, 14886.57
488.2008, 14853.53
488.6830, 14836.86
489.1651, 14888.30
489.6472, 15014.31
490.1293, 15071.77
490.6114, 15013.74
491.0935, 14954.18
491.5757, 14934.16
492.0578, 14943.83
492.5399, 14975.46
493.0220, 15034.90
493.5041, 15087.37
493.9862, 15096.93
494.4684, 15076.71
494.9505, 15064.74
495.4326, 15068.01
495.9147, 15078.83
496.3968, 15092.60
496.8789, 15108.82
497.3611, 15119.08
497.8432, 15127.84
498.3253, 15125.98
498.8074, 15090.89
499.2895, 15051.67
499.7716, 15053.48
500.2538, 15104.52
500.7359, 15166.56
501.2180, 15193.61
501.7001, 15183.52
502.1822, 15178.01
502.6643, 15183.02
503.1465, 15184.20
503.6286, 15169.20
504.1107, 15151.08
504.5928, 15150.75
505.0749, 15176.42
505.5570, 15198.34
506.0392, 15173.98
506.5213, 15125.44
507.0034, 15130.71
507.4855, 15208.41
507.9676, 15283.53
508.4497, 15293.97
508.9319, 15250.45
509.4140, 15235.44
509.8961, 15274.45
510.3782, 15308.21
510.8603, 15317.10
511.3424, 15314.47
511.8246, 15314.98
512.3067, 15321.74
512.7888, 15329.68
513.2709, 15331.48
513.7531, 15328.39
514.2352, 15347.77
514.7173, 15402.72
515.1994, 15458.78
515.6815, 15530.16
516.1636, 15584.69
516.6458, 15576.50
517.1279, 15497.55
517.6100, 15423.32
518.0921, 15413.31
518.5742, 15444.52
519.0563, 15467.95
519.5385, 15479.37
520.0206, 15500.65
520.5027, 15551.71
520.9848, 15618.50
521.4669, 15652.44
521.9490, 15634.13
522.4312, 15622.11
522.9133, 15639.15
523.3954, 15655.40
523.8775, 15638.67
524.3596, 15593.64
524.8417, 15550.98
525.3239, 15531.31
525.8060, 15532.75
526.2881, 15552.11
526.7702, 15599.53
527.2523, 15637.50
527.7344, 15658.02
528.2166, 15665.54
528.6987, 15657.55
529.1808, 15636.47
529.6629, 15618.39
530.1450, 15610.44
530.6271, 15609.74
531.1093, 15613.56
531.5914, 15621.60
532.0735, 15632.75
532.5556, 15646.41
533.0377, 15663.55
533.5198, 15687.92
534.0020, 15729.51
534.4841, 15747.32
534.9662, 15728.32
535.4483, 15699.63
535.9304, 15658.73
536.4125, 15621.25
536.8947, 15618.23
537.3768, 15664.88
537.8589, 15727.56
538.3410, 15752.38
538.8231, 15737.09
539.3052, 15724.70
539.7874, 15718.44
540.2695, 15717.23
540.7516, 15724.60
541.2337, 15736.12
541.7158, 15740.73
542.1979, 15728.31
542.6801, 15720.92
543.1622, 15742.06
543.6443, 15774.06
544.1264, 15781.12
544.6085, 15757.32
545.0906, 15732.77
545.5728, 15737.67
546.0549, 15770.35
546.5370, 15788.03
547.0191, 15775.29
547.5012, 15767.05
547.9833, 15760.79
548.4655, 15765.99
548.9476, 15801.40
549.4297, 15863.93
549.9117, 15916.29
550.3939, 15921.94
550.8760, 15896.88
551.3581, 15885.87
551.8402, 15890.77
552.3223, 15882.21
552.8044, 15835.06
553.2866, 15779.72
553.7687, 15777.69
554.2508, 15838.25
554.7329, 15893.75
555.2150, 15939.95
555.6971, 15972.91
556.1793, 15984.95
556.6614, 15981.70
557.1435, 15975.55
557.6256, 15972.44
558.1077, 15970.67
558.5898, 15963.67
559.0720, 15946.35
559.5541, 15950.50
560.0362, 15989.79
560.5183, 16036.84
561.0004, 16082.48
561.4825, 16124.00
561.9647, 16157.46
562.4468, 16184.37
562.9289, 16197.38
563.4110, 16180.91
563.8931, 16148.93
564.3752, 16129.33
564.8574, 16127.10
565.3395, 16132.80
565.8216, 16139.10
566.3037, 16146.22
566.7858, 16155.99
567.2679, 16174.84
567.7501, 16187.72
568.2322, 16194.51
568.7143, 16194.04
569.1964, 16177.40
569.6785, 16150.03
570.1606, 16135.85
570.6428, 16159.31
571.1249, 16200.66
571.6070, 16214.09
572.0891, 16199.03
572.5712, 16198.02
573.0533, 16236.08
573.5355, 16274.60
574.0176, 16253.86
574.4997, 16168.14
574.9818, 16116.36
575.4639, 16117.03
575.9460, 16140.91
576.4282, 16198.71
576.9103, 16261.69
577.3924, 16276.83
577.8745, 16230.58
578.3566, 16174.32
578.8387, 16177.86
579.3209, 16241.09
579.8030, 16271.58
580.2851, 16254.67
580.7672, 16234.41
581.2493, 16221.49
581.7314, 16219.69
582.2136, 16240.67
582.6957, 16291.04
583.1778, 16327.03
583.6599, 16320.39
584.1420, 16295.34
584.6241, 16277.96
585.1063, 16268.28
585.5884, 16253.21
586.0705, 16224.53
586.5526, 16194.64
587.0347, 16193.08
587.5168, 16238.88
587.9990, 16264.86
588.4811, 16241.92
588.9632, 16228.24
589.4453, 16262.40
589.9274, 16318.27
590.4095, 16344.86
590.8917, 16318.65
591.3738, 16287.33
591.8559, 16299.17
592.3380, 16338.69
592.8201, 16369.97
593.3022, 16388.60
593.7844, 16383.63
594.2665, 16339.02
594.7486, 16269.20
595.2307, 16238.73
595.7128, 16284.03
596.1949, 16319.76
596.6771, 16342.41
597.1592, 16356.15
597.6413, 16370.13
598.1234, 16378.15
598.6055, 16355.00
599.0876, 16272.05
599.5698, 16188.32
600.0519, 16220.81
600.5340, 16358.13
601.0161, 16444.41
601.4982, 16438.44
601.9803, 16407.04
602.4625, 16405.27
602.9446, 16430.12
603.4267, 16445.89
603.9088, 16442.47
604.3909, 16443.07
604.8730, 16457.83
605.3552, 16476.77
605.8373, 16493.47
606.3194, 16504.73
606.8015, 16504.96
607.2836, 16487.36
607.7657, 16459.16
608.2479, 16440.57
608.7300, 16432.30
609.2121, 16429.26
609.6942, 16433.32
610.1763, 16438.32
610.6584, 16432.27
611.1406, 16418.96
611.6227, 16424.17
612.1048, 16475.41
612.5869, 16519.80
613.0690, 16522.49
613.5511, 16506.37
614.0333, 16505.60
614.5154, 16526.04
614.9975, 16549.42
615.4796, 16558.36
615.9617, 16555.86
616.4438, 16562.60
616.9260, 16587.65
617.4081, 16593.95
617.8902, 16546.73
618.3723, 16499.04
618.8544, 16505.42
619.3365, 16560.21
619.8187, 16605.61
620.3008, 16626.29
620.7829, 16630.53
621.2650, 16612.33
621.7471, 16584.50
622.2292, 16574.05
622.7114, 16587.04
623.1935, 16603.40
623.6756, 16599.43
624.1577, 16577.87
624.6398, 16583.64
625.1219, 16637.56
625.6041, 16676.92
626.0862, 16673.86
626.5683, 16657.75
627.0504, 16646.08
627.5325, 16641.03
628.0146, 16648.32
628.4968, 16686.25
628.9789, 16723.53
629.4610, 16737.41
629.9431, 16728.76
630.4252, 16687.46
630.9073, 16613.21
631.3895, 16554.22
631.8716, 16571.51
632.3537, 16662.78
632.8358, 16719.10
633.3179, 16728.18
633.8000, 16722.77
634.2822, 16697.06
634.7643, 16670.34
635.2464, 16656.81
635.7285, 16657.59
636.2106, 16669.48
636.6927, 16699.28
637.1749, 16732.69
637.6570, 16763.32
638.1391, 16786.10
638.6212, 16781.94
639.1033, 16745.90
639.5854, 16708.47
640.0676, 16705.60
640.5497, 16736.18
641.0318, 16748.87
641.5139, 16732.33
641.9960, 16716.61
642.4781, 16714.88
642.9603, 16711.45
643.4424, 16687.26
643.9245, 16645.46
644.4066, 16616.01
644.8887, 16612.57
645.3708, 16627.10
645.8530, 16664.96
646.3351, 16713.63
646.8172, 16738.45
647.2993, 16730.64
647.7814, 16717.39
648.2635, 16727.93
648.7457, 16759.63
649.2278, 16771.04
649.7099, 16740.59
650.1920, 16728.89
650.6741, 16776.15
651.1563, 16823.08
651.6384, 16819.47
652.1205, 16772.04
652.6026, 16732.46
653.0847, 16722.69
653.5668, 16726.44
654.0490, 16728.87
654.5311, 16735.10
655.0132, 16762.82
655.4953, 16813.36
655.9774, 16856.67
656.4595, 16864.44
656.9417, 16842.91
657.4238, 16831.35
657.9059, 16836.77
658.3880, 16836.23
658.8701, 16822.33
659.3522, 16804.38
659.8344, 16782.53
660.3165, 16760.91
660.7986, 16753.49
661.2807, 16774.73
661.7628, 16796.51
662.2449, 16792.29
662.7271, 16779.91
663.2092, 16790.19
663.6913, 16825.15
664.1734, 16865.09
664.6555, 16897.35
665.1376, 16918.89
665.6198, 16913.34
666.1019, 16865.97
666.5840, 16846.56
667.0661, 16883.60
667.5482, 16926.29
668.0303, 16941.27
668.5125, 16937.65
668.9946, 16937.04
669.4767, 16945.27
669.9588, 16952.11
670.4409, 16949.48
670.9230, 16945.35
671.4052, 16954.70
671.8873, 16972.28
672.3694, 16970.80
672.8515, 16932.54
673.3336, 16886.32
673.8157, 16893.52
674.2979, 16960.25
674.7800, 17007.51
675.2621, 17022.86
675.7442, 17034.50
676.2263, 17065.52
676.7084, 17100.55
677.1906, 17105.38
677.6727, 17066.85
678.1548, 17038.17
678.6369, 17036.29
679.1190, 17044.59
679.6011, 17048.58
680.0833, 17053.65
680.5654, 17078.31
681.0475, 17128.84
681.5296, 17177.26
682.0117, 17179.40
682.4938, 17145.25
682.9760, 17150.90
683.4581, 17205.98
683.9402, 17245.62
684.4223, 17238.77
684.9044, 17206.58
685.3865, 17178.44
685.8687, 17153.25
686.3508, 17139.47
686.8329, 17151.39
687.3150, 17158.39
687.7971, 17136.28
688.2792, 17109.33
688.7614, 17114.10
689.2435, 17152.52
689.7256, 17184.70
690.2077, 17170.58
690.6898, 17136.63
691.1719, 17133.96
691.6541, 17159.30
692.1362, 17191.07
692.6183, 17225.53
693.1004, 17250.28
693.5825, 17249.87
694.0646, 17225.96
694.5468, 17214.42
695.0289, 17232.94
695.5110, 17238.72
695.9931, 17218.52
696.4752, 17191.96
696.9573, 17163.59
697.4395, 17140.61
697.9216, 17142.23
698.4037, 17185.63
698.8858, 17237.84
699.3679, 17276.33
699.8500, 17301.65
700.3322, 17311.76
700.8143, 17308.01
701.2964, 17301.40
701.7785, 17299.70
702.2606, 17297.80
702.7427, 17277.47
703.2249, 17225.56
703.7070, 17206.99
704.1891, 17245.27
704.6712, 17288.91
705.1533, 17314.77
705.6354, 17327.96
706.1176, 17335.47
706.5997, 17337.28
707.0818, 17336.45
707.5639, 17341.57
708.0460, 17337.87
708.5281, 17296.78
709.0103, 17240.24
709.4924, 17216.31
709.9745, 17241.44
710.4566, 17292.46
710.9387, 17358.89
711.4208, 17430.45
711.9030, 17432.89
712.3851, 17354.78
712.8672, 17297.21
713.3493, 17300.14
713.8314, 17328.24
714.3135, 17339.07
714.7957, 17330.54
715.2778, 17335.18
715.7599, 17370.41
716.2420, 17395.96
716.7241, 17397.15
717.2062, 17387.89
717.6884, 17378.84
718.1705, 17371.96
718.6526, 17365.95
719.1347, 17357.56
719.6168, 17354.34
720.0989, 17368.41
720.5811, 17394.73
721.0632, 17424.43
721.5453, 17454.98
722.0274, 17464.94
722.5095, 17434.69
722.9916, 17384.17
723.4738, 17375.73
723.9559, 17432.72
724.4380, 17463.81
724.9201, 17443.87
725.4022, 17424.80
725.8843, 17431.62
726.3665, 17453.30
726.8486, 17472.51
727.3307, 17485.34
727.8128, 17505.62
728.2949, 17570.85
728.7770, 17616.75
729.2592, 17558.09
729.7413, 17447.81
730.2234, 17402.73
730.7055, 17455.10
731.1876, 17527.68
731.6697, 17538.36
732.1519, 17503.30
732.6340, 17490.97
733.1161, 17503.38
733.5982, 17505.46
734.0803, 17483.71
734.5624, 17457.35
735.0446, 17443.47
735.5267, 17442.11
736.0088, 17454.90
736.4909, 17500.47
736.9730, 17533.71
737.4551, 17539.18
737.9373, 17539.86
738.4194, 17554.17
738.9015, 17577.56
739.3836, 17593.38
739.8657, 17592.27
740.3478, 17592.32
740.8300, 17619.37
741.3121, 17652.32
741.7942, 17651.56
742.2763, 17619.65
742.7584, 17584.06
743.2405, 17557.30
743.7227, 17546.29
744.2048, 17572.18
744.6869, 17640.26
745.1690, 17648.28
745.6511, 17560.14
746.1332, 17506.00
746.6154, 17553.48
747.0975, 17640.51
747.5796, 17691.97
748.0617, 17708.22
748.5438, 17722.66
749.0259, 17745.52
749.5081, 17758.93
749.9902, 17757.75
750.4723, 17743.01
750.9544, 17706.05
751.4365, 17654.81
751.9186, 17618.29
752.4008, 17614.90
752.8829, 17628.75
753.3650, 17642.81
753.8471, 17657.21
754.3292, 17676.39
754.8113, 17700.01
755.2935, 17708.07
755.7756, 17685.32
756.2577, 17651.39
756.7398, 17653.49
757.2219, 17707.66
757.7040, 17730.30
758.1862, 17695.56
758.6683, 17669.48
759.1504, 17688.87
759.6325, 17724.59
760.1146, 17746.76
760.5967, 17753.70
761.0789, 17752.80
761.5610, 17735.01
762.0431, 17721.90
762.5252, 17732.83
763.0073, 17750.51
763.4894, 17749.87
763.9716, 17730.83
764.4537, 17712.80
764.9358, 17705.73
765.4179, 17712.79
765.9000, 17750.05
766.3821, 17807.66
766.8643, 17840.74
767.3464, 17842.72
767.8285, 17829.54
768.3106, 17807.39
768.7927, 17785.65
769.2748, 17789.46
769.7570, 17833.48
770.2391, 17851.04
770.7212, 17816.00
771.2033, 17791.65
771.6854, 17819.95
772.1675, 17860.41
772.6497, 17857.75
773.1318, 17807.77
773.6139, 17787.84
774.0960, 17857.23
774.5781, 17917.45
775.0602, 17901.14
775.5424, 17853.62
776.0245, 17828.41
776.5066, 17833.33
776.9887, 17856.63
777.4708, 17898.70
777.9529, 17934.72
778.4351, 17910.21
778.9172, 17847.25
779.3993, 17836.42
779.8814, 17887.91
780.3635, 17942.58
780.8456, 17967.79
781.3278, 17971.83
781.8099, 17967.89
782.2920, 17950.92
782.7741, 17955.37
783.2562, 18007.22
783.7383, 18035.41
784.2205, 17989.83
784.7026, 17926.38
785.1847, 17901.76
785.6668, 17915.97
786.1489, 17941.12
786.6310, 17994.94
787.1132, 18031.16
787.5953, 18017.35
788.0774, 17987.46
788.5595, 17971.96
789.0416, 17973.15
789.5237, 17981.74
790.0059, 17994.05
790.4880, 18008.11
790.9701, 18027.28
791.4522, 18044.95
791.9343, 18037.11
792.4164, 18008.00
792.8986, 18005.20
793.3807, 18052.01
793.8628, 18102.48
794.3449, 18081.55
794.8270, 17990.73
795.3091, 17965.20
795.7913, 18028.67
796.2734, 18082.32
796.7555, 18098.49
797.2376, 18096.88
797.7197, 18089.89
798.2018, 18079.46
798.6840, 18081.64
799.1661, 18104.98
799.6482, 18128.78
800.1303, 18172.46
800.6124, 18194.73
801.0945, 18140.76
801.5767, 18052.66
802.0588, 18020.32
802.5409, 18074.54
803.0230, 18128.08
803.5051, 18107.35
803.9872, 18067.36
804.4694, 18077.18
804.9515, 18120.67
805.4336, 18146.82
805.9157, 18144.33
806.3978, 18152.43
806.8799, 18217.54
807.3621, 18305.37
807.8442, 18300.58
808.3263, 18204.51
808.8084, 18156.32
809.2905, 18187.22
809.7726, 18224.59
810.2548, 18217.28
810.7369, 18185.89
811.2190, 18185.59
811.7011, 18233.53
812.1832, 18263.99
812.6653, 18257.63
813.1475, 18258.26
813.6296, 18294.89
814.1117, 18335.65
814.5938, 18341.49
815.0759, 18311.97
815.5580, 18287.58
816.0402, 18264.63
816.5223, 18266.40
817.0044, 18339.32
817.4865, 18417.37
817.9686, 18417.29
818.4507, 18355.18
818.9329, 18308.67
819.4150, 18315.78
819.8971, 18345.09
820.3792, 18376.71
820.8613, 18401.40
821.3434, 18392.41
821.8256, 18355.58
822.3077, 18323.28
822.7898, 18307.78
823.2719, 18318.82
823.7540, 18377.80
824.2361, 18471.15
824.7183, 18501.43
825.2004, 18456.72
825.6825, 18422.46
826.1646, 18415.39
826.6467, 18422.53
827.1288, 18439.24
827.6110, 18460.77
828.0931, 18470.38
828.5752, 18461.46
829.0573, 18453.68
829.5394, 18456.77
830.0215, 18449.79
830.5037, 18406.81
830.9858, 18359.55
831.4679, 18349.91
831.9500, 18381.11
832.4321, 18415.08
832.9142, 18438.69
833.3964, 18461.23
833.8785, 18484.39
834.3606, 18511.82
834.8427, 18555.74
835.3248, 18608.64
835.8069, 18646.31
836.2891, 18657.12
836.7712, 18644.90
837.2533, 18587.48
837.7354, 18519.71
838.2175, 18535.12
838.6996, 18620.06
839.1818, 18678.34
839.6639, 18675.61
840.1460, 18643.35
840.6281, 18612.24
841.1102, 18583.71
841.5923, 18564.01
842.0745, 18552.18
842.5566, 18558.32
843.0387, 18588.23
843.5208, 18625.86
844.0029, 18665.63
844.4850, 18701.19
844.9672, 18713.30
845.4493, 18688.81
845.9314, 18677.36
846.4135, 18686.31
846.8956, 18699.44
847.3777, 18716.13
847.8599, 18732.08
848.3420, 18741.92
848.8241, 18746.10
849.3062, 18751.22
849.7883, 18767.67
850.2704, 18773.79
850.7526, 18743.74
851.2347, 18714.65
851.7168, 18726.51
852.1989, 18765.63
852.6810, 18793.70
853.1631, 18796.66
853.6453, 18795.83
854.1274, 18812.48
854.6095, 18831.65
855.0916, 18834.96
855.5737, 18824.45
856.0558, 18799.11
856.5380, 18763.13
857.0201, 18744.55
857.5022, 18768.13
857.9843, 18814.00
858.4664, 18842.22
858.9485, 18854.26
859.4307, 18860.89
859.9128, 18862.91
860.3949, 18866.19
860.8770, 18873.84
861.3591, 18883.13
861.8412, 18890.08
862.3234, 18894.72
862.8055, 18893.95
863.2876, 18876.12
863.7697, 18889.29
864.2518, 18976.59
864.7339, 19049.50
865.2161, 19018.02
865.6982, 18915.67
866.1803, 18876.83
866.6624, 18941.80
867.1445, 18984.63
867.6266, 18984.26
868.1088, 18980.93
868.5909, 18992.50
869.0730, 19009.48
869.5551, 19019.22
870.0372, 19021.14
870.5193, 19024.81
871.0015, 19036.80
871.4836, 19047.17
871.9657, 19051.37
872.4478, 19051.40
872.9299, 19052.84
873.4120, 19051.40
873.8942, 19029.88
874.3763, 18980.85
874.8584, 18944.85
875.3405, 18970.27
875.8226, 19018.14
876.3047, 19029.18
876.7869, 19019.39
877.2690, 19038.95
877.7511, 19093.24
878.2332, 19136.37
878.7153, 19131.71
879.1974, 19106.56
879.6796, 19118.33
880.1617, 19157.05
880.6438, 19157.20
881.1259, 19114.84
881.6080, 19089.43
882.0901, 19107.13
882.5723, 19143.27
883.0544, 19170.01
883.5365, 19186.17
884.0186, 19173.66
884.5007, 19122.16
884.9828, 19088.46
885.4650, 19083.13
885.9471, 19095.91
886.4292, 19131.62
886.9113, 19171.84
887.3934, 19166.88
887.8755, 19090.90
888.3577, 19063.13
888.8398, 19132.53
889.3219, 19182.39
889.8040, 19153.83
890.2861, 19117.33
890.7682, 19147.24
891.2504, 19226.70
891.7325, 19265.81
892.2146, 19222.64
892.6967, 19193.67
893.1788, 19203.99
893.6609, 19229.17
894.1431, 19268.08
894.6252, 19305.91
895.1073, 19317.70
895.5894, 19301.71
896.0715, 19292.68
896.5536, 19331.16
897.0358, 19353.48
897.5179, 19283.57
898.0000, 19199.56
898.4821, 19201.80
898.9642, 19273.52
899.4464, 19341.93
899.9285, 19378.03
900.4106, 19388.88
900.8927, 19367.72
901.3748, 19334.04
901.8569, 19317.42
902.3391, 19311.52
902.8212, 19297.85
903.3033, 19273.71
903.7854, 19247.40
904.2675, 19222.05
904.7496, 19208.37
905.2318, 19233.71
905.7139, 19286.13
906.1960, 19313.13
906.6781, 19314.51
907.1602, 19323.21
907.6423, 19351.26
908.1245, 19378.15
908.6066, 19378.52
909.0887, 19365.24
909.5708, 19404.34
910.0529, 19503.04
910.5350, 19534.13
911.0172, 19468.54
911.4993, 19412.12
911.9814, 19424.60
912.4635, 19463.22
912.9456, 19455.42
913.4277, 19397.79
913.9099, 19391.78
914.3920, 19464.04
914.8741, 19519.21
915.3562, 19534.89
915.8383, 19536.66
916.3204, 19540.84
916.8026, 19544.46
917.2847, 19538.37
917.7668, 19516.03
918.2489, 19504.05
918.7310, 19516.05
919.2131, 19520.89
919.6953, 19498.09
920.1774, 19475.41
920.6595, 19477.70
921.1416, 19501.42
921.6237, 19528.65
922.1058, 19563.12
922.5880, 19588.93
923.0701, 19605.99
923.5522, 19610.42
924.0343, 19584.31
924.5164, 19553.67
924.9985, 19558.53
925.4807, 19597.50
925.9628, 19621.15
926.4449, 19601.69
926.9270, 19578.60
927.4091, 19561.20
927.8912, 19556.13
928.3734, 19572.42
928.8555, 19604.68
929.3376, 19650.87
929.8197, 19707.71
930.3018, 19739.93
930.7839, 19705.71
931.2661, 19658.75
931.7482, 19638.22
932.2303, 19637.06
932.7124, 19649.40
933.1945, 19671.36
933.6766, 19700.73
934.1588, 19736.71
934.6409, 19759.50
935.1230, 19734.90
935.6051, 19697.23
936.0872, 19703.89
936.5693, 19736.17
937.0515, 19748.43
937.5336, 19735.28
938.0157, 19715.91
938.4978, 19700.05
938.9799, 19696.12
939.4620, 19720.42
939.9442, 19764.12
940.4263, 19816.48
940.9084, 19868.48
941.3905, 19871.25
941.8726, 19816.23
942.3547, 19761.88
942.8369, 19752.87
943.3190, 19774.12
943.8011, 19799.78
944.2832, 19828.53
944.7653, 19852.20
945.2474, 19870.40
945.7296, 19886.72
946.2117, 19902.66
946.6938, 19911.03
947.1759, 19903.38
947.6580, 19884.39
948.1401, 19870.91
948.6223, 19863.18
949.1044, 19846.60
949.5865, 19816.25
950.0686, 19812.89
950.5507, 19861.07
951.0328, 19918.32
951.5150, 19931.37
951.9971, 19905.95
952.4792, 19884.74
952.9613, 19865.08
953.4434, 19866.96
953.9255, 19900.83
954.4077, 19928.67
954.8898, 19926.18
955.3719, 19915.42
955.8540, 19933.37
956.3361, 19980.63
956.8182, 20006.46
957.3004, 20007.23
957.7825, 19992.95
958.2646, 19949.26
958.7467, 19921.37
959.2288, 19943.53
959.7109, 19993.22
960.1931, 20028.46
960.6752, 20048.85
961.1573, 20056.27
961.6394, 20034.31
962.1215, 20030.18
962.6036, 20066.23
963.0858, 20105.94
963.5679, 20132.76
964.0500, 20142.50
964.5321, 20117.92
965.0142, 20036.98
965.4963, 20001.01
965.9785, 20050.48
966.4606, 20089.35
966.9427, 20087.12
967.4248, 20077.26
967.9069, 20085.26
968.3890, 20105.07
968.8712, 20119.36
969.3533, 20127.54
969.8354, 20130.14
970.3175, 20109.30
970.7996, 20105.95
971.2817, 20155.10
971.7639, 20208.07
972.2460, 20215.27
972.7281, 20189.94
973.2102, 20185.19
973.6923, 20219.44
974.1744, 20240.81
974.6566, 20225.54
975.1387, 20215.12
975.6208, 20240.35
976.1029, 20267.69
976.5850, 20257.33
977.0671, 20217.09
977.5493, 20187.28
978.0314, 20169.63
978.5135, 20176.15
978.9956, 20246.81
979.4777, 20299.16
979.9598, 20274.46
980.4420, 20222.79
980.9241, 20197.34
981.4062, 20199.92
981.8883, 20208.58
982.3704, 20214.02
982.8525, 20234.28
983.3347, 20297.98
983.8168, 20352.40
984.2989, 20346.91
984.7810, 20327.46
985.2631, 20369.49
985.7452, 20461.16
986.2274, 20496.84
986.7095, 20408.39
987.1916, 20339.50
987.6737, 20361.29
988.1558, 20399.15
988.6379, 20402.05
989.1201, 20392.81
989.6022, 20414.06
990.0843, 20461.45
990.5664, 20479.31
991.0485, 20426.30
991.5306, 20387.55
992.0128, 20415.63
992.4949, 20452.53
992.9770, 20455.64
993.4591, 20442.86
993.9412, 20437.78
994.4233, 20445.31
994.9055, 20468.17
995.3876, 20520.03
995.8697, 20561.92
996.3518, 20581.50
996.8339, 20579.06
997.3160, 20533.48
997.7982, 20477.63
998.2803, 20461.77
998.7624, 20486.58
999.2445, 20505.93
999.7266, 20487.86
1000.209, 20490.98
1000.691, 20588.36
1001.173, 20671.35
1001.655, 20623.60
1002.137, 20527.11
1002.619, 20513.72
1003.101, 20588.14
1003.584, 20646.22
1004.066, 20645.81
1004.548, 20627.67
1005.030, 20595.03
1005.512, 20567.79
1005.994, 20566.68
1006.476, 20577.44
1006.958, 20577.31
1007.440, 20565.94
1007.923, 20562.93
1008.405, 20580.13
1008.887, 20596.91
1009.369, 20602.68
1009.851, 20606.18
1010.333, 20611.95
1010.815, 20620.46
1011.297, 20631.10
1011.780, 20644.31
1012.262, 20663.47
1012.744, 20696.44
1013.226, 20719.95
1013.708, 20721.57
1014.190, 20713.46
1014.672, 20691.64
1015.154, 20672.64
1015.636, 20680.38
1016.119, 20711.97
1016.601, 20741.97
1017.083, 20767.30
1017.565, 20778.44
1018.047, 20766.21
1018.529, 20745.20
1019.011, 20702.33
1019.493, 20670.50
1019.976, 20700.31
1020.458, 20779.49
1020.940, 20839.99
1021.422, 20866.26
1021.904, 20869.43
1022.386, 20832.27
1022.868, 20797.26
1023.350, 20784.99
1023.832, 20787.05
1024.315, 20798.24
1024.797, 20814.90
1025.279, 20827.23
1025.761, 20830.59
1026.243, 20838.29
1026.725, 20872.12
1027.207, 20887.83
1027.689, 20843.39
1028.172, 20791.39
1028.654, 20783.50
1029.136, 20810.14
1029.618, 20833.78
1030.100, 20851.13
1030.582, 20858.98
1031.064, 20846.58
1031.546, 20838.10
1032.028, 20843.01
1032.511, 20853.47
1032.993, 20856.23
1033.475, 20860.72
1033.957, 20897.14
1034.439, 20982.17
1034.921, 21034.77
1035.403, 21032.92
1035.885, 21021.12
1036.368, 20999.86
1036.850, 20981.01
1037.332, 20974.55
1037.814, 20975.43
1038.296, 20972.63
1038.778, 20964.66
1039.260, 20962.17
1039.742, 20970.34
1040.224, 20975.31
1040.707, 20967.30
1041.189, 20966.16
1041.671, 20987.99
1042.153, 21020.03
1042.635, 21045.10
1043.117, 21063.76
1043.599, 21057.36
1044.081, 21003.21
1044.563, 20976.86
1045.046, 20996.03
1045.528, 21026.20
1046.010, 21057.49
1046.492, 21081.27
1046.974, 21082.28
1047.456, 21063.78
1047.938, 21069.92
1048.420, 21117.98
1048.902, 21118.91
1049.385, 21044.31
1049.867, 20996.43
1050.349, 21022.83
1050.831, 21076.93
1051.313, 21112.38
1051.795, 21130.53
1052.277, 21131.96
1052.759, 21112.11
1053.242, 21122.93
1053.724, 21172.48
1054.206, 21207.13
1054.688, 21208.16
1055.170, 21200.21
1055.652, 21204.51
1056.134, 21215.91
1056.616, 21223.21
1057.099, 21226.26
1057.581, 21217.12
1058.063, 21196.51
1058.545, 21199.10
1059.027, 21233.28
1059.509, 21260.24
1059.991, 21252.22
1060.473, 21231.29
1060.955, 21234.88
1061.438, 21256.79
1061.920, 21272.09
1062.402, 21282.65
1062.884, 21300.53
1063.366, 21326.13
1063.848, 21346.77
1064.330, 21355.96
1064.812, 21358.67
1065.294, 21364.98
1065.777, 21365.15
1066.259, 21322.31
1066.741, 21264.19
1067.223, 21264.07
1067.705, 21315.40
1068.187, 21364.14
1068.669, 21390.14
1069.151, 21399.89
1069.634, 21387.65
1070.116, 21379.49
1070.598, 21417.25
1071.080, 21468.87
1071.562, 21492.26
1072.044, 21490.37
1072.526, 21472.45
1073.008, 21445.07
1073.490, 21428.04
1073.973, 21437.28
1074.455, 21446.70
1074.937, 21430.31
1075.419, 21414.26
1075.901, 21430.63
1076.383, 21456.46
1076.865, 21447.52
1077.347, 21413.51
1077.829, 21416.34
1078.312, 21488.75
1078.794, 21545.95
1079.276, 21557.88
1079.758, 21544.29
1080.240, 21479.95
1080.722, 21424.70
1081.204, 21444.81
1081.686, 21515.44
1082.169, 21571.87
1082.651, 21608.09
1083.133, 21621.04
1083.615, 21584.38
1084.097, 21561.62
1084.579, 21578.47
1085.061, 21598.58
1085.543, 21601.44
1086.026, 21594.79
1086.508, 21588.65
1086.990, 21583.05
1087.472, 21579.95
1087.954, 21576.20
1088.436, 21583.83
1088.918, 21611.86
1089.400, 21631.71
1089.882, 21627.40
1090.365, 21620.21
1090.847, 21632.38
1091.329, 21659.10
1091.811, 21682.59
1092.293, 21702.42
1092.775, 21730.71
1093.257, 21773.17
1093.739, 21766.24
1094.221, 21688.02
1094.704, 21607.44
1095.186, 21570.06
1095.668, 21573.92
1096.150, 21631.60
1096.632, 21726.35
1097.114, 21770.72
1097.596, 21770.09
1098.078, 21753.92
1098.561, 21728.38
1099.043, 21694.20
1099.525, 21652.12
1100.007, 21626.07
1100.489, 21648.03
1100.971, 21689.78
1101.453, 21701.86
1101.935, 21701.62
1102.417, 21724.11
1102.900, 21764.39
1103.382, 21804.44
1103.864, 21837.75
1104.346, 21858.85
1104.828, 21864.68
1105.310, 21857.30
1105.792, 21812.10
1106.274, 21780.52
1106.756, 21831.23
1107.239, 21912.29
1107.721, 21957.37
1108.203, 21961.51
1108.685, 21938.10
1109.167, 21882.58
1109.649, 21850.27
1110.131, 21893.02
1110.613, 21919.26
1111.096, 21879.78
1111.578, 21823.14
1112.060, 21761.90
1112.542, 21720.20
1113.024, 21749.32
1113.506, 21855.81
1113.988, 21926.67
1114.470, 21950.75
1114.953, 21954.01
1115.435, 21920.21
1115.917, 21895.71
1116.399, 21898.06
1116.881, 21917.83
1117.363, 21950.35
1117.845, 21989.36
1118.327, 22010.08
1118.809, 22008.79
1119.292, 22019.37
1119.774, 22045.34
1120.256, 22048.67
1120.738, 22017.58
1121.220, 21995.85
1121.702, 22011.42
1122.184, 22045.75
1122.666, 22075.72
1123.148, 22099.64
1123.631, 22113.19
1124.113, 22115.89
1124.595, 22106.12
1125.077, 22083.66
1125.559, 22039.00
1126.041, 21973.38
1126.523, 21934.72
1127.005, 21967.94
1127.488, 22022.10
1127.970, 22034.19
1128.452, 22035.42
1128.934, 22080.24
1129.416, 22137.64
1129.898, 22134.50
1130.380, 22083.23
1130.862, 22077.14
1131.344, 22159.01
1131.827, 22217.43
1132.309, 22168.64
1132.791, 22122.02
1133.273, 22147.84
1133.755, 22183.65
1134.237, 22170.57
1134.719, 22133.93
1135.201, 22125.80
1135.683, 22150.15
1136.166, 22167.40
1136.648, 22156.49
1137.130, 22171.86
1137.612, 22247.86
1138.094, 22292.59
1138.576, 22260.22
1139.058, 22207.60
1139.540, 22177.55
1140.023, 22173.86
1140.505, 22216.13
1140.987, 22308.83
1141.469, 22343.94
1141.951, 22316.73
1142.433, 22309.57
1142.915, 22337.79
1143.397, 22342.91
1143.880, 22293.33
1144.362, 22255.82
1144.844, 22322.64
1145.326, 22426.84
1145.808, 22400.23
1146.290, 22303.27
1146.772, 22297.29
1147.254, 22362.14
1147.736, 22402.46
1148.219, 22397.87
1148.701, 22377.71
1149.183, 22353.22
1149.665, 22342.27
1150.147, 22371.03
1150.629, 22405.50
1151.111, 22419.56
1151.593, 22422.85
1152.075, 22421.04
1152.558, 22420.16
1153.040, 22430.09
1153.522, 22452.48
1154.004, 22479.65
1154.486, 22531.34
1154.968, 22554.40
1155.450, 22514.43
1155.932, 22477.32
1156.415, 22472.14
1156.897, 22476.90
1157.379, 22471.56
1157.861, 22460.21
1158.343, 22454.86
1158.825, 22455.56
1159.307, 22463.36
1159.789, 22479.89
1160.271, 22490.16
1160.754, 22490.30
1161.236, 22500.92
1161.718, 22533.06
1162.200, 22569.80
1162.682, 22593.17
1163.164, 22603.93
1163.646, 22602.08
1164.128, 22589.68
1164.610, 22566.85
1165.093, 22539.40
1165.575, 22517.83
1166.057, 22508.19
1166.539, 22528.70
1167.021, 22592.39
1167.503, 22650.39
1167.985, 22657.58
1168.467, 22656.11
1168.950, 22671.55
1169.432, 22698.79
1169.914, 22748.68
1170.396, 22798.14
1170.878, 22799.93
1171.360, 22752.99
1171.842, 22724.40
1172.324, 22745.47
1172.807, 22747.61
1173.289, 22697.15
1173.771, 22677.64
1174.253, 22733.78
1174.735, 22792.19
1175.217, 22798.74
1175.699, 22772.69
1176.181, 22746.19
1176.663, 22721.18
1177.146, 22729.98
1177.628, 22772.24
1178.110, 22798.77
1178.592, 22805.35
1179.074, 22821.38
1179.556, 22855.65
1180.038, 22870.63
1180.520, 22832.28
1181.002, 22782.69
1181.485, 22783.61
1181.967, 22806.52
1182.449, 22811.21
1182.931, 22804.94
1183.413, 22793.70
1183.895, 22787.02
1184.377, 22806.38
1184.859, 22856.74
1185.342, 22912.70
1185.824, 22995.86
1186.306, 23034.65
1186.788, 22958.64
1187.270, 22888.99
1187.752, 22907.05
1188.234, 22947.88
1188.716, 22938.71
1189.198, 22899.58
1189.681, 22887.50
1190.163, 22905.78
1190.645, 22922.23
1191.127, 22939.14
1191.609, 22937.44
1192.091, 22909.88
1192.573, 22902.40
1193.055, 22935.54
1193.537, 22983.84
1194.020, 23026.81
1194.502, 23057.29
1194.984, 23053.34
1195.466, 23030.04
1195.948, 23020.61
1196.430, 23023.27
1196.912, 23034.25
1197.394, 23049.24
1197.877, 23058.30
1198.359, 23058.12
1198.841, 23054.53
1199.323, 23040.37
1199.805, 23038.94
1200.287, 23082.11
1200.769, 23118.41
1201.251, 23099.23
1201.734, 23067.02
1202.216, 23074.89
1202.698, 23113.09
1203.180, 23139.67
1203.662, 23155.45
1204.144, 23152.62
1204.626, 23123.15
1205.108, 23101.29
1205.590, 23088.83
1206.073, 23099.99
1206.555, 23142.47
1207.037, 23200.95
1207.519, 23265.63
1208.001, 23321.14
1208.483, 23327.00
1208.965, 23304.02
1209.447, 23311.39
1209.929, 23335.24
1210.412, 23338.57
1210.894, 23319.27
1211.376, 23281.53
1211.858, 23230.73
1212.340, 23216.06
1212.822, 23296.35
1213.304, 23362.56
1213.786, 23345.13
1214.269, 23316.63
1214.751, 23316.47
1215.233, 23330.06
1215.715, 23347.70
1216.197, 23363.76
1216.679, 23364.27
1217.161, 23347.80
1217.643, 23345.29
1218.125, 23359.42
1218.608, 23376.79
1219.090, 23397.21
1219.572, 23410.45
1220.054, 23412.57
1220.536, 23418.23
1221.018, 23441.47
1221.500, 23456.36
1221.982, 23407.11
1222.464, 23332.95
1222.947, 23298.88
1223.429, 23303.19
1223.911, 23356.46
1224.393, 23439.54
1224.875, 23524.80
1225.357, 23596.87
1225.839, 23606.14
1226.321, 23500.55
1226.804, 23421.41
1227.286, 23418.15
1227.768, 23444.30
1228.250, 23518.78
1228.732, 23575.16
1229.214, 23562.56
1229.696, 23518.01
1230.178, 23491.51
1230.661, 23481.74
1231.143, 23478.51
1231.625, 23481.36
1232.107, 23517.98
1232.589, 23585.92
1233.071, 23615.11
1233.553, 23594.00
1234.035, 23572.61
1234.517, 23575.92
1235.000, 23572.60
1235.482, 23523.56
1235.964, 23468.69
1236.446, 23436.68
1236.928, 23434.35
1237.410, 23495.10
1237.892, 23572.88
1238.374, 23600.62
1238.856, 23585.05
1239.339, 23573.26
1239.821, 23572.65
1240.303, 23570.83
1240.785, 23553.42
1241.267, 23567.13
1241.749, 23636.74
1242.231, 23679.22
1242.713, 23658.32
1243.196, 23622.52
1243.678, 23609.96
1244.160, 23617.43
1244.642, 23639.69
1245.124, 23676.74
##END=



