##NAMES=Manitobaite
##RRUFFID=R130259
##IDEAL CHEMISTRY=Na_16_Mn^2+^_25_Al_8_(PO_4_)_30_
##LOCALITY=Gottcha Claim (Pegmatite No. 22), Cross Lake, Manitoba, Canada
##OWNER=RRUFF
##SOURCE=Rock Currier
##DESCRIPTION=Red-brown massive, associated with quartz
##STATUS=The identification of this mineral is confirmed by single-crystal X-ray diffraction and chemical analysis.
##URL=rruff.info/R130259
##MEASURED CHEMISTRY=(Na_11.09_Ca_1.07_ [box]_3.84_)(Mn^2+^_20.97_Mg_0.56_Fe^2+^_3.55_Zn^2+^_0.24_)_Î£=25.32_(Al_7.29_Fe^3+^_0.71_)P_30.36_Si_0.08_O_120_
92.40350, 1377.341
92.88562, 1371.872
93.36774, 1356.524
93.84985, 1323.617
94.33197, 1277.416
94.81409, 1238.701
95.29620, 1200.251
95.77832, 1163.267
96.26044, 1127.969
96.74255, 1095.642
97.22467, 1067.785
97.70679, 1044.639
98.18890, 1023.786
98.67102, 1004.589
99.15314, 986.5853
99.63525, 969.2336
100.1174, 952.1986
100.5995, 935.5865
101.0816, 919.8345
101.5637, 904.9318
102.0458, 890.6707
102.5280, 876.5283
103.0101, 862.7970
103.4922, 849.8479
103.9743, 837.9431
104.4564, 827.0262
104.9385, 818.0459
105.4207, 812.5110
105.9028, 806.9781
106.3849, 799.8140
106.8670, 790.9049
107.3491, 780.6539
107.8312, 768.6589
108.3134, 755.1110
108.7955, 743.6187
109.2776, 735.2505
109.7597, 728.9838
110.2418, 723.5956
110.7239, 719.2144
111.2061, 715.0180
111.6882, 710.0975
112.1703, 704.6057
112.6524, 699.4550
113.1345, 695.5722
113.6166, 692.8285
114.0988, 689.1858
114.5809, 683.7333
115.0630, 677.7702
115.5451, 671.6987
116.0272, 665.6412
116.5093, 660.0255
116.9915, 655.6107
117.4736, 653.2486
117.9557, 649.8184
118.4378, 644.0377
118.9199, 637.9724
119.4020, 632.9823
119.8842, 629.5322
120.3663, 627.2441
120.8484, 625.2469
121.3305, 623.5988
121.8126, 622.2333
122.2947, 622.3388
122.7769, 622.4509
123.2590, 620.3947
123.7411, 614.8175
124.2232, 606.7037
124.7053, 600.5298
125.1874, 596.3939
125.6696, 593.4933
126.1517, 592.3321
126.6338, 592.4703
127.1159, 592.0147
127.5980, 589.6255
128.0801, 585.7095
128.5623, 582.0765
129.0444, 578.8313
129.5265, 575.8600
130.0086, 573.2582
130.4907, 571.1992
130.9728, 568.6627
131.4550, 564.3979
131.9371, 559.3231
132.4192, 554.6864
132.9013, 551.0919
133.3834, 548.2695
133.8655, 545.4289
134.3477, 542.5103
134.8298, 539.6690
135.3119, 537.0143
135.7940, 534.4880
136.2761, 531.9756
136.7582, 529.3149
137.2404, 526.5052
137.7225, 524.1780
138.2046, 523.3447
138.6867, 522.1372
139.1688, 519.8887
139.6509, 516.6727
140.1331, 512.9473
140.6152, 509.0716
141.0973, 504.9123
141.5794, 501.2358
142.0615, 498.5717
142.5436, 495.8968
143.0258, 492.2949
143.5079, 487.7206
143.9900, 483.1046
144.4721, 479.7339
144.9542, 478.1655
145.4363, 476.5879
145.9185, 475.0041
146.4006, 473.3521
146.8827, 471.6469
147.3648, 469.9386
147.8469, 467.9551
148.3290, 464.9048
148.8112, 460.6296
149.2933, 456.8554
149.7754, 454.5136
150.2575, 453.2032
150.7396, 451.7149
151.2217, 449.6779
151.7039, 447.3359
152.1860, 445.0117
152.6681, 442.6814
153.1502, 440.4962
153.6323, 438.7001
154.1144, 437.3241
154.5966, 435.6747
155.0787, 433.4071
155.5608, 430.8709
156.0429, 428.2081
156.5250, 425.4259
157.0071, 422.7339
157.4893, 420.3593
157.9714, 418.2213
158.4535, 416.6805
158.9356, 416.4536
159.4177, 416.4060
159.8998, 415.6437
160.3820, 413.8338
160.8641, 411.3042
161.3462, 408.8073
161.8283, 406.1945
162.3104, 403.8570
162.7925, 401.8449
163.2747, 400.0988
163.7568, 398.5996
164.2389, 397.3555
164.7210, 396.2712
165.2031, 394.9511
165.6852, 393.2149
166.1674, 391.4490
166.6495, 389.6375
167.1316, 387.8407
167.6137, 386.1815
168.0958, 384.7321
168.5779, 383.4656
169.0601, 382.1781
169.5422, 380.8066
170.0243, 379.4839
170.5064, 378.3309
170.9885, 377.2946
171.4706, 376.1435
171.9528, 374.6796
172.4349, 372.9881
172.9170, 371.4815
173.3991, 370.2321
173.8812, 369.0983
174.3633, 367.9303
174.8455, 366.7215
175.3276, 365.6583
175.8097, 364.9397
176.2918, 364.4330
176.7739, 363.9174
177.2560, 363.4296
177.7382, 362.8596
178.2203, 362.0660
178.7024, 361.0504
179.1845, 359.8098
179.6666, 358.0497
180.1487, 356.1490
180.6309, 354.6551
181.1130, 353.9847
181.5951, 353.7555
182.0772, 352.8399
182.5593, 350.6912
183.0414, 348.7534
183.5236, 347.6270
184.0057, 346.9753
184.4878, 346.3106
184.9699, 345.3145
185.4520, 344.0741
185.9341, 343.1683
186.4163, 343.0786
186.8984, 342.7968
187.3805, 342.0717
187.8626, 340.9924
188.3447, 339.6827
188.8268, 338.1621
189.3090, 336.4579
189.7911, 335.3317
190.2732, 335.3740
190.7553, 335.3959
191.2374, 335.1268
191.7195, 334.5828
192.2017, 333.8526
192.6838, 332.9771
193.1659, 331.9334
193.6480, 331.1728
194.1301, 330.9182
194.6122, 330.6626
195.0944, 330.2627
195.5765, 329.6878
196.0586, 328.8716
196.5407, 327.6880
197.0228, 326.1240
197.5049, 325.0245
197.9871, 324.6119
198.4692, 324.4162
198.9513, 324.0806
199.4334, 323.6252
199.9155, 323.4199
200.3976, 323.8423
200.8798, 324.8697
201.3619, 325.7604
201.8440, 326.8766
202.3261, 327.6040
202.8082, 327.1706
203.2903, 325.5037
203.7725, 323.6475
204.2546, 322.3898
204.7367, 321.5933
205.2188, 320.8826
205.7009, 320.2011
206.1830, 319.5628
206.6652, 318.9418
207.1473, 318.2920
207.6294, 317.8495
208.1115, 317.9989
208.5936, 318.4394
209.0757, 318.7124
209.5579, 318.6371
210.0400, 318.2968
210.5221, 317.7815
211.0042, 316.9207
211.4863, 316.2841
211.9685, 316.4698
212.4506, 316.9810
212.9327, 317.0546
213.4148, 316.1655
213.8969, 314.6667
214.3790, 313.6661
214.8612, 313.3741
215.3433, 313.2727
215.8254, 313.3505
216.3075, 313.4331
216.7896, 313.2450
217.2717, 312.5688
217.7539, 311.5543
218.2360, 310.9098
218.7181, 311.0598
219.2002, 311.0309
219.6823, 310.5576
220.1644, 309.7816
220.6466, 308.8919
221.1287, 307.9927
221.6108, 307.0887
222.0929, 306.2111
222.5750, 305.1660
223.0571, 304.3863
223.5393, 304.0523
224.0214, 304.0108
224.5035, 304.0928
224.9856, 304.2175
225.4677, 304.3388
225.9498, 304.1531
226.4320, 303.5100
226.9141, 302.7079
227.3962, 301.6011
227.8783, 300.3935
228.3604, 299.3671
228.8425, 298.6851
229.3247, 298.3143
229.8068, 298.0696
230.2889, 298.2596
230.7710, 298.2182
231.2531, 297.6259
231.7352, 296.7235
232.2174, 295.9281
232.6995, 295.4643
233.1816, 295.2687
233.6637, 295.0766
234.1458, 294.8539
234.6279, 294.6688
235.1101, 294.6850
235.5922, 294.7457
236.0743, 294.4817
236.5564, 293.6523
237.0385, 292.4898
237.5206, 291.7763
238.0028, 291.5762
238.4849, 291.5851
238.9670, 291.9282
239.4491, 292.4143
239.9312, 292.5753
240.4133, 292.1465
240.8955, 291.3763
241.3776, 290.8592
241.8597, 290.7725
242.3418, 290.4797
242.8239, 289.4551
243.3060, 287.9915
243.7882, 286.9502
244.2703, 286.7873
244.7524, 286.9708
245.2345, 286.6473
245.7166, 285.7863
246.1987, 284.7214
246.6809, 283.5519
247.1630, 282.2985
247.6451, 280.9948
248.1272, 279.6031
248.6093, 278.2542
249.0914, 277.0809
249.5736, 276.0849
250.0557, 275.2096
250.5378, 274.4432
251.0199, 273.7811
251.5020, 273.2267
251.9841, 272.8788
252.4663, 272.4951
252.9484, 271.8073
253.4305, 270.8534
253.9126, 269.9363
254.3947, 269.2104
254.8768, 268.6625
255.3590, 268.2929
255.8411, 268.3097
256.3232, 268.2000
256.8053, 267.5805
257.2874, 266.5494
257.7695, 265.4544
258.2516, 264.3694
258.7338, 263.3481
259.2159, 262.7446
259.6980, 262.7502
260.1801, 262.9386
260.6622, 263.2812
261.1443, 263.6173
261.6265, 263.5794
262.1086, 262.8041
262.5907, 261.4619
263.0728, 260.3558
263.5549, 259.5963
264.0370, 258.9147
264.5192, 258.0812
265.0013, 257.2516
265.4834, 256.7175
265.9655, 256.7449
266.4476, 257.1100
266.9297, 257.0221
267.4119, 256.3906
267.8940, 255.3921
268.3761, 253.7505
268.8582, 251.9467
269.3403, 250.6169
269.8224, 250.1334
270.3046, 250.1629
270.7867, 249.7446
271.2688, 248.4612
271.7509, 247.4827
272.2330, 247.0916
272.7151, 247.0495
273.1973, 247.2531
273.6794, 247.6777
274.1615, 248.0123
274.6436, 247.4848
275.1257, 245.3458
275.6078, 243.8173
276.0900, 243.4377
276.5721, 243.5131
277.0542, 243.5738
277.5363, 243.4561
278.0184, 243.1565
278.5005, 242.6358
278.9827, 241.7397
279.4648, 240.9647
279.9469, 240.4712
280.4290, 239.9909
280.9111, 239.2655
281.3932, 238.2918
281.8754, 237.3511
282.3575, 236.8634
282.8396, 237.0837
283.3217, 237.0213
283.8038, 236.4672
284.2859, 235.8449
284.7681, 235.4173
285.2502, 235.1691
285.7323, 234.8916
286.2144, 234.3509
286.6965, 233.4820
287.1786, 232.7177
287.6608, 231.9801
288.1429, 231.4031
288.6250, 231.1154
289.1071, 231.0519
289.5892, 231.0373
290.0714, 230.9326
290.5535, 230.7376
291.0356, 230.5333
291.5177, 230.4613
291.9998, 230.2359
292.4819, 229.6582
292.9641, 228.8742
293.4462, 228.1398
293.9283, 227.6085
294.4104, 227.2729
294.8925, 227.0596
295.3746, 227.0613
295.8568, 227.0906
296.3389, 227.2398
296.8210, 227.3695
297.3031, 227.2867
297.7852, 226.8960
298.2673, 226.2714
298.7495, 225.6355
299.2316, 224.8214
299.7137, 224.2108
300.1958, 224.0505
300.6779, 223.9851
301.1600, 223.5704
301.6422, 222.6817
302.1243, 221.6634
302.6064, 221.1650
303.0885, 221.6445
303.5706, 221.8560
304.0527, 221.7472
304.5349, 221.4338
305.0170, 220.9477
305.4991, 220.3212
305.9812, 219.6346
306.4633, 218.9613
306.9454, 218.2284
307.4276, 217.8073
307.9097, 217.8758
308.3918, 218.0505
308.8739, 218.2176
309.3560, 218.3176
309.8381, 218.2461
310.3203, 217.8779
310.8024, 217.1832
311.2845, 216.7154
311.7666, 216.8831
312.2487, 216.8297
312.7308, 215.9858
313.2130, 214.6813
313.6951, 213.6901
314.1772, 213.5479
314.6593, 214.0860
315.1414, 214.1373
315.6235, 213.0337
316.1057, 212.2100
316.5878, 212.0926
317.0699, 212.3352
317.5520, 212.4767
318.0341, 212.3096
318.5162, 211.9195
318.9984, 211.5252
319.4805, 211.1079
319.9626, 210.7130
320.4447, 210.3436
320.9268, 209.9959
321.4089, 209.6759
321.8911, 209.3818
322.3732, 209.0890
322.8553, 208.7338
323.3374, 208.1646
323.8195, 207.9487
324.3016, 208.4263
324.7838, 208.9423
325.2659, 209.1251
325.7480, 208.9345
326.2301, 208.4930
326.7122, 207.8843
327.1943, 207.0700
327.6765, 206.4266
328.1586, 206.0287
328.6407, 205.7005
329.1228, 205.3420
329.6049, 204.9979
330.0870, 204.7959
330.5692, 204.8386
331.0513, 205.0815
331.5334, 205.1832
332.0155, 205.0754
332.4976, 204.8926
332.9797, 204.6333
333.4619, 204.3167
333.9440, 203.9189
334.4261, 203.4291
334.9082, 202.9566
335.3904, 202.7892
335.8725, 203.4187
336.3546, 203.5708
336.8367, 202.8436
337.3188, 201.8919
337.8009, 201.2012
338.2831, 200.8960
338.7652, 200.8501
339.2473, 200.9398
339.7294, 201.2795
340.2115, 201.3884
340.6936, 201.0385
341.1758, 200.6902
341.6579, 200.5631
342.1400, 200.6471
342.6221, 200.8438
343.1042, 201.1203
343.5863, 201.4751
344.0685, 201.4321
344.5506, 200.4007
345.0327, 199.5504
345.5148, 199.2237
345.9969, 199.2328
346.4790, 199.2626
346.9612, 199.1395
347.4433, 198.9283
347.9254, 198.8685
348.4075, 199.2781
348.8896, 199.2923
349.3717, 198.4710
349.8539, 197.4344
350.3360, 196.6899
350.8181, 196.4021
351.3002, 196.4328
351.7823, 196.6273
352.2644, 197.0629
352.7466, 197.4104
353.2287, 197.7830
353.7108, 197.9607
354.1929, 197.7660
354.6750, 197.2363
355.1571, 196.5657
355.6393, 195.8548
356.1214, 195.1033
356.6035, 194.6451
357.0856, 194.8312
357.5677, 194.9005
358.0498, 194.4436
358.5320, 193.7102
359.0141, 193.1451
359.4962, 193.0157
359.9783, 193.1675
360.4604, 193.1909
360.9425, 193.0252
361.4247, 192.8696
361.9068, 192.8095
362.3889, 192.7701
362.8710, 192.6722
363.3531, 192.4922
363.8352, 192.3036
364.3174, 192.2531
364.7995, 192.3745
365.2816, 192.2657
365.7637, 191.6120
366.2458, 190.9198
366.7279, 190.5159
367.2101, 190.3884
367.6922, 190.3452
368.1743, 190.3664
368.6564, 190.3891
369.1385, 190.0656
369.6206, 189.1637
370.1028, 188.3378
370.5849, 188.1015
371.0670, 188.1902
371.5491, 188.1504
372.0312, 187.8251
372.5133, 187.2902
372.9955, 186.5696
373.4776, 185.6330
373.9597, 184.8207
374.4418, 184.2767
374.9239, 183.9427
375.4060, 183.8071
375.8882, 183.9471
376.3703, 183.9537
376.8524, 183.3616
377.3345, 182.3507
377.8166, 181.7084
378.2987, 181.7464
378.7809, 181.9534
379.2630, 181.7420
379.7451, 181.1661
380.2272, 180.6015
380.7093, 180.2609
381.1914, 179.9595
381.6736, 179.3459
382.1557, 178.3794
382.6378, 177.5945
383.1199, 177.5115
383.6020, 177.9484
384.0841, 178.0176
384.5663, 177.4064
385.0484, 176.7192
385.5305, 176.3663
386.0126, 176.2333
386.4947, 175.9352
386.9768, 175.2832
387.4590, 174.4445
387.9411, 173.7479
388.4232, 173.1506
388.9053, 172.7629
389.3874, 172.6627
389.8695, 172.7570
390.3517, 173.0546
390.8338, 173.5355
391.3159, 173.8662
391.7980, 173.6477
392.2801, 172.7792
392.7622, 172.2601
393.2444, 172.4412
393.7265, 172.6068
394.2086, 172.2523
394.6907, 171.5706
395.1728, 171.0969
395.6549, 171.1486
396.1371, 171.6313
396.6192, 172.1692
397.1013, 173.0200
397.5834, 173.5996
398.0655, 173.8389
398.5476, 173.7986
399.0298, 173.4098
399.5119, 172.7054
399.9940, 171.9970
400.4761, 171.6900
400.9582, 171.8124
401.4403, 172.2702
401.9225, 173.4045
402.4046, 174.5056
402.8867, 175.2481
403.3688, 175.6794
403.8509, 176.0151
404.3330, 176.4130
404.8152, 176.8308
405.2973, 177.0175
405.7794, 176.7780
406.2615, 176.5909
406.7436, 176.4937
407.2257, 176.5111
407.7079, 176.7478
408.1900, 177.2236
408.6721, 177.6724
409.1542, 177.6739
409.6363, 177.1298
410.1184, 176.6936
410.6006, 176.5040
411.0827, 176.3743
411.5648, 176.2705
412.0469, 176.1570
412.5290, 175.9439
413.0111, 175.5279
413.4933, 174.9767
413.9754, 174.4908
414.4575, 174.0533
414.9396, 173.7313
415.4217, 173.6268
415.9038, 173.6314
416.3860, 173.6429
416.8681, 173.6528
417.3502, 173.6197
417.8323, 173.4932
418.3144, 173.2802
418.7965, 173.0275
419.2787, 172.6812
419.7608, 172.3943
420.2429, 172.3944
420.7250, 172.6524
421.2071, 172.8190
421.6892, 172.6242
422.1714, 172.3391
422.6535, 172.3819
423.1356, 172.7832
423.6177, 173.1765
424.0998, 173.3086
424.5819, 173.2333
425.0641, 173.2193
425.5462, 173.1985
426.0283, 173.3201
426.5104, 173.8035
426.9925, 174.4542
427.4746, 174.8416
427.9568, 174.8013
428.4389, 174.6449
428.9210, 174.8771
429.4031, 175.7670
429.8852, 176.2671
430.3673, 175.9576
430.8495, 175.5943
431.3316, 175.7187
431.8137, 176.2985
432.2958, 176.9662
432.7779, 177.4388
433.2600, 177.7795
433.7422, 178.4964
434.2243, 180.1852
434.7064, 181.5447
435.1885, 182.0664
435.6706, 182.3400
436.1527, 183.0678
436.6349, 184.4329
437.1170, 185.9880
437.5991, 187.0132
438.0812, 187.2093
438.5633, 187.9765
439.0454, 190.1543
439.5276, 192.1098
440.0097, 192.7879
440.4918, 192.7197
440.9739, 193.2509
441.4560, 195.3804
441.9381, 198.4451
442.4203, 200.4296
442.9024, 200.8202
443.3845, 201.4780
443.8666, 203.1918
444.3487, 205.2713
444.8308, 207.2064
445.3130, 208.9046
445.7951, 210.5672
446.2772, 212.3131
446.7593, 214.1541
447.2414, 216.1721
447.7235, 218.4539
448.2057, 220.7393
448.6878, 222.9453
449.1699, 225.0215
449.6520, 226.7411
450.1341, 227.8763
450.6162, 228.8008
451.0984, 229.7898
451.5805, 230.8495
452.0626, 232.0808
452.5447, 233.6516
453.0268, 235.2357
453.5089, 236.1461
453.9911, 236.3338
454.4732, 236.3679
454.9553, 236.2320
455.4374, 236.0842
455.9195, 236.1365
456.4016, 236.3880
456.8838, 236.6384
457.3659, 236.7609
457.8480, 236.7458
458.3301, 236.4070
458.8122, 235.2738
459.2943, 234.4246
459.7765, 234.3889
460.2586, 234.6893
460.7407, 234.7007
461.2228, 234.2145
461.7049, 233.4411
462.1870, 232.6721
462.6692, 231.9084
463.1513, 231.1565
463.6334, 230.4929
464.1155, 229.7742
464.5976, 228.7321
465.0797, 227.5943
465.5619, 226.8742
466.0440, 226.9545
466.5261, 227.5047
467.0082, 227.5661
467.4903, 226.9182
467.9724, 226.3823
468.4546, 226.3640
468.9367, 226.3948
469.4188, 226.1029
469.9009, 225.4606
470.3830, 224.7699
470.8651, 224.3317
471.3473, 224.0369
471.8294, 223.4649
472.3115, 222.5327
472.7936, 221.5040
473.2757, 220.5227
473.7578, 219.5720
474.2400, 218.6153
474.7221, 217.5744
475.2042, 216.6449
475.6863, 216.0989
476.1684, 215.7790
476.6505, 215.2618
477.1327, 214.4384
477.6148, 213.3159
478.0969, 211.7379
478.5790, 209.5843
479.0611, 208.0264
479.5432, 207.5943
480.0254, 207.3702
480.5075, 206.9050
480.9896, 206.1549
481.4717, 205.0481
481.9538, 203.4961
482.4359, 201.7706
482.9181, 200.6716
483.4002, 201.0449
483.8823, 200.8013
484.3644, 199.4599
484.8465, 197.8715
485.3286, 196.5715
485.8108, 195.6359
486.2929, 194.9363
486.7750, 194.4128
487.2571, 194.0300
487.7392, 193.4328
488.2213, 192.3864
488.7035, 191.5136
489.1856, 191.1926
489.6677, 190.9913
490.1498, 190.4200
490.6319, 189.3583
491.1140, 188.1938
491.5962, 187.3502
492.0783, 186.7760
492.5604, 186.0432
493.0425, 184.9947
493.5246, 184.0108
494.0067, 183.4939
494.4889, 183.2467
494.9710, 182.8216
495.4531, 182.0402
495.9352, 181.1431
496.4173, 180.3166
496.8994, 179.5346
497.3816, 178.6801
497.8637, 177.7041
498.3458, 176.6881
498.8279, 175.7323
499.3100, 174.8228
499.7921, 174.0591
500.2743, 173.7710
500.7564, 173.3557
501.2385, 172.1713
501.7206, 170.4857
502.2027, 169.1580
502.6848, 168.6883
503.1670, 168.8218
503.6491, 168.8497
504.1312, 169.0737
504.6133, 168.6494
505.0954, 166.9600
505.5775, 165.1510
506.0597, 164.0481
506.5418, 163.6090
507.0239, 163.2644
507.5060, 162.5686
507.9881, 161.6003
508.4702, 160.7055
508.9524, 159.8218
509.4345, 159.1599
509.9166, 158.9822
510.3987, 158.9470
510.8808, 158.7749
511.3629, 158.4219
511.8451, 157.9585
512.3271, 157.4378
512.8093, 156.8483
513.2914, 156.1061
513.7735, 155.1552
514.2556, 154.3183
514.7377, 153.8870
515.2198, 153.7489
515.7020, 153.4823
516.1841, 153.0474
516.6662, 152.5261
517.1483, 151.8145
517.6304, 151.0790
518.1125, 150.6741
518.5947, 150.6755
519.0768, 150.6980
519.5589, 150.3133
520.0410, 149.4724
520.5231, 148.6669
521.0052, 147.8371
521.4874, 147.1021
521.9695, 146.5233
522.4516, 146.0499
522.9337, 145.6355
523.4158, 145.2567
523.8979, 144.8816
524.3801, 144.4624
524.8622, 144.0005
525.3443, 143.4991
525.8264, 142.9453
526.3085, 142.3624
526.7906, 141.8179
527.2728, 141.2462
527.7549, 140.4776
528.2370, 139.3439
528.7191, 138.2069
529.2012, 137.6342
529.6833, 137.5782
530.1655, 137.3158
530.6476, 136.6046
531.1297, 135.7346
531.6118, 134.9253
532.0939, 134.1851
532.5760, 133.7324
533.0582, 133.8461
533.5403, 134.0615
534.0224, 134.1055
534.5045, 133.9606
534.9866, 133.5525
535.4688, 132.8209
535.9509, 131.9962
536.4330, 131.5223
536.9151, 131.6095
537.3972, 131.5638
537.8793, 131.2932
538.3615, 130.9877
538.8436, 130.7906
539.3257, 130.6429
539.8078, 130.3384
540.2899, 129.7312
540.7720, 129.0658
541.2542, 128.9476
541.7363, 129.5335
542.2184, 130.1396
542.7005, 130.7145
543.1826, 131.2357
543.6647, 131.7287
544.1469, 132.1638
544.6290, 132.4389
545.1111, 132.3129
545.5932, 132.1363
546.0753, 132.5303
546.5574, 133.4723
547.0396, 134.3173
547.5217, 134.7463
548.0038, 135.0644
548.4859, 135.8127
548.9680, 137.0184
549.4501, 138.1649
549.9323, 139.0510
550.4144, 139.9304
550.8965, 141.0662
551.3786, 142.3842
551.8607, 143.6468
552.3428, 144.7424
552.8250, 145.6181
553.3071, 146.1037
553.7892, 145.7637
554.2713, 145.8349
554.7534, 146.4694
555.2355, 147.3201
555.7177, 148.3138
556.1998, 149.3574
556.6819, 150.2834
557.1640, 150.9664
557.6461, 151.5186
558.1282, 152.1598
558.6104, 152.8936
559.0925, 153.7122
559.5746, 154.7124
560.0567, 155.6990
560.5388, 156.4587
561.0209, 157.0247
561.5031, 157.6668
561.9852, 158.5302
562.4673, 159.4759
562.9494, 160.3796
563.4315, 161.2409
563.9136, 162.1269
564.3958, 163.1227
564.8779, 163.9794
565.3600, 164.2322
565.8421, 163.5782
566.3242, 163.1567
566.8063, 163.2808
567.2885, 163.3343
567.7706, 162.8732
568.2527, 162.0817
568.7348, 161.3985
569.2169, 161.0381
569.6990, 160.8452
570.1812, 160.5661
570.6633, 160.2551
571.1454, 159.6332
571.6275, 158.4735
572.1096, 157.1922
572.5917, 155.8437
573.0739, 154.5488
573.5560, 153.5745
574.0381, 153.0951
574.5202, 152.8375
575.0023, 152.5634
575.4844, 152.2617
575.9666, 151.8061
576.4487, 151.0768
576.9308, 150.4834
577.4129, 150.6092
577.8950, 151.4673
578.3771, 151.7536
578.8593, 150.8592
579.3414, 150.0146
579.8235, 149.7649
580.3056, 149.9322
580.7877, 150.2468
581.2698, 150.6137
581.7520, 151.0176
582.2341, 151.4635
582.7162, 151.9789
583.1984, 152.2944
583.6805, 152.2069
584.1626, 152.1670
584.6447, 152.2016
585.1268, 152.3948
585.6089, 152.9357
586.0911, 153.8803
586.5732, 154.7855
587.0553, 155.1322
587.5374, 155.0898
588.0195, 155.2935
588.5016, 155.8113
588.9838, 156.5007
589.4659, 157.3150
589.9480, 158.2305
590.4301, 159.1792
590.9122, 160.2615
591.3943, 161.1807
591.8765, 161.7030
592.3586, 162.1081
592.8407, 162.6937
593.3228, 163.4848
593.8049, 164.3779
594.2870, 165.3305
594.7692, 166.2778
595.2513, 166.9172
595.7334, 167.0496
596.2155, 167.2154
596.6976, 167.4304
597.1797, 167.7246
597.6619, 168.2185
598.1440, 168.8354
598.6261, 169.2916
599.1082, 169.3668
599.5903, 169.2214
600.0724, 169.1684
600.5546, 169.2077
601.0367, 169.1043
601.5188, 168.7312
602.0009, 168.2617
602.4830, 167.8937
602.9651, 167.6202
603.4473, 167.4158
603.9294, 167.4038
604.4115, 167.3382
604.8936, 166.9673
605.3757, 166.4477
605.8578, 166.1439
606.3400, 166.1842
606.8221, 166.3026
607.3042, 166.1132
607.7863, 165.5690
608.2684, 165.0277
608.7505, 164.1586
609.2327, 163.7126
609.7148, 164.2206
610.1969, 165.1271
610.6790, 165.6788
611.1611, 165.6618
611.6432, 165.6655
612.1254, 166.4296
612.6075, 167.6309
613.0896, 168.1650
613.5717, 167.8790
614.0538, 167.4940
614.5359, 167.4139
615.0181, 167.5552
615.5002, 167.6664
615.9823, 167.6903
616.4644, 167.8095
616.9465, 168.1549
617.4286, 168.5385
617.9108, 168.8324
618.3929, 169.0149
618.8750, 169.0786
619.3571, 169.0126
619.8392, 168.8535
620.3214, 168.7187
620.8035, 168.6777
621.2856, 168.4457
621.7677, 167.7623
622.2498, 167.1021
622.7319, 166.8405
623.2141, 166.7981
623.6962, 166.4797
624.1783, 165.5728
624.6604, 164.5545
625.1425, 163.9488
625.6246, 163.6206
626.1068, 163.1228
626.5889, 162.3529
627.0710, 161.4366
627.5531, 160.4853
628.0352, 159.5015
628.5173, 158.4304
628.9995, 156.9725
629.4816, 155.8291
629.9637, 155.4064
630.4458, 155.1993
630.9279, 154.6796
631.4100, 153.8132
631.8922, 152.9664
632.3743, 152.5065
632.8564, 152.2488
633.3385, 151.4448
633.8206, 149.9482
634.3027, 148.4945
634.7849, 147.2613
635.2670, 146.1804
635.7491, 145.1610
636.2312, 144.2027
636.7133, 143.3690
637.1954, 142.7026
637.6776, 142.1415
638.1597, 141.8081
638.6418, 141.5298
639.1239, 140.7827
639.6060, 139.4004
640.0881, 137.9327
640.5703, 137.1190
641.0524, 137.0452
641.5345, 136.6384
642.0166, 135.4771
642.4987, 134.4803
642.9808, 133.9230
643.4630, 133.5653
643.9451, 133.2011
644.4272, 132.7773
644.9093, 132.2536
645.3914, 131.5041
645.8735, 130.6508
646.3557, 130.0315
646.8378, 129.6527
647.3199, 129.2602
647.8020, 128.7410
648.2841, 128.1603
648.7662, 127.5955
649.2484, 127.0217
649.7305, 126.5906
650.2126, 126.3728
650.6947, 126.2432
651.1768, 126.2871
651.6589, 126.3286
652.1411, 126.0006
652.6232, 125.1984
653.1053, 124.3213
653.5874, 123.9549
654.0695, 124.1079
654.5516, 123.9294
655.0338, 123.2731
655.5159, 122.5792
655.9980, 121.8808
656.4801, 121.3273
656.9622, 121.2104
657.4443, 121.6143
657.9265, 121.8124
658.4086, 121.3390
658.8907, 120.5958
659.3728, 119.8857
659.8549, 119.2872
660.3370, 119.0584
660.8192, 119.3454
661.3013, 119.7953
661.7834, 119.7788
662.2655, 119.1679
662.7476, 118.5697
663.2297, 117.8969
663.7119, 117.3320
664.1940, 116.9489
664.6761, 116.6994
665.1582, 116.5779
665.6403, 116.5827
666.1224, 116.4899
666.6046, 115.9823
667.0867, 115.2686
667.5688, 114.8811
668.0509, 114.8536
668.5330, 114.8294
669.0151, 114.6240
669.4973, 114.3318
669.9794, 114.1557
670.4615, 114.2055
670.9436, 114.0630
671.4257, 113.4972
671.9078, 112.9665
672.3900, 112.8203
672.8721, 112.8401
673.3542, 112.5845
673.8363, 111.9070
674.3184, 111.1778
674.8005, 110.8247
675.2827, 110.8234
675.7648, 111.0088
676.2469, 111.4901
676.7290, 111.7314
677.2111, 111.3003
677.6932, 110.5833
678.1754, 110.2993
678.6575, 110.5507
679.1396, 110.6625
679.6217, 110.3314
680.1038, 109.9352
680.5859, 109.8101
681.0681, 109.8451
681.5502, 109.7405
682.0323, 109.3811
682.5144, 108.9101
682.9965, 108.5108
683.4786, 108.1808
683.9608, 107.9816
684.4429, 107.9733
684.9250, 107.9886
685.4071, 108.0355
685.8892, 108.0296
686.3713, 107.8380
686.8535, 107.4384
687.3356, 107.0768
687.8177, 106.9077
688.2998, 106.7921
688.7819, 106.5206
689.2640, 106.1711
689.7462, 106.0615
690.2283, 106.3198
690.7104, 106.6639
691.1925, 106.6739
691.6746, 106.3010
692.1567, 106.0408
692.6389, 105.9809
693.1210, 105.9150
693.6031, 105.7214
694.0852, 105.5378
694.5673, 105.5716
695.0494, 105.8241
695.5316, 105.9560
696.0137, 105.5853
696.4958, 105.0986
696.9779, 105.0963
697.4600, 105.4688
697.9421, 105.6875
698.4243, 105.5676
698.9064, 105.2268
699.3885, 104.7738
699.8706, 104.1855
700.3527, 103.7861
700.8348, 103.6039
701.3170, 103.5858
701.7991, 103.8463
702.2812, 104.1865
702.7633, 104.4863
703.2454, 104.6990
703.7275, 104.7238
704.2097, 104.3763
704.6918, 103.9084
705.1739, 103.7659
705.6560, 103.8855
706.1381, 103.7950
706.6202, 103.3041
707.1024, 102.9238
707.5845, 103.2529
708.0666, 104.2748
708.5487, 104.8820
709.0308, 104.9066
709.5129, 104.7603
709.9951, 104.2647
710.4772, 103.7997
710.9593, 103.7109
711.4414, 103.9675
711.9235, 104.3211
712.4056, 104.6913
712.8878, 104.9649
713.3699, 104.9112
713.8520, 104.5744
714.3341, 104.2797
714.8162, 104.0993
715.2983, 103.8986
715.7805, 103.5222
716.2626, 103.0338
716.7447, 102.8007
717.2268, 102.9765
717.7089, 103.1696
718.1910, 103.3588
718.6732, 103.5488
719.1553, 103.8480
719.6374, 104.1430
720.1195, 104.1223
720.6016, 103.5953
721.0837, 102.9682
721.5659, 102.7669
722.0480, 102.9432
722.5301, 103.3093
723.0122, 103.9010
723.4943, 104.3297
723.9764, 104.3245
724.4586, 104.0328
724.9407, 103.8307
725.4228, 103.7872
725.9049, 103.6582
726.3870, 103.2062
726.8691, 102.8914
727.3513, 103.0767
727.8334, 103.5411
728.3155, 103.9172
728.7976, 104.0808
729.2797, 104.1219
729.7618, 104.1366
730.2440, 104.1059
730.7261, 103.8794
731.2082, 103.4263
731.6903, 103.2519
732.1724, 103.7125
732.6545, 104.2815
733.1367, 104.0743
733.6188, 102.8296
734.1009, 102.3452
734.5830, 103.4786
735.0651, 104.3375
735.5472, 103.9722
736.0294, 103.1598
736.5115, 102.8379
736.9936, 103.1123
737.4757, 103.4271
737.9578, 103.3766
738.4399, 103.0907
738.9221, 102.7393
739.4042, 102.3428
739.8863, 102.2485
740.3684, 102.6036
740.8505, 103.0401
741.3326, 103.2094
741.8148, 103.1389
742.2969, 103.1452
742.7790, 103.4072
743.2611, 103.4922
743.7432, 103.2197
744.2253, 102.8628
744.7075, 102.6037
745.1896, 102.4398
745.6717, 102.3075
746.1538, 102.1867
746.6359, 102.0429
747.1180, 101.7707
747.6002, 101.4370
748.0823, 101.2758
748.5644, 101.3142
749.0465, 101.5328
749.5286, 101.9826
750.0107, 102.5151
750.4929, 102.7801
750.9750, 102.7082
751.4571, 102.5289
751.9392, 102.0321
752.4213, 101.6707
752.9034, 101.7800
753.3856, 102.0612
753.8677, 102.0364
754.3498, 101.6165
754.8319, 101.2873
755.3140, 101.5993
755.7961, 102.1317
756.2783, 102.0328
756.7604, 101.4424
757.2425, 101.3005
757.7246, 101.9555
758.2067, 102.7863
758.6888, 103.0683
759.1710, 102.8053
759.6531, 102.5144
760.1352, 102.0588
760.6173, 101.7894
761.0994, 101.9219
761.5815, 102.1063
762.0637, 102.0513
762.5458, 101.8130
763.0279, 101.6661
763.5100, 101.7939
763.9921, 101.9036
764.4742, 101.6433
764.9564, 101.2364
765.4385, 101.1508
765.9206, 101.4015
766.4027, 101.6062
766.8848, 101.5123
767.3669, 101.2638
767.8491, 101.2263
768.3312, 101.5010
768.8133, 101.5980
769.2954, 101.3561
769.7775, 101.1505
770.2596, 101.2023
770.7418, 101.3570
771.2239, 101.4277
771.7060, 101.3949
772.1881, 101.2804
772.6702, 100.9272
773.1523, 100.6449
773.6345, 100.8212
774.1166, 101.2303
774.5987, 101.3673
775.0808, 101.1121
775.5629, 100.7927
776.0450, 100.7298
776.5272, 100.8823
777.0093, 101.0938
777.4914, 101.4050
777.9735, 101.5416
778.4556, 101.3571
778.9377, 101.1090
779.4199, 101.0002
779.9020, 101.0193
780.3841, 101.1030
780.8662, 101.2826
781.3483, 101.4758
781.8304, 101.7740
782.3126, 101.9869
782.7947, 101.8355
783.2768, 101.4734
783.7589, 101.3407
784.2410, 101.6445
784.7231, 102.0166
785.2053, 101.9541
785.6874, 101.5769
786.1695, 101.3621
786.6516, 101.3396
787.1337, 101.3785
787.6158, 101.4541
788.0980, 101.4791
788.5801, 101.2559
789.0622, 100.6730
789.5443, 100.5879
790.0264, 101.5806
790.5085, 102.3118
790.9907, 102.4025
791.4728, 102.1741
791.9549, 101.7854
792.4370, 101.3431
792.9191, 101.1248
793.4012, 101.4034
793.8834, 101.7500
794.3655, 101.6580
794.8476, 101.3424
795.3297, 101.3264
795.8118, 101.6451
796.2939, 101.8675
796.7761, 101.7054
797.2582, 101.3023
797.7403, 100.9657
798.2224, 100.6436
798.7045, 100.6377
799.1866, 101.2949
799.6688, 101.7358
800.1509, 101.2509
800.6330, 100.4873
801.1151, 100.2608
801.5972, 100.6587
802.0793, 101.0418
802.5615, 101.2652
803.0436, 101.3907
803.5257, 101.4061
804.0078, 101.3708
804.4899, 101.3843
804.9720, 101.4507
805.4542, 101.4642
805.9363, 101.3172
806.4184, 101.1076
806.9005, 101.0718
807.3826, 101.2012
807.8647, 101.3149
808.3469, 101.3923
808.8290, 101.3951
809.3111, 101.2437
809.7932, 101.0328
810.2753, 101.0712
810.7574, 101.6435
811.2396, 101.8789
811.7217, 101.4908
812.2038, 101.0962
812.6859, 100.9144
813.1680, 100.9054
813.6501, 101.0440
814.1323, 101.3113
814.6144, 101.5380
815.0965, 101.6655
815.5786, 101.6632
816.0607, 101.3602
816.5428, 100.9119
817.0250, 100.7626
817.5071, 100.9964
817.9892, 101.2930
818.4713, 101.3801
818.9534, 101.3264
819.4355, 101.4167
819.9177, 101.7295
820.3998, 101.7977
820.8819, 101.4115
821.3640, 101.0413
821.8461, 100.9794
822.3282, 101.1249
822.8104, 101.3153
823.2925, 101.6167
823.7746, 101.6959
824.2567, 101.1271
824.7388, 100.7030
825.2209, 101.0514
825.7031, 101.7546
826.1852, 102.2286
826.6673, 102.3411
827.1494, 102.2653
827.6315, 102.0868
828.1136, 101.8500
828.5958, 101.5851
829.0779, 101.3177
829.5600, 101.1780
830.0421, 101.1921
830.5242, 101.2806
831.0063, 101.3754
831.4885, 101.5174
831.9706, 101.8824
832.4527, 102.7439
832.9348, 103.0860
833.4169, 102.3667
833.8990, 101.8062
834.3812, 102.0901
834.8633, 102.6767
835.3454, 102.8707
835.8275, 102.5976
836.3096, 102.3444
836.7917, 102.2600
837.2739, 102.2542
837.7560, 102.3066
838.2381, 102.3842
838.7202, 102.4115
839.2023, 102.4057
839.6844, 102.5188
840.1666, 102.8893
840.6487, 103.3038
841.1308, 103.3433
841.6129, 103.0634
842.0950, 102.8327
842.5771, 102.6854
843.0593, 102.6503
843.5414, 102.7591
844.0235, 102.9620
844.5056, 103.1978
844.9877, 103.5273
845.4698, 103.5759
845.9520, 102.9831
846.4341, 102.5876
846.9162, 102.8095
847.3983, 103.1270
847.8804, 102.9979
848.3625, 102.5010
848.8447, 102.2205
849.3268, 102.4763
849.8089, 102.7756
850.2910, 102.8240
850.7731, 102.7796
851.2552, 102.8283
851.7374, 102.9610
852.2195, 103.0571
852.7016, 103.0607
853.1837, 103.0958
853.6658, 103.4088
854.1479, 103.9031
854.6301, 104.0660
855.1122, 103.8823
855.5943, 103.8099
856.0764, 104.0486
856.5585, 104.2737
857.0406, 104.1174
857.5228, 103.6172
858.0049, 103.1906
858.4870, 102.7424
858.9691, 102.5408
859.4512, 102.7384
859.9333, 103.0485
860.4155, 103.4474
860.8976, 103.8176
861.3797, 103.9239
861.8618, 103.6775
862.3439, 103.4594
862.8260, 103.4830
863.3082, 103.5441
863.7903, 103.3198
864.2724, 103.0784
864.7545, 103.4874
865.2366, 104.5443
865.7188, 105.2709
866.2009, 104.7762
866.6830, 103.7289
867.1651, 103.4471
867.6472, 103.8119
868.1293, 104.0898
868.6115, 104.1689
869.0936, 104.2708
869.5757, 104.5400
870.0578, 104.8834
870.5399, 105.1208
871.0220, 105.2561
871.5042, 105.2485
871.9863, 104.9545
872.4684, 104.7492
872.9505, 104.8351
873.4326, 104.9945
873.9147, 105.0011
874.3969, 104.8920
874.8790, 104.9331
875.3611, 105.3771
875.8432, 105.6933
876.3253, 105.5755
876.8074, 105.3564
877.2896, 105.3672
877.7717, 105.5150
878.2538, 105.4715
878.7359, 105.1205
879.2180, 104.8400
879.7001, 105.0905
880.1823, 105.5903
880.6644, 105.7730
881.1465, 105.7180
881.6286, 105.8339
882.1107, 106.2226
882.5928, 106.6400
883.0750, 106.8783
883.5571, 106.9622
884.0392, 106.9273
884.5213, 106.7138
885.0034, 106.7489
885.4855, 107.1683
885.9677, 107.6126
886.4498, 107.9255
886.9319, 108.1341
887.4140, 108.2474
887.8961, 108.2314
888.3782, 108.3526
888.8604, 108.7965
889.3425, 109.1488
889.8246, 109.2612
890.3067, 109.2665
890.7888, 109.1655
891.2709, 109.0654
891.7531, 109.2597
892.2352, 109.9259
892.7173, 110.6635
893.1994, 111.2906
893.6815, 111.7724
894.1636, 112.0008
894.6458, 112.0548
895.1279, 112.1275
895.6100, 112.2816
896.0921, 112.4435
896.5742, 112.5028
897.0563, 112.5582
897.5385, 112.9188
898.0206, 113.5603
898.5027, 114.2029
898.9848, 114.8160
899.4669, 115.1759
899.9490, 115.0382
900.4312, 114.7636
900.9133, 115.2730
901.3954, 116.8991
901.8775, 117.7331
902.3596, 117.2144
902.8417, 116.8599
903.3239, 117.1691
903.8060, 117.8195
904.2881, 118.6255
904.7702, 119.5363
905.2523, 120.2426
905.7344, 120.5707
906.2166, 120.8952
906.6987, 121.2030
907.1808, 121.6368
907.6629, 122.4818
908.1450, 123.4679
908.6271, 124.0722
909.1093, 124.1691
909.5914, 124.2090
910.0735, 124.4352
910.5556, 124.8119
911.0377, 125.3910
911.5198, 126.0625
912.0020, 126.5433
912.4841, 126.8341
912.9662, 127.2547
913.4483, 128.0263
913.9304, 128.9004
914.4125, 129.4400
914.8947, 129.6877
915.3768, 129.9903
915.8589, 130.3628
916.3410, 130.7210
916.8231, 130.9981
917.3052, 131.4155
917.7874, 132.2822
918.2695, 133.5229
918.7516, 134.3423
919.2337, 134.4926
919.7158, 134.8347
920.1979, 135.6659
920.6801, 136.4268
921.1622, 136.6966
921.6443, 136.7473
922.1264, 137.0061
922.6085, 137.5100
923.0906, 138.0367
923.5728, 138.5070
924.0549, 139.0547
924.5370, 139.8970
925.0191, 140.7036
925.5012, 141.0656
925.9833, 141.1031
926.4655, 141.2996
926.9476, 141.8701
927.4297, 142.4707
927.9118, 142.7953
928.3939, 143.0780
928.8760, 143.7037
929.3582, 144.4762
929.8403, 144.8220
930.3224, 144.6663
930.8045, 144.6298
931.2866, 145.2699
931.7687, 146.2081
932.2509, 146.7243
932.7330, 146.9048
933.2151, 147.0725
933.6972, 147.2764
934.1793, 147.7486
934.6614, 148.6422
935.1436, 149.5638
935.6257, 149.8437
936.1078, 149.5433
936.5899, 150.0166
937.0720, 151.5127
937.5541, 152.7437
938.0363, 153.3530
938.5184, 153.8290
939.0005, 154.5168
939.4826, 155.3344
939.9647, 156.0642
940.4468, 156.6916
940.9290, 157.2597
941.4111, 157.5972
941.8932, 158.0961
942.3753, 158.9413
942.8574, 159.9394
943.3395, 160.9377
943.8217, 161.9281
944.3038, 162.9082
944.7859, 163.8050
945.2680, 164.8355
945.7501, 166.1508
946.2322, 167.5590
946.7144, 169.0074
947.1965, 170.4057
947.6786, 171.5300
948.1607, 172.3968
948.6428, 173.5309
949.1249, 175.5119
949.6071, 177.5783
950.0892, 178.7644
950.5713, 179.5835
951.0534, 181.0247
951.5355, 182.9933
952.0176, 184.5675
952.4998, 185.3465
952.9819, 186.1203
953.4640, 188.0201
953.9461, 190.5843
954.4282, 192.3091
954.9103, 193.3186
955.3925, 194.5206
955.8746, 196.1131
956.3567, 198.0082
956.8388, 200.1966
957.3209, 202.4774
957.8030, 204.4074
958.2852, 205.9502
958.7673, 207.4991
959.2494, 208.9461
959.7315, 210.8784
960.2136, 213.7124
960.6957, 216.6160
961.1779, 218.7289
961.6600, 220.2290
962.1421, 222.0133
962.6242, 224.0325
963.1063, 226.4408
963.5884, 229.6518
964.0706, 232.7259
964.5527, 235.1827
965.0348, 237.4155
965.5169, 239.7770
965.9990, 242.2912
966.4811, 245.0897
966.9633, 248.3188
967.4454, 251.6254
967.9275, 254.9849
968.4096, 258.3590
968.8917, 261.8309
969.3738, 265.2721
969.8560, 268.4997
970.3381, 271.4841
970.8202, 274.3501
971.3023, 277.0207
971.7844, 279.7511
972.2665, 282.8890
972.7487, 286.0440
973.2308, 288.5257
973.7129, 290.5931
974.1950, 293.1739
974.6771, 296.6185
975.1592, 300.1428
975.6414, 303.0741
976.1235, 305.6264
976.6056, 308.0646
977.0877, 310.4013
977.5698, 312.6944
978.0519, 314.9229
978.5341, 316.9130
979.0162, 318.5452
979.4983, 320.0040
979.9804, 321.5654
980.4625, 323.1881
980.9446, 324.8269
981.4268, 326.4296
981.9089, 327.4488
982.3910, 327.7351
982.8731, 327.9420
983.3552, 328.6373
983.8373, 329.4747
984.3195, 329.5424
984.8016, 328.8098
985.2837, 327.9700
985.7658, 327.0138
986.2479, 326.1130
986.7300, 325.3067
987.2122, 324.6670
987.6943, 324.3967
988.1764, 324.2990
988.6585, 323.2344
989.1406, 320.7234
989.6227, 318.6474
990.1049, 317.3409
990.5870, 315.9862
991.0691, 314.2282
991.5512, 312.2840
992.0333, 310.3509
992.5154, 308.4393
992.9976, 306.6411
993.4797, 305.3663
993.9618, 303.5824
994.4439, 300.8371
994.9260, 298.0099
995.4081, 295.6533
995.8903, 293.3864
996.3724, 290.4939
996.8545, 286.9606
997.3366, 284.0704
997.8187, 282.8504
998.3008, 281.2191
998.7830, 278.1671
999.2651, 274.9005
999.7472, 272.4142
1000.229, 270.2928
1000.711, 267.6480
1001.194, 264.3296
1001.676, 261.0067
1002.158, 257.8339
1002.640, 254.8980
1003.122, 252.3916
1003.604, 250.0372
1004.086, 247.6370
1004.568, 245.1104
1005.050, 242.2123
1005.533, 238.8849
1006.015, 235.9105
1006.497, 234.2986
1006.979, 232.8365
1007.461, 230.1507
1007.943, 226.9263
1008.425, 224.2599
1008.907, 222.1321
1009.390, 220.0125
1009.872, 217.6606
1010.354, 215.2326
1010.836, 212.7701
1011.318, 210.3824
1011.800, 208.2695
1012.282, 206.3855
1012.764, 204.6085
1013.246, 202.9222
1013.729, 201.4334
1014.211, 200.2035
1014.693, 198.8235
1015.175, 196.4383
1015.657, 193.5632
1016.139, 191.8706
1016.621, 191.1279
1017.103, 190.1133
1017.586, 188.6091
1018.068, 187.1746
1018.550, 186.1735
1019.032, 185.3286
1019.514, 184.1533
1019.996, 182.7152
1020.478, 181.5583
1020.960, 180.6730
1021.442, 179.7339
1021.925, 178.6640
1022.407, 177.6772
1022.889, 176.9474
1023.371, 176.3142
1023.853, 175.4160
1024.335, 174.2497
1024.817, 173.2337
1025.299, 172.3503
1025.781, 171.8060
1026.264, 171.7369
1026.746, 171.6263
1027.228, 171.0536
1027.710, 170.2424
1028.192, 169.7378
1028.674, 169.5905
1029.156, 169.4325
1029.638, 169.4281
1030.120, 168.7453
1030.603, 166.7343
1031.085, 165.0076
1031.567, 165.0324
1032.049, 166.0803
1032.531, 166.1424
1033.013, 164.8391
1033.495, 164.3376
1033.977, 165.2757
1034.460, 165.6268
1034.942, 164.4882
1035.424, 163.1982
1035.906, 162.8661
1036.388, 163.1610
1036.870, 163.1290
1037.352, 162.6537
1037.834, 162.2599
1038.317, 161.9509
1038.799, 161.7219
1039.281, 161.6232
1039.763, 161.5518
1040.245, 161.4809
1040.727, 161.3698
1041.209, 161.0631
1041.691, 160.4133
1042.173, 160.0416
1042.656, 160.1137
1043.138, 160.2489
1043.620, 160.4826
1044.102, 160.6286
1044.584, 160.4857
1045.066, 160.1569
1045.548, 159.8758
1046.030, 159.6012
1046.512, 159.6025
1046.995, 160.2871
1047.477, 160.7493
1047.959, 160.6198
1048.441, 160.2620
1048.923, 159.7941
1049.405, 159.3633
1049.887, 159.3251
1050.369, 159.8232
1050.852, 160.1689
1051.334, 160.1147
1051.816, 160.0430
1052.298, 160.0571
1052.780, 160.1324
1053.262, 160.2694
1053.744, 160.4429
1054.226, 160.6156
1054.708, 160.7899
1055.191, 160.8963
1055.673, 160.8407
1056.155, 160.8112
1056.637, 160.8085
1057.119, 160.9266
1057.601, 161.3602
1058.083, 161.9362
1058.565, 162.2952
1059.047, 162.3598
1059.530, 162.3729
1060.012, 162.4251
1060.494, 162.4253
1060.976, 162.3287
1061.458, 162.1706
1061.940, 161.9049
1062.422, 161.6270
1062.904, 161.4281
1063.387, 161.3308
1063.869, 161.6578
1064.351, 163.0867
1064.833, 164.2404
1065.315, 164.2281
1065.797, 163.9473
1066.279, 164.2117
1066.761, 164.7376
1067.244, 164.7908
1067.726, 164.2957
1068.208, 164.2072
1068.690, 165.3610
1069.172, 166.3982
1069.654, 166.5544
1070.136, 166.4861
1070.618, 166.2665
1071.100, 166.4109
1071.583, 168.1546
1072.065, 171.3630
1072.547, 173.4550
1073.029, 172.8808
1073.511, 171.8831
1073.993, 171.1144
1074.475, 170.7330
1074.957, 170.9918
1075.439, 171.6457
1075.922, 172.4464
1076.404, 173.2952
1076.886, 174.0095
1077.368, 174.6059
1077.850, 174.8646
1078.332, 174.3706
1078.814, 173.8350
1079.297, 173.8341
1079.779, 174.0706
1080.261, 174.0405
1080.743, 173.8052
1081.225, 173.9033
1081.707, 174.5903
1082.189, 175.3648
1082.671, 176.0965
1083.153, 176.7296
1083.635, 177.3033
1084.118, 177.6998
1084.600, 177.7890
1085.082, 177.5797
1085.564, 177.0673
1086.046, 176.1476
1086.528, 175.5089
1087.010, 175.7171
1087.492, 175.9573
1087.975, 175.5731
1088.457, 175.1616
1088.939, 175.5306
1089.421, 176.3524
1089.903, 176.7185
1090.385, 176.4041
1090.867, 175.8683
1091.349, 175.0361
1091.832, 174.3424
1092.314, 174.0638
1092.796, 173.9402
1093.278, 173.8469
1093.760, 173.7035
1094.242, 173.3643
1094.724, 172.8108
1095.206, 172.3336
1095.688, 171.9460
1096.171, 171.7616
1096.653, 172.0757
1097.135, 172.3422
1097.617, 172.1062
1098.099, 171.6199
1098.581, 171.2639
1099.063, 171.0751
1099.545, 170.9122
1100.027, 170.7748
1100.510, 170.5996
1100.992, 170.3349
1101.474, 170.0677
1101.956, 169.8532
1102.438, 169.6562
1102.920, 169.4668
1103.402, 169.2608
1103.884, 168.9140
1104.367, 168.2296
1104.849, 167.8485
1105.331, 168.1727
1105.813, 168.4523
1106.295, 168.3565
1106.777, 168.1286
1107.259, 167.8997
1107.741, 167.7346
1108.224, 167.8833
1108.706, 168.6143
1109.188, 168.6439
1109.670, 167.0387
1110.152, 165.8642
1110.634, 165.8600
1111.116, 166.1610
1111.598, 166.3736
1112.080, 166.4259
1112.563, 166.1890
1113.045, 165.6475
1113.527, 164.9406
1114.009, 163.7019
1114.491, 162.8974
1114.973, 162.9135
1115.455, 162.9873
1115.937, 162.7303
1116.419, 162.3688
1116.902, 162.2476
1117.384, 162.3266
1117.866, 162.0744
1118.348, 161.1289
1118.830, 160.7236
1119.312, 161.1840
1119.794, 161.6268
1120.276, 161.7970
1120.759, 161.7342
1121.241, 161.4012
1121.723, 160.9019
1122.205, 160.6324
1122.687, 160.6970
1123.169, 160.4618
1123.651, 159.7870
1124.133, 159.2823
1124.615, 159.1394
1125.098, 159.0523
1125.580, 158.7715
1126.062, 158.5005
1126.544, 158.7246
1127.026, 159.4206
1127.508, 159.3774
1127.990, 158.4751
1128.472, 157.8808
1128.954, 157.7991
1129.437, 157.8112
1129.919, 157.7039
1130.401, 157.6590
1130.883, 157.9637
1131.365, 158.4462
1131.847, 158.2829
1132.329, 157.5283
1132.811, 157.3940
1133.294, 157.9450
1133.776, 158.1106
1134.258, 157.5327
1134.740, 156.8975
1135.222, 156.8063
1135.704, 156.9043
1136.186, 156.3916
1136.668, 155.4772
1137.151, 155.0079
1137.633, 154.9390
1138.115, 154.9714
1138.597, 155.0251
1139.079, 155.0583
1139.561, 155.0486
1140.043, 154.9823
1140.525, 154.7605
1141.007, 154.5294
1141.490, 154.6916
1141.972, 155.0178
1142.454, 154.9810
1142.936, 154.5900
1143.418, 154.0857
1143.900, 153.5701
1144.382, 153.1334
1144.864, 152.8878
1145.346, 152.6660
1145.829, 152.2682
1146.311, 151.8073
1146.793, 151.3921
1147.275, 151.0414
1147.757, 150.7758
1148.239, 150.5896
1148.721, 150.4337
1149.203, 150.2658
1149.686, 150.2271
1150.168, 150.7173
1150.650, 151.0265
1151.132, 150.3232
1151.614, 149.3916
1152.096, 149.2043
1152.578, 149.5509
1153.060, 149.7341
1153.542, 149.5991
1154.025, 149.2502
1154.507, 148.5366
1154.989, 147.8730
1155.471, 147.2651
1155.953, 146.8997
1156.435, 147.1426
1156.917, 147.5458
1157.399, 147.3942
1157.881, 146.7357
1158.364, 146.4128
1158.846, 146.7153
1159.328, 146.9565
1159.810, 147.1643
1160.292, 147.2120
1160.774, 147.0984
1161.256, 146.7694
1161.738, 146.0285
1162.221, 145.1159
1162.703, 144.6288
1163.185, 144.6267
1163.667, 144.5741
1164.149, 144.4870
1164.631, 144.2731
1165.113, 143.8159
1165.595, 143.5479
1166.078, 143.7417
1166.560, 144.0859
1167.042, 144.2002
1167.524, 144.1256
1168.006, 144.0855
1168.488, 144.0889
1168.970, 143.7592
1169.452, 143.0590
1169.934, 142.6763
1170.417, 142.8198
1170.899, 142.8697
1171.381, 142.3515
1171.863, 141.6269
1172.345, 141.3142
1172.827, 141.2996
1173.309, 141.1734
1173.791, 140.9844
1174.273, 140.9536
1174.756, 141.0729
1175.238, 141.2049
1175.720, 141.2729
1176.202, 141.0037
1176.684, 139.9940
1177.166, 138.8636
1177.648, 138.3766
1178.130, 138.2688
1178.613, 138.2243
1179.095, 138.2079
1179.577, 138.2719
1180.059, 138.3702
1180.541, 138.2856
1181.023, 137.8991
1181.505, 137.4848
1181.987, 137.3372
1182.469, 137.0632
1182.952, 136.2237
1183.434, 135.2862
1183.916, 134.7317
1184.398, 134.4311
1184.880, 134.0512
1185.362, 133.5472
1185.844, 133.1472
1186.326, 132.9893
1186.808, 132.8084
1187.291, 132.5233
1187.773, 132.2512
1188.255, 132.1150
1188.737, 131.9505
1189.219, 131.5097
1189.701, 130.9351
1190.183, 130.7138
1190.665, 130.9978
1191.148, 130.7833
1191.630, 129.7327
1192.112, 129.1970
1192.594, 129.6547
1193.076, 129.8701
1193.558, 129.1294
1194.040, 128.0376
1194.522, 127.3195
1195.005, 126.9576
1195.487, 127.0069
1195.969, 127.4383
1196.451, 127.3142
1196.933, 126.6289
1197.415, 126.4116
1197.897, 126.9019
1198.379, 127.3641
1198.861, 127.3370
1199.344, 126.9826
1199.826, 126.3559
1200.308, 125.6694
1200.790, 125.3587
1201.272, 125.3297
1201.754, 125.3945
1202.236, 125.5362
1202.718, 125.8644
1203.200, 126.3610
1203.683, 126.6691
1204.165, 126.5176
1204.647, 126.2792
1205.129, 126.3170
1205.611, 126.2992
1206.093, 125.6823
1206.575, 125.0380
1207.057, 125.2725
1207.540, 126.0670
1208.022, 126.3142
1208.504, 125.7315
1208.986, 125.4205
1209.468, 125.8404
1209.950, 126.2576
1210.432, 126.5765
1210.914, 126.7793
1211.396, 126.8439
1211.879, 126.7968
1212.361, 126.6089
1212.843, 126.3385
1213.325, 126.2323
1213.807, 126.3367
1214.289, 126.3815
1214.771, 126.3504
1215.253, 126.3126
1215.735, 126.2605
1216.218, 126.3162
1216.700, 126.5568
1217.182, 126.8949
1217.664, 127.2679
1218.146, 127.5859
1218.628, 127.4644
1219.110, 127.0265
1219.592, 126.9608
1220.075, 127.2180
1220.557, 127.3366
1221.039, 127.2169
1221.521, 126.9969
1222.003, 126.7467
1222.485, 126.5600
1222.967, 126.4995
1223.449, 126.5840
1223.932, 127.0322
1224.414, 127.4868
1224.896, 127.3109
1225.378, 126.8348
1225.860, 126.8339
1226.342, 127.3616
1226.824, 127.7876
1227.306, 127.8645
1227.788, 127.9142
1228.271, 128.0313
1228.753, 128.1626
1229.235, 128.3956
1229.717, 128.5248
1230.199, 128.3105
1230.681, 127.9151
1231.163, 127.5848
1231.645, 127.3247
1232.127, 127.3723
1232.610, 127.8929
1233.092, 128.2182
1233.574, 128.3070
1234.056, 128.1997
1234.538, 127.8460
1235.020, 127.6058
1235.502, 127.7729
1235.984, 128.0911
1236.467, 128.1113
1236.949, 127.9024
1237.431, 127.6705
1237.913, 127.4730
1238.395, 127.6632
1238.877, 128.1709
1239.359, 128.4877
1239.841, 128.4906
1240.323, 128.5585
1240.806, 128.9850
1241.288, 129.2834
1241.770, 128.7438
1242.252, 128.1053
1242.734, 128.1027
1243.216, 128.4272
1243.698, 128.8281
1244.180, 129.1580
1244.662, 129.1534
1245.145, 128.8059
1245.627, 128.6028
1246.109, 128.7524
1246.591, 128.9038
1247.073, 129.0872
1247.555, 129.1415
1248.037, 128.9015
1248.519, 128.6529
1249.002, 128.5981
1249.484, 128.6644
1249.966, 128.7324
1250.448, 128.7982
1250.930, 128.7585
1251.412, 128.5833
1251.894, 128.6816
1252.376, 129.0987
1252.859, 129.3347
1253.341, 129.2391
1253.823, 129.1564
1254.305, 129.3327
1254.787, 129.5279
1255.269, 129.2711
1255.751, 128.9120
1256.233, 129.2576
1256.715, 129.8961
1257.198, 129.9825
1257.680, 129.7005
1258.162, 129.6975
1258.644, 130.0750
1259.126, 130.5085
1259.608, 130.9238
1260.090, 131.1291
1260.572, 130.9172
1261.054, 130.6314
1261.537, 130.3831
1262.019, 130.1784
1262.501, 129.9836
1262.983, 129.8525
1263.465, 129.8528
1263.947, 129.9868
1264.429, 130.3126
1264.911, 130.9834
1265.394, 131.3024
1265.876, 131.2160
1266.358, 130.9402
1266.840, 130.4647
1267.322, 130.2610
1267.804, 130.6153
1268.286, 131.1183
1268.768, 131.2807
1269.250, 131.2257
1269.733, 130.8777
1270.215, 130.6864
1270.697, 132.1985
1271.179, 134.7424
1271.661, 136.5413
1272.143, 137.3383
1272.625, 137.5680
1273.107, 137.3964
1273.589, 137.2289
1274.072, 137.0161
1274.554, 137.2740
1275.036, 138.8484
1275.518, 140.3106
1276.000, 141.1523
1276.482, 141.0191
1276.964, 138.9546
1277.446, 135.7260
1277.929, 133.5959
1278.411, 132.5579
1278.893, 132.8763
1279.375, 135.1942
1279.857, 136.4771
1280.339, 136.3371
1280.821, 135.4968
1281.303, 134.1393
1281.786, 132.9066
1282.268, 132.2537
##END=



