##NAMES=Manitobaite
##RRUFFID=R130260
##IDEAL CHEMISTRY=Na_16_Mn^2+^_25_Al_8_(PO_4_)_30_
##LOCALITY=Gottcha Claim (Pegmatite No. 22), Cross Lake, Manitoba, Canada
##OWNER=RRUFF
##SOURCE=Rock Currier
##DESCRIPTION=Green or brown massive.
##STATUS=The identification of this mineral has been confirmed by single-crystal X-ray diffraction.
##URL=rruff.info/R130260
##MEASURED CHEMISTRY=(Na_14.11_Ca_1.02_ [box]_0.87_)(Mn^2+^_20.86_Fe^2+^_3.1_Mg_0.40_Zn^2+^_0.25_)_Î£=24.61_(Al_7.21_Fe^3+^_0.79_)P_30.07_Si_0.07_O_120_
91.92139, 1547.637
92.40350, 1545.433
92.88562, 1543.718
93.36774, 1534.882
93.84985, 1509.088
94.33197, 1464.589
94.81409, 1420.846
95.29620, 1375.774
95.77832, 1335.488
96.26044, 1300.794
96.74255, 1270.392
97.22467, 1242.625
97.70679, 1217.130
98.18890, 1193.991
98.67102, 1173.815
99.15314, 1154.690
99.63525, 1134.441
100.1174, 1111.912
100.5995, 1088.339
101.0816, 1068.271
101.5637, 1053.776
102.0458, 1040.531
102.5280, 1028.016
103.0101, 1016.121
103.4922, 1004.630
103.9743, 993.2943
104.4564, 982.0637
104.9385, 973.8721
105.4207, 971.3861
105.9028, 968.7412
106.3849, 963.0527
106.8670, 954.1637
107.3491, 943.1398
107.8312, 929.8519
108.3134, 914.5554
108.7955, 901.9750
109.2776, 894.1943
109.7597, 888.9966
110.2418, 883.1824
110.7239, 876.0612
111.2061, 868.8959
111.6882, 862.9838
112.1703, 858.0338
112.6524, 853.1437
113.1345, 847.6893
113.6166, 841.6963
114.0988, 835.8572
114.5809, 830.6180
115.0630, 825.2191
115.5451, 819.1457
116.0272, 812.4003
116.5093, 805.5757
116.9915, 799.5438
117.4736, 794.9567
117.9557, 789.4083
118.4378, 781.4824
118.9199, 773.4805
119.4020, 767.0783
119.8842, 762.8064
120.3663, 759.9385
120.8484, 756.8000
121.3305, 752.7629
121.8126, 749.1599
122.2947, 746.9025
122.7769, 744.9012
123.2590, 741.5760
123.7411, 735.9474
124.2232, 728.6970
124.7053, 722.8771
125.1874, 718.9772
125.6696, 715.5867
126.1517, 712.0527
126.6338, 708.5352
127.1159, 705.7167
127.5980, 704.5378
128.0801, 704.2870
128.5623, 702.5939
129.0444, 698.3604
129.5265, 693.3727
130.0086, 689.5666
130.4907, 687.2599
130.9728, 684.5841
131.4550, 679.7538
131.9371, 673.8745
132.4192, 668.4257
132.9013, 664.1155
133.3834, 660.6337
133.8655, 657.0048
134.3477, 652.8128
134.8298, 649.1437
135.3119, 646.7101
135.7940, 645.0648
136.2761, 643.3649
136.7582, 640.8291
137.2404, 637.4254
137.7225, 634.9867
138.2046, 635.1415
138.6867, 634.8831
139.1688, 633.1005
139.6509, 629.9435
140.1331, 626.2659
140.6152, 622.8898
141.0973, 619.9609
141.5794, 616.8981
142.0615, 613.2899
142.5436, 609.8652
143.0258, 607.0085
143.5079, 604.8087
143.9900, 603.1620
144.4721, 602.0219
144.9542, 601.7773
145.4363, 600.9895
145.9185, 599.4655
146.4006, 597.4205
146.8827, 595.0135
147.3648, 592.2448
147.8469, 589.3077
148.3290, 586.4229
148.8112, 583.5056
149.2933, 580.9467
149.7754, 579.1940
150.2575, 577.9579
150.7396, 576.2902
151.2217, 573.6453
151.7039, 570.7834
152.1860, 568.6815
152.6681, 567.3955
153.1502, 566.3635
153.6323, 565.4466
154.1144, 564.6824
154.5966, 563.0801
155.0787, 559.4792
155.5608, 555.4365
156.0429, 552.0674
156.5250, 549.5967
157.0071, 547.4280
157.4893, 544.5995
157.9714, 540.6447
158.4535, 537.3167
158.9356, 535.3977
159.4177, 533.8707
159.8998, 531.9571
160.3820, 529.3707
160.8641, 526.3843
161.3462, 523.6761
161.8283, 521.6595
162.3104, 519.3303
162.7925, 516.2556
163.2747, 512.9689
163.7568, 510.1136
164.2389, 508.0414
164.7210, 506.4709
165.2031, 504.2264
165.6852, 500.4177
166.1674, 496.9411
166.6495, 494.2683
167.1316, 492.1167
167.6137, 490.0651
168.0958, 487.9026
168.5779, 485.5916
169.0601, 482.8648
169.5422, 479.0690
170.0243, 475.6076
170.5064, 473.2152
170.9885, 471.6999
171.4706, 470.2804
171.9528, 468.5522
172.4349, 466.4891
172.9170, 464.2086
173.3991, 461.4079
173.8812, 458.6183
174.3633, 456.1621
174.8455, 454.0343
175.3276, 452.2863
175.8097, 451.3789
176.2918, 450.7843
176.7739, 449.5349
177.2560, 447.1580
177.7382, 444.2366
178.2203, 441.6318
178.7024, 439.4919
179.1845, 437.2031
179.6666, 434.1464
180.1487, 430.8371
180.6309, 427.9643
181.1130, 425.9013
181.5951, 424.4030
182.0772, 422.7577
182.5593, 420.7795
183.0414, 418.9842
183.5236, 417.6485
184.0057, 416.5562
184.4878, 415.4079
184.9699, 414.0269
185.4520, 412.4424
185.9341, 410.8503
186.4163, 409.3633
186.8984, 407.7270
187.3805, 405.7704
187.8626, 403.6243
188.3447, 401.4606
188.8268, 399.3344
189.3090, 397.2710
189.7911, 395.8966
190.2732, 396.1683
190.7553, 396.1615
191.2374, 395.0869
191.7195, 393.2881
192.2017, 391.6092
192.6838, 390.7189
193.1659, 390.6508
193.6480, 390.4151
194.1301, 390.0548
194.6122, 389.5365
195.0944, 388.7077
195.5765, 387.6661
196.0586, 386.7651
196.5407, 386.3942
197.0228, 386.5610
197.5049, 385.9107
197.9871, 383.3422
198.4692, 380.9297
198.9513, 380.1242
199.4334, 380.8866
199.9155, 382.0697
200.3976, 383.0033
200.8798, 383.5687
201.3619, 383.3129
201.8440, 381.4793
202.3261, 379.2794
202.8082, 377.8330
203.2903, 377.2286
203.7725, 376.7848
204.2546, 375.9090
204.7367, 374.7875
205.2188, 373.9643
205.7009, 373.9549
206.1830, 374.1217
206.6652, 373.4994
207.1473, 371.8864
207.6294, 370.2395
208.1115, 369.1799
208.5936, 368.5215
209.0757, 368.0401
209.5579, 367.7185
210.0400, 367.5027
210.5221, 367.3258
211.0042, 367.2815
211.4863, 367.0443
211.9685, 366.2984
212.4506, 365.3032
212.9327, 364.4309
213.4148, 363.8558
213.8969, 363.5208
214.3790, 363.2753
214.8612, 363.1961
215.3433, 363.0776
215.8254, 362.9590
216.3075, 362.7439
216.7896, 362.2582
217.2717, 361.3418
217.7539, 360.1308
218.2360, 359.2547
218.7181, 358.8963
219.2002, 358.6752
219.6823, 358.6715
220.1644, 358.7011
220.6466, 358.4722
221.1287, 357.7720
221.6108, 356.7310
222.0929, 356.1138
222.5750, 356.6096
223.0571, 356.7814
223.5393, 356.1402
224.0214, 355.0769
224.5035, 354.1544
224.9856, 353.7149
225.4677, 353.6890
225.9498, 353.6522
226.4320, 353.5823
226.9141, 353.5264
227.3962, 353.4574
227.8783, 353.4131
228.3604, 353.4723
228.8425, 353.6920
229.3247, 354.0245
229.8068, 354.1910
230.2889, 354.3296
230.7710, 354.1651
231.2531, 353.3945
231.7352, 352.2996
232.2174, 351.3304
232.6995, 350.7105
233.1816, 350.4257
233.6637, 350.4565
234.1458, 350.9721
234.6279, 351.5371
235.1101, 352.2862
235.5922, 353.0012
236.0743, 353.1643
236.5564, 352.4284
237.0385, 351.1393
237.5206, 350.4574
238.0028, 350.6352
238.4849, 350.8625
238.9670, 351.0435
239.4491, 351.0835
239.9312, 350.6955
240.4133, 349.6510
240.8955, 348.2740
241.3776, 347.2950
241.8597, 346.8278
242.3418, 346.3951
242.8239, 345.8877
243.3060, 345.2757
243.7882, 344.4470
244.2703, 343.3161
244.7524, 342.0135
245.2345, 340.7827
245.7166, 339.6601
246.1987, 338.4571
246.6809, 336.8596
247.1630, 335.0671
247.6451, 333.7990
248.1272, 333.4789
248.6093, 333.4670
249.0914, 333.0060
249.5736, 332.1026
250.0557, 331.0493
250.5378, 329.9606
251.0199, 328.8451
251.5020, 327.7038
251.9841, 326.4294
252.4663, 325.2907
252.9484, 324.4742
253.4305, 323.9671
253.9126, 323.6609
254.3947, 323.5848
254.8768, 323.6851
255.3590, 323.6875
255.8411, 323.4467
256.3232, 323.2748
256.8053, 323.4947
257.2874, 323.9877
257.7695, 324.3255
258.2516, 324.1432
258.7338, 323.5449
259.2159, 323.0890
259.6980, 322.7830
260.1801, 322.6501
260.6622, 322.7622
261.1443, 323.0302
261.6265, 323.2676
262.1086, 323.4443
262.5907, 323.5067
263.0728, 323.1737
263.5549, 322.2278
264.0370, 321.1896
264.5192, 320.2592
265.0013, 319.3974
265.4834, 318.5048
265.9655, 317.4430
266.4476, 316.3617
266.9297, 315.8760
267.4119, 316.6337
267.8940, 316.9186
268.3761, 316.0477
268.8582, 314.5429
269.3403, 312.9851
269.8224, 311.6235
270.3046, 310.4724
270.7867, 309.6307
271.2688, 309.4395
271.7509, 308.9413
272.2330, 307.8158
272.7151, 306.3965
273.1973, 304.9506
273.6794, 303.5767
274.1615, 302.3353
274.6436, 301.4065
275.1257, 301.1448
275.6078, 300.4750
276.0900, 299.0323
276.5721, 297.3404
277.0542, 295.8023
277.5363, 294.5397
278.0184, 293.4576
278.5005, 292.3866
278.9827, 291.2167
279.4648, 290.3260
279.9469, 290.1354
280.4290, 289.9008
280.9111, 289.0423
281.3932, 287.5035
281.8754, 285.7259
282.3575, 284.2621
282.8396, 283.1678
283.3217, 282.2585
283.8038, 281.8932
284.2859, 281.3987
284.7681, 280.2329
285.2502, 278.4950
285.7323, 276.7907
286.2144, 275.7733
286.6965, 275.5796
287.1786, 275.2893
287.6608, 274.8758
288.1429, 274.3996
288.6250, 273.8382
289.1071, 273.2272
289.5892, 272.6464
290.0714, 272.1633
290.5535, 271.7823
291.0356, 271.3642
291.5177, 271.3068
291.9998, 270.8040
292.4819, 269.1107
292.9641, 266.8340
293.4462, 265.1348
293.9283, 264.7994
294.4104, 265.5966
294.8925, 265.9192
295.3746, 265.1630
295.8568, 264.5800
296.3389, 264.5396
296.8210, 264.7204
297.3031, 264.6613
297.7852, 264.1367
298.2673, 263.2890
298.7495, 262.5430
299.2316, 261.6821
299.7137, 261.2281
300.1958, 261.5639
300.6779, 262.1348
301.1600, 262.3761
301.6422, 262.1060
302.1243, 261.5498
302.6064, 261.1210
303.0885, 260.9896
303.5706, 260.6782
304.0527, 260.0109
304.5349, 259.2982
305.0170, 258.7739
305.4991, 258.4777
305.9812, 258.3132
306.4633, 258.1973
306.9454, 258.2429
307.4276, 257.9050
307.9097, 256.6797
308.3918, 255.5716
308.8739, 255.2936
309.3560, 255.7237
309.8381, 256.1610
310.3203, 255.9610
310.8024, 255.0645
311.2845, 254.5016
311.7666, 254.6552
312.2487, 254.7013
312.7308, 254.2403
313.2130, 253.4434
313.6951, 252.7073
314.1772, 252.2854
314.6593, 252.1406
315.1414, 252.0355
315.6235, 251.8229
316.1057, 251.8184
316.5878, 252.5010
317.0699, 253.3020
317.5520, 253.3230
318.0341, 252.1523
318.5162, 250.3383
318.9984, 249.2955
319.4805, 249.5632
319.9626, 249.9887
320.4447, 250.8672
320.9268, 251.7247
321.4089, 252.0982
321.8911, 251.8777
322.3732, 251.3178
322.8553, 250.7496
323.3374, 250.0319
323.8195, 249.7085
324.3016, 249.8964
324.7838, 250.3280
325.2659, 250.9999
325.7480, 251.8110
326.2301, 252.4513
326.7122, 252.5704
327.1943, 252.0598
327.6765, 251.9304
328.1586, 252.4535
328.6407, 253.0274
329.1228, 253.7195
329.6049, 254.2877
330.0870, 254.1842
330.5692, 252.9468
331.0513, 250.8049
331.5334, 249.5542
332.0155, 250.2058
332.4976, 250.6484
332.9797, 250.4430
333.4619, 249.9063
333.9440, 249.4658
334.4261, 249.3133
334.9082, 249.3316
335.3904, 249.2384
335.8725, 248.9830
336.3546, 248.6894
336.8367, 248.2031
337.3188, 247.7835
337.8009, 247.7878
338.2831, 248.2222
338.7652, 248.6292
339.2473, 248.3390
339.7294, 247.0193
340.2115, 246.0329
340.6936, 245.6152
341.1758, 245.2704
341.6579, 244.7926
342.1400, 244.1654
342.6221, 243.4503
343.1042, 242.6814
343.5863, 241.8579
344.0685, 241.1196
344.5506, 240.2321
345.0327, 239.6989
345.5148, 240.1488
345.9969, 240.9384
346.4790, 240.9932
346.9612, 239.6719
347.4433, 237.4709
347.9254, 235.9468
348.4075, 235.4604
348.8896, 235.1399
349.3717, 234.9994
349.8539, 234.8690
350.3360, 234.5769
350.8181, 234.0793
351.3002, 233.4997
351.7823, 233.0122
352.2644, 232.6299
352.7466, 232.3027
353.2287, 232.2137
353.7108, 232.0249
354.1929, 231.4446
354.6750, 230.5474
355.1571, 229.7116
355.6393, 229.3481
356.1214, 229.4511
356.6035, 229.2308
357.0856, 228.3838
357.5677, 227.5648
358.0498, 226.9538
358.5320, 226.5380
359.0141, 226.2972
359.4962, 226.2558
359.9783, 226.3322
360.4604, 226.3156
360.9425, 226.1931
361.4247, 226.0007
361.9068, 225.6138
362.3889, 225.2368
362.8710, 225.1095
363.3531, 225.3045
363.8352, 225.5510
364.3174, 225.5021
364.7995, 225.1251
365.2816, 224.7740
365.7637, 224.5011
366.2458, 224.2813
366.7279, 224.2385
367.2101, 224.3020
367.6922, 224.0833
368.1743, 223.0359
368.6564, 221.4092
369.1385, 220.4076
369.6206, 220.3072
370.1028, 220.3774
370.5849, 220.2612
371.0670, 219.9930
371.5491, 219.6058
372.0312, 219.0265
372.5133, 218.4165
372.9955, 218.0514
373.4776, 217.9666
373.9597, 217.7916
374.4418, 217.3646
374.9239, 216.7549
375.4060, 216.0326
375.8882, 215.1733
376.3703, 214.3272
376.8524, 213.5977
377.3345, 212.9674
377.8166, 212.3779
378.2987, 211.8607
378.7809, 211.2979
379.2630, 210.4536
379.7451, 209.3709
380.2272, 208.5169
380.7093, 208.2182
381.1914, 208.1541
381.6736, 207.9597
382.1557, 207.6118
382.6378, 207.0507
383.1199, 206.1714
383.6020, 205.0248
384.0841, 203.9055
384.5663, 202.4950
385.0484, 201.4350
385.5305, 201.4769
386.0126, 202.2388
386.4947, 202.4436
386.9768, 201.4598
387.4590, 199.8543
387.9411, 198.7837
388.4232, 198.2273
388.9053, 198.0820
389.3874, 198.7859
389.8695, 199.6721
390.3517, 199.9634
390.8338, 199.5205
391.3159, 198.6962
391.7980, 197.7832
392.2801, 196.7530
392.7622, 195.9781
393.2444, 195.4459
393.7265, 195.1535
394.2086, 195.2163
394.6907, 195.5266
395.1728, 195.8252
395.6549, 195.9564
396.1371, 195.9727
396.6192, 196.0781
397.1013, 196.3956
397.5834, 196.6516
398.0655, 196.7039
398.5476, 196.7466
399.0298, 196.9525
399.5119, 197.3747
399.9940, 198.0018
400.4761, 198.8777
400.9582, 200.2063
401.4403, 201.0437
401.9225, 200.8138
402.4046, 200.6996
402.8867, 201.2377
403.3688, 202.3516
403.8509, 203.7496
404.3330, 205.2802
404.8152, 206.8930
405.2973, 208.3078
405.7794, 209.5485
406.2615, 210.5274
406.7436, 211.0805
407.2257, 211.4701
407.7079, 211.9635
408.1900, 212.6434
408.6721, 213.3699
409.1542, 213.9528
409.6363, 214.3791
410.1184, 214.7601
410.6006, 215.0513
411.0827, 215.3483
411.5648, 215.8669
412.0469, 216.4729
412.5290, 216.7180
413.0111, 216.1650
413.4933, 215.0582
413.9754, 214.1488
414.4575, 213.4272
414.9396, 212.9371
415.4217, 213.0309
415.9038, 213.2469
416.3860, 212.9815
416.8681, 211.9836
417.3502, 210.8646
417.8323, 210.2505
418.3144, 210.0789
418.7965, 209.8347
419.2787, 209.3500
419.7608, 208.8070
420.2429, 208.4455
420.7250, 208.2461
421.2071, 207.9436
421.6892, 207.1973
422.1714, 206.4101
422.6535, 206.2396
423.1356, 206.7344
423.6177, 207.2257
424.0998, 207.3053
424.5819, 207.0029
425.0641, 206.5686
425.5462, 205.8063
426.0283, 205.1606
426.5104, 204.8630
426.9925, 204.8113
427.4746, 204.7682
427.9568, 204.6396
428.4389, 204.6325
428.9210, 205.1080
429.4031, 206.3731
429.8852, 207.2519
430.3673, 207.5403
430.8495, 207.6110
431.3316, 207.6107
431.8137, 207.6128
432.2958, 207.7616
432.7779, 208.1792
433.2600, 208.8260
433.7422, 209.3723
434.2243, 209.7386
434.7064, 210.0930
435.1885, 210.3917
435.6706, 210.7153
436.1527, 211.1404
436.6349, 211.6911
437.1170, 212.3495
437.5991, 213.1097
438.0812, 214.0094
438.5633, 214.8665
439.0454, 215.5821
439.5276, 216.3412
440.0097, 217.1902
440.4918, 218.1394
440.9739, 219.2146
441.4560, 220.4417
441.9381, 221.7847
442.4203, 223.2235
442.9024, 224.9153
443.3845, 226.2638
443.8666, 226.6786
444.3487, 226.9233
444.8308, 227.6609
445.3130, 229.0028
445.7951, 230.4711
446.2772, 231.6993
446.7593, 232.7199
447.2414, 233.6719
447.7235, 234.5367
448.2057, 235.3979
448.6878, 236.3261
449.1699, 237.3035
449.6520, 238.2747
450.1341, 239.2105
450.6162, 240.1527
451.0984, 241.1028
451.5805, 242.0761
452.0626, 243.1950
452.5447, 244.5594
453.0268, 246.0248
453.5089, 247.2589
453.9911, 248.1772
454.4732, 249.2968
454.9553, 250.7143
455.4374, 252.4004
455.9195, 254.5614
456.4016, 257.1218
456.8838, 259.3231
457.3659, 260.4710
457.8480, 260.6466
458.3301, 261.4141
458.8122, 263.2583
459.2943, 265.0222
459.7765, 266.2813
460.2586, 267.3560
460.7407, 268.7686
461.2228, 270.6634
461.7049, 272.6407
462.1870, 274.1014
462.6692, 274.9054
463.1513, 275.6180
463.6334, 276.0391
464.1155, 276.5678
464.5976, 277.6079
465.0797, 278.8862
465.5619, 279.7628
466.0440, 279.7720
466.5261, 279.2952
467.0082, 279.4496
467.4903, 280.5311
467.9724, 281.4389
468.4546, 281.9630
468.9367, 282.1674
469.4188, 282.0324
469.9009, 281.5689
470.3830, 280.9125
470.8651, 280.1718
471.3473, 279.3203
471.8294, 278.2416
472.3115, 276.8869
472.7936, 275.4299
473.2757, 273.9639
473.7578, 272.4832
474.2400, 270.9897
474.7221, 269.5110
475.2042, 267.9742
475.6863, 266.3594
476.1684, 264.6459
476.6505, 262.7784
477.1327, 260.7218
477.6148, 258.5534
478.0969, 256.2968
478.5790, 253.9358
479.0611, 251.7358
479.5432, 249.7197
480.0254, 247.8750
480.5075, 246.2928
480.9896, 244.8784
481.4717, 243.3957
481.9538, 241.7145
482.4359, 239.8780
482.9181, 238.0015
483.4002, 235.8542
483.8823, 234.0101
484.3644, 232.6909
484.8465, 231.4983
485.3286, 230.1561
485.8108, 228.6447
486.2929, 227.0735
486.7750, 225.4802
487.2571, 223.9097
487.7392, 222.7283
488.2213, 222.0984
488.7035, 221.6109
489.1856, 221.3939
489.6677, 221.1155
490.1498, 220.3655
490.6319, 219.0433
491.1140, 217.5793
491.5962, 216.3846
492.0783, 215.4306
492.5604, 214.5001
493.0425, 213.5019
493.5246, 212.6666
494.0067, 212.3189
494.4889, 212.2553
494.9710, 212.0153
495.4531, 211.3873
495.9352, 210.6786
496.4173, 210.0839
496.8994, 209.6052
497.3816, 209.3035
497.8637, 209.2632
498.3458, 209.2037
498.8279, 208.6797
499.3100, 207.5765
499.7921, 206.5725
500.2743, 205.6660
500.7564, 204.9078
501.2385, 204.4125
501.7206, 204.1032
502.2027, 203.8084
502.6848, 203.4419
503.1670, 202.9691
503.6491, 202.2917
504.1312, 201.3481
504.6133, 200.2732
505.0954, 199.0574
505.5775, 197.7389
506.0597, 196.2339
506.5418, 194.6191
507.0239, 193.1899
507.5060, 192.2767
507.9881, 191.6982
508.4702, 190.5289
508.9524, 188.4919
509.4345, 186.4918
509.9166, 184.9266
510.3987, 183.4837
510.8808, 181.8453
511.3629, 179.9585
511.8451, 178.1763
512.3271, 177.0206
512.8093, 176.1732
513.2914, 174.5847
513.7735, 171.9995
514.2556, 169.5414
514.7377, 168.0583
515.2198, 167.3312
515.7020, 166.4899
516.1841, 165.5575
516.6662, 164.4471
517.1483, 163.0186
517.6304, 161.4148
518.1125, 159.7912
518.5947, 158.1924
519.0768, 156.8079
519.5589, 155.8840
520.0410, 155.4901
520.5231, 154.8521
521.0052, 153.6559
521.4874, 152.6072
521.9695, 152.0582
522.4516, 151.7456
522.9337, 151.3142
523.4158, 150.6273
523.8979, 149.7673
524.3801, 148.7995
524.8622, 147.6745
525.3443, 146.7270
525.8264, 146.0753
526.3085, 145.4922
526.7906, 144.8519
527.2728, 144.2116
527.7549, 143.6947
528.2370, 143.3827
528.7191, 143.1418
529.2012, 142.7568
529.6833, 142.2457
530.1655, 141.9001
530.6476, 141.8401
531.1297, 141.8877
531.6118, 141.9532
532.0939, 142.0156
532.5760, 141.7606
533.0582, 140.7887
533.5403, 139.7646
534.0224, 139.2305
534.5045, 139.0786
534.9866, 138.9079
535.4688, 138.5285
535.9509, 138.1525
536.4330, 138.2119
536.9151, 139.0630
537.3972, 139.4910
537.8793, 139.2386
538.3615, 138.8433
538.8436, 138.4529
539.3257, 138.1701
539.8078, 138.1857
540.2899, 138.6358
540.7720, 139.2816
541.2542, 139.5508
541.7363, 139.3269
542.2184, 139.1108
542.7005, 138.9583
543.1826, 138.8503
543.6647, 138.7064
544.1469, 138.5811
544.6290, 138.6740
545.1111, 139.1549
545.5932, 139.8592
546.0753, 140.6425
546.5574, 141.4914
547.0396, 142.0324
547.5217, 141.9365
548.0038, 141.7153
548.4859, 142.2890
548.9680, 143.7156
549.4501, 145.0051
549.9323, 145.9609
550.4144, 146.7304
550.8965, 147.3222
551.3786, 147.8155
551.8607, 148.4553
552.3428, 149.3911
552.8250, 150.4573
553.3071, 151.2280
553.7892, 151.4565
554.2713, 151.8405
554.7534, 152.4574
555.2355, 153.1411
555.7177, 153.7860
556.1998, 154.4163
556.6819, 155.1299
557.1640, 155.9978
557.6461, 156.9476
558.1282, 157.8206
558.6104, 158.6162
559.0925, 159.3388
559.5746, 159.8550
560.0567, 160.4401
560.5388, 161.3627
561.0209, 162.5803
561.5031, 163.8162
561.9852, 165.1170
562.4673, 166.2709
562.9494, 166.8768
563.4315, 167.0755
563.9136, 167.5738
564.3958, 168.7008
564.8779, 170.1557
565.3600, 171.4592
565.8421, 172.6173
566.3242, 173.5361
566.8063, 174.2616
567.2885, 174.7143
567.7706, 174.8010
568.2527, 174.5845
568.7348, 174.1481
569.2169, 173.5251
569.6990, 172.8327
570.1812, 172.3202
570.6633, 172.0561
571.1454, 171.6980
571.6275, 171.0896
572.1096, 170.5162
572.5917, 170.2422
573.0739, 170.1066
573.5560, 169.6888
574.0381, 168.6363
574.5202, 167.5820
575.0023, 167.3709
575.4844, 167.8487
575.9666, 168.1357
576.4487, 167.9808
576.9308, 167.6951
577.4129, 167.5121
577.8950, 167.4478
578.3771, 167.7969
578.8593, 168.9681
579.3414, 170.1196
579.8235, 170.8295
580.3056, 171.2836
580.7877, 171.7717
581.2698, 172.3907
581.7520, 173.0854
582.2341, 173.7886
582.7162, 174.5050
583.1984, 175.2274
583.6805, 175.7789
584.1626, 176.5696
584.6447, 177.8026
585.1268, 179.2885
585.6089, 180.8247
586.0911, 182.3590
586.5732, 183.8592
587.0553, 185.3296
587.5374, 186.7513
588.0195, 187.9441
588.5016, 188.8273
588.9838, 189.8416
589.4659, 191.3035
589.9480, 193.1002
590.4301, 194.8705
590.9122, 196.6842
591.3943, 198.3394
591.8765, 199.5639
592.3586, 200.7332
592.8407, 202.4688
593.3228, 204.6772
593.8049, 206.5073
594.2870, 207.2884
594.7692, 207.2600
595.2513, 207.5426
595.7334, 208.1794
596.2155, 209.0718
596.6976, 210.6527
597.1797, 212.0909
597.6619, 212.6621
598.1440, 212.5151
598.6261, 212.4496
599.1082, 212.9587
599.5903, 213.8330
600.0724, 214.8222
600.5546, 215.9274
601.0367, 216.6619
601.5188, 216.7607
602.0009, 216.5925
602.4830, 216.6787
602.9651, 217.0150
603.4473, 217.0341
603.9294, 216.2977
604.4115, 215.5679
604.8936, 215.4712
605.3757, 215.7071
605.8578, 215.6542
606.3400, 215.0845
606.8221, 214.1986
607.3042, 213.2680
607.7863, 212.3030
608.2684, 211.2471
608.7505, 210.0411
609.2327, 208.8188
609.7148, 207.6384
610.1969, 206.4614
610.6790, 205.1905
611.1611, 203.7962
611.6432, 202.4857
612.1254, 201.4865
612.6075, 200.7088
613.0896, 199.9405
613.5717, 199.1869
614.0538, 198.1886
614.5359, 196.6616
615.0181, 194.8388
615.5002, 193.4294
615.9823, 192.5447
616.4644, 191.7444
616.9465, 191.1749
617.4286, 190.4822
617.9108, 189.1727
618.3929, 187.4189
618.8750, 185.8969
619.3571, 185.0479
619.8392, 184.6353
620.3214, 184.0716
620.8035, 183.3865
621.2856, 182.4590
621.7677, 181.1139
622.2498, 179.6703
622.7319, 178.2052
623.2141, 176.7768
623.6962, 175.5301
624.1783, 174.6239
624.6604, 173.7315
625.1425, 172.4230
625.6246, 170.8462
626.1068, 169.5254
626.5889, 168.5840
627.0710, 167.8067
627.5531, 167.0613
628.0352, 166.3382
628.5173, 165.2907
628.9995, 163.3463
629.4816, 161.8627
629.9637, 161.3695
630.4458, 161.3067
630.9279, 161.2654
631.4100, 161.1011
631.8922, 160.6776
632.3743, 159.8299
632.8564, 158.6739
633.3385, 157.6665
633.8206, 156.8744
634.3027, 155.9315
634.7849, 154.4672
635.2670, 153.0676
635.7491, 152.4465
636.2312, 152.5034
636.7133, 152.2297
637.1954, 151.0392
637.6776, 149.6456
638.1597, 148.6376
638.6418, 147.8804
639.1239, 146.9950
639.6060, 145.8617
640.0881, 144.6745
640.5703, 143.6692
641.0524, 142.8498
641.5345, 142.1909
642.0166, 142.0885
642.4987, 141.6736
642.9808, 140.5075
643.4630, 139.1035
643.9451, 137.9414
644.4272, 137.1272
644.9093, 136.5237
645.3914, 136.1313
645.8735, 135.8474
646.3557, 135.4335
646.8378, 134.8822
647.3199, 134.1951
647.8020, 133.2430
648.2841, 132.3331
648.7662, 132.0523
649.2484, 132.5571
649.7305, 132.7735
650.2126, 132.4294
650.6947, 131.9655
651.1768, 131.6363
651.6589, 131.3546
652.1411, 130.9438
652.6232, 130.3433
653.1053, 129.6370
653.5874, 128.8831
654.0695, 128.0802
654.5516, 127.4804
655.0338, 127.1069
655.5159, 126.8998
655.9980, 127.0742
656.4801, 127.2820
656.9622, 127.0374
657.4443, 126.2364
657.9265, 125.6439
658.4086, 125.8581
658.8907, 126.2766
659.3728, 126.1583
659.8549, 125.6057
660.3370, 125.2350
660.8192, 125.3433
661.3013, 125.6287
661.7834, 125.5183
662.2655, 124.7838
662.7476, 124.5108
663.2297, 125.4101
663.7119, 125.9882
664.1940, 125.4792
664.6761, 124.5139
665.1582, 123.9754
665.6403, 124.0971
666.1224, 124.3233
666.6046, 124.2093
667.0867, 123.8553
667.5688, 123.4496
668.0509, 123.0050
668.5330, 122.6312
669.0151, 122.3521
669.4973, 122.2274
669.9794, 122.4419
670.4615, 123.3133
670.9436, 123.6264
671.4257, 122.8114
671.9078, 121.9937
672.3900, 121.8178
672.8721, 122.0233
673.3542, 122.1423
673.8363, 122.0017
674.3184, 121.6770
674.8005, 121.1374
675.2827, 120.4313
675.7648, 120.1022
676.2469, 120.2621
676.7290, 120.4536
677.2111, 120.5264
677.6932, 120.4552
678.1754, 120.1426
678.6575, 119.4978
679.1396, 119.1090
679.6217, 119.3354
680.1038, 119.6674
680.5859, 119.7457
681.0681, 119.6161
681.5502, 119.4261
682.0323, 119.2383
682.5144, 119.0567
682.9965, 118.9000
683.4786, 118.7739
683.9608, 118.5818
684.4429, 118.2822
684.9250, 117.9923
685.4071, 117.7504
685.8892, 117.5476
686.3713, 117.3604
686.8535, 117.1831
687.3356, 117.1001
687.8177, 117.2318
688.2998, 117.4123
688.7819, 117.4488
689.2640, 117.3823
689.7462, 117.3927
690.2283, 117.5527
690.7104, 117.7193
691.1925, 117.6687
691.6746, 117.3620
692.1567, 117.1978
692.6389, 117.4006
693.1210, 117.4347
693.6031, 117.0365
694.0852, 116.4926
694.5673, 116.0342
695.0494, 115.7067
695.5316, 115.5831
696.0137, 115.8556
696.4958, 116.2618
696.9779, 116.4660
697.4600, 116.4898
697.9421, 116.4777
698.4243, 116.4871
698.9064, 116.4009
699.3885, 116.0227
699.8706, 115.3032
700.3527, 114.9384
700.8348, 115.4075
701.3170, 115.6448
701.7991, 115.2827
702.2812, 114.7291
702.7633, 114.3079
703.2454, 114.0774
703.7275, 114.0090
704.2097, 114.1897
704.6918, 114.4307
705.1739, 114.4239
705.6560, 114.2008
706.1381, 113.9247
706.6202, 113.6111
707.1024, 113.4216
707.5845, 113.5529
708.0666, 113.9987
708.5487, 114.3452
709.0308, 114.6398
709.5129, 114.7765
709.9951, 114.5717
710.4772, 114.3292
710.9593, 114.2718
711.4414, 114.4197
711.9235, 114.7308
712.4056, 115.2594
712.8878, 115.7896
713.3699, 115.9691
713.8520, 115.8335
714.3341, 115.6064
714.8162, 115.3122
715.2983, 115.0153
715.7805, 114.7259
716.2626, 114.4795
716.7447, 114.4816
717.2268, 114.9162
717.7089, 115.3184
718.1910, 115.8488
718.6732, 116.1671
719.1553, 115.8542
719.6374, 115.1380
720.1195, 114.6101
720.6016, 114.5708
721.0837, 114.7103
721.5659, 114.6238
722.0480, 114.3507
722.5301, 114.0086
723.0122, 113.5321
723.4943, 113.5532
723.9764, 114.7509
724.4586, 116.4676
724.9407, 116.9543
725.4228, 115.5487
725.9049, 114.5761
726.3870, 114.3658
726.8691, 114.4078
727.3513, 114.5732
727.8334, 114.7513
728.3155, 114.7567
728.7976, 114.5397
729.2797, 114.3596
729.7618, 114.6508
730.2440, 115.2054
730.7261, 115.1304
731.2082, 114.3489
731.6903, 113.8159
732.1724, 113.9914
732.6545, 114.4822
733.1367, 114.7452
733.6188, 114.7461
734.1009, 114.6684
734.5830, 114.4522
735.0651, 114.2296
735.5472, 113.8884
736.0294, 113.6541
736.5115, 113.9210
736.9936, 114.6437
737.4757, 115.2311
737.9578, 115.1673
738.4399, 114.7537
738.9221, 114.5898
739.4042, 114.6621
739.8863, 114.7779
740.3684, 114.9129
740.8505, 114.9861
741.3326, 114.8910
741.8148, 114.6506
742.2969, 114.5307
742.7790, 114.5191
743.2611, 114.6349
743.7432, 115.0788
744.2253, 115.4857
744.7075, 115.6055
745.1896, 115.4513
745.6717, 115.1008
746.1538, 114.5462
746.6359, 114.0036
747.1180, 113.7236
747.6002, 113.6710
748.0823, 113.7528
748.5644, 113.9655
749.0465, 114.1497
749.5286, 114.1914
750.0107, 114.1769
750.4929, 114.3225
750.9750, 114.7544
751.4571, 115.0345
751.9392, 115.1159
752.4213, 115.1107
752.9034, 114.9816
753.3856, 114.8298
753.8677, 114.8170
754.3498, 114.9708
754.8319, 115.0913
755.3140, 115.0059
755.7961, 114.8054
756.2783, 114.6481
756.7604, 114.5200
757.2425, 114.2963
757.7246, 113.9253
758.2067, 113.5587
758.6888, 113.3772
759.1710, 113.3788
759.6531, 113.4179
760.1352, 113.4151
760.6173, 113.5761
761.0994, 114.1740
761.5815, 114.7310
762.0637, 114.9569
762.5458, 114.8342
763.0279, 114.3611
763.5100, 113.2630
763.9921, 112.3259
764.4742, 112.3214
764.9564, 112.8848
765.4385, 113.4278
765.9206, 113.8501
766.4027, 114.1259
766.8848, 114.2246
767.3669, 114.2267
767.8491, 114.3686
768.3312, 114.7907
768.8133, 114.7978
769.2954, 113.9917
769.7775, 113.3146
770.2596, 113.4344
770.7418, 113.7947
771.2239, 113.5154
771.7060, 112.4026
772.1881, 111.7799
772.6702, 112.6201
773.1523, 113.7165
773.6345, 114.1846
774.1166, 114.1309
774.5987, 113.7627
775.0808, 113.1867
775.5629, 112.6556
776.0450, 112.4228
776.5272, 112.4468
777.0093, 112.5714
777.4914, 112.8402
777.9735, 112.9592
778.4556, 112.7702
778.9377, 112.5541
779.4199, 112.5805
779.9020, 112.7992
780.3841, 112.9616
780.8662, 113.1355
781.3483, 113.1362
781.8304, 112.7306
782.3126, 112.2898
782.7947, 112.1282
783.2768, 112.1959
783.7589, 112.3009
784.2410, 112.3582
784.7231, 112.4013
785.2053, 112.4431
785.6874, 112.5030
786.1695, 112.7101
786.6516, 113.0811
787.1337, 113.3138
787.6158, 113.2339
788.0980, 113.0519
788.5801, 113.1290
789.0622, 113.5639
789.5443, 113.6125
790.0264, 112.7634
790.5085, 112.1981
790.9907, 112.3773
791.4728, 112.8017
791.9549, 113.0726
792.4370, 113.1424
792.9191, 113.0871
793.4012, 112.9104
793.8834, 112.6706
794.3655, 112.3399
794.8476, 112.0096
795.3297, 111.9088
795.8118, 112.0497
796.2939, 112.2348
796.7761, 112.3379
797.2582, 112.3941
797.7403, 112.5031
798.2224, 112.7075
798.7045, 112.7918
799.1866, 112.7815
799.6688, 112.6054
800.1509, 112.0326
800.6330, 111.3764
801.1151, 111.0133
801.5972, 110.9785
802.0793, 111.0842
802.5615, 111.5000
803.0436, 111.8119
803.5257, 111.5798
804.0078, 111.1606
804.4899, 111.1626
804.9720, 111.6322
805.4542, 112.0513
805.9363, 111.9616
806.4184, 111.6509
806.9005, 111.8877
807.3826, 112.6316
807.8647, 112.8746
808.3469, 112.3376
808.8290, 111.8155
809.3111, 111.9020
809.7932, 112.3835
810.2753, 112.6043
810.7574, 112.4207
811.2396, 112.2632
811.7217, 112.0877
812.2038, 111.9865
812.6859, 112.0912
813.1680, 112.2494
813.6501, 112.2253
814.1323, 111.9856
814.6144, 111.7797
815.0965, 111.8182
815.5786, 111.9267
816.0607, 111.9160
816.5428, 111.8086
817.0250, 111.6005
817.5071, 111.3157
817.9892, 111.2123
818.4713, 111.5415
818.9534, 112.1572
819.4355, 112.5282
819.9177, 112.6107
820.3998, 112.6578
820.8819, 112.7413
821.3640, 112.7124
821.8461, 112.3438
822.3282, 111.8482
822.8104, 111.6409
823.2925, 111.7716
823.7746, 112.0345
824.2567, 112.7441
824.7388, 113.2048
825.2209, 112.7811
825.7031, 111.9665
826.1852, 111.4450
826.6673, 111.3672
827.1494, 111.5119
827.6315, 111.7873
828.1136, 112.0991
828.5958, 112.3170
829.0779, 112.4350
829.5600, 112.4312
830.0421, 112.3015
830.5242, 111.9643
831.0063, 111.2524
831.4885, 110.4677
831.9706, 110.6323
832.4527, 112.3174
832.9348, 113.4364
833.4169, 113.7679
833.8990, 113.7760
834.3812, 113.4800
834.8633, 113.0743
835.3454, 112.7560
835.8275, 112.5434
836.3096, 112.5326
836.7917, 112.9596
837.2739, 113.3794
837.7560, 113.5603
838.2381, 113.5384
838.7202, 113.2963
839.2023, 112.8956
839.6844, 112.5532
840.1666, 112.4129
840.6487, 112.4184
841.1308, 112.5116
841.6129, 112.6769
842.0950, 112.8016
842.5771, 112.8717
843.0593, 112.9355
843.5414, 113.0281
844.0235, 113.1088
844.5056, 113.0865
844.9877, 112.9162
845.4698, 112.8742
845.9520, 113.0190
846.4341, 113.2206
846.9162, 113.6647
847.3983, 113.9895
847.8804, 113.6936
848.3625, 112.9218
848.8447, 112.5341
849.3268, 113.1250
849.8089, 113.6520
850.2910, 113.3652
850.7731, 112.8107
851.2552, 112.5634
851.7374, 112.6586
852.2195, 113.0160
852.7016, 113.5990
853.1837, 114.1115
853.6658, 114.0089
854.1479, 113.4817
854.6301, 113.6264
855.1122, 114.4798
855.5943, 114.7259
856.0764, 113.8061
856.5585, 112.5360
857.0406, 111.7113
857.5228, 111.3295
858.0049, 111.3682
858.4870, 112.0874
858.9691, 112.7914
859.4512, 113.5805
859.9333, 114.1826
860.4155, 114.2113
860.8976, 114.0243
861.3797, 114.4382
861.8618, 115.7806
862.3439, 116.6003
862.8260, 115.9867
863.3082, 114.9107
863.7903, 113.8906
864.2724, 113.0526
864.7545, 112.5096
865.2366, 112.2879
865.7188, 112.3730
866.2009, 112.8115
866.6830, 113.4431
867.1651, 114.1152
867.6472, 114.7485
868.1293, 114.6661
868.6115, 113.7280
869.0936, 113.0180
869.5757, 113.2429
870.0578, 113.9457
870.5399, 114.1793
871.0220, 113.8272
871.5042, 113.5728
871.9863, 113.3471
872.4684, 113.3323
872.9505, 113.9213
873.4326, 114.4973
873.9147, 114.3816
874.3969, 113.6968
874.8790, 113.3040
875.3611, 113.5566
875.8432, 113.8553
876.3253, 114.1367
876.8074, 114.2573
877.2896, 113.8948
877.7717, 113.3021
878.2538, 113.1100
878.7359, 113.5435
879.2180, 114.0452
879.7001, 114.0182
880.1823, 113.7530
880.6644, 113.8264
881.1465, 114.1620
881.6286, 114.3867
882.1107, 114.4030
882.5928, 114.3649
883.0750, 114.3977
883.5571, 114.4951
884.0392, 114.6774
884.5213, 114.9951
885.0034, 115.0625
885.4855, 114.7042
885.9677, 114.4213
886.4498, 114.4857
886.9319, 114.7658
887.4140, 115.0676
887.8961, 115.4049
888.3782, 115.6715
888.8604, 115.9585
889.3425, 116.0543
889.8246, 115.7073
890.3067, 115.3018
890.7888, 115.2330
891.2709, 115.4106
891.7531, 115.4127
892.2352, 114.9895
892.7173, 114.7027
893.1994, 115.1111
893.6815, 115.7334
894.1636, 116.0079
894.6458, 116.0040
895.1279, 115.9872
895.6100, 116.0514
896.0921, 116.1764
896.5742, 116.3689
897.0563, 116.5804
897.5385, 116.6699
898.0206, 116.6460
898.5027, 116.6130
898.9848, 116.5820
899.4669, 116.6100
899.9490, 116.7362
900.4312, 116.9435
900.9133, 117.2074
901.3954, 117.5603
901.8775, 117.8145
902.3596, 117.9063
902.8417, 118.0118
903.3239, 118.2904
903.8060, 118.5197
904.2881, 118.3632
904.7702, 117.9194
905.2523, 117.8278
905.7344, 118.5327
906.2166, 119.0506
906.6987, 118.9883
907.1808, 118.8120
907.6629, 118.8204
908.1450, 118.9761
908.6271, 119.1645
909.1093, 119.3532
909.5914, 119.5601
910.0735, 119.8036
910.5556, 120.0634
911.0377, 120.3227
911.5198, 120.5795
912.0020, 120.8581
912.4841, 121.1410
912.9662, 121.3033
913.4483, 121.2514
913.9304, 121.1438
914.4125, 121.2458
914.8947, 121.5414
915.3768, 121.9421
915.8589, 122.4526
916.3410, 122.8570
916.8231, 123.0708
917.3052, 123.1594
917.7874, 123.1459
918.2695, 123.0703
918.7516, 123.3498
919.2337, 124.2414
919.7158, 124.8643
920.1979, 124.9163
920.6801, 124.9716
921.1622, 125.4205
921.6443, 126.0432
922.1264, 126.4467
922.6085, 126.5613
923.0906, 126.8870
923.5728, 127.9357
924.0549, 128.6533
924.5370, 128.2847
925.0191, 127.6811
925.5012, 127.6214
925.9833, 128.0732
926.4655, 128.6374
926.9476, 129.1682
927.4297, 129.7808
927.9118, 130.7254
928.3939, 131.6585
928.8760, 132.0448
929.3582, 132.1343
929.8403, 132.5513
930.3224, 133.4312
930.8045, 134.4190
931.2866, 135.2431
931.7687, 135.9744
932.2509, 136.6785
932.7330, 137.3940
933.2151, 138.3472
933.6972, 139.5485
934.1793, 140.7192
934.6614, 141.7271
935.1436, 142.5739
935.6257, 143.2197
936.1078, 143.6821
936.5899, 144.2850
937.0720, 144.9662
937.5541, 146.0704
938.0363, 147.8336
938.5184, 149.6776
939.0005, 151.1716
939.4826, 152.4347
939.9647, 153.8118
940.4468, 155.2773
940.9290, 156.9146
941.4111, 159.0208
941.8932, 160.9265
942.3753, 162.2875
942.8574, 163.4839
943.3395, 164.7713
943.8217, 166.2070
944.3038, 167.9197
944.7859, 170.0376
945.2680, 172.2434
945.7501, 174.4324
946.2322, 176.6608
946.7144, 178.8860
947.1965, 181.2153
947.6786, 183.9099
948.1607, 186.9760
948.6428, 189.9932
949.1249, 192.5862
949.6071, 195.1361
950.0892, 197.9420
950.5713, 200.9925
951.0534, 204.2224
951.5355, 207.6649
952.0176, 211.5519
952.4998, 215.9792
952.9819, 220.5337
953.4640, 224.6745
953.9461, 228.6008
954.4282, 232.9275
954.9103, 237.6429
955.3925, 242.6380
955.8746, 247.9219
956.3567, 253.1424
956.8388, 258.0173
957.3209, 262.8566
957.8030, 268.5419
958.2852, 275.2121
958.7673, 280.9598
959.2494, 285.4019
959.7315, 290.4010
960.2136, 296.6319
960.6957, 303.4641
961.1779, 310.4206
961.6600, 317.4405
962.1421, 324.0000
962.6242, 329.2963
963.1063, 335.7345
963.5884, 344.2472
964.0706, 352.7347
964.5527, 359.7399
965.0348, 366.7639
965.5169, 376.0025
965.9990, 387.2588
966.4811, 397.1276
966.9633, 403.6617
967.4454, 410.7854
967.9275, 419.5263
968.4096, 429.0181
968.8917, 439.2296
969.3738, 449.5904
969.8560, 459.1661
970.3381, 467.8310
970.8202, 476.8710
971.3023, 487.6149
971.7844, 498.1247
972.2665, 506.9319
972.7487, 514.8666
973.2308, 522.9342
973.7129, 531.0063
974.1950, 538.5771
974.6771, 545.4355
975.1592, 550.9487
975.6414, 554.6095
976.1235, 556.4923
976.6056, 556.7615
977.0877, 555.3531
977.5698, 551.9120
978.0519, 546.5340
978.5341, 539.9739
979.0162, 532.6894
979.4983, 524.5042
979.9804, 514.7881
980.4625, 503.9376
980.9446, 493.4016
981.4268, 483.2124
981.9089, 473.1967
982.3910, 463.3274
982.8731, 453.4396
983.3552, 443.3776
983.8373, 433.4542
984.3195, 424.5033
984.8016, 416.5706
985.2837, 408.8232
985.7658, 401.1602
986.2479, 394.3196
986.7300, 388.7692
987.2122, 383.4746
987.6943, 377.2000
988.1764, 370.2665
988.6585, 364.4912
989.1406, 360.2544
989.6227, 356.0358
990.1049, 351.7219
990.5870, 347.5138
991.0691, 343.5127
991.5512, 339.6530
992.0333, 335.9370
992.5154, 332.3571
992.9976, 328.2515
993.4797, 322.8966
993.9618, 318.1243
994.4439, 314.5927
994.9260, 311.0039
995.4081, 306.5059
995.8903, 301.7118
996.3724, 297.4748
996.8545, 293.8452
997.3366, 290.2801
997.8187, 286.7419
998.3008, 283.1617
998.7830, 279.3676
999.2651, 275.6543
999.7472, 272.2804
1000.229, 269.1243
1000.711, 265.7779
1001.194, 262.2001
1001.676, 259.2541
1002.158, 258.0741
1002.640, 256.7198
1003.122, 253.6517
1003.604, 250.1801
1004.086, 247.7000
1004.568, 245.9867
1005.050, 244.1483
1005.533, 241.9059
1006.015, 239.6402
1006.497, 237.6697
1006.979, 235.7463
1007.461, 233.4909
1007.943, 231.1918
1008.425, 229.4008
1008.907, 228.0195
1009.390, 226.5580
1009.872, 224.7979
1010.354, 222.9430
1010.836, 221.1631
1011.318, 219.4188
1011.800, 217.5934
1012.282, 215.7751
1012.764, 214.1804
1013.246, 212.8293
1013.729, 211.5986
1014.211, 210.4181
1014.693, 209.3216
1015.175, 208.4301
1015.657, 207.6348
1016.139, 206.5865
1016.621, 205.3315
1017.103, 204.0935
1017.586, 202.9187
1018.068, 201.7673
1018.550, 200.6236
1019.032, 199.4795
1019.514, 198.3065
1019.996, 197.1264
1020.478, 196.0815
1020.960, 195.1743
1021.442, 194.6934
1021.925, 194.7393
1022.407, 194.6153
1022.889, 193.7916
1023.371, 192.6849
1023.853, 192.2247
1024.335, 192.4211
1024.817, 191.9564
1025.299, 190.7150
1025.781, 189.6945
1026.264, 189.1568
1026.746, 188.7938
1027.228, 188.4161
1027.710, 187.9867
1028.192, 187.3798
1028.674, 186.5464
1029.156, 185.9714
1029.638, 185.7430
1030.120, 185.4753
1030.603, 185.0399
1031.085, 184.6157
1031.567, 184.3624
1032.049, 184.2065
1032.531, 183.9339
1033.013, 183.4799
1033.495, 183.2243
1033.977, 183.3294
1034.460, 183.2799
1034.942, 182.8315
1035.424, 182.3584
1035.906, 182.1240
1036.388, 182.1019
1036.870, 182.2445
1037.352, 182.6564
1037.834, 182.8659
1038.317, 182.7359
1038.799, 182.6111
1039.281, 182.4964
1039.763, 182.4877
1040.245, 182.7468
1040.727, 183.1580
1041.209, 183.3852
1041.691, 183.3527
1042.173, 183.3728
1042.656, 183.5630
1043.138, 183.6536
1043.620, 183.5842
1044.102, 183.3867
1044.584, 182.8712
1045.066, 182.2805
1045.548, 182.3000
1046.030, 183.1918
1046.512, 183.8190
1046.995, 183.9444
1047.477, 183.9434
1047.959, 183.7718
1048.441, 183.6552
1048.923, 183.7922
1049.405, 184.1154
1049.887, 184.4624
1050.369, 184.8259
1050.852, 185.1525
1051.334, 185.6085
1051.816, 185.7984
1052.298, 185.2981
1052.780, 184.7408
1053.262, 184.5867
1053.744, 184.7923
1054.226, 185.2209
1054.708, 185.8845
1055.191, 186.4922
1055.673, 187.0173
1056.155, 187.4061
1056.637, 187.4132
1057.119, 187.4778
1057.601, 188.0282
1058.083, 188.8965
1058.565, 189.7007
1059.047, 190.3629
1059.530, 191.0135
1060.012, 191.9070
1060.494, 192.5136
1060.976, 192.2569
1061.458, 191.9409
1061.940, 192.2133
1062.422, 192.9408
1062.904, 193.8726
1063.387, 194.9517
1063.869, 195.7290
1064.351, 195.6057
1064.833, 195.7107
1065.315, 196.7006
1065.797, 197.9876
1066.279, 199.1350
1066.761, 200.1891
1067.244, 201.3288
1067.726, 202.5741
1068.208, 203.6998
1068.690, 204.6527
1069.172, 205.4176
1069.654, 205.5446
1070.136, 205.9012
1070.618, 207.4863
1071.100, 209.6510
1071.583, 211.2011
1072.065, 212.0203
1072.547, 213.0602
1073.029, 215.0645
1073.511, 216.7193
1073.993, 216.9216
1074.475, 217.0090
1074.957, 218.4164
1075.439, 220.1665
1075.922, 220.5561
1076.404, 219.6060
1076.886, 219.0188
1077.368, 219.6469
1077.850, 220.2271
1078.332, 220.0001
1078.814, 219.6904
1079.297, 219.8796
1079.779, 220.2731
1080.261, 220.6004
1080.743, 220.7258
1081.225, 220.3337
1081.707, 219.2024
1082.189, 217.9454
1082.671, 216.5392
1083.153, 215.4423
1083.635, 215.1695
1084.118, 215.2223
1084.600, 215.0769
1085.082, 214.7088
1085.564, 214.2939
1086.046, 213.8928
1086.528, 213.3897
1087.010, 212.5858
1087.492, 211.8481
1087.975, 211.2590
1088.457, 210.9341
1088.939, 211.0535
1089.421, 211.5067
1089.903, 212.1133
1090.385, 212.8704
1090.867, 213.2498
1091.349, 212.6232
1091.832, 212.1217
1092.314, 212.5026
1092.796, 213.0097
1093.278, 212.8779
1093.760, 212.4236
1094.242, 212.3142
1094.724, 212.6621
1095.206, 213.1678
1095.688, 213.5590
1096.171, 214.3366
1096.653, 216.3559
1097.135, 218.1153
1097.617, 218.3927
1098.099, 217.8418
1098.581, 217.2815
1099.063, 216.8854
1099.545, 217.1137
1100.027, 218.7431
1100.510, 219.8795
1100.992, 219.5855
1101.474, 219.2065
1101.956, 219.5749
1102.438, 220.1809
1102.920, 220.3703
1103.402, 220.1965
1103.884, 220.2003
1104.367, 220.6817
1104.849, 220.8019
1105.331, 220.5696
1105.813, 219.7558
1106.295, 217.9281
1106.777, 215.7724
1107.259, 213.9156
1107.741, 212.2454
1108.224, 210.3204
1108.706, 207.9803
1109.188, 205.9377
1109.670, 204.5613
1110.152, 203.0704
1110.634, 201.0446
1111.116, 199.0855
1111.598, 197.7654
1112.080, 196.7103
1112.563, 195.1110
1113.045, 192.8463
1113.527, 191.1021
1114.009, 189.8322
1114.491, 189.1718
1114.973, 189.8930
1115.455, 190.1999
1115.937, 188.8180
1116.419, 186.9425
1116.902, 186.2445
1117.384, 186.5848
1117.866, 186.2004
1118.348, 184.5255
1118.830, 183.4717
1119.312, 183.4287
1119.794, 183.3433
1120.276, 182.7722
1120.759, 182.1322
1121.241, 181.7710
1121.723, 181.6773
1122.205, 181.8789
1122.687, 182.5812
1123.169, 182.5363
1123.651, 181.4217
1124.133, 180.6623
1124.615, 180.7251
1125.098, 180.8446
1125.580, 180.4575
1126.062, 179.8593
1126.544, 179.6221
1127.026, 179.7413
1127.508, 180.0644
1127.990, 180.6961
1128.472, 180.4942
1128.954, 179.1461
1129.437, 177.9930
1129.919, 177.7008
1130.401, 177.8555
1130.883, 178.0182
1131.365, 178.1093
1131.847, 177.7305
1132.329, 176.9122
1132.811, 176.2311
1133.294, 175.7332
1133.776, 175.6313
1134.258, 175.9978
1134.740, 176.1889
1135.222, 175.6844
1135.704, 174.5937
1136.186, 172.8201
1136.668, 170.6722
1137.151, 169.5533
1137.633, 169.2744
1138.115, 168.8137
1138.597, 167.9418
1139.079, 166.6861
1139.561, 165.0564
1140.043, 163.4067
1140.525, 162.1901
1141.007, 161.2225
1141.490, 160.1262
1141.972, 159.0186
1142.454, 158.2294
1142.936, 157.6878
1143.418, 157.0249
1143.900, 156.1234
1144.382, 155.1697
1144.864, 154.2810
1145.346, 153.4555
1145.829, 152.7263
1146.311, 152.0379
1146.793, 151.3707
1147.275, 150.6634
1147.757, 149.7589
1148.239, 148.6916
1148.721, 147.7428
1149.203, 147.0635
1149.686, 146.4052
1150.168, 145.6990
1150.650, 144.8617
1151.132, 143.5610
1151.614, 142.3013
1152.096, 141.7742
1152.578, 141.7513
1153.060, 141.5848
1153.542, 141.1321
1154.025, 140.5078
1154.507, 139.4338
1154.989, 138.6382
1155.471, 138.7517
1155.953, 138.8190
1156.435, 138.0272
1156.917, 136.9166
1157.399, 136.3811
1157.881, 136.3679
1158.364, 135.8552
1158.846, 134.2198
1159.328, 133.0829
1159.810, 132.5902
1160.292, 132.5685
1160.774, 133.4172
1161.256, 134.2299
1161.738, 134.3265
1162.221, 133.8489
1162.703, 133.0508
1163.185, 131.8319
1163.667, 131.1625
1164.149, 131.2283
1164.631, 131.3377
1165.113, 131.4681
1165.595, 131.3879
1166.078, 130.9178
1166.560, 130.3419
1167.042, 130.0259
1167.524, 129.8934
1168.006, 129.5890
1168.488, 129.1057
1168.970, 128.5442
1169.452, 127.9010
1169.934, 127.4305
1170.417, 127.2089
1170.899, 127.0338
1171.381, 126.7737
1171.863, 126.3794
1172.345, 125.5938
1172.827, 124.6427
1173.309, 124.4398
1173.791, 124.7976
1174.273, 125.0959
1174.756, 125.1928
1175.238, 124.9086
1175.720, 124.1920
1176.202, 123.3577
1176.684, 122.6015
1177.166, 122.0138
1177.648, 121.5389
1178.130, 121.4181
1178.613, 122.5990
1179.095, 124.1693
1179.577, 124.0252
1180.059, 122.2349
1180.541, 120.8150
1181.023, 120.6569
1181.505, 120.8200
1181.987, 120.8350
1182.469, 120.8566
1182.952, 121.1368
1183.434, 121.3431
1183.916, 121.0442
1184.398, 120.4591
1184.880, 120.0182
1185.362, 119.7905
1185.844, 119.7323
1186.326, 120.1336
1186.808, 120.2388
1187.291, 119.5492
1187.773, 118.9921
1188.255, 119.0569
1188.737, 119.3659
1189.219, 119.6014
1189.701, 119.7758
1190.183, 119.9357
1190.665, 120.0994
1191.148, 120.1693
1191.630, 120.2001
1192.112, 119.9222
1192.594, 119.0901
1193.076, 118.5806
1193.558, 118.9469
1194.040, 119.5598
1194.522, 119.5885
1195.005, 119.2176
1195.487, 119.3184
1195.969, 119.8562
1196.451, 119.7435
1196.933, 118.9700
1197.415, 118.5722
1197.897, 118.8099
1198.379, 119.3116
1198.861, 119.8638
1199.344, 120.3138
1199.826, 120.3710
1200.308, 120.2409
1200.790, 120.4221
1201.272, 120.7191
1201.754, 120.6443
1202.236, 120.2760
1202.718, 119.9672
1203.200, 119.8372
1203.683, 119.9281
1204.165, 120.3957
1204.647, 120.7282
1205.129, 120.3338
1205.611, 119.8598
1206.093, 119.8493
1206.575, 120.0927
1207.057, 120.3894
1207.540, 120.6652
1208.022, 120.7972
1208.504, 120.7387
1208.986, 120.8197
1209.468, 121.5025
1209.950, 121.7588
1210.432, 120.8112
1210.914, 120.0381
1211.396, 120.4585
1211.879, 121.1167
1212.361, 120.8943
1212.843, 120.0964
1213.325, 120.0054
1213.807, 120.8614
1214.289, 121.2600
1214.771, 121.1215
1215.253, 120.7805
1215.735, 120.2095
1216.218, 119.9229
1216.700, 120.2241
1217.182, 120.8388
1217.664, 121.5151
1218.146, 122.0998
1218.628, 122.0438
1219.110, 121.4588
1219.592, 120.8023
1220.075, 120.1680
1220.557, 119.8571
1221.039, 119.9077
1221.521, 120.0519
1222.003, 120.1402
1222.485, 120.3227
1222.967, 120.9665
1223.449, 121.5689
1223.932, 121.3051
1224.414, 120.8357
1224.896, 121.2471
1225.378, 122.0629
1225.860, 122.0910
1226.342, 121.2691
1226.824, 120.6564
1227.306, 120.6564
1227.788, 120.7776
1228.271, 120.9673
1228.753, 121.0951
1229.235, 120.9036
1229.717, 120.8250
1230.199, 121.4514
1230.681, 122.3004
1231.163, 122.3999
1231.645, 121.7734
1232.127, 121.6209
1232.610, 122.1957
1233.092, 122.4327
1233.574, 122.1496
1234.056, 122.0383
1234.538, 122.3625
1235.020, 122.6371
1235.502, 122.4857
1235.984, 122.1590
1236.467, 122.1295
1236.949, 122.2802
1237.431, 122.0304
1237.913, 121.5048
1238.395, 121.2715
1238.877, 121.3420
1239.359, 121.4711
1239.841, 121.5745
1240.323, 121.6412
1240.806, 121.6376
1241.288, 121.7287
1241.770, 122.2632
1242.252, 122.7675
1242.734, 122.6624
1243.216, 122.3387
1243.698, 122.2978
1244.180, 122.4474
1244.662, 122.5157
1245.145, 122.4492
1245.627, 122.2452
1246.109, 121.6873
1246.591, 121.3903
1247.073, 121.6447
1247.555, 121.9316
1248.037, 122.2394
1248.519, 122.3113
1249.002, 121.7947
1249.484, 121.0929
1249.966, 120.9772
1250.448, 121.4050
1250.930, 121.6284
1251.412, 121.6301
1251.894, 121.5913
1252.376, 121.5215
1252.859, 121.5275
1253.341, 121.6404
1253.823, 121.7431
1254.305, 121.7509
1254.787, 121.7566
1255.269, 121.9902
1255.751, 122.2322
1256.233, 121.9117
1256.715, 121.3888
1257.198, 121.4131
1257.680, 121.8095
1258.162, 121.9871
1258.644, 121.8464
1259.126, 121.6672
1259.608, 121.5456
1260.090, 121.4867
1260.572, 121.6124
1261.054, 121.6453
1261.537, 121.2267
1262.019, 120.8967
1262.501, 121.2501
1262.983, 121.8554
1263.465, 122.0127
1263.947, 121.7667
1264.429, 121.4740
1264.911, 121.0252
1265.394, 120.9652
1265.876, 121.4357
1266.358, 121.5863
1266.840, 121.1470
1267.322, 120.9839
1267.804, 121.6015
1268.286, 122.4907
1268.768, 123.1371
1269.250, 123.4082
1269.733, 122.7142
1270.215, 121.5330
1270.697, 121.0145
1271.179, 121.0724
1271.661, 121.3917
1272.143, 121.8316
1272.625, 122.2652
1273.107, 122.6439
1273.589, 122.6617
1274.072, 121.5760
1274.554, 120.8656
1275.036, 121.6573
1275.518, 122.6245
1276.000, 123.0234
1276.482, 123.0139
1276.964, 122.6411
1277.446, 122.0931
1277.929, 121.8591
1278.411, 121.9581
1278.893, 122.2429
1279.375, 122.9226
1279.857, 122.9485
1280.339, 122.0836
1280.821, 121.2182
1281.303, 120.6309
1281.786, 120.5501
1282.268, 121.1336
##END=



