##NAMES=Mansfieldite
##RRUFFID=R060951
##IDEAL CHEMISTRY=AlAs^5+^O_4_&#183;2H_2_O
##LOCALITY=Pampa Larga Mining District, Chile
##OWNER=RRUFF
##SOURCE=Bob Jenkins
##DESCRIPTION=Sharp pale rose crystals, fairly transparent.
##STATUS=The identification of this mineral is confirmed by single-crystal X-ray diffraction and chemical analysis.
##URL=rruff.info/R060951
##MEASURED CHEMISTRY=(Al_0.89_Fe^3+^_0.11_)_Σ=1_As_1.00_O_4_·2H_2_O; trace amounts of P, Mn, Ca, Na; H_2_O estimated by difference
191.9120, 38431.46
192.3941, 38434.65
192.8762, 38427.75
193.3583, 38434.31
193.8405, 38454.57
194.3226, 38487.63
194.8047, 38542.35
195.2868, 38617.79
195.7689, 38672.50
196.2510, 38698.50
196.7332, 38707.00
197.2153, 38715.82
197.6974, 38720.32
198.1795, 38756.60
198.6616, 38872.44
199.1437, 39076.25
199.6259, 39229.61
200.1080, 39304.49
200.5901, 39320.61
201.0722, 39344.57
201.5543, 39377.28
202.0364, 39413.09
202.5186, 39440.54
203.0007, 39454.02
203.4828, 39496.97
203.9649, 39585.97
204.4470, 39709.42
204.9291, 39803.29
205.4112, 39863.44
205.8934, 39901.78
206.3755, 39930.28
206.8576, 39951.31
207.3397, 39946.09
207.8218, 39903.41
208.3039, 39827.57
208.7861, 39770.52
209.2682, 39747.12
209.7503, 39719.23
210.2324, 39636.54
210.7145, 39474.66
211.1966, 39355.09
211.6788, 39320.09
212.1609, 39369.84
212.6430, 39385.02
213.1251, 39351.05
213.6072, 39305.67
214.0893, 39293.28
214.5715, 39328.28
215.0536, 39356.01
215.5357, 39354.31
216.0178, 39318.14
216.4999, 39317.25
216.9820, 39363.64
217.4642, 39428.52
217.9463, 39476.28
218.4284, 39498.93
218.9105, 39516.93
219.3926, 39532.76
219.8747, 39544.04
220.3568, 39565.75
220.8390, 39599.28
221.3211, 39642.61
221.8032, 39699.55
222.2853, 39788.12
222.7674, 39855.26
223.2495, 39878.66
223.7317, 39846.84
224.2138, 39835.38
224.6959, 39852.54
225.1780, 39885.96
225.6601, 39917.94
226.1422, 39952.34
226.6244, 39977.96
227.1065, 39985.25
227.5886, 39961.66
228.0707, 39967.16
228.5528, 40016.30
229.0349, 40085.07
229.5171, 40130.11
229.9992, 40143.92
230.4813, 40145.39
230.9634, 40135.32
231.4455, 40098.92
231.9276, 40097.90
232.4098, 40150.25
232.8919, 40230.21
233.3740, 40281.92
233.8561, 40285.77
234.3382, 40294.18
234.8203, 40329.56
235.3024, 40406.32
235.7846, 40472.02
236.2667, 40527.16
236.7488, 40572.04
237.2309, 40604.18
237.7130, 40614.75
238.1951, 40626.57
238.6773, 40648.53
239.1594, 40683.48
239.6415, 40723.36
240.1236, 40774.52
240.6057, 40829.53
241.0878, 40869.84
241.5700, 40885.29
242.0521, 40900.96
242.5342, 40926.39
243.0163, 40962.95
243.4984, 41004.71
243.9805, 41050.94
244.4627, 41100.99
244.9448, 41151.79
245.4269, 41189.26
245.9090, 41244.90
246.3911, 41340.77
246.8732, 41520.10
247.3554, 41628.76
247.8375, 41633.18
248.3196, 41574.96
248.8017, 41562.86
249.2838, 41629.04
249.7659, 41691.79
250.2480, 41717.38
250.7302, 41695.58
251.2123, 41664.14
251.6944, 41614.93
252.1765, 41562.18
252.6586, 41542.34
253.1407, 41582.39
253.6229, 41616.43
254.1050, 41610.25
254.5871, 41533.45
255.0692, 41502.89
255.5513, 41538.23
256.0334, 41613.49
256.5156, 41664.24
256.9977, 41677.78
257.4798, 41688.24
257.9619, 41709.74
258.4440, 41744.05
258.9261, 41779.65
259.4083, 41810.34
259.8904, 41843.06
260.3725, 41896.79
260.8546, 41979.16
261.3367, 42065.52
261.8188, 42145.88
262.3010, 42221.45
262.7831, 42286.47
263.2652, 42342.72
263.7473, 42386.52
264.2294, 42403.21
264.7115, 42371.01
265.1937, 42360.06
265.6758, 42416.09
266.1579, 42567.68
266.6400, 42663.57
267.1221, 42690.18
267.6042, 42671.86
268.0864, 42654.61
268.5685, 42636.51
269.0506, 42627.01
269.5327, 42634.52
270.0148, 42665.15
270.4969, 42683.38
270.9790, 42684.52
271.4612, 42679.86
271.9433, 42693.04
272.4254, 42729.82
272.9075, 42765.91
273.3896, 42786.60
273.8717, 42787.98
274.3539, 42806.95
274.8360, 42844.04
275.3181, 42898.04
275.8002, 42978.07
276.2823, 43093.74
276.7644, 43184.01
277.2466, 43211.27
277.7287, 43170.04
278.2108, 43156.02
278.6929, 43172.79
279.1750, 43207.54
279.6571, 43238.89
280.1393, 43264.40
280.6214, 43302.38
281.1035, 43365.35
281.5856, 43451.52
282.0677, 43531.11
282.5498, 43606.96
283.0320, 43667.93
283.5141, 43692.82
283.9962, 43680.70
284.4783, 43664.58
284.9604, 43655.28
285.4425, 43653.08
285.9247, 43656.86
286.4068, 43666.64
286.8889, 43684.30
287.3710, 43709.01
287.8531, 43741.61
288.3352, 43793.70
288.8174, 43890.76
289.2995, 44012.27
289.7816, 44058.20
290.2637, 44016.86
290.7458, 43970.57
291.2279, 44030.90
291.7101, 44178.63
292.1922, 44289.05
292.6743, 44297.74
293.1564, 44244.80
293.6385, 44236.89
294.1206, 44277.09
294.6028, 44320.59
295.0849, 44312.57
295.5670, 44269.92
296.0491, 44254.77
296.5312, 44304.29
297.0133, 44384.59
297.4955, 44426.03
297.9776, 44429.95
298.4597, 44441.68
298.9418, 44517.18
299.4239, 44630.64
299.9060, 44715.88
300.3881, 44728.27
300.8702, 44726.39
301.3524, 44792.84
301.8345, 44921.87
302.3166, 45069.93
302.7987, 45229.66
303.2808, 45380.59
303.7629, 45487.69
304.2451, 45517.13
304.7272, 45528.15
305.2093, 45588.21
305.6914, 45687.32
306.1735, 45776.43
306.6556, 45815.18
307.1378, 45831.38
307.6199, 45860.18
308.1020, 45914.44
308.5841, 45976.02
309.0662, 46052.03
309.5483, 46130.62
310.0305, 46168.77
310.5126, 46098.34
310.9947, 46003.09
311.4768, 45966.91
311.9589, 46029.70
312.4410, 46086.21
312.9232, 46065.99
313.4053, 45991.57
313.8874, 45913.68
314.3695, 45837.98
314.8516, 45776.27
315.3337, 45736.28
315.8159, 45720.24
316.2980, 45721.46
316.7801, 45755.47
317.2622, 45802.43
317.7443, 45831.00
318.2264, 45809.23
318.7086, 45784.72
319.1907, 45784.11
319.6728, 45816.16
320.1549, 45837.55
320.6370, 45812.02
321.1191, 45777.05
321.6013, 45775.95
322.0834, 45841.68
322.5655, 45919.32
323.0476, 46001.23
323.5297, 46088.74
324.0118, 46148.20
324.4940, 46139.62
324.9761, 46116.27
325.4582, 46124.58
325.9403, 46196.37
326.4224, 46270.68
326.9045, 46341.66
327.3867, 46408.80
327.8688, 46463.30
328.3509, 46479.15
328.8330, 46498.74
329.3151, 46551.49
329.7972, 46703.56
330.2793, 46799.55
330.7614, 46801.64
331.2436, 46729.16
331.7257, 46700.83
332.2078, 46749.66
332.6899, 46806.63
333.1720, 46832.48
333.6541, 46805.73
334.1363, 46794.62
334.6184, 46809.13
335.1005, 46839.98
335.5826, 46858.57
336.0647, 46856.48
336.5468, 46859.02
337.0290, 46879.52
337.5111, 46923.73
337.9932, 46959.57
338.4753, 46980.46
338.9574, 46997.34
339.4395, 47036.98
339.9217, 47108.32
340.4038, 47161.63
340.8859, 47172.68
341.3680, 47141.14
341.8501, 47114.43
342.3322, 47096.55
342.8144, 47076.25
343.2965, 47029.15
343.7786, 46954.68
344.2607, 46910.39
344.7428, 46937.19
345.2249, 47011.37
345.7071, 47007.50
346.1892, 46914.39
346.6713, 46835.80
347.1534, 46905.62
347.6355, 47092.46
348.1176, 47225.16
348.5998, 47235.84
349.0819, 47182.06
349.5640, 47171.21
350.0461, 47200.65
350.5282, 47246.26
351.0103, 47302.41
351.4925, 47358.52
351.9746, 47390.27
352.4567, 47379.39
352.9388, 47363.48
353.4209, 47397.41
353.9030, 47468.40
354.3852, 47527.08
354.8673, 47541.98
355.3494, 47531.05
355.8315, 47517.05
356.3136, 47507.93
356.7957, 47485.53
357.2779, 47415.55
357.7599, 47323.91
358.2421, 47263.06
358.7242, 47266.52
359.2063, 47301.80
359.6884, 47360.99
360.1705, 47448.22
360.6526, 47507.32
361.1348, 47469.48
361.6169, 47400.88
362.0990, 47381.39
362.5811, 47492.30
363.0632, 47601.32
363.5453, 47662.23
364.0275, 47673.46
364.5096, 47659.49
364.9917, 47580.14
365.4738, 47503.70
365.9559, 47479.94
366.4380, 47580.56
366.9202, 47664.54
367.4023, 47699.92
367.8844, 47698.30
368.3665, 47721.31
368.8486, 47803.10
369.3307, 47887.02
369.8129, 47948.21
370.2950, 47978.29
370.7771, 47999.42
371.2592, 48002.15
371.7413, 47998.09
372.2234, 48013.55
372.7056, 48058.86
373.1877, 48105.35
373.6698, 48137.31
374.1519, 48145.72
374.6340, 48184.65
375.1161, 48262.59
375.5983, 48357.14
376.0804, 48442.66
376.5625, 48519.20
377.0446, 48580.01
377.5267, 48614.88
378.0089, 48629.80
378.4910, 48677.33
378.9731, 48765.97
379.4552, 48856.00
379.9373, 48906.23
380.4194, 48919.66
380.9016, 48935.68
381.3837, 48963.22
381.8658, 48999.73
382.3479, 49037.99
382.8300, 49078.77
383.3121, 49126.72
383.7943, 49188.81
384.2764, 49259.89
384.7585, 49324.29
385.2406, 49375.09
385.7227, 49429.60
386.2048, 49508.06
386.6869, 49604.88
387.1690, 49706.80
387.6512, 49823.03
388.1333, 49928.64
388.6154, 49983.35
389.0975, 49979.81
389.5796, 49980.94
390.0617, 50041.13
390.5439, 50132.71
391.0260, 50217.26
391.5081, 50283.98
391.9902, 50338.47
392.4723, 50385.90
392.9544, 50426.93
393.4366, 50459.00
393.9187, 50480.76
394.4008, 50495.99
394.8829, 50506.91
395.3650, 50500.70
395.8471, 50510.78
396.3293, 50556.72
396.8114, 50626.00
397.2935, 50685.45
397.7756, 50719.86
398.2577, 50749.80
398.7398, 50784.16
399.2220, 50829.45
399.7041, 50858.77
400.1862, 50841.87
400.6683, 50820.79
401.1504, 50852.36
401.6325, 50977.91
402.1147, 51094.39
402.5968, 51181.42
403.0789, 51239.32
403.5610, 51289.67
404.0431, 51336.89
404.5252, 51371.32
405.0074, 51376.50
405.4895, 51339.21
405.9716, 51331.17
406.4537, 51361.82
406.9358, 51427.75
407.4179, 51535.38
407.9001, 51694.71
408.3822, 51829.58
408.8643, 51885.02
409.3464, 51869.02
409.8285, 51845.07
410.3106, 51807.55
410.7928, 51794.19
411.2749, 51889.86
411.7570, 52071.78
412.2391, 52211.86
412.7212, 52209.21
413.2033, 52142.91
413.6855, 52154.83
414.1676, 52243.93
414.6497, 52370.15
415.1318, 52530.05
415.6139, 52697.97
416.0960, 52829.64
416.5781, 52899.80
417.0602, 52946.15
417.5424, 52989.49
418.0245, 53030.57
418.5066, 53073.24
418.9887, 53135.94
419.4708, 53189.95
419.9529, 53207.27
420.4351, 53161.85
420.9172, 53144.88
421.3993, 53229.43
421.8814, 53354.21
422.3635, 53428.63
422.8456, 53394.17
423.3278, 53347.31
423.8099, 53311.26
424.2920, 53287.06
424.7741, 53277.87
425.2562, 53289.38
425.7383, 53313.05
426.2205, 53344.93
426.7026, 53406.82
427.1847, 53439.23
427.6668, 53428.00
428.1489, 53382.85
428.6310, 53335.19
429.1132, 53269.63
429.5953, 53229.72
430.0774, 53246.98
430.5595, 53332.05
431.0416, 53393.29
431.5237, 53432.13
432.0059, 53441.70
432.4880, 53395.45
432.9701, 53292.32
433.4522, 53212.68
433.9343, 53195.54
434.4164, 53218.44
434.8986, 53206.19
435.3807, 53158.69
435.8628, 53109.39
436.3449, 53099.22
436.8270, 53109.15
437.3091, 53088.46
437.7913, 53016.35
438.2734, 52932.43
438.7555, 52873.70
439.2376, 52837.30
439.7197, 52815.22
440.2018, 52810.84
440.6840, 52813.03
441.1661, 52808.51
441.6482, 52793.60
442.1303, 52790.03
442.6124, 52823.06
443.0945, 52867.90
443.5767, 52896.02
444.0588, 52893.45
444.5409, 52879.31
445.0230, 52867.81
445.5051, 52854.92
445.9872, 52808.59
446.4693, 52666.05
446.9514, 52534.87
447.4336, 52470.73
447.9157, 52514.52
448.3978, 52556.19
448.8799, 52597.29
449.3620, 52636.11
449.8441, 52664.92
450.3263, 52667.66
450.8084, 52694.75
451.2905, 52774.61
451.7726, 52904.55
452.2547, 52974.74
452.7368, 52969.08
453.2190, 52942.76
453.7011, 52945.52
454.1832, 52977.32
454.6653, 53006.44
455.1474, 53024.34
455.6295, 53041.80
456.1117, 53095.65
456.5938, 53180.42
457.0759, 53239.15
457.5580, 53206.70
458.0401, 53132.21
458.5222, 53126.61
459.0044, 53203.35
459.4865, 53272.67
459.9686, 53207.73
460.4507, 53090.07
460.9328, 53055.48
461.4149, 53254.63
461.8971, 53462.20
462.3792, 53522.88
462.8613, 53460.45
463.3434, 53390.48
463.8255, 53346.17
464.3076, 53323.35
464.7898, 53324.63
465.2719, 53371.29
465.7540, 53394.16
466.2361, 53368.98
466.7182, 53314.61
467.2003, 53259.00
467.6825, 53198.34
468.1646, 53142.29
468.6467, 53089.50
469.1288, 53039.55
469.6109, 53002.03
470.0930, 52972.22
470.5752, 52958.71
471.0573, 52971.73
471.5394, 53019.14
472.0215, 53059.76
472.5036, 53097.62
472.9857, 53117.14
473.4679, 53066.53
473.9500, 52941.11
474.4321, 52846.66
474.9142, 52858.37
475.3963, 52941.70
475.8784, 52960.73
476.3605, 52914.02
476.8427, 52851.13
477.3248, 52815.39
477.8069, 52800.34
478.2890, 52792.64
478.7711, 52794.04
479.2532, 52796.46
479.7354, 52779.42
480.2175, 52755.14
480.6996, 52758.27
481.1817, 52815.25
481.6638, 52898.23
482.1459, 52990.54
482.6281, 53088.70
483.1102, 53189.93
483.5923, 53309.77
484.0744, 53420.50
484.5565, 53495.68
485.0386, 53492.54
485.5208, 53490.71
486.0029, 53503.91
486.4850, 53526.79
486.9671, 53538.55
487.4492, 53523.16
487.9313, 53518.73
488.4135, 53549.25
488.8956, 53631.09
489.3777, 53680.43
489.8598, 53697.83
490.3419, 53688.42
490.8240, 53644.27
491.3062, 53560.70
491.7883, 53515.61
492.2704, 53542.68
492.7525, 53611.16
493.2346, 53634.45
493.7167, 53613.58
494.1989, 53591.00
494.6810, 53586.32
495.1631, 53600.51
495.6452, 53640.17
496.1273, 53707.34
496.6094, 53783.40
497.0916, 53870.43
497.5737, 53949.61
498.0558, 53991.04
498.5379, 53956.31
499.0200, 53904.02
499.5021, 53853.96
499.9843, 53810.88
500.4664, 53798.34
500.9485, 53865.61
501.4306, 53937.10
501.9127, 53966.96
502.3948, 53924.40
502.8769, 53899.38
503.3590, 53893.55
503.8412, 53910.48
504.3233, 53958.34
504.8054, 54061.00
505.2875, 54151.10
505.7696, 54219.25
506.2517, 54264.19
506.7339, 54269.07
507.2160, 54217.69
507.6981, 54173.16
508.1802, 54182.18
508.6623, 54243.10
509.1444, 54304.83
509.6266, 54371.26
510.1087, 54417.63
510.5908, 54381.72
511.0729, 54288.94
511.5550, 54246.58
512.0372, 54342.07
512.5193, 54472.55
513.0014, 54481.21
513.4835, 54390.54
513.9656, 54320.42
514.4478, 54385.80
514.9299, 54480.26
515.4120, 54495.83
515.8941, 54384.35
516.3762, 54305.70
516.8583, 54354.68
517.3404, 54462.23
517.8225, 54543.64
518.3046, 54579.97
518.7867, 54589.64
519.2689, 54551.36
519.7510, 54477.27
520.2331, 54458.88
520.7152, 54543.37
521.1973, 54620.86
521.6794, 54632.88
522.1616, 54558.52
522.6437, 54513.34
523.1258, 54505.82
523.6079, 54514.53
524.0900, 54513.01
524.5721, 54501.31
525.0543, 54492.33
525.5364, 54496.46
526.0185, 54497.88
526.5006, 54445.93
526.9827, 54348.78
527.4648, 54271.76
527.9470, 54281.91
528.4291, 54326.84
528.9112, 54330.51
529.3933, 54282.42
529.8754, 54228.66
530.3575, 54192.23
530.8397, 54171.02
531.3218, 54162.02
531.8039, 54169.00
532.2860, 54183.91
532.7681, 54231.10
533.2502, 54289.82
533.7324, 54289.71
534.2145, 54136.57
534.6966, 54005.99
535.1787, 53969.60
535.6608, 54054.70
536.1429, 54076.03
536.6251, 53995.63
537.1072, 53902.18
537.5893, 53884.88
538.0714, 53959.50
538.5535, 54016.54
539.0356, 54036.91
539.5178, 54037.30
539.9999, 54056.69
540.4820, 54092.73
540.9641, 54115.27
541.4462, 54086.16
541.9283, 54038.08
542.4105, 54048.18
542.8926, 54113.67
543.3747, 54179.20
543.8568, 54192.04
544.3389, 54183.45
544.8210, 54192.26
545.3032, 54234.07
545.7853, 54276.02
546.2674, 54316.49
546.7495, 54343.76
547.2316, 54338.71
547.7137, 54247.09
548.1959, 54174.66
548.6780, 54160.27
549.1601, 54202.78
549.6422, 54229.82
550.1243, 54219.41
550.6064, 54221.11
551.0886, 54269.67
551.5707, 54388.91
552.0528, 54462.65
552.5349, 54483.49
553.0170, 54471.85
553.4991, 54445.49
553.9813, 54404.86
554.4634, 54374.20
554.9455, 54362.93
555.4276, 54362.16
555.9097, 54352.12
556.3918, 54335.82
556.8740, 54328.68
557.3561, 54340.35
557.8382, 54366.89
558.3203, 54413.59
558.8024, 54483.42
559.2845, 54534.70
559.7667, 54527.29
560.2488, 54499.43
560.7309, 54487.00
561.2130, 54504.59
561.6951, 54529.55
562.1772, 54558.94
562.6594, 54592.24
563.1415, 54628.28
563.6236, 54661.58
564.1057, 54702.80
564.5878, 54759.33
565.0699, 54828.67
565.5521, 54878.71
566.0342, 54906.56
566.5163, 54921.72
566.9984, 54927.36
567.4805, 54924.30
567.9626, 54925.47
568.4448, 54931.61
568.9269, 54944.40
569.4090, 54973.50
569.8911, 55011.87
570.3732, 55040.04
570.8553, 55048.59
571.3375, 55046.34
571.8196, 55033.94
572.3017, 55015.83
572.7838, 55008.01
573.2659, 55026.31
573.7480, 55049.95
574.2302, 55069.55
574.7123, 55085.14
575.1943, 55089.27
575.6765, 55062.59
576.1586, 55036.69
576.6407, 55038.08
577.1228, 55098.57
577.6049, 55124.84
578.0870, 55100.09
578.5692, 55049.33
579.0513, 55018.89
579.5334, 55009.05
580.0155, 55023.05
580.4976, 55069.79
580.9797, 55138.90
581.4619, 55200.91
581.9440, 55255.18
582.4261, 55295.19
582.9082, 55295.58
583.3903, 55283.78
583.8724, 55313.43
584.3546, 55398.05
584.8367, 55463.90
585.3188, 55429.03
585.8009, 55357.86
586.2830, 55327.27
586.7651, 55415.00
587.2473, 55484.31
587.7294, 55477.32
588.2115, 55423.65
588.6936, 55414.63
589.1757, 55488.32
589.6578, 55563.34
590.1400, 55624.50
590.6221, 55671.91
591.1042, 55670.40
591.5863, 55598.71
592.0684, 55537.57
592.5505, 55562.92
593.0327, 55667.69
593.5148, 55744.23
593.9969, 55782.88
594.4790, 55797.06
594.9611, 55794.59
595.4432, 55781.02
595.9254, 55769.32
596.4075, 55758.75
596.8896, 55758.54
597.3717, 55781.21
597.8538, 55821.40
598.3359, 55863.22
598.8181, 55906.78
599.3002, 55944.83
599.7823, 55968.47
600.2644, 55974.38
600.7465, 55996.55
601.2286, 56051.80
601.7108, 56109.80
602.1929, 56147.95
602.6750, 56146.76
603.1571, 56184.23
603.6392, 56274.32
604.1213, 56385.25
604.6035, 56477.21
605.0856, 56550.23
605.5677, 56601.73
606.0498, 56621.68
606.5319, 56630.99
607.0140, 56671.25
607.4962, 56736.57
607.9783, 56802.13
608.4604, 56849.08
608.9425, 56891.30
609.4246, 56948.19
609.9067, 57020.69
610.3889, 57070.88
610.8710, 57045.20
611.3531, 57014.41
611.8352, 57033.55
612.3173, 57165.35
612.7994, 57245.39
613.2816, 57235.25
613.7637, 57191.93
614.2458, 57191.66
614.7279, 57254.21
615.2100, 57304.45
615.6921, 57327.62
616.1743, 57331.91
616.6564, 57329.54
617.1385, 57320.95
617.6206, 57336.64
618.1027, 57419.16
618.5848, 57529.46
619.0670, 57576.27
619.5491, 57562.70
620.0312, 57559.92
620.5133, 57643.43
620.9954, 57747.35
621.4775, 57800.06
621.9597, 57769.24
622.4418, 57749.33
622.9239, 57796.05
623.4060, 57859.52
623.8881, 57883.75
624.3702, 57808.73
624.8524, 57768.82
625.3345, 57790.43
625.8166, 57849.50
626.2987, 57881.48
626.7808, 57881.49
627.2629, 57876.55
627.7451, 57878.04
628.2272, 57882.91
628.7093, 57880.96
629.1914, 57872.57
629.6735, 57848.57
630.1556, 57783.16
630.6378, 57706.41
631.1199, 57675.89
631.6020, 57703.55
632.0841, 57715.27
632.5662, 57640.04
633.0483, 57535.44
633.5304, 57459.66
634.0125, 57436.27
634.4946, 57432.74
634.9767, 57459.37
635.4589, 57498.71
635.9410, 57517.18
636.4231, 57492.58
636.9052, 57490.76
637.3873, 57540.41
637.8694, 57620.14
638.3516, 57627.40
638.8337, 57552.73
639.3158, 57488.07
639.7979, 57501.40
640.2800, 57563.11
640.7621, 57584.11
641.2443, 57563.86
641.7264, 57533.46
642.2085, 57509.97
642.6906, 57494.89
643.1727, 57490.33
643.6548, 57497.66
644.1370, 57517.04
644.6191, 57558.46
645.1012, 57609.64
645.5833, 57655.84
646.0654, 57705.75
646.5475, 57735.41
647.0297, 57734.64
647.5118, 57713.19
647.9939, 57690.70
648.4760, 57658.41
648.9581, 57649.58
649.4402, 57680.22
649.9224, 57738.73
650.4045, 57784.21
650.8866, 57816.89
651.3687, 57858.30
651.8508, 57949.34
652.3329, 58047.29
652.8151, 58083.33
653.2972, 58051.38
653.7793, 58007.84
654.2614, 57976.30
654.7435, 57956.03
655.2256, 57949.16
655.7078, 57977.61
656.1899, 57982.77
656.6720, 57927.73
657.1541, 57860.45
657.6362, 57843.37
658.1183, 57902.72
658.6005, 57938.59
659.0826, 57928.48
659.5647, 57888.48
660.0468, 57857.71
660.5289, 57835.69
661.0110, 57812.97
661.4932, 57783.95
661.9753, 57753.70
662.4574, 57734.96
662.9395, 57726.54
663.4216, 57714.33
663.9037, 57680.04
664.3859, 57647.86
664.8680, 57641.80
665.3501, 57668.60
665.8322, 57687.13
666.3143, 57663.63
666.7964, 57644.17
667.2786, 57660.68
667.7607, 57730.33
668.2428, 57794.95
668.7249, 57857.26
669.2070, 57903.05
669.6891, 57895.66
670.1713, 57832.94
670.6534, 57821.04
671.1355, 57903.17
671.6176, 58008.00
672.0997, 58008.70
672.5818, 57934.79
673.0640, 57874.71
673.5461, 57921.29
674.0282, 57958.69
674.5103, 57880.59
674.9924, 57714.97
675.4745, 57590.31
675.9567, 57574.38
676.4388, 57590.25
676.9209, 57616.36
677.4030, 57655.58
677.8851, 57666.51
678.3672, 57620.68
678.8494, 57596.93
679.3315, 57678.97
679.8136, 57866.88
680.2957, 57932.82
680.7778, 57845.38
681.2599, 57729.20
681.7421, 57721.54
682.2242, 57787.80
682.7063, 57851.82
683.1884, 57888.52
683.6705, 57933.99
684.1526, 58059.45
684.6348, 58199.59
685.1169, 58256.07
685.5990, 58075.56
686.0811, 57949.94
686.5632, 57997.83
687.0453, 58150.61
687.5275, 58218.03
688.0096, 58159.68
688.4917, 58110.58
688.9738, 58119.31
689.4559, 58173.08
689.9380, 58197.11
690.4202, 58190.56
690.9023, 58196.20
691.3843, 58268.66
691.8665, 58360.77
692.3486, 58381.34
692.8307, 58326.38
693.3128, 58277.05
693.7949, 58309.32
694.2770, 58352.20
694.7592, 58337.39
695.2413, 58213.00
695.7234, 58144.59
696.2055, 58208.43
696.6876, 58304.12
697.1697, 58345.13
697.6519, 58315.09
698.1340, 58286.50
698.6161, 58267.14
699.0982, 58252.98
699.5803, 58236.23
700.0624, 58218.80
700.5446, 58206.47
701.0267, 58199.96
701.5088, 58202.12
701.9909, 58228.38
702.4730, 58266.59
702.9551, 58285.06
703.4373, 58246.68
703.9194, 58205.86
704.4015, 58190.04
704.8836, 58195.71
705.3657, 58192.86
705.8478, 58159.11
706.3300, 58140.41
706.8121, 58162.29
707.2942, 58223.91
707.7763, 58237.46
708.2584, 58193.96
708.7405, 58150.35
709.2227, 58152.67
709.7048, 58189.62
710.1869, 58232.32
710.6690, 58280.81
711.1511, 58314.66
711.6332, 58307.90
712.1154, 58283.78
712.5975, 58264.54
713.0796, 58246.62
713.5617, 58254.09
714.0438, 58318.34
714.5259, 58399.12
715.0081, 58450.91
715.4902, 58458.72
715.9723, 58461.81
716.4544, 58454.50
716.9365, 58452.54
717.4186, 58501.20
717.9008, 58597.93
718.3829, 58649.18
718.8650, 58602.26
719.3471, 58531.29
719.8292, 58549.68
720.3113, 58634.44
720.7935, 58718.95
721.2756, 58782.27
721.7577, 58825.69
722.2398, 58843.66
722.7219, 58839.67
723.2040, 58832.26
723.6862, 58810.17
724.1683, 58801.52
724.6504, 58820.79
725.1325, 58866.03
725.6146, 58894.45
726.0967, 58904.04
726.5789, 58902.82
727.0610, 58890.86
727.5431, 58872.37
728.0252, 58862.31
728.5073, 58861.52
728.9894, 58862.89
729.4716, 58854.95
729.9537, 58850.40
730.4358, 58866.44
730.9179, 58913.73
731.4000, 58952.91
731.8821, 58962.69
732.3643, 58966.97
732.8464, 58990.34
733.3285, 59057.49
733.8106, 59076.33
734.2927, 59018.70
734.7748, 58949.81
735.2570, 58972.81
735.7391, 59076.22
736.2212, 59148.93
736.7033, 59160.85
737.1854, 59146.50
737.6675, 59137.09
738.1497, 59134.29
738.6318, 59140.93
739.1139, 59195.34
739.5960, 59222.48
740.0781, 59150.07
740.5602, 59029.03
741.0424, 59003.56
741.5245, 59148.60
742.0066, 59281.66
742.4887, 59353.83
742.9708, 59383.89
743.4529, 59450.21
743.9351, 59553.73
744.4172, 59649.77
744.8993, 59713.04
745.3814, 59751.38
745.8635, 59764.83
746.3456, 59759.86
746.8278, 59783.35
747.3099, 59906.69
747.7920, 60030.67
748.2741, 60091.34
748.7562, 60082.82
749.2383, 60045.93
749.7204, 59964.79
750.2025, 59886.84
750.6846, 59843.95
751.1667, 59845.11
751.6489, 59799.41
752.1310, 59695.83
752.6131, 59606.80
753.0952, 59607.53
753.5773, 59673.00
754.0594, 59731.45
754.5416, 59774.95
755.0237, 59816.73
755.5058, 59866.64
755.9879, 59917.18
756.4700, 59963.35
756.9521, 60010.09
757.4343, 60030.43
757.9164, 60003.94
758.3985, 59957.21
758.8806, 59911.38
759.3627, 59865.21
759.8448, 59829.64
760.3270, 59808.29
760.8091, 59799.20
761.2912, 59806.46
761.7733, 59827.06
762.2554, 59841.92
762.7375, 59845.84
763.2197, 59849.97
763.7018, 59861.25
764.1839, 59881.01
764.6660, 59910.79
765.1481, 59930.38
765.6302, 59982.85
766.1124, 60100.65
766.5945, 60249.24
767.0766, 60358.04
767.5587, 60415.00
768.0408, 60458.06
768.5229, 60487.74
769.0051, 60513.47
769.4872, 60559.04
769.9693, 60622.50
770.4514, 60696.95
770.9335, 60810.45
771.4156, 60907.86
771.8978, 60929.67
772.3799, 60890.86
772.8620, 60843.22
773.3441, 60762.59
773.8262, 60723.41
774.3083, 60785.20
774.7905, 60926.01
775.2726, 60979.20
775.7547, 60917.84
776.2368, 60855.86
776.7189, 60846.41
777.2010, 60879.76
777.6832, 60916.67
778.1653, 60958.27
778.6474, 61011.65
779.1295, 61088.09
779.6116, 61173.01
780.0938, 61252.87
780.5759, 61324.97
781.0580, 61396.15
781.5401, 61485.13
782.0222, 61554.80
782.5043, 61579.60
782.9865, 61552.21
783.4686, 61548.75
783.9507, 61566.27
784.4328, 61615.72
784.9149, 61726.89
785.3970, 61880.88
785.8792, 61989.36
786.3613, 62050.33
786.8434, 62104.71
787.3255, 62169.82
787.8076, 62254.25
788.2897, 62382.04
788.7719, 62572.09
789.2540, 62714.35
789.7361, 62717.14
790.2182, 62712.28
790.7003, 62780.52
791.1824, 62936.09
791.6646, 63111.06
792.1467, 63308.35
792.6288, 63508.73
793.1109, 63703.32
793.5930, 63884.73
794.0751, 64036.55
794.5573, 64153.00
795.0394, 64251.77
795.5215, 64331.13
796.0036, 64405.88
796.4857, 64491.76
796.9678, 64593.56
797.4500, 64705.88
797.9321, 64845.51
798.4142, 64984.59
798.8963, 65094.81
799.3784, 65172.44
799.8605, 65257.80
800.3427, 65356.36
800.8248, 65459.14
801.3069, 65552.86
801.7890, 65643.09
802.2711, 65746.68
802.7532, 65873.60
803.2354, 65993.58
803.7175, 66087.53
804.1996, 66165.49
804.6817, 66240.06
805.1638, 66328.88
805.6459, 66391.23
806.1281, 66423.45
806.6102, 66431.73
807.0923, 66408.47
807.5743, 66352.50
808.0565, 66358.11
808.5386, 66458.27
809.0207, 66570.91
809.5028, 66561.91
809.9849, 66492.52
810.4670, 66489.01
810.9492, 66662.96
811.4313, 66785.11
811.9134, 66690.13
812.3955, 66509.75
812.8776, 66448.92
813.3597, 66613.05
813.8419, 66681.13
814.3240, 66588.18
814.8061, 66427.69
815.2882, 66353.85
815.7703, 66357.24
816.2524, 66364.57
816.7346, 66362.56
817.2167, 66344.99
817.6988, 66294.32
818.1809, 66226.56
818.6630, 66168.45
819.1451, 66138.45
819.6273, 66108.26
820.1094, 66070.74
820.5915, 66032.10
821.0736, 66002.43
821.5557, 65986.34
822.0378, 65961.47
822.5200, 65917.73
823.0021, 65875.58
823.4842, 65874.47
823.9663, 65904.03
824.4484, 65932.84
824.9305, 65957.74
825.4127, 65964.04
825.8948, 65919.59
826.3769, 65853.20
826.8590, 65812.52
827.3411, 65799.14
827.8232, 65828.63
828.3054, 65943.31
828.7875, 66068.70
829.2696, 66034.41
829.7517, 65833.02
830.2338, 65717.83
830.7159, 65776.78
831.1981, 65883.18
831.6802, 65868.17
832.1623, 65773.41
832.6444, 65680.77
833.1265, 65622.91
833.6086, 65570.66
834.0908, 65523.50
834.5729, 65473.58
835.0550, 65402.33
835.5371, 65286.84
836.0192, 65213.86
836.5013, 65208.43
836.9835, 65229.39
837.4656, 65195.09
837.9477, 65119.76
838.4298, 65073.45
838.9119, 65095.70
839.3940, 65111.19
839.8762, 65049.43
840.3583, 64939.67
840.8404, 64826.68
841.3225, 64680.96
841.8046, 64594.70
842.2867, 64617.21
842.7689, 64670.23
843.2510, 64610.61
843.7331, 64420.93
844.2152, 64337.67
844.6973, 64433.74
845.1794, 64566.56
845.6616, 64529.76
846.1437, 64387.51
846.6258, 64263.19
847.1079, 64200.42
847.5900, 64149.05
848.0721, 64110.61
848.5543, 64061.17
849.0364, 63963.39
849.5185, 63773.47
850.0006, 63652.49
850.4827, 63636.70
850.9648, 63650.40
851.4470, 63560.72
851.9291, 63402.84
852.4112, 63344.76
852.8933, 63451.49
853.3754, 63546.43
853.8575, 63451.22
854.3397, 63276.12
854.8218, 63148.43
855.3039, 63103.47
855.7860, 63098.66
856.2681, 63148.57
856.7502, 63215.11
857.2324, 63260.33
857.7145, 63282.53
858.1966, 63295.36
858.6787, 63295.92
859.1608, 63303.92
859.6429, 63358.40
860.1251, 63425.80
860.6072, 63452.70
861.0893, 63415.95
861.5714, 63383.40
862.0535, 63387.28
862.5356, 63400.04
863.0178, 63396.46
863.4999, 63364.57
863.9820, 63362.09
864.4641, 63398.01
864.9462, 63434.95
865.4283, 63435.96
865.9104, 63410.36
866.3925, 63378.96
866.8746, 63344.23
867.3568, 63312.99
867.8389, 63300.11
868.3210, 63288.21
868.8031, 63255.04
869.2852, 63181.29
869.7673, 63175.93
870.2495, 63275.57
870.7316, 63384.32
871.2137, 63441.96
871.6958, 63452.96
872.1779, 63454.26
872.6600, 63446.25
873.1422, 63432.45
873.6243, 63385.80
874.1064, 63353.17
874.5885, 63396.19
875.0706, 63516.82
875.5527, 63608.43
876.0349, 63608.85
876.5170, 63612.84
876.9991, 63657.40
877.4812, 63738.34
877.9633, 63803.53
878.4454, 63851.86
878.9276, 63902.42
879.4097, 63977.73
879.8918, 64056.46
880.3739, 64097.64
880.8560, 64111.30
881.3381, 64142.64
881.8203, 64220.40
882.3024, 64312.17
882.7845, 64430.33
883.2666, 64554.11
883.7487, 64584.40
884.2308, 64490.15
884.7130, 64447.09
885.1951, 64544.34
885.6772, 64700.58
886.1593, 64744.10
886.6414, 64706.54
887.1235, 64688.70
887.6057, 64774.71
888.0878, 64852.82
888.5699, 64852.52
889.0520, 64808.41
889.5341, 64800.18
890.0162, 64836.38
890.4984, 64896.34
890.9805, 64981.43
891.4626, 65082.35
891.9447, 65196.50
892.4268, 65312.79
892.9089, 65386.58
893.3911, 65378.79
893.8732, 65379.73
894.3553, 65482.28
894.8374, 65620.62
895.3195, 65708.71
895.8016, 65696.14
896.2838, 65685.70
896.7659, 65685.64
897.2480, 65678.02
897.7301, 65637.69
898.2122, 65570.16
898.6943, 65505.73
899.1765, 65450.04
899.6586, 65401.51
900.1407, 65363.42
900.6228, 65333.29
901.1049, 65307.11
901.5870, 65281.17
902.0692, 65280.05
902.5513, 65324.25
903.0334, 65371.25
903.5155, 65394.15
903.9976, 65392.21
904.4797, 65371.88
904.9619, 65330.32
905.4440, 65317.70
905.9261, 65411.06
906.4082, 65528.08
906.8903, 65566.45
907.3724, 65524.17
907.8546, 65504.93
908.3367, 65598.72
908.8188, 65653.73
909.3009, 65586.81
909.7830, 65426.83
910.2651, 65396.07
910.7473, 65499.71
911.2294, 65608.68
911.7115, 65665.63
912.1936, 65687.69
912.6757, 65675.30
913.1578, 65645.87
913.6400, 65650.94
914.1221, 65756.09
914.6042, 65843.26
915.0863, 65892.73
915.5684, 65899.17
916.0505, 65835.94
916.5327, 65693.76
917.0148, 65572.65
917.4969, 65502.57
917.9790, 65448.95
918.4611, 65340.88
918.9432, 65220.50
919.4254, 65168.63
919.9075, 65252.25
920.3896, 65331.74
920.8717, 65367.56
921.3538, 65373.99
921.8359, 65357.83
922.3181, 65309.35
922.8002, 65288.17
923.2823, 65303.64
923.7643, 65306.59
924.2465, 65197.39
924.7286, 65055.91
925.2107, 65046.52
925.6928, 65204.39
926.1749, 65305.49
926.6570, 65189.46
927.1392, 65042.78
927.6213, 64982.54
928.1034, 65015.88
928.5855, 65028.84
929.0676, 65027.00
929.5497, 64979.24
930.0319, 64838.43
930.5140, 64652.93
930.9961, 64496.80
931.4782, 64370.93
931.9603, 64278.08
932.4424, 64219.20
932.9246, 64191.97
933.4067, 64229.33
933.8888, 64294.65
934.3709, 64264.90
934.8530, 64120.18
935.3351, 63990.70
935.8173, 63912.40
936.2994, 63876.24
936.7815, 63903.56
937.2636, 63959.79
937.7457, 63967.77
938.2278, 63865.12
938.7100, 63762.24
939.1921, 63689.88
939.6742, 63640.62
940.1563, 63607.30
940.6384, 63593.92
941.1205, 63578.55
941.6027, 63559.10
942.0848, 63539.81
942.5669, 63541.47
943.0490, 63540.32
943.5311, 63486.52
944.0132, 63366.15
944.4954, 63260.98
944.9775, 63205.52
945.4596, 63175.60
945.9417, 63161.30
946.4238, 63163.66
946.9059, 63157.55
947.3881, 63142.86
947.8702, 63124.94
948.3523, 63119.75
948.8344, 63106.93
949.3165, 63034.87
949.7986, 62921.89
950.2808, 62845.44
950.7629, 62880.04
951.2450, 62906.11
951.7271, 62877.21
952.2092, 62816.97
952.6913, 62786.27
953.1735, 62785.60
953.6556, 62792.20
954.1377, 62798.15
954.6198, 62811.66
955.1019, 62860.23
955.5840, 62918.64
956.0662, 62945.77
956.5483, 62918.76
957.0304, 62881.18
957.5125, 62833.68
957.9946, 62787.02
958.4767, 62743.86
958.9589, 62703.70
959.4410, 62712.50
959.9231, 62775.69
960.4052, 62845.61
960.8873, 62904.56
961.3694, 62933.84
961.8516, 62882.11
962.3337, 62745.55
962.8158, 62692.76
963.2979, 62831.92
963.7800, 62955.69
964.2621, 62992.72
964.7443, 62954.82
965.2264, 62885.16
965.7085, 62787.71
966.1906, 62700.62
966.6727, 62634.60
967.1548, 62594.04
967.6370, 62594.96
968.1191, 62623.66
968.6012, 62651.39
969.0833, 62676.99
969.5654, 62699.65
970.0475, 62728.82
970.5297, 62741.24
971.0118, 62678.67
971.4939, 62565.35
971.9760, 62511.89
972.4581, 62539.92
972.9402, 62602.42
973.4224, 62705.99
973.9045, 62802.50
974.3866, 62835.91
974.8687, 62779.66
975.3508, 62805.57
975.8329, 62946.50
976.3151, 63074.31
976.7972, 63097.61
977.2793, 63048.41
977.7614, 63014.18
978.2435, 62990.91
978.7256, 62960.07
979.2078, 62870.45
979.6899, 62812.27
980.1720, 62861.68
980.6541, 62968.96
981.1362, 63001.21
981.6183, 62940.37
982.1004, 62896.74
982.5825, 62894.37
983.0646, 62918.59
983.5468, 62994.68
984.0289, 63071.37
984.5110, 63037.12
984.9931, 62803.13
985.4752, 62634.45
985.9573, 62658.33
986.4395, 62740.70
986.9216, 62804.66
987.4037, 62851.79
987.8858, 62845.49
988.3679, 62782.37
988.8500, 62737.23
989.3322, 62793.84
989.8143, 62876.88
990.2964, 62903.87
990.7785, 62879.31
991.2606, 62855.79
991.7427, 62830.81
992.2249, 62832.95
992.7070, 62887.20
993.1891, 62957.72
993.6712, 62925.33
994.1533, 62815.97
994.6354, 62791.80
995.1176, 62947.21
995.5997, 63094.52
996.0818, 63043.14
996.5639, 62927.43
997.0460, 62914.29
997.5281, 63090.93
998.0103, 63177.18
998.4924, 63147.67
998.9745, 63093.29
999.4566, 63079.74
999.9387, 63103.31
1000.421, 63181.02
1000.903, 63303.82
1001.385, 63377.60
1001.867, 63293.19
1002.349, 63204.24
1002.831, 63190.59
1003.314, 63233.20
1003.796, 63264.86
1004.278, 63284.91
1004.760, 63301.03
1005.242, 63313.34
1005.724, 63329.30
1006.206, 63382.95
1006.688, 63441.16
1007.170, 63443.71
1007.653, 63313.14
1008.135, 63250.44
1008.617, 63331.38
1009.099, 63421.98
1009.581, 63387.67
1010.063, 63240.89
1010.545, 63192.23
1011.027, 63244.85
1011.510, 63294.54
1011.992, 63244.53
1012.474, 63177.86
1012.956, 63154.11
1013.438, 63173.68
1013.920, 63207.65
1014.402, 63259.30
1014.884, 63315.15
1015.366, 63389.10
1015.849, 63439.55
1016.331, 63333.00
1016.813, 63141.71
1017.295, 63059.20
1017.777, 63200.09
1018.259, 63332.38
1018.741, 63356.26
1019.223, 63336.30
1019.706, 63328.56
1020.188, 63339.29
1020.670, 63310.53
1021.152, 63235.36
1021.634, 63198.85
1022.116, 63306.86
1022.598, 63462.41
1023.080, 63557.21
1023.562, 63594.43
1024.045, 63627.36
1024.527, 63676.47
1025.009, 63701.97
1025.491, 63676.47
1025.973, 63639.70
1026.455, 63699.38
1026.937, 63828.77
1027.419, 63905.44
1027.901, 63882.90
1028.384, 63845.69
1028.866, 63843.67
1029.348, 63858.53
1029.830, 63879.89
1030.312, 63917.41
1030.794, 63909.14
1031.276, 63848.94
1031.758, 63783.54
1032.240, 63732.91
1032.723, 63707.99
1033.205, 63746.32
1033.687, 63830.39
1034.169, 63888.91
1034.651, 63851.78
1035.133, 63840.76
1035.615, 63892.39
1036.097, 63972.25
1036.580, 64009.18
1037.062, 64008.56
1037.544, 64046.11
1038.026, 64146.64
1038.508, 64218.20
1038.990, 64140.60
1039.472, 64027.22
1039.954, 63986.39
1040.437, 64037.88
1040.919, 64103.68
1041.401, 64206.16
1041.883, 64252.89
1042.365, 64164.39
1042.847, 64011.31
1043.329, 63921.93
1043.811, 63893.26
1044.293, 63913.18
1044.776, 64078.54
1045.258, 64160.56
1045.740, 64054.36
1046.222, 63885.58
1046.704, 63811.24
1047.186, 63828.80
1047.668, 63826.84
1048.150, 63791.71
1048.632, 63765.73
1049.115, 63775.74
1049.597, 63816.74
1050.079, 63895.66
1050.561, 64012.79
1051.043, 64112.46
1051.525, 64195.43
1052.007, 64250.66
1052.489, 64262.84
1052.972, 64259.14
1053.454, 64298.58
1053.936, 64362.11
1054.418, 64405.38
1054.900, 64397.27
1055.382, 64391.73
1055.864, 64385.16
1056.346, 64399.22
1056.828, 64478.72
1057.311, 64622.28
1057.793, 64618.62
1058.275, 64464.76
1058.757, 64334.09
1059.239, 64393.80
1059.721, 64487.27
1060.203, 64488.86
1060.685, 64417.95
1061.167, 64388.23
1061.650, 64426.80
1062.132, 64442.33
1062.614, 64413.80
1063.096, 64365.50
1063.578, 64329.02
1064.060, 64299.18
1064.542, 64264.28
1065.024, 64219.48
1065.507, 64181.28
1065.989, 64153.28
1066.471, 64135.66
1066.953, 64128.55
1067.435, 64132.34
1067.917, 64158.32
1068.399, 64202.79
1068.881, 64231.74
1069.363, 64202.11
1069.846, 64177.30
1070.328, 64194.30
1070.810, 64243.54
1071.292, 64310.18
1071.774, 64404.32
1072.256, 64466.51
1072.738, 64485.89
1073.220, 64495.81
1073.703, 64539.66
1074.185, 64587.65
1074.667, 64600.90
1075.149, 64576.77
1075.631, 64523.93
1076.113, 64399.91
1076.595, 64317.37
1077.077, 64321.27
1077.559, 64374.82
1078.042, 64391.94
1078.524, 64382.82
1079.006, 64380.52
1079.488, 64397.75
1079.970, 64417.44
1080.452, 64444.34
1080.934, 64458.89
1081.416, 64434.06
1081.898, 64362.91
1082.381, 64375.85
1082.863, 64475.53
1083.345, 64582.95
1083.827, 64643.39
1084.309, 64689.34
1084.791, 64763.22
1085.273, 64846.15
1085.755, 64891.00
1086.238, 64879.17
1086.720, 64849.46
1087.202, 64794.96
1087.684, 64748.89
1088.166, 64757.01
1088.648, 64801.30
1089.130, 64854.57
1089.612, 64913.80
1090.094, 64942.30
1090.577, 64882.48
1091.059, 64842.74
1091.541, 64871.50
1092.023, 64944.10
1092.505, 64977.26
1092.987, 64979.23
1093.469, 65014.14
1093.951, 65120.94
1094.433, 65204.96
1094.916, 65173.54
1095.398, 65101.88
1095.880, 65058.54
1096.362, 65042.29
1096.844, 65082.92
1097.326, 65188.98
1097.808, 65269.21
1098.290, 65216.29
1098.773, 65143.48
1099.255, 65228.03
1099.737, 65401.23
1100.219, 65494.61
1100.701, 65418.37
1101.183, 65354.26
1101.665, 65310.19
1102.147, 65292.89
1102.630, 65334.89
1103.112, 65402.86
1103.594, 65412.75
1104.076, 65359.50
1104.558, 65305.05
1105.040, 65251.43
1105.522, 65232.69
1106.004, 65275.84
1106.486, 65349.20
1106.969, 65353.11
1107.451, 65300.89
1107.933, 65295.09
1108.415, 65383.61
1108.897, 65443.36
1109.379, 65355.22
1109.861, 65224.57
1110.343, 65135.08
1110.825, 65089.10
1111.308, 65108.88
1111.790, 65201.94
1112.272, 65278.09
1112.754, 65287.70
1113.236, 65260.97
1113.718, 65202.31
1114.200, 65137.95
1114.682, 65119.30
1115.165, 65173.07
1115.647, 65234.40
1116.129, 65308.20
1116.611, 65364.07
1117.093, 65351.48
1117.575, 65309.40
1118.057, 65331.88
1118.539, 65406.88
1119.021, 65432.09
1119.504, 65300.46
1119.986, 65209.84
1120.468, 65210.30
1120.950, 65264.80
1121.432, 65318.68
1121.914, 65370.27
1122.396, 65412.02
1122.878, 65443.92
1123.360, 65465.28
1123.843, 65480.33
1124.325, 65479.26
1124.807, 65438.96
1125.289, 65377.62
1125.771, 65405.68
1126.253, 65518.91
1126.735, 65651.22
1127.217, 65796.06
1127.699, 65909.98
1128.182, 65932.91
1128.664, 65915.30
1129.146, 65916.88
1129.628, 65943.49
1130.110, 65954.11
1130.592, 65943.07
1131.074, 65944.38
1131.556, 65996.62
1132.039, 66060.86
1132.521, 66090.30
1133.003, 66094.29
1133.485, 66094.63
1133.967, 66103.29
1134.449, 66102.53
1134.931, 66099.71
1135.413, 66073.03
1135.896, 65958.40
1136.378, 65823.98
1136.860, 65819.49
1137.342, 65938.41
1137.824, 66014.68
1138.306, 65965.27
1138.788, 65890.90
1139.270, 65779.05
1139.752, 65691.23
1140.234, 65785.12
1140.717, 65997.44
1141.199, 66137.59
1141.681, 66162.29
1142.163, 66145.96
1142.645, 66106.50
1143.127, 66048.68
1143.609, 65969.12
1144.091, 65876.98
1144.574, 65819.04
1145.056, 65794.34
1145.538, 65790.47
1146.020, 65814.32
1146.502, 65840.74
1146.984, 65842.88
1147.466, 65852.30
1147.948, 65912.30
1148.431, 66035.29
1148.913, 66044.81
1149.395, 65938.32
1149.877, 65857.20
1150.359, 65898.47
1150.841, 65988.16
1151.323, 66083.26
1151.805, 66176.11
1152.287, 66253.13
1152.770, 66303.02
1153.252, 66371.63
1153.734, 66466.05
1154.216, 66543.95
1154.698, 66552.79
1155.180, 66534.67
1155.662, 66538.86
1156.144, 66562.55
1156.626, 66575.36
1157.109, 66586.05
1157.591, 66558.80
1158.073, 66476.93
1158.555, 66390.63
1159.037, 66361.58
1159.519, 66370.95
1160.001, 66389.99
1160.483, 66414.50
1160.966, 66458.01
1161.448, 66566.58
1161.930, 66606.09
1162.412, 66510.55
1162.894, 66357.32
1163.376, 66305.89
1163.858, 66322.09
1164.340, 66330.34
1164.823, 66316.21
1165.305, 66283.81
1165.787, 66215.44
1166.269, 66160.08
1166.751, 66151.71
1167.233, 66174.79
1167.715, 66154.31
1168.197, 66108.67
1168.679, 66106.01
1169.161, 66201.20
1169.644, 66296.04
1170.126, 66357.44
1170.608, 66400.71
1171.090, 66428.27
1171.572, 66440.81
1172.054, 66466.66
1172.536, 66505.39
1173.018, 66564.48
1173.501, 66677.28
1173.983, 66775.97
1174.465, 66835.44
1174.947, 66857.98
1175.429, 66831.17
1175.911, 66756.70
1176.393, 66725.58
1176.875, 66744.69
1177.358, 66774.78
1177.840, 66776.13
1178.322, 66793.26
1178.804, 66894.45
1179.286, 67024.10
1179.768, 67016.41
1180.250, 66863.34
1180.732, 66837.64
1181.214, 66996.48
1181.697, 67157.63
1182.179, 67117.13
1182.661, 67054.11
1183.143, 67153.41
1183.625, 67378.27
1184.107, 67452.41
1184.589, 67360.24
1185.071, 67288.05
1185.553, 67293.31
1186.036, 67302.97
1186.518, 67224.05
1187.000, 67123.38
1187.482, 67078.43
1187.964, 67097.29
1188.446, 67095.11
1188.928, 67070.07
1189.410, 67046.00
1189.892, 67036.66
1190.375, 67028.42
1190.857, 67007.10
1191.339, 66977.33
1191.821, 66937.44
1192.303, 66869.48
1192.785, 66880.88
1193.267, 66988.02
1193.749, 67083.01
1194.232, 67089.97
1194.714, 67061.04
1195.196, 67052.79
1195.678, 67059.80
1196.160, 67073.72
1196.642, 67104.87
1197.124, 67109.95
1197.606, 67081.89
1198.089, 67054.95
1198.571, 67069.93
1199.053, 67093.15
1199.535, 67058.24
1200.017, 66993.46
1200.499, 66989.83
1200.981, 67104.34
1201.463, 67185.64
1201.945, 67219.10
1202.427, 67225.72
1202.910, 67211.96
1203.392, 67191.96
1203.874, 67186.98
1204.356, 67195.38
1204.838, 67199.29
1205.320, 67181.53
1205.802, 67192.79
1206.284, 67246.03
1206.767, 67312.44
1207.249, 67348.45
1207.731, 67377.81
1208.213, 67459.68
1208.695, 67592.57
1209.177, 67626.82
1209.659, 67487.31
1210.141, 67392.07
1210.624, 67393.82
1211.106, 67461.04
1211.588, 67613.12
1212.070, 67769.98
1212.552, 67774.69
1213.034, 67584.68
1213.516, 67514.27
1213.998, 67651.28
1214.480, 67758.20
1214.963, 67745.35
1215.445, 67682.48
1215.927, 67703.61
1216.409, 67753.91
1216.891, 67734.62
1217.373, 67608.40
1217.855, 67501.09
1218.337, 67407.44
1218.819, 67376.28
1219.302, 67453.53
1219.784, 67575.88
1220.266, 67639.76
1220.748, 67659.74
1221.230, 67655.46
1221.712, 67614.08
1222.194, 67596.90
1222.676, 67611.84
1223.159, 67633.05
1223.641, 67643.29
1224.123, 67650.44
1224.605, 67668.25
1225.087, 67693.65
1225.569, 67721.70
1226.051, 67760.47
1226.533, 67780.97
1227.016, 67779.08
1227.498, 67769.52
1227.980, 67745.53
1228.462, 67731.45
1228.944, 67782.91
1229.426, 67876.31
1229.908, 67951.90
1230.390, 67973.03
1230.872, 68034.00
1231.354, 68161.64
1231.837, 68247.24
1232.319, 68136.57
1232.801, 67966.76
1233.283, 67930.02
1233.765, 68005.62
1234.247, 68117.60
1234.729, 68296.84
1235.211, 68382.92
1235.694, 68342.78
1236.176, 68287.49
1236.658, 68344.48
1237.140, 68433.36
1237.622, 68450.63
1238.104, 68404.35
1238.586, 68356.02
1239.068, 68301.53
1239.551, 68284.63
1240.033, 68318.02
1240.515, 68362.71
1240.997, 68386.57
1241.479, 68397.59
1241.961, 68402.16
1242.443, 68403.42
1242.925, 68408.02
1243.407, 68415.48
1243.890, 68432.78
1244.372, 68461.02
1244.854, 68495.44
1245.336, 68538.60
1245.818, 68575.77
1246.300, 68577.58
1246.782, 68549.08
1247.264, 68566.85
1247.746, 68638.30
1248.229, 68684.59
1248.711, 68684.28
1249.193, 68672.20
1249.675, 68690.82
1250.157, 68708.91
1250.639, 68691.14
1251.121, 68646.29
1251.603, 68642.40
##END=



