##NAMES=Mansfieldite
##RRUFFID=R060951
##IDEAL CHEMISTRY=AlAs^5+^O_4_&#183;2H_2_O
##LOCALITY=Pampa Larga Mining District, Chile
##OWNER=RRUFF
##SOURCE=Bob Jenkins
##DESCRIPTION=Sharp pale rose crystals, fairly transparent.
##STATUS=The identification of this mineral is confirmed by single-crystal X-ray diffraction and chemical analysis.
##URL=rruff.info/R060951
##MEASURED CHEMISTRY=(Al_0.89_Fe^3+^_0.11_)_Σ=1_As_1.00_O_4_·2H_2_O; trace amounts of P, Mn, Ca, Na; H_2_O estimated by difference
177.9357, 4983.930
178.4178, 5012.927
178.8999, 5046.810
179.3820, 5088.515
179.8641, 5132.114
180.3463, 5170.494
180.8284, 5205.239
181.3105, 5250.188
181.7926, 5319.679
182.2747, 5403.174
182.7568, 5466.010
183.2390, 5494.933
183.7211, 5517.096
184.2032, 5549.133
184.6853, 5590.399
185.1674, 5636.607
185.6495, 5690.243
186.1317, 5744.995
186.6138, 5786.200
187.0959, 5806.483
187.5780, 5821.965
188.0601, 5842.664
188.5422, 5868.214
189.0244, 5896.953
189.5065, 5929.184
189.9886, 5963.544
190.4707, 5996.972
190.9528, 6031.901
191.4349, 6062.497
191.9170, 6082.420
192.3992, 6092.689
192.8813, 6102.257
193.3634, 6113.151
193.8455, 6127.168
194.3276, 6145.975
194.8097, 6169.245
195.2919, 6198.084
195.7740, 6233.154
196.2561, 6274.473
196.7382, 6323.102
197.2203, 6385.024
197.7024, 6450.526
198.1846, 6505.151
198.6667, 6548.146
199.1488, 6581.859
199.6309, 6601.022
200.1130, 6608.723
200.5951, 6628.057
201.0773, 6675.162
201.5594, 6730.910
202.0415, 6768.500
202.5236, 6785.469
203.0057, 6793.052
203.4878, 6800.293
203.9700, 6805.311
204.4521, 6797.666
204.9342, 6773.350
205.4163, 6734.360
205.8984, 6686.501
206.3805, 6629.677
206.8627, 6565.259
207.3448, 6489.236
207.8269, 6404.915
208.3090, 6327.281
208.7911, 6266.364
209.2732, 6205.562
209.7554, 6122.594
210.2375, 6016.079
210.7196, 5912.373
211.2017, 5824.119
211.6838, 5749.862
212.1659, 5686.414
212.6480, 5636.103
213.1302, 5592.825
213.6123, 5550.229
214.0944, 5508.161
214.5765, 5469.799
215.0586, 5436.331
215.5407, 5407.648
216.0229, 5383.910
216.5050, 5367.078
216.9871, 5351.644
217.4692, 5331.959
217.9513, 5308.849
218.4334, 5286.332
218.9156, 5263.490
219.3977, 5242.842
219.8798, 5231.185
220.3619, 5232.012
220.8440, 5234.011
221.3261, 5227.572
221.8083, 5214.224
222.2904, 5197.113
222.7725, 5171.660
223.2546, 5144.771
223.7367, 5130.371
224.2188, 5132.366
224.7010, 5131.985
225.1831, 5104.140
225.6652, 5060.500
226.1473, 5035.815
226.6294, 5057.515
227.1115, 5092.063
227.5937, 5096.564
228.0758, 5067.670
228.5579, 5033.683
229.0400, 5011.993
229.5221, 4999.700
230.0042, 4989.086
230.4864, 4981.644
230.9685, 4973.663
231.4506, 4959.701
231.9327, 4940.037
232.4148, 4923.361
232.8969, 4912.795
233.3791, 4910.161
233.8612, 4917.735
234.3433, 4944.154
234.8254, 4970.874
235.3075, 4985.398
235.7896, 4988.710
236.2717, 4985.841
236.7539, 4974.703
237.2360, 4962.193
237.7181, 4964.272
238.2002, 4991.553
238.6823, 5013.238
239.1644, 5005.007
239.6466, 4976.836
240.1287, 4961.497
240.6108, 4974.295
241.0929, 5001.161
241.5750, 5016.449
242.0571, 5019.881
242.5393, 5016.580
243.0214, 5001.575
243.5035, 4981.956
243.9856, 4973.386
244.4677, 4982.395
244.9498, 4997.053
245.4320, 4998.189
245.9141, 4984.408
246.3962, 4970.391
246.8783, 4956.304
247.3604, 4944.782
247.8425, 4941.798
248.3247, 4949.036
248.8068, 4956.122
249.2889, 4948.014
249.7710, 4920.533
250.2531, 4908.512
250.7352, 4926.326
251.2174, 4953.147
251.6995, 4973.032
252.1816, 4983.676
252.6637, 4985.328
253.1458, 4974.428
253.6279, 4949.425
254.1101, 4943.783
254.5922, 4980.483
255.0743, 5015.911
255.5564, 5018.241
256.0385, 4993.114
256.5206, 4970.797
257.0027, 4974.370
257.4849, 5001.076
257.9670, 5009.991
258.4491, 4980.961
258.9312, 4959.219
259.4133, 4972.172
259.8954, 5004.487
260.3776, 5020.335
260.8597, 4998.572
261.3418, 4951.652
261.8239, 4928.435
262.3060, 4949.871
262.7881, 4968.909
263.2703, 4977.183
263.7524, 4980.085
264.2345, 4986.127
264.7166, 4998.657
265.1987, 5011.787
265.6808, 5012.836
266.1630, 4983.405
266.6451, 4968.357
267.1272, 4982.449
267.6093, 5001.541
268.0914, 5001.083
268.5735, 4977.388
269.0557, 4950.045
269.5378, 4946.880
270.0199, 4982.699
270.5020, 5001.792
270.9841, 4991.458
271.4662, 4978.410
271.9484, 4978.277
272.4305, 4990.700
272.9126, 5005.692
273.3947, 5014.602
273.8768, 5017.321
274.3589, 5014.376
274.8411, 4996.693
275.3232, 4982.073
275.8053, 4974.431
276.2874, 4974.109
276.7695, 4981.291
277.2516, 4997.289
277.7338, 5020.179
278.2159, 5038.457
278.6980, 5051.635
279.1801, 5060.049
279.6622, 5061.661
280.1443, 5059.763
280.6265, 5057.639
281.1086, 5056.462
281.5907, 5057.146
282.0728, 5062.401
282.5549, 5074.760
283.0370, 5085.064
283.5192, 5093.982
284.0013, 5098.662
284.4834, 5092.603
284.9655, 5074.542
285.4476, 5059.311
285.9297, 5068.098
286.4119, 5103.799
286.8940, 5130.804
287.3761, 5133.390
287.8582, 5135.001
288.3403, 5154.253
288.8224, 5189.604
289.3046, 5222.188
289.7867, 5230.548
290.2688, 5222.386
290.7509, 5238.373
291.2330, 5295.769
291.7151, 5352.478
292.1972, 5372.808
292.6794, 5369.202
293.1615, 5374.090
293.6436, 5406.917
294.1257, 5453.433
294.6078, 5490.150
295.0899, 5515.222
295.5721, 5541.853
296.0542, 5578.612
296.5363, 5622.301
297.0184, 5665.696
297.5005, 5710.440
297.9826, 5751.700
298.4648, 5782.502
298.9469, 5804.873
299.4290, 5832.388
299.9111, 5872.873
300.3932, 5919.456
300.8753, 5958.048
301.3575, 5986.582
301.8396, 6013.716
302.3217, 6044.910
302.8038, 6076.072
303.2859, 6097.961
303.7680, 6107.126
304.2502, 6113.811
304.7323, 6132.636
305.2144, 6167.386
305.6965, 6198.971
306.1786, 6230.775
306.6607, 6255.993
307.1429, 6264.663
307.6250, 6258.077
308.1071, 6252.056
308.5892, 6262.187
309.0713, 6290.035
309.5534, 6298.930
310.0356, 6274.312
310.5177, 6249.521
310.9998, 6241.778
311.4819, 6243.630
311.9640, 6237.400
312.4461, 6212.388
312.9283, 6173.888
313.4104, 6142.790
313.8925, 6127.919
314.3746, 6110.076
314.8567, 6080.142
315.3388, 6050.417
315.8210, 6037.556
316.3031, 6045.460
316.7852, 6057.685
317.2673, 6046.653
317.7494, 6000.529
318.2315, 5961.926
318.7137, 5933.279
319.1958, 5910.749
319.6779, 5895.131
320.1600, 5884.694
320.6421, 5874.172
321.1242, 5858.187
321.6064, 5836.971
322.0885, 5818.767
322.5706, 5801.265
323.0527, 5790.252
323.5348, 5788.066
324.0169, 5793.065
324.4991, 5803.031
324.9812, 5818.421
325.4633, 5836.213
325.9454, 5852.008
326.4275, 5866.534
326.9096, 5875.251
327.3918, 5868.049
327.8739, 5858.343
328.3560, 5860.479
328.8381, 5877.964
329.3202, 5901.145
329.8023, 5923.278
330.2845, 5944.769
330.7666, 5970.042
331.2487, 6005.729
331.7308, 6036.396
332.2129, 6038.939
332.6950, 6014.892
333.1772, 5996.967
333.6593, 6004.845
334.1414, 6019.696
334.6235, 6016.034
335.1056, 5991.275
335.5877, 5960.870
336.0698, 5936.533
336.5519, 5917.731
337.0341, 5894.982
337.5162, 5861.209
337.9983, 5830.734
338.4804, 5811.688
338.9625, 5801.417
339.4446, 5794.473
339.9268, 5788.840
340.4089, 5782.626
340.8910, 5770.541
341.3731, 5740.296
341.8552, 5720.333
342.3373, 5721.979
342.8195, 5728.558
343.3016, 5724.374
343.7837, 5706.309
344.2658, 5681.422
344.7479, 5657.631
345.2300, 5634.735
345.7122, 5614.124
346.1943, 5596.494
346.6764, 5580.312
347.1585, 5565.841
347.6406, 5552.477
348.1227, 5539.009
348.6049, 5524.373
349.0870, 5509.215
349.5691, 5495.997
350.0512, 5485.416
350.5333, 5475.724
351.0154, 5466.775
351.4976, 5458.239
351.9797, 5449.965
352.4618, 5442.016
352.9439, 5433.620
353.4260, 5421.279
353.9081, 5404.865
354.3903, 5398.955
354.8724, 5416.668
355.3545, 5434.037
355.8366, 5429.101
356.3187, 5403.972
356.8008, 5378.423
357.2830, 5361.068
357.7651, 5349.469
358.2472, 5339.526
358.7293, 5331.034
359.2114, 5323.977
359.6935, 5317.032
360.1757, 5311.797
360.6578, 5313.208
361.1399, 5330.114
361.6220, 5345.111
362.1041, 5348.214
362.5862, 5342.261
363.0684, 5333.328
363.5505, 5323.339
364.0326, 5313.469
364.5147, 5305.615
364.9968, 5296.870
365.4789, 5296.532
365.9611, 5315.573
366.4432, 5336.274
366.9253, 5339.823
367.4074, 5326.953
367.8895, 5316.142
368.3716, 5325.592
368.8538, 5356.502
369.3359, 5382.528
369.8180, 5401.959
370.3001, 5418.113
370.7822, 5432.029
371.2643, 5443.001
371.7465, 5448.039
372.2286, 5444.984
372.7107, 5440.829
373.1928, 5453.053
373.6749, 5491.018
374.1570, 5517.642
374.6392, 5511.694
375.1213, 5502.930
375.6034, 5511.243
376.0855, 5537.657
376.5676, 5567.653
377.0497, 5590.434
377.5319, 5607.411
378.0140, 5623.244
378.4961, 5635.702
378.9782, 5652.841
379.4603, 5685.426
379.9424, 5726.473
380.4246, 5762.787
380.9066, 5795.047
381.3888, 5817.985
381.8709, 5815.634
382.3530, 5795.650
382.8351, 5799.463
383.3172, 5849.459
383.7993, 5922.430
384.2815, 5971.125
384.7636, 5990.037
385.2457, 6007.239
385.7278, 6018.817
386.2099, 6036.074
386.6920, 6077.761
387.1742, 6142.448
387.6563, 6202.649
388.1384, 6231.343
388.6205, 6227.033
389.1026, 6236.056
389.5847, 6264.622
390.0669, 6298.526
390.5490, 6333.879
391.0311, 6372.327
391.5132, 6417.689
391.9953, 6471.818
392.4774, 6530.379
392.9596, 6587.907
393.4417, 6650.646
393.9238, 6693.971
394.4059, 6690.168
394.8880, 6686.224
395.3701, 6710.766
395.8523, 6761.904
396.3344, 6816.958
396.8165, 6864.418
397.2986, 6903.387
397.7807, 6927.787
398.2628, 6933.505
398.7450, 6937.369
399.2271, 6948.796
399.7092, 6964.241
400.1913, 6978.756
400.6734, 6993.593
401.1555, 7003.576
401.6377, 6997.253
402.1198, 6982.808
402.6019, 6985.428
403.0840, 7014.433
403.5661, 7054.681
404.0482, 7087.447
404.5304, 7112.080
405.0125, 7132.120
405.4946, 7145.217
405.9767, 7155.936
406.4588, 7166.341
406.9409, 7177.051
407.4231, 7188.459
407.9052, 7200.678
408.3873, 7214.300
408.8694, 7232.094
409.3515, 7259.009
409.8336, 7283.450
410.3158, 7297.436
410.7979, 7312.667
411.2800, 7343.045
411.7621, 7389.593
412.2442, 7436.678
412.7263, 7463.520
413.2085, 7468.749
413.6906, 7490.254
414.1727, 7537.608
414.6548, 7588.656
415.1369, 7635.562
415.6190, 7677.690
416.1012, 7712.824
416.5833, 7736.607
417.0654, 7758.318
417.5475, 7789.757
418.0296, 7830.188
418.5117, 7868.767
418.9939, 7900.742
419.4760, 7930.985
419.9581, 7969.893
420.4402, 8020.312
420.9223, 8057.875
421.4044, 8067.844
421.8866, 8068.202
422.3687, 8079.190
422.8508, 8100.044
423.3329, 8112.997
423.8150, 8102.726
424.2971, 8074.116
424.7793, 8063.866
425.2614, 8105.709
425.7435, 8124.118
426.2256, 8093.384
426.7077, 8042.532
427.1898, 8001.469
427.6719, 7977.854
428.1541, 7959.079
428.6362, 7929.640
429.1183, 7888.234
429.6004, 7848.133
430.0825, 7817.728
430.5646, 7777.797
431.0468, 7714.895
431.5289, 7638.124
432.0110, 7563.898
432.4931, 7497.810
432.9752, 7438.816
433.4573, 7388.161
433.9395, 7345.214
434.4216, 7299.768
434.9037, 7245.917
435.3858, 7191.695
435.8679, 7150.984
436.3500, 7124.972
436.8322, 7090.762
437.3143, 7033.205
437.7964, 6971.152
438.2785, 6925.866
438.7606, 6895.632
439.2427, 6858.816
439.7249, 6798.107
440.2070, 6722.746
440.6891, 6676.613
441.1712, 6695.044
441.6533, 6698.227
442.1354, 6674.049
442.6176, 6635.646
443.0997, 6588.230
443.5818, 6536.294
444.0639, 6493.297
444.5460, 6476.315
445.0281, 6485.131
445.5103, 6486.723
445.9924, 6477.301
446.4745, 6465.962
446.9566, 6460.320
447.4387, 6453.992
447.9208, 6436.147
448.4030, 6400.460
448.8851, 6362.907
449.3672, 6339.474
449.8493, 6328.257
450.3314, 6318.642
450.8135, 6306.378
451.2957, 6300.499
451.7778, 6314.235
452.2599, 6347.268
452.7420, 6376.862
453.2241, 6395.803
453.7062, 6415.216
454.1884, 6441.814
454.6705, 6474.708
455.1526, 6511.117
455.6347, 6549.818
456.1168, 6590.400
456.5989, 6631.810
457.0811, 6673.055
457.5632, 6717.388
458.0453, 6770.982
458.5274, 6821.513
459.0095, 6862.140
459.4916, 6892.979
459.9738, 6916.281
460.4559, 6929.862
460.9380, 6939.937
461.4201, 6972.169
461.9022, 7039.656
462.3843, 7078.714
462.8665, 7058.856
463.3486, 7003.576
463.8307, 6934.725
464.3128, 6853.131
464.7949, 6766.302
465.2770, 6672.034
465.7592, 6577.979
466.2413, 6498.244
466.7234, 6433.771
467.2055, 6370.876
467.6876, 6299.082
468.1697, 6220.341
468.6519, 6148.425
469.1340, 6086.533
469.6161, 6026.046
470.0982, 5966.056
470.5803, 5906.175
471.0624, 5839.894
471.5445, 5768.817
472.0266, 5710.410
472.5088, 5688.529
472.9909, 5703.844
473.4730, 5693.343
473.9551, 5635.570
474.4372, 5582.693
474.9193, 5554.326
475.4015, 5539.721
475.8836, 5525.704
476.3657, 5508.695
476.8478, 5491.788
477.3299, 5476.696
477.8120, 5463.869
478.2942, 5456.199
478.7763, 5455.291
479.2584, 5455.608
479.7405, 5453.723
480.2226, 5449.111
480.7047, 5438.341
481.1869, 5410.403
481.6690, 5388.039
482.1511, 5384.863
482.6332, 5393.335
483.1153, 5400.332
483.5974, 5401.433
484.0796, 5401.835
484.5617, 5408.725
485.0438, 5422.524
485.5259, 5440.979
486.0080, 5479.008
486.4901, 5506.329
486.9723, 5503.389
487.4544, 5484.361
487.9365, 5473.489
488.4186, 5481.017
488.9007, 5499.728
489.3828, 5525.373
489.8650, 5556.857
490.3471, 5575.500
490.8292, 5571.802
491.3113, 5564.274
491.7934, 5575.463
492.2755, 5602.255
492.7577, 5620.003
493.2398, 5620.016
493.7219, 5614.837
494.2040, 5604.995
494.6861, 5596.804
495.1682, 5606.829
495.6504, 5642.086
496.1325, 5688.073
496.6146, 5720.863
497.0967, 5738.640
497.5788, 5747.638
498.0609, 5742.111
498.5431, 5734.138
499.0252, 5725.104
499.5073, 5717.894
499.9894, 5719.651
500.4715, 5737.381
500.9536, 5754.372
501.4358, 5736.802
501.9179, 5684.477
502.4000, 5653.495
502.8821, 5663.260
503.3642, 5687.331
503.8463, 5703.262
504.3285, 5711.551
504.8106, 5711.006
505.2927, 5698.186
505.7748, 5679.397
506.2569, 5652.549
506.7390, 5623.445
507.2212, 5609.085
507.7033, 5616.829
508.1854, 5631.129
508.6675, 5625.040
509.1496, 5590.652
509.6317, 5559.356
510.1139, 5527.844
510.5960, 5502.664
511.0781, 5487.922
511.5602, 5481.251
512.0423, 5480.318
512.5244, 5486.731
513.0065, 5488.727
513.4886, 5463.651
513.9708, 5412.801
514.4529, 5374.364
514.9350, 5360.359
515.4171, 5352.672
515.8992, 5331.439
516.3813, 5299.497
516.8635, 5276.810
517.3456, 5273.535
517.8277, 5272.710
518.3098, 5270.652
518.7919, 5262.824
519.2740, 5238.979
519.7562, 5195.683
520.2383, 5142.874
520.7204, 5092.220
521.2025, 5040.638
521.6846, 5007.233
522.1667, 5009.240
522.6489, 5012.593
523.1310, 5012.770
523.6131, 5006.003
524.0952, 4985.302
524.5773, 4946.392
525.0594, 4904.019
525.5416, 4877.542
526.0237, 4862.486
526.5058, 4834.480
526.9879, 4785.655
527.4700, 4738.716
527.9521, 4712.972
528.4343, 4706.792
528.9164, 4698.014
529.3985, 4694.582
529.8806, 4679.391
530.3627, 4640.272
530.8448, 4589.022
531.3270, 4535.329
531.8091, 4484.028
532.2912, 4445.821
532.7733, 4436.293
533.2554, 4454.475
533.7375, 4453.308
534.2197, 4422.261
534.7018, 4388.948
535.1839, 4355.387
535.6660, 4327.690
536.1481, 4316.137
536.6302, 4323.602
537.1124, 4328.684
537.5945, 4315.020
538.0766, 4290.226
538.5587, 4267.070
539.0408, 4246.714
539.5229, 4230.491
540.0051, 4221.742
540.4872, 4215.906
540.9693, 4196.729
541.4514, 4141.644
541.9335, 4105.525
542.4156, 4106.865
542.8978, 4115.971
543.3799, 4110.804
543.8620, 4091.890
544.3441, 4071.549
544.8262, 4057.859
545.3083, 4049.162
545.7905, 4042.219
546.2726, 4037.923
546.7547, 4029.775
547.2368, 4011.760
547.7189, 3993.726
548.2010, 3988.019
548.6832, 3993.576
549.1653, 3993.392
549.6474, 3979.520
550.1295, 3961.194
550.6116, 3942.263
551.0938, 3924.789
551.5759, 3912.783
552.0580, 3907.868
552.5401, 3909.271
553.0222, 3917.462
553.5043, 3936.745
553.9865, 3945.556
554.4686, 3933.277
554.9507, 3921.169
555.4328, 3918.102
555.9149, 3918.758
556.3970, 3913.189
556.8792, 3896.922
557.3613, 3881.980
557.8434, 3884.037
558.3255, 3897.280
558.8076, 3899.621
559.2897, 3886.453
559.7719, 3876.468
560.2540, 3886.024
560.7361, 3910.696
561.2182, 3922.791
561.7003, 3919.653
562.1824, 3909.376
562.6646, 3886.557
563.1467, 3861.552
563.6288, 3844.622
564.1109, 3835.825
564.5930, 3826.993
565.0751, 3809.955
565.5573, 3789.674
566.0394, 3786.708
566.5215, 3806.681
567.0036, 3819.087
567.4857, 3811.765
567.9678, 3796.614
568.4500, 3784.452
568.9321, 3775.368
569.4142, 3772.172
569.8963, 3782.548
570.3784, 3793.166
570.8605, 3790.177
571.3427, 3779.071
571.8248, 3775.733
572.3069, 3786.359
572.7890, 3800.971
573.2711, 3803.532
573.7532, 3790.487
574.2354, 3784.381
574.7175, 3794.507
575.1996, 3800.601
575.6817, 3794.312
576.1638, 3780.699
576.6459, 3764.286
577.1281, 3744.838
577.6102, 3733.437
578.0923, 3746.924
578.5744, 3772.964
579.0565, 3783.802
579.5386, 3776.628
580.0208, 3764.980
580.5029, 3756.651
580.9850, 3751.265
581.4671, 3747.369
581.9492, 3742.557
582.4313, 3742.798
582.9134, 3758.134
583.3955, 3770.115
583.8776, 3761.098
584.3597, 3736.980
584.8419, 3718.310
585.3240, 3717.852
585.8061, 3726.066
586.2882, 3727.073
586.7703, 3721.035
587.2524, 3713.226
587.7346, 3703.559
588.2167, 3695.136
588.6988, 3690.267
589.1809, 3689.286
589.6630, 3693.749
590.1451, 3711.745
590.6273, 3725.825
591.1094, 3727.300
591.5915, 3722.466
592.0736, 3719.188
592.5557, 3718.944
593.0378, 3718.166
593.5200, 3713.382
594.0021, 3705.157
594.4842, 3695.664
594.9663, 3682.677
595.4484, 3676.045
595.9305, 3683.007
596.4127, 3694.878
596.8948, 3700.512
597.3769, 3699.532
597.8590, 3703.040
598.3411, 3722.103
598.8232, 3739.958
599.3054, 3742.716
599.7875, 3733.784
600.2696, 3720.695
600.7517, 3706.529
601.2338, 3695.400
601.7159, 3694.479
602.1981, 3705.433
602.6802, 3713.427
603.1623, 3720.219
603.6444, 3721.321
604.1265, 3707.815
604.6086, 3691.441
605.0908, 3689.491
605.5729, 3707.224
606.0550, 3721.302
606.5371, 3711.238
607.0192, 3694.072
607.5013, 3696.635
607.9835, 3716.645
608.4656, 3730.721
608.9477, 3726.127
609.4298, 3708.270
609.9119, 3687.728
610.3940, 3657.141
610.8762, 3641.768
611.3583, 3657.157
611.8404, 3672.359
612.3225, 3671.530
612.8046, 3662.444
613.2867, 3660.939
613.7689, 3673.961
614.2510, 3688.271
614.7331, 3690.471
615.2152, 3686.186
615.6973, 3689.451
616.1794, 3701.785
616.6616, 3711.017
617.1437, 3707.645
617.6258, 3696.250
618.1079, 3694.492
618.5900, 3715.673
619.0721, 3724.932
619.5543, 3710.719
620.0364, 3694.800
620.5185, 3691.877
621.0006, 3697.999
621.4827, 3699.961
621.9648, 3690.069
622.4470, 3677.980
622.9291, 3676.402
623.4112, 3682.118
623.8933, 3682.245
624.3754, 3673.995
624.8575, 3665.276
625.3397, 3662.252
625.8218, 3664.392
626.3039, 3667.836
626.7860, 3676.109
627.2681, 3680.953
627.7502, 3679.521
628.2324, 3676.399
628.7145, 3676.905
629.1966, 3679.203
629.6787, 3674.598
630.1608, 3653.032
630.6429, 3631.128
631.1251, 3639.660
631.6072, 3672.190
632.0893, 3689.164
632.5714, 3680.239
633.0535, 3662.955
633.5356, 3652.522
634.0178, 3648.410
634.4999, 3642.272
634.9820, 3628.313
635.4641, 3620.056
635.9462, 3625.101
636.4283, 3632.335
636.9105, 3632.061
637.3926, 3624.365
637.8747, 3614.825
638.3568, 3604.266
638.8389, 3597.098
639.3210, 3604.462
639.8032, 3623.878
640.2853, 3634.448
640.7674, 3629.492
641.2495, 3622.257
641.7316, 3628.185
642.2137, 3646.668
642.6959, 3647.412
643.1780, 3607.967
643.6601, 3581.510
644.1422, 3589.744
644.6243, 3605.696
645.1064, 3602.953
645.5886, 3582.645
646.0707, 3566.202
646.5528, 3570.214
647.0349, 3582.629
647.5170, 3582.583
647.9991, 3572.032
648.4813, 3565.778
648.9634, 3567.949
649.4455, 3573.222
649.9276, 3577.351
650.4097, 3580.256
650.8918, 3577.547
651.3740, 3557.728
651.8561, 3547.425
652.3382, 3560.933
652.8203, 3577.925
653.3024, 3579.176
653.7845, 3565.637
654.2667, 3552.500
654.7488, 3548.532
655.2309, 3550.198
655.7130, 3555.240
656.1951, 3562.138
656.6772, 3562.520
657.1594, 3553.753
657.6415, 3542.636
658.1236, 3534.996
658.6057, 3530.847
659.0878, 3530.435
659.5699, 3537.925
660.0521, 3543.689
660.5342, 3547.302
661.0163, 3548.458
661.4984, 3547.604
661.9805, 3544.244
662.4626, 3535.821
662.9448, 3515.658
663.4269, 3497.542
663.9090, 3501.037
664.3911, 3519.439
664.8732, 3532.204
665.3553, 3534.960
665.8375, 3531.734
666.3196, 3524.938
666.8017, 3515.503
667.2838, 3510.163
667.7659, 3510.835
668.2480, 3512.387
668.7302, 3513.488
669.2123, 3515.912
669.6944, 3524.075
670.1765, 3534.788
670.6586, 3537.360
671.1407, 3521.874
671.6229, 3507.136
672.1050, 3512.627
672.5870, 3528.519
673.0692, 3536.475
673.5513, 3533.808
674.0334, 3526.427
674.5155, 3518.356
674.9976, 3509.560
675.4797, 3498.782
675.9619, 3482.271
676.4440, 3474.869
676.9261, 3486.674
677.4082, 3498.925
677.8903, 3496.477
678.3724, 3486.679
678.8546, 3488.937
679.3367, 3516.534
679.8188, 3536.958
680.3009, 3527.560
680.7830, 3505.602
681.2651, 3490.426
681.7473, 3483.031
682.2294, 3474.462
682.7115, 3458.729
683.1936, 3443.995
683.6757, 3450.183
684.1578, 3480.434
684.6400, 3500.003
685.1221, 3504.296
685.6042, 3501.786
686.0863, 3495.708
686.5684, 3486.534
687.0505, 3474.516
687.5327, 3455.948
688.0148, 3444.788
688.4969, 3449.262
688.9790, 3457.777
689.4611, 3462.143
689.9432, 3463.680
690.4254, 3468.130
690.9075, 3477.788
691.3896, 3485.442
691.8717, 3477.668
692.3538, 3458.902
692.8359, 3456.067
693.3181, 3472.352
693.8002, 3486.161
694.2823, 3487.687
694.7644, 3480.981
695.2465, 3471.099
695.7286, 3453.072
696.2108, 3450.672
696.6929, 3484.659
697.1750, 3509.862
697.6571, 3502.928
698.1392, 3480.933
698.6213, 3462.704
699.1035, 3453.098
699.5856, 3452.245
700.0677, 3466.447
700.5498, 3486.023
701.0319, 3498.223
701.5140, 3502.575
701.9962, 3494.823
702.4783, 3472.831
702.9604, 3448.861
703.4425, 3437.067
703.9246, 3437.262
704.4067, 3434.947
704.8889, 3425.375
705.3710, 3421.498
705.8531, 3436.221
706.3352, 3449.255
706.8173, 3440.640
707.2994, 3414.362
707.7816, 3396.027
708.2637, 3397.429
708.7458, 3405.256
709.2279, 3416.089
709.7100, 3425.706
710.1921, 3426.343
710.6743, 3418.050
711.1564, 3407.213
711.6385, 3397.186
712.1206, 3391.069
712.6027, 3400.756
713.0848, 3428.810
713.5670, 3443.915
714.0491, 3437.136
714.5312, 3426.993
715.0133, 3424.893
715.4954, 3429.540
715.9775, 3436.197
716.4597, 3446.562
716.9418, 3455.581
717.4239, 3464.200
717.9060, 3469.646
718.3881, 3470.221
718.8702, 3466.114
719.3524, 3456.716
719.8345, 3441.523
720.3166, 3426.723
720.7987, 3417.552
721.2808, 3413.668
721.7629, 3415.830
722.2451, 3423.560
722.7272, 3429.666
723.2093, 3430.524
723.6914, 3430.312
724.1735, 3436.823
724.6556, 3452.665
725.1378, 3457.078
725.6199, 3436.493
726.1020, 3423.665
726.5841, 3436.646
727.0662, 3454.379
727.5483, 3451.889
728.0305, 3429.369
728.5126, 3417.889
728.9947, 3442.165
729.4768, 3468.235
729.9589, 3470.324
730.4410, 3458.496
730.9232, 3447.652
731.4053, 3441.507
731.8874, 3439.268
732.3695, 3441.173
732.8516, 3444.901
733.3337, 3443.264
733.8159, 3435.807
734.2980, 3430.261
734.7801, 3427.290
735.2622, 3428.382
735.7443, 3436.662
736.2264, 3449.831
736.7086, 3457.031
737.1907, 3453.951
737.6728, 3452.144
738.1549, 3452.289
738.6370, 3453.858
739.1191, 3456.131
739.6013, 3459.749
740.0834, 3467.068
740.5655, 3479.417
741.0476, 3489.669
741.5297, 3492.434
742.0118, 3489.422
742.4940, 3481.586
742.9761, 3470.170
743.4582, 3459.520
743.9403, 3451.309
744.4224, 3444.838
744.9045, 3437.367
745.3867, 3428.925
745.8688, 3439.531
746.3509, 3483.391
746.8330, 3507.670
747.3151, 3477.272
747.7972, 3438.497
748.2794, 3449.204
748.7615, 3503.958
749.2436, 3534.940
749.7257, 3517.894
750.2078, 3497.054
750.6899, 3485.868
751.1721, 3478.977
751.6542, 3467.335
752.1363, 3454.123
752.6184, 3455.208
753.1005, 3484.132
753.5826, 3515.792
754.0648, 3514.365
754.5469, 3489.776
755.0290, 3469.284
755.5111, 3456.590
755.9932, 3456.494
756.4753, 3473.470
756.9575, 3499.051
757.4396, 3514.394
757.9217, 3516.236
758.4038, 3522.367
758.8859, 3542.408
759.3680, 3552.184
759.8502, 3529.981
760.3323, 3498.963
760.8144, 3486.433
761.2965, 3494.744
761.7786, 3503.742
762.2607, 3503.482
762.7428, 3508.095
763.2249, 3534.278
763.7070, 3565.240
764.1891, 3575.672
764.6713, 3564.329
765.1534, 3551.945
765.6355, 3552.136
766.1176, 3561.229
766.5997, 3579.064
767.0818, 3601.496
767.5640, 3604.959
768.0461, 3584.859
768.5282, 3566.835
769.0103, 3569.335
769.4924, 3586.809
769.9745, 3603.000
770.4567, 3617.776
770.9388, 3631.757
771.4209, 3648.361
771.9030, 3659.531
772.3851, 3655.987
772.8672, 3647.455
773.3494, 3648.244
773.8315, 3660.875
774.3136, 3673.467
774.7957, 3684.986
775.2778, 3693.296
775.7599, 3692.450
776.2421, 3689.707
776.7242, 3696.769
777.2063, 3714.957
777.6884, 3734.739
778.1705, 3749.001
778.6526, 3760.529
779.1348, 3774.337
779.6169, 3789.821
780.0990, 3805.404
780.5811, 3820.680
781.0632, 3831.567
781.5453, 3833.146
782.0275, 3830.972
782.5096, 3844.436
782.9917, 3879.367
783.4738, 3909.991
783.9559, 3934.462
784.4380, 3954.934
784.9202, 3967.856
785.4023, 3979.254
785.8844, 3998.103
786.3665, 4024.130
786.8486, 4059.958
787.3307, 4123.929
787.8129, 4178.162
788.2950, 4191.319
788.7771, 4189.164
789.2592, 4203.851
789.7413, 4241.430
790.2234, 4292.905
790.7056, 4363.309
791.1877, 4431.510
791.6698, 4460.681
792.1519, 4466.454
792.6340, 4489.049
793.1161, 4535.458
793.5983, 4595.089
794.0804, 4661.708
794.5625, 4732.653
795.0446, 4801.488
795.5267, 4868.677
796.0089, 4933.623
796.4910, 4993.257
796.9731, 5058.639
797.4552, 5138.815
797.9373, 5225.008
798.4194, 5300.801
798.9016, 5363.130
799.3837, 5426.236
799.8658, 5485.739
800.3479, 5551.348
800.8300, 5637.354
801.3121, 5723.088
801.7943, 5784.207
802.2764, 5822.610
802.7585, 5865.427
803.2406, 5928.221
803.7227, 5993.595
804.2048, 6056.224
804.6870, 6109.045
805.1691, 6135.972
805.6512, 6141.842
806.1333, 6152.387
806.6154, 6181.768
807.0975, 6217.739
807.5797, 6243.958
808.0618, 6260.777
808.5439, 6268.080
809.0260, 6265.620
809.5081, 6258.384
809.9902, 6246.715
810.4724, 6237.062
810.9545, 6238.818
811.4366, 6252.278
811.9187, 6264.293
812.4008, 6280.625
812.8829, 6284.729
813.3651, 6263.856
813.8472, 6238.243
814.3293, 6223.301
814.8114, 6215.700
815.2935, 6203.173
815.7756, 6181.615
816.2578, 6159.939
816.7399, 6139.325
817.2220, 6120.831
817.7041, 6110.025
818.1862, 6100.556
818.6683, 6079.050
819.1505, 6041.785
819.6326, 6003.514
820.1147, 5977.652
820.5968, 5956.338
821.0789, 5927.819
821.5610, 5894.566
822.0432, 5863.040
822.5253, 5835.129
823.0074, 5812.210
823.4895, 5797.084
823.9716, 5784.704
824.4537, 5755.744
824.9359, 5708.934
825.4180, 5684.498
825.9001, 5693.028
826.3822, 5699.361
826.8643, 5681.288
827.3464, 5649.483
827.8286, 5627.072
828.3107, 5616.887
828.7928, 5605.627
829.2749, 5585.939
829.7570, 5574.930
830.2391, 5589.425
830.7213, 5606.042
831.2034, 5599.796
831.6855, 5571.947
832.1676, 5545.832
832.6497, 5523.030
833.1318, 5508.221
833.6140, 5511.208
834.0961, 5516.864
834.5782, 5511.652
835.0603, 5496.423
835.5424, 5477.547
836.0245, 5457.383
836.5067, 5436.371
836.9888, 5411.306
837.4709, 5387.455
837.9530, 5376.500
838.4351, 5374.662
838.9172, 5366.821
839.3994, 5348.579
839.8815, 5328.158
840.3636, 5313.593
840.8457, 5303.752
841.3278, 5295.026
841.8099, 5287.489
842.2921, 5278.103
842.7742, 5265.287
843.2563, 5256.413
843.7384, 5257.978
844.2205, 5264.908
844.7026, 5263.246
845.1848, 5247.758
845.6669, 5239.712
846.1490, 5238.830
846.6311, 5245.647
847.1132, 5269.585
847.5953, 5295.282
848.0775, 5309.014
848.5596, 5310.299
849.0417, 5297.524
849.5238, 5252.189
850.0059, 5216.623
850.4880, 5214.230
850.9702, 5217.620
851.4523, 5202.285
851.9343, 5173.177
852.4164, 5147.384
852.8986, 5129.876
853.3807, 5121.340
853.8628, 5134.115
854.3449, 5146.940
854.8270, 5129.712
855.3091, 5094.325
855.7913, 5069.583
856.2734, 5062.892
856.7555, 5063.794
857.2376, 5064.075
857.7197, 5064.907
858.2018, 5070.974
858.6840, 5080.206
859.1661, 5079.995
859.6482, 5068.739
860.1303, 5060.421
860.6124, 5063.048
861.0945, 5075.391
861.5767, 5098.710
862.0588, 5135.199
862.5409, 5155.375
863.0230, 5156.786
863.5051, 5149.375
863.9872, 5130.214
864.4694, 5113.904
864.9515, 5118.453
865.4336, 5142.048
865.9157, 5156.912
866.3978, 5154.392
866.8799, 5157.036
867.3621, 5170.406
867.8442, 5184.825
868.3263, 5196.185
868.8084, 5204.900
869.2905, 5212.510
869.7726, 5219.953
870.2548, 5221.647
870.7369, 5207.258
871.2190, 5196.941
871.7011, 5202.969
872.1832, 5217.465
872.6653, 5233.185
873.1475, 5247.889
873.6296, 5258.984
874.1117, 5263.474
874.5938, 5267.662
875.0759, 5275.510
875.5580, 5286.693
876.0402, 5300.397
876.5223, 5317.127
877.0044, 5339.116
877.4865, 5366.992
877.9686, 5397.479
878.4507, 5427.131
878.9329, 5457.057
879.4150, 5494.027
879.8971, 5534.232
880.3792, 5556.783
880.8613, 5558.243
881.3434, 5556.501
881.8256, 5563.208
882.3077, 5578.936
882.7898, 5607.425
883.2719, 5649.430
883.7540, 5688.629
884.2361, 5726.124
884.7183, 5751.075
885.2004, 5755.623
885.6825, 5755.401
886.1646, 5770.282
886.6467, 5799.310
887.1288, 5819.991
887.6110, 5831.497
888.0931, 5835.853
888.5752, 5825.246
889.0573, 5817.670
889.5394, 5824.218
890.0215, 5841.371
890.5037, 5861.681
890.9858, 5885.427
891.4679, 5911.006
891.9500, 5952.687
892.4321, 5978.223
892.9142, 5957.723
893.3964, 5930.722
893.8785, 5944.161
894.3606, 5989.367
894.8427, 6011.646
895.3248, 5980.742
895.8069, 5955.050
896.2891, 5966.861
896.7712, 5987.233
897.2533, 5994.469
897.7354, 5991.791
898.2175, 5986.372
898.6996, 5980.798
899.1818, 5980.034
899.6639, 5991.407
900.1460, 6005.267
900.6281, 6009.966
901.1102, 6011.525
901.5923, 6022.054
902.0745, 6040.201
902.5566, 6052.645
903.0387, 6051.821
903.5208, 6051.692
904.0029, 6072.051
904.4850, 6104.943
904.9672, 6135.169
905.4493, 6160.829
905.9314, 6172.622
906.4135, 6168.929
906.8956, 6165.969
907.3777, 6177.605
907.8599, 6199.402
908.3420, 6222.431
908.8241, 6246.170
909.3062, 6257.476
909.7883, 6253.692
910.2704, 6260.894
910.7526, 6292.327
911.2347, 6335.313
911.7168, 6375.767
912.1989, 6412.591
912.6810, 6421.938
913.1631, 6394.814
913.6453, 6376.562
914.1274, 6378.128
914.6095, 6383.408
915.0916, 6384.658
915.5737, 6379.613
916.0558, 6361.836
916.5380, 6327.742
917.0201, 6294.963
917.5022, 6269.153
917.9843, 6236.201
918.4664, 6188.447
918.9485, 6135.345
919.4307, 6088.516
919.9128, 6044.908
920.3949, 5987.381
920.8770, 5908.952
921.3591, 5827.164
921.8412, 5731.050
922.3234, 5645.063
922.8055, 5590.041
923.2876, 5547.039
923.7697, 5489.624
924.2518, 5415.419
924.7339, 5346.230
925.2161, 5297.816
925.6982, 5242.110
926.1803, 5156.953
926.6624, 5070.055
927.1445, 5007.517
927.6266, 4961.395
928.1088, 4907.615
928.5909, 4838.719
929.0730, 4780.579
929.5551, 4765.732
930.0372, 4747.574
930.5193, 4680.458
931.0015, 4594.523
931.4836, 4528.752
931.9657, 4486.003
932.4478, 4450.198
932.9299, 4414.139
933.4120, 4381.221
933.8942, 4354.919
934.3763, 4332.667
934.8584, 4316.102
935.3405, 4299.632
935.8226, 4269.179
936.3047, 4223.313
936.7869, 4177.723
937.2690, 4145.313
937.7511, 4114.591
938.2332, 4064.387
938.7153, 4005.518
939.1974, 3962.582
939.6796, 3935.460
940.1617, 3914.349
940.6438, 3895.088
941.1259, 3872.874
941.6080, 3842.217
942.0901, 3805.368
942.5722, 3764.311
943.0543, 3721.398
943.5364, 3690.433
944.0186, 3672.721
944.5007, 3658.583
944.9828, 3643.415
945.4649, 3624.197
945.9470, 3595.175
946.4291, 3557.841
946.9113, 3520.494
947.3934, 3483.267
947.8755, 3460.286
948.3576, 3455.980
948.8397, 3450.938
949.3218, 3431.634
949.8040, 3402.186
950.2861, 3368.327
950.7682, 3328.592
951.2503, 3308.555
951.7324, 3313.417
952.2145, 3304.309
952.6967, 3265.639
953.1788, 3223.542
953.6609, 3202.417
954.1430, 3197.198
954.6251, 3188.741
955.1072, 3177.855
955.5894, 3158.464
956.0715, 3123.674
956.5536, 3100.783
957.0357, 3106.418
957.5178, 3118.599
957.9999, 3112.557
958.4821, 3089.502
958.9642, 3061.466
959.4463, 3021.612
959.9284, 2994.321
960.4105, 2985.748
960.8926, 2982.909
961.3748, 2983.159
961.8569, 2982.460
962.3390, 2973.987
962.8211, 2957.091
963.3032, 2943.606
963.7853, 2936.314
964.2675, 2927.621
964.7496, 2915.888
965.2317, 2903.287
965.7138, 2887.114
966.1959, 2872.393
966.6780, 2872.849
967.1602, 2895.405
967.6423, 2895.149
968.1244, 2849.394
968.6065, 2811.325
969.0886, 2790.604
969.5707, 2780.980
970.0529, 2783.829
970.5350, 2793.340
971.0171, 2795.140
971.4992, 2785.279
971.9813, 2779.284
972.4634, 2784.387
972.9456, 2786.264
973.4277, 2777.707
973.9098, 2766.413
974.3919, 2759.203
974.8740, 2754.953
975.3561, 2748.825
975.8383, 2739.510
976.3204, 2730.049
976.8025, 2718.391
977.2846, 2709.696
977.7667, 2709.745
978.2488, 2711.162
978.7310, 2705.439
979.2131, 2693.704
979.6952, 2683.754
980.1773, 2677.490
980.6594, 2672.520
981.1415, 2666.602
981.6237, 2663.652
982.1058, 2670.931
982.5879, 2679.159
983.0700, 2675.546
983.5521, 2660.874
984.0342, 2647.795
984.5164, 2636.140
984.9985, 2633.276
985.4806, 2656.719
985.9627, 2674.001
986.4448, 2656.961
986.9269, 2624.222
987.4091, 2600.290
987.8912, 2589.036
988.3733, 2587.406
988.8554, 2607.760
989.3375, 2616.902
989.8196, 2588.667
990.3018, 2557.111
990.7839, 2549.673
991.2660, 2555.454
991.7481, 2554.962
992.2302, 2545.226
992.7123, 2535.746
993.1945, 2525.027
993.6766, 2522.295
994.1587, 2539.447
994.6408, 2559.079
995.1229, 2568.139
995.6050, 2568.360
996.0872, 2562.186
996.5693, 2550.791
997.0514, 2545.168
997.5335, 2551.820
998.0156, 2562.953
998.4977, 2581.177
998.9799, 2596.443
999.4620, 2599.709
999.9441, 2593.179
1000.426, 2581.278
1000.908, 2565.111
1001.390, 2549.453
1001.873, 2527.933
1002.355, 2518.053
1002.837, 2540.954
1003.319, 2569.475
1003.801, 2579.980
1004.283, 2575.297
1004.765, 2563.860
1005.247, 2547.578
1005.729, 2536.634
1006.212, 2542.218
1006.694, 2546.070
1007.176, 2533.686
1007.658, 2519.089
1008.140, 2517.484
1008.622, 2524.258
1009.104, 2527.227
1009.586, 2523.412
1010.069, 2516.761
1010.551, 2506.504
1011.033, 2496.901
1011.515, 2490.703
1011.997, 2485.764
1012.479, 2475.446
1012.961, 2465.794
1013.443, 2474.597
1013.925, 2507.691
1014.408, 2528.869
1014.890, 2516.460
1015.372, 2497.301
1015.854, 2481.365
1016.336, 2467.724
1016.818, 2451.690
1017.300, 2437.920
1017.782, 2440.524
1018.265, 2464.415
1018.747, 2478.753
1019.229, 2467.920
1019.711, 2450.738
1020.193, 2425.117
1020.675, 2406.249
1021.157, 2415.436
1021.639, 2439.515
1022.121, 2445.696
1022.604, 2425.084
1023.086, 2414.961
1023.568, 2441.894
1024.050, 2461.353
1024.532, 2450.730
1025.014, 2430.455
1025.496, 2413.936
1025.978, 2402.111
1026.460, 2392.525
1026.943, 2383.985
1027.425, 2385.747
1027.907, 2409.263
1028.389, 2430.886
1028.871, 2446.544
1029.353, 2454.037
1029.835, 2446.779
1030.317, 2431.840
1030.800, 2423.764
1031.282, 2425.240
1031.764, 2423.163
1032.246, 2407.027
1032.728, 2398.882
1033.210, 2412.775
1033.692, 2427.754
1034.174, 2427.538
1034.656, 2419.489
1035.139, 2420.459
1035.621, 2434.083
1036.103, 2432.697
1036.585, 2393.754
1037.067, 2369.427
1037.549, 2376.887
1038.031, 2391.665
1038.513, 2398.246
1038.995, 2403.697
1039.478, 2425.455
1039.960, 2467.239
1040.442, 2481.665
1040.924, 2441.624
1041.406, 2420.125
1041.888, 2442.360
1042.370, 2460.510
1042.852, 2443.928
1043.335, 2414.255
1043.817, 2405.298
1044.299, 2417.344
1044.781, 2419.910
1045.263, 2406.274
1045.745, 2398.981
1046.227, 2401.486
1046.709, 2409.072
1047.192, 2424.932
1047.674, 2436.736
1048.156, 2424.990
1048.638, 2392.609
1049.120, 2376.458
1049.602, 2381.354
1050.084, 2383.722
1050.566, 2380.242
1051.048, 2379.369
1051.531, 2385.709
1052.013, 2393.502
1052.495, 2396.391
1052.977, 2394.856
1053.459, 2390.510
1053.941, 2382.692
1054.423, 2378.633
1054.905, 2379.064
1055.387, 2381.172
1055.870, 2384.042
1056.352, 2387.728
1056.834, 2392.831
1057.316, 2397.648
1057.798, 2395.932
1058.280, 2388.184
1058.762, 2386.087
1059.244, 2389.799
1059.727, 2381.521
1060.209, 2355.750
1060.691, 2332.451
1061.173, 2328.266
1061.655, 2334.714
1062.137, 2337.774
1062.619, 2336.969
1063.101, 2327.230
1063.583, 2310.948
1064.066, 2301.682
1064.548, 2302.228
1065.030, 2307.342
1065.512, 2314.084
1065.994, 2320.391
1066.476, 2323.795
1066.958, 2324.579
1067.440, 2321.431
1067.922, 2316.579
1068.405, 2316.765
1068.887, 2321.867
1069.369, 2325.732
1069.851, 2325.319
1070.333, 2322.958
1070.815, 2320.199
1071.297, 2317.324
1071.779, 2314.224
1072.262, 2311.530
1072.744, 2310.712
1073.226, 2311.224
1073.708, 2309.504
1074.190, 2304.396
1074.672, 2305.590
1075.154, 2329.854
1075.636, 2350.449
1076.118, 2341.193
1076.601, 2324.286
1077.083, 2325.229
1077.565, 2336.749
1078.047, 2339.029
1078.529, 2328.394
1079.011, 2319.413
1079.493, 2323.064
1079.975, 2322.071
1080.458, 2301.617
1080.940, 2283.169
1081.422, 2286.718
1081.904, 2298.421
1082.386, 2295.245
1082.868, 2277.434
1083.350, 2269.502
1083.832, 2282.725
1084.314, 2293.599
1084.797, 2303.047
1085.279, 2305.407
1085.761, 2294.356
1086.243, 2278.416
1086.725, 2263.175
1087.207, 2250.092
1087.689, 2245.883
1088.171, 2253.845
1088.653, 2261.963
1089.136, 2274.127
1089.618, 2276.952
1090.100, 2261.354
1090.582, 2246.359
1091.064, 2246.864
1091.546, 2257.431
1092.028, 2266.554
1092.510, 2274.419
1092.993, 2276.860
1093.475, 2273.044
1093.957, 2270.874
1094.439, 2272.536
1094.921, 2268.243
1095.403, 2250.726
1095.885, 2234.701
1096.367, 2244.846
1096.849, 2272.408
1097.332, 2278.720
1097.814, 2267.137
1098.296, 2262.242
1098.778, 2266.020
1099.260, 2268.872
1099.742, 2267.027
1100.224, 2262.436
1100.706, 2257.060
1101.188, 2249.759
1101.671, 2232.921
1102.153, 2215.561
1102.635, 2222.405
1103.117, 2243.939
1103.599, 2247.679
1104.081, 2229.724
1104.563, 2216.757
1105.045, 2225.480
1105.528, 2239.108
1106.010, 2248.392
1106.492, 2251.098
1106.974, 2238.137
1107.456, 2221.470
1107.938, 2219.944
1108.420, 2230.894
1108.902, 2237.932
1109.385, 2235.860
1109.867, 2231.293
1110.349, 2222.862
1110.831, 2217.623
1111.313, 2217.555
1111.795, 2222.958
1112.277, 2237.682
1112.759, 2256.562
1113.241, 2271.269
1113.724, 2281.558
1114.206, 2282.518
1114.688, 2266.577
1115.170, 2252.695
1115.652, 2242.676
1116.134, 2234.370
1116.616, 2227.837
1117.098, 2221.255
1117.580, 2210.972
1118.063, 2199.153
1118.545, 2198.818
1119.027, 2213.369
1119.509, 2222.698
1119.991, 2226.448
1120.473, 2221.319
1120.955, 2203.668
1121.437, 2195.930
1121.920, 2217.991
1122.402, 2249.094
1122.884, 2243.915
1123.366, 2210.512
1123.848, 2197.514
1124.330, 2202.033
1124.812, 2210.178
1125.294, 2218.576
1125.776, 2222.541
1126.259, 2219.950
1126.741, 2214.883
1127.223, 2210.963
1127.705, 2207.516
1128.187, 2203.239
1128.669, 2198.981
1129.151, 2195.755
1129.633, 2193.840
1130.115, 2194.648
1130.598, 2197.719
1131.080, 2197.778
1131.562, 2189.581
1132.044, 2184.279
1132.526, 2193.992
1133.008, 2202.564
1133.490, 2195.758
1133.972, 2183.801
1134.455, 2180.286
1134.937, 2182.831
1135.419, 2178.290
1135.901, 2161.164
1136.383, 2151.548
1136.865, 2157.141
1137.347, 2162.708
1137.829, 2168.423
1138.312, 2168.587
1138.794, 2153.022
1139.276, 2137.158
1139.758, 2148.258
1140.240, 2183.678
1140.722, 2199.091
1141.204, 2191.492
1141.686, 2178.667
1142.168, 2160.130
1142.651, 2150.406
1143.133, 2155.440
1143.615, 2163.987
1144.097, 2166.928
1144.579, 2164.387
1145.061, 2152.278
1145.543, 2135.530
1146.025, 2138.579
1146.507, 2154.792
1146.990, 2151.810
1147.472, 2129.101
1147.954, 2118.282
1148.436, 2134.460
1148.918, 2153.807
1149.400, 2154.652
1149.882, 2148.009
1150.364, 2140.633
1150.847, 2135.877
1151.329, 2139.563
1151.811, 2148.320
1152.293, 2156.603
1152.775, 2162.752
1153.257, 2163.473
1153.739, 2154.588
1154.221, 2146.371
1154.703, 2141.720
1155.186, 2138.444
1155.668, 2133.317
1156.150, 2131.007
1156.632, 2139.732
1157.114, 2153.737
1157.596, 2157.489
1158.078, 2148.514
1158.560, 2145.453
1159.042, 2149.266
1159.525, 2156.444
1160.007, 2167.847
1160.489, 2178.028
1160.971, 2185.230
1161.453, 2185.303
1161.935, 2171.076
1162.417, 2149.593
1162.899, 2145.518
1163.382, 2154.844
1163.864, 2154.799
1164.346, 2146.585
1164.828, 2146.732
1165.310, 2156.601
1165.792, 2153.521
1166.274, 2122.615
1166.756, 2092.991
1167.238, 2099.926
1167.721, 2117.763
1168.203, 2121.918
1168.685, 2117.104
1169.167, 2103.957
1169.649, 2089.653
1170.131, 2091.892
1170.613, 2112.694
1171.095, 2120.774
1171.578, 2086.583
1172.060, 2068.459
1172.542, 2095.224
1173.024, 2122.314
1173.506, 2130.109
1173.988, 2127.899
1174.470, 2121.412
1174.952, 2112.928
1175.434, 2109.667
1175.917, 2112.864
1176.399, 2110.537
1176.881, 2100.933
1177.363, 2096.013
1177.845, 2098.175
1178.327, 2101.766
1178.809, 2104.449
1179.291, 2102.805
1179.773, 2091.497
1180.256, 2076.264
1180.738, 2070.600
1181.220, 2071.023
1181.702, 2066.139
1182.184, 2059.097
1182.666, 2063.380
1183.148, 2078.561
1183.630, 2088.041
1184.113, 2083.427
1184.595, 2078.254
1185.077, 2083.850
1185.559, 2089.539
1186.041, 2089.039
1186.523, 2084.573
1187.005, 2074.457
1187.487, 2063.771
1187.969, 2061.871
1188.452, 2069.119
1188.934, 2074.690
1189.416, 2079.687
1189.898, 2078.567
1190.380, 2064.615
1190.862, 2059.781
1191.344, 2074.760
1191.826, 2088.974
1192.308, 2086.589
1192.791, 2076.527
1193.273, 2075.812
1193.755, 2082.267
1194.237, 2081.160
1194.719, 2074.066
1195.201, 2072.821
1195.683, 2077.123
1196.165, 2074.616
1196.648, 2062.749
1197.130, 2058.594
1197.612, 2076.892
1198.094, 2097.692
1198.576, 2104.917
1199.058, 2101.417
1199.540, 2082.919
1200.022, 2060.595
1200.505, 2045.912
1200.987, 2040.178
1201.469, 2045.109
1201.951, 2061.972
1202.433, 2071.201
1202.915, 2063.980
1203.397, 2057.221
1203.879, 2050.324
1204.361, 2048.915
1204.844, 2060.712
1205.326, 2068.650
1205.808, 2055.115
1206.290, 2029.023
1206.772, 2011.473
1207.254, 2002.607
1207.736, 2008.018
1208.218, 2026.495
1208.700, 2048.040
1209.183, 2069.020
1209.665, 2073.274
1210.147, 2055.489
1210.629, 2037.602
1211.111, 2038.529
1211.593, 2045.139
1212.075, 2043.601
1212.557, 2039.950
1213.040, 2043.252
1213.522, 2047.035
1214.004, 2036.215
1214.486, 2017.736
1214.968, 2017.762
1215.450, 2044.529
1215.932, 2063.603
1216.414, 2068.145
1216.896, 2065.769
1217.379, 2051.107
1217.861, 2041.313
1218.343, 2046.278
1218.825, 2053.030
1219.307, 2048.946
1219.789, 2037.460
1220.271, 2025.823
1220.753, 2014.692
1221.235, 2013.453
1221.718, 2020.586
1222.200, 2026.981
1222.682, 2031.061
1223.164, 2034.487
1223.646, 2037.498
1224.128, 2033.787
1224.610, 2012.526
1225.092, 1996.298
1225.575, 2012.764
1226.057, 2034.703
1226.539, 2040.183
1227.021, 2035.428
1227.503, 2026.053
1227.985, 2015.327
1228.467, 2008.874
1228.949, 2007.273
1229.432, 2011.491
1229.914, 2027.349
1230.396, 2035.296
1230.878, 2030.820
1231.360, 2027.296
1231.842, 2030.690
1232.324, 2032.284
1232.806, 2024.735
1233.288, 2010.234
1233.771, 1988.326
1234.253, 1964.268
1234.735, 1957.617
1235.217, 1963.986
1235.699, 1978.255
1236.181, 1992.555
1236.663, 1980.210
1237.145, 1939.034
1237.627, 1914.741
1238.110, 1938.190
1238.592, 1965.183
1239.074, 1978.197
1239.556, 1982.869
1240.038, 1975.276
1240.520, 1967.088
1241.002, 1968.401
1241.484, 1976.248
1241.967, 1987.385
1242.449, 2001.107
1242.931, 2004.098
1243.413, 1995.066
1243.895, 1982.800
1244.377, 1967.336
1244.859, 1967.234
1245.341, 1986.866
1245.823, 2004.872
1246.306, 2008.606
1246.788, 2002.652
1247.270, 1985.251
1247.752, 1968.617
1248.234, 1973.681
1248.716, 1984.801
1249.198, 1977.817
1249.680, 1964.458
1250.162, 1971.585
1250.645, 1996.706
1251.127, 2009.861
1251.609, 2003.519
1252.091, 1990.980
1252.573, 1963.128
1253.055, 1949.709
1253.537, 1962.694
1254.019, 1971.331
1254.502, 1959.090
1254.984, 1944.529
1255.466, 1947.609
1255.948, 1961.101
1256.430, 1969.879
1256.912, 1974.032
1257.394, 1973.140
1257.876, 1968.322
1258.358, 1960.375
1258.841, 1951.676
1259.323, 1949.277
1259.805, 1954.819
1260.287, 1960.855
1260.769, 1965.892
1261.251, 1966.246
1261.733, 1955.950
1262.215, 1946.299
1262.698, 1941.889
1263.180, 1941.087
1263.662, 1940.391
1264.144, 1944.781
1264.626, 1967.066
1265.108, 2002.328
1265.590, 2000.977
1266.072, 1963.993
1266.554, 1951.120
1267.036, 1962.536
1267.519, 1961.580
##END=



