##NAMES=Margarosanite
##RRUFFID=R120111
##IDEAL CHEMISTRY=Ca_2_Pb^2+^Si_3_O_9_
##LOCALITY=Parker shaft, Franklin, New Jersey, USA
##OWNER=RRUFF
##SOURCE=Caltech  
##DESCRIPTION=Pearly, colorless cleavages
##STATUS=The identification of this mineral has been confirmed by single-crystal X-ray diffraction.
##URL=rruff.info/R120111
1500.59, 14019.4
1499.57, 13914.2
1498.55, 14293.8
1497.53, 13905.3
1496.51, 13971.8
1495.48, 13810.8
1494.46, 13525.2
1493.44, 13665
1492.41, 13616.6
1491.39, 13675.8
1490.37, 13598
1489.35, 13508.1
1488.32, 13603.9
1487.3, 13377.2
1486.27, 13394.8
1485.25, 13410
1484.23, 13188.3
1483.2, 13171.8
1482.18, 13043
1481.15, 13255.9
1480.13, 13119.7
1479.1, 12917.8
1478.08, 12959.8
1477.05, 13050.7
1476.03, 12763.5
1475, 12790.9
1473.98, 12801.2
1472.95, 12835.9
1471.93, 12741.5
1470.9, 12642.2
1469.88, 12428.4
1468.85, 12450.9
1467.82, 12286
1466.8, 12418.1
1465.77, 12272.7
1464.74, 12280.6
1463.72, 12196.1
1462.69, 12077.5
1461.66, 12226.6
1460.63, 11879.4
1459.61, 12065
1458.58, 11773.8
1457.55, 11922.9
1456.52, 11819
1455.49, 11676.3
1454.47, 11762.1
1453.44, 11794.4
1452.41, 11872.9
1451.38, 11681.7
1450.35, 11393.3
1449.32, 11454.8
1448.29, 11499.3
1447.26, 11276.6
1446.23, 11335.7
1445.2, 11341.4
1444.18, 11140.6
1443.15, 11202.1
1442.12, 11280.6
1441.08, 11041.2
1440.05, 11100.2
1439.02, 11021
1437.99, 10975.8
1436.96, 10867.5
1435.93, 10836.8
1434.9, 10772.2
1433.87, 10780.3
1432.84, 10803
1431.81, 10585.8
1430.77, 10492.2
1429.74, 10783.8
1428.71, 10581.2
1427.68, 10553
1426.65, 10459.5
1425.61, 10569.3
1424.58, 10296.6
1423.55, 10488.8
1422.52, 10535.7
1421.48, 10301.9
1420.45, 10406.8
1419.42, 10390.8
1418.38, 10270.8
1417.35, 10194.3
1416.31, 10236.4
1415.28, 10247
1414.25, 10245.5
1413.21, 10070
1412.18, 9967.04
1411.14, 10122.7
1410.11, 10022.1
1409.07, 9943.39
1408.04, 10014.4
1407, 9855.99
1405.97, 9738.65
1404.93, 9780.7
1403.9, 9759.98
1402.86, 9736.84
1401.83, 9658.21
1400.79, 9678.53
1399.75, 9433.45
1398.72, 9376.61
1397.68, 9259.48
1396.64, 9424.54
1395.61, 9387.01
1394.57, 9344.66
1393.53, 9203.5
1392.5, 9460.06
1391.46, 9261.08
1390.42, 9281.43
1389.38, 9340.32
1388.35, 9129.4
1387.31, 9094.36
1386.27, 9109.9
1385.23, 8911.15
1384.19, 8909.86
1383.15, 8930.23
1382.11, 8933.75
1381.08, 8874.71
1380.04, 8736.28
1379, 8783.13
1377.96, 8815.53
1376.92, 8958.55
1375.88, 8683.13
1374.84, 8703.51
1373.8, 8707.06
1372.76, 8684.17
1371.72, 8704.54
1370.68, 8696.07
1369.64, 8557.87
1368.6, 8611.88
1367.56, 8406.47
1366.52, 8489.31
1365.47, 8562.52
1364.43, 8225.16
1363.39, 8526.43
1362.35, 8306.79
1361.31, 8367.98
1360.27, 8258.79
1359.22, 8214.41
1358.18, 8232.41
1357.14, 8185.65
1356.1, 8057.37
1355.05, 8087.37
1354.01, 8071.82
1352.97, 7914.85
1351.93, 7968.82
1350.88, 8061.12
1349.84, 8067.14
1348.8, 7929.43
1347.75, 7844.44
1346.71, 7929.52
1345.66, 7861.33
1344.62, 7817.09
1343.57, 7710.63
1342.53, 7754.99
1341.49, 7631.81
1340.44, 7704.88
1339.4, 7605.68
1338.35, 7678.73
1337.31, 7715.89
1336.26, 7652.59
1335.21, 7675.39
1334.17, 7624.07
1333.12, 7594.28
1332.08, 7433.05
1331.03, 7513.22
1329.98, 7493.02
1328.94, 7568.38
1327.89, 7328.42
1326.84, 7329.74
1325.8, 7536.43
1324.75, 7365.82
1323.7, 7254.94
1322.66, 7304.01
1321.61, 7264.77
1320.56, 7156.33
1319.51, 7207.78
1318.47, 7173.34
1317.42, 6998.18
1316.37, 7099.71
1315.32, 6934.15
1314.27, 6983.21
1313.22, 7082.32
1312.17, 6997.87
1311.13, 6911.07
1310.08, 6979.16
1309.03, 6687.49
1307.98, 6865.18
1306.93, 7030.91
1305.88, 6698.87
1304.83, 6824.1
1303.78, 6680.26
1302.73, 6791.17
1301.68, 6585.5
1300.63, 6529.82
1299.58, 6536.01
1298.52, 6527.92
1297.47, 6555.52
1296.42, 6630.67
1295.37, 6479.9
1294.32, 6481.33
1293.27, 6568.35
1292.22, 6581.66
1291.16, 6495.15
1290.11, 6415.79
1289.06, 6412.48
1288.01, 6425.8
1286.96, 6244.36
1285.9, 6293.32
1284.85, 6164.19
1283.8, 6308.11
1282.74, 6198
1281.69, 6254.07
1280.64, 6198.58
1279.58, 6245.13
1278.53, 6279.81
1277.48, 6250.43
1276.42, 6197.35
1275.37, 5997.25
1274.31, 6169.47
1273.26, 5971.8
1272.2, 6023.08
1271.15, 5998.51
1270.09, 5995.26
1269.04, 6117.6
1267.98, 5991.15
1266.93, 5864.75
1265.87, 5866.26
1264.82, 6002.75
1263.76, 5987.67
1262.7, 5835.3
1261.65, 6023.8
1260.59, 5828.87
1259.54, 5955.8
1258.48, 5874.49
1257.42, 5826.33
1256.36, 5740.33
1255.31, 5633.08
1254.25, 5719.75
1253.19, 5716.55
1252.14, 5706.27
1251.08, 5528.17
1250.02, 5567.54
1248.96, 5635.26
1247.9, 5632.07
1246.84, 5652.51
1245.79, 5628.07
1244.73, 5480.85
1243.67, 5430.47
1242.61, 5446.2
1241.55, 5443.05
1240.49, 5583.86
1239.43, 5495.74
1238.37, 5367.54
1237.31, 5352.6
1236.25, 5493.34
1235.19, 5452.45
1234.13, 5423.36
1233.07, 5358.92
1232.01, 5452.43
1230.95, 5314.93
1229.89, 5314.16
1228.83, 5240.34
1227.77, 5150.05
1226.71, 5318.91
1225.64, 5238.06
1224.58, 5183.13
1223.52, 5184.73
1222.46, 5132.18
1221.4, 5122.02
1220.34, 5130.69
1219.27, 5271.13
1218.21, 5258.6
1217.15, 5156.68
1216.08, 5099.48
1215.02, 5046.99
1213.96, 5135.62
1212.9, 5005.56
1211.83, 5087.1
1210.77, 4975.89
1209.7, 4951.67
1208.64, 4983.84
1207.58, 4940.83
1206.51, 4909.57
1205.45, 4873.62
1204.38, 4823.6
1203.32, 4886.29
1202.25, 4845.67
1201.19, 4816.8
1200.12, 4757.42
1199.06, 4869.37
1197.99, 4758.38
1196.93, 4616.93
1195.86, 4728.84
1194.8, 4866.53
1193.73, 4572.7
1192.66, 4750.22
1191.6, 4712.02
1190.53, 4570.7
1189.46, 4717.68
1188.4, 4665.44
1187.33, 4655.39
1186.26, 4528.21
1185.19, 4642.32
1184.13, 4559.68
1183.06, 4643.31
1181.99, 4738.62
1180.92, 4620.89
1179.86, 4547.66
1178.79, 4497.85
1177.72, 4574.41
1176.65, 4550.35
1175.58, 4552.02
1174.51, 4768.87
1173.44, 4501.59
1172.37, 4503.27
1171.3, 4563.4
1170.24, 4485.59
1169.17, 4557.39
1168.1, 4573.08
1167.03, 4546.72
1165.96, 4511.01
1164.89, 4470.65
1163.81, 4561.08
1162.74, 4686.5
1161.67, 4653.13
1160.6, 4521.73
1159.53, 4635.44
1158.46, 4637.1
1157.39, 4697.09
1156.32, 4596.08
1155.25, 4523.1
1154.17, 4419.81
1153.1, 4580.08
1152.03, 4427.85
1150.96, 4473.83
1149.88, 4503.48
1148.81, 4414.26
1147.74, 4350.7
1146.67, 4196.28
1145.59, 4295.84
1144.52, 4271.92
1143.45, 4154.85
1142.37, 4191.5
1141.3, 4165.28
1140.22, 4113.46
1139.15, 4138.46
1138.08, 3954
1137, 4037.2
1135.93, 4106.4
1134.85, 4087.19
1133.78, 4016.82
1132.7, 3918.56
1131.63, 3962.17
1130.55, 3898.82
1129.48, 3977.28
1128.4, 3986
1127.33, 3883.17
1126.25, 3956.95
1125.17, 4218.89
1124.1, 4088.2
1123.02, 3885.54
1121.94, 3987.15
1120.87, 3947.1
1119.79, 3723.66
1118.71, 3783.46
1117.64, 3833.97
1116.56, 3847.33
1115.48, 3930.29
1114.4, 3785.89
1113.33, 3910.59
1112.25, 3847.4
1111.17, 3849.16
1110.09, 3802.23
1109.01, 3697.36
1107.93, 3831.25
1106.86, 3633.71
1105.78, 3753.66
1104.7, 3676.66
1103.62, 3701.6
1102.54, 3689.48
1101.46, 3723.68
1100.38, 3540.22
1099.3, 3736.48
1098.22, 3749.82
1097.14, 3714.56
1096.06, 3702.44
1094.98, 3664.88
1093.9, 3657.41
1092.82, 3682.32
1091.74, 3580.02
1090.65, 3750.61
1089.57, 3643.71
1088.49, 3640.86
1087.41, 3677.31
1086.33, 3699.88
1085.25, 3699.34
1084.16, 3645.67
1083.08, 3670.54
1082, 3554.52
1080.92, 3736.44
1079.83, 3659.69
1078.75, 3684.55
1077.67, 3709.41
1076.59, 3748.1
1075.5, 3712.94
1074.42, 3647.79
1073.33, 3739.53
1072.25, 3720.53
1071.17, 3646.19
1070.08, 3694.08
1069, 3730.43
1067.91, 3803.65
1066.83, 3752.38
1065.74, 3675.78
1064.66, 3806.59
1063.57, 3713.87
1062.49, 3814.69
1061.4, 3811.82
1060.32, 3804.36
1059.23, 3852.15
1058.15, 3706.55
1057.06, 3968.42
1055.97, 3875.78
1054.89, 3962.66
1053.8, 3982.78
1052.71, 4023.61
1051.63, 4098.93
1050.54, 4105.22
1049.45, 4164.41
1048.37, 4350.03
1047.28, 4457.44
1046.19, 4592.4
1045.1, 4667.57
1044.01, 4912.75
1042.93, 5277.33
1041.84, 5735.99
1040.75, 6281.79
1039.66, 6859.58
1038.57, 7255.81
1037.48, 7851.65
1036.39, 8286.64
1035.31, 8379.53
1034.22, 8724.81
1033.13, 8679.94
1032.04, 8414.84
1030.95, 8399.85
1029.86, 8322.93
1028.77, 8523.51
1027.68, 8948.71
1026.59, 9311.9
1025.49, 10138
1024.4, 10922.6
1023.31, 12169.8
1022.22, 13781
1021.13, 15847.5
1020.04, 19255.6
1018.95, 23443.6
1017.86, 28269.3
1016.76, 33929.2
1015.67, 40120.7
1014.58, 45781.8
1013.49, 48518.9
1012.39, 48472.9
1011.3, 45050.2
1010.21, 39176.4
1009.11, 32803.4
1008.02, 26356.9
1006.93, 21387
1005.83, 17220.9
1004.74, 14493.8
1003.65, 12361.7
1002.55, 10881.4
1001.46, 9911.11
1000.36, 9240.34
999.27, 8533.21
998.175, 8253.34
997.08, 7946.16
995.985, 7655.05
994.89, 7402.82
993.795, 7187.19
992.699, 7199.83
991.604, 7166.83
990.508, 7108.74
989.412, 7096.29
988.316, 7275.43
987.219, 7333.65
986.123, 7724.74
985.026, 8131.67
983.929, 8725.39
982.832, 9432.88
981.735, 10379.4
980.638, 11480.6
979.54, 12918.7
978.443, 13793.7
977.345, 15082.9
976.247, 15879.9
975.149, 17091.1
974.051, 17436.8
972.952, 18501.7
971.854, 19042.9
970.755, 20089
969.656, 21831
968.557, 23376.8
967.458, 24753.9
966.359, 26228.4
965.259, 26831.6
964.159, 26168.4
963.059, 24037
961.959, 21776.7
960.859, 18465
959.759, 15690.5
958.658, 12909.9
957.558, 11136.4
956.457, 9581.35
955.356, 8567.23
954.255, 7873.52
953.153, 7182.28
952.052, 6936.1
950.95, 6746.72
949.848, 6509.76
948.746, 6388.56
947.644, 6575.89
946.542, 6740.49
945.44, 7027.49
944.337, 7126.22
943.234, 7084.37
942.131, 7033.46
941.028, 6778.59
939.925, 6773.06
938.821, 6203.39
937.718, 6139.04
936.614, 6167.59
935.51, 6284.44
934.406, 6222.38
933.302, 6343.72
932.197, 6376.74
931.093, 6393.91
929.988, 6166.67
928.883, 5998.32
927.778, 5757.63
926.673, 5521.54
925.568, 5247.06
924.462, 5171.67
923.356, 4965.16
922.251, 4896.61
921.144, 4995.34
920.038, 5066.92
918.932, 5287.63
917.825, 5585.08
916.719, 5941.18
915.612, 6622.42
914.505, 7685.13
913.398, 8835.58
912.29, 10529.8
911.183, 12580.2
910.075, 14300.4
908.967, 16011.1
907.859, 16755.6
906.751, 16662.9
905.643, 15198.8
904.534, 13703.5
903.426, 11617.8
902.317, 9767.29
901.208, 8345.61
900.099, 7106.92
898.99, 6244.96
897.88, 5518.46
896.771, 4891.31
895.661, 4379.23
894.551, 4283.99
893.441, 3934.29
892.33, 3755.83
891.22, 3521.13
890.109, 3282
888.999, 3272.52
887.888, 3220.28
886.777, 3087.05
885.665, 3091.09
884.554, 2935.43
883.442, 2957.49
882.331, 2851.36
881.219, 2974.6
880.107, 2828.04
878.994, 2775.93
877.882, 2696.86
876.769, 2725.67
875.657, 2639.9
874.544, 2585.59
873.431, 2609.92
872.317, 2625.25
871.204, 2573.22
870.091, 2588.56
868.977, 2567.97
867.863, 2639.42
866.749, 2497.65
865.635, 2611.71
864.52, 2505.89
863.406, 2619.92
862.291, 2550
861.176, 2603.45
860.061, 2569.43
858.946, 2638.55
857.831, 2539.53
856.715, 2655.7
855.599, 2677.71
854.484, 2659.39
853.367, 2600.76
852.251, 2672.05
851.135, 2604.47
850.018, 2505.56
848.902, 2487.28
847.785, 2426.48
846.668, 2354.5
845.551, 2436.95
844.433, 2335.91
843.316, 2261.74
842.198, 2252.45
841.08, 2350.53
839.962, 2229.43
838.844, 2251.46
837.726, 2291.36
836.607, 2324.55
835.489, 2230.35
834.37, 2234.49
833.251, 2182.77
832.132, 2238.29
831.012, 2273.7
829.893, 2275.6
828.773, 2217.21
827.653, 2339.67
826.533, 2221.01
825.413, 2169.35
824.293, 2160.11
823.173, 2217.8
822.052, 2284.4
820.931, 2259.52
819.81, 2201.21
818.689, 2178.58
817.568, 2211.7
816.446, 2264.88
815.325, 2211.05
814.203, 2197.35
813.081, 2159.15
811.959, 2223.44
810.836, 2514.92
809.714, 2694.95
808.591, 2273.67
807.468, 2257.75
806.345, 2210.66
805.222, 2263.76
804.099, 2218.91
802.976, 2191.88
801.852, 2273.88
800.728, 2191.23
799.604, 2228.72
798.48, 2283.99
797.356, 2179.14
796.231, 2272.2
795.107, 2262.97
793.982, 2178.17
792.857, 2180.07
791.732, 2273.07
790.606, 2135
789.481, 2130.24
788.355, 2165.46
787.23, 2160.7
786.104, 2133.73
784.977, 2140.08
783.851, 2224.11
782.725, 2188.27
781.598, 2185.73
780.471, 2207.59
779.344, 2176.21
778.217, 2180.32
777.09, 2168.91
775.962, 2226.24
774.835, 2186
773.707, 2174.6
772.579, 2211.95
771.451, 2131.85
770.323, 2133.75
769.194, 2146.72
768.066, 2042.3
766.937, 2090.72
765.808, 2134.7
764.679, 2191.95
763.549, 2184.98
762.42, 2233.35
761.29, 2175.48
760.16, 2259.25
759.03, 2283.25
757.9, 2289.55
756.77, 2377.68
755.64, 2452.52
754.509, 2343.81
753.378, 2484.95
752.247, 2460.27
751.116, 2643.35
749.985, 2733.56
748.853, 2894.45
747.722, 3048.66
746.59, 3247
745.458, 3458.54
744.326, 3676.64
743.193, 4049.22
742.061, 4386.38
740.928, 4864.69
739.795, 5270.04
738.662, 5962.11
737.529, 6190.68
736.396, 6284.62
735.262, 6001.37
734.129, 5506.5
732.995, 4879.49
731.861, 4133.61
730.727, 3643.65
729.592, 3103.15
728.458, 2818.42
727.323, 2663.77
726.188, 2500.36
725.053, 2458.14
723.918, 2303.61
722.783, 2307.68
721.647, 2144.41
720.512, 2221.14
719.376, 2234.02
718.24, 2194.07
717.104, 2244.35
715.967, 2217.62
714.831, 2157.9
713.694, 2216.96
712.557, 2095.69
711.42, 2150.34
710.283, 2169.81
709.146, 2169.49
708.008, 2162.57
706.87, 2135.88
705.733, 2128.97
704.595, 2256.07
703.456, 2224.99
702.318, 2261.99
701.179, 2226.52
700.041, 2219.6
698.902, 2252.2
697.763, 2357.22
696.624, 2205.45
695.484, 2255.59
694.345, 2316.68
693.205, 2366.79
692.065, 2366.43
690.925, 2434.06
689.785, 2514.82
688.644, 2525.41
687.504, 2654.36
686.363, 2702.18
685.222, 2717.11
684.081, 2874.45
682.94, 2895.93
681.798, 3147.38
680.657, 3223.56
679.515, 3317.23
678.373, 3515.96
677.231, 3806.57
676.089, 4092.71
674.946, 4483.81
673.803, 4874.79
672.661, 5628.8
671.518, 6334.47
670.375, 7409.53
669.231, 8910.66
668.088, 10708.7
666.944, 13111.7
665.8, 16943.5
664.656, 22139.9
663.512, 28807.6
662.368, 36716.3
661.223, 44874
660.079, 50995.8
658.934, 53735.3
657.789, 51685.9
656.644, 45615.7
655.499, 37312.2
654.353, 28579.1
653.207, 20933.1
652.062, 15693.6
650.915, 11947.9
649.769, 9363.66
648.623, 7698.3
647.476, 6303.82
646.33, 5419.91
645.183, 4967.87
644.036, 4269.69
642.889, 3911.66
641.741, 3584.25
640.594, 3365.86
639.446, 3141
638.298, 3027.28
637.15, 2846.1
636.002, 2743.34
634.853, 2749.46
633.705, 2503.1
632.556, 2491.84
631.407, 2445.78
630.258, 2425.83
629.109, 2308
627.959, 2244.59
626.81, 2200.76
625.66, 2317.85
624.51, 2180.54
623.36, 2169.34
622.21, 2125.55
621.059, 2138.28
619.908, 2198.79
618.758, 2068.12
617.607, 2037.41
616.456, 2026.24
615.304, 2075.88
614.153, 2034.32
613.001, 2157.76
611.849, 2044.57
610.697, 2052.95
609.545, 1970.19
608.393, 2097.89
607.24, 1986.95
606.088, 2079.92
604.935, 1984.19
603.782, 2020.76
602.628, 1946.75
601.475, 1946.46
600.322, 1980.84
599.168, 2006.55
598.014, 1887.09
596.86, 1951.8
595.706, 1977.5
594.551, 1990.2
593.397, 2033.21
592.242, 2054.55
591.087, 2067.23
589.932, 2097.23
588.777, 2228.92
587.621, 2393.02
586.466, 2710.68
585.31, 3136.39
584.154, 3642
582.998, 4374.5
581.841, 4907.88
580.685, 5142.78
579.528, 5038.26
578.371, 4546.94
577.214, 3852.66
576.057, 3260.12
574.9, 2756.32
573.742, 2563.69
572.585, 2451.01
571.427, 2308.14
570.269, 2219.29
569.111, 2123.98
567.952, 2130.14
566.794, 2121.19
565.635, 2120.87
564.476, 1980.34
563.317, 1954.16
562.158, 2089.73
560.998, 1972.98
559.839, 2110.67
558.679, 1959.46
557.519, 2101.42
556.359, 1963.18
555.199, 1988.75
554.038, 1994.91
552.878, 1979.54
551.717, 1962.01
550.556, 2004.79
549.395, 2010.95
548.233, 2032.17
547.072, 1999.58
545.91, 1977.76
544.748, 1971.01
543.586, 2005.14
542.424, 2002.69
541.262, 2026.05
540.099, 2032.2
538.937, 2051.25
537.774, 1960.65
536.611, 2044.19
535.447, 2018.09
534.284, 2034.98
533.12, 1980.96
531.957, 1995.7
530.793, 2040.51
529.629, 2091.75
528.464, 2039.9
527.3, 2159.83
526.135, 2196
524.971, 2210.69
523.806, 2261.86
522.64, 2392.41
521.475, 2398.49
520.31, 2571.88
519.144, 2693.74
517.978, 2770.54
516.812, 2973.81
515.646, 3080.55
514.48, 3240.84
513.313, 3109.63
512.146, 3237.73
510.979, 3273.67
509.812, 3241.05
508.645, 3371.22
507.478, 3529.18
506.31, 3832.7
505.142, 4570.72
503.974, 5670.27
502.806, 7165.43
501.638, 9434.79
500.47, 12067.2
499.301, 14715.9
498.132, 16243.1
496.963, 16833
495.794, 16206.1
494.625, 14230.3
493.455, 12554.4
492.285, 11165.4
491.116, 10484.2
489.946, 9768.96
488.775, 8900.13
487.605, 7796.59
486.434, 6543.89
485.264, 5406.87
484.093, 4537.08
482.922, 3951.47
481.75, 3696.88
480.579, 3474.37
479.407, 3484.52
478.236, 3513.87
477.064, 3811.99
475.892, 4011.9
474.719, 4395.16
473.547, 4906.24
472.374, 5466.19
471.201, 6038.77
470.028, 6210.49
468.855, 6256.44
467.682, 6359.91
466.508, 6565.59
465.334, 6668.98
464.16, 6946.97
462.986, 6762.8
461.812, 6512.69
460.638, 5775.19
459.463, 5169.86
458.288, 4585.99
457.113, 4153.37
455.938, 3835.76
454.763, 3677.78
453.588, 3621.93
452.412, 3659.67
451.236, 3880.24
450.06, 4221.92
448.884, 4669.77
447.708, 5315.13
446.531, 5985.8
445.354, 6596.77
444.177, 6986.64
443, 7234.1
441.823, 7430.51
440.646, 7002.61
439.468, 6509.03
438.29, 6164.19
437.112, 5872.5
435.934, 5623.35
434.756, 5399.72
433.577, 5034.04
432.399, 4636.64
431.22, 4237.25
430.041, 3710.75
428.862, 3273.45
427.682, 3046.14
426.503, 2821.02
425.323, 2663.78
424.143, 2610.41
422.963, 2495.61
421.783, 2491
420.602, 2435.56
419.422, 2337.79
418.241, 2367.08
417.06, 2419.65
415.879, 2355.79
414.698, 2389.3
413.516, 2424.91
412.335, 2441.47
411.153, 2445.33
409.971, 2523.22
408.788, 2533.42
407.606, 2598.58
406.424, 2680.64
405.241, 2720.4
404.058, 2796.08
402.875, 2899.2
401.692, 3141.74
400.508, 3259.56
399.325, 3658.27
398.141, 3985.06
396.957, 4313.86
395.773, 5090.14
394.588, 5627.65
393.404, 6156.56
392.219, 6786.61
391.034, 7028.23
389.849, 7050.38
388.664, 6675.97
387.479, 6082.34
386.293, 5509.98
385.107, 4880.86
383.921, 4397.38
382.735, 4116.39
381.549, 3875.53
380.362, 3778.02
379.176, 3931.25
377.989, 3882.21
376.802, 4007.99
375.615, 3864.2
374.427, 3810.98
373.24, 3740.93
372.052, 3437.27
370.864, 3173.68
369.676, 3046.95
368.488, 2789.81
367.299, 2665.28
366.111, 2610.19
364.922, 2468.9
363.733, 2487.45
362.544, 2409.29
361.355, 2381.6
360.165, 2320.29
358.975, 2370.38
357.786, 2344.81
356.596, 2308.74
355.405, 2392.41
354.215, 2438.26
353.024, 2509.28
351.834, 2511.01
350.643, 2584.1
349.452, 2671.86
348.26, 2665.17
347.069, 2803.25
345.877, 3075.56
344.685, 3148.51
343.493, 3320.01
342.301, 3277.58
341.109, 3316.92
339.916, 3339.48
338.723, 3366.22
337.531, 3434.88
336.337, 3570.56
335.144, 3699.92
333.951, 4005.2
332.757, 4471.66
331.563, 4877.25
330.369, 5536.07
329.175, 6171.66
327.981, 6459.59
326.786, 6464.89
325.592, 6407.42
324.397, 6205.6
323.202, 5890.88
322.006, 5833.52
320.811, 5717.62
319.615, 5472.11
318.42, 5270.58
317.224, 5062.84
316.027, 4880.24
314.831, 4495
313.635, 4076.44
312.438, 3925.41
311.241, 3801.58
310.044, 3702.85
308.847, 3890.23
307.649, 4292.59
306.452, 4886.89
305.254, 5602.06
304.056, 6565.36
302.858, 7309.28
301.66, 7833.92
300.461, 7995.44
299.262, 7656.36
298.064, 7233.98
296.864, 6738.74
295.665, 6662.67
294.466, 6490.75
293.266, 6664.83
292.067, 6613.82
290.867, 6783.66
289.666, 6426.42
288.466, 6044.3
287.266, 5676.87
286.065, 5274.16
284.864, 5210.9
283.663, 4708.46
282.462, 4632.83
281.261, 4434.44
280.059, 4306.86
278.857, 4241.72
277.655, 4270.2
276.453, 4294.51
275.251, 4368.72
274.048, 4675.76
272.846, 5007.65
271.643, 5593
270.44, 6115.84
269.237, 6692.54
268.033, 7258.68
266.83, 7965.89
265.626, 8301.14
264.422, 8603.06
263.218, 8560.23
262.014, 8397.02
260.809, 8038.75
259.604, 7076.69
258.4, 6621.2
257.195, 5906.52
255.989, 5277.11
254.784, 4896.76
253.578, 4541.42
252.373, 4432.92
251.167, 4450.91
249.961, 4520.71
248.754, 4420.55
247.548, 4496.55
246.341, 4446.15
245.134, 4478.62
243.927, 4440.66
242.72, 4483.48
241.513, 4321.29
240.305, 4273.03
239.097, 4146.11
237.889, 3870.22
236.681, 3648.22
235.473, 3566.98
234.264, 3421.63
233.056, 3392.16
231.847, 3253.08
230.638, 3331.17
229.429, 3289.31
228.219, 3218.53
227.01, 3275.92
225.8, 3339.48
224.59, 3409.23
223.38, 3505.81
222.17, 3554.85
220.959, 3667.91
219.748, 3935.8
218.538, 4294.45
217.326, 4580.74
216.115, 5329.28
214.904, 6170.47
213.692, 7341.54
212.48, 9568.55
211.268, 11448.3
210.056, 13513.2
208.844, 14997.9
207.631, 15667.8
206.419, 15096.5
205.206, 13338.1
203.993, 11613.1
202.78, 9818.67
201.566, 8537.75
200.353, 7168.65
199.139, 6405.5
197.925, 5578.73
196.711, 5444.05
195.496, 5171.48
194.282, 5370.36
193.067, 5620.64
191.852, 6241.23
190.637, 7120.88
189.422, 8080.49
188.206, 8934.92
186.991, 9782.91
185.775, 10538.1
184.559, 10686.6
183.343, 10678.8
182.126, 10397.7
180.91, 10040.6
179.693, 10098.7
178.476, 10894.2
177.259, 11650.5
176.042, 13108.9
174.824, 15109
173.606, 16184.6
172.389, 17391.3
171.17, 17421.5
169.952, 16458.4
168.734, 14773.4
167.515, 12463.2
166.297, 10412.1
165.078, 8669.27
163.858, 7234.58
162.639, 6474.87
161.42, 5565.74
160.2, 5132.41
158.98, 4924.65
157.76, 4737.44
156.54, 4507.26
155.319, 4369.33
154.099, 4423.97
152.878, 4646.51
151.657, 4914.03
150.436, 5498.78
149.359, 6136.69
148.137, 6983.05
146.916, 7816.89
145.694, 8208.53
144.472, 8123.42
143.249, 8128.32
142.027, 8096.41
140.804, 9195.26
139.581, 10547.3
138.358, 12076.7
137.135, 13863.3
135.912, 15769.8
134.688, 16836
133.465, 18132.7
132.241, 19692.5
131.016, 22048.4
129.792, 24671
128.568, 26425.1
127.343, 26312.9
126.118, 24506.7
124.893, 21803.1
123.668, 19486
122.442, 18538.4
121.217, 19374
119.991, 21604.3
118.765, 23795.1
117.539, 25436.9
116.312, 24951.9
115.086, 22848.7
113.859, 19409.3
112.632, 16056.5
111.405, 12678.2
110.178, 10350
108.95, 8698.74
107.723, 7618.14
106.495, 6808.65
105.267, 6217.25
104.039, 5896.73
102.81, 5498.98
101.582, 5284.49
100.353, 4964.26
99.1239, 4874
97.8947, 4936.31
96.6654, 5100.29
95.4358, 5414.67
94.2061, 5991.22
92.9762, 6854.2
91.7461, 7300.28
90.5158, 7278.85
89.2854, 6708.85
88.0547, 5645.38
86.8239, 4712.24
85.5929, 3960.11
84.3616, 3665.09
83.1302, 3776.19
81.8987, 3866.96
80.6669, 4006.41
79.4349, 3691.27
78.2028, 3301.14
76.9704, 2992.28
75.7379, 2535.45
74.5052, 2435.69
73.2723, 2331.9
72.0392, 2179.49
70.8059, 2059.56
##END=



