##NAMES=Margarite
##RRUFFID=R060839
##IDEAL CHEMISTRY=CaAl_2_(Si_2_Al_2_)O_10_(OH)_2_
##LOCALITY=Old Emery mine, Chester, Massachusetts, USA
##OWNER=RRUFF
##SOURCE=Michael Scott
##DESCRIPTION=Pale lilac mica associated with lilac colored axinite
##STATUS=The identification of this mineral has been confirmed by X-ray diffraction and chemical analysis
##URL=rruff.info/R060839
##MEASURED CHEMISTRY=(Ca_0.83_Na_0.17_)_Σ=1_(Al_1.97_Fe^3+^_0.02_Mg_0.01_)_Σ=2_(Si_2.18_Al_1.82_)O_10_(OH)_2_
179.8635, 15161.81
180.3457, 15163.83
180.8278, 15193.39
181.3099, 15257.17
181.7920, 15311.44
182.2741, 15323.76
182.7562, 15317.91
183.2384, 15315.78
183.7205, 15319.34
184.2026, 15333.99
184.6847, 15374.72
185.1668, 15449.24
185.6489, 15512.31
186.1311, 15530.29
186.6132, 15530.23
187.0953, 15538.48
187.5774, 15565.33
188.0595, 15598.15
188.5416, 15618.21
189.0238, 15622.66
189.5059, 15627.32
189.9880, 15645.21
190.4701, 15664.45
190.9522, 15670.59
191.4343, 15654.62
191.9165, 15634.60
192.3986, 15635.17
192.8807, 15658.62
193.3628, 15693.26
193.8449, 15745.15
194.3270, 15802.20
194.8092, 15855.00
195.2913, 15903.29
195.7734, 15942.02
196.2555, 15957.74
196.7376, 15943.26
197.2197, 15940.56
197.7019, 15977.08
198.1840, 16027.96
198.6661, 16074.77
199.1482, 16114.23
199.6303, 16144.57
200.1124, 16162.33
200.5946, 16166.41
201.0767, 16163.93
201.5588, 16145.92
202.0409, 16127.54
202.5230, 16124.10
203.0051, 16141.99
203.4873, 16162.58
203.9694, 16161.38
204.4515, 16134.71
204.9336, 16108.76
205.4157, 16084.03
205.8978, 16067.71
206.3800, 16070.53
206.8621, 16096.93
207.3442, 16126.71
207.8263, 16130.53
208.3084, 16103.82
208.7905, 16096.69
209.2727, 16136.41
209.7548, 16193.98
210.2369, 16254.50
210.7190, 16316.92
211.2011, 16364.63
211.6832, 16368.58
212.1654, 16325.66
212.6475, 16305.43
213.1296, 16346.01
213.6117, 16399.85
214.0938, 16428.83
214.5760, 16428.54
215.0581, 16422.55
215.5402, 16431.69
216.0223, 16455.81
216.5044, 16479.55
216.9865, 16498.89
217.4687, 16518.44
217.9508, 16540.93
218.4329, 16566.65
218.9150, 16596.96
219.3971, 16633.59
219.8792, 16676.47
220.3614, 16721.79
220.8435, 16767.78
221.3256, 16818.28
221.8077, 16884.71
222.2898, 16964.71
222.7719, 17027.13
223.2541, 17040.77
223.7362, 17015.32
224.2183, 17001.93
224.7004, 17017.19
225.1825, 17030.43
225.6646, 17020.21
226.1468, 16988.11
226.6289, 16941.76
227.1110, 16875.61
227.5931, 16797.34
228.0752, 16730.40
228.5573, 16676.27
229.0395, 16635.93
229.5216, 16617.38
230.0037, 16614.20
230.4858, 16604.93
230.9679, 16575.08
231.4500, 16533.65
231.9322, 16496.81
232.4143, 16462.53
232.8964, 16441.24
233.3785, 16452.97
233.8606, 16484.66
234.3427, 16505.66
234.8249, 16495.29
235.3070, 16473.04
235.7891, 16471.16
236.2712, 16494.45
236.7533, 16514.88
237.2354, 16506.16
237.7176, 16480.92
238.1997, 16466.92
238.6818, 16478.54
239.1639, 16497.83
239.6460, 16505.73
240.1281, 16502.03
240.6103, 16495.00
241.0924, 16483.46
241.5745, 16473.86
242.0566, 16482.17
242.5387, 16537.83
243.0208, 16582.03
243.5030, 16548.00
243.9851, 16447.87
244.4672, 16380.76
244.9493, 16408.87
245.4314, 16495.13
245.9135, 16542.41
246.3957, 16536.07
246.8778, 16516.30
247.3599, 16500.04
247.8420, 16487.09
248.3241, 16475.52
248.8062, 16461.66
249.2884, 16452.73
249.7705, 16465.99
250.2526, 16509.57
250.7347, 16550.14
251.2168, 16574.71
251.6989, 16588.09
252.1811, 16595.02
252.6632, 16593.69
253.1453, 16597.11
253.6274, 16633.33
254.1095, 16713.79
254.5916, 16779.95
255.0738, 16812.66
255.5559, 16828.27
256.0380, 16846.81
256.5201, 16872.90
257.0022, 16898.09
257.4843, 16907.60
257.9665, 16889.54
258.4486, 16906.61
258.9307, 16987.77
259.4128, 17087.33
259.8949, 17173.79
260.3770, 17241.94
260.8592, 17292.60
261.3413, 17322.47
261.8234, 17326.06
262.3055, 17356.44
262.7876, 17438.55
263.2697, 17522.58
263.7519, 17575.75
264.2340, 17604.24
264.7161, 17639.77
265.1982, 17709.73
265.6803, 17812.66
266.1624, 17871.11
266.6446, 17851.77
267.1267, 17830.77
267.6088, 17835.37
268.0909, 17854.54
268.5730, 17863.92
269.0551, 17848.64
269.5373, 17815.66
270.0194, 17796.32
270.5015, 17837.59
270.9836, 17837.88
271.4657, 17766.03
271.9478, 17655.86
272.4300, 17542.62
272.9121, 17440.34
273.3942, 17349.55
273.8763, 17268.27
274.3584, 17187.11
274.8405, 17135.92
275.3227, 17135.99
275.8048, 17149.81
276.2869, 17144.42
276.7690, 17113.93
277.2511, 17082.02
277.7332, 17082.75
278.2154, 17126.78
278.6975, 17168.09
279.1796, 17205.10
279.6617, 17239.47
280.1438, 17276.17
280.6259, 17312.65
281.1081, 17338.13
281.5902, 17339.58
282.0723, 17316.37
282.5544, 17296.05
283.0365, 17263.62
283.5186, 17253.03
284.0008, 17292.80
284.4829, 17364.24
284.9650, 17426.07
285.4471, 17453.48
285.9292, 17452.67
286.4113, 17442.16
286.8935, 17414.71
287.3756, 17393.14
287.8577, 17385.86
288.3398, 17390.46
288.8219, 17406.49
289.3040, 17439.37
289.7862, 17475.15
290.2683, 17485.22
290.7504, 17462.73
291.2325, 17468.31
291.7146, 17550.94
292.1967, 17660.96
292.6789, 17741.53
293.1610, 17780.75
293.6431, 17807.86
294.1252, 17841.93
294.6073, 17882.18
295.0894, 17923.09
295.5716, 17959.29
296.0537, 18001.11
296.5358, 18060.43
297.0179, 18136.43
297.5000, 18224.29
297.9821, 18329.40
298.4643, 18442.34
298.9464, 18546.65
299.4285, 18638.05
299.9106, 18725.82
300.3927, 18817.47
300.8748, 18912.62
301.3570, 19020.65
301.8391, 19149.35
302.3212, 19286.18
302.8033, 19427.80
303.2854, 19572.05
303.7675, 19703.37
304.2497, 19808.68
304.7318, 19890.11
305.2139, 19981.41
305.6960, 20097.20
306.1781, 20206.75
306.6602, 20293.16
307.1424, 20364.92
307.6245, 20441.79
308.1066, 20534.28
308.5887, 20635.18
309.0708, 20722.59
309.5529, 20789.40
310.0351, 20849.99
310.5172, 20917.96
310.9993, 20973.31
311.4814, 20996.74
311.9635, 20982.56
312.4456, 20937.31
312.9278, 20867.86
313.4099, 20765.59
313.8920, 20660.79
314.3741, 20549.13
314.8562, 20439.55
315.3383, 20338.99
315.8205, 20246.16
316.3026, 20155.26
316.7847, 20065.93
317.2668, 19978.09
317.7489, 19854.38
318.2310, 19660.31
318.7132, 19468.93
319.1953, 19288.74
319.6774, 19129.11
320.1595, 19003.44
320.6416, 18924.75
321.1237, 18876.09
321.6059, 18819.82
322.0880, 18752.22
322.5701, 18685.24
323.0522, 18605.89
323.5343, 18536.59
324.0164, 18504.18
324.4986, 18518.23
324.9807, 18545.59
325.4628, 18560.84
325.9449, 18563.38
326.4270, 18543.60
326.9091, 18486.22
327.3913, 18420.72
327.8734, 18378.06
328.3555, 18357.78
328.8376, 18343.07
329.3197, 18320.13
329.8018, 18299.98
330.2840, 18309.36
330.7661, 18356.33
331.2482, 18399.25
331.7303, 18398.71
332.2124, 18358.88
332.6945, 18329.15
333.1767, 18311.50
333.6588, 18306.24
334.1409, 18316.83
334.6230, 18341.09
335.1051, 18370.06
335.5872, 18398.69
336.0694, 18429.10
336.5515, 18470.45
337.0336, 18522.87
337.5157, 18584.43
337.9979, 18655.31
338.4800, 18735.59
338.9621, 18826.78
339.4442, 18929.16
339.9263, 19039.75
340.4084, 19153.93
340.8906, 19277.22
341.3727, 19392.06
341.8548, 19485.69
342.3369, 19582.36
342.8190, 19704.71
343.3011, 19846.46
343.7833, 19978.54
344.2654, 20075.20
344.7475, 20137.81
345.2296, 20204.62
345.7117, 20289.34
346.1938, 20360.38
346.6760, 20408.88
347.1581, 20438.84
347.6402, 20455.93
348.1223, 20462.94
348.6044, 20457.74
349.0865, 20439.70
349.5687, 20412.22
350.0508, 20356.32
350.5329, 20253.40
351.0150, 20126.81
351.4971, 19984.41
351.9792, 19827.04
352.4614, 19685.66
352.9435, 19599.30
353.4256, 19550.56
353.9077, 19467.89
354.3898, 19329.23
354.8719, 19184.71
355.3541, 19085.88
355.8362, 19022.87
356.3183, 18957.42
356.8004, 18870.55
357.2825, 18785.23
357.7646, 18723.75
358.2468, 18685.46
358.7289, 18661.76
359.2110, 18652.54
359.6931, 18651.77
360.1752, 18632.89
360.6573, 18570.62
361.1395, 18524.70
361.6216, 18522.26
362.1037, 18541.11
362.5858, 18544.63
363.0679, 18521.92
363.5500, 18500.94
364.0322, 18527.83
364.5143, 18637.69
364.9964, 18705.50
365.4785, 18709.37
365.9606, 18696.69
366.4427, 18686.34
366.9249, 18682.75
367.4070, 18685.65
367.8891, 18692.32
368.3712, 18705.33
368.8533, 18749.33
369.3354, 18851.67
369.8176, 18946.38
370.2997, 19014.26
370.7818, 19067.00
371.2639, 19116.32
371.7460, 19165.85
372.2281, 19216.61
372.7103, 19270.03
373.1924, 19325.73
373.6745, 19386.28
374.1566, 19454.46
374.6387, 19525.60
375.1208, 19594.42
375.6030, 19661.36
376.0851, 19733.34
376.5672, 19812.75
377.0493, 19900.02
377.5314, 19996.30
378.0135, 20101.85
378.4957, 20215.31
378.9778, 20340.60
379.4599, 20473.57
379.9420, 20595.44
380.4241, 20676.87
380.9063, 20776.84
381.3884, 20932.06
381.8705, 21126.53
382.3526, 21328.77
382.8347, 21526.10
383.3168, 21722.42
383.7990, 21923.49
384.2811, 22140.13
384.7632, 22342.68
385.2453, 22518.78
385.7274, 22690.74
386.2095, 22871.01
386.6917, 23061.83
387.1738, 23264.91
387.6559, 23487.06
388.1380, 23726.72
388.6201, 23909.32
389.1022, 23970.69
389.5844, 24053.15
390.0665, 24218.64
390.5486, 24413.38
391.0307, 24569.15
391.5128, 24660.94
391.9949, 24707.65
392.4771, 24732.48
392.9592, 24734.35
393.4413, 24724.07
393.9234, 24707.96
394.4055, 24673.80
394.8876, 24617.03
395.3698, 24537.31
395.8519, 24430.26
396.3340, 24281.66
396.8161, 24109.10
397.2982, 23948.80
397.7803, 23804.79
398.2625, 23634.57
398.7446, 23396.67
399.2267, 23109.31
399.7088, 22858.61
400.1909, 22674.05
400.6730, 22489.09
401.1552, 22284.61
401.6373, 22061.18
402.1194, 21804.88
402.6015, 21512.32
403.0836, 21222.47
403.5657, 21000.33
404.0479, 20882.59
404.5300, 20722.94
405.0121, 20472.43
405.4942, 20230.20
405.9763, 20054.19
406.4584, 19931.54
406.9406, 19820.38
407.4227, 19692.36
407.9048, 19553.80
408.3869, 19428.56
408.8690, 19315.80
409.3511, 19219.70
409.8333, 19154.13
410.3154, 19096.84
410.7975, 19023.12
411.2796, 18927.96
411.7617, 18842.01
412.2438, 18796.32
412.7260, 18784.97
413.2081, 18776.51
413.6902, 18767.45
414.1723, 18759.82
414.6544, 18751.47
415.1365, 18744.75
415.6187, 18750.51
416.1008, 18781.69
416.5829, 18816.55
417.0650, 18843.91
417.5471, 18862.00
418.0292, 18861.29
418.5114, 18833.63
418.9935, 18796.23
419.4756, 18786.82
419.9577, 18830.84
420.4398, 18856.76
420.9219, 18854.49
421.4041, 18839.23
421.8862, 18820.57
422.3683, 18800.30
422.8504, 18777.19
423.3325, 18749.36
423.8146, 18717.63
424.2968, 18690.31
424.7789, 18666.02
425.2610, 18648.87
425.7431, 18654.77
426.2252, 18660.72
426.7073, 18636.26
427.1895, 18571.74
427.6716, 18498.97
428.1537, 18458.89
428.6358, 18448.73
429.1179, 18422.06
429.6000, 18360.77
430.0822, 18300.70
430.5643, 18269.04
431.0464, 18262.13
431.5285, 18271.12
432.0106, 18293.67
432.4927, 18331.10
432.9749, 18394.90
433.4570, 18478.02
433.9391, 18548.62
434.4212, 18590.32
434.9033, 18614.56
435.3854, 18647.51
435.8676, 18692.22
436.3497, 18740.05
436.8318, 18797.93
437.3139, 18853.55
437.7960, 18896.60
438.2781, 18927.23
438.7603, 18954.76
439.2424, 18988.51
439.7245, 19026.16
440.2066, 19043.23
440.6887, 19023.94
441.1708, 19006.82
441.6530, 19005.54
442.1351, 19008.32
442.6172, 19001.92
443.0993, 18982.58
443.5814, 18959.99
444.0635, 18953.49
444.5457, 18956.80
445.0278, 18919.40
445.5099, 18818.25
445.9920, 18712.60
446.4741, 18663.51
446.9562, 18652.92
447.4384, 18620.14
447.9205, 18539.30
448.4026, 18447.45
448.8847, 18364.90
449.3668, 18291.71
449.8489, 18231.63
450.3311, 18187.59
450.8132, 18146.61
451.2953, 18082.36
451.7774, 17964.77
452.2595, 17896.87
452.7416, 17920.80
453.2238, 17953.71
453.7059, 17945.95
454.1880, 17904.99
454.6701, 17865.56
455.1522, 17850.71
455.6343, 17852.51
456.1165, 17845.93
456.5986, 17829.01
457.0807, 17808.13
457.5628, 17774.13
458.0449, 17743.30
458.5270, 17730.22
459.0092, 17735.78
459.4913, 17744.23
459.9734, 17746.53
460.4555, 17744.46
460.9376, 17742.46
461.4197, 17741.05
461.9019, 17735.82
462.3840, 17722.69
462.8661, 17703.70
463.3482, 17687.33
463.8303, 17664.44
464.3124, 17656.19
464.7946, 17682.62
465.2767, 17720.85
465.7588, 17745.94
466.2409, 17751.60
466.7230, 17739.19
467.2051, 17705.70
467.6873, 17647.72
468.1694, 17616.35
468.6515, 17639.93
469.1336, 17659.24
469.6157, 17650.13
470.0978, 17631.23
470.5800, 17632.89
471.0621, 17667.95
471.5442, 17703.77
472.0263, 17693.05
472.5084, 17639.86
472.9905, 17605.38
473.4727, 17600.66
473.9548, 17613.22
474.4369, 17644.93
474.9190, 17688.46
475.4011, 17711.65
475.8832, 17689.47
476.3654, 17662.93
476.8475, 17658.88
477.3296, 17672.67
477.8117, 17691.93
478.2938, 17712.17
478.7759, 17733.60
479.2581, 17756.93
479.7402, 17785.30
480.2223, 17807.76
480.7044, 17818.83
481.1865, 17830.30
481.6686, 17854.27
482.1508, 17882.94
482.6329, 17895.32
483.1150, 17875.44
483.5971, 17846.47
484.0792, 17861.79
484.5613, 17930.16
485.0435, 17986.89
485.5256, 18017.22
486.0077, 18029.88
486.4898, 18029.06
486.9719, 18016.19
487.4540, 18008.83
487.9362, 18014.35
488.4183, 18027.68
488.9004, 18055.55
489.3825, 18090.88
489.8646, 18094.19
490.3467, 18040.64
490.8289, 17955.04
491.3110, 17896.87
491.7931, 17892.57
492.2752, 17872.79
492.7573, 17816.48
493.2394, 17761.93
493.7216, 17746.48
494.2037, 17758.78
494.6858, 17753.61
495.1679, 17695.02
495.6500, 17605.08
496.1321, 17554.05
496.6143, 17552.54
497.0964, 17554.70
497.5785, 17546.27
498.0606, 17538.51
498.5427, 17548.78
499.0248, 17576.88
499.5070, 17585.26
499.9891, 17533.11
500.4712, 17464.16
500.9533, 17439.00
501.4355, 17456.93
501.9176, 17483.06
502.3997, 17501.36
502.8818, 17510.00
503.3639, 17503.21
503.8460, 17466.24
504.3282, 17435.36
504.8103, 17412.76
505.2924, 17395.79
505.7745, 17384.98
506.2566, 17378.52
506.7387, 17371.76
507.2209, 17361.57
507.7030, 17348.39
508.1851, 17332.48
508.6672, 17311.88
509.1493, 17294.79
509.6314, 17280.38
510.1136, 17273.16
510.5957, 17284.15
511.0778, 17313.67
511.5599, 17328.00
512.0420, 17289.82
512.5241, 17241.10
513.0062, 17245.30
513.4883, 17296.45
513.9705, 17328.23
514.4526, 17299.22
514.9347, 17236.22
515.4168, 17212.53
515.8989, 17272.96
516.3810, 17304.95
516.8632, 17293.13
517.3453, 17265.80
517.8274, 17234.37
518.3095, 17204.20
518.7916, 17183.40
519.2737, 17181.29
519.7559, 17186.67
520.2380, 17164.07
520.7201, 17104.36
521.2022, 17068.15
521.6843, 17081.82
522.1664, 17117.75
522.6486, 17155.03
523.1307, 17193.31
523.6128, 17204.09
524.0949, 17148.24
524.5770, 17083.71
525.0591, 17071.94
525.5413, 17101.13
526.0234, 17119.11
526.5055, 17100.21
526.9876, 17061.74
527.4697, 17039.41
527.9518, 17042.14
528.4340, 17042.36
528.9161, 17042.01
529.3982, 17038.03
529.8803, 17025.66
530.3624, 17008.85
530.8445, 16996.96
531.3267, 16996.14
531.8088, 16998.47
532.2909, 16987.78
532.7730, 16964.92
533.2551, 16958.19
533.7372, 16985.86
534.2194, 17008.57
534.7015, 16970.92
535.1836, 16879.15
535.6657, 16823.06
536.1478, 16828.24
536.6299, 16854.09
537.1121, 16887.39
537.5942, 16923.88
538.0763, 16961.22
538.5584, 16997.95
539.0405, 17024.10
539.5226, 17021.36
540.0048, 16982.38
540.4869, 16965.43
540.9690, 17001.21
541.4511, 17019.76
541.9332, 16977.42
542.4153, 16910.24
542.8975, 16874.62
543.3796, 16892.00
543.8617, 16913.05
544.3438, 16892.46
544.8259, 16845.75
545.3080, 16811.10
545.7902, 16794.18
546.2723, 16789.42
546.7544, 16795.07
547.2365, 16809.58
547.7186, 16819.13
548.2007, 16833.20
548.6829, 16830.67
549.1650, 16790.73
549.6471, 16744.07
550.1292, 16717.45
550.6113, 16714.44
551.0934, 16725.66
551.5756, 16751.09
552.0577, 16781.48
552.5398, 16773.67
553.0219, 16714.22
553.5040, 16671.87
553.9861, 16685.88
554.4683, 16716.63
554.9504, 16705.53
555.4325, 16646.76
555.9146, 16615.19
556.3967, 16660.14
556.8788, 16721.38
557.3610, 16751.81
557.8431, 16751.60
558.3252, 16730.09
558.8073, 16690.46
559.2894, 16644.48
559.7715, 16616.34
560.2537, 16611.06
560.7358, 16610.11
561.2179, 16620.17
561.7000, 16627.76
562.1821, 16625.10
562.6642, 16616.08
563.1464, 16610.41
563.6285, 16615.09
564.1106, 16615.36
564.5927, 16594.10
565.0748, 16555.61
565.5569, 16512.85
566.0391, 16466.94
566.5212, 16426.49
567.0033, 16399.88
567.4854, 16386.57
567.9675, 16374.43
568.4496, 16361.55
568.9318, 16352.21
569.4139, 16345.61
569.8960, 16344.16
570.3781, 16353.45
570.8602, 16372.40
571.3423, 16390.58
571.8245, 16398.62
572.3066, 16398.88
572.7887, 16398.71
573.2708, 16397.12
573.7529, 16402.49
574.2350, 16428.69
574.7172, 16454.20
575.1993, 16439.38
575.6814, 16376.03
576.1635, 16343.67
576.6456, 16392.45
577.1277, 16450.20
577.6099, 16461.68
578.0920, 16437.79
578.5741, 16416.34
579.0562, 16414.53
579.5383, 16416.42
580.0204, 16387.52
580.5026, 16313.69
580.9847, 16278.27
581.4668, 16302.03
581.9489, 16341.04
582.4310, 16390.41
582.9132, 16435.49
583.3953, 16444.93
583.8774, 16397.24
584.3596, 16352.90
584.8417, 16368.54
585.3238, 16407.88
585.8059, 16398.61
586.2880, 16334.75
586.7701, 16277.95
587.2523, 16278.84
587.7344, 16321.62
588.2165, 16322.69
588.6986, 16218.60
589.1807, 16176.44
589.6628, 16269.49
590.1450, 16373.40
590.6271, 16400.30
591.1092, 16358.37
591.5913, 16310.55
592.0734, 16282.98
592.5555, 16275.89
593.0377, 16305.94
593.5198, 16363.38
594.0019, 16383.39
594.4840, 16342.72
594.9661, 16281.05
595.4482, 16238.32
595.9304, 16214.06
596.4125, 16214.19
596.8946, 16254.60
597.3767, 16296.99
597.8588, 16340.92
598.3409, 16375.97
598.8231, 16383.69
599.3052, 16364.00
599.7873, 16345.62
600.2694, 16364.58
600.7515, 16405.09
601.2336, 16405.82
601.7158, 16361.51
602.1979, 16325.88
602.6800, 16327.19
603.1621, 16342.12
603.6442, 16321.57
604.1263, 16247.31
604.6085, 16229.01
605.0906, 16344.78
605.5727, 16454.25
606.0548, 16463.04
606.5369, 16408.37
607.0190, 16368.38
607.5012, 16373.75
607.9833, 16396.96
608.4654, 16400.38
608.9475, 16384.60
609.4296, 16377.08
609.9117, 16379.63
610.3939, 16388.39
610.8760, 16408.32
611.3581, 16430.35
611.8402, 16434.86
612.3223, 16413.32
612.8044, 16396.96
613.2866, 16405.45
613.7687, 16414.84
614.2508, 16399.62
614.7329, 16365.06
615.2150, 16333.52
615.6971, 16317.43
616.1793, 16310.64
616.6614, 16296.96
617.1435, 16272.07
617.6256, 16274.25
618.1077, 16330.08
618.5898, 16379.34
619.0720, 16375.40
619.5541, 16337.88
620.0362, 16304.35
620.5183, 16268.62
621.0004, 16259.70
621.4825, 16328.75
621.9647, 16411.44
622.4468, 16411.20
622.9289, 16333.59
623.4110, 16270.27
623.8931, 16287.16
624.3752, 16355.62
624.8574, 16385.57
625.3395, 16364.38
625.8216, 16348.23
626.3037, 16350.88
626.7858, 16353.61
627.2679, 16340.43
627.7501, 16317.29
628.2322, 16302.83
628.7143, 16306.67
629.1964, 16313.14
629.6785, 16314.94
630.1606, 16312.59
630.6428, 16306.41
631.1249, 16296.71
631.6070, 16282.40
632.0891, 16259.55
632.5712, 16235.13
633.0533, 16246.03
633.5355, 16312.70
634.0176, 16361.74
634.4997, 16367.34
634.9818, 16362.26
635.4639, 16369.66
635.9460, 16386.07
636.4282, 16394.63
636.9103, 16382.05
637.3924, 16368.88
637.8745, 16364.32
638.3566, 16370.23
638.8387, 16395.21
639.3209, 16438.62
639.8030, 16482.03
640.2851, 16509.83
640.7672, 16522.45
641.2493, 16518.94
641.7314, 16484.07
642.2136, 16468.71
642.6957, 16507.03
643.1778, 16548.30
643.6599, 16550.30
644.1420, 16520.10
644.6241, 16501.35
645.1063, 16513.95
645.5884, 16537.15
646.0705, 16561.74
646.5526, 16585.73
647.0347, 16611.49
647.5168, 16636.97
647.9990, 16640.98
648.4811, 16598.73
648.9632, 16519.84
649.4453, 16472.13
649.9274, 16464.16
650.4095, 16465.84
650.8917, 16474.88
651.3738, 16488.04
651.8559, 16503.62
652.3380, 16521.06
652.8201, 16538.25
653.3022, 16551.43
653.7844, 16567.01
654.2665, 16601.52
654.7486, 16636.56
655.2307, 16632.23
655.7128, 16585.46
656.1949, 16539.95
656.6771, 16534.51
657.1592, 16563.36
657.6413, 16601.50
658.1234, 16659.32
658.6055, 16690.38
659.0876, 16657.12
659.5698, 16621.62
660.0519, 16652.48
660.5340, 16734.62
661.0161, 16781.29
661.4982, 16732.37
661.9803, 16691.74
662.4625, 16726.26
662.9446, 16793.96
663.4267, 16839.89
663.9088, 16854.81
664.3909, 16856.01
664.8730, 16854.54
665.3552, 16854.28
665.8373, 16868.42
666.3194, 16898.08
666.8015, 16937.47
667.2836, 16996.61
667.7657, 17048.97
668.2479, 17064.77
668.7300, 17050.80
669.2121, 17041.79
669.6942, 17028.77
670.1763, 17035.56
670.6584, 17093.95
671.1406, 17160.75
671.6227, 17189.42
672.1048, 17178.78
672.5869, 17156.82
673.0690, 17142.90
673.5511, 17128.65
674.0333, 17090.46
674.5154, 17028.54
674.9975, 16986.66
675.4796, 16977.65
675.9617, 16976.67
676.4438, 16966.32
676.9260, 16947.15
677.4081, 16923.44
677.8902, 16885.91
678.3723, 16857.16
678.8544, 16851.06
679.3365, 16845.92
679.8187, 16821.36
680.3008, 16782.79
680.7829, 16751.26
681.2650, 16739.77
681.7471, 16731.63
682.2292, 16707.87
682.7114, 16669.27
683.1935, 16612.02
683.6756, 16533.93
684.1577, 16467.18
684.6398, 16434.24
685.1219, 16427.98
685.6041, 16425.49
686.0862, 16439.33
686.5683, 16435.05
687.0504, 16402.02
687.5325, 16363.19
688.0146, 16325.75
688.4968, 16292.13
688.9789, 16266.15
689.4610, 16250.10
689.9431, 16235.30
690.4252, 16209.21
690.9073, 16182.46
691.3895, 16173.30
691.8716, 16181.99
692.3537, 16203.64
692.8358, 16237.80
693.3179, 16271.13
693.8000, 16276.33
694.2822, 16244.80
694.7643, 16222.50
695.2464, 16211.38
695.7285, 16206.67
696.2106, 16215.77
696.6927, 16225.22
697.1749, 16212.06
697.6570, 16169.70
698.1391, 16144.58
698.6212, 16168.61
699.1033, 16204.38
699.5854, 16221.58
700.0676, 16225.79
700.5497, 16230.97
701.0318, 16242.23
701.5139, 16259.69
701.9960, 16284.25
702.4781, 16315.39
702.9603, 16349.70
703.4424, 16387.43
703.9245, 16428.21
704.4066, 16473.74
704.8887, 16520.54
705.3708, 16559.34
705.8530, 16589.00
706.3351, 16645.88
706.8172, 16770.99
707.2993, 16875.75
707.7814, 16916.11
708.2635, 16929.93
708.7457, 16954.14
709.2278, 16994.54
709.7099, 17042.88
710.1920, 17104.63
710.6741, 17156.17
711.1563, 17152.02
711.6384, 17101.89
712.1205, 17056.56
712.6026, 17027.71
713.0847, 16989.06
713.5668, 16916.23
714.0490, 16816.76
714.5311, 16728.14
715.0132, 16656.27
715.4953, 16585.82
715.9774, 16519.94
716.4595, 16451.06
716.9417, 16375.44
717.4238, 16293.19
717.9059, 16202.25
718.3880, 16093.84
718.8701, 16001.40
719.3522, 15959.44
719.8344, 15936.36
720.3165, 15890.21
720.7986, 15823.24
721.2807, 15762.91
721.7628, 15723.48
722.2449, 15686.18
722.7271, 15613.73
723.2092, 15504.04
723.6913, 15420.74
724.1734, 15372.27
724.6555, 15329.30
725.1376, 15278.29
725.6198, 15226.24
726.1019, 15183.98
726.5840, 15151.78
727.0661, 15126.74
727.5482, 15128.09
728.0303, 15115.32
728.5125, 15061.67
728.9946, 14988.72
729.4767, 14919.24
729.9588, 14859.82
730.4409, 14810.17
730.9230, 14764.32
731.4052, 14732.61
731.8873, 14748.56
732.3694, 14798.18
732.8515, 14807.87
733.3336, 14757.65
733.8157, 14698.48
734.2979, 14677.68
734.7800, 14688.66
735.2621, 14686.95
735.7442, 14667.61
736.2263, 14645.57
736.7084, 14621.03
737.1906, 14595.25
737.6727, 14565.71
738.1548, 14535.90
738.6369, 14515.70
739.1190, 14513.85
739.6011, 14506.56
740.0833, 14469.98
740.5654, 14433.24
741.0475, 14432.20
741.5296, 14457.03
742.0117, 14474.31
742.4938, 14468.96
742.9760, 14451.67
743.4581, 14448.86
743.9402, 14450.24
744.4223, 14372.21
744.9044, 14200.33
745.3865, 14081.97
745.8687, 14088.46
746.3508, 14160.26
746.8329, 14215.78
747.3150, 14254.08
747.7971, 14279.08
748.2792, 14292.88
748.7614, 14290.49
749.2435, 14252.61
749.7256, 14210.81
750.2077, 14198.36
750.6898, 14213.16
751.1719, 14222.64
751.6541, 14217.25
752.1362, 14196.32
752.6183, 14140.66
753.1004, 14076.74
753.5825, 14057.64
754.0646, 14082.86
754.5468, 14100.64
755.0289, 14073.65
755.5110, 14025.78
755.9931, 14012.82
756.4752, 14036.23
756.9573, 14047.67
757.4395, 14040.03
757.9216, 14029.08
758.4037, 14023.08
758.8858, 14020.58
759.3679, 14019.06
759.8500, 14022.43
760.3322, 14016.54
760.8143, 13989.52
761.2964, 13966.67
761.7785, 13962.38
762.2606, 13965.63
762.7427, 13959.17
763.2249, 13941.02
763.7070, 13930.00
764.1891, 13944.88
764.6712, 13965.51
765.1533, 13977.02
765.6354, 13976.09
766.1176, 13947.23
766.5997, 13891.37
767.0818, 13844.10
767.5639, 13839.24
768.0460, 13859.65
768.5281, 13843.38
769.0103, 13783.21
769.4924, 13758.23
769.9745, 13793.45
770.4566, 13831.76
770.9387, 13830.08
771.4208, 13803.74
771.9030, 13803.72
772.3851, 13862.37
772.8672, 13880.43
773.3493, 13811.87
773.8314, 13747.71
774.3135, 13733.39
774.7957, 13750.75
775.2778, 13779.54
775.7599, 13814.26
776.2420, 13822.70
776.7241, 13758.62
777.2062, 13679.43
777.6884, 13651.46
778.1705, 13658.33
778.6526, 13655.58
779.1347, 13633.27
779.6168, 13616.08
780.0989, 13628.99
780.5811, 13660.11
781.0632, 13666.08
781.5453, 13644.08
782.0274, 13639.63
782.5095, 13666.27
782.9916, 13693.34
783.4738, 13699.13
783.9559, 13688.45
784.4380, 13677.39
784.9201, 13658.57
785.4022, 13653.06
785.8843, 13670.97
786.3665, 13690.36
786.8486, 13712.21
787.3307, 13724.36
787.8128, 13701.50
788.2949, 13638.36
788.7770, 13592.42
789.2592, 13603.92
789.7413, 13634.29
790.2234, 13659.62
790.7055, 13676.43
791.1876, 13680.48
791.6697, 13671.21
792.1519, 13649.82
792.6340, 13613.22
793.1161, 13572.79
793.5982, 13556.70
794.0803, 13563.22
794.5624, 13571.78
795.0446, 13580.48
795.5267, 13580.58
796.0088, 13563.84
796.4909, 13537.93
796.9730, 13524.37
797.4551, 13530.90
797.9373, 13527.63
798.4194, 13502.31
798.9015, 13482.78
799.3836, 13488.16
799.8657, 13499.12
800.3478, 13489.50
800.8300, 13456.91
801.3121, 13431.36
801.7942, 13424.13
802.2763, 13422.23
802.7584, 13410.69
803.2405, 13405.79
803.7227, 13441.82
804.2048, 13508.60
804.6869, 13546.64
805.1690, 13512.63
805.6511, 13459.17
806.1332, 13452.26
806.6154, 13477.86
807.0975, 13503.31
807.5796, 13524.16
808.0617, 13538.14
808.5438, 13543.75
809.0259, 13544.33
809.5081, 13546.80
809.9902, 13551.76
810.4723, 13541.48
810.9544, 13507.77
811.4365, 13484.95
811.9186, 13485.26
812.4008, 13500.50
812.8829, 13526.97
813.3650, 13564.25
813.8471, 13586.07
814.3292, 13589.28
814.8113, 13582.02
815.2935, 13560.76
815.7756, 13533.84
816.2577, 13501.97
816.7398, 13469.84
817.2219, 13445.01
817.7040, 13427.90
818.1862, 13426.44
818.6683, 13465.62
819.1504, 13506.70
819.6325, 13512.80
820.1146, 13487.57
820.5967, 13437.30
821.0789, 13367.44
821.5610, 13300.86
822.0431, 13258.76
822.5252, 13236.31
823.0073, 13226.68
823.4894, 13227.96
823.9716, 13227.82
824.4537, 13224.09
824.9358, 13206.93
825.4179, 13163.71
825.9000, 13110.43
826.3821, 13103.18
826.8643, 13161.49
827.3464, 13189.53
827.8285, 13166.52
828.3106, 13144.81
828.7927, 13155.01
829.2748, 13176.48
829.7570, 13173.47
830.2391, 13141.78
830.7212, 13125.24
831.2033, 13142.58
831.6854, 13155.97
832.1675, 13158.85
832.6497, 13148.54
833.1318, 13109.81
833.6139, 13054.29
834.0960, 13026.75
834.5781, 13060.00
835.0602, 13088.16
835.5424, 13053.35
836.0245, 12997.14
836.5066, 12968.37
836.9887, 12964.34
837.4708, 12964.90
837.9529, 12962.02
838.4351, 12957.22
838.9172, 12956.28
839.3993, 12953.61
839.8814, 12926.22
840.3635, 12878.65
840.8456, 12848.46
841.3278, 12846.13
841.8099, 12846.75
842.2920, 12827.08
842.7741, 12796.80
843.2562, 12795.29
843.7383, 12834.29
844.2205, 12847.69
844.7026, 12820.88
845.1847, 12788.89
845.6668, 12769.18
846.1489, 12754.58
846.6310, 12726.52
847.1132, 12672.89
847.5953, 12664.31
848.0774, 12753.02
848.5595, 12818.78
849.0416, 12811.48
849.5237, 12783.04
850.0059, 12785.25
850.4880, 12809.95
850.9701, 12807.60
851.4522, 12747.84
851.9343, 12690.48
852.4164, 12667.72
852.8986, 12658.89
853.3807, 12646.04
853.8628, 12631.27
854.3449, 12624.93
854.8270, 12629.84
855.3091, 12634.64
855.7913, 12628.14
856.2734, 12616.05
856.7555, 12609.64
857.2376, 12605.30
857.7197, 12586.44
858.2018, 12552.30
858.6840, 12531.45
859.1661, 12547.02
859.6482, 12579.98
860.1303, 12587.91
860.6124, 12571.47
861.0945, 12560.92
861.5767, 12560.65
862.0588, 12546.36
862.5409, 12504.82
863.0230, 12449.10
863.5051, 12392.46
863.9872, 12334.26
864.4694, 12313.12
864.9515, 12353.10
865.4336, 12380.47
865.9157, 12380.08
866.3978, 12365.58
866.8799, 12328.26
867.3621, 12285.66
867.8442, 12293.53
868.3263, 12392.53
868.8084, 12450.13
869.2905, 12423.43
869.7726, 12382.27
870.2548, 12346.72
870.7369, 12323.57
871.2190, 12329.73
871.7011, 12361.33
872.1832, 12369.91
872.6653, 12301.89
873.1475, 12243.75
873.6296, 12264.54
874.1117, 12312.97
874.5938, 12329.27
875.0759, 12317.52
875.5580, 12314.16
876.0402, 12335.16
876.5223, 12355.24
877.0044, 12345.03
877.4865, 12320.16
877.9686, 12304.75
878.4507, 12299.04
878.9329, 12300.90
879.4150, 12309.70
879.8971, 12326.31
880.3792, 12352.18
880.8613, 12384.46
881.3434, 12423.81
881.8256, 12467.42
882.3077, 12475.65
882.7898, 12442.33
883.2719, 12410.12
883.7540, 12398.88
884.2361, 12402.15
884.7183, 12413.44
885.2004, 12432.92
885.6825, 12430.39
886.1646, 12395.15
886.6467, 12371.13
887.1288, 12369.67
887.6110, 12377.72
888.0931, 12381.95
888.5752, 12388.38
889.0573, 12419.33
889.5394, 12493.10
890.0215, 12552.55
890.5037, 12607.26
890.9858, 12636.37
891.4679, 12602.77
891.9500, 12559.51
892.4321, 12569.80
892.9142, 12632.29
893.3964, 12685.62
893.8785, 12701.23
894.3606, 12727.88
894.8427, 12806.87
895.3248, 12878.71
895.8069, 12875.80
896.2891, 12835.76
896.7712, 12841.32
897.2533, 12916.14
897.7354, 13004.80
898.2175, 13091.29
898.6996, 13162.88
899.1818, 13204.11
899.6639, 13226.07
900.1460, 13237.22
900.6281, 13245.73
901.1102, 13273.10
901.5923, 13334.52
902.0745, 13404.37
902.5566, 13441.34
903.0387, 13472.82
903.5208, 13568.80
904.0029, 13709.69
904.4850, 13806.24
904.9672, 13832.12
905.4493, 13847.33
905.9314, 13909.55
906.4135, 13999.45
906.8956, 14068.01
907.3777, 14118.73
907.8599, 14180.00
908.3420, 14255.19
908.8241, 14325.94
909.3062, 14382.10
909.7883, 14431.00
910.2704, 14485.09
910.7526, 14543.79
911.2347, 14590.83
911.7168, 14622.11
912.1990, 14673.55
912.6811, 14766.94
913.1632, 14838.64
913.6453, 14833.76
914.1274, 14774.97
914.6096, 14733.06
915.0917, 14707.68
915.5738, 14701.63
916.0559, 14726.73
916.5380, 14748.94
917.0201, 14751.43
917.5023, 14751.39
917.9844, 14779.73
918.4665, 14832.27
918.9486, 14829.09
919.4307, 14710.88
919.9128, 14627.02
920.3950, 14609.65
920.8771, 14601.35
921.3592, 14584.48
921.8413, 14554.12
922.3234, 14492.79
922.8055, 14395.43
923.2877, 14338.42
923.7698, 14391.06
924.2519, 14414.99
924.7340, 14342.96
925.2161, 14241.57
925.6982, 14158.62
926.1804, 14094.82
926.6625, 14038.21
927.1446, 13986.93
927.6267, 13936.74
928.1088, 13880.97
928.5909, 13829.83
929.0731, 13804.37
929.5552, 13779.13
930.0373, 13705.90
930.5194, 13595.32
931.0015, 13519.45
931.4836, 13523.78
931.9658, 13533.14
932.4479, 13481.76
932.9300, 13409.05
933.4121, 13352.48
933.8942, 13314.58
934.3763, 13305.58
934.8585, 13320.00
935.3406, 13307.50
935.8227, 13216.68
936.3048, 13107.70
936.7869, 13064.38
937.2690, 13055.77
937.7512, 13016.88
938.2333, 12950.79
938.7154, 12898.93
939.1975, 12877.45
939.6796, 12867.22
940.1617, 12855.99
940.6439, 12835.42
941.1260, 12772.73
941.6081, 12683.13
942.0902, 12633.52
942.5723, 12629.81
943.0544, 12621.44
943.5366, 12579.68
944.0187, 12525.00
944.5008, 12488.18
944.9829, 12466.24
945.4650, 12445.23
945.9471, 12424.94
946.4293, 12399.41
946.9114, 12366.90
947.3935, 12337.85
947.8756, 12321.15
948.3577, 12309.74
948.8398, 12284.15
949.3220, 12244.04
949.8041, 12226.51
950.2862, 12236.52
950.7683, 12227.58
951.2504, 12179.64
951.7325, 12133.90
952.2147, 12133.32
952.6968, 12162.17
953.1789, 12154.06
953.6610, 12099.90
954.1431, 12060.93
954.6252, 12044.32
955.1074, 12029.52
955.5895, 12009.99
956.0716, 11984.60
956.5537, 11949.56
957.0358, 11906.66
957.5179, 11879.15
958.0001, 11873.56
958.4822, 11865.41
958.9643, 11854.11
959.4464, 11837.30
959.9285, 11813.16
960.4106, 11783.51
960.8928, 11748.93
961.3749, 11708.80
961.8570, 11679.65
962.3391, 11668.13
962.8212, 11655.00
963.3033, 11635.65
963.7855, 11616.95
964.2676, 11603.70
964.7497, 11593.19
965.2318, 11582.54
965.7139, 11575.02
966.1960, 11549.07
966.6782, 11479.50
967.1603, 11426.51
967.6424, 11403.61
968.1245, 11396.91
968.6066, 11408.47
969.0887, 11427.17
969.5709, 11424.96
970.0530, 11393.05
970.5351, 11369.94
971.0172, 11371.59
971.4993, 11364.96
971.9814, 11326.07
972.4636, 11288.38
972.9457, 11283.68
973.4278, 11302.89
973.9099, 11316.48
974.3920, 11324.38
974.8741, 11317.21
975.3563, 11294.36
975.8384, 11255.08
976.3205, 11170.18
976.8026, 11091.01
977.2847, 11077.87
977.7668, 11116.27
978.2490, 11133.76
978.7311, 11101.29
979.2132, 11087.80
979.6953, 11137.01
980.1774, 11177.46
980.6595, 11171.42
981.1417, 11139.00
981.6238, 11094.94
982.1059, 11046.14
982.5880, 11012.85
983.0701, 11005.56
983.5522, 11002.48
984.0344, 10994.42
984.5165, 10991.26
984.9986, 11006.47
985.4807, 11025.56
985.9628, 11033.94
986.4449, 11028.26
986.9271, 11002.20
987.4092, 10936.36
987.8913, 10881.36
988.3734, 10867.77
988.8555, 10859.60
989.3376, 10823.30
989.8198, 10781.19
990.3019, 10773.05
990.7840, 10799.14
991.2661, 10813.49
991.7482, 10798.61
992.2303, 10770.69
992.7125, 10719.58
993.1946, 10674.79
993.6767, 10660.19
994.1588, 10666.66
994.6409, 10681.07
995.1230, 10699.91
995.6052, 10716.60
996.0873, 10723.77
996.5694, 10735.04
997.0515, 10758.76
997.5336, 10787.01
998.0157, 10823.73
998.4979, 10855.64
998.9800, 10854.22
999.4621, 10818.46
999.9442, 10797.39
1000.426, 10839.88
1000.908, 10863.56
1001.391, 10797.90
1001.873, 10725.94
1002.355, 10725.20
1002.837, 10766.10
1003.319, 10791.11
1003.801, 10788.79
1004.283, 10776.94
1004.765, 10754.68
1005.247, 10735.86
1005.730, 10726.59
1006.212, 10724.25
1006.694, 10725.81
1007.176, 10732.99
1007.658, 10760.97
1008.140, 10808.77
1008.622, 10817.50
1009.104, 10723.04
1009.587, 10635.36
1010.069, 10607.17
1010.551, 10606.26
1011.033, 10619.21
1011.515, 10633.10
1011.997, 10627.19
1012.479, 10598.86
1012.961, 10576.12
1013.443, 10566.30
1013.926, 10569.36
1014.408, 10606.52
1014.890, 10636.44
1015.372, 10603.01
1015.854, 10547.53
1016.336, 10558.08
1016.818, 10645.03
1017.300, 10693.23
1017.783, 10624.00
1018.265, 10558.41
1018.747, 10556.69
1019.229, 10564.39
1019.711, 10536.73
1020.193, 10491.35
1020.675, 10457.99
1021.157, 10441.95
1021.639, 10444.03
1022.122, 10495.52
1022.604, 10522.17
1023.086, 10482.20
1023.568, 10426.90
1024.050, 10379.98
1024.532, 10347.42
1025.014, 10339.01
1025.496, 10354.14
1025.979, 10363.62
1026.461, 10349.53
1026.943, 10344.15
1027.425, 10371.45
1027.907, 10393.04
1028.389, 10370.69
1028.871, 10336.53
1029.353, 10337.91
1029.835, 10377.30
1030.318, 10422.58
1030.800, 10504.25
1031.282, 10537.58
1031.764, 10472.94
1032.246, 10395.74
1032.728, 10328.80
1033.210, 10287.84
1033.692, 10310.56
1034.174, 10389.51
1034.657, 10420.58
1035.139, 10354.38
1035.621, 10301.58
1036.103, 10271.53
1036.585, 10256.60
1037.067, 10258.06
1037.549, 10270.17
1038.031, 10297.66
1038.514, 10335.34
1038.996, 10336.56
1039.478, 10259.26
1039.960, 10218.69
1040.442, 10244.50
1040.924, 10265.50
1041.406, 10259.17
1041.888, 10235.70
1042.370, 10196.18
1042.853, 10147.32
1043.335, 10125.07
1043.817, 10143.06
1044.299, 10154.74
1044.781, 10166.33
1045.263, 10157.69
1045.745, 10108.71
1046.227, 10059.36
1046.709, 10047.56
1047.192, 10060.95
1047.674, 10057.44
1048.156, 10031.08
1048.638, 10015.68
1049.120, 10017.50
1049.602, 10009.50
1050.084, 9978.068
1050.566, 9953.643
1051.049, 9962.542
1051.531, 9989.694
1052.013, 9999.146
1052.495, 9989.415
1052.977, 9985.447
1053.459, 9989.657
1053.941, 9976.247
1054.423, 9932.222
1054.906, 9916.828
1055.388, 9975.028
1055.870, 10060.76
1056.352, 10097.27
1056.834, 10086.59
1057.316, 10042.32
1057.798, 9964.639
1058.280, 9903.705
1058.762, 9867.831
1059.245, 9841.908
1059.727, 9818.352
1060.209, 9797.014
1060.691, 9776.796
1061.173, 9759.331
1061.655, 9751.517
1062.137, 9751.802
1062.619, 9751.578
1063.101, 9750.094
1063.584, 9753.295
1064.066, 9763.166
1064.548, 9762.210
1065.030, 9726.825
1065.512, 9680.035
1065.994, 9664.293
1066.476, 9672.253
1066.958, 9697.839
1067.441, 9729.805
1067.923, 9728.059
1068.405, 9685.558
1068.887, 9649.949
1069.369, 9660.136
1069.851, 9681.742
1070.333, 9674.888
1070.815, 9653.623
1071.297, 9635.750
1071.780, 9621.189
1072.262, 9604.112
1072.744, 9585.773
1073.226, 9578.662
1073.708, 9592.718
1074.190, 9605.191
1074.672, 9582.756
1075.154, 9567.835
1075.636, 9628.971
1076.119, 9701.548
1076.601, 9677.891
1077.083, 9580.143
1077.565, 9525.756
1078.047, 9558.265
1078.529, 9587.086
1079.011, 9562.768
1079.494, 9536.504
1079.976, 9539.851
1080.458, 9548.308
1080.940, 9538.771
1081.422, 9516.469
1081.904, 9494.988
1082.386, 9476.011
1082.868, 9463.417
1083.350, 9463.119
1083.833, 9462.121
1084.315, 9451.173
1084.797, 9445.938
1085.279, 9468.316
1085.761, 9494.790
1086.243, 9484.988
1086.725, 9440.303
1087.207, 9415.129
1087.689, 9421.758
1088.172, 9421.861
1088.654, 9405.831
1089.136, 9398.154
1089.618, 9410.802
1090.100, 9431.594
1090.582, 9451.993
1091.064, 9467.912
1091.546, 9456.540
1092.029, 9405.029
1092.511, 9408.451
1092.993, 9481.971
1093.475, 9529.224
1093.957, 9522.770
1094.439, 9492.197
1094.921, 9455.966
1095.403, 9419.852
1095.885, 9395.833
1096.368, 9382.566
1096.850, 9370.401
1097.332, 9359.387
1097.814, 9350.813
1098.296, 9344.639
1098.778, 9335.779
1099.260, 9321.618
1099.742, 9315.746
1100.224, 9341.682
1100.707, 9377.407
1101.189, 9372.575
1101.671, 9345.401
1102.153, 9340.648
1102.635, 9354.429
1103.117, 9357.063
1103.599, 9341.071
1104.081, 9325.097
1104.564, 9324.688
1105.046, 9322.579
1105.528, 9299.084
1106.010, 9268.505
1106.492, 9233.784
1106.974, 9210.086
1107.456, 9235.092
1107.938, 9295.839
1108.421, 9318.752
1108.903, 9264.292
1109.385, 9228.060
1109.867, 9274.610
1110.349, 9322.535
1110.831, 9331.618
1111.313, 9321.183
1111.795, 9299.490
1112.277, 9276.322
1112.760, 9269.642
1113.242, 9281.841
1113.724, 9304.318
1114.206, 9357.577
1114.688, 9388.112
1115.170, 9378.814
1115.652, 9360.713
1116.134, 9348.944
1116.616, 9334.764
1117.099, 9303.364
1117.581, 9259.480
1118.063, 9237.501
1118.545, 9243.747
1119.027, 9244.045
1119.509, 9233.282
1119.991, 9239.365
1120.473, 9276.300
1120.956, 9303.436
1121.438, 9287.322
1121.920, 9244.251
1122.402, 9199.215
1122.884, 9156.129
1123.366, 9151.633
1123.848, 9181.220
1124.330, 9218.840
1124.813, 9257.177
1125.295, 9282.504
1125.777, 9288.206
1126.259, 9273.518
1126.741, 9225.618
1127.223, 9173.059
1127.705, 9168.883
1128.187, 9185.236
1128.669, 9168.880
1129.151, 9132.090
1129.634, 9117.103
1130.116, 9130.407
1130.598, 9141.734
1131.080, 9135.188
1131.562, 9125.293
1132.044, 9126.044
1132.526, 9121.257
1133.008, 9092.046
1133.491, 9056.625
1133.973, 9031.457
1134.455, 9019.004
1134.937, 9021.935
1135.419, 9043.775
1135.901, 9062.048
1136.383, 9073.882
1136.865, 9080.893
1137.348, 9089.750
1137.830, 9085.031
1138.312, 9047.283
1138.794, 9002.479
1139.276, 8984.147
1139.758, 8990.306
1140.240, 9007.528
1140.722, 9043.997
1141.204, 9050.601
1141.687, 9021.478
1142.169, 8976.946
1142.651, 8917.936
1143.133, 8884.194
1143.615, 8909.903
1144.097, 8960.352
1144.579, 8975.631
1145.061, 8959.906
1145.543, 8919.275
1146.026, 8864.044
1146.508, 8843.447
1146.990, 8857.386
1147.472, 8865.649
1147.954, 8853.121
1148.436, 8844.635
1148.918, 8869.504
1149.400, 8891.894
1149.883, 8864.122
1150.365, 8820.571
1150.847, 8798.511
1151.329, 8792.547
1151.811, 8790.511
1152.293, 8789.794
1152.775, 8791.514
1153.257, 8798.122
1153.740, 8799.156
1154.222, 8780.544
1154.704, 8769.822
1155.186, 8791.485
1155.668, 8811.459
1156.150, 8807.834
1156.632, 8782.082
1157.114, 8730.442
1157.596, 8652.828
1158.078, 8612.153
1158.561, 8612.827
1159.043, 8642.698
1159.525, 8716.281
1160.007, 8765.828
1160.489, 8767.193
1160.971, 8736.961
1161.453, 8683.809
1161.935, 8624.843
1162.418, 8598.424
1162.900, 8599.659
1163.382, 8597.163
1163.864, 8592.573
1164.346, 8599.955
1164.828, 8617.058
1165.310, 8615.516
1165.792, 8584.702
1166.275, 8554.289
1166.757, 8554.059
1167.239, 8557.424
1167.721, 8526.393
1168.203, 8490.960
1168.685, 8485.010
1169.167, 8500.407
1169.649, 8530.586
1170.131, 8565.362
1170.614, 8573.441
1171.096, 8538.095
1171.578, 8510.776
1172.060, 8525.479
1172.542, 8523.416
1173.024, 8465.841
1173.506, 8407.043
1173.988, 8377.912
1174.470, 8371.504
1174.953, 8384.163
1175.435, 8412.229
1175.917, 8414.870
1176.399, 8381.849
1176.881, 8379.725
1177.363, 8418.212
1177.845, 8433.221
1178.327, 8404.152
1178.810, 8382.208
1179.292, 8405.377
1179.774, 8439.979
1180.256, 8431.851
1180.738, 8396.627
1181.220, 8371.292
1181.702, 8354.256
1182.184, 8342.109
1182.667, 8334.075
1183.149, 8334.054
1183.631, 8340.184
1184.113, 8329.539
1184.595, 8276.337
1185.077, 8238.854
1185.559, 8281.108
1186.041, 8321.996
1186.523, 8289.051
1187.005, 8239.544
1187.488, 8241.317
1187.970, 8276.076
1188.452, 8285.293
1188.934, 8260.499
1189.416, 8239.128
1189.898, 8217.193
1190.380, 8209.417
1190.862, 8223.981
1191.345, 8234.273
1191.827, 8227.039
1192.309, 8223.619
1192.791, 8246.230
1193.273, 8279.226
1193.755, 8286.493
1194.237, 8270.586
1194.719, 8239.469
1195.202, 8199.887
1195.684, 8188.574
1196.166, 8205.930
1196.648, 8227.141
1197.130, 8241.852
1197.612, 8249.026
1198.094, 8250.847
1198.576, 8238.172
1199.058, 8173.192
1199.541, 8119.504
1200.023, 8165.000
1200.505, 8238.933
1200.987, 8249.891
1201.469, 8202.849
1201.951, 8134.890
1202.433, 8040.193
1202.915, 8005.436
1203.397, 8103.519
1203.880, 8159.978
1204.362, 8143.309
1204.844, 8112.030
1205.326, 8087.363
1205.808, 8062.220
1206.290, 8027.550
1206.772, 7990.848
1207.254, 7969.665
1207.737, 7964.099
1208.219, 7978.520
1208.701, 8010.035
1209.183, 8044.016
1209.665, 8075.339
1210.147, 8085.563
1210.629, 8069.945
1211.111, 8064.689
1211.594, 8106.585
1212.076, 8149.012
1212.558, 8141.687
1213.040, 8120.746
1213.522, 8117.762
1214.004, 8123.897
1214.486, 8127.581
1214.968, 8127.786
1215.450, 8127.566
1215.932, 8128.406
1216.415, 8118.947
1216.897, 8080.635
1217.379, 8065.364
1217.861, 8089.559
1218.343, 8111.686
1218.825, 8119.669
1219.307, 8110.534
1219.789, 8077.427
1220.272, 8036.192
1220.754, 8020.895
1221.236, 8027.707
1221.718, 8034.933
1222.200, 8044.405
1222.682, 8068.880
1223.164, 8103.949
1223.646, 8126.190
1224.129, 8128.955
1224.611, 8123.885
1225.093, 8118.262
1225.575, 8106.289
1226.057, 8070.688
1226.539, 8042.647
1227.021, 8061.160
1227.503, 8083.305
1227.985, 8064.165
1228.468, 8017.292
1228.950, 7967.813
1229.432, 7918.099
1229.914, 7903.680
1230.396, 7934.167
1230.878, 7977.047
1231.360, 8042.351
1231.842, 8073.599
1232.324, 8053.895
1232.807, 8004.865
1233.289, 7936.792
1233.771, 7876.631
1234.253, 7867.323
1234.735, 7886.210
1235.217, 7884.058
1235.699, 7872.464
1236.181, 7876.252
1236.664, 7890.607
1237.146, 7907.688
1237.628, 7919.357
1238.110, 7897.724
1238.592, 7823.406
1239.074, 7772.737
1239.556, 7788.496
1240.038, 7813.202
1240.521, 7839.074
1241.003, 7855.263
1241.485, 7849.723
1241.967, 7840.639
1242.449, 7849.991
1242.931, 7869.159
1243.413, 7867.606
1243.895, 7844.970
1244.377, 7832.417
1244.859, 7829.271
1245.342, 7823.166
1245.824, 7813.126
1246.306, 7806.755
1246.788, 7806.952
1247.270, 7811.465
1247.752, 7818.691
1248.234, 7829.547
1248.716, 7859.166
1249.199, 7877.114
1249.681, 7844.295
1250.163, 7795.347
1250.645, 7763.695
1251.127, 7748.715
1251.609, 7740.142
1252.091, 7737.385
1252.573, 7754.025
1253.056, 7815.201
1253.538, 7825.013
1254.020, 7763.194
1254.502, 7721.458
1254.984, 7724.966
1255.466, 7734.654
1255.948, 7727.902
1256.430, 7716.012
1256.912, 7709.702
1257.395, 7712.401
1257.877, 7743.780
1258.359, 7779.989
1258.841, 7772.930
1259.323, 7739.046
1259.805, 7710.081
1260.287, 7691.733
1260.769, 7681.462
1261.251, 7678.832
1261.734, 7678.973
1262.216, 7684.917
1262.698, 7686.551
1263.180, 7690.214
1263.662, 7673.887
1264.144, 7612.120
1264.626, 7566.249
1265.108, 7591.690
1265.591, 7645.896
1266.073, 7646.273
1266.555, 7609.682
1267.037, 7620.932
1267.519, 7660.925
1268.001, 7649.883
##END=



