##NAMES=Marialite
##RRUFFID=R040043
##IDEAL CHEMISTRY=Na_4_Al_3_Si_9_O_24_Cl
##LOCALITY=Gouverneur, New York, USA
##OWNER=RRUFF
##SOURCE=University of Arizona Mineral Museum
##DESCRIPTION=White prismatic crystals
##STATUS=The identification of this mineral has been confirmed by X-ray diffraction and chemical analysis
##URL=rruff.info/R040043
##MEASURED CHEMISTRY=(Na_.493_Ca_.446_K_.061_)_4_(Si_.634_Al_.366_)_12_O_24_((CO_3_)_.581_Cl_.419_)
112.8500, 773.8078
113.3322, 835.0579
113.8143, 905.8810
114.2964, 983.2420
114.7785, 1067.291
115.2606, 1164.546
115.7427, 1246.343
116.2248, 1298.442
116.7070, 1331.760
117.1891, 1358.359
117.6712, 1389.331
118.1533, 1408.762
118.6354, 1369.446
119.1175, 1223.548
119.5997, 1106.232
120.0818, 1055.342
120.5639, 1055.995
121.0460, 1090.225
121.5281, 1151.410
122.0102, 1236.840
122.4924, 1332.750
122.9745, 1425.295
123.4566, 1547.781
123.9387, 1711.877
124.4208, 1910.225
124.9029, 2132.160
125.3851, 2375.765
125.8672, 2641.257
126.3493, 2882.626
126.8314, 3076.423
127.3135, 3267.190
127.7956, 3451.401
128.2778, 3641.012
128.7599, 3863.388
129.2420, 4146.473
129.7241, 4499.581
130.2062, 4842.178
130.6884, 5205.126
131.1705, 5534.014
131.6526, 5853.363
132.1347, 6132.840
132.6168, 6285.851
133.0989, 6207.324
133.5811, 5827.055
134.0632, 5442.246
134.5453, 5004.638
135.0274, 4598.841
135.5095, 4269.368
135.9916, 4023.857
136.4738, 3845.718
136.9559, 3718.320
137.4380, 3655.677
137.9201, 3622.659
138.4022, 3613.724
138.8843, 3634.604
139.3665, 3692.472
139.8486, 3787.982
140.3307, 3913.376
140.8128, 4056.905
141.2949, 4219.830
141.7770, 4405.898
142.2592, 4619.560
142.7413, 4853.462
143.2234, 5102.970
143.7055, 5366.099
144.1876, 5640.513
144.6697, 5922.703
145.1518, 6199.936
145.6340, 6513.716
146.1161, 6910.770
146.5982, 7336.182
147.0803, 7717.924
147.5624, 8034.849
148.0445, 8300.236
148.5267, 8539.198
149.0088, 8771.313
149.4909, 8940.311
149.9730, 9010.017
150.4551, 9009.475
150.9372, 8988.681
151.4194, 8960.027
151.9015, 8928.230
152.3836, 8901.693
152.8657, 8879.509
153.3478, 8862.528
153.8299, 8849.085
154.3121, 8840.895
154.7942, 8843.632
155.2763, 8861.823
155.7584, 8889.255
156.2405, 8912.154
156.7226, 8925.873
157.2048, 8946.383
157.6869, 8976.790
158.1690, 9018.944
158.6511, 9084.149
159.1332, 9185.279
159.6153, 9304.142
160.0975, 9409.214
160.5796, 9502.052
161.0617, 9579.230
161.5438, 9639.872
162.0259, 9683.341
162.5080, 9707.554
162.9902, 9711.444
163.4723, 9692.332
163.9544, 9651.745
164.4365, 9586.585
164.9186, 9507.362
165.4007, 9422.495
165.8829, 9331.647
166.3650, 9229.794
166.8471, 9115.769
167.3292, 8988.432
167.8113, 8845.476
168.2934, 8682.765
168.7756, 8515.729
169.2577, 8361.463
169.7398, 8220.394
170.2219, 8072.852
170.7040, 7905.861
171.1861, 7731.888
171.6683, 7562.517
172.1504, 7398.451
172.6325, 7242.883
173.1146, 7099.671
173.5967, 6968.929
174.0788, 6846.465
174.5610, 6733.965
175.0431, 6626.521
175.5252, 6518.281
176.0073, 6405.148
176.4894, 6298.280
176.9715, 6209.216
177.4537, 6138.740
177.9358, 6079.442
178.4179, 6031.046
178.9000, 5992.603
179.3821, 5965.397
179.8642, 5951.209
180.3464, 5943.228
180.8285, 5931.690
181.3106, 5914.626
181.7927, 5905.561
182.2748, 5913.999
182.7569, 5930.608
183.2391, 5950.642
183.7212, 5974.136
184.2033, 5995.547
184.6854, 6004.519
185.1675, 5997.153
185.6496, 5997.602
186.1318, 6014.887
186.6139, 6043.167
187.0960, 6083.142
187.5781, 6137.432
188.0602, 6191.165
188.5423, 6229.259
189.0245, 6252.565
189.5066, 6254.716
189.9887, 6206.104
190.4708, 6149.936
190.9529, 6120.514
191.4350, 6128.705
191.9172, 6148.626
192.3993, 6146.665
192.8814, 6118.006
193.3635, 6090.968
193.8456, 6072.843
194.3277, 6059.424
194.8099, 6051.018
195.2920, 6048.395
195.7741, 6042.462
196.2562, 6017.054
196.7383, 5965.754
197.2204, 5927.250
197.7026, 5929.114
198.1847, 5936.827
198.6668, 5924.739
199.1489, 5886.867
199.6310, 5844.146
200.1131, 5822.973
200.5953, 5827.600
201.0774, 5828.918
201.5595, 5815.648
202.0416, 5799.859
202.5237, 5788.413
203.0058, 5782.523
203.4880, 5780.119
203.9701, 5781.213
204.4522, 5787.128
204.9343, 5786.422
205.4164, 5774.358
205.8985, 5756.027
206.3807, 5734.726
206.8628, 5710.664
207.3449, 5680.788
207.8270, 5639.494
208.3091, 5585.514
208.7912, 5534.287
209.2734, 5492.005
209.7555, 5450.129
210.2376, 5400.092
210.7197, 5342.397
211.2018, 5291.079
211.6839, 5262.962
212.1661, 5258.819
212.6482, 5250.659
213.1303, 5226.677
213.6124, 5205.951
214.0945, 5201.945
214.5766, 5213.660
215.0588, 5228.489
215.5409, 5235.360
216.0230, 5234.655
216.5051, 5237.449
216.9872, 5246.632
217.4693, 5257.837
217.9515, 5269.162
218.4336, 5280.367
218.9157, 5290.947
219.3978, 5301.437
219.8799, 5311.501
220.3620, 5319.241
220.8442, 5332.197
221.3263, 5331.550
221.8084, 5300.794
222.2905, 5247.272
222.7726, 5196.164
223.2547, 5166.762
223.7369, 5153.784
224.2190, 5131.047
224.7011, 5094.964
225.1832, 5052.982
225.6653, 5005.465
226.1474, 4955.554
226.6296, 4910.954
227.1117, 4880.617
227.5938, 4858.520
228.0759, 4827.776
228.5580, 4788.603
229.0401, 4739.794
229.5223, 4675.149
230.0044, 4601.674
230.4865, 4531.970
230.9686, 4468.969
231.4507, 4414.069
231.9328, 4372.711
232.4150, 4350.066
232.8971, 4325.376
233.3792, 4282.084
233.8613, 4230.644
234.3434, 4185.148
234.8255, 4153.006
235.3077, 4125.983
235.7898, 4092.356
236.2719, 4051.108
236.7540, 4009.000
237.2361, 3961.409
237.7182, 3917.632
238.2004, 3892.052
238.6825, 3895.705
239.1646, 3905.266
239.6467, 3896.442
240.1288, 3869.023
240.6109, 3840.143
241.0931, 3814.970
241.5752, 3793.280
242.0573, 3773.722
242.5394, 3755.102
243.0215, 3741.236
243.5036, 3737.691
243.9858, 3742.967
244.4679, 3745.136
244.9500, 3735.286
245.4321, 3725.785
245.9142, 3735.177
246.3963, 3767.262
246.8785, 3801.565
247.3606, 3826.624
247.8427, 3845.157
248.3248, 3865.310
248.8069, 3888.420
249.2890, 3915.262
249.7712, 3944.755
250.2533, 3974.880
250.7354, 4018.057
251.2175, 4084.355
251.6996, 4164.990
252.1817, 4245.720
252.6639, 4323.394
253.1460, 4400.590
253.6281, 4476.236
254.1102, 4549.147
254.5923, 4641.863
255.0744, 4769.071
255.5566, 4913.491
256.0387, 5056.222
256.5208, 5194.188
257.0029, 5333.045
257.4850, 5476.711
257.9671, 5625.646
258.4492, 5781.730
258.9314, 5959.172
259.4135, 6132.811
259.8956, 6287.945
260.3777, 6423.567
260.8598, 6540.713
261.3419, 6642.314
261.8241, 6725.936
262.3062, 6784.258
262.7883, 6833.594
263.2704, 6845.333
263.7525, 6797.444
264.2346, 6700.021
264.7168, 6580.471
265.1989, 6453.815
265.6810, 6318.025
266.1631, 6164.335
266.6452, 5988.125
267.1273, 5801.453
267.6095, 5593.946
268.0916, 5380.301
268.5737, 5183.195
269.0558, 5012.983
269.5379, 4860.771
270.0201, 4708.306
270.5022, 4537.074
270.9843, 4388.848
271.4664, 4274.672
271.9485, 4178.152
272.4306, 4084.068
272.9128, 3988.414
273.3949, 3895.317
273.8770, 3811.934
274.3591, 3739.903
274.8412, 3674.780
275.3233, 3615.498
275.8055, 3562.625
276.2876, 3519.544
276.7697, 3484.521
277.2518, 3450.097
277.7339, 3406.010
278.2160, 3347.907
278.6982, 3307.461
279.1803, 3300.730
279.6624, 3296.113
280.1445, 3282.624
280.6266, 3261.436
281.1087, 3238.413
281.5909, 3217.514
282.0730, 3198.630
282.5551, 3180.890
283.0372, 3161.638
283.5193, 3147.169
284.0014, 3139.420
284.4836, 3137.141
284.9657, 3138.586
285.4478, 3142.896
285.9299, 3150.405
286.4120, 3162.375
286.8941, 3180.560
287.3763, 3199.237
287.8584, 3212.549
288.3405, 3227.708
288.8226, 3250.405
289.3047, 3281.986
289.7868, 3323.745
290.2690, 3378.802
290.7511, 3447.893
291.2332, 3522.376
291.7153, 3604.183
292.1974, 3687.786
292.6795, 3768.066
293.1617, 3844.573
293.6438, 3922.759
294.1259, 4003.592
294.6080, 4088.077
295.0901, 4186.815
295.5722, 4313.491
296.0544, 4433.810
296.5365, 4531.313
297.0186, 4604.457
297.5007, 4634.434
297.9828, 4606.816
298.4649, 4533.986
298.9471, 4427.008
299.4292, 4281.271
299.9113, 4131.256
300.3934, 3999.330
300.8755, 3883.476
301.3576, 3775.500
301.8398, 3673.140
302.3219, 3580.137
302.8040, 3500.387
303.2861, 3433.096
303.7682, 3373.532
304.2503, 3318.527
304.7325, 3270.102
305.2146, 3234.121
305.6967, 3217.403
306.1788, 3201.397
306.6609, 3178.855
307.1430, 3153.277
307.6252, 3130.849
308.1073, 3113.983
308.5894, 3099.817
309.0715, 3083.739
309.5536, 3065.299
310.0357, 3045.188
310.5179, 3018.470
311.0000, 2993.108
311.4821, 2976.824
311.9642, 2970.104
312.4463, 2967.611
312.9284, 2964.720
313.4106, 2962.984
313.8927, 2951.419
314.3748, 2913.977
314.8569, 2883.741
315.3390, 2882.426
315.8211, 2900.439
316.3033, 2912.781
316.7854, 2901.702
317.2675, 2871.235
317.7496, 2846.938
318.2317, 2826.222
318.7138, 2816.493
319.1960, 2824.674
319.6781, 2841.662
320.1602, 2858.234
320.6423, 2870.820
321.1244, 2879.690
321.6065, 2883.610
322.0887, 2879.190
322.5708, 2880.804
323.0529, 2899.582
323.5350, 2919.187
324.0171, 2927.008
324.4992, 2922.322
324.9814, 2917.563
325.4635, 2927.078
325.9456, 2948.975
326.4277, 2959.951
326.9098, 2952.749
327.3919, 2941.662
327.8741, 2934.447
328.3562, 2931.186
328.8383, 2932.483
329.3204, 2943.835
329.8025, 2957.968
330.2846, 2960.780
330.7668, 2950.569
331.2489, 2942.729
331.7310, 2948.160
332.2131, 2962.244
332.6952, 2973.456
333.1773, 2983.273
333.6595, 2987.240
334.1416, 2978.753
334.6237, 2961.424
335.1058, 2946.485
335.5879, 2937.781
336.0700, 2934.316
336.5522, 2935.407
337.0343, 2943.273
337.5164, 2948.886
337.9985, 2950.834
338.4806, 2949.713
338.9627, 2945.676
339.4449, 2938.885
339.9270, 2929.841
340.4091, 2917.623
340.8912, 2899.625
341.3733, 2895.846
341.8554, 2920.823
342.3376, 2943.544
342.8197, 2945.541
343.3018, 2933.611
343.7839, 2925.086
344.2660, 2930.724
344.7481, 2948.750
345.2303, 2971.125
345.7124, 3003.425
346.1945, 3032.131
346.6766, 3053.185
347.1587, 3071.360
347.6408, 3090.322
348.1230, 3111.487
348.6051, 3136.299
349.0872, 3166.786
349.5693, 3203.320
350.0514, 3244.484
350.5335, 3296.628
351.0157, 3347.976
351.4978, 3391.490
351.9799, 3428.141
352.4620, 3463.429
352.9441, 3498.733
353.4262, 3535.532
353.9084, 3579.129
354.3905, 3631.039
354.8726, 3685.989
355.3547, 3738.285
355.8368, 3791.624
356.3189, 3853.396
356.8011, 3934.210
357.2832, 4012.949
357.7653, 4070.260
358.2474, 4108.213
358.7295, 4141.843
359.2116, 4180.701
359.6938, 4213.226
360.1759, 4215.149
360.6580, 4182.159
361.1401, 4142.870
361.6222, 4106.882
362.1043, 4067.563
362.5865, 4018.461
363.0686, 3957.941
363.5507, 3883.971
364.0328, 3792.056
364.5149, 3678.401
364.9970, 3578.700
365.4792, 3492.119
365.9613, 3417.244
366.4434, 3357.196
366.9255, 3308.194
367.4076, 3262.912
367.8897, 3216.617
368.3719, 3172.863
368.8540, 3143.563
369.3361, 3132.856
369.8182, 3131.700
370.3003, 3144.743
370.7824, 3162.165
371.2646, 3175.897
371.7467, 3184.360
372.2288, 3191.854
372.7109, 3202.306
373.1930, 3215.630
373.6751, 3233.767
374.1573, 3263.986
374.6394, 3290.006
375.1215, 3296.928
375.6036, 3293.073
376.0857, 3299.906
376.5678, 3336.256
377.0500, 3382.938
377.5321, 3406.033
378.0142, 3403.749
378.4963, 3400.530
378.9784, 3409.020
379.4605, 3422.201
379.9427, 3426.813
380.4248, 3420.024
380.9069, 3411.689
381.3890, 3405.834
381.8711, 3401.762
382.3532, 3398.749
382.8354, 3396.810
383.3175, 3394.285
383.7996, 3391.055
384.2817, 3388.933
384.7638, 3371.262
385.2459, 3316.022
385.7281, 3265.348
386.2102, 3252.638
386.6923, 3266.101
387.1744, 3268.866
387.6565, 3236.984
388.1386, 3180.406
388.6208, 3141.250
389.1029, 3141.492
389.5850, 3128.606
390.0671, 3084.030
390.5492, 3033.271
391.0313, 2999.828
391.5135, 2988.348
391.9956, 2984.727
392.4777, 2973.271
392.9598, 2953.243
393.4419, 2934.611
393.9240, 2918.275
394.4062, 2902.609
394.8883, 2886.600
395.3704, 2870.684
395.8525, 2855.664
396.3346, 2840.515
396.8167, 2827.730
397.2989, 2824.204
397.7810, 2830.413
398.2631, 2829.923
398.7452, 2811.882
399.2273, 2786.774
399.7094, 2772.322
400.1916, 2770.496
400.6737, 2771.679
401.1558, 2776.048
401.6379, 2779.773
402.1200, 2776.048
402.6021, 2763.855
403.0843, 2749.434
403.5664, 2737.513
404.0485, 2727.840
404.5306, 2728.115
405.0127, 2745.834
405.4948, 2764.106
405.9770, 2775.445
406.4591, 2782.954
406.9412, 2792.712
407.4233, 2807.497
407.9054, 2825.353
408.3875, 2840.459
408.8697, 2846.167
409.3518, 2864.392
409.8339, 2904.513
410.3160, 2950.045
410.7981, 2989.389
411.2802, 3023.497
411.7624, 3062.205
412.2445, 3116.946
412.7266, 3182.481
413.2087, 3236.902
413.6908, 3275.727
414.1729, 3314.473
414.6551, 3360.945
415.1372, 3412.166
415.6193, 3465.792
416.1014, 3521.952
416.5835, 3578.340
417.0656, 3632.633
417.5478, 3685.594
418.0299, 3742.215
418.5120, 3806.841
418.9941, 3865.074
419.4762, 3899.471
419.9583, 3906.845
420.4405, 3904.770
420.9226, 3894.842
421.4047, 3874.739
421.8868, 3839.066
422.3689, 3791.642
422.8510, 3742.882
423.3332, 3699.427
423.8153, 3657.747
424.2974, 3605.617
424.7795, 3525.365
425.2616, 3464.011
425.7437, 3430.025
426.2259, 3410.451
426.7080, 3399.401
427.1901, 3394.031
427.6722, 3388.791
428.1543, 3376.575
428.6364, 3358.750
429.1186, 3348.053
429.6007, 3343.700
430.0828, 3348.350
430.5649, 3370.945
431.0470, 3400.929
431.5291, 3421.753
432.0113, 3423.919
432.4934, 3427.550
432.9755, 3448.310
433.4576, 3484.274
433.9397, 3530.329
434.4218, 3587.405
434.9040, 3647.612
435.3861, 3699.803
435.8682, 3742.110
436.3503, 3791.243
436.8324, 3850.317
437.3145, 3914.700
437.7967, 3980.498
438.2788, 4048.946
438.7609, 4122.586
439.2430, 4203.517
439.7251, 4291.618
440.2072, 4387.077
440.6894, 4489.862
441.1715, 4601.546
441.6536, 4720.146
442.1357, 4848.237
442.6178, 4984.040
443.0999, 5129.720
443.5821, 5294.205
444.0642, 5486.421
444.5463, 5704.357
445.0284, 5931.897
445.5105, 6163.991
445.9926, 6418.387
446.4748, 6699.189
446.9569, 7010.339
447.4390, 7357.921
447.9211, 7738.832
448.4032, 8168.150
448.8853, 8693.528
449.3675, 9269.617
449.8496, 9801.902
450.3317, 10263.56
450.8138, 10706.37
451.2959, 11186.71
451.7780, 11709.98
452.2602, 12180.11
452.7423, 12607.07
453.2244, 12971.42
453.7065, 13254.69
454.1886, 13471.44
454.6707, 13644.04
455.1528, 13781.28
455.6349, 13886.72
456.1171, 13964.73
456.5992, 14010.13
457.0813, 14042.96
457.5634, 14064.55
458.0455, 14072.39
458.5276, 14077.63
459.0098, 14068.96
459.4919, 14015.12
459.9740, 13893.37
460.4561, 13720.63
460.9382, 13531.22
461.4203, 13325.67
461.9025, 13076.65
462.3846, 12767.94
462.8667, 12412.34
463.3488, 12026.09
463.8309, 11602.14
464.3130, 11191.06
464.7952, 10819.53
465.2773, 10461.34
465.7594, 10094.65
466.2415, 9716.961
466.7236, 9329.354
467.2057, 8928.532
467.6879, 8522.133
468.1700, 8151.245
468.6521, 7842.438
469.1342, 7539.113
469.6163, 7226.559
470.0984, 6923.064
470.5806, 6641.823
471.0627, 6387.243
471.5448, 6152.773
472.0269, 5937.308
472.5090, 5738.804
472.9911, 5546.083
473.4733, 5355.022
473.9554, 5175.040
474.4375, 5008.078
474.9196, 4855.743
475.4017, 4725.919
475.8839, 4625.204
476.3660, 4532.158
476.8481, 4433.090
477.3302, 4331.834
477.8123, 4237.516
478.2944, 4152.243
478.7766, 4071.424
479.2587, 3991.050
479.7408, 3910.677
480.2229, 3838.373
480.7050, 3779.264
481.1871, 3721.058
481.6693, 3658.029
482.1514, 3594.641
482.6335, 3539.199
483.1156, 3494.362
483.5977, 3451.296
484.0798, 3392.677
484.5620, 3313.334
485.0441, 3259.857
485.5262, 3257.190
486.0083, 3250.819
486.4904, 3209.130
486.9725, 3144.376
487.4547, 3081.006
487.9368, 3022.933
488.4189, 2975.318
488.9010, 2950.412
489.3831, 2942.403
489.8652, 2925.712
490.3474, 2891.013
490.8295, 2854.217
491.3116, 2836.319
491.7937, 2843.304
492.2758, 2835.957
492.7579, 2801.772
493.2401, 2766.073
493.7222, 2741.716
494.2043, 2724.756
494.6864, 2705.787
495.1685, 2680.591
495.6506, 2652.975
496.1328, 2629.917
496.6149, 2612.356
497.0970, 2594.797
497.5791, 2574.572
498.0612, 2556.819
498.5433, 2546.188
499.0255, 2540.142
499.5076, 2531.714
499.9897, 2514.622
500.4718, 2498.045
500.9539, 2498.675
501.4360, 2512.010
501.9182, 2508.458
502.4003, 2474.282
502.8824, 2431.675
503.3645, 2410.910
503.8466, 2417.594
504.3287, 2421.416
504.8109, 2421.976
505.2930, 2419.360
505.7751, 2410.304
506.2572, 2398.573
506.7393, 2391.073
507.2214, 2391.167
507.7036, 2396.892
508.1857, 2407.166
508.6678, 2426.504
509.1499, 2431.952
509.6320, 2407.469
510.1141, 2382.695
510.5963, 2373.344
511.0784, 2376.244
511.5605, 2381.395
512.0426, 2385.049
512.5247, 2389.061
513.0068, 2394.738
513.4890, 2402.341
513.9711, 2414.349
514.4532, 2432.752
514.9353, 2451.318
515.4174, 2460.198
515.8995, 2455.284
516.3817, 2461.074
516.8638, 2485.607
517.3459, 2512.443
517.8280, 2531.884
518.3101, 2548.259
518.7922, 2570.709
519.2744, 2603.252
519.7565, 2639.783
520.2386, 2668.170
520.7207, 2685.209
521.2028, 2716.309
521.6849, 2770.386
522.1671, 2829.964
522.6492, 2880.463
523.1313, 2928.711
523.6134, 2991.310
524.0955, 3075.693
524.5776, 3171.799
525.0598, 3270.867
525.5419, 3375.739
526.0240, 3493.271
526.5061, 3625.493
526.9882, 3770.928
527.4703, 3923.804
527.9525, 4081.671
528.4346, 4282.232
528.9167, 4568.424
529.3988, 4841.005
529.8809, 5059.622
530.3630, 5252.044
530.8452, 5451.000
531.3273, 5667.391
531.8094, 5905.696
532.2915, 6184.271
532.7736, 6499.936
533.2557, 6792.865
533.7379, 7065.568
534.2200, 7304.230
534.7021, 7506.722
535.1842, 7666.730
535.6663, 7769.246
536.1484, 7816.551
536.6306, 7798.034
537.1127, 7694.725
537.5948, 7528.751
538.0769, 7326.920
538.5590, 7094.456
539.0411, 6829.293
539.5233, 6522.681
540.0054, 6182.742
540.4875, 5865.584
540.9696, 5575.599
541.4517, 5307.742
541.9338, 5065.291
542.4160, 4841.990
542.8981, 4632.230
543.3802, 4435.571
543.8623, 4249.212
544.3444, 4069.305
544.8265, 3898.805
545.3087, 3744.520
545.7908, 3606.017
546.2729, 3481.361
546.7550, 3370.752
547.2371, 3272.092
547.7192, 3182.345
548.2014, 3101.064
548.6835, 3026.837
549.1656, 2962.821
549.6477, 2903.332
550.1298, 2843.159
550.6119, 2784.187
551.0941, 2732.590
551.5762, 2692.328
552.0583, 2658.799
552.5404, 2622.200
553.0225, 2581.193
553.5046, 2544.911
553.9868, 2518.541
554.4689, 2492.939
554.9510, 2460.294
555.4331, 2423.363
555.9152, 2389.939
556.3973, 2357.756
556.8795, 2335.323
557.3616, 2337.038
557.8437, 2352.542
558.3258, 2358.105
558.8079, 2347.329
559.2900, 2327.664
559.7722, 2305.560
560.2543, 2280.265
560.7364, 2264.701
561.2185, 2273.765
561.7006, 2275.263
562.1827, 2255.761
562.6649, 2229.279
563.1470, 2210.713
563.6291, 2203.181
564.1112, 2200.924
564.5933, 2201.450
565.0754, 2203.153
565.5576, 2202.377
566.0397, 2199.341
566.5218, 2188.966
567.0039, 2164.561
567.4860, 2133.990
567.9681, 2117.590
568.4503, 2121.075
568.9324, 2122.212
569.4145, 2113.340
569.8966, 2105.148
570.3787, 2107.862
570.8608, 2118.338
571.3430, 2126.643
571.8251, 2127.159
572.3072, 2121.641
572.7893, 2111.232
573.2714, 2093.998
573.7535, 2086.692
574.2357, 2100.809
574.7178, 2113.698
575.1999, 2104.063
575.6820, 2079.142
576.1641, 2061.666
576.6462, 2060.958
577.1284, 2064.198
577.6105, 2063.053
578.0926, 2060.832
578.5747, 2063.788
579.0568, 2073.150
579.5389, 2085.379
580.0211, 2098.104
580.5032, 2110.964
580.9853, 2113.964
581.4674, 2100.150
581.9495, 2086.997
582.4316, 2076.202
582.9138, 2068.957
583.3959, 2067.682
583.8780, 2072.149
584.3601, 2076.484
584.8422, 2078.031
585.3243, 2076.871
585.8065, 2070.812
586.2886, 2060.969
586.7707, 2056.452
587.2528, 2062.177
587.7349, 2071.991
588.2170, 2074.688
588.6992, 2066.005
589.1813, 2063.134
589.6634, 2072.697
590.1455, 2080.478
590.6276, 2077.532
591.1097, 2069.689
591.5919, 2068.264
592.0740, 2077.817
592.5561, 2086.303
593.0382, 2077.535
593.5203, 2055.516
594.0024, 2037.696
594.4846, 2025.095
594.9667, 2020.025
595.4488, 2027.069
595.9309, 2041.780
596.4130, 2048.289
596.8951, 2043.277
597.3773, 2037.023
597.8594, 2028.304
598.3415, 2021.038
598.8236, 2020.141
599.3057, 2023.763
599.7878, 2024.851
600.2700, 2018.442
600.7521, 2009.507
601.2342, 2009.147
601.7163, 2018.050
602.1984, 2025.600
602.6805, 2031.119
603.1627, 2032.957
603.6448, 2025.748
604.1269, 2012.683
604.6090, 2007.575
605.0911, 2016.349
605.5732, 2028.038
606.0554, 2040.911
606.5375, 2052.775
607.0196, 2060.813
607.5017, 2064.628
607.9838, 2065.533
608.4659, 2064.428
608.9481, 2061.524
609.4302, 2058.052
609.9123, 2054.341
610.3944, 2048.732
610.8765, 2037.387
611.3586, 2027.067
611.8408, 2025.754
612.3229, 2032.427
612.8050, 2035.275
613.2871, 2031.587
613.7692, 2022.339
614.2513, 2003.200
614.7335, 1979.954
615.2156, 1964.699
615.6977, 1960.768
616.1798, 1962.766
616.6619, 1965.904
617.1440, 1970.129
617.6262, 1965.530
618.1083, 1945.549
618.5904, 1928.534
619.0725, 1920.571
619.5546, 1917.904
620.0367, 1919.607
620.5189, 1925.457
621.0010, 1926.700
621.4831, 1916.082
621.9652, 1901.609
622.4473, 1889.576
622.9294, 1880.729
623.4116, 1875.634
623.8937, 1874.468
624.3758, 1878.998
624.8579, 1894.897
625.3400, 1926.635
625.8221, 1937.138
626.3043, 1909.090
626.7864, 1883.129
627.2685, 1871.486
627.7506, 1869.394
628.2327, 1873.060
628.7148, 1882.248
629.1970, 1890.154
629.6791, 1891.636
630.1612, 1890.516
630.6433, 1892.335
631.1254, 1896.475
631.6075, 1898.425
632.0897, 1895.978
632.5718, 1891.193
633.0539, 1887.679
633.5360, 1885.555
634.0181, 1884.255
634.5002, 1885.216
634.9824, 1885.268
635.4645, 1879.838
635.9466, 1874.251
636.4287, 1878.015
636.9108, 1894.740
637.3929, 1907.802
637.8751, 1903.969
638.3572, 1891.446
638.8393, 1881.391
639.3214, 1874.359
639.8035, 1867.415
640.2856, 1858.788
640.7678, 1850.641
641.2499, 1847.617
641.7320, 1851.620
642.2141, 1854.943
642.6962, 1857.172
643.1783, 1859.188
643.6605, 1861.658
644.1426, 1864.032
644.6247, 1865.339
645.1068, 1865.236
645.5889, 1864.992
646.0710, 1865.903
646.5532, 1866.960
647.0353, 1866.628
647.5174, 1864.937
647.9995, 1862.025
648.4816, 1857.531
648.9637, 1854.113
649.4459, 1858.534
649.9280, 1875.912
650.4101, 1885.147
650.8922, 1879.385
651.3743, 1873.101
651.8564, 1872.228
652.3386, 1874.418
652.8207, 1875.482
653.3028, 1873.922
653.7849, 1874.368
654.2670, 1880.752
654.7491, 1889.961
655.2313, 1899.151
655.7134, 1907.503
656.1955, 1912.579
656.6776, 1912.793
657.1597, 1911.537
657.6418, 1916.249
658.1240, 1929.651
658.6061, 1938.166
659.0882, 1937.104
659.5703, 1937.430
660.0524, 1949.003
660.5345, 1962.917
661.0167, 1963.918
661.4988, 1946.512
661.9809, 1932.837
662.4630, 1938.716
662.9451, 1949.476
663.4272, 1949.104
663.9094, 1938.995
664.3915, 1927.649
664.8736, 1918.996
665.3557, 1912.244
665.8378, 1906.417
666.3199, 1901.620
666.8021, 1897.251
667.2842, 1894.862
667.7663, 1890.031
668.2484, 1877.620
668.7305, 1862.920
669.2126, 1852.709
669.6948, 1847.493
670.1769, 1846.459
670.6590, 1854.330
671.1411, 1862.020
671.6232, 1861.140
672.1053, 1854.401
672.5875, 1848.627
673.0696, 1846.457
673.5517, 1845.791
674.0338, 1842.210
674.5159, 1836.227
674.9980, 1840.371
675.4802, 1857.959
675.9623, 1874.331
676.4444, 1884.395
676.9265, 1889.017
677.4086, 1887.395
677.8907, 1877.833
678.3729, 1874.957
678.8550, 1886.749
679.3371, 1899.258
679.8192, 1909.567
680.3013, 1914.118
680.7834, 1905.952
681.2656, 1884.366
681.7477, 1859.797
682.2298, 1839.573
682.7119, 1824.914
683.1940, 1822.329
683.6761, 1832.379
684.1583, 1841.775
684.6404, 1847.446
685.1225, 1847.165
685.6046, 1835.720
686.0867, 1810.649
686.5688, 1796.831
687.0510, 1799.155
687.5331, 1805.609
688.0152, 1818.753
688.4973, 1831.063
688.9794, 1834.443
689.4615, 1828.671
689.9437, 1820.057
690.4258, 1808.667
690.9079, 1800.290
691.3900, 1807.527
691.8721, 1825.908
692.3542, 1835.026
692.8364, 1829.459
693.3185, 1822.457
693.8006, 1827.822
694.2827, 1843.532
694.7648, 1847.998
695.2469, 1799.245
695.7291, 1842.215
696.2112, 1870.380
696.6933, 1884.540
697.1754, 1842.747
697.6575, 1873.205
698.1396, 1874.709
698.6218, 1875.028
699.1039, 1915.656
699.5860, 1882.001
700.0681, 1921.990
700.5502, 1932.581
701.0323, 1945.662
701.5145, 1957.719
701.9966, 1955.007
702.4787, 1943.855
702.9608, 1940.002
703.4429, 1944.538
703.9250, 1949.494
704.4072, 1953.484
704.8893, 1959.061
705.3714, 1970.804
705.8535, 1984.659
706.3356, 1990.986
706.8177, 1986.040
707.2999, 1982.249
707.7820, 1982.981
708.2641, 1985.500
708.7462, 1988.388
709.2283, 1991.298
709.7104, 1995.060
710.1926, 1999.991
710.6747, 2001.653
711.1568, 1990.520
711.6389, 1971.441
712.1210, 1967.749
712.6031, 1981.297
713.0853, 1985.719
713.5674, 1966.990
714.0495, 1938.765
714.5316, 1922.784
715.0137, 1921.746
715.4958, 1919.569
715.9780, 1912.419
716.4601, 1908.860
716.9422, 1915.599
717.4243, 1924.257
717.9064, 1926.643
718.3885, 1921.678
718.8707, 1912.783
719.3528, 1897.221
719.8349, 1882.458
720.3170, 1878.777
720.7991, 1881.733
721.2813, 1879.578
721.7634, 1869.841
722.2455, 1859.709
722.7276, 1856.166
723.2097, 1857.176
723.6918, 1851.098
724.1740, 1833.224
724.6561, 1826.375
725.1382, 1842.863
725.6203, 1860.535
726.1024, 1860.302
726.5845, 1847.327
727.0667, 1836.418
727.5488, 1826.747
728.0309, 1822.625
728.5130, 1830.720
728.9951, 1840.493
729.4772, 1844.600
729.9594, 1842.359
730.4415, 1833.086
730.9236, 1815.714
731.4057, 1799.034
731.8878, 1794.340
732.3699, 1799.432
732.8521, 1807.541
733.3342, 1818.262
733.8163, 1828.145
734.2984, 1836.236
734.7805, 1840.717
735.2626, 1837.711
735.7448, 1824.910
736.2269, 1814.974
736.7090, 1807.832
737.1911, 1803.836
737.6732, 1804.862
738.1553, 1807.912
738.6375, 1811.444
739.1196, 1814.874
739.6017, 1813.408
740.0838, 1795.932
740.5659, 1781.782
741.0480, 1791.821
741.5302, 1813.599
742.0123, 1822.862
742.4944, 1816.789
742.9765, 1814.168
743.4586, 1832.067
743.9407, 1860.738
744.4229, 1870.312
744.9050, 1859.505
745.3871, 1857.895
745.8692, 1872.467
746.3513, 1890.833
746.8334, 1903.521
747.3156, 1912.729
747.7977, 1927.149
748.2798, 1952.220
748.7619, 1973.609
749.2440, 1988.405
749.7261, 2002.017
750.2083, 2012.036
750.6904, 2024.743
751.1725, 2053.709
751.6546, 2104.073
752.1367, 2150.280
752.6188, 2168.778
753.1010, 2176.882
753.5831, 2197.178
754.0652, 2228.027
754.5473, 2259.781
755.0294, 2289.030
755.5115, 2319.256
755.9937, 2353.860
756.4758, 2392.912
756.9579, 2439.685
757.4400, 2497.002
757.9221, 2549.843
758.4042, 2589.876
758.8864, 2630.617
759.3685, 2686.893
759.8506, 2757.239
760.3327, 2824.052
760.8148, 2881.865
761.2969, 2943.653
761.7791, 3015.889
762.2612, 3089.206
762.7433, 3154.072
763.2254, 3214.502
763.7075, 3284.176
764.1896, 3370.628
764.6718, 3457.541
765.1539, 3528.490
765.6360, 3590.637
766.1181, 3654.474
766.6002, 3721.575
767.0823, 3796.714
767.5645, 3882.036
768.0466, 3966.932
768.5287, 4035.504
769.0108, 4087.477
769.4929, 4128.437
769.9750, 4154.294
770.4572, 4182.442
770.9393, 4227.906
771.4214, 4267.752
771.9035, 4273.550
772.3856, 4246.216
772.8677, 4215.606
773.3499, 4183.208
773.8320, 4147.265
774.3141, 4121.906
774.7962, 4081.404
775.2783, 3996.654
775.7604, 3876.381
776.2426, 3751.859
776.7247, 3634.852
777.2068, 3523.793
777.6889, 3420.429
778.1710, 3319.224
778.6531, 3210.789
779.1353, 3094.588
779.6174, 2972.830
780.0995, 2846.858
780.5816, 2720.365
781.0637, 2595.531
781.5458, 2472.745
782.0280, 2376.581
782.5101, 2313.619
782.9922, 2254.026
783.4743, 2185.810
783.9564, 2119.277
784.4385, 2067.504
784.9207, 2031.133
785.4028, 1994.773
785.8849, 1957.701
786.3670, 1921.741
786.8491, 1885.361
787.3312, 1851.829
787.8134, 1823.492
788.2955, 1800.233
788.7776, 1780.099
789.2597, 1761.597
789.7418, 1748.390
790.2239, 1749.504
790.7061, 1753.547
791.1882, 1743.120
791.6703, 1720.650
792.1524, 1698.038
792.6345, 1680.490
793.1166, 1668.679
793.5988, 1665.764
794.0809, 1670.026
794.5630, 1668.789
795.0451, 1661.608
795.5272, 1653.794
796.0093, 1647.463
796.4915, 1639.568
796.9736, 1625.333
797.4557, 1605.397
797.9378, 1594.166
798.4199, 1597.454
798.9020, 1600.442
799.3842, 1602.855
799.8663, 1603.471
800.3484, 1598.148
800.8305, 1590.930
801.3126, 1592.427
801.7947, 1608.928
802.2769, 1621.180
802.7590, 1619.179
803.2411, 1611.107
803.7232, 1599.581
804.2053, 1588.718
804.6874, 1586.839
805.1696, 1595.725
805.6517, 1604.751
806.1338, 1604.423
806.6159, 1597.211
807.0980, 1585.410
807.5801, 1570.591
808.0623, 1562.443
808.5444, 1563.280
809.0265, 1569.025
809.5086, 1577.582
809.9907, 1586.395
810.4728, 1584.393
810.9550, 1567.407
811.4371, 1556.010
811.9192, 1553.326
812.4013, 1553.787
812.8834, 1556.610
813.3655, 1559.587
813.8477, 1557.776
814.3298, 1549.766
814.8119, 1543.292
815.2940, 1540.130
815.7761, 1537.267
816.2582, 1530.727
816.7404, 1525.639
817.2225, 1530.719
817.7046, 1544.560
818.1867, 1552.875
818.6688, 1544.595
819.1509, 1533.882
819.6331, 1532.857
820.1152, 1536.571
820.5973, 1538.220
821.0794, 1536.861
821.5615, 1533.099
822.0436, 1527.123
822.5258, 1520.664
823.0079, 1516.588
823.4900, 1514.366
823.9720, 1510.710
824.4542, 1505.460
824.9363, 1501.520
825.4184, 1500.196
825.9005, 1499.684
826.3826, 1497.693
826.8647, 1494.331
827.3469, 1492.284
827.8290, 1491.717
828.3111, 1492.118
828.7932, 1493.391
829.2753, 1495.632
829.7574, 1500.387
830.2396, 1506.045
830.7217, 1508.409
831.2038, 1506.972
831.6859, 1502.849
832.1680, 1489.654
832.6501, 1480.691
833.1323, 1489.716
833.6144, 1504.898
834.0965, 1507.095
834.5786, 1493.372
835.0607, 1480.991
835.5428, 1481.855
836.0250, 1487.276
836.5071, 1490.270
836.9892, 1491.442
837.4713, 1491.639
837.9534, 1491.204
838.4355, 1491.202
838.9177, 1492.683
839.3998, 1492.778
839.8819, 1484.204
840.3640, 1469.348
840.8461, 1462.415
841.3282, 1464.362
841.8104, 1467.419
842.2925, 1468.096
842.7746, 1469.519
843.2567, 1476.953
843.7388, 1490.214
844.2209, 1494.850
844.7031, 1486.897
845.1852, 1480.580
845.6673, 1480.353
846.1494, 1480.341
846.6315, 1474.366
847.1136, 1464.742
847.5958, 1461.044
848.0779, 1469.890
848.5600, 1471.475
849.0421, 1454.990
849.5242, 1440.715
850.0063, 1439.315
850.4885, 1445.866
850.9706, 1455.324
851.4527, 1466.279
851.9348, 1472.083
852.4169, 1469.136
852.8990, 1460.668
853.3812, 1440.364
853.8633, 1420.833
854.3454, 1422.657
854.8275, 1443.010
855.3096, 1462.490
855.7917, 1471.703
856.2739, 1471.597
856.7560, 1457.187
857.2381, 1436.193
857.7202, 1428.668
858.2023, 1433.255
858.6844, 1436.018
859.1666, 1431.937
859.6487, 1424.542
860.1308, 1416.532
860.6129, 1409.285
861.0950, 1411.514
861.5771, 1424.473
862.0593, 1431.975
862.5414, 1429.877
863.0235, 1427.041
863.5056, 1429.516
863.9877, 1435.389
864.4698, 1439.884
864.9520, 1443.246
865.4341, 1444.540
865.9162, 1444.177
866.3983, 1441.171
866.8804, 1430.406
867.3625, 1420.255
867.8447, 1421.801
868.3268, 1433.597
868.8089, 1437.855
869.2910, 1423.761
869.7731, 1413.915
870.2552, 1413.630
870.7374, 1419.338
871.2195, 1434.756
871.7016, 1452.430
872.1837, 1456.620
872.6658, 1441.998
873.1479, 1429.484
873.6301, 1434.619
874.1122, 1442.873
874.5943, 1439.045
875.0764, 1430.622
875.5585, 1432.879
876.0406, 1445.921
876.5228, 1455.169
877.0049, 1450.561
877.4870, 1440.395
877.9691, 1434.317
878.4512, 1431.441
878.9333, 1430.407
879.4155, 1430.654
879.8976, 1430.385
880.3797, 1428.867
880.8618, 1425.733
881.3439, 1419.642
881.8260, 1411.857
882.3082, 1408.520
882.7903, 1409.683
883.2724, 1414.827
883.7545, 1424.846
884.2366, 1432.920
884.7188, 1434.090
885.2009, 1429.870
885.6830, 1423.303
886.1651, 1412.155
886.6472, 1407.832
887.1293, 1412.246
887.6115, 1419.656
888.0936, 1430.594
888.5757, 1441.066
889.0578, 1447.956
889.5399, 1451.099
890.0220, 1445.614
890.5042, 1417.237
890.9863, 1401.478
891.4684, 1413.319
891.9505, 1426.136
892.4326, 1423.093
892.9147, 1411.608
893.3969, 1405.270
893.8790, 1406.350
894.3611, 1408.747
894.8432, 1409.894
895.3253, 1412.938
895.8074, 1422.872
896.2896, 1433.096
896.7717, 1436.396
897.2538, 1433.051
897.7359, 1426.552
898.2180, 1416.467
898.7001, 1410.103
899.1823, 1416.153
899.6644, 1425.903
900.1465, 1429.799
900.6286, 1429.507
901.1107, 1430.636
901.5928, 1434.287
902.0750, 1435.946
902.5571, 1430.042
903.0392, 1423.288
903.5213, 1428.306
904.0034, 1439.877
904.4855, 1444.561
904.9677, 1441.457
905.4498, 1435.374
905.9319, 1428.551
906.4140, 1423.466
906.8961, 1425.321
907.3782, 1431.705
907.8604, 1429.722
908.3425, 1419.937
908.8246, 1414.909
909.3067, 1417.846
909.7888, 1421.060
910.2709, 1418.538
910.7531, 1412.622
911.2352, 1409.775
911.7173, 1410.555
912.1994, 1409.688
912.6815, 1407.393
913.1636, 1401.174
913.6458, 1387.267
914.1279, 1375.062
914.6100, 1375.921
915.0921, 1388.569
915.5742, 1398.872
916.0563, 1406.209
916.5385, 1412.864
917.0206, 1422.542
917.5027, 1426.268
917.9848, 1414.266
918.4669, 1396.145
918.9490, 1388.702
919.4312, 1393.508
919.9133, 1397.761
920.3954, 1406.195
920.8775, 1407.348
921.3596, 1386.462
921.8417, 1368.847
922.3239, 1379.789
922.8060, 1407.789
923.2881, 1421.760
923.7702, 1413.759
924.2523, 1403.801
924.7344, 1392.917
925.2166, 1385.729
925.6987, 1386.681
926.1808, 1391.103
926.6629, 1394.682
927.1450, 1396.592
927.6271, 1396.147
928.1093, 1390.503
928.5914, 1388.240
929.0735, 1399.612
929.5556, 1411.141
930.0377, 1408.589
930.5198, 1398.063
931.0020, 1390.134
931.4841, 1387.837
931.9662, 1391.983
932.4483, 1408.480
932.9304, 1424.213
933.4125, 1423.266
933.8947, 1416.179
934.3768, 1419.773
934.8589, 1431.624
935.3410, 1438.647
935.8231, 1435.923
936.3052, 1430.084
936.7874, 1426.165
937.2695, 1424.050
937.7516, 1422.467
938.2337, 1422.801
938.7158, 1430.177
939.1979, 1444.028
939.6801, 1456.925
940.1622, 1464.759
940.6443, 1468.922
941.1264, 1470.372
941.6085, 1469.894
942.0906, 1469.329
942.5728, 1468.984
943.0549, 1471.391
943.5370, 1476.907
944.0191, 1479.699
944.5012, 1474.608
944.9833, 1466.401
945.4655, 1465.648
945.9476, 1471.630
946.4297, 1477.751
946.9118, 1483.666
947.3939, 1491.417
947.8760, 1501.912
948.3582, 1512.457
948.8403, 1520.587
949.3224, 1526.303
949.8045, 1528.425
950.2866, 1526.425
950.7687, 1529.394
951.2509, 1538.967
951.7330, 1548.613
952.2151, 1555.291
952.6972, 1560.841
953.1793, 1567.948
953.6614, 1576.317
954.1436, 1582.229
954.6257, 1586.863
955.1078, 1581.852
955.5899, 1559.322
956.0720, 1547.169
956.5541, 1567.202
957.0363, 1598.545
957.5184, 1603.361
958.0005, 1578.723
958.4826, 1567.111
958.9647, 1575.536
959.4468, 1579.739
959.9290, 1570.791
960.4111, 1564.216
960.8932, 1574.292
961.3753, 1592.138
961.8574, 1595.666
962.3395, 1580.159
962.8217, 1569.671
963.3038, 1565.102
963.7859, 1564.261
964.2680, 1569.903
964.7501, 1575.682
965.2322, 1576.939
965.7144, 1574.263
966.1965, 1569.078
966.6786, 1557.034
967.1607, 1552.867
967.6428, 1566.004
968.1249, 1574.867
968.6071, 1570.621
969.0892, 1561.601
969.5713, 1553.105
970.0534, 1546.034
970.5355, 1544.035
971.0176, 1549.625
971.4998, 1531.216
971.9819, 1570.529
972.4640, 1595.043
972.9461, 1605.551
973.4282, 1560.105
973.9103, 1586.911
974.3925, 1584.764
974.8746, 1581.428
975.3567, 1618.404
975.8388, 1581.097
976.3209, 1617.434
976.8030, 1624.373
977.2852, 1644.769
977.7673, 1636.028
978.2494, 1636.287
978.7315, 1665.689
979.2136, 1678.954
979.6957, 1666.860
980.1779, 1656.830
980.6600, 1651.071
981.1421, 1646.599
981.6242, 1654.829
982.1063, 1669.318
982.5884, 1680.467
983.0706, 1686.982
983.5527, 1691.489
984.0348, 1695.776
984.5169, 1696.804
984.9990, 1687.351
985.4811, 1680.248
985.9633, 1689.205
986.4454, 1705.393
986.9275, 1713.313
987.4096, 1710.258
987.8917, 1704.416
988.3738, 1694.836
988.8560, 1688.016
989.3381, 1690.963
989.8202, 1693.855
990.3023, 1684.026
990.7844, 1669.484
991.2665, 1667.022
991.7487, 1680.106
992.2308, 1695.647
992.7129, 1712.484
993.1950, 1725.469
993.6771, 1729.365
994.1592, 1730.662
994.6414, 1734.101
995.1235, 1740.023
995.6056, 1749.429
996.0877, 1762.785
996.5698, 1770.366
997.0519, 1760.984
997.5341, 1753.188
998.0162, 1760.736
998.4983, 1771.246
998.9804, 1771.941
999.4625, 1765.818
999.9446, 1762.197
1000.427, 1763.475
1000.909, 1766.278
1001.391, 1769.510
1001.873, 1773.385
1002.355, 1782.537
1002.837, 1788.747
1003.319, 1777.555
1003.802, 1757.915
1004.284, 1755.078
1004.766, 1777.278
1005.248, 1792.393
1005.730, 1775.243
1006.212, 1760.062
1006.694, 1772.352
1007.176, 1791.200
1007.659, 1794.392
1008.141, 1786.052
1008.623, 1781.966
1009.105, 1786.824
1009.587, 1788.880
1010.069, 1777.014
1010.551, 1768.209
1011.033, 1777.608
1011.515, 1789.872
1011.998, 1787.681
1012.480, 1775.749
1012.962, 1768.349
1013.444, 1769.121
1013.926, 1773.615
1014.408, 1782.660
1014.890, 1791.703
1015.372, 1800.715
1015.854, 1806.689
1016.337, 1804.324
1016.819, 1797.150
1017.301, 1794.238
1017.783, 1798.145
1018.265, 1800.529
1018.747, 1797.634
1019.229, 1793.490
1019.711, 1784.178
1020.194, 1779.487
1020.676, 1793.994
1021.158, 1818.561
1021.640, 1832.343
1022.122, 1830.886
1022.604, 1823.413
1023.086, 1800.912
1023.568, 1788.351
1024.051, 1805.990
1024.533, 1827.932
1025.015, 1832.670
1025.497, 1825.519
1025.979, 1818.338
1026.461, 1812.122
1026.943, 1815.803
1027.425, 1839.727
1027.907, 1862.713
1028.390, 1879.663
1028.872, 1891.534
1029.354, 1896.635
1029.836, 1898.229
1030.318, 1902.398
1030.800, 1910.115
1031.282, 1916.278
1031.764, 1918.227
1032.246, 1921.139
1032.729, 1926.309
1033.211, 1932.717
1033.693, 1939.958
1034.175, 1947.906
1034.657, 1958.582
1035.139, 1972.944
1035.621, 1976.197
1036.103, 1947.166
1036.586, 1936.679
1037.068, 1968.609
1037.550, 2002.074
1038.032, 2016.850
1038.514, 2018.938
1038.996, 2013.069
1039.478, 1998.627
1039.960, 1999.906
1040.443, 2031.811
1040.925, 2053.927
1041.407, 2056.503
1041.889, 2058.581
1042.371, 2072.125
1042.853, 2086.582
1043.335, 2086.912
1043.817, 2074.247
1044.299, 2067.917
1044.781, 2066.798
1045.264, 2076.167
1045.746, 2106.335
1046.228, 2126.310
1046.710, 2119.197
1047.192, 2102.445
1047.674, 2093.563
1048.156, 2092.396
1048.638, 2097.867
1049.121, 2110.015
1049.603, 2130.563
1050.085, 2165.050
1050.567, 2188.904
1051.049, 2190.575
1051.531, 2186.639
1052.013, 2192.179
1052.495, 2205.527
1052.978, 2222.341
1053.460, 2243.665
1053.942, 2258.677
1054.424, 2266.501
1054.906, 2272.454
1055.388, 2277.520
1055.870, 2284.124
1056.352, 2294.020
1056.834, 2307.089
1057.317, 2323.359
1057.799, 2342.720
1058.281, 2365.049
1058.763, 2390.282
1059.245, 2413.892
1059.727, 2434.879
1060.209, 2454.719
1060.691, 2474.604
1061.173, 2492.825
1061.656, 2504.567
1062.138, 2512.654
1062.620, 2529.516
1063.102, 2553.354
1063.584, 2574.025
1064.066, 2590.521
1064.548, 2610.210
1065.030, 2636.798
1065.513, 2665.488
1065.995, 2692.854
1066.477, 2716.740
1066.959, 2728.406
1067.441, 2734.788
1067.923, 2753.551
1068.405, 2783.880
1068.887, 2815.520
1069.370, 2844.191
1069.852, 2867.584
1070.334, 2879.656
1070.816, 2891.250
1071.298, 2917.706
1071.780, 2949.632
1072.262, 2974.660
1072.744, 2993.554
1073.226, 3011.126
1073.708, 3028.464
1074.191, 3043.352
1074.673, 3055.212
1075.155, 3062.882
1075.637, 3054.885
1076.119, 3052.550
1076.601, 3080.969
1077.083, 3124.665
1077.565, 3163.841
1078.047, 3193.777
1078.530, 3211.559
1079.012, 3211.807
1079.494, 3212.879
1079.976, 3219.984
1080.458, 3231.960
1080.940, 3250.028
1081.422, 3271.176
1081.904, 3292.259
1082.387, 3313.972
1082.869, 3339.537
1083.351, 3370.255
1083.833, 3400.944
1084.315, 3427.995
1084.797, 3459.085
1085.279, 3492.056
1085.761, 3533.979
1086.244, 3596.604
1086.726, 3668.240
1087.208, 3727.368
1087.690, 3773.198
1088.172, 3816.088
1088.654, 3853.359
1089.136, 3893.795
1089.618, 3935.408
1090.100, 3987.475
1090.583, 4058.853
1091.065, 4134.648
1091.547, 4193.701
1092.029, 4240.057
1092.511, 4299.633
1092.993, 4374.212
1093.475, 4452.107
1093.957, 4536.166
1094.439, 4591.030
1094.922, 4601.583
1095.404, 4609.476
1095.886, 4653.879
1096.368, 4711.660
1096.850, 4727.263
1097.332, 4707.514
1097.814, 4697.960
1098.296, 4697.057
1098.779, 4686.775
1099.261, 4662.882
1099.743, 4623.502
1100.225, 4566.817
1100.707, 4508.534
1101.189, 4473.332
1101.671, 4447.265
1102.153, 4402.379
1102.635, 4347.019
1103.118, 4294.371
1103.600, 4249.321
1104.082, 4217.446
1104.564, 4200.996
1105.046, 4204.159
1105.528, 4239.378
1106.010, 4282.033
1106.492, 4306.690
1106.974, 4331.715
1107.457, 4375.260
1107.939, 4434.318
1108.421, 4508.746
1108.903, 4592.785
1109.385, 4657.913
1109.867, 4688.086
1110.349, 4713.366
1110.831, 4755.406
1111.314, 4782.342
1111.796, 4780.537
1112.278, 4752.894
1112.760, 4705.227
1113.242, 4634.632
1113.724, 4528.475
1114.206, 4378.035
1114.688, 4221.155
1115.171, 4047.504
1115.653, 3887.179
1116.135, 3737.543
1116.617, 3616.185
1117.099, 3540.087
1117.581, 3488.357
1118.063, 3427.386
1118.545, 3359.088
1119.027, 3310.001
1119.510, 3279.486
1119.992, 3275.371
1120.474, 3302.667
1120.956, 3326.699
1121.438, 3334.899
1121.920, 3331.968
1122.402, 3320.215
1122.884, 3306.024
1123.366, 3303.833
1123.849, 3312.225
1124.331, 3327.621
1124.813, 3347.535
1125.295, 3359.472
1125.777, 3361.745
1126.259, 3361.946
1126.741, 3364.097
1127.223, 3366.881
1127.706, 3367.860
1128.188, 3369.573
1128.670, 3373.173
1129.152, 3381.313
1129.634, 3406.068
1130.116, 3437.076
1130.598, 3446.129
1131.080, 3427.972
1131.563, 3410.371
1132.045, 3406.086
1132.527, 3407.602
1133.009, 3414.666
1133.491, 3422.318
1133.973, 3429.125
1134.455, 3433.082
1134.937, 3429.593
1135.419, 3421.015
1135.901, 3417.963
1136.384, 3424.799
1136.866, 3427.603
1137.348, 3420.742
1137.830, 3416.659
1138.312, 3418.650
1138.794, 3422.365
1139.276, 3424.061
1139.758, 3427.413
1140.241, 3439.892
1140.723, 3460.394
1141.205, 3470.796
1141.687, 3469.748
1142.169, 3469.534
1142.651, 3471.335
1143.133, 3472.311
1143.615, 3471.316
1144.098, 3471.615
1144.580, 3476.436
1145.062, 3482.688
1145.544, 3483.254
1146.026, 3480.487
1146.508, 3481.141
1146.990, 3485.169
1147.472, 3492.879
1147.954, 3503.305
1148.437, 3513.269
1148.919, 3521.348
1149.401, 3525.981
1149.883, 3521.762
1150.365, 3518.250
1150.847, 3522.304
1151.329, 3533.108
1151.811, 3556.554
1152.293, 3582.912
1152.776, 3595.069
1153.258, 3592.214
1153.740, 3587.262
1154.222, 3580.410
1154.704, 3579.482
1155.186, 3590.852
1155.668, 3602.477
1156.150, 3608.730
1156.633, 3614.465
1157.115, 3622.536
1157.597, 3633.170
1158.079, 3647.615
1158.561, 3666.185
1159.043, 3681.268
1159.525, 3693.174
1160.007, 3698.865
1160.490, 3696.180
1160.972, 3698.801
1161.454, 3713.535
1161.936, 3725.606
1162.418, 3718.652
1162.900, 3705.186
1163.382, 3715.341
1163.864, 3742.963
1164.346, 3765.634
1164.828, 3784.294
1165.311, 3809.207
1165.793, 3838.592
1166.275, 3852.124
1166.757, 3840.606
1167.239, 3831.753
1167.721, 3852.953
1168.203, 3882.151
1168.685, 3903.543
1169.168, 3919.295
1169.650, 3931.478
1170.132, 3939.708
1170.614, 3941.840
1171.096, 3938.552
1171.578, 3933.686
1172.060, 3921.149
1172.542, 3924.846
1173.025, 3968.280
1173.507, 4001.381
1173.989, 4002.297
1174.471, 3998.659
1174.953, 4007.716
1175.435, 4023.785
1175.917, 4038.188
1176.399, 4050.706
1176.881, 4057.790
1177.364, 4058.747
1177.846, 4059.454
1178.328, 4059.978
1178.810, 4072.586
1179.292, 4101.261
1179.774, 4130.221
1180.256, 4147.041
1180.738, 4158.309
1181.220, 4176.351
1181.703, 4194.494
1182.185, 4195.237
1182.667, 4187.497
1183.149, 4189.848
1183.631, 4201.640
1184.113, 4212.908
1184.595, 4220.866
1185.077, 4230.827
1185.560, 4246.113
1186.042, 4262.944
1186.524, 4279.012
1187.006, 4296.692
1187.488, 4317.570
1187.970, 4340.659
1188.452, 4370.370
1188.934, 4400.663
1189.417, 4410.672
1189.899, 4396.080
1190.381, 4389.202
1190.863, 4386.764
1191.345, 4406.006
1191.827, 4458.810
1192.309, 4492.752
1192.791, 4480.692
1193.273, 4465.784
1193.755, 4494.024
1194.238, 4541.766
1194.720, 4546.490
1195.202, 4524.142
1195.684, 4538.747
1196.166, 4579.757
1196.648, 4605.496
1197.130, 4611.890
1197.612, 4616.319
1198.095, 4625.733
1198.577, 4635.804
1199.059, 4639.943
1199.541, 4648.739
1200.023, 4678.853
1200.505, 4706.877
1200.987, 4704.347
1201.469, 4694.392
1201.952, 4717.141
1202.434, 4761.386
1202.916, 4769.054
1203.398, 4715.765
1203.880, 4699.310
1204.362, 4743.761
1204.844, 4769.931
1205.326, 4758.053
1205.808, 4751.624
1206.291, 4772.769
1206.773, 4800.497
1207.255, 4811.300
1207.737, 4813.910
1208.219, 4835.508
1208.701, 4869.699
1209.183, 4885.964
1209.665, 4886.913
1210.147, 4884.576
1210.630, 4882.036
1211.112, 4879.327
1211.594, 4876.744
1212.076, 4882.026
1212.558, 4906.772
1213.040, 4932.014
1213.522, 4941.889
1214.004, 4949.221
1214.487, 4962.808
1214.969, 4981.045
1215.451, 5005.781
1215.933, 5032.489
1216.415, 5044.780
1216.897, 5037.027
1217.379, 5037.486
1217.861, 5045.692
1218.344, 5065.804
1218.826, 5105.208
1219.308, 5131.907
1219.790, 5130.762
1220.272, 5120.519
1220.754, 5117.651
1221.236, 5121.721
1221.718, 5134.511
1222.200, 5152.667
1222.682, 5168.006
1223.165, 5178.765
1223.647, 5174.608
1224.129, 5161.661
1224.611, 5164.663
1225.093, 5190.319
1225.575, 5220.432
1226.057, 5254.227
1226.539, 5271.289
1227.022, 5243.870
1227.504, 5217.547
1227.986, 5223.869
1228.468, 5239.624
1228.950, 5237.824
1229.432, 5229.702
1229.914, 5242.711
1230.396, 5277.158
1230.879, 5298.776
1231.361, 5305.082
1231.843, 5312.063
1232.325, 5321.188
1232.807, 5326.378
1233.289, 5325.642
1233.771, 5326.860
1234.253, 5335.281
1234.735, 5349.256
1235.218, 5374.438
1235.700, 5397.282
1236.182, 5388.419
1236.664, 5367.704
1237.146, 5365.542
1237.628, 5376.827
1238.110, 5383.912
1238.592, 5385.799
1239.074, 5397.931
1239.557, 5431.294
1240.039, 5453.254
1240.521, 5446.632
1241.003, 5443.056
1241.485, 5452.036
1241.967, 5461.900
1242.449, 5467.208
1242.931, 5469.418
1243.414, 5468.838
1243.896, 5468.501
1244.378, 5479.956
1244.860, 5501.649
1245.342, 5523.047
1245.824, 5541.619
1246.306, 5541.709
1246.788, 5525.406
1247.271, 5513.458
1247.753, 5514.148
1248.235, 5525.418
1248.717, 5553.565
1249.199, 5575.725
1249.681, 5564.440
1250.163, 5555.084
1250.645, 5581.254
1251.127, 5614.570
1251.609, 5621.125
1252.092, 5612.591
1252.574, 5622.742
1253.056, 5651.679
1253.538, 5657.422
1254.020, 5628.039
1254.502, 5636.649
1254.984, 5692.163
1255.466, 5738.229
1255.949, 5759.358
1256.431, 5763.917
1256.913, 5756.062
1257.395, 5749.089
1257.877, 5758.823
1258.359, 5778.372
1258.841, 5801.832
1259.323, 5825.474
1259.806, 5844.579
1260.288, 5860.315
1260.770, 5869.526
1261.252, 5877.997
1261.734, 5909.367
1262.216, 5975.619
1262.698, 6022.866
1263.180, 6031.328
1263.662, 6044.802
1264.145, 6066.677
1264.627, 6096.746
1265.109, 6136.588
1265.591, 6179.773
1266.073, 6221.313
1266.555, 6259.196
1267.037, 6289.896
1267.519, 6314.779
1268.001, 6328.447
1268.484, 6343.125
##END=



