##NAMES=Marialite
##RRUFFID=R060526
##IDEAL CHEMISTRY=Na_4_Al_3_Si_9_O_24_Cl
##LOCALITY=Minas Gerais, Brazil
##OWNER=RRUFF
##SOURCE=Michael Scott
##DESCRIPTION=Heavily striated pale yellow elongated prism
##STATUS=The identification of this mineral has been confirmed by X-ray diffraction and chemical analysis
##URL=rruff.info/R060526
##MEASURED CHEMISTRY=(Na_0.62_Ca_0.33_K_0.05_)_4_(Si_0.66_Al_0.34_)_12_O_24_(Cl_0.77_(CO_3_)_0.23_)
91.62726, 0.0000000E+00
92.10938, 16.02216
92.59149, 15.85476
93.07361, 15.91537
93.55573, 16.18649
94.03784, 16.45112
94.51996, 16.49265
95.00208, 16.36649
95.48419, 16.26873
95.96631, 16.26305
96.44843, 16.32786
96.93054, 16.38328
97.41266, 16.41627
97.89478, 16.50654
98.37689, 16.80581
98.85901, 17.31208
99.34113, 17.76940
99.82324, 18.06384
100.3054, 18.19300
100.7875, 18.30136
101.2696, 18.35757
101.7517, 18.43397
102.2338, 18.62713
102.7159, 18.88533
103.1981, 19.41027
103.6802, 20.36597
104.1623, 21.94682
104.6444, 23.33075
105.1265, 24.35834
105.6086, 25.17989
106.0908, 26.43483
106.5729, 28.33934
107.0550, 30.41398
107.5371, 32.35983
108.0192, 33.89468
108.5013, 35.74546
108.9835, 37.97696
109.4656, 40.58050
109.9477, 43.51792
110.4298, 46.76110
110.9119, 50.36168
111.3940, 54.43674
111.8762, 58.83993
112.3583, 63.81830
112.8404, 69.44408
113.3225, 75.69809
113.8046, 82.57095
114.2867, 90.64257
114.7689, 99.22778
115.2510, 107.5075
115.7331, 115.1463
116.2152, 122.6637
116.6973, 130.2148
117.1794, 137.8602
117.6616, 145.3509
118.1437, 152.5355
118.6258, 159.5710
119.1079, 166.4707
119.5900, 173.1410
120.0721, 179.8239
120.5543, 186.5790
121.0364, 193.2258
121.5185, 200.3937
122.0006, 208.5962
122.4827, 217.6904
122.9648, 227.3960
123.4470, 236.9221
123.9291, 247.1050
124.4112, 259.0011
124.8933, 273.4498
125.3754, 288.7794
125.8575, 303.3571
126.3397, 317.2950
126.8218, 331.3437
127.3039, 346.2952
127.7860, 361.6522
128.2681, 376.2425
128.7502, 389.4958
129.2324, 402.0370
129.7145, 415.0462
130.1966, 428.5868
130.6787, 441.3047
131.1608, 451.6499
131.6429, 459.8712
132.1251, 467.6949
132.6072, 475.9974
133.0893, 484.2821
133.5714, 490.8288
134.0535, 495.3928
134.5356, 499.3434
135.0178, 504.4173
135.4999, 510.6176
135.9820, 516.8263
136.4641, 522.1165
136.9462, 526.5986
137.4283, 533.3580
137.9105, 542.7612
138.3926, 553.8992
138.8747, 565.2033
139.3568, 576.7385
139.8389, 588.6278
140.3210, 600.6586
140.8032, 612.6188
141.2853, 626.2979
141.7674, 641.9412
142.2495, 659.1014
142.7316, 675.6280
143.2137, 688.4998
143.6959, 698.6607
144.1780, 710.7332
144.6601, 726.1479
145.1422, 740.3015
145.6243, 752.8535
146.1064, 764.1461
146.5886, 775.9382
147.0707, 788.7811
147.5528, 801.4825
148.0349, 813.1662
148.5170, 823.5338
148.9991, 833.5053
149.4813, 842.3134
149.9634, 850.3283
150.4455, 860.3944
150.9276, 875.1335
151.4097, 890.1544
151.8918, 902.4156
152.3740, 910.4443
152.8561, 917.7985
153.3382, 924.3115
153.8203, 929.9894
154.3024, 936.5974
154.7845, 945.3203
155.2667, 954.3619
155.7488, 962.5120
156.2309, 968.6293
156.7130, 974.6505
157.1951, 981.0507
157.6772, 987.8422
158.1594, 994.4577
158.6415, 1001.379
159.1236, 1007.798
159.6057, 1012.947
160.0878, 1015.879
160.5699, 1018.136
161.0521, 1020.639
161.5342, 1023.643
162.0163, 1024.982
162.4984, 1023.543
162.9805, 1020.133
163.4626, 1015.770
163.9448, 1011.730
164.4269, 1006.175
164.9090, 997.6541
165.3911, 985.6163
165.8732, 973.1321
166.3553, 962.5023
166.8375, 952.3695
167.3196, 940.4846
167.8017, 923.9299
168.2838, 906.4717
168.7659, 890.8880
169.2480, 877.9277
169.7302, 865.1413
170.2123, 850.2925
170.6944, 834.2623
171.1765, 819.3068
171.6586, 806.7315
172.1407, 795.5628
172.6229, 784.5306
173.1050, 773.1744
173.5871, 762.6811
174.0692, 754.2493
174.5513, 747.5966
175.0334, 742.0425
175.5156, 737.7367
175.9977, 734.0944
176.4798, 730.3715
176.9619, 726.2965
177.4440, 722.3082
177.9261, 718.8804
178.4083, 715.9753
178.8904, 713.4894
179.3725, 711.0355
179.8546, 708.9987
180.3367, 708.3273
180.8188, 709.5821
181.3010, 711.5773
181.7831, 712.5638
182.2652, 712.6725
182.7473, 713.0172
183.2294, 714.6419
183.7115, 717.1539
184.1937, 719.3964
184.6758, 721.0868
185.1579, 722.4889
185.6400, 724.0430
186.1221, 725.7373
186.6042, 727.6692
187.0864, 730.3566
187.5685, 733.5013
188.0506, 735.5420
188.5327, 735.7812
189.0148, 735.0862
189.4969, 735.3801
189.9791, 736.6942
190.4612, 738.4249
190.9433, 740.5650
191.4254, 742.9510
191.9075, 744.1910
192.3896, 743.6011
192.8718, 741.8492
193.3539, 740.9817
193.8360, 741.1113
194.3181, 741.1740
194.8002, 739.8099
195.2823, 737.0544
195.7645, 735.2299
196.2466, 735.1052
196.7287, 736.2438
197.2108, 736.9258
197.6929, 737.0772
198.1750, 737.0380
198.6572, 737.0944
199.1393, 737.2377
199.6214, 737.3782
200.1035, 737.4238
200.5856, 737.4280
201.0677, 737.7852
201.5499, 738.5642
202.0320, 739.4674
202.5141, 740.1229
202.9962, 740.4675
203.4783, 741.2160
203.9604, 742.9108
204.4426, 745.3036
204.9247, 746.0218
205.4068, 744.7135
205.8889, 742.6606
206.3710, 741.4139
206.8531, 741.3997
207.3353, 740.0381
207.8174, 736.4689
208.2995, 730.8610
208.7816, 725.3699
209.2637, 720.0525
209.7458, 714.8453
210.2280, 709.6771
210.7101, 704.4899
211.1922, 699.4659
211.6743, 694.3531
212.1564, 689.2365
212.6385, 685.8608
213.1207, 684.8585
213.6028, 684.6150
214.0849, 683.3328
214.5670, 680.4987
215.0491, 678.2418
215.5313, 677.1516
216.0134, 677.2172
216.4955, 677.1033
216.9776, 676.5644
217.4597, 676.1808
217.9418, 676.6956
218.4240, 678.5917
218.9061, 680.1016
219.3882, 680.7487
219.8703, 680.5203
220.3524, 680.4484
220.8345, 680.5736
221.3167, 680.7991
221.7988, 681.1457
222.2809, 681.9640
222.7630, 682.0253
223.2451, 680.6964
223.7272, 677.9326
224.2094, 676.6325
224.6915, 677.6475
225.1736, 679.1542
225.6557, 679.3604
226.1378, 678.0336
226.6199, 675.8782
227.1021, 672.7161
227.5842, 668.5128
228.0663, 665.1967
228.5484, 663.0925
229.0305, 661.4767
229.5126, 659.6915
229.9948, 657.6991
230.4769, 655.6091
230.9590, 653.3936
231.4411, 651.0591
231.9232, 648.6905
232.4053, 646.0186
232.8875, 643.5647
233.3696, 641.8878
233.8517, 641.6269
234.3338, 640.8762
234.8159, 639.1560
235.2980, 636.4821
235.7802, 634.2828
236.2623, 632.7316
236.7444, 631.4788
237.2265, 630.2644
237.7086, 629.1592
238.1907, 627.9431
238.6729, 626.3967
239.1550, 624.5795
239.6371, 623.5442
240.1192, 623.5955
240.6013, 624.0792
241.0834, 624.4841
241.5656, 624.6766
242.0477, 625.0184
242.5298, 625.4760
243.0119, 626.0732
243.4940, 627.1755
243.9761, 629.1746
244.4583, 631.2023
244.9404, 632.5600
245.4225, 632.6754
245.9046, 633.2849
246.3867, 634.6974
246.8688, 636.8010
247.3510, 638.8669
247.8331, 641.0665
248.3152, 643.0146
248.7973, 644.3528
249.2794, 644.4830
249.7615, 645.3180
250.2437, 647.1927
250.7258, 649.9132
251.2079, 652.4439
251.6900, 654.2967
252.1721, 656.6595
252.6542, 660.3787
253.1364, 666.1628
253.6185, 671.5348
254.1006, 676.0756
254.5827, 680.1044
255.0648, 684.7897
255.5469, 690.5298
256.0291, 696.2101
256.5112, 701.2161
256.9933, 705.3167
257.4754, 709.3201
257.9575, 712.9334
258.4396, 716.5859
258.9218, 721.5281
259.4039, 728.5280
259.8860, 735.4993
260.3681, 741.5223
260.8502, 746.3763
261.3323, 751.1082
261.8145, 756.2338
262.2966, 760.9210
262.7787, 763.2526
263.2608, 762.5333
263.7429, 760.8793
264.2250, 759.2332
264.7072, 757.9186
265.1893, 755.1676
265.6714, 750.5712
266.1535, 744.8685
266.6356, 739.4754
267.1177, 734.6306
267.5999, 729.2678
268.0820, 722.6223
268.5641, 714.2429
269.0462, 707.8118
269.5283, 704.0323
270.0104, 701.2643
270.4926, 696.6625
270.9747, 689.3797
271.4568, 683.1867
271.9389, 679.5844
272.4210, 678.6345
272.9031, 677.3322
273.3853, 675.5367
273.8674, 673.6636
274.3495, 672.3393
274.8316, 671.6652
275.3137, 670.9296
275.7958, 669.7636
276.2780, 668.2469
276.7601, 667.4169
277.2422, 667.2186
277.7243, 667.8085
278.2064, 669.7080
278.6885, 673.1207
279.1707, 675.9569
279.6528, 677.5204
280.1349, 678.1143
280.6170, 679.1857
281.0991, 680.6862
281.5812, 682.9000
282.0634, 686.3448
282.5455, 691.1100
283.0276, 695.5150
283.5097, 699.0820
283.9918, 702.1918
284.4739, 706.1116
284.9561, 710.9294
285.4382, 715.9220
285.9203, 720.7625
286.4024, 725.3798
286.8845, 729.3156
287.3666, 732.3723
287.8488, 734.7985
288.3309, 737.3936
288.8130, 740.1801
289.2951, 741.8626
289.7772, 741.3196
290.2593, 738.8129
290.7415, 735.8421
291.2236, 732.5979
291.7057, 728.9065
292.1878, 724.1436
292.6699, 718.4213
293.1520, 713.0333
293.6342, 708.2795
294.1163, 704.4005
294.5984, 702.5853
295.0805, 703.0895
295.5626, 704.7520
296.0447, 706.6458
296.5269, 708.6265
297.0090, 709.9885
297.4911, 710.2363
297.9732, 709.6391
298.4553, 709.0115
298.9374, 708.4424
299.4196, 706.9205
299.9017, 702.8772
300.3838, 696.9872
300.8659, 691.0957
301.3480, 685.5138
301.8301, 680.5915
302.3123, 676.9701
302.7944, 674.5975
303.2765, 672.9545
303.7586, 672.0696
304.2407, 671.5475
304.7228, 670.5841
305.2050, 668.3901
305.6871, 666.2104
306.1692, 665.7509
306.6513, 666.7478
307.1334, 667.7129
307.6155, 667.6088
308.0977, 666.9186
308.5798, 666.1818
309.0619, 665.2946
309.5440, 664.7875
310.0261, 665.5234
310.5082, 667.0820
310.9904, 668.1855
311.4725, 667.2660
311.9546, 666.0615
312.4367, 666.3680
312.9188, 668.9881
313.4009, 671.4568
313.8831, 671.9313
314.3652, 671.1954
314.8473, 670.7460
315.3294, 670.8965
315.8115, 671.7623
316.2936, 673.6498
316.7758, 676.7504
317.2579, 679.7464
317.7400, 681.9935
318.2221, 683.8508
318.7042, 685.8209
319.1863, 688.8578
319.6685, 691.3325
320.1506, 692.2184
320.6327, 691.4557
321.1148, 691.0915
321.5969, 691.3057
322.0790, 692.3777
322.5612, 694.5477
323.0433, 698.9849
323.5254, 703.3373
324.0075, 707.0359
324.4896, 710.1557
324.9717, 713.2174
325.4539, 716.6065
325.9360, 719.7933
326.4181, 722.4291
326.9002, 723.3155
327.3823, 725.1656
327.8644, 728.6478
328.3466, 733.2849
328.8287, 737.6127
329.3108, 741.3785
329.7929, 745.0621
330.2750, 748.7419
330.7571, 752.4191
331.2393, 756.2205
331.7214, 760.7344
332.2035, 765.1616
332.6856, 768.0762
333.1677, 768.4045
333.6498, 768.7969
334.1320, 770.0395
334.6141, 772.2526
335.0962, 774.3349
335.5783, 777.1453
336.0604, 778.9316
336.5425, 777.4367
337.0247, 770.9438
337.5068, 765.5598
337.9889, 762.8116
338.4710, 762.3226
338.9531, 760.4777
339.4352, 756.6663
339.9174, 752.8671
340.3995, 751.1073
340.8816, 751.9426
341.3637, 750.9304
341.8458, 746.6957
342.3279, 740.9763
342.8101, 738.4921
343.2922, 739.6768
343.7743, 741.3354
344.2564, 741.5087
344.7385, 740.2889
345.2206, 739.4655
345.7028, 739.1033
346.1849, 739.2028
346.6670, 739.8434
347.1491, 741.0029
347.6312, 742.3799
348.1133, 744.0388
348.5955, 745.8200
349.0776, 747.0513
349.5597, 747.6747
350.0418, 748.4163
350.5239, 750.2274
351.0060, 752.8063
351.4882, 755.1205
351.9703, 756.6129
352.4524, 757.8651
352.9345, 759.6386
353.4166, 761.9271
353.8987, 764.6641
354.3809, 767.9648
354.8630, 771.6293
355.3451, 775.3035
355.8272, 778.9474
356.3093, 782.5248
356.7914, 785.6738
357.2736, 788.6943
357.7557, 792.3353
358.2378, 798.1949
358.7199, 804.0931
359.2020, 808.1066
359.6841, 809.8548
360.1663, 810.6373
360.6484, 811.0793
361.1305, 811.0309
361.6126, 810.2836
362.0947, 808.7752
362.5768, 806.5435
363.0590, 803.4447
363.5411, 799.4950
364.0232, 795.3107
364.5053, 790.8680
364.9874, 786.4070
365.4695, 782.1150
365.9517, 777.2496
366.4338, 773.4262
366.9159, 771.1438
367.3980, 770.1819
367.8801, 769.6581
368.3622, 769.7975
368.8444, 770.0802
369.3265, 770.2979
369.8086, 770.4996
370.2907, 770.4854
370.7728, 769.7194
371.2549, 768.8880
371.7371, 769.1466
372.2192, 771.0455
372.7013, 773.2953
373.1834, 775.7559
373.6655, 778.5525
374.1476, 780.3365
374.6298, 780.3730
375.1119, 780.2659
375.5940, 781.8676
376.0761, 786.1108
376.5582, 788.9962
377.0403, 789.5284
377.5225, 788.2508
378.0046, 787.3888
378.4867, 786.8742
378.9688, 787.0884
379.4509, 788.6976
379.9330, 791.7269
380.4152, 793.8861
380.8973, 794.8699
381.3794, 795.1379
381.8615, 795.4037
382.3436, 795.6575
382.8257, 795.7104
383.3079, 795.2715
383.7900, 794.5416
384.2721, 794.2859
384.7542, 794.5385
385.2363, 794.8633
385.7184, 794.9892
386.2006, 794.8596
386.6827, 794.2457
387.1648, 792.6095
387.6469, 790.9681
388.1290, 790.8464
388.6111, 792.0289
389.0933, 793.2408
389.5754, 793.8142
390.0575, 793.9067
390.5396, 793.5623
391.0217, 792.5432
391.5038, 791.8678
391.9860, 792.5222
392.4681, 793.9924
392.9502, 795.3527
393.4323, 795.9426
393.9144, 796.4857
394.3965, 797.7264
394.8787, 799.7747
395.3608, 800.8300
395.8429, 799.1212
396.3250, 796.6696
396.8071, 795.2763
397.2892, 796.3101
397.7714, 797.3865
398.2535, 797.8997
398.7356, 797.9938
399.2177, 798.3699
399.6998, 798.6304
400.1819, 799.5861
400.6641, 801.8024
401.1462, 806.7991
401.6283, 809.8727
402.1104, 809.8004
402.5925, 808.3624
403.0746, 808.3059
403.5568, 810.2936
404.0389, 812.4634
404.5210, 814.4148
405.0031, 816.1437
405.4852, 817.6497
405.9673, 818.9323
406.4495, 819.9945
406.9316, 820.6332
407.4137, 820.7034
407.8958, 821.6078
408.3779, 823.7908
408.8600, 826.6945
409.3422, 828.9139
409.8243, 830.4089
410.3064, 831.7619
410.7885, 832.8970
411.2706, 834.0734
411.7527, 836.7805
412.2349, 841.2849
412.7170, 846.1420
413.1991, 849.7327
413.6812, 852.2685
414.1633, 854.2903
414.6454, 855.3444
415.1276, 856.4694
415.6097, 859.4446
416.0918, 864.0013
416.5739, 868.4055
417.0560, 871.4422
417.5381, 873.6734
418.0203, 875.8323
418.5024, 878.2164
418.9845, 880.1473
419.4666, 880.7092
419.9487, 880.5437
420.4308, 880.8397
420.9130, 882.9658
421.3951, 884.9229
421.8772, 885.3827
422.3593, 884.1092
422.8414, 883.5994
423.3235, 885.2060
423.8057, 887.4911
424.2878, 889.2887
424.7699, 889.6699
425.2520, 890.4510
425.7341, 891.9605
426.2162, 894.0380
426.6984, 896.1812
427.1805, 898.1535
427.6626, 900.4368
428.1447, 903.3203
428.6268, 907.0246
429.1089, 910.4384
429.5911, 913.5028
430.0732, 916.3721
430.5553, 919.3887
431.0374, 922.7119
431.5195, 925.4828
432.0016, 927.3842
432.4838, 928.5977
432.9659, 929.7759
433.4480, 930.7709
433.9301, 932.6213
434.4122, 936.3984
434.8943, 941.8604
435.3765, 947.1731
435.8586, 952.0199
436.3407, 957.1277
436.8228, 964.0086
437.3049, 972.2446
437.7870, 979.8516
438.2692, 985.0806
438.7513, 989.6366
439.2334, 996.2054
439.7155, 1004.693
440.1976, 1013.308
440.6797, 1019.946
441.1619, 1026.289
441.6440, 1034.583
442.1261, 1046.223
442.6082, 1058.149
443.0903, 1067.717
443.5724, 1076.254
444.0546, 1086.625
444.5367, 1101.361
445.0188, 1116.928
445.5009, 1131.151
445.9830, 1143.210
446.4651, 1158.222
446.9473, 1177.839
447.4294, 1200.476
447.9115, 1224.550
448.3936, 1249.917
448.8757, 1277.038
449.3578, 1307.135
449.8400, 1338.814
450.3221, 1369.116
450.8042, 1396.880
451.2863, 1425.241
451.7684, 1456.219
452.2505, 1490.628
452.7327, 1523.020
453.2148, 1553.567
453.6969, 1581.473
454.1790, 1605.029
454.6611, 1624.477
455.1432, 1639.979
455.6254, 1650.869
456.1075, 1658.251
456.5896, 1664.684
457.0717, 1670.191
457.5538, 1673.906
458.0359, 1675.772
458.5181, 1675.368
459.0002, 1671.506
459.4823, 1663.971
459.9644, 1653.891
460.4465, 1642.978
460.9286, 1630.309
461.4108, 1614.330
461.8929, 1593.618
462.3750, 1570.102
462.8571, 1544.498
463.3392, 1516.959
463.8214, 1489.331
464.3035, 1462.230
464.7856, 1435.181
465.2677, 1407.508
465.7498, 1378.351
466.2319, 1350.745
466.7141, 1326.072
467.1962, 1303.241
467.6783, 1280.527
468.1604, 1256.549
468.6425, 1234.221
469.1246, 1214.392
469.6068, 1196.874
470.0889, 1179.380
470.5710, 1160.864
471.0531, 1143.774
471.5352, 1129.658
472.0173, 1119.031
472.4995, 1109.192
472.9816, 1100.437
473.4637, 1091.947
473.9458, 1082.172
474.4279, 1070.921
474.9100, 1060.874
475.3922, 1053.075
475.8743, 1047.020
476.3564, 1041.369
476.8385, 1036.121
477.3206, 1030.985
477.8027, 1025.342
478.2849, 1019.742
478.7670, 1015.526
479.2491, 1013.030
479.7312, 1011.182
480.2133, 1009.268
480.6954, 1007.230
481.1776, 1004.956
481.6597, 1001.846
482.1418, 998.9589
482.6239, 997.2595
483.1060, 996.5433
483.5881, 995.4587
484.0703, 992.8022
484.5524, 990.0674
485.0345, 988.2063
485.5166, 987.7410
485.9987, 987.3375
486.4808, 987.5201
486.9630, 987.4551
487.4451, 985.9216
487.9272, 980.6622
488.4093, 977.2130
488.8914, 977.2308
489.3735, 980.2294
489.8557, 981.6370
490.3378, 980.9217
490.8199, 979.9031
491.3020, 979.5841
491.7841, 979.9893
492.2662, 980.9803
492.7484, 982.7863
493.2305, 984.5370
493.7126, 984.6770
494.1947, 983.4370
494.6768, 982.5943
495.1589, 982.8432
495.6411, 983.6897
496.1232, 984.1544
496.6053, 984.3380
497.0874, 984.9113
497.5695, 986.7689
498.0516, 989.0175
498.5338, 990.6877
499.0159, 991.6229
499.4980, 992.0961
499.9801, 991.6066
500.4622, 990.9891
500.9443, 991.2298
501.4265, 994.1582
501.9086, 996.3869
502.3907, 996.3895
502.8728, 994.7424
503.3549, 993.8440
503.8370, 995.0239
504.3192, 996.0897
504.8013, 996.1022
505.2834, 994.6516
505.7655, 994.0199
506.2476, 994.4024
506.7297, 995.3819
507.2119, 996.6532
507.6940, 998.3077
508.1761, 999.8094
508.6582, 1001.020
509.1403, 1002.076
509.6224, 1003.378
510.1046, 1004.930
510.5867, 1006.325
511.0688, 1007.238
511.5509, 1007.836
512.0330, 1008.570
512.5151, 1009.444
512.9973, 1010.519
513.4794, 1011.822
513.9615, 1013.380
514.4436, 1015.346
514.9257, 1018.053
515.4078, 1020.484
515.8900, 1021.534
516.3721, 1021.796
516.8542, 1022.413
517.3363, 1023.641
517.8184, 1025.479
518.3005, 1028.012
518.7827, 1031.231
519.2648, 1034.777
519.7469, 1039.440
520.2290, 1043.762
520.7111, 1046.805
521.1932, 1047.078
521.6754, 1049.134
522.1575, 1053.446
522.6396, 1059.144
523.1217, 1065.224
523.6038, 1071.958
524.0859, 1077.939
524.5681, 1082.385
525.0502, 1085.941
525.5323, 1090.991
526.0144, 1097.600
526.4965, 1104.943
526.9786, 1112.985
527.4608, 1121.440
527.9429, 1129.050
528.4250, 1135.725
528.9071, 1142.689
529.3892, 1150.969
529.8713, 1160.398
530.3535, 1170.533
530.8356, 1181.440
531.3177, 1192.932
531.7998, 1205.132
532.2819, 1217.871
532.7640, 1230.180
533.2462, 1241.454
533.7283, 1252.729
534.2104, 1265.227
534.6925, 1279.194
535.1746, 1290.651
535.6567, 1299.099
536.1389, 1304.993
536.6210, 1308.514
537.1031, 1310.151
537.5852, 1308.320
538.0673, 1302.293
538.5494, 1293.437
539.0316, 1283.837
539.5137, 1273.410
539.9958, 1262.202
540.4779, 1249.924
540.9600, 1237.038
541.4421, 1224.870
541.9243, 1213.457
542.4064, 1202.411
542.8885, 1191.299
543.3706, 1180.535
543.8527, 1170.619
544.3348, 1161.522
544.8170, 1154.128
545.2991, 1150.199
545.7812, 1148.013
546.2633, 1145.376
546.7454, 1141.311
547.2275, 1137.146
547.7097, 1133.084
548.1918, 1129.309
548.6739, 1126.320
549.1560, 1124.474
549.6381, 1123.142
550.1202, 1122.301
550.6024, 1121.966
551.0845, 1121.525
551.5666, 1121.177
552.0487, 1120.455
552.5308, 1118.885
553.0129, 1116.182
553.4951, 1114.072
553.9772, 1112.583
554.4593, 1111.763
554.9414, 1112.069
555.4235, 1113.370
555.9056, 1114.083
556.3878, 1113.489
556.8699, 1112.347
557.3520, 1111.789
557.8341, 1111.768
558.3162, 1112.094
558.7983, 1112.731
559.2805, 1113.623
559.7626, 1114.967
560.2447, 1116.787
560.7268, 1118.038
561.2089, 1117.721
561.6910, 1116.951
562.1732, 1116.623
562.6553, 1117.239
563.1374, 1117.776
563.6195, 1117.768
564.1016, 1117.719
564.5837, 1118.449
565.0659, 1120.581
565.5480, 1122.343
566.0301, 1123.239
566.5122, 1123.465
566.9943, 1123.930
567.4764, 1124.629
567.9586, 1125.571
568.4407, 1127.044
568.9228, 1128.846
569.4049, 1129.646
569.8870, 1129.323
570.3691, 1129.006
570.8513, 1129.812
571.3334, 1131.408
571.8155, 1133.189
572.2976, 1135.208
572.7797, 1136.960
573.2618, 1137.999
573.7440, 1138.520
574.2261, 1138.904
574.7082, 1138.797
575.1903, 1139.057
575.6724, 1140.286
576.1545, 1142.347
576.6367, 1143.989
577.1188, 1144.906
577.6009, 1145.584
578.0830, 1146.242
578.5651, 1146.946
579.0472, 1147.224
579.5294, 1146.759
580.0115, 1146.466
580.4936, 1147.395
580.9757, 1149.586
581.4578, 1151.561
581.9399, 1153.056
582.4221, 1154.377
582.9042, 1155.975
583.3863, 1157.807
583.8684, 1159.793
584.3505, 1162.194
584.8326, 1164.492
585.3148, 1166.079
585.7969, 1167.048
586.2790, 1167.785
586.7611, 1167.586
587.2432, 1167.888
587.7253, 1170.068
588.2075, 1174.716
588.6896, 1178.213
589.1717, 1179.278
589.6538, 1179.272
590.1359, 1179.191
590.6180, 1178.774
591.1002, 1178.767
591.5823, 1179.220
592.0644, 1180.075
592.5465, 1181.493
593.0286, 1183.660
593.5107, 1184.964
593.9929, 1184.496
594.4750, 1183.258
594.9571, 1184.142
595.4392, 1186.957
595.9213, 1189.609
596.4034, 1190.689
596.8856, 1190.972
597.3677, 1191.397
597.8498, 1192.020
598.3319, 1192.814
598.8140, 1193.465
599.2961, 1194.441
599.7783, 1196.206
600.2604, 1199.184
600.7425, 1202.158
601.2246, 1205.405
601.7067, 1208.269
602.1888, 1209.791
602.6710, 1208.439
603.1531, 1208.330
603.6352, 1210.451
604.1173, 1213.959
604.5994, 1216.421
605.0815, 1217.717
605.5637, 1218.440
606.0458, 1218.593
606.5279, 1218.400
607.0100, 1218.747
607.4921, 1219.641
607.9742, 1220.826
608.4564, 1222.003
608.9385, 1223.418
609.4206, 1225.668
609.9027, 1229.030
610.3848, 1231.925
610.8669, 1232.901
611.3491, 1233.106
611.8312, 1233.738
612.3133, 1235.284
612.7954, 1236.999
613.2775, 1239.209
613.7596, 1241.358
614.2418, 1242.363
614.7239, 1241.150
615.2060, 1240.615
615.6881, 1241.775
616.1702, 1244.060
616.6523, 1244.425
617.1345, 1242.506
617.6166, 1240.922
618.0987, 1241.524
618.5808, 1243.703
619.0629, 1245.152
619.5450, 1245.860
620.0272, 1246.228
620.5093, 1246.326
620.9914, 1246.392
621.4735, 1246.686
621.9556, 1247.196
622.4377, 1248.171
622.9199, 1249.698
623.4020, 1251.771
623.8841, 1254.375
624.3662, 1259.064
624.8483, 1262.393
625.3304, 1263.182
625.8126, 1262.401
626.2947, 1262.168
626.7768, 1262.704
627.2589, 1263.245
627.7410, 1263.339
628.2231, 1263.288
628.7053, 1265.320
629.1874, 1269.667
629.6695, 1272.817
630.1516, 1270.982
630.6337, 1266.571
631.1158, 1265.691
631.5980, 1268.588
632.0801, 1271.885
632.5622, 1273.123
633.0443, 1273.349
633.5264, 1273.532
634.0085, 1273.561
634.4907, 1274.415
634.9728, 1277.458
635.4549, 1281.087
635.9370, 1283.381
636.4191, 1282.723
636.9012, 1282.692
637.3834, 1283.806
637.8655, 1285.618
638.3476, 1287.051
638.8297, 1288.010
639.3118, 1288.984
639.7939, 1290.134
640.2761, 1291.418
640.7582, 1292.605
641.2403, 1293.730
641.7224, 1295.113
642.2045, 1297.294
642.6866, 1299.736
643.1688, 1301.630
643.6509, 1302.967
644.1330, 1304.231
644.6151, 1306.149
645.0972, 1307.865
645.5793, 1308.525
646.0615, 1307.332
646.5436, 1306.813
647.0257, 1307.300
647.5078, 1308.664
647.9899, 1310.940
648.4720, 1314.715
648.9542, 1317.993
649.4363, 1320.618
649.9184, 1322.652
650.4005, 1324.385
650.8826, 1325.795
651.3647, 1326.311
651.8469, 1324.945
652.3290, 1323.400
652.8111, 1324.973
653.2932, 1329.091
653.7753, 1333.317
654.2574, 1336.805
654.7396, 1339.507
655.2217, 1340.982
655.7038, 1341.301
656.1859, 1341.922
656.6680, 1343.601
657.1501, 1345.459
657.6323, 1347.023
658.1144, 1348.257
658.5965, 1349.404
659.0786, 1350.462
659.5607, 1351.513
660.0428, 1352.752
660.5250, 1354.239
661.0071, 1355.152
661.4892, 1355.317
661.9713, 1355.310
662.4534, 1355.811
662.9355, 1356.739
663.4177, 1357.839
663.8998, 1358.994
664.3819, 1360.361
664.8640, 1362.481
665.3461, 1364.845
665.8282, 1366.503
666.3104, 1366.215
666.7925, 1366.096
667.2746, 1367.104
667.7567, 1368.985
668.2388, 1370.119
668.7209, 1369.651
669.2031, 1369.805
669.6852, 1371.471
670.1673, 1374.566
670.6494, 1377.793
671.1315, 1381.219
671.6136, 1384.416
672.0958, 1387.429
672.5779, 1389.953
673.0600, 1390.669
673.5421, 1389.444
674.0242, 1388.293
674.5063, 1388.796
674.9885, 1390.212
675.4706, 1391.605
675.9527, 1392.415
676.4348, 1394.260
676.9169, 1398.923
677.3990, 1404.272
677.8812, 1407.904
678.3633, 1409.035
678.8454, 1409.748
679.3275, 1410.265
679.8096, 1410.395
680.2917, 1409.264
680.7739, 1406.732
681.2560, 1405.831
681.7381, 1408.049
682.2202, 1411.647
682.7023, 1413.443
683.1844, 1413.711
683.6666, 1413.460
684.1487, 1412.348
684.6308, 1411.613
685.1129, 1412.396
685.5950, 1414.506
686.0771, 1416.822
686.5593, 1419.729
687.0414, 1422.026
687.5235, 1422.617
688.0056, 1421.283
688.4877, 1421.557
688.9698, 1424.002
689.4520, 1427.020
689.9341, 1429.700
690.4162, 1432.025
690.8983, 1434.362
691.3804, 1436.762
691.8625, 1439.049
692.3447, 1441.750
692.8268, 1444.069
693.3089, 1443.731
693.7910, 1439.471
694.2731, 1436.309
694.7552, 1439.150
695.2374, 1444.479
695.7195, 1448.219
696.2016, 1447.706
696.6837, 1447.633
697.1658, 1448.303
697.6479, 1449.891
698.1301, 1453.031
698.6122, 1458.740
699.0943, 1462.934
699.5764, 1464.382
700.0585, 1464.273
700.5406, 1465.809
701.0228, 1468.750
701.5049, 1470.508
701.9870, 1468.557
702.4691, 1465.919
702.9512, 1466.986
703.4333, 1471.021
703.9155, 1475.119
704.3976, 1478.813
704.8797, 1481.403
705.3618, 1481.958
705.8439, 1480.505
706.3260, 1479.971
706.8082, 1480.782
707.2903, 1482.326
707.7724, 1484.375
708.2545, 1486.941
708.7366, 1490.047
709.2188, 1493.916
709.7009, 1497.225
710.1830, 1498.352
710.6651, 1497.988
711.1472, 1498.224
711.6293, 1499.220
712.1115, 1500.788
712.5936, 1503.476
713.0757, 1506.333
713.5578, 1508.103
714.0399, 1507.923
714.5220, 1508.414
715.0042, 1511.173
715.4863, 1514.579
715.9684, 1516.947
716.4505, 1517.907
716.9326, 1518.651
717.4147, 1519.264
717.8969, 1519.704
718.3790, 1519.570
718.8611, 1518.922
719.3432, 1519.252
719.8253, 1521.139
720.3074, 1523.666
720.7896, 1525.550
721.2717, 1527.093
721.7538, 1529.078
722.2359, 1532.209
722.7180, 1535.449
723.2001, 1538.689
723.6823, 1541.642
724.1644, 1543.294
724.6465, 1542.129
725.1286, 1541.474
725.6107, 1542.450
726.0928, 1544.578
726.5750, 1545.084
727.0571, 1543.562
727.5392, 1543.149
728.0213, 1546.204
728.5034, 1551.207
728.9855, 1553.963
729.4677, 1554.684
729.9498, 1555.024
730.4319, 1556.074
730.9140, 1557.161
731.3961, 1556.992
731.8782, 1555.526
732.3604, 1556.340
732.8425, 1563.615
733.3246, 1570.663
733.8067, 1573.920
734.2888, 1572.723
734.7709, 1571.661
735.2531, 1570.375
735.7352, 1570.121
736.2173, 1572.692
736.6994, 1577.485
737.1815, 1580.459
737.6636, 1581.283
738.1458, 1581.383
738.6279, 1581.899
739.1100, 1582.552
739.5921, 1582.750
740.0742, 1581.987
740.5563, 1582.312
741.0385, 1585.401
741.5206, 1589.484
742.0027, 1592.885
742.4848, 1595.606
742.9669, 1597.385
743.4490, 1597.932
743.9312, 1597.903
744.4133, 1597.904
744.8954, 1597.955
745.3775, 1598.861
745.8596, 1600.840
746.3417, 1603.536
746.8239, 1607.330
747.3060, 1611.390
747.7881, 1613.983
748.2702, 1613.461
748.7523, 1612.915
749.2344, 1613.539
749.7166, 1615.202
750.1987, 1617.683
750.6808, 1622.357
751.1629, 1625.637
751.6450, 1625.803
752.1271, 1625.024
752.6093, 1629.560
753.0914, 1639.905
753.5735, 1647.527
754.0556, 1648.382
754.5377, 1646.344
755.0198, 1648.052
755.5020, 1652.464
755.9841, 1656.295
756.4662, 1656.625
756.9483, 1657.145
757.4304, 1660.625
757.9125, 1666.211
758.3947, 1670.716
758.8768, 1672.699
759.3589, 1674.580
759.8410, 1676.756
760.3231, 1679.289
760.8052, 1682.653
761.2874, 1686.957
761.7695, 1691.475
762.2516, 1696.059
762.7337, 1700.645
763.2158, 1704.521
763.6979, 1708.052
764.1801, 1713.048
764.6622, 1723.327
765.1443, 1733.216
765.6264, 1737.920
766.1085, 1737.518
766.5906, 1738.358
767.0728, 1742.054
767.5549, 1746.595
768.0370, 1751.538
768.5191, 1756.848
769.0012, 1761.095
769.4833, 1764.129
769.9655, 1766.815
770.4476, 1769.620
770.9297, 1772.568
771.4118, 1775.986
771.8939, 1779.836
772.3760, 1783.155
772.8582, 1784.554
773.3403, 1785.701
773.8224, 1788.148
774.3045, 1792.281
774.7866, 1795.447
775.2687, 1797.644
775.7509, 1798.336
776.2330, 1796.592
776.7151, 1791.902
777.1972, 1790.212
777.6793, 1792.088
778.1614, 1793.704
778.6436, 1791.553
779.1257, 1786.787
779.6078, 1782.011
780.0899, 1777.418
780.5720, 1772.506
781.0541, 1765.436
781.5363, 1758.831
782.0184, 1755.476
782.5005, 1757.055
782.9826, 1756.636
783.4647, 1752.123
783.9468, 1747.208
784.4290, 1744.600
784.9111, 1744.655
785.3932, 1743.515
785.8753, 1740.813
786.3574, 1738.538
786.8395, 1739.242
787.3217, 1741.656
787.8038, 1743.138
788.2859, 1743.207
788.7680, 1743.123
789.2501, 1743.472
789.7322, 1744.099
790.2144, 1744.858
790.6965, 1745.598
791.1786, 1746.858
791.6607, 1749.137
792.1428, 1751.345
792.6249, 1752.082
793.1071, 1751.260
793.5892, 1752.854
794.0713, 1757.495
794.5534, 1762.375
795.0355, 1764.611
795.5176, 1765.134
795.9998, 1765.221
796.4819, 1764.790
796.9640, 1765.471
797.4461, 1769.323
797.9282, 1773.920
798.4103, 1776.908
798.8925, 1776.862
799.3746, 1778.254
799.8567, 1781.882
800.3388, 1785.619
800.8209, 1786.509
801.3030, 1784.950
801.7852, 1786.168
802.2673, 1790.998
802.7494, 1796.813
803.2315, 1801.561
803.7136, 1805.370
804.1957, 1808.114
804.6779, 1809.290
805.1600, 1811.105
805.6421, 1815.274
806.1242, 1819.760
806.6063, 1822.610
807.0884, 1822.533
807.5706, 1824.615
808.0527, 1829.761
808.5348, 1834.903
809.0169, 1836.358
809.4990, 1834.910
809.9811, 1834.224
810.4633, 1834.963
810.9454, 1835.175
811.4275, 1832.099
811.9096, 1828.223
812.3917, 1826.500
812.8738, 1828.654
813.3560, 1829.796
813.8381, 1828.499
814.3202, 1826.517
814.8023, 1825.179
815.2844, 1824.632
815.7665, 1823.575
816.2487, 1821.619
816.7308, 1820.590
817.2129, 1823.401
817.6950, 1828.322
818.1771, 1831.519
818.6592, 1832.239
819.1414, 1832.566
819.6235, 1833.533
820.1056, 1834.821
820.5877, 1836.190
821.0698, 1837.648
821.5519, 1839.089
822.0341, 1840.371
822.5162, 1841.896
822.9983, 1844.322
823.4804, 1847.589
823.9625, 1849.730
824.4446, 1850.593
824.9268, 1851.056
825.4089, 1851.179
825.8910, 1851.706
826.3731, 1853.867
826.8552, 1858.049
827.3373, 1861.919
827.8195, 1865.232
828.3016, 1867.416
828.7837, 1867.966
829.2658, 1866.426
829.7479, 1865.635
830.2300, 1865.608
830.7122, 1866.397
831.1943, 1868.009
831.6764, 1870.521
832.1585, 1874.955
832.6406, 1881.283
833.1227, 1885.970
833.6049, 1885.517
834.0870, 1883.072
834.5691, 1880.351
835.0512, 1877.241
835.5333, 1877.023
836.0154, 1881.753
836.4976, 1886.721
836.9797, 1889.335
837.4618, 1889.677
837.9439, 1891.000
838.4260, 1893.291
838.9081, 1896.219
839.3903, 1900.447
839.8724, 1904.685
840.3545, 1906.656
840.8366, 1906.526
841.3187, 1906.836
841.8008, 1909.825
842.2830, 1912.503
842.7651, 1913.225
843.2472, 1912.167
843.7293, 1911.257
844.2114, 1910.174
844.6935, 1910.444
845.1757, 1913.509
845.6578, 1918.211
846.1399, 1921.222
846.6220, 1922.722
847.1041, 1923.780
847.5862, 1924.837
848.0684, 1925.795
848.5505, 1926.153
849.0326, 1926.185
849.5147, 1927.453
849.9968, 1931.089
850.4789, 1934.485
850.9611, 1937.089
851.4432, 1938.931
851.9253, 1939.507
852.4074, 1938.902
852.8895, 1939.914
853.3716, 1945.079
853.8538, 1950.831
854.3359, 1952.294
854.8180, 1950.962
855.3001, 1950.353
855.7822, 1951.620
856.2643, 1953.948
856.7465, 1958.101
857.2286, 1962.797
857.7107, 1965.585
858.1928, 1966.098
858.6749, 1966.316
859.1570, 1966.383
859.6392, 1966.921
860.1213, 1969.441
860.6034, 1973.236
861.0855, 1976.541
861.5676, 1978.878
862.0497, 1980.573
862.5319, 1981.668
863.0140, 1982.295
863.4961, 1982.530
863.9782, 1981.808
864.4603, 1981.932
864.9424, 1983.066
865.4246, 1984.927
865.9067, 1986.976
866.3888, 1989.361
866.8709, 1993.544
867.3530, 2000.123
867.8351, 2005.981
868.3173, 2008.218
868.7994, 2008.588
869.2815, 2008.624
869.7636, 2007.777
870.2457, 2009.204
870.7278, 2015.286
871.2100, 2021.092
871.6921, 2022.272
872.1742, 2018.603
872.6563, 2017.935
873.1384, 2020.574
873.6205, 2023.865
874.1027, 2025.673
874.5848, 2026.795
875.0669, 2028.409
875.5490, 2030.587
876.0311, 2032.062
876.5132, 2031.634
876.9954, 2031.100
877.4775, 2031.149
877.9596, 2031.793
878.4417, 2033.475
878.9238, 2036.363
879.4059, 2039.330
879.8881, 2041.911
880.3702, 2044.042
880.8523, 2044.927
881.3344, 2045.032
881.8165, 2046.360
882.2986, 2051.597
882.7808, 2056.602
883.2629, 2058.775
883.7450, 2058.980
884.2271, 2060.872
884.7092, 2065.687
885.1913, 2068.369
885.6735, 2066.746
886.1556, 2063.366
886.6377, 2064.208
887.1198, 2068.106
887.6019, 2070.883
888.0840, 2069.948
888.5662, 2069.165
889.0483, 2071.160
889.5304, 2074.869
890.0125, 2078.661
890.4946, 2083.498
890.9767, 2086.302
891.4589, 2086.280
891.9410, 2085.226
892.4231, 2085.370
892.9052, 2086.572
893.3873, 2087.916
893.8694, 2089.217
894.3516, 2090.944
894.8337, 2093.528
895.3158, 2096.677
895.7979, 2100.282
896.2800, 2104.697
896.7621, 2107.933
897.2443, 2108.969
897.7264, 2109.968
898.2085, 2112.388
898.6906, 2116.171
899.1727, 2120.427
899.6548, 2125.142
900.1370, 2128.791
900.6191, 2129.414
901.1012, 2128.931
901.5833, 2129.259
902.0654, 2130.451
902.5475, 2131.646
903.0297, 2132.220
903.5118, 2133.279
903.9939, 2135.366
904.4760, 2138.167
904.9581, 2140.087
905.4402, 2141.096
905.9224, 2142.767
906.4045, 2146.879
906.8866, 2150.689
907.3687, 2149.048
907.8508, 2144.582
908.3329, 2143.184
908.8151, 2149.643
909.2972, 2156.049
909.7793, 2161.442
910.2614, 2165.530
910.7435, 2167.410
911.2256, 2166.878
911.7078, 2167.022
912.1899, 2168.416
912.6720, 2170.394
913.1541, 2172.678
913.6362, 2174.799
914.1183, 2175.706
914.6005, 2174.495
915.0826, 2174.511
915.5647, 2178.556
916.0468, 2182.705
916.5289, 2183.667
917.0110, 2180.471
917.4932, 2182.022
917.9753, 2188.769
918.4574, 2196.378
918.9395, 2202.520
919.4216, 2206.875
919.9037, 2208.240
920.3859, 2206.921
920.8680, 2205.778
921.3501, 2205.813
921.8322, 2206.524
922.3143, 2207.656
922.7964, 2209.272
923.2786, 2212.155
923.7607, 2216.615
924.2428, 2220.003
924.7249, 2220.950
925.2070, 2220.786
925.6891, 2221.194
926.1713, 2222.166
926.6534, 2223.683
927.1355, 2226.396
927.6176, 2228.831
928.0997, 2230.264
928.5818, 2231.349
929.0640, 2232.896
929.5461, 2234.975
930.0282, 2237.015
930.5103, 2238.897
930.9924, 2240.880
931.4745, 2243.599
931.9567, 2246.448
932.4388, 2248.330
932.9209, 2248.932
933.4030, 2249.716
933.8851, 2250.944
934.3672, 2252.885
934.8494, 2255.950
935.3315, 2260.246
935.8136, 2262.957
936.2957, 2263.875
936.7778, 2265.073
937.2599, 2268.603
937.7421, 2272.767
938.2242, 2274.845
938.7063, 2275.193
939.1884, 2275.344
939.6705, 2274.723
940.1526, 2275.427
940.6348, 2278.824
941.1169, 2283.611
941.5990, 2286.672
942.0811, 2287.820
942.5632, 2289.646
943.0453, 2293.137
943.5275, 2296.496
944.0096, 2296.475
944.4917, 2295.190
944.9738, 2296.346
945.4559, 2302.531
945.9380, 2307.103
946.4202, 2307.468
946.9023, 2306.474
947.3844, 2305.735
947.8665, 2305.129
948.3486, 2305.987
948.8307, 2308.317
949.3129, 2311.738
949.7950, 2316.944
950.2771, 2322.439
950.7592, 2326.296
951.2413, 2328.567
951.7234, 2330.423
952.2056, 2330.872
952.6877, 2332.719
953.1698, 2337.565
953.6519, 2344.145
954.1340, 2348.012
954.6161, 2349.288
955.0983, 2349.675
955.5804, 2349.191
956.0625, 2349.244
956.5446, 2351.598
957.0267, 2355.317
957.5089, 2358.990
957.9910, 2362.570
958.4731, 2365.478
958.9552, 2367.395
959.4373, 2368.971
959.9194, 2370.443
960.4016, 2371.951
960.8837, 2375.584
961.3658, 2381.465
961.8479, 2386.809
962.3300, 2388.494
962.8121, 2389.358
963.2943, 2392.035
963.7764, 2396.726
964.2585, 2399.812
964.7406, 2400.228
965.2227, 2401.149
965.7048, 2404.492
966.1870, 2408.655
966.6691, 2408.700
967.1512, 2405.517
967.6333, 2402.667
968.1154, 2400.398
968.5975, 2400.589
969.0797, 2406.513
969.5618, 2414.756
970.0439, 2420.103
970.5260, 2421.434
971.0081, 2422.098
971.4902, 2421.848
971.9724, 2422.122
972.4545, 2424.935
972.9366, 2429.355
973.4187, 2433.140
973.9008, 2436.038
974.3829, 2439.006
974.8651, 2442.900
975.3472, 2446.590
975.8293, 2449.315
976.3114, 2451.209
976.7935, 2453.769
977.2756, 2457.103
977.7578, 2460.390
978.2399, 2462.962
978.7220, 2465.719
979.2041, 2470.519
979.6862, 2476.499
980.1683, 2481.749
980.6505, 2485.645
981.1326, 2488.755
981.6147, 2491.427
982.0968, 2493.226
982.5789, 2493.145
983.0610, 2491.145
983.5432, 2490.427
984.0253, 2491.277
984.5074, 2492.811
984.9895, 2494.812
985.4716, 2496.701
985.9537, 2497.336
986.4359, 2496.555
986.9180, 2498.073
987.4001, 2504.147
987.8822, 2509.253
988.3643, 2511.137
988.8464, 2510.742
989.3286, 2510.417
989.8107, 2510.333
990.2928, 2511.259
990.7749, 2514.179
991.2570, 2517.296
991.7391, 2520.084
992.2213, 2522.098
992.7034, 2522.566
993.1855, 2520.311
993.6676, 2519.609
994.1497, 2520.616
994.6318, 2523.066
995.1140, 2528.036
995.5961, 2533.763
996.0782, 2535.991
996.5603, 2534.562
997.0424, 2533.848
997.5245, 2537.519
998.0067, 2540.620
998.4888, 2540.135
998.9709, 2537.216
999.4530, 2537.376
999.9351, 2540.809
1000.417, 2544.271
1000.899, 2546.864
1001.381, 2548.745
1001.864, 2549.556
1002.346, 2550.031
1002.828, 2551.430
1003.310, 2555.888
1003.792, 2557.770
1004.274, 2555.311
1004.756, 2552.360
1005.238, 2552.189
1005.721, 2554.501
1006.203, 2557.049
1006.685, 2559.741
1007.167, 2563.042
1007.649, 2567.872
1008.131, 2572.803
1008.613, 2577.010
1009.095, 2580.362
1009.577, 2582.744
1010.060, 2583.566
1010.542, 2585.124
1011.024, 2588.150
1011.506, 2591.618
1011.988, 2593.541
1012.470, 2594.720
1012.952, 2596.918
1013.434, 2600.841
1013.917, 2604.816
1014.399, 2608.926
1014.881, 2612.135
1015.363, 2613.626
1015.845, 2613.398
1016.327, 2612.743
1016.809, 2611.670
1017.291, 2612.020
1017.773, 2616.656
1018.256, 2621.972
1018.738, 2624.804
1019.220, 2625.472
1019.702, 2624.875
1020.184, 2621.184
1020.666, 2619.682
1021.148, 2621.276
1021.630, 2624.819
1022.112, 2629.470
1022.595, 2634.613
1023.077, 2637.984
1023.559, 2639.106
1024.041, 2639.719
1024.523, 2640.059
1025.005, 2640.924
1025.487, 2642.864
1025.969, 2645.816
1026.452, 2649.567
1026.934, 2654.274
1027.416, 2658.512
1027.898, 2661.869
1028.380, 2664.172
1028.862, 2664.227
1029.344, 2663.229
1029.826, 2663.421
1030.308, 2667.038
1030.791, 2669.636
1031.273, 2670.292
1031.755, 2670.619
1032.237, 2672.139
1032.719, 2674.760
1033.201, 2677.786
1033.683, 2681.180
1034.165, 2684.610
1034.647, 2686.985
1035.130, 2690.066
1035.612, 2696.051
1036.094, 2703.968
1036.576, 2709.081
1037.058, 2710.944
1037.540, 2711.282
1038.022, 2709.944
1038.504, 2708.624
1038.987, 2710.064
1039.469, 2713.089
1039.951, 2715.636
1040.433, 2716.781
1040.915, 2718.995
1041.397, 2723.196
1041.879, 2728.102
1042.361, 2733.661
1042.844, 2739.476
1043.326, 2742.366
1043.808, 2742.599
1044.290, 2742.604
1044.772, 2744.301
1045.254, 2745.673
1045.736, 2744.173
1046.218, 2741.890
1046.700, 2743.123
1047.183, 2749.383
1047.665, 2754.338
1048.147, 2757.279
1048.629, 2759.335
1049.111, 2761.247
1049.593, 2763.257
1050.075, 2765.775
1050.557, 2768.809
1051.040, 2772.071
1051.522, 2775.507
1052.004, 2778.972
1052.486, 2782.368
1052.968, 2785.715
1053.450, 2789.368
1053.932, 2793.158
1054.414, 2795.935
1054.896, 2796.970
1055.379, 2798.080
1055.861, 2800.268
1056.343, 2803.394
1056.825, 2807.710
1057.307, 2813.741
1057.789, 2817.439
1058.271, 2818.446
1058.753, 2819.352
1059.235, 2822.516
1059.718, 2826.155
1060.200, 2827.124
1060.682, 2826.338
1061.164, 2826.411
1061.646, 2828.209
1062.128, 2830.805
1062.610, 2833.802
1063.092, 2837.770
1063.574, 2844.367
1064.057, 2852.730
1064.539, 2859.321
1065.021, 2863.812
1065.503, 2865.967
1065.985, 2863.732
1066.467, 2861.030
1066.949, 2859.702
1067.431, 2859.906
1067.914, 2862.975
1068.396, 2869.325
1068.878, 2874.196
1069.360, 2875.623
1069.842, 2876.732
1070.324, 2881.724
1070.806, 2888.381
1071.288, 2893.832
1071.771, 2897.425
1072.253, 2899.858
1072.735, 2900.569
1073.217, 2901.345
1073.699, 2903.302
1074.181, 2906.077
1074.663, 2908.421
1075.145, 2910.645
1075.627, 2913.805
1076.110, 2919.658
1076.592, 2925.000
1077.074, 2928.883
1077.556, 2931.776
1078.038, 2934.276
1078.520, 2936.402
1079.002, 2936.534
1079.484, 2934.534
1079.967, 2933.103
1080.449, 2934.944
1080.931, 2937.722
1081.413, 2939.865
1081.895, 2941.304
1082.377, 2942.257
1082.859, 2942.241
1083.341, 2943.825
1083.823, 2948.105
1084.306, 2952.796
1084.788, 2953.720
1085.270, 2953.328
1085.752, 2955.708
1086.234, 2962.249
1086.716, 2967.715
1087.198, 2970.968
1087.680, 2973.382
1088.162, 2974.950
1088.645, 2976.444
1089.127, 2981.712
1089.609, 2989.524
1090.091, 2995.030
1090.573, 2994.580
1091.055, 2994.136
1091.537, 2995.691
1092.019, 2999.039
1092.501, 3004.449
1092.984, 3012.306
1093.466, 3017.401
1093.948, 3019.649
1094.430, 3022.068
1094.912, 3028.044
1095.394, 3034.045
1095.876, 3036.070
1096.358, 3035.700
1096.841, 3038.002
1097.323, 3043.935
1097.805, 3050.781
1098.287, 3058.834
1098.769, 3065.265
1099.251, 3064.444
1099.733, 3060.911
1100.215, 3062.261
1100.698, 3069.143
1101.180, 3075.030
1101.662, 3079.728
1102.144, 3080.556
1102.626, 3074.644
1103.108, 3066.515
1103.590, 3068.236
1104.072, 3076.886
1104.554, 3083.576
1105.037, 3085.783
1105.519, 3086.312
1106.001, 3083.404
1106.483, 3082.241
1106.965, 3086.906
1107.447, 3096.831
1107.929, 3104.083
1108.411, 3108.752
1108.894, 3112.633
1109.376, 3115.029
1109.858, 3119.037
1110.340, 3128.113
1110.822, 3139.750
1111.304, 3150.684
1111.786, 3160.717
1112.268, 3169.944
1112.750, 3178.353
1113.233, 3185.559
1113.715, 3193.478
1114.197, 3198.479
1114.679, 3195.558
1115.161, 3185.865
1115.643, 3173.864
1116.125, 3159.230
1116.607, 3144.372
1117.089, 3128.864
1117.572, 3115.105
1118.054, 3107.042
1118.536, 3102.725
1119.018, 3097.326
1119.500, 3090.520
1119.982, 3087.297
1120.464, 3093.188
1120.946, 3098.684
1121.428, 3100.926
1121.911, 3100.805
1122.393, 3099.230
1122.875, 3096.992
1123.357, 3098.599
1123.839, 3106.267
1124.321, 3111.859
1124.803, 3107.725
1125.285, 3102.471
1125.768, 3101.866
1126.250, 3105.445
1126.732, 3108.641
1127.214, 3111.492
1127.696, 3114.631
1128.178, 3118.766
1128.660, 3122.566
1129.142, 3125.037
1129.625, 3126.471
1130.107, 3126.921
1130.589, 3125.917
1131.071, 3127.013
1131.553, 3130.604
1132.035, 3133.263
1132.517, 3130.817
1132.999, 3127.633
1133.481, 3129.622
1133.964, 3134.800
1134.446, 3138.567
1134.928, 3138.636
1135.410, 3140.346
1135.892, 3144.251
1136.374, 3148.970
1136.856, 3154.113
1137.338, 3158.605
1137.821, 3159.632
1138.303, 3157.758
1138.785, 3156.978
1139.267, 3158.443
1139.749, 3161.861
1140.231, 3168.289
1140.713, 3174.938
1141.195, 3176.801
1141.677, 3175.675
1142.160, 3176.562
1142.642, 3180.112
1143.124, 3184.762
1143.606, 3191.613
1144.088, 3197.095
1144.570, 3199.317
1145.052, 3199.631
1145.534, 3201.630
1146.016, 3205.079
1146.499, 3209.128
1146.981, 3214.027
1147.463, 3217.188
1147.945, 3216.622
1148.427, 3213.969
1148.909, 3209.049
1149.391, 3202.800
1149.873, 3204.577
1150.355, 3213.991
1150.838, 3221.666
1151.320, 3223.431
1151.802, 3223.719
1152.284, 3224.905
1152.766, 3227.081
1153.248, 3230.707
1153.730, 3236.116
1154.212, 3239.108
1154.695, 3239.448
1155.177, 3240.304
1155.659, 3243.638
1156.141, 3248.161
1156.623, 3253.546
1157.105, 3258.938
1157.587, 3262.703
1158.069, 3264.591
1158.552, 3265.149
1159.034, 3264.040
1159.516, 3263.511
1159.998, 3265.587
1160.480, 3269.079
1160.962, 3273.487
1161.444, 3278.099
1161.926, 3280.418
1162.408, 3277.931
1162.891, 3278.512
1163.373, 3283.668
1163.855, 3289.538
1164.337, 3291.887
1164.819, 3292.275
1165.301, 3292.866
1165.783, 3293.865
1166.265, 3295.503
1166.748, 3299.284
1167.230, 3301.085
1167.712, 3299.472
1168.194, 3297.103
1168.676, 3297.827
1169.158, 3300.706
1169.640, 3303.788
1170.122, 3306.849
1170.604, 3310.606
1171.087, 3315.900
1171.569, 3321.242
1172.051, 3326.774
1172.533, 3331.461
1173.015, 3331.843
1173.497, 3329.820
1173.979, 3331.016
1174.461, 3337.043
1174.943, 3342.998
1175.426, 3347.680
1175.908, 3350.899
1176.390, 3351.870
1176.872, 3351.731
1177.354, 3355.371
1177.836, 3361.300
1178.318, 3363.622
1178.800, 3358.452
1179.282, 3355.948
1179.765, 3364.236
1180.247, 3372.953
1180.729, 3375.350
1181.211, 3373.040
1181.693, 3376.248
1182.175, 3383.746
1182.657, 3388.978
1183.139, 3388.777
1183.622, 3386.838
1184.104, 3382.388
1184.586, 3379.214
1185.068, 3380.771
1185.550, 3386.823
1186.032, 3392.191
1186.514, 3397.014
1186.996, 3401.958
1187.479, 3408.556
1187.961, 3413.922
1188.443, 3415.436
1188.925, 3415.749
1189.407, 3417.955
1189.889, 3422.125
1190.371, 3423.479
1190.853, 3422.147
1191.335, 3422.705
1191.818, 3429.675
1192.300, 3437.507
1192.782, 3443.630
1193.264, 3448.255
1193.746, 3451.574
1194.228, 3453.521
1194.710, 3455.231
1195.192, 3456.761
1195.675, 3459.240
1196.157, 3464.855
1196.639, 3470.298
1197.121, 3473.074
1197.603, 3476.481
1198.085, 3478.648
1198.567, 3479.623
1199.049, 3481.013
1199.531, 3480.227
1200.014, 3480.140
1200.496, 3484.159
1200.978, 3488.685
1201.460, 3491.075
1201.942, 3491.981
1202.424, 3493.192
1202.906, 3494.674
1203.388, 3497.275
1203.870, 3501.206
1204.353, 3505.378
1204.835, 3509.045
1205.317, 3512.360
1205.799, 3515.684
1206.281, 3518.671
1206.763, 3519.375
1207.245, 3517.651
1207.727, 3517.237
1208.209, 3519.056
1208.692, 3521.508
1209.174, 3523.551
1209.656, 3525.348
1210.138, 3526.604
1210.620, 3527.650
1211.102, 3531.374
1211.584, 3537.895
1212.066, 3540.716
1212.549, 3536.782
1213.031, 3533.644
1213.513, 3538.945
1213.995, 3546.997
1214.477, 3553.466
1214.959, 3558.199
1215.441, 3561.056
1215.923, 3562.060
1216.406, 3561.452
1216.888, 3558.564
1217.370, 3556.570
1217.852, 3559.249
1218.334, 3563.351
1218.816, 3565.589
1219.298, 3566.094
1219.780, 3568.888
1220.262, 3573.954
1220.745, 3578.444
1221.227, 3580.862
1221.709, 3583.483
1222.191, 3589.285
1222.673, 3595.158
1223.155, 3597.013
1223.637, 3603.452
1224.119, 3610.348
1224.602, 3613.160
1225.084, 3623.900
1225.566, 3628.396
1226.048, 3630.105
1226.530, 3629.588
1227.012, 3628.871
1227.494, 3630.399
1227.976, 3630.078
1228.458, 3634.727
1228.941, 3632.321
1229.423, 3631.382
1229.905, 3635.065
1230.387, 3639.181
1230.869, 3640.643
1231.351, 3641.772
1231.833, 3645.176
1232.315, 3650.809
1232.797, 3654.224
1233.280, 3655.541
1233.762, 3656.130
1234.244, 3654.503
1234.726, 3655.156
1235.208, 3664.302
1235.690, 3673.676
1236.172, 3674.708
1236.654, 3667.887
1237.136, 3666.194
1237.619, 3669.062
1238.101, 3671.957
1238.583, 3672.223
1239.065, 3672.334
1239.547, 3672.388
1240.029, 3673.534
1240.511, 3677.330
1240.993, 3683.409
1241.476, 3688.301
1241.958, 3692.188
1242.440, 3696.513
1242.922, 3702.122
1243.404, 3708.152
1243.886, 3715.690
1244.368, 3721.710
1244.850, 3721.124
1245.333, 3716.238
1245.815, 3718.827
1246.297, 3727.584
1246.779, 3734.724
1247.261, 3735.291
1247.743, 3735.486
1248.225, 3735.834
1248.707, 3737.394
1249.189, 3742.854
1249.672, 3750.082
1250.154, 3752.522
1250.636, 3750.948
1251.118, 3749.527
1251.600, 3749.030
1252.082, 3750.663
1252.564, 3755.837
1253.046, 3760.500
1253.529, 3758.762
1254.011, 3754.277
1254.493, 3754.271
1254.975, 3758.210
1255.457, 3762.411
1255.939, 3765.287
1256.421, 3769.696
1256.903, 3776.451
1257.385, 3782.641
1257.868, 3785.070
1258.350, 3785.321
1258.832, 3784.834
1259.314, 3784.201
1259.796, 3785.642
1260.278, 3790.259
1260.760, 3794.493
1261.242, 3798.081
1261.724, 3801.047
1262.207, 3802.535
1262.689, 3804.122
1263.171, 3808.190
1263.653, 3813.895
1264.135, 3817.946
1264.617, 3819.787
1265.099, 3822.183
1265.581, 3825.406
1266.063, 3828.833
1266.546, 3832.620
1267.028, 3835.702
1267.510, 3836.170
1267.992, 3835.447
1268.474, 3837.052
1268.956, 3841.095
1269.438, 3846.360
1269.920, 3852.771
1270.403, 3859.397
1270.885, 3866.567
1271.367, 3872.570
1271.849, 3876.173
1272.331, 3877.990
1272.813, 3878.566
1273.295, 3877.985
1273.777, 3876.992
1274.260, 3875.732
1274.742, 3876.131
1275.224, 3881.113
1275.706, 3885.823
1276.188, 3888.612
1276.670, 3889.977
1277.152, 3889.422
1277.634, 3887.990
1278.116, 3891.189
1278.599, 3898.734
1279.081, 3903.949
1279.563, 3902.176
1280.045, 3900.063
1280.527, 3898.720
1281.009, 3898.312
1281.491, 3898.839
1281.973, 3900.564
1282.456, 3904.533
1282.938, 3910.400
1283.420, 3916.052
1283.902, 3921.740
1284.384, 3925.107
1284.866, 3925.170
1285.348, 3924.929
1285.830, 3927.128
1286.313, 3931.285
1286.795, 3937.807
1287.277, 3945.862
1287.759, 3951.805
1288.241, 3954.915
1288.723, 3957.414
1289.205, 3959.307
1289.687, 3962.204
1290.169, 3969.562
1290.651, 3976.828
1291.134, 3978.631
1291.616, 3984.233
1292.098, 3987.019
1292.580, 3988.168
1293.062, 3990.566
1293.544, 3986.569
1294.026, 3984.695
1294.508, 3995.068
1294.990, 4005.131
1295.473, 4006.227
1295.955, 4003.414
1296.437, 4002.285
1296.919, 4003.025
1297.401, 4008.308
1297.883, 4017.796
1298.365, 4025.876
1298.847, 4028.429
1299.330, 4030.829
1299.812, 4034.356
1300.294, 4038.211
1300.776, 4042.200
1301.258, 4046.055
1301.740, 4048.802
1302.222, 4050.681
1302.704, 4053.167
1303.187, 4056.548
1303.669, 4059.970
1304.151, 4063.081
##END=



