##NAMES=Marialite
##RRUFFID=R050123
##IDEAL CHEMISTRY=Na_4_Al_3_Si_9_O_24_Cl
##LOCALITY=Pakistan
##OWNER=RRUFF
##SOURCE=Syed Shah
##DESCRIPTION=Purple fragment
##STATUS=The identification of this mineral has been confirmed by X-ray diffraction and chemical analysis
##URL=rruff.info/R050123
##MEASURED CHEMISTRY=(Na_0.88_Ca_0.07_K_0.05_)_4_Al_3.00_Si_9.00_O_24_Cl_0.97
125.6462, 182.0659
126.1283, 185.1613
126.6104, 188.5277
127.0925, 192.0563
127.5746, 195.9190
128.0567, 200.4026
128.5389, 205.5952
129.0210, 211.1228
129.5031, 216.3911
129.9852, 221.5294
130.4673, 227.0278
130.9494, 233.6056
131.4316, 240.7304
131.9137, 245.8789
132.3958, 248.5295
132.8779, 250.6650
133.3600, 253.3222
133.8421, 256.4721
134.3243, 260.1675
134.8064, 264.7189
135.2885, 269.9995
135.7706, 274.9616
136.2527, 279.4399
136.7348, 283.6002
137.2169, 287.6828
137.6991, 291.6498
138.1812, 295.8696
138.6633, 300.5853
139.1454, 305.8156
139.6275, 311.5479
140.1096, 318.0574
140.5918, 325.0652
141.0739, 330.5180
141.5560, 333.7218
142.0381, 336.6307
142.5202, 341.2001
143.0023, 348.1870
143.4845, 354.5129
143.9666, 359.3039
144.4487, 362.5792
144.9308, 366.5646
145.4129, 371.5704
145.8951, 377.0131
146.3772, 382.4781
146.8593, 388.0616
147.3414, 393.4610
147.8235, 398.6139
148.3056, 403.6277
148.7878, 408.0954
149.2699, 411.6001
149.7520, 414.7907
150.2341, 418.4818
150.7162, 423.3261
151.1983, 428.0483
151.6805, 432.3905
152.1626, 436.2565
152.6447, 439.8934
153.1268, 443.2163
153.6089, 446.3578
154.0910, 449.5098
154.5732, 453.0063
155.0553, 456.2706
155.5374, 459.1397
156.0195, 461.7674
156.5016, 463.6650
156.9837, 464.5556
157.4659, 464.6679
157.9480, 464.4778
158.4301, 464.5656
158.9122, 464.0371
159.3943, 462.4325
159.8764, 459.3205
160.3586, 455.7462
160.8407, 451.9818
161.3228, 447.9676
161.8049, 443.5344
162.2870, 438.8693
162.7691, 433.6240
163.2512, 427.5269
163.7334, 420.0372
164.2155, 412.3314
164.6976, 404.7841
165.1797, 397.3869
165.6618, 390.0882
166.1439, 383.0941
166.6261, 376.1486
167.1082, 369.0460
167.5903, 361.5013
168.0724, 354.0231
168.5545, 346.7631
169.0366, 339.7614
169.5188, 333.2707
170.0009, 327.7085
170.4830, 322.6914
170.9651, 317.6133
171.4472, 312.1190
171.9293, 306.6438
172.4115, 301.3050
172.8936, 296.1465
173.3757, 291.6883
173.8578, 288.8213
174.3399, 286.8616
174.8220, 284.7365
175.3042, 281.8649
175.7863, 278.7535
176.2684, 275.8952
176.7505, 273.2850
177.2326, 270.7696
177.7147, 268.1686
178.1969, 265.5662
178.6790, 263.2082
179.1611, 261.2760
179.6432, 259.6086
180.1253, 258.0727
180.6074, 256.6954
181.0896, 255.2049
181.5717, 253.2366
182.0538, 250.9261
182.5359, 248.6230
183.0180, 246.7109
183.5001, 244.9109
183.9823, 242.5401
184.4644, 239.5452
184.9465, 236.4883
185.4286, 234.1748
185.9107, 232.4540
186.3928, 230.6521
186.8750, 228.3665
187.3571, 225.7668
187.8392, 223.3008
188.3213, 220.9920
188.8034, 218.8356
189.2855, 217.1057
189.7677, 215.7354
190.2498, 213.9153
190.7319, 210.7937
191.2140, 206.7407
191.6961, 203.8622
192.1782, 202.3932
192.6603, 201.5064
193.1425, 199.9751
193.6246, 197.8127
194.1067, 195.7354
194.5888, 194.1814
195.0709, 193.1081
195.5530, 191.9139
196.0352, 190.5742
196.5173, 189.1035
196.9994, 187.3668
197.4815, 185.3168
197.9636, 183.5856
198.4457, 182.5351
198.9279, 182.1715
199.4100, 181.9105
199.8921, 181.7481
200.3742, 181.6503
200.8563, 181.6172
201.3384, 181.6860
201.8206, 181.5849
202.3027, 181.0374
202.7848, 179.9754
203.2669, 179.4208
203.7490, 179.6066
204.2311, 180.0582
204.7133, 179.7399
205.1954, 178.5072
205.6775, 177.1131
206.1596, 175.9262
206.6417, 174.9816
207.1238, 173.9731
207.6060, 172.8666
208.0881, 171.7082
208.5702, 170.6342
209.0523, 169.7099
209.5344, 168.6684
210.0165, 167.3459
210.4987, 165.6706
210.9808, 163.9861
211.4629, 162.2313
211.9450, 160.5249
212.4271, 159.1921
212.9092, 158.3297
213.3914, 157.5953
213.8735, 156.8025
214.3556, 155.8945
214.8377, 155.1898
215.3198, 154.7779
215.8019, 154.5321
216.2841, 154.1285
216.7662, 153.4624
217.2483, 152.8640
217.7304, 152.4980
218.2125, 152.4229
218.6946, 152.3974
219.1767, 152.3745
219.6589, 152.4198
220.1410, 152.7907
220.6231, 153.8265
221.1052, 154.5564
221.5873, 154.4814
222.0694, 153.2998
222.5516, 152.1296
223.0337, 150.8296
223.5158, 149.6098
223.9979, 148.9991
224.4800, 149.3448
224.9621, 149.7009
225.4443, 149.6362
225.9264, 148.9731
226.4085, 148.3291
226.8906, 147.6642
227.3727, 147.0329
227.8548, 146.5474
228.3370, 146.2937
228.8191, 146.0533
229.3012, 145.7503
229.7833, 145.4216
230.2654, 144.9030
230.7475, 143.9526
231.2297, 142.9098
231.7118, 142.6457
232.1939, 143.7882
232.6760, 144.6994
233.1581, 144.6360
233.6402, 143.0729
234.1224, 141.9619
234.6045, 141.3538
235.0866, 141.1677
235.5687, 141.2642
236.0508, 141.8129
236.5329, 142.3630
237.0151, 142.6776
237.4972, 142.5199
237.9793, 142.8432
238.4614, 143.8473
238.9435, 145.2444
239.4256, 146.5006
239.9078, 147.5983
240.3899, 148.5596
240.8720, 149.3206
241.3541, 149.7143
241.8362, 150.5166
242.3183, 151.9477
242.8005, 153.6819
243.2826, 155.1302
243.7647, 156.0017
244.2468, 157.0492
244.7289, 158.5469
245.2110, 160.6155
245.6931, 162.6281
246.1753, 164.4766
246.6574, 166.3377
247.1395, 168.4992
247.6216, 171.0153
248.1037, 173.6957
248.5858, 176.5425
249.0680, 179.5849
249.5501, 182.4581
250.0322, 185.0419
250.5143, 187.5466
250.9964, 190.2581
251.4785, 193.2515
251.9607, 196.3152
252.4428, 199.3593
252.9249, 202.2991
253.4070, 205.7473
253.8891, 209.9363
254.3712, 214.4176
254.8534, 218.7140
255.3355, 222.8593
255.8176, 226.6779
256.2997, 230.1444
256.7818, 233.2228
257.2639, 236.1142
257.7461, 238.8651
258.2282, 241.3874
258.7103, 243.6149
259.1924, 245.7297
259.6745, 247.1921
260.1566, 247.9798
260.6388, 248.0920
261.1209, 246.9726
261.6030, 244.4574
262.0851, 240.9260
262.5672, 236.6475
263.0493, 231.3086
263.5315, 225.9743
264.0136, 220.9526
264.4957, 216.1739
264.9778, 210.5994
265.4599, 203.8844
265.9420, 197.0570
266.4242, 190.9626
266.9063, 185.5487
267.3884, 180.9387
267.8705, 177.5189
268.3526, 174.9378
268.8347, 171.0555
269.3169, 165.2193
269.7990, 159.5610
270.2811, 155.6038
270.7632, 153.7466
271.2453, 151.9839
271.7274, 150.0625
272.2096, 148.0979
272.6917, 146.3708
273.1738, 144.8506
273.6559, 143.6062
274.1380, 142.7825
274.6201, 142.4740
275.1023, 141.9013
275.5844, 140.8822
276.0665, 139.6874
276.5486, 138.9040
277.0307, 138.5683
277.5128, 138.5241
277.9950, 138.7495
278.4771, 139.2641
278.9592, 139.8090
279.4413, 140.4063
279.9234, 141.0004
280.4055, 141.4725
280.8877, 141.8134
281.3698, 142.1216
281.8519, 142.5078
282.3340, 142.9693
282.8161, 143.1216
283.2982, 142.9236
283.7804, 142.5032
284.2625, 142.0182
284.7446, 141.4638
285.2267, 140.8993
285.7088, 140.3216
286.1909, 139.7430
286.6730, 139.2550
287.1552, 138.8577
287.6373, 138.5462
288.1194, 138.2690
288.6015, 138.0352
289.0836, 138.0484
289.5657, 138.5112
290.0479, 139.2562
290.5300, 139.6352
291.0121, 139.6136
291.4942, 139.5210
291.9763, 139.5821
292.4584, 139.8168
292.9406, 140.3653
293.4227, 141.3250
293.9048, 142.5692
294.3869, 143.9436
294.8690, 145.4523
295.3511, 146.7412
295.8333, 147.4299
296.3154, 147.6539
296.7975, 147.9680
297.2796, 148.7067
297.7617, 149.2579
298.2438, 148.4499
298.7260, 146.4152
299.2081, 144.1378
299.6902, 142.5506
300.1723, 141.1986
300.6544, 138.8921
301.1365, 135.2410
301.6187, 131.2410
302.1008, 128.0113
302.5829, 125.4661
303.0650, 123.1550
303.5471, 120.8886
304.0292, 118.7009
304.5114, 116.5791
304.9935, 114.4539
305.4756, 112.6528
305.9577, 111.7552
306.4398, 111.4134
306.9219, 110.8182
307.4041, 109.1179
307.8862, 107.2295
308.3683, 106.1443
308.8504, 105.9459
309.3325, 105.8580
309.8146, 105.2434
310.2968, 104.3871
310.7789, 103.7049
311.2610, 103.4324
311.7431, 103.3551
312.2252, 103.3195
312.7073, 103.3300
313.1895, 103.4578
313.6716, 103.9541
314.1537, 104.5074
314.6358, 104.7806
315.1179, 104.4268
315.6000, 104.0360
316.0822, 103.8791
316.5643, 103.9339
317.0464, 104.1089
317.5285, 104.5902
318.0106, 105.0405
318.4927, 105.1576
318.9749, 104.5027
319.4570, 104.1702
319.9391, 104.9114
320.4212, 106.2762
320.9033, 107.2296
321.3854, 107.0250
321.8676, 106.6684
322.3497, 106.6696
322.8318, 107.2405
323.3139, 107.7169
323.7960, 107.8231
324.2781, 107.7804
324.7603, 107.9102
325.2424, 108.3537
325.7245, 108.8954
326.2066, 109.5473
326.6887, 110.3662
327.1708, 110.9472
327.6530, 111.0082
328.1351, 110.9339
328.6172, 111.0794
329.0993, 111.6493
329.5814, 112.2326
330.0635, 112.7945
330.5457, 113.3348
331.0278, 113.8436
331.5099, 114.3943
331.9920, 114.8557
332.4741, 115.0990
332.9562, 114.7198
333.4384, 114.8317
333.9205, 115.7915
334.4026, 117.2973
334.8847, 118.2341
335.3668, 118.2687
335.8489, 118.2217
336.3311, 118.5218
336.8132, 119.3982
337.2953, 119.9066
337.7774, 119.8001
338.2595, 119.5138
338.7416, 119.9472
339.2238, 121.3602
339.7059, 122.7276
340.1880, 123.6528
340.6701, 124.1210
341.1522, 124.5788
341.6343, 125.0121
342.1164, 125.4770
342.5985, 126.0326
343.0807, 126.6799
343.5628, 127.4514
344.0449, 128.3950
344.5270, 129.4682
345.0091, 130.5635
345.4912, 131.7022
345.9734, 132.7811
346.4555, 133.5711
346.9376, 134.1370
347.4197, 135.1725
347.9018, 136.9448
348.3839, 139.0257
348.8661, 140.6187
349.3482, 141.7525
349.8303, 142.9270
350.3124, 144.4372
350.7945, 146.2331
351.2766, 148.2402
351.7588, 150.5183
352.2409, 152.8335
352.7230, 154.9138
353.2051, 156.8264
353.6872, 158.8132
354.1693, 161.0359
354.6515, 163.3606
355.1336, 165.6323
355.6157, 167.8773
356.0978, 170.0255
356.5799, 172.2506
357.0620, 174.3275
357.5442, 175.9154
358.0263, 176.7513
358.5084, 177.1956
358.9905, 177.6071
359.4726, 177.9082
359.9547, 177.7086
360.4369, 176.3985
360.9190, 174.7120
361.4011, 173.2954
361.8832, 172.5079
362.3653, 171.5701
362.8474, 170.0571
363.3296, 168.1479
363.8117, 166.2101
364.2938, 164.1483
364.7759, 162.2893
365.2580, 160.9454
365.7401, 160.3687
366.2223, 159.3216
366.7044, 157.0936
367.1865, 154.4219
367.6686, 152.0992
368.1507, 150.5771
368.6328, 149.0927
369.1150, 147.5498
369.5971, 145.9469
370.0792, 144.1570
370.5613, 141.6648
371.0434, 139.3863
371.5255, 137.9307
372.0077, 138.2805
372.4898, 137.9223
372.9719, 136.5625
373.4540, 134.4301
373.9361, 132.1333
374.4182, 129.2801
374.9004, 126.9516
375.3825, 125.7638
375.8646, 126.0899
376.3467, 125.9548
376.8288, 125.2314
377.3109, 124.2027
377.7931, 123.2425
378.2752, 122.3548
378.7573, 121.4895
379.2394, 120.5780
379.7215, 119.6611
380.2036, 119.0345
380.6858, 118.7608
381.1679, 118.5287
381.6500, 118.0159
382.1321, 117.2485
382.6142, 116.6268
383.0963, 116.2671
383.5785, 116.0192
384.0606, 115.5567
384.5427, 114.9058
385.0248, 114.2623
385.5069, 113.8802
385.9890, 113.5882
386.4712, 112.8979
386.9533, 111.7057
387.4354, 110.5223
387.9175, 110.0181
388.3996, 109.9646
388.8817, 109.8480
389.3639, 109.2854
389.8460, 108.6528
390.3281, 108.2793
390.8102, 108.1681
391.2923, 108.2892
391.7744, 109.0066
392.2566, 109.7855
392.7387, 110.0323
393.2208, 109.3064
393.7029, 108.4586
394.1850, 107.7849
394.6671, 107.3082
395.1493, 107.0770
395.6314, 107.3152
396.1135, 107.6455
396.5956, 107.9013
397.0777, 108.0860
397.5598, 108.1213
398.0419, 107.9294
398.5240, 107.6005
399.0062, 107.2382
399.4883, 106.5116
399.9704, 106.1106
400.4525, 106.3743
400.9346, 107.2760
401.4167, 107.8170
401.8989, 107.7272
402.3810, 107.5173
402.8631, 107.4856
403.3452, 107.7103
403.8273, 107.9453
404.3094, 108.0919
404.7916, 108.2804
405.2737, 108.9216
405.7558, 110.3351
406.2379, 111.4006
406.7200, 111.5398
407.2021, 110.6968
407.6843, 110.3921
408.1664, 110.7502
408.6485, 111.3389
409.1306, 111.5702
409.6127, 111.4430
410.0948, 111.7227
410.5770, 112.7814
411.0591, 114.2236
411.5412, 114.8293
412.0233, 114.6202
412.5054, 114.5888
412.9875, 115.7438
413.4697, 117.5990
413.9518, 118.8426
414.4339, 119.2361
414.9160, 119.3135
415.3981, 119.5285
415.8802, 119.8786
416.3624, 120.3682
416.8445, 121.1516
417.3266, 121.9779
417.8087, 122.5477
418.2908, 122.8710
418.7729, 123.2916
419.2551, 124.0221
419.7372, 124.9534
420.2193, 125.9892
420.7014, 127.2355
421.1835, 128.3812
421.6656, 129.1611
422.1478, 129.7254
422.6299, 130.4476
423.1120, 131.4869
423.5941, 132.6676
424.0762, 133.9283
424.5583, 135.3216
425.0405, 136.6230
425.5226, 137.7527
426.0047, 138.8075
426.4868, 139.8579
426.9689, 140.6411
427.4510, 141.7908
427.9332, 143.5718
428.4153, 145.8209
428.8974, 147.6113
429.3795, 148.7004
429.8616, 149.6924
430.3438, 150.8785
430.8259, 152.2903
431.3080, 153.7928
431.7901, 155.3238
432.2722, 157.0321
432.7543, 159.1463
433.2365, 161.6474
433.7186, 164.7353
434.2007, 168.7929
434.6828, 173.4318
435.1649, 176.9128
435.6470, 179.1685
436.1292, 181.5120
436.6113, 184.6661
437.0934, 188.7430
437.5755, 194.3175
438.0576, 201.8248
438.5397, 209.9236
439.0219, 216.5390
439.5040, 222.3403
439.9861, 229.1827
440.4682, 239.0465
440.9503, 249.8223
441.4324, 259.3864
441.9146, 267.6664
442.3967, 275.9158
442.8788, 284.6811
443.3609, 293.9742
443.8430, 303.5929
444.3251, 313.8136
444.8073, 324.1563
445.2894, 334.2235
445.7715, 344.2707
446.2536, 354.9590
446.7357, 366.7169
447.2178, 378.9478
447.7000, 391.2382
448.1821, 403.3286
448.6642, 416.6409
449.1463, 431.6617
449.6284, 447.5600
450.1105, 463.7285
450.5927, 479.8641
451.0747, 496.8664
451.5569, 515.1204
452.0390, 534.3177
452.5211, 554.1439
453.0032, 574.6776
453.4853, 595.1994
453.9674, 615.4023
454.4496, 635.4626
454.9317, 654.2901
455.4138, 672.1354
455.8959, 687.7116
456.3780, 699.8375
456.8601, 708.5059
457.3423, 712.9104
457.8244, 712.8663
458.3065, 708.3035
458.7886, 698.7234
459.2707, 684.1293
459.7528, 666.0443
460.2350, 644.2549
460.7171, 619.7804
461.1992, 593.2281
461.6813, 564.5211
462.1634, 535.4570
462.6455, 506.2357
463.1277, 477.5349
463.6098, 450.1996
464.0919, 423.8849
464.5740, 399.7289
465.0561, 378.4033
465.5382, 359.7719
466.0204, 342.3751
466.5025, 325.4041
466.9846, 309.5510
467.4667, 295.3817
467.9488, 283.3082
468.4309, 272.0064
468.9131, 261.6660
469.3952, 252.0205
469.8773, 242.7761
470.3594, 233.8435
470.8415, 225.2882
471.3236, 216.9818
471.8058, 209.0508
472.2879, 202.0282
472.7700, 196.0740
473.2521, 190.6691
473.7342, 185.4822
474.2163, 180.4824
474.6985, 176.3807
475.1806, 173.4178
475.6627, 170.8282
476.1448, 167.3274
476.6269, 163.0405
477.1090, 159.0343
477.5912, 155.7376
478.0733, 152.9268
478.5554, 150.1578
479.0375, 147.4451
479.5196, 145.0584
480.0017, 143.4439
480.4839, 142.1293
480.9660, 140.4445
481.4481, 138.1754
481.9302, 135.9908
482.4123, 134.3303
482.8944, 133.0424
483.3766, 131.8956
483.8587, 131.0599
484.3408, 130.0960
484.8229, 128.7062
485.3050, 126.9501
485.7871, 125.4104
486.2693, 124.2145
486.7514, 123.2308
487.2335, 122.4264
487.7156, 121.8679
488.1977, 121.2906
488.6798, 120.5618
489.1620, 119.8939
489.6441, 119.6373
490.1262, 120.0452
490.6083, 120.2033
491.0904, 119.8862
491.5725, 119.1772
492.0547, 118.3543
492.5368, 117.3768
493.0189, 116.5650
493.5010, 116.2210
493.9831, 116.2743
494.4652, 116.2659
494.9474, 116.2089
495.4295, 115.9056
495.9116, 114.7170
496.3937, 113.0564
496.8758, 112.1801
497.3579, 113.0122
497.8401, 114.2040
498.3222, 114.1599
498.8043, 113.1790
499.2864, 112.3947
499.7685, 112.5746
500.2506, 113.0758
500.7328, 113.4984
501.2149, 113.8158
501.6970, 113.9021
502.1791, 113.6448
502.6612, 113.1626
503.1433, 112.5681
503.6255, 111.5096
504.1076, 110.7829
504.5897, 110.5861
505.0718, 110.7902
505.5539, 111.0598
506.0360, 111.6764
506.5181, 111.9284
507.0002, 111.3835
507.4824, 109.9559
507.9645, 109.3527
508.4466, 109.8561
508.9287, 110.5312
509.4108, 110.4792
509.8929, 109.7055
510.3751, 108.8349
510.8572, 107.8568
511.3393, 107.0010
511.8214, 106.6306
512.3035, 106.7122
512.7856, 107.0737
513.2678, 107.8781
513.7499, 108.7937
514.2320, 109.3405
514.7141, 109.5306
515.1962, 109.6126
515.6783, 109.5295
516.1605, 109.5319
516.6426, 109.8725
517.1247, 110.6593
517.6068, 111.6362
518.0889, 112.6208
518.5710, 113.7607
519.0532, 115.2506
519.5353, 117.5557
520.0174, 119.7727
520.4995, 121.5267
520.9816, 122.9103
521.4637, 124.7771
521.9459, 127.2486
522.4280, 130.0607
522.9101, 133.2194
523.3922, 136.9930
523.8743, 139.8031
524.3564, 141.3449
524.8386, 142.5696
525.3207, 144.6737
525.8028, 147.6347
526.2849, 150.6238
526.7670, 153.2843
527.2491, 156.0679
527.7313, 159.9789
528.2134, 164.8603
528.6955, 169.7367
529.1776, 172.9717
529.6597, 176.3370
530.1418, 183.0542
530.6240, 193.0811
531.1061, 202.2446
531.5882, 206.0390
532.0703, 208.4043
532.5524, 213.2030
533.0345, 222.3667
533.5167, 232.0867
533.9988, 241.4820
534.4809, 250.5079
534.9630, 259.0539
535.4451, 267.6671
535.9272, 275.2617
536.4094, 281.8441
536.8915, 287.3498
537.3736, 291.4256
537.8557, 294.5894
538.3378, 295.5296
538.8199, 293.5590
539.3021, 288.6304
539.7842, 280.9477
540.2663, 270.0769
540.7484, 257.4263
541.2305, 244.1748
541.7126, 230.3591
542.1948, 217.1010
542.6769, 204.6841
543.1590, 193.2065
543.6411, 183.1591
544.1232, 174.4570
544.6053, 166.8146
545.0875, 160.3613
545.5696, 154.5958
546.0517, 149.0638
546.5338, 143.7247
547.0159, 138.9649
547.4980, 134.9213
547.9802, 131.5050
548.4623, 128.6686
548.9444, 126.6712
549.4265, 124.7728
549.9086, 122.8676
550.3907, 121.0055
550.8729, 119.2145
551.3550, 117.3750
551.8371, 115.8100
552.3192, 114.6189
552.8013, 113.7617
553.2834, 113.1150
553.7656, 112.7807
554.2477, 112.2667
554.7298, 111.1074
555.2119, 109.4033
555.6940, 108.2848
556.1761, 107.7969
556.6583, 107.5303
557.1404, 107.1136
557.6225, 106.6024
558.1046, 106.1467
558.5867, 105.8097
559.0688, 105.4636
559.5510, 104.9109
560.0331, 104.2746
560.5152, 103.7850
560.9973, 103.6337
561.4794, 103.5654
561.9615, 103.4630
562.4437, 103.3306
562.9258, 103.2375
563.4079, 103.3228
563.8900, 103.3422
564.3721, 103.1527
564.8542, 102.6481
565.3364, 102.3113
565.8185, 102.3050
566.3006, 102.2795
566.7827, 101.7545
567.2648, 100.5832
567.7469, 99.87779
568.2291, 99.88911
568.7112, 100.3335
569.1933, 100.7780
569.6754, 101.2013
570.1575, 101.3855
570.6396, 101.0935
571.1218, 100.5742
571.6039, 100.1505
572.0860, 99.83842
572.5681, 99.73146
573.0502, 99.94576
573.5323, 100.3625
574.0145, 101.0015
574.4966, 101.9784
574.9787, 102.5553
575.4608, 102.1039
575.9429, 101.2689
576.4250, 100.6841
576.9072, 100.4708
577.3893, 100.4877
577.8714, 100.8154
578.3535, 101.3387
578.8356, 101.8023
579.3177, 102.2193
579.7999, 102.5399
580.2820, 102.7241
580.7641, 102.7972
581.2462, 102.9260
581.7283, 103.1137
582.2104, 103.3390
582.6926, 103.6199
583.1747, 103.9277
583.6568, 104.1867
584.1389, 104.3972
584.6210, 104.5303
585.1031, 104.3981
585.5853, 104.2186
586.0674, 104.3444
586.5495, 105.1189
587.0316, 105.7992
587.5137, 105.9764
587.9958, 105.8045
588.4779, 105.5857
588.9600, 105.2367
589.4421, 105.0163
589.9243, 105.1345
590.4064, 105.5231
590.8885, 105.5069
591.3706, 104.7311
591.8527, 104.1169
592.3348, 104.2202
592.8170, 105.1444
593.2991, 105.6257
593.7812, 105.6113
594.2633, 105.3675
594.7454, 105.0385
595.2275, 104.6814
595.7097, 104.6093
596.1918, 104.9387
596.6739, 105.3798
597.1560, 105.7200
597.6381, 105.9059
598.1202, 105.8169
598.6024, 105.0432
599.0845, 104.3085
599.5666, 104.0412
600.0487, 104.1729
600.5308, 104.4373
601.0129, 105.0518
601.4951, 105.5126
601.9772, 105.5473
602.4593, 105.1079
602.9414, 104.6982
603.4235, 104.1902
603.9056, 103.8769
604.3878, 104.0585
604.8699, 104.8616
605.3520, 105.2991
605.8341, 105.2542
606.3162, 105.0296
606.7983, 105.0580
607.2805, 105.2830
607.7626, 105.3663
608.2447, 105.1718
608.7268, 104.8684
609.2089, 104.5540
609.6910, 104.2912
610.1732, 104.2456
610.6553, 104.7631
611.1374, 105.3028
611.6195, 105.4335
612.1016, 105.2005
612.5837, 105.1325
613.0659, 105.4228
613.5480, 105.8751
614.0301, 106.4849
614.5122, 107.3991
614.9943, 107.7914
615.4764, 107.4401
615.9586, 106.8448
616.4407, 106.3536
616.9228, 105.9420
617.4049, 105.9415
617.8870, 106.4643
618.3691, 107.2231
618.8513, 107.8560
619.3334, 108.3582
619.8155, 108.7140
620.2976, 108.8670
620.7797, 108.9215
621.2618, 108.9936
621.7440, 109.0661
622.2261, 109.0874
622.7082, 108.8005
623.1903, 108.6534
623.6724, 109.0540
624.1545, 109.9993
624.6367, 110.6482
625.1188, 110.7670
625.6009, 110.6122
626.0830, 110.2680
626.5651, 109.6597
627.0472, 109.1429
627.5294, 108.6944
628.0115, 108.3792
628.4936, 108.3772
628.9757, 108.6938
629.4578, 108.6462
629.9399, 108.0467
630.4221, 107.3143
630.9042, 107.1303
631.3863, 107.3250
631.8684, 107.3772
632.3505, 107.0643
632.8326, 106.5603
633.3148, 105.8214
633.7969, 104.9863
634.2790, 104.4758
634.7611, 104.8436
635.2432, 105.2022
635.7253, 105.0913
636.2075, 104.4812
636.6896, 104.1134
637.1717, 104.2936
637.6538, 104.3697
638.1359, 103.8977
638.6180, 102.7068
639.1002, 102.2206
639.5823, 102.5952
640.0644, 103.2203
640.5465, 103.5022
641.0286, 103.4948
641.5107, 103.5043
641.9929, 103.6105
642.4750, 103.6125
642.9571, 103.0129
643.4392, 102.1871
643.9213, 101.8413
644.4034, 102.7203
644.8856, 103.5644
645.3677, 103.6007
645.8498, 103.1073
646.3319, 102.7523
646.8140, 102.6618
647.2961, 102.7584
647.7783, 103.1264
648.2604, 103.7042
648.7425, 103.9547
649.2246, 103.6925
649.7067, 103.5412
650.1888, 103.9298
650.6710, 104.7935
651.1531, 105.2636
651.6352, 105.3229
652.1173, 105.1104
652.5994, 104.5634
653.0815, 103.8647
653.5637, 103.3276
654.0458, 102.9709
654.5279, 102.9099
655.0100, 103.5270
655.4921, 104.3567
655.9742, 104.8564
656.4564, 104.4901
656.9385, 104.3622
657.4206, 105.0403
657.9027, 106.0009
658.3848, 106.3622
658.8669, 105.7919
659.3491, 105.2566
659.8312, 104.9124
660.3133, 104.7177
660.7954, 104.5458
661.2775, 104.3940
661.7596, 104.3249
662.2418, 104.4806
662.7239, 104.6880
663.2060, 104.4992
663.6881, 103.9621
664.1702, 103.3993
664.6523, 102.7597
665.1345, 102.3612
665.6166, 102.7141
666.0987, 103.9101
666.5808, 104.6531
667.0629, 103.9206
667.5450, 102.9816
668.0272, 102.7344
668.5093, 103.5220
668.9914, 104.1789
669.4735, 104.7866
669.9556, 105.1619
670.4377, 104.9813
670.9199, 104.1883
671.4020, 103.7361
671.8841, 103.8043
672.3662, 104.1067
672.8483, 104.2498
673.3304, 104.2770
673.8126, 104.3312
674.2947, 104.5417
674.7768, 104.6855
675.2589, 104.4129
675.7410, 103.9350
676.2231, 103.7380
676.7053, 104.3040
677.1874, 104.8686
677.6695, 105.1720
678.1516, 105.2288
678.6337, 105.2462
679.1158, 105.2610
679.5980, 105.1664
680.0801, 104.8386
680.5622, 104.3170
681.0443, 104.2131
681.5264, 104.5773
682.0085, 104.9030
682.4907, 104.6290
682.9728, 104.0729
683.4549, 104.0415
683.9370, 104.6011
684.4191, 105.1629
684.9012, 105.2379
685.3834, 105.1165
685.8655, 105.0876
686.3476, 105.2409
686.8297, 105.3973
687.3118, 105.6538
687.7939, 105.8120
688.2761, 105.6365
688.7582, 104.8039
689.2403, 104.3445
689.7224, 104.3969
690.2045, 104.7795
690.6866, 105.3205
691.1688, 106.0102
691.6509, 106.4004
692.1330, 106.2533
692.6151, 105.9488
693.0972, 106.1807
693.5793, 106.7568
694.0615, 107.1112
694.5436, 106.7725
695.0257, 106.3274
695.5078, 106.1260
695.9899, 106.1280
696.4720, 106.1449
696.9542, 106.1339
697.4363, 106.1295
697.9183, 106.1020
698.4005, 106.0621
698.8826, 106.2313
699.3647, 106.6501
699.8468, 107.1607
700.3289, 107.8294
700.8110, 108.5700
701.2932, 108.6413
701.7753, 108.0316
702.2574, 107.3483
702.7395, 107.0153
703.2216, 106.9363
703.7037, 107.0296
704.1859, 107.3035
704.6680, 107.5651
705.1501, 107.7173
705.6322, 107.8166
706.1143, 107.9008
706.5964, 107.8581
707.0786, 108.0473
707.5607, 108.6943
708.0428, 109.3621
708.5249, 109.5086
709.0070, 109.0434
709.4891, 108.6976
709.9713, 108.5835
710.4534, 108.5574
710.9355, 108.3154
711.4176, 107.9677
711.8997, 107.9144
712.3818, 108.4507
712.8640, 109.0397
713.3461, 109.1475
713.8282, 108.9829
714.3103, 108.9303
714.7924, 109.2797
715.2745, 109.5753
715.7567, 109.6214
716.2388, 109.5182
716.7209, 109.5954
717.2030, 110.0005
717.6851, 110.2111
718.1672, 109.9773
718.6494, 109.4570
719.1315, 109.2620
719.6136, 109.3849
720.0957, 109.5831
720.5778, 109.7219
721.0599, 109.8449
721.5421, 110.0469
722.0242, 110.3078
722.5063, 110.4728
722.9884, 110.3455
723.4705, 110.1886
723.9526, 110.2031
724.4348, 110.4378
724.9169, 110.4702
725.3990, 110.0575
725.8811, 109.7295
726.3632, 109.8243
726.8453, 110.3869
727.3275, 110.8510
727.8096, 111.2220
728.2917, 111.4646
728.7738, 111.3435
729.2559, 111.0935
729.7380, 111.4120
730.2202, 112.4365
730.7023, 113.4315
731.1844, 113.9519
731.6665, 114.1169
732.1486, 114.0086
732.6307, 113.4454
733.1129, 113.0466
733.5950, 112.8707
734.0771, 112.9335
734.5592, 113.3260
735.0413, 114.2424
735.5234, 114.8213
736.0056, 114.9182
736.4877, 114.7929
736.9698, 114.7791
737.4519, 114.8683
737.9340, 115.0326
738.4161, 115.2948
738.8983, 115.5588
739.3804, 115.6580
739.8625, 115.7066
740.3446, 115.8983
740.8267, 116.6055
741.3088, 117.1210
741.7910, 117.0739
742.2731, 116.7130
742.7552, 116.6063
743.2373, 116.8485
743.7194, 117.1299
744.2015, 117.3321
744.6837, 117.5742
745.1658, 118.3274
745.6479, 119.5537
746.1300, 120.4581
746.6121, 120.5460
747.0942, 120.3090
747.5764, 120.3363
748.0585, 120.5939
748.5406, 120.9816
749.0227, 121.4812
749.5048, 122.0760
749.9869, 122.8522
750.4691, 123.7592
750.9512, 124.4228
751.4333, 124.7299
751.9154, 124.9465
752.3975, 125.1311
752.8796, 125.2963
753.3618, 125.5267
753.8439, 125.8187
754.3260, 126.2025
754.8081, 126.6875
755.2902, 127.2769
755.7723, 128.0338
756.2545, 128.9371
756.7366, 129.7787
757.2187, 130.5286
757.7008, 131.1207
758.1829, 131.4120
758.6650, 131.3559
759.1472, 131.6363
759.6293, 132.3965
760.1114, 133.3450
760.5935, 134.4666
761.0756, 135.7655
761.5577, 136.3622
762.0399, 136.1800
762.5220, 135.8771
763.0041, 135.9852
763.4862, 136.3280
763.9683, 136.4565
764.4504, 136.3440
764.9326, 136.5526
765.4147, 137.9495
765.8968, 139.4454
766.3789, 140.1112
766.8610, 139.4854
767.3431, 139.4071
767.8253, 140.3261
768.3074, 141.3974
768.7895, 141.9912
769.2716, 142.0219
769.7537, 142.4143
770.2358, 143.2364
770.7180, 144.1168
771.2001, 144.6399
771.6822, 144.9628
772.1643, 145.4177
772.6464, 146.0698
773.1285, 146.6850
773.6107, 147.0415
774.0928, 147.3318
774.5749, 147.7116
775.0570, 148.1696
775.5391, 148.8288
776.0212, 149.8706
776.5034, 150.9162
776.9855, 151.6224
777.4676, 151.9626
777.9497, 152.1994
778.4318, 152.3352
778.9139, 152.4445
779.3961, 152.5910
779.8782, 152.7758
780.3603, 152.9855
780.8424, 153.1988
781.3245, 153.5220
781.8066, 154.2988
782.2888, 155.0743
782.7709, 155.3854
783.2530, 154.5270
783.7351, 154.2599
784.2172, 154.9740
784.6993, 155.8512
785.1815, 155.9524
785.6636, 155.2557
786.1457, 154.3786
786.6278, 153.3168
787.1099, 152.4000
787.5920, 152.4399
788.0742, 152.7936
788.5563, 152.1982
789.0384, 150.0325
789.5205, 147.6987
790.0026, 145.7959
790.4847, 144.1569
790.9669, 142.5899
791.4490, 141.1633
791.9311, 139.6380
792.4132, 137.9568
792.8953, 136.2203
793.3774, 134.4406
793.8596, 132.6606
794.3417, 131.2147
794.8238, 130.2182
795.3059, 129.3781
795.7880, 128.3967
796.2701, 127.3343
796.7523, 126.2318
797.2344, 124.9751
797.7165, 123.9902
798.1986, 123.6847
798.6807, 123.6084
799.1628, 123.1788
799.6450, 122.0995
800.1271, 121.3700
800.6092, 121.1598
801.0913, 121.1272
801.5734, 120.6521
802.0555, 119.8764
802.5377, 119.7053
803.0198, 120.4459
803.5019, 121.3256
803.9840, 121.5759
804.4661, 121.5013
804.9482, 121.5126
805.4304, 121.7484
805.9125, 122.0221
806.3946, 122.3496
806.8767, 122.6631
807.3588, 122.8552
807.8409, 122.8363
808.3230, 123.0774
808.8051, 123.6795
809.2872, 124.3930
809.7693, 124.9146
810.2515, 125.2848
810.7336, 125.5841
811.2157, 125.7715
811.6978, 126.1016
812.1799, 127.2247
812.6620, 128.3715
813.1442, 128.6754
813.6263, 127.2711
814.1084, 126.1613
814.5905, 125.6046
815.0726, 125.2127
815.5547, 124.5810
816.0369, 123.7022
816.5190, 122.7931
817.0011, 121.8864
817.4832, 120.8924
817.9653, 119.4856
818.4474, 117.9770
818.9296, 117.0255
819.4117, 116.9398
819.8938, 116.7212
820.3759, 115.6124
820.8580, 114.3067
821.3401, 113.4618
821.8223, 113.2451
822.3044, 113.1641
822.7865, 113.3004
823.2686, 113.4123
823.7507, 113.0977
824.2328, 112.4782
824.7150, 112.4397
825.1971, 113.1267
825.6792, 113.7937
826.1613, 113.7555
826.6434, 113.3416
827.1255, 112.8482
827.6077, 112.2599
828.0898, 111.8790
828.5719, 111.9136
829.0540, 112.0728
829.5361, 112.2200
830.0182, 112.3968
830.5004, 112.2680
830.9825, 111.7577
831.4646, 111.3134
831.9467, 111.5067
832.4288, 112.0314
832.9109, 112.1609
833.3931, 111.8344
833.8752, 111.5831
834.3573, 111.9531
834.8394, 112.3601
835.3215, 112.3044
835.8036, 111.5798
836.2858, 111.2928
836.7679, 111.6959
837.2500, 112.1010
837.7321, 112.0622
838.2142, 111.6280
838.6964, 111.3298
839.1785, 111.1675
839.6606, 110.9837
840.1427, 110.4497
840.6248, 109.9740
841.1069, 110.0637
841.5891, 110.7113
842.0712, 111.3448
842.5533, 111.8805
843.0354, 112.2477
843.5175, 112.3681
843.9996, 112.2670
844.4818, 112.3403
844.9639, 112.6220
845.4460, 112.8649
845.9281, 112.9300
846.4102, 112.8705
846.8923, 112.8298
847.3745, 112.7801
847.8566, 112.5948
848.3387, 111.9968
848.8208, 111.4497
849.3029, 111.1810
849.7850, 111.1851
850.2672, 111.3793
850.7493, 111.9760
851.2314, 112.2800
851.7135, 111.9761
852.1956, 111.3424
852.6777, 111.2430
853.1599, 111.5968
853.6420, 111.8532
854.1241, 111.6705
854.6062, 111.4187
855.0883, 111.5093
855.5704, 111.7744
856.0526, 111.8718
856.5347, 111.3209
857.0168, 111.1052
857.4989, 111.5712
857.9810, 112.3290
858.4631, 112.6674
858.9453, 112.5831
859.4274, 112.1301
859.9095, 111.1471
860.3916, 110.2988
860.8737, 110.7763
861.3558, 111.9734
861.8380, 112.7339
862.3201, 112.5069
862.8022, 112.2269
863.2843, 112.1782
863.7664, 112.2896
864.2485, 112.4834
864.7307, 112.8171
865.2128, 113.1063
865.6949, 113.4121
866.1770, 113.4866
866.6591, 112.6946
867.1412, 111.4691
867.6234, 111.2194
868.1055, 112.2587
868.5876, 113.1783
869.0697, 112.7525
869.5518, 111.9753
870.0339, 111.7175
870.5161, 112.3217
870.9982, 112.5648
871.4803, 112.2045
871.9624, 111.8950
872.4445, 112.2703
872.9266, 113.2027
873.4088, 113.2849
873.8909, 112.5306
874.3730, 111.7393
874.8551, 111.3755
875.3372, 111.3292
875.8193, 111.5890
876.3015, 112.1284
876.7836, 112.6342
877.2657, 113.1127
877.7478, 113.4429
878.2299, 113.5634
878.7120, 113.5022
879.1942, 113.3697
879.6763, 113.1625
880.1584, 113.0695
880.6405, 113.3441
881.1226, 113.6358
881.6047, 113.3174
882.0869, 112.6220
882.5690, 112.1753
883.0511, 112.3907
883.5332, 112.6970
884.0153, 113.0765
884.4974, 113.3853
884.9796, 113.2364
885.4617, 112.4924
885.9438, 112.1105
886.4259, 112.3672
886.9080, 112.8418
887.3901, 112.8748
887.8723, 112.6557
888.3544, 112.6340
888.8365, 113.1153
889.3186, 113.3960
889.8007, 112.8993
890.2828, 112.1964
890.7650, 111.9042
891.2471, 112.2108
891.7292, 112.4173
892.2113, 112.4609
892.6934, 112.5548
893.1755, 113.0502
893.6577, 113.7506
894.1398, 114.0463
894.6219, 113.8670
895.1040, 113.6969
895.5861, 114.0056
896.0682, 114.3186
896.5504, 114.1809
897.0325, 113.4743
897.5146, 113.3244
897.9967, 113.9943
898.4788, 114.6372
898.9609, 114.8038
899.4431, 114.5956
899.9252, 114.3177
900.4073, 114.0090
900.8894, 113.9181
901.3715, 114.5196
901.8536, 115.0956
902.3358, 115.0213
902.8179, 114.4706
903.3000, 114.1685
903.7821, 114.3683
904.2642, 114.4820
904.7463, 114.3457
905.2285, 114.1054
905.7106, 114.0519
906.1927, 114.1771
906.6748, 114.4592
907.1569, 114.9964
907.6390, 115.4368
908.1212, 115.3607
908.6033, 115.0469
909.0854, 114.8581
909.5675, 114.9075
910.0496, 115.0519
910.5317, 115.3638
911.0139, 115.6620
911.4960, 115.7154
911.9781, 115.5535
912.4602, 115.5894
912.9423, 115.8673
913.4244, 116.0521
913.9066, 115.6043
914.3887, 115.0913
914.8708, 115.2035
915.3529, 116.0637
915.8350, 116.5880
916.3171, 116.4187
916.7993, 116.1628
917.2813, 116.0956
917.7634, 116.1642
918.2455, 115.9296
918.7277, 115.4165
919.2098, 115.0678
919.6919, 115.2917
920.1740, 115.6667
920.6561, 115.7717
921.1382, 115.6942
921.6204, 115.6705
922.1025, 115.8038
922.5846, 115.9615
923.0667, 116.1941
923.5488, 116.3828
924.0309, 116.1804
924.5131, 115.6189
924.9952, 115.4816
925.4773, 116.0285
925.9594, 116.6528
926.4415, 116.7170
926.9236, 116.5093
927.4058, 116.3997
927.8879, 116.5473
928.3700, 116.5593
928.8521, 116.3731
929.3342, 116.0673
929.8163, 115.6133
930.2985, 115.0190
930.7806, 114.7807
931.2627, 114.9033
931.7448, 115.1684
932.2269, 115.6746
932.7090, 116.0571
933.1912, 115.7378
933.6733, 114.8252
934.1554, 114.3738
934.6375, 115.1095
935.1196, 115.6922
935.6017, 115.6893
936.0839, 115.3405
936.5660, 115.4490
937.0481, 115.9813
937.5302, 116.4761
938.0123, 116.8428
938.4944, 116.9987
938.9766, 116.6669
939.4587, 116.1371
939.9408, 115.8484
940.4229, 116.1279
940.9050, 116.3368
941.3871, 116.4282
941.8693, 116.4669
942.3514, 116.4866
942.8335, 116.4986
943.3156, 116.6375
943.7977, 116.9178
944.2798, 117.2108
944.7620, 117.5510
945.2441, 117.7537
945.7262, 117.5353
946.2083, 116.8528
946.6904, 116.4955
947.1725, 116.6923
947.6547, 116.8814
948.1368, 116.7560
948.6189, 116.4889
949.1010, 116.9001
949.5831, 117.8346
950.0652, 118.3627
950.5474, 117.6549
951.0295, 116.8404
951.5116, 116.7666
951.9937, 117.1207
952.4758, 117.3077
952.9579, 117.1812
953.4401, 117.0482
953.9222, 116.8622
954.4043, 116.8148
954.8864, 117.3013
955.3685, 118.1414
955.8506, 118.6518
956.3328, 118.7286
956.8149, 118.7596
957.2970, 119.1235
957.7791, 119.4474
958.2612, 119.3282
958.7433, 118.6907
959.2255, 118.6253
959.7076, 119.3649
960.1897, 119.9431
960.6718, 119.7988
961.1539, 119.2087
961.6360, 118.6526
962.1182, 118.2080
962.6003, 118.1504
963.0824, 119.0376
963.5645, 119.8622
964.0466, 120.2523
964.5287, 120.2967
965.0109, 120.0792
965.4930, 119.4450
965.9751, 119.3178
966.4572, 119.9066
966.9393, 120.6519
967.4214, 120.8614
967.9036, 120.7579
968.3857, 120.6783
968.8678, 120.6725
969.3499, 120.7227
969.8320, 120.9307
970.3141, 121.0865
970.7963, 121.0550
971.2784, 120.8525
971.7605, 120.7135
972.2426, 120.6339
972.7247, 120.7687
973.2068, 121.3675
973.6890, 122.0807
974.1711, 122.4540
974.6532, 122.5962
975.1353, 122.7811
975.6174, 123.1325
976.0995, 123.4735
976.5817, 123.8142
977.0638, 124.0932
977.5459, 124.0467
978.0280, 123.7547
978.5101, 124.2811
978.9922, 125.8584
979.4744, 127.2899
979.9565, 127.3186
980.4386, 126.8710
980.9207, 126.7508
981.4028, 127.0856
981.8849, 127.5092
982.3671, 128.0175
982.8492, 128.5721
983.3313, 129.1280
983.8134, 129.7312
984.2955, 130.7010
984.7776, 131.8881
985.2598, 132.6853
985.7419, 132.3107
986.2240, 132.0214
986.7061, 132.5356
987.1882, 133.4894
987.6703, 134.2477
988.1525, 134.7121
988.6346, 135.3569
989.1167, 136.2816
989.5988, 137.1577
990.0809, 137.6294
990.5630, 137.7926
991.0452, 137.7368
991.5273, 137.4710
992.0094, 137.2973
992.4915, 137.2815
992.9736, 137.4648
993.4557, 137.9886
993.9379, 138.7244
994.4200, 138.9047
994.9021, 138.5340
995.3842, 137.9405
995.8663, 137.0291
996.3484, 136.3062
996.8306, 136.8922
997.3127, 137.8903
997.7948, 137.8617
998.2769, 135.2420
998.7590, 133.3943
999.2411, 132.5654
999.7233, 132.2549
1000.205, 132.1864
1000.688, 132.2541
1001.170, 131.7656
1001.652, 130.7213
1002.134, 129.8589
1002.616, 129.7102
1003.098, 129.8802
1003.580, 130.2291
1004.062, 130.7080
1004.544, 131.1082
1005.027, 131.5166
1005.509, 131.4642
1005.991, 130.6467
1006.473, 129.6773
1006.955, 129.6602
1007.437, 130.1829
1007.919, 130.3815
1008.401, 129.7862
1008.883, 129.4920
1009.366, 130.2339
1009.848, 131.0650
1010.330, 131.3734
1010.812, 131.1443
1011.294, 130.8551
1011.776, 130.5022
1012.258, 130.3595
1012.740, 130.8757
1013.223, 131.4584
1013.705, 131.4302
1014.187, 130.9888
1014.669, 130.8319
1015.151, 131.2401
1015.633, 131.5891
1016.115, 131.7359
1016.597, 131.8819
1017.079, 132.5159
1017.562, 133.3983
1018.044, 133.6353
1018.526, 132.9972
1019.008, 132.4714
1019.490, 132.7812
1019.972, 133.2883
1020.454, 133.5941
1020.936, 133.6990
1021.419, 133.7151
1021.901, 133.6380
1022.383, 133.5295
1022.865, 133.4537
1023.347, 133.3229
1023.829, 132.6965
1024.311, 131.9873
1024.793, 131.9863
1025.275, 134.0668
1025.758, 135.1976
1026.240, 134.7821
1026.722, 133.8810
1027.204, 133.4596
1027.686, 133.4794
1028.168, 133.8081
1028.650, 134.4187
1029.132, 134.9593
1029.615, 135.1242
1030.097, 135.1937
1030.579, 135.3399
1031.061, 135.5484
1031.543, 135.6936
1032.025, 135.7136
1032.507, 135.9671
1032.989, 136.6597
1033.471, 137.3151
1033.953, 137.0585
1034.436, 136.3419
1034.918, 135.9583
1035.400, 136.1978
1035.882, 136.3056
1036.364, 135.8090
1036.846, 135.4839
1037.328, 135.8505
1037.810, 136.8056
1038.293, 137.3394
1038.775, 137.4911
1039.257, 137.5224
1039.739, 137.5451
1040.221, 137.5354
1040.703, 137.4304
1041.185, 137.2940
1041.667, 137.2374
1042.150, 137.2260
1042.632, 137.4162
1043.114, 137.8495
1043.596, 138.3638
1044.078, 138.9422
1044.560, 139.4265
1045.042, 139.3977
1045.524, 138.8716
1046.006, 138.6622
1046.489, 139.4389
1046.971, 140.1334
1047.453, 140.4391
1047.935, 140.4229
1048.417, 140.0994
1048.899, 139.5456
1049.381, 139.4898
1049.863, 140.3376
1050.345, 141.0061
1050.828, 140.2008
1051.310, 139.0813
1051.792, 138.9486
1052.274, 140.0695
1052.756, 140.7209
1053.238, 140.8490
1053.720, 140.7545
1054.202, 140.4239
1054.685, 140.1192
1055.167, 140.4613
1055.649, 141.1953
1056.131, 141.6478
1056.613, 141.2950
1057.095, 141.0175
1057.577, 140.8978
1058.059, 140.9402
1058.542, 141.2476
1059.024, 141.7543
1059.506, 142.0202
1059.988, 142.0126
1060.470, 141.8805
1060.952, 141.6127
1061.434, 141.3549
1061.916, 141.0417
1062.398, 140.8094
1062.880, 141.3246
1063.363, 142.7622
1063.845, 143.8481
1064.327, 144.2329
1064.809, 144.2390
1065.291, 144.1699
1065.773, 144.0177
1066.255, 143.6558
1066.737, 142.8653
1067.220, 142.8641
1067.702, 144.1858
1068.184, 145.4438
1068.666, 145.8684
1069.148, 145.7132
1069.630, 145.6734
1070.112, 145.7676
1070.594, 146.0699
1071.077, 146.8333
1071.559, 147.5087
1072.041, 147.9031
1072.523, 148.0896
1073.005, 148.0546
1073.487, 147.7498
1073.969, 147.9066
1074.451, 148.5596
1074.933, 149.3205
1075.416, 149.7497
1075.898, 150.2806
1076.380, 151.5531
1076.862, 153.3075
1077.344, 154.3239
1077.826, 154.2747
1078.308, 154.2147
1078.790, 154.2832
1079.272, 154.4798
1079.755, 154.8811
1080.237, 155.3797
1080.719, 155.7496
1081.201, 155.9403
1081.683, 156.2810
1082.165, 156.9286
1082.647, 157.7197
1083.129, 158.6907
1083.611, 159.7176
1084.094, 160.3469
1084.576, 160.6458
1085.058, 160.9780
1085.540, 161.4255
1086.022, 162.0304
1086.504, 163.0837
1086.986, 164.1255
1087.468, 164.6579
1087.951, 164.5799
1088.433, 165.0147
1088.915, 165.9933
1089.397, 167.0417
1089.879, 167.8784
1090.361, 168.6141
1090.843, 169.4303
1091.325, 170.2197
1091.807, 170.7362
1092.290, 170.8293
1092.772, 170.7958
1093.254, 170.4710
1093.736, 170.5110
1094.218, 172.2274
1094.700, 174.5471
1095.182, 174.9141
1095.664, 173.4653
1096.146, 172.4519
1096.629, 173.3115
1097.111, 174.0923
1097.593, 174.3230
1098.075, 174.1223
1098.557, 173.5812
1099.039, 172.7718
1099.521, 172.1337
1100.003, 171.7693
1100.486, 171.3540
1100.968, 170.4632
1101.450, 169.6378
1101.932, 169.3701
1102.414, 169.5375
1102.896, 169.2836
1103.378, 168.5939
1103.860, 167.8928
1104.343, 167.3532
1104.825, 166.8246
1105.307, 165.9895
1105.789, 165.1564
1106.271, 164.7617
1106.753, 165.1025
1107.235, 165.0576
1107.717, 164.6481
1108.199, 163.7616
1108.682, 161.9508
1109.164, 159.9148
1109.646, 158.9625
1110.128, 158.7739
1110.610, 158.5515
1111.092, 157.8878
1111.574, 157.4052
1112.056, 157.2878
1112.538, 157.1565
1113.021, 156.5874
1113.503, 155.7111
1113.985, 154.9132
1114.467, 154.2393
1114.949, 153.8549
1115.431, 154.1829
1115.913, 154.4310
1116.395, 154.4129
1116.878, 154.0806
1117.360, 153.0491
1117.842, 151.4075
1118.324, 150.9171
1118.806, 151.8603
1119.288, 152.6773
1119.770, 151.9286
1120.252, 150.8322
1120.734, 150.2505
1121.217, 150.1059
1121.699, 149.8965
1122.181, 149.6277
1122.663, 149.2293
1123.145, 148.6809
1123.627, 148.0202
1124.109, 147.1525
1124.591, 146.2790
1125.073, 145.6432
1125.556, 145.3187
1126.038, 145.0188
1126.520, 144.7925
1127.002, 144.3893
1127.484, 143.5274
1127.966, 142.6769
1128.448, 142.8487
1128.930, 143.5813
1129.413, 144.0229
1129.895, 143.8829
1130.377, 143.5270
1130.859, 142.7823
1131.341, 142.2563
1131.823, 142.6573
1132.305, 143.4919
1132.787, 142.8406
1133.270, 141.1216
1133.752, 139.8253
1134.234, 139.8946
1134.716, 140.0595
1135.198, 140.0651
1135.680, 139.9827
1136.162, 139.8385
1136.644, 139.6519
1137.126, 139.6015
1137.609, 139.6804
1138.091, 139.7393
1138.573, 139.7566
1139.055, 139.6623
1139.537, 139.3642
1140.019, 138.9585
1140.501, 138.5551
1140.983, 138.1527
1141.465, 137.8946
1141.948, 137.8002
1142.430, 137.7036
1142.912, 137.4117
1143.394, 137.1215
1143.876, 137.0195
1144.358, 137.0550
1144.840, 137.0275
1145.322, 136.9618
1145.805, 136.5850
1146.287, 135.7642
1146.769, 135.0451
1147.251, 135.1154
1147.733, 135.5258
1148.215, 135.8919
1148.697, 136.1589
1149.179, 136.1447
1149.661, 135.7535
1150.144, 135.4411
1150.626, 135.3779
1151.108, 135.3895
1151.590, 135.2209
1152.072, 134.9637
1152.554, 134.7366
1153.036, 134.5488
1153.518, 134.4282
1154.000, 134.3112
1154.483, 134.4406
1154.965, 135.1343
1155.447, 135.9060
1155.929, 135.6060
1156.411, 134.6210
1156.893, 133.7228
1157.375, 133.0241
1157.857, 132.7238
1158.340, 133.0183
1158.822, 133.3404
1159.304, 133.3342
1159.786, 133.0759
1160.268, 132.6080
1160.750, 132.0824
1161.232, 131.9923
1161.714, 133.1597
1162.197, 133.8703
1162.679, 133.4978
1163.161, 132.9259
1163.643, 132.9641
1164.125, 133.4732
1164.607, 133.6566
1165.089, 133.5472
1165.571, 133.4238
1166.053, 133.4125
1166.536, 133.4357
1167.018, 133.5150
1167.500, 133.5713
1167.982, 133.5054
1168.464, 133.3274
1168.946, 133.1017
1169.428, 132.8425
1169.910, 132.6637
1170.392, 132.6980
1170.875, 132.7682
1171.357, 132.7808
1171.839, 132.7776
1172.321, 132.8335
1172.803, 132.9460
1173.285, 133.0246
1173.767, 133.0567
1174.249, 133.1602
1174.732, 133.5270
1175.214, 133.8922
1175.696, 134.0457
1176.178, 134.0718
1176.660, 134.2055
1177.142, 134.4484
1177.624, 134.6766
1178.106, 134.8788
1178.589, 134.9469
1179.071, 134.6091
1179.553, 134.2505
1180.035, 134.2221
1180.517, 134.4570
1180.999, 134.4967
1181.481, 134.2982
1181.963, 134.6579
1182.445, 135.9544
1182.927, 137.0605
1183.410, 136.5769
1183.892, 135.6270
1184.374, 135.3367
1184.856, 135.7158
1185.338, 135.6085
1185.820, 134.9099
1186.302, 134.8517
1186.784, 136.0667
1187.267, 137.4045
1187.749, 137.6311
1188.231, 137.3481
1188.713, 137.1577
1189.195, 137.1027
1189.677, 137.4830
1190.159, 138.3905
1190.641, 139.0014
1191.124, 138.8773
1191.606, 138.5092
1192.088, 138.3266
1192.570, 138.3229
1193.052, 138.5375
1193.534, 139.0425
1194.016, 139.3607
1194.498, 139.4776
1194.980, 139.4972
1195.463, 139.4072
1195.945, 139.3392
1196.427, 139.4876
1196.909, 139.7525
1197.391, 139.9703
1197.873, 140.0636
1198.355, 140.3743
1198.837, 140.9759
1199.319, 141.3886
1199.802, 141.1743
1200.284, 140.7541
1200.766, 140.4576
1201.248, 140.3782
1201.730, 140.7551
1202.212, 142.0934
1202.694, 142.5316
1203.176, 141.8888
1203.658, 141.2691
1204.141, 141.6835
1204.623, 142.3768
1205.105, 142.3432
1205.587, 141.8898
1206.069, 141.6909
1206.551, 141.7524
1207.033, 142.4040
1207.515, 143.8154
1207.998, 144.9859
1208.480, 144.9018
1208.962, 144.2888
1209.444, 143.9017
1209.926, 143.7176
1210.408, 143.6791
1210.890, 143.9641
1211.372, 143.7626
1211.854, 142.9283
1212.337, 142.1325
1212.819, 142.2703
1213.301, 142.5127
1213.783, 141.5144
1214.265, 139.7865
1214.747, 139.1727
1215.229, 140.2641
1215.711, 140.9136
1216.193, 140.9256
1216.676, 140.6209
1217.158, 139.9854
1217.640, 139.4335
1218.122, 139.6673
1218.604, 140.4045
1219.086, 140.4906
1219.568, 139.6463
1220.050, 138.9980
1220.533, 138.6705
1221.015, 138.5350
1221.497, 138.6759
1221.979, 138.7799
1222.461, 138.3212
1222.943, 137.5156
1223.425, 137.4014
1223.907, 138.2480
1224.390, 138.6424
1224.872, 138.3448
1225.354, 137.9482
1225.836, 137.9843
1226.318, 138.2156
1226.800, 138.5382
1227.282, 138.8643
1227.764, 138.8659
1228.246, 138.4797
1228.729, 138.0984
1229.211, 137.7563
1229.693, 137.6542
1230.175, 138.4078
1230.657, 139.1258
1231.139, 138.8084
1231.621, 137.7209
1232.103, 137.3212
1232.585, 137.7099
1233.068, 137.7263
1233.550, 137.1200
1234.032, 136.6716
1234.514, 137.6072
1234.996, 138.5170
1235.478, 137.8150
1235.960, 136.1201
1236.442, 135.8852
1236.925, 137.1559
1237.407, 138.0394
1237.889, 138.2035
1238.371, 138.0016
1238.853, 137.3560
1239.335, 136.7838
1239.817, 136.7587
1240.299, 137.0818
1240.781, 137.2015
1241.264, 137.1351
1241.746, 137.2732
1242.228, 137.7205
1242.710, 138.0279
1243.192, 137.7886
1243.674, 137.4032
1244.156, 137.0695
1244.638, 136.7899
1245.120, 136.4108
1245.603, 136.0236
1246.085, 136.4659
1246.567, 138.0110
1247.049, 139.0683
1247.531, 138.2536
1248.013, 137.2487
1248.495, 136.7322
1248.977, 136.6451
1249.460, 137.0402
1249.942, 137.7491
1250.424, 137.9893
1250.906, 137.5919
1251.388, 137.2760
1251.870, 137.5004
1252.352, 137.7071
1252.834, 137.6538
1253.317, 137.5254
1253.799, 137.8224
1254.281, 138.3477
1254.763, 138.5724
1255.245, 138.3982
1255.727, 138.1418
1256.209, 137.6274
1256.691, 137.5259
1257.173, 138.2302
1257.656, 139.1027
1258.138, 138.8308
1258.620, 137.9533
1259.102, 137.4461
1259.584, 137.4658
1260.066, 137.5994
1260.548, 137.7521
1261.030, 138.0811
1261.512, 138.6829
1261.995, 139.3384
1262.477, 139.8672
1262.959, 140.1707
1263.441, 140.0190
1263.923, 139.3815
1264.405, 138.8592
1264.887, 138.4153
1265.369, 138.3783
1265.852, 138.9169
1266.334, 139.5709
1266.816, 139.8617
1267.298, 139.9178
1267.780, 139.7708
1268.262, 139.4631
1268.744, 139.4751
1269.226, 139.8533
1269.708, 140.1258
1270.191, 140.1966
1270.673, 140.0703
1271.155, 139.3364
1271.637, 138.7579
1272.119, 139.2619
1272.601, 140.4914
1273.083, 141.0855
1273.565, 141.0663
1274.047, 141.1406
1274.530, 141.4750
1275.012, 141.7313
1275.494, 141.7655
1275.976, 141.5169
1276.458, 140.6944
1276.940, 139.7487
1277.422, 140.1421
1277.904, 141.5083
1278.387, 141.8283
1278.869, 140.6857
1279.351, 139.8035
1279.833, 140.2447
1280.315, 140.8970
1280.797, 141.4553
1281.279, 141.8882
1281.761, 142.2010
1282.244, 142.3338
1282.726, 142.0110
1283.208, 141.2094
1283.690, 140.6873
1284.172, 140.7730
1284.654, 140.9761
1285.136, 141.2345
1285.618, 141.4702
1286.100, 141.4829
1286.583, 141.4526
1287.065, 141.8155
1287.547, 142.5308
1288.029, 142.5830
1288.511, 141.5777
1288.993, 141.0656
1289.475, 141.4149
1289.957, 141.9404
1290.439, 141.8184
##END=



