##NAMES=Maricite
##RRUFFID=R070273
##IDEAL CHEMISTRY=NaFe^2+^PO_4_
##LOCALITY=Locality 16, Big Fish River, Richardson Mountains, Dawson Mining District, Yukon Territory, Canada
##OWNER=RRUFF
##SOURCE=Mark Mauthner
##DESCRIPTION=Compact radiating aggregate of gray prismatic crystals (with bluish to brownish sections) in phosphate nodule.
##STATUS=The identification of this mineral is confirmed by single-crystal X-ray diffraction and chemical analysis.
##URL=rruff.info/R070273
##MEASURED CHEMISTRY=Na_1.00_(Fe^2+^_0.90_Mn_0.06_Mg_0.03_Ca_0.01_)_Î£=1_P_1.00_O_4_
192.0881, 51847.59
192.5702, 51832.14
193.0524, 51808.66
193.5345, 51772.72
194.0166, 51740.33
194.4987, 51739.05
194.9808, 51770.34
195.4629, 51810.84
195.9451, 51849.54
196.4272, 51887.06
196.9093, 51932.27
197.3914, 51988.83
197.8735, 52047.71
198.3556, 52080.28
198.8378, 52077.90
199.3199, 52102.57
199.8020, 52208.21
200.2841, 52402.54
200.7662, 52543.11
201.2483, 52605.67
201.7305, 52624.77
202.2126, 52689.75
202.6947, 52811.93
203.1768, 52937.71
203.6589, 53031.70
204.1410, 53087.35
204.6232, 53152.92
205.1053, 53236.49
205.5874, 53331.00
206.0695, 53409.46
206.5516, 53464.27
207.0337, 53523.01
207.5159, 53612.39
207.9980, 53742.14
208.4801, 53845.21
208.9622, 53900.13
209.4443, 53922.29
209.9264, 53995.07
210.4086, 54141.54
210.8907, 54292.78
211.3728, 54388.59
211.8549, 54410.27
212.3370, 54443.59
212.8191, 54504.40
213.3013, 54588.66
213.7834, 54666.61
214.2655, 54735.19
214.7476, 54802.67
215.2297, 54868.73
215.7118, 54919.01
216.1940, 55013.03
216.6761, 55178.68
217.1582, 55411.45
217.6403, 55594.77
218.1224, 55720.51
218.6045, 55805.09
219.0867, 55849.63
219.5688, 55813.62
220.0509, 55837.40
220.5330, 55979.57
221.0151, 56246.65
221.4972, 56398.70
221.9794, 56388.86
222.4615, 56317.96
222.9436, 56292.64
223.4257, 56330.46
223.9078, 56379.56
224.3899, 56436.29
224.8721, 56504.80
225.3542, 56531.00
225.8363, 56485.48
226.3184, 56425.75
226.8005, 56424.86
227.2827, 56518.77
227.7648, 56603.60
228.2469, 56656.63
228.7290, 56677.23
229.2111, 56666.29
229.6932, 56600.11
230.1754, 56521.72
230.6575, 56492.48
231.1396, 56551.04
231.6217, 56589.71
232.1038, 56566.23
232.5859, 56458.21
233.0681, 56411.27
233.5502, 56447.02
234.0323, 56528.09
234.5144, 56604.27
234.9965, 56679.27
235.4786, 56741.61
235.9608, 56782.49
236.4429, 56791.95
236.9250, 56822.70
237.4071, 56871.50
237.8892, 56943.59
238.3713, 57055.34
238.8535, 57248.85
239.3356, 57410.88
239.8177, 57493.61
240.2998, 57464.46
240.7819, 57485.82
241.2640, 57589.66
241.7462, 57725.73
242.2283, 57803.30
242.7104, 57781.67
243.1925, 57768.45
243.6746, 57800.66
244.1567, 57891.22
244.6389, 57984.43
245.1210, 58078.32
245.6031, 58175.69
246.0852, 58281.95
246.5673, 58402.84
247.0494, 58522.62
247.5316, 58632.36
248.0137, 58722.41
248.4958, 58837.52
248.9779, 58988.14
249.4600, 59157.51
249.9421, 59310.43
250.4243, 59440.07
250.9064, 59567.41
251.3885, 59701.70
251.8706, 59849.46
252.3527, 59984.07
252.8348, 60103.10
253.3170, 60210.28
253.7991, 60315.05
254.2812, 60428.13
254.7633, 60516.25
255.2454, 60565.73
255.7275, 60570.91
256.2097, 60555.07
256.6918, 60511.78
257.1739, 60452.16
257.6560, 60397.18
258.1381, 60352.06
258.6202, 60300.52
259.1024, 60236.25
259.5845, 60159.54
260.0666, 60068.15
260.5487, 59948.04
261.0308, 59824.15
261.5129, 59742.36
261.9951, 59720.71
262.4772, 59699.75
262.9593, 59655.86
263.4414, 59583.32
263.9235, 59507.27
264.4056, 59408.61
264.8878, 59323.58
265.3699, 59325.60
265.8520, 59445.89
266.3341, 59564.22
266.8162, 59634.85
267.2983, 59651.00
267.7805, 59657.97
268.2626, 59653.93
268.7447, 59642.60
269.2268, 59622.81
269.7089, 59584.36
270.1910, 59574.10
270.6732, 59617.98
271.1553, 59722.28
271.6374, 59822.68
272.1195, 59926.21
272.6016, 60015.66
273.0837, 60046.63
273.5659, 60003.94
274.0480, 59981.43
274.5301, 60032.11
275.0122, 60160.07
275.4943, 60228.68
275.9764, 60223.72
276.4586, 60186.10
276.9407, 60167.89
277.4228, 60167.91
277.9049, 60198.27
278.3870, 60272.98
278.8691, 60389.83
279.3513, 60504.11
279.8334, 60622.52
280.3155, 60721.19
280.7976, 60755.97
281.2798, 60723.73
281.7619, 60694.44
282.2440, 60699.83
282.7261, 60733.63
283.2082, 60743.34
283.6903, 60723.27
284.1725, 60700.14
284.6546, 60707.63
285.1367, 60744.89
285.6188, 60791.77
286.1009, 60850.04
286.5830, 60913.05
287.0652, 60939.87
287.5473, 60922.67
288.0294, 60914.55
288.5115, 61001.23
288.9936, 61167.90
289.4757, 61287.86
289.9579, 61296.17
290.4400, 61233.61
290.9221, 61207.14
291.4042, 61217.35
291.8863, 61256.74
292.3684, 61332.65
292.8506, 61436.21
293.3327, 61529.71
293.8148, 61597.45
294.2969, 61650.59
294.7790, 61719.21
295.2611, 61803.61
295.7433, 61872.78
296.2254, 61885.47
296.7075, 61860.57
297.1896, 61852.95
297.6717, 61895.07
298.1538, 61948.07
298.6360, 61928.39
299.1181, 61844.32
299.6002, 61795.67
300.0823, 61901.02
300.5644, 62091.16
301.0465, 62235.50
301.5287, 62290.49
302.0108, 62297.65
302.4929, 62282.64
302.9750, 62251.11
303.4571, 62236.13
303.9392, 62258.29
304.4214, 62310.71
304.9035, 62388.54
305.3856, 62501.56
305.8677, 62619.42
306.3498, 62729.46
306.8319, 62824.87
307.3141, 62883.33
307.7962, 62841.89
308.2783, 62779.27
308.7604, 62778.39
309.2425, 62878.09
309.7246, 62993.04
310.2068, 63085.07
310.6889, 63152.08
311.1710, 63190.17
311.6531, 63164.78
312.1352, 63129.77
312.6173, 63129.52
313.0995, 63184.23
313.5816, 63235.34
314.0637, 63227.65
314.5458, 63199.14
315.0279, 63220.99
315.5100, 63376.14
315.9922, 63546.93
316.4743, 63666.71
316.9564, 63715.44
317.4385, 63764.54
317.9206, 63833.59
318.4027, 63918.00
318.8849, 64011.29
319.3670, 64138.27
319.8491, 64250.55
320.3312, 64318.85
320.8133, 64329.95
321.2954, 64367.36
321.7776, 64488.93
322.2597, 64629.07
322.7418, 64717.88
323.2239, 64680.74
323.7060, 64655.85
324.1881, 64672.80
324.6703, 64733.96
325.1524, 64820.42
325.6345, 64977.77
326.1166, 65134.27
326.5987, 65233.06
327.0808, 65201.16
327.5630, 65197.04
328.0451, 65244.55
328.5272, 65341.62
329.0093, 65444.73
329.4914, 65562.16
329.9735, 65675.80
330.4557, 65777.89
330.9378, 65901.39
331.4199, 65950.82
331.9020, 65877.37
332.3841, 65717.47
332.8662, 65655.57
333.3484, 65739.58
333.8305, 65849.86
334.3126, 65925.63
334.7947, 65962.56
335.2768, 65974.02
335.7589, 65952.15
336.2411, 65909.83
336.7232, 65877.34
337.2053, 65855.06
337.6874, 65842.27
338.1695, 65837.53
338.6516, 65840.18
339.1338, 65859.79
339.6159, 65901.96
340.0980, 65952.23
340.5801, 65986.73
341.0622, 66005.24
341.5443, 66012.81
342.0265, 66007.20
342.5086, 65990.38
342.9907, 65983.50
343.4728, 65989.55
343.9549, 65994.07
344.4370, 65977.56
344.9192, 65941.80
345.4013, 65900.89
345.8834, 65848.43
346.3655, 65797.95
346.8476, 65787.62
347.3297, 65817.67
347.8119, 65876.98
348.2940, 65987.66
348.7761, 66123.76
349.2582, 66200.57
349.7403, 66163.66
350.2225, 66089.94
350.7046, 66091.73
351.1867, 66161.84
351.6688, 66244.87
352.1509, 66296.79
352.6331, 66337.23
353.1152, 66401.07
353.5973, 66513.92
354.0794, 66618.31
354.5615, 66654.29
355.0436, 66637.76
355.5258, 66617.07
356.0079, 66617.52
356.4900, 66626.16
356.9721, 66628.73
357.4542, 66617.63
357.9363, 66619.01
358.4185, 66676.51
358.9006, 66753.38
359.3827, 66786.00
359.8648, 66677.45
360.3469, 66575.45
360.8290, 66566.01
361.3112, 66668.37
361.7933, 66776.30
362.2754, 66875.06
362.7575, 66955.50
363.2396, 67007.85
363.7217, 66999.89
364.2039, 66992.88
364.6860, 67001.90
365.1681, 67027.56
365.6502, 67058.80
366.1323, 67097.61
366.6144, 67139.78
367.0966, 67182.59
367.5787, 67225.78
368.0608, 67269.76
368.5429, 67328.61
369.0250, 67392.80
369.5071, 67408.11
369.9893, 67317.34
370.4714, 67244.03
370.9535, 67253.36
371.4356, 67390.41
371.9177, 67509.15
372.3998, 67612.90
372.8820, 67695.07
373.3641, 67729.75
373.8462, 67690.92
374.3283, 67672.46
374.8104, 67723.95
375.2925, 67855.36
375.7747, 67943.06
376.2568, 67981.44
376.7389, 67988.90
377.2210, 67978.02
377.7031, 67945.90
378.1852, 67938.52
378.6674, 67979.02
379.1495, 68054.96
379.6316, 68110.05
380.1137, 68140.81
380.5958, 68178.10
381.0779, 68261.37
381.5601, 68380.61
382.0422, 68481.76
382.5243, 68558.09
383.0064, 68606.58
383.4885, 68601.02
383.9706, 68550.48
384.4528, 68522.05
384.9349, 68590.68
385.4170, 68703.77
385.8991, 68769.88
386.3812, 68764.98
386.8633, 68748.27
387.3455, 68775.93
387.8276, 68834.09
388.3097, 68891.70
388.7918, 68928.04
389.2739, 68960.26
389.7560, 69003.13
390.2382, 69058.53
390.7203, 69114.88
391.2024, 69166.16
391.6845, 69214.62
392.1666, 69263.51
392.6487, 69334.84
393.1309, 69386.62
393.6130, 69388.91
394.0951, 69346.80
394.5772, 69319.30
395.0593, 69297.99
395.5414, 69310.78
396.0236, 69375.77
396.5057, 69586.16
396.9878, 69741.54
397.4699, 69801.03
397.9520, 69788.48
398.4341, 69777.12
398.9163, 69727.99
399.3984, 69720.91
399.8805, 69795.97
400.3626, 69997.13
400.8447, 70148.14
401.3268, 70228.46
401.8090, 70273.57
402.2911, 70338.08
402.7732, 70436.66
403.2553, 70513.13
403.7374, 70542.21
404.2195, 70528.09
404.7017, 70552.21
405.1838, 70625.29
405.6659, 70708.16
406.1480, 70755.30
406.6301, 70765.87
407.1122, 70813.20
407.5944, 70922.36
408.0765, 71063.94
408.5586, 71157.73
409.0407, 71205.20
409.5228, 71263.80
410.0049, 71366.68
410.4871, 71509.00
410.9692, 71699.18
411.4513, 71956.69
411.9334, 72188.34
412.4155, 72238.67
412.8976, 72171.27
413.3798, 72167.03
413.8619, 72379.88
414.3440, 72656.00
414.8261, 72825.90
415.3082, 72886.82
415.7903, 72949.46
416.2725, 73088.76
416.7546, 73269.70
417.2367, 73456.28
417.7188, 73633.24
418.2009, 73813.19
418.6830, 73979.19
419.1652, 74146.52
419.6473, 74364.94
420.1294, 74700.52
420.6115, 75056.74
421.0937, 75382.78
421.5758, 75639.09
422.0579, 75922.65
422.5400, 76249.82
423.0221, 76611.23
423.5042, 76998.82
423.9864, 77403.08
424.4685, 77839.16
424.9506, 78326.54
425.4327, 78863.93
425.9148, 79383.65
426.3969, 79856.21
426.8791, 80344.33
427.3612, 80901.04
427.8433, 81542.98
428.3254, 82196.98
428.8075, 82853.31
429.2896, 83513.12
429.7718, 84159.49
430.2539, 84787.01
430.7360, 85434.38
431.2181, 86135.17
431.7002, 86883.41
432.1823, 87586.72
432.6645, 88234.04
433.1466, 88860.76
433.6287, 89522.90
434.1108, 90206.17
434.5929, 90843.00
435.0750, 91401.76
435.5572, 91891.80
436.0393, 92330.09
436.5214, 92716.24
437.0035, 93043.74
437.4856, 93339.84
437.9677, 93561.78
438.4499, 93639.27
438.9320, 93514.31
439.4141, 93309.23
439.8962, 93101.55
440.3783, 92881.48
440.8604, 92617.47
441.3426, 92301.48
441.8247, 91936.83
442.3068, 91519.05
442.7889, 91040.15
443.2710, 90544.78
443.7531, 89972.16
444.2353, 89418.77
444.7174, 88981.31
445.1995, 88812.10
445.6816, 88615.17
446.1637, 88331.87
446.6458, 87972.29
447.1280, 87616.22
447.6101, 87287.76
448.0922, 86934.53
448.5743, 86533.74
449.0564, 86081.61
449.5385, 85578.73
450.0207, 85020.41
450.5028, 84418.03
450.9849, 83773.05
451.4670, 83071.33
451.9491, 82428.75
452.4312, 81898.54
452.9134, 81471.68
453.3955, 81050.05
453.8776, 80628.90
454.3597, 80255.45
454.8418, 79993.59
455.3239, 79825.45
455.8061, 79691.11
456.2882, 79583.23
456.7703, 79490.29
457.2524, 79386.11
457.7345, 79278.89
458.2166, 79200.24
458.6988, 79161.21
459.1809, 79165.55
459.6630, 79232.23
460.1451, 79372.32
460.6272, 79510.27
461.1093, 79601.52
461.5915, 79661.45
462.0736, 79707.07
462.5557, 79734.45
463.0378, 79758.06
463.5199, 79799.50
464.0020, 79850.61
464.4842, 79851.91
464.9663, 79739.13
465.4484, 79611.46
465.9305, 79527.25
466.4126, 79574.07
466.8947, 79512.00
467.3769, 79316.71
467.8590, 79024.46
468.3411, 78676.73
468.8232, 78224.02
469.3053, 77817.80
469.7874, 77499.09
470.2696, 77264.57
470.7517, 77064.56
471.2338, 76914.45
471.7159, 76753.39
472.1980, 76501.59
472.6801, 76162.03
473.1623, 75913.09
473.6444, 75793.65
474.1265, 75744.11
474.6086, 75676.63
475.0907, 75592.02
475.5728, 75495.61
476.0550, 75375.83
476.5371, 75250.58
477.0192, 75155.38
477.5013, 75091.29
477.9834, 75029.30
478.4655, 74923.32
478.9477, 74813.11
479.4298, 74756.97
479.9119, 74843.84
480.3940, 74897.09
480.8761, 74764.41
481.3582, 74516.96
481.8404, 74361.28
482.3225, 74454.76
482.8046, 74581.12
483.2867, 74638.80
483.7688, 74595.66
484.2509, 74565.58
484.7331, 74583.73
485.2152, 74605.85
485.6973, 74587.47
486.1794, 74489.04
486.6615, 74417.52
487.1436, 74389.43
487.6258, 74399.34
488.1079, 74428.05
488.5900, 74486.04
489.0721, 74533.23
489.5542, 74539.14
490.0363, 74503.31
490.5185, 74491.87
491.0006, 74511.77
491.4827, 74538.79
491.9648, 74534.14
492.4470, 74505.20
492.9291, 74491.72
493.4112, 74503.73
493.8933, 74541.89
494.3754, 74626.03
494.8575, 74747.74
495.3397, 74849.04
495.8218, 74912.63
496.3039, 74926.88
496.7860, 74856.68
497.2681, 74664.15
497.7502, 74515.16
498.2324, 74524.94
498.7145, 74622.77
499.1966, 74712.74
499.6787, 74792.95
500.1608, 74834.09
500.6429, 74796.71
501.1251, 74689.18
501.6072, 74641.83
502.0893, 74714.67
502.5714, 74803.70
503.0535, 74860.39
503.5356, 74868.70
504.0178, 74881.59
504.4999, 74895.91
504.9820, 74917.70
505.4641, 74966.27
505.9462, 75052.79
506.4283, 75106.20
506.9105, 75098.12
507.3926, 75042.70
507.8747, 74981.52
508.3568, 74912.28
508.8389, 74878.38
509.3210, 74948.18
509.8032, 75077.62
510.2853, 75133.88
510.7674, 75085.94
511.2495, 75026.96
511.7316, 75062.45
512.2137, 75157.25
512.6959, 75239.09
513.1780, 75278.34
513.6601, 75294.88
514.1422, 75286.83
514.6243, 75260.34
515.1064, 75254.85
515.5886, 75311.26
516.0707, 75375.74
516.5528, 75412.39
517.0349, 75394.79
517.5170, 75395.80
517.9991, 75446.90
518.4813, 75510.69
518.9634, 75537.57
519.4455, 75500.13
519.9276, 75473.14
520.4097, 75474.40
520.8918, 75499.34
521.3740, 75516.05
521.8561, 75520.48
522.3382, 75530.05
522.8203, 75560.69
523.3024, 75610.45
523.7845, 75649.53
524.2667, 75675.43
524.7488, 75694.57
525.2309, 75719.73
525.7130, 75746.38
526.1951, 75755.99
526.6772, 75716.91
527.1594, 75682.01
527.6415, 75727.85
528.1236, 75837.99
528.6057, 75941.43
529.0878, 76000.11
529.5699, 76034.08
530.0521, 76054.87
530.5342, 76062.29
531.0163, 76065.67
531.4984, 76042.14
531.9805, 76027.16
532.4626, 76058.23
532.9448, 76220.20
533.4269, 76331.95
533.9090, 76355.54
534.3911, 76312.29
534.8732, 76278.38
535.3553, 76236.98
535.8375, 76237.44
536.3196, 76323.98
536.8017, 76505.71
537.2838, 76592.51
537.7659, 76567.08
538.2480, 76506.21
538.7302, 76473.58
539.2123, 76471.85
539.6944, 76528.02
540.1765, 76664.95
540.6586, 76830.85
541.1407, 76957.71
541.6229, 77053.94
542.1050, 77151.79
542.5871, 77285.02
543.0692, 77417.05
543.5513, 77503.23
544.0334, 77541.17
544.5156, 77593.14
544.9977, 77683.46
545.4798, 77802.61
545.9619, 77943.18
546.4440, 78115.00
546.9261, 78291.54
547.4083, 78448.48
547.8904, 78613.37
548.3725, 78834.17
548.8546, 79142.82
549.3367, 79456.91
549.8188, 79753.66
550.3010, 80036.18
550.7831, 80340.70
551.2652, 80668.63
551.7473, 81015.24
552.2294, 81389.34
552.7115, 81786.08
553.1937, 82158.39
553.6758, 82516.93
554.1579, 82791.16
554.6400, 82860.31
555.1221, 82770.55
555.6042, 82651.22
556.0864, 82520.45
556.5685, 82407.23
557.0506, 82310.40
557.5327, 82246.97
558.0148, 82283.54
558.4969, 82527.38
558.9791, 82825.74
559.4612, 83062.30
559.9433, 83190.27
560.4254, 83433.24
560.9075, 83872.61
561.3896, 84423.12
561.8718, 85014.78
562.3539, 85683.06
562.8360, 86329.75
563.3181, 86916.52
563.8002, 87485.41
564.2823, 88149.14
564.7645, 88909.17
565.2466, 89736.55
565.7287, 90643.85
566.2108, 91606.38
566.6929, 92534.92
567.1750, 93428.34
567.6572, 94143.22
568.1393, 94624.06
568.6214, 94816.98
569.1035, 94573.02
569.5856, 93835.80
570.0677, 92793.23
570.5499, 91422.56
571.0320, 89876.69
571.5141, 88389.31
571.9962, 86979.07
572.4783, 85709.67
572.9604, 84624.45
573.4426, 83719.01
573.9247, 82940.59
574.4068, 82371.20
574.8889, 81855.57
575.3710, 81326.85
575.8531, 80767.18
576.3353, 80325.08
576.8174, 80032.86
577.2995, 79816.65
577.7816, 79603.76
578.2637, 79391.67
578.7458, 79226.53
579.2280, 79124.34
579.7101, 79054.77
580.1922, 78966.81
580.6743, 78863.36
581.1564, 78760.79
581.6385, 78645.78
582.1207, 78546.91
582.6028, 78515.34
583.0849, 78544.23
583.5670, 78577.49
584.0491, 78582.84
584.5313, 78578.91
585.0134, 78586.79
585.4955, 78624.94
585.9776, 78624.49
586.4597, 78502.20
586.9418, 78359.96
587.4240, 78318.00
587.9061, 78466.52
588.3882, 78576.15
588.8703, 78604.15
589.3524, 78582.58
589.8345, 78612.10
590.3167, 78708.53
590.7988, 78795.02
591.2809, 78825.95
591.7630, 78817.03
592.2451, 78851.92
592.7272, 78931.94
593.2094, 79023.59
593.6915, 79107.89
594.1736, 79182.20
594.6557, 79230.73
595.1378, 79237.61
595.6199, 79272.30
596.1021, 79400.80
596.5842, 79586.20
597.0663, 79776.53
597.5485, 79948.39
598.0306, 80126.20
598.5127, 80320.38
598.9948, 80527.38
599.4769, 80733.35
599.9590, 80927.53
600.4412, 81135.01
600.9233, 81359.66
601.4054, 81601.90
601.8875, 81871.01
602.3696, 82166.19
602.8517, 82486.24
603.3339, 82830.51
603.8160, 83199.05
604.2981, 83559.68
604.7802, 83907.52
605.2623, 84240.34
605.7444, 84564.48
606.2266, 84870.38
606.7087, 85117.02
607.1908, 85274.70
607.6729, 85389.95
608.1550, 85545.03
608.6371, 85697.42
609.1193, 85714.27
609.6014, 85444.52
610.0835, 85108.76
610.5656, 84798.63
611.0477, 84518.03
611.5298, 84283.14
612.0120, 84108.69
612.4941, 83966.56
612.9762, 83838.63
613.4583, 83719.13
613.9404, 83631.11
614.4225, 83566.81
614.9047, 83551.19
615.3868, 83640.34
615.8689, 83827.16
616.3510, 84004.98
616.8331, 84132.63
617.3152, 84248.15
617.7974, 84416.00
618.2795, 84624.84
618.7616, 84838.60
619.2437, 85101.92
619.7258, 85313.55
620.2079, 85403.82
620.6901, 85367.59
621.1722, 85233.12
621.6543, 84973.80
622.1364, 84643.63
622.6185, 84274.17
623.1006, 83841.06
623.5828, 83422.88
624.0649, 83018.39
624.5470, 82629.97
625.0291, 82253.58
625.5112, 81881.38
625.9933, 81564.05
626.4755, 81318.95
626.9576, 81127.39
627.4397, 80971.23
627.9218, 80844.81
628.4039, 80704.94
628.8860, 80488.19
629.3682, 80267.24
629.8503, 80159.76
630.3324, 80152.43
630.8145, 80147.44
631.2966, 80085.08
631.7787, 80006.80
632.2609, 79938.17
632.7430, 79879.85
633.2251, 79841.95
633.7072, 79828.89
634.1893, 79836.58
634.6714, 79870.39
635.1536, 79982.68
635.6357, 79995.27
636.1178, 79855.52
636.5999, 79652.33
637.0820, 79545.33
637.5641, 79537.55
638.0463, 79574.59
638.5284, 79663.53
639.0105, 79764.94
639.4926, 79793.67
639.9747, 79759.39
640.4568, 79717.96
640.9390, 79710.51
641.4211, 79706.48
641.9032, 79667.93
642.3853, 79592.45
642.8674, 79537.36
643.3495, 79554.68
643.8317, 79581.01
644.3138, 79568.73
644.7959, 79468.59
645.2780, 79417.78
645.7601, 79445.73
646.2422, 79497.23
646.7244, 79495.63
647.2065, 79420.11
647.6886, 79405.73
648.1707, 79493.87
648.6528, 79629.66
649.1349, 79710.75
649.6171, 79740.66
650.0992, 79748.09
650.5813, 79739.89
651.0634, 79720.52
651.5455, 79674.80
652.0276, 79613.69
652.5098, 79598.53
652.9919, 79749.55
653.4740, 79888.79
653.9561, 79884.15
654.4382, 79691.91
654.9203, 79546.23
655.4025, 79468.72
655.8846, 79451.77
656.3667, 79507.84
656.8488, 79688.52
657.3309, 79777.58
657.8130, 79741.66
658.2952, 79661.08
658.7773, 79658.12
659.2594, 79724.51
659.7415, 79759.94
660.2236, 79731.15
660.7057, 79671.11
661.1879, 79613.90
661.6700, 79562.99
662.1521, 79528.98
662.6342, 79521.34
663.1163, 79528.50
663.5984, 79556.02
664.0806, 79598.53
664.5627, 79616.30
665.0448, 79581.38
665.5269, 79535.34
666.0090, 79488.04
666.4911, 79433.96
666.9733, 79426.32
667.4554, 79479.59
667.9375, 79550.64
668.4196, 79621.24
668.9017, 79689.48
669.3839, 79678.28
669.8660, 79566.81
670.3481, 79442.68
670.8302, 79402.71
671.3123, 79427.59
671.7944, 79481.55
672.2766, 79583.84
672.7587, 79662.09
673.2408, 79644.13
673.7229, 79571.41
674.2050, 79524.78
674.6871, 79549.57
675.1693, 79578.41
675.6514, 79594.63
676.1335, 79600.10
676.6156, 79606.00
677.0977, 79617.31
677.5798, 79617.29
678.0620, 79591.16
678.5441, 79543.59
679.0262, 79527.08
679.5083, 79543.31
679.9904, 79560.91
680.4725, 79564.61
680.9547, 79549.77
681.4368, 79487.45
681.9189, 79365.19
682.4010, 79288.63
682.8831, 79393.55
683.3652, 79549.47
683.8474, 79621.05
684.3295, 79511.11
684.8116, 79422.37
685.2937, 79381.06
685.7758, 79378.03
686.2579, 79414.24
686.7401, 79523.17
687.2222, 79574.95
687.7043, 79529.55
688.1864, 79429.22
688.6685, 79359.02
689.1506, 79320.37
689.6328, 79338.00
690.1149, 79474.73
690.5970, 79640.73
691.0791, 79694.52
691.5612, 79652.13
692.0433, 79595.03
692.5255, 79527.31
693.0076, 79490.06
693.4897, 79529.39
693.9718, 79657.82
694.4539, 79740.18
694.9360, 79742.12
695.4182, 79708.28
695.9003, 79655.03
696.3824, 79574.54
696.8645, 79511.90
697.3466, 79469.70
697.8287, 79438.56
698.3109, 79404.39
698.7930, 79370.99
699.2751, 79362.41
699.7572, 79387.98
700.2393, 79420.44
700.7214, 79430.45
701.2036, 79428.02
701.6857, 79430.04
702.1678, 79453.14
702.6499, 79469.28
703.1320, 79455.63
703.6141, 79427.57
704.0963, 79425.02
704.5784, 79471.35
705.0605, 79509.91
705.5426, 79527.55
706.0247, 79528.34
706.5068, 79533.20
706.9890, 79544.48
707.4711, 79540.43
707.9532, 79490.34
708.4353, 79420.96
708.9174, 79405.06
709.3995, 79439.33
709.8817, 79493.79
710.3638, 79580.02
710.8459, 79656.09
711.3280, 79681.18
711.8101, 79647.66
712.2922, 79596.53
712.7744, 79511.18
713.2565, 79432.86
713.7386, 79388.26
714.2207, 79387.79
714.7028, 79397.76
715.1849, 79426.96
715.6671, 79451.44
716.1492, 79432.48
716.6313, 79375.86
717.1134, 79354.52
717.5955, 79389.36
718.0776, 79435.88
718.5598, 79430.27
719.0419, 79397.73
719.5240, 79388.31
720.0061, 79457.19
720.4882, 79507.47
720.9703, 79471.61
721.4525, 79386.46
721.9346, 79335.40
722.4167, 79332.30
722.8988, 79362.08
723.3809, 79438.56
723.8630, 79544.38
724.3452, 79610.16
724.8273, 79633.53
725.3094, 79632.70
725.7915, 79605.36
726.2736, 79563.46
726.7557, 79536.98
727.2379, 79524.95
727.7200, 79519.79
728.2021, 79526.80
728.6842, 79531.41
729.1663, 79515.43
729.6484, 79476.57
730.1306, 79452.41
730.6127, 79469.63
731.0948, 79491.31
731.5769, 79494.30
732.0590, 79469.05
732.5411, 79466.55
733.0233, 79491.55
733.5054, 79528.69
733.9875, 79578.58
734.4696, 79634.34
734.9517, 79634.57
735.4338, 79565.09
735.9160, 79485.15
736.3981, 79448.36
736.8802, 79442.05
737.3623, 79449.13
737.8444, 79471.47
738.3266, 79494.00
738.8087, 79495.29
739.2908, 79498.84
739.7729, 79543.88
740.2551, 79694.71
740.7372, 79770.02
741.2193, 79730.38
741.7014, 79620.13
742.1835, 79517.30
742.6656, 79422.20
743.1478, 79368.00
743.6299, 79376.86
744.1120, 79417.10
744.5941, 79439.95
745.0762, 79452.02
745.5583, 79474.59
746.0405, 79573.09
746.5226, 79633.52
747.0047, 79555.05
747.4868, 79366.92
747.9689, 79243.68
748.4510, 79232.59
748.9332, 79256.13
749.4153, 79301.13
749.8974, 79364.35
750.3795, 79409.47
750.8616, 79435.01
751.3438, 79452.87
751.8259, 79471.52
752.3080, 79487.64
752.7901, 79486.39
753.2722, 79469.09
753.7543, 79465.42
754.2365, 79520.80
754.7186, 79580.28
755.2007, 79590.20
755.6828, 79531.83
756.1649, 79502.59
756.6470, 79557.59
757.1292, 79611.59
757.6113, 79603.91
758.0934, 79507.59
758.5755, 79477.19
759.0576, 79524.53
759.5397, 79597.70
760.0219, 79657.26
760.5040, 79699.01
760.9861, 79704.12
761.4682, 79666.14
761.9503, 79611.41
762.4324, 79526.51
762.9146, 79451.02
763.3967, 79435.41
763.8788, 79555.59
764.3609, 79632.07
764.8430, 79608.45
765.3251, 79541.63
765.8073, 79486.75
766.2894, 79436.59
766.7715, 79433.10
767.2536, 79495.91
767.7357, 79582.02
768.2178, 79620.47
768.7000, 79619.19
769.1821, 79610.04
769.6642, 79600.67
770.1463, 79591.54
770.6284, 79577.25
771.1105, 79564.20
771.5927, 79564.76
772.0748, 79637.34
772.5569, 79658.00
773.0390, 79539.98
773.5211, 79361.48
774.0032, 79342.98
774.4854, 79539.95
774.9675, 79688.18
775.4496, 79702.36
775.9317, 79622.88
776.4138, 79515.77
776.8959, 79394.48
777.3781, 79326.76
777.8602, 79394.27
778.3423, 79493.58
778.8244, 79536.98
779.3065, 79536.07
779.7886, 79544.63
780.2708, 79608.79
780.7529, 79652.52
781.2350, 79644.48
781.7171, 79591.25
782.1992, 79556.35
782.6813, 79545.28
783.1635, 79531.24
783.6456, 79482.80
784.1277, 79423.66
784.6098, 79455.82
785.0919, 79567.90
785.5740, 79648.27
786.0562, 79572.54
786.5383, 79473.11
787.0204, 79471.48
787.5025, 79574.39
787.9846, 79663.68
788.4667, 79750.14
788.9489, 79775.80
789.4310, 79689.14
789.9131, 79479.56
790.3952, 79381.24
790.8773, 79411.83
791.3594, 79475.00
791.8416, 79503.09
792.3237, 79508.04
792.8058, 79526.75
793.2879, 79560.69
793.7700, 79578.02
794.2521, 79513.02
794.7343, 79451.48
795.2164, 79482.13
795.6985, 79649.40
796.1806, 79748.73
796.6627, 79715.95
797.1448, 79659.92
797.6270, 79648.85
798.1091, 79688.20
798.5912, 79737.17
799.0733, 79802.13
799.5554, 79842.84
800.0375, 79799.58
800.5197, 79709.91
801.0018, 79639.59
801.4839, 79596.62
801.9660, 79585.24
802.4481, 79639.66
802.9302, 79707.26
803.4124, 79745.15
803.8945, 79746.02
804.3766, 79712.68
804.8587, 79619.39
805.3408, 79525.91
805.8229, 79495.13
806.3051, 79526.52
806.7872, 79533.49
807.2693, 79503.34
807.7514, 79481.71
808.2335, 79535.90
808.7156, 79622.19
809.1978, 79669.82
809.6799, 79650.87
810.1620, 79637.68
810.6441, 79688.81
811.1262, 79743.42
811.6083, 79737.84
812.0905, 79629.06
812.5726, 79556.50
813.0547, 79525.51
813.5368, 79527.00
814.0189, 79574.51
814.5010, 79653.73
814.9832, 79662.69
815.4653, 79566.46
815.9474, 79489.83
816.4295, 79597.97
816.9116, 79772.19
817.3937, 79865.16
817.8759, 79821.48
818.3580, 79731.06
818.8401, 79528.88
819.3222, 79343.52
819.8043, 79313.15
820.2864, 79481.05
820.7686, 79607.22
821.2507, 79669.32
821.7328, 79686.83
822.2149, 79669.89
822.6970, 79628.45
823.1791, 79584.79
823.6613, 79541.13
824.1434, 79506.50
824.6255, 79488.74
825.1076, 79482.82
825.5897, 79483.41
826.0718, 79489.72
826.5540, 79505.13
827.0361, 79543.38
827.5182, 79575.13
828.0003, 79548.29
828.4824, 79464.31
828.9645, 79445.92
829.4467, 79527.05
829.9288, 79610.66
830.4109, 79553.50
830.8930, 79436.27
831.3751, 79386.45
831.8572, 79461.88
832.3394, 79550.98
832.8215, 79633.63
833.3036, 79700.76
833.7857, 79746.94
834.2678, 79776.92
834.7499, 79764.16
835.2321, 79692.77
835.7142, 79611.38
836.1963, 79584.03
836.6784, 79598.72
837.1605, 79618.55
837.6426, 79642.41
838.1248, 79643.21
838.6069, 79561.88
839.0890, 79464.06
839.5711, 79425.94
840.0532, 79506.77
840.5353, 79567.30
841.0175, 79583.58
841.4996, 79592.34
841.9817, 79646.11
842.4638, 79749.69
842.9459, 79766.86
843.4280, 79668.92
843.9102, 79566.92
844.3923, 79608.45
844.8744, 79719.42
845.3565, 79772.27
845.8386, 79721.13
846.3207, 79690.30
846.8029, 79779.75
847.2850, 79878.93
847.7671, 79886.02
848.2492, 79749.39
848.7313, 79660.01
849.2134, 79627.55
849.6956, 79619.40
850.1777, 79609.72
850.6598, 79597.42
851.1419, 79569.81
851.6240, 79521.47
852.1061, 79498.77
852.5883, 79557.80
853.0704, 79645.77
853.5525, 79719.81
854.0346, 79779.51
854.5167, 79798.51
854.9988, 79754.41
855.4810, 79698.71
855.9631, 79669.85
856.4452, 79668.33
856.9273, 79648.59
857.4094, 79607.59
857.8915, 79576.43
858.3737, 79600.34
858.8558, 79641.48
859.3379, 79643.38
859.8200, 79595.66
860.3021, 79568.16
860.7842, 79614.84
861.2664, 79665.34
861.7485, 79675.44
862.2306, 79638.81
862.7127, 79624.04
863.1948, 79629.37
863.6769, 79663.60
864.1591, 79772.82
864.6412, 79906.54
865.1233, 79925.16
865.6054, 79834.07
866.0875, 79758.09
866.5696, 79764.21
867.0518, 79815.19
867.5339, 79924.57
868.0160, 80096.60
868.4981, 80119.90
868.9802, 79914.08
869.4623, 79728.74
869.9445, 79689.14
870.4266, 79766.27
870.9087, 79851.03
871.3908, 79939.23
871.8729, 79977.54
872.3550, 79867.54
872.8372, 79748.32
873.3193, 79760.41
873.8014, 79879.50
874.2835, 79952.63
874.7656, 79882.88
875.2477, 79839.28
875.7299, 79877.51
876.2120, 79970.81
876.6941, 80009.70
877.1762, 79994.23
877.6583, 79987.27
878.1404, 80036.73
878.6226, 80087.37
879.1047, 80040.24
879.5869, 79934.97
880.0690, 79872.30
880.5511, 79943.80
881.0332, 80001.39
881.5153, 79983.81
881.9974, 79930.18
882.4796, 79923.24
882.9617, 79972.97
883.4438, 80010.84
883.9259, 80014.53
884.4080, 80011.29
884.8901, 80061.33
885.3723, 80137.13
885.8544, 80172.14
886.3365, 80119.00
886.8186, 80060.38
887.3007, 80021.64
887.7828, 80004.16
888.2650, 80011.16
888.7471, 80054.16
889.2292, 80088.74
889.7113, 80109.38
890.1934, 80125.16
890.6755, 80148.07
891.1577, 80176.11
891.6398, 80201.84
892.1219, 80221.68
892.6040, 80249.51
893.0861, 80316.52
893.5682, 80383.05
894.0504, 80408.70
894.5325, 80367.87
895.0146, 80335.77
895.4967, 80314.76
895.9788, 80298.12
896.4609, 80276.29
896.9431, 80252.60
897.4252, 80252.48
897.9073, 80277.55
898.3894, 80305.23
898.8715, 80293.15
899.3536, 80294.56
899.8358, 80383.97
900.3179, 80580.42
900.8000, 80671.41
901.2821, 80568.07
901.7642, 80460.06
902.2463, 80435.90
902.7285, 80483.40
903.2106, 80508.40
903.6927, 80511.42
904.1748, 80509.97
904.6569, 80501.67
905.1390, 80503.98
905.6212, 80546.59
906.1033, 80618.33
906.5854, 80672.33
907.0675, 80685.09
907.5496, 80690.66
908.0317, 80703.49
908.5139, 80712.40
908.9960, 80659.53
909.4781, 80544.75
909.9602, 80501.91
910.4423, 80617.22
910.9244, 80763.30
911.4066, 80750.11
911.8887, 80662.31
912.3708, 80656.13
912.8529, 80883.02
913.3350, 81071.35
913.8171, 81178.42
914.2993, 81219.81
914.7814, 81193.52
915.2635, 81091.03
915.7456, 81039.30
916.2277, 81063.25
916.7098, 81110.72
917.1920, 81115.62
917.6741, 81106.86
918.1562, 81130.06
918.6383, 81203.18
919.1204, 81275.86
919.6025, 81326.41
920.0847, 81376.98
920.5668, 81446.84
921.0489, 81542.91
921.5310, 81604.66
922.0131, 81628.18
922.4952, 81648.20
922.9774, 81680.91
923.4595, 81733.63
923.9416, 81839.97
924.4237, 81994.27
924.9058, 82101.50
925.3879, 82072.51
925.8701, 82041.63
926.3522, 82073.02
926.8343, 82156.17
927.3164, 82195.23
927.7985, 82183.13
928.2806, 82191.18
928.7628, 82234.91
929.2449, 82333.50
929.7270, 82569.54
930.2091, 82887.13
930.6912, 83141.70
931.1733, 83186.98
931.6555, 83259.12
932.1376, 83441.05
932.6197, 83686.95
933.1018, 83929.96
933.5839, 84174.30
934.0660, 84390.24
934.5482, 84561.90
935.0303, 84743.03
935.5124, 84972.90
935.9945, 85274.50
936.4766, 85698.36
936.9587, 86313.00
937.4409, 86906.73
937.9230, 87320.70
938.4051, 87766.58
938.8872, 88393.35
939.3693, 89212.07
939.8514, 90195.57
940.3336, 91341.51
940.8157, 92601.15
941.2978, 93847.81
941.7799, 95237.52
942.2620, 96997.55
942.7441, 99130.89
943.2263, 101574.6
943.7084, 104290.5
944.1905, 107288.6
944.6726, 110533.3
945.1547, 114037.2
945.6368, 117877.0
946.1190, 122088.8
946.6011, 126559.0
947.0832, 131229.9
947.5653, 136153.9
948.0474, 141461.7
948.5295, 147135.1
949.0117, 153131.8
949.4938, 159450.4
949.9759, 166097.8
950.4580, 173183.6
950.9401, 180525.7
951.4222, 187978.0
951.9044, 195590.3
952.3865, 202562.4
952.8686, 209043.7
953.3507, 213521.6
953.8328, 214775.8
954.3149, 212879.9
954.7971, 207565.1
955.2792, 198226.3
955.7613, 187819.1
956.2434, 175914.6
956.7255, 164190.9
957.2076, 153487.5
957.6898, 143776.0
958.1719, 135398.0
958.6540, 128284.5
959.1361, 122242.6
959.6182, 117254.6
960.1003, 113093.7
960.5825, 109578.0
961.0646, 106671.4
961.5467, 104242.3
962.0288, 102441.0
962.5109, 100866.2
962.9930, 99466.64
963.4752, 98243.09
963.9573, 97252.66
964.4394, 96484.55
964.9215, 95814.68
965.4036, 95175.56
965.8857, 94675.98
966.3679, 94447.04
966.8500, 94390.19
967.3321, 94378.49
967.8142, 94404.31
968.2963, 94447.09
968.7784, 94484.47
969.2606, 94583.20
969.7427, 94824.59
970.2248, 95183.63
970.7069, 95545.87
971.1890, 95902.34
971.6711, 96387.80
972.1533, 97082.06
972.6354, 97937.54
973.1175, 98904.18
973.5996, 99985.05
974.0817, 101321.9
974.5638, 102978.7
975.0460, 104650.7
975.5281, 106171.7
976.0102, 107687.6
976.4923, 109523.5
976.9744, 111628.2
977.4565, 113851.0
977.9387, 116247.6
978.4208, 118609.4
978.9029, 121104.9
979.3850, 123391.0
979.8671, 125135.3
980.3492, 126434.7
980.8314, 126519.3
981.3135, 125260.6
981.7956, 122956.9
982.2777, 119470.3
982.7598, 115341.5
983.2419, 111236.3
983.7241, 107213.1
984.2062, 103574.4
984.6883, 100395.0
985.1704, 97668.32
985.6525, 95402.25
986.1346, 93585.38
986.6168, 92150.34
987.0989, 91090.83
987.5810, 90206.87
988.0631, 89403.31
988.5452, 88703.80
989.0273, 88152.91
989.5095, 87727.94
989.9916, 87381.81
990.4737, 87162.84
990.9558, 86923.40
991.4379, 86618.98
991.9200, 86330.45
992.4022, 86214.49
992.8843, 86232.77
993.3664, 86215.63
993.8485, 86130.12
994.3306, 86020.61
994.8127, 85881.52
995.2949, 85756.30
995.7770, 85690.78
996.2591, 85693.83
996.7412, 85686.83
997.2233, 85653.04
997.7054, 85670.63
998.1876, 85837.88
998.6697, 86069.17
999.1518, 86156.94
999.6339, 86135.05
1000.116, 86140.88
1000.598, 86266.52
1001.080, 86394.59
1001.562, 86448.94
1002.044, 86496.79
1002.527, 86681.04
1003.009, 87011.16
1003.491, 87326.66
1003.973, 87598.40
1004.455, 87826.66
1004.937, 87930.65
1005.419, 88025.80
1005.901, 88274.13
1006.384, 88748.41
1006.866, 89178.55
1007.348, 89486.00
1007.830, 89808.70
1008.312, 90196.98
1008.794, 90661.75
1009.276, 91297.07
1009.758, 92093.16
1010.240, 92984.08
1010.723, 93917.93
1011.205, 94947.75
1011.687, 96072.12
1012.169, 97327.80
1012.651, 98780.20
1013.133, 100439.9
1013.615, 102294.8
1014.097, 104348.9
1014.580, 106594.4
1015.062, 108994.5
1015.544, 111548.5
1016.026, 114276.6
1016.508, 117168.4
1016.990, 120231.4
1017.472, 123510.1
1017.954, 126936.5
1018.436, 130528.2
1018.919, 134243.5
1019.401, 137922.0
1019.883, 141565.1
1020.365, 144622.6
1020.847, 147172.3
1021.329, 148656.9
1021.811, 148512.5
1022.293, 146864.0
1022.776, 143979.3
1023.258, 139380.2
1023.740, 134350.2
1024.222, 128831.6
1024.704, 123201.8
1025.186, 117912.5
1025.668, 112969.6
1026.150, 108560.1
1026.632, 104683.0
1027.115, 101344.0
1027.597, 98655.13
1028.079, 96428.05
1028.561, 94533.91
1029.043, 92951.00
1029.525, 91668.13
1030.007, 90720.27
1030.489, 89959.66
1030.972, 89382.15
1031.454, 88890.27
1031.936, 88330.66
1032.418, 87743.09
1032.900, 87221.34
1033.382, 86762.99
1033.864, 86422.81
1034.346, 86252.58
1034.828, 86130.07
1035.311, 85906.13
1035.793, 85601.21
1036.275, 85364.86
1036.757, 85207.29
1037.239, 85087.27
1037.721, 84978.08
1038.203, 84892.80
1038.685, 84850.23
1039.167, 84846.36
1039.650, 84844.60
1040.132, 84853.02
1040.614, 84823.68
1041.096, 84725.45
1041.578, 84608.26
1042.060, 84554.32
1042.542, 84541.27
1043.024, 84526.20
1043.507, 84489.95
1043.989, 84465.09
1044.471, 84458.43
1044.953, 84463.05
1045.435, 84473.30
1045.917, 84489.48
1046.399, 84515.45
1046.881, 84551.59
1047.364, 84604.59
1047.846, 84745.37
1048.328, 84843.34
1048.810, 84752.97
1049.292, 84533.41
1049.774, 84453.93
1050.256, 84554.89
1050.738, 84655.73
1051.220, 84711.96
1051.703, 84777.39
1052.185, 84944.27
1052.667, 85166.52
1053.149, 85362.23
1053.631, 85506.05
1054.113, 85666.87
1054.595, 85823.13
1055.077, 86049.64
1055.559, 86410.74
1056.042, 86879.74
1056.524, 87263.52
1057.006, 87581.02
1057.488, 87987.30
1057.970, 88613.89
1058.452, 89307.56
1058.934, 89964.47
1059.416, 90635.72
1059.899, 91405.42
1060.381, 92293.13
1060.863, 93216.52
1061.345, 94167.72
1061.827, 95172.44
1062.309, 96268.56
1062.791, 97448.57
1063.273, 98722.55
1063.755, 100096.1
1064.238, 101392.3
1064.720, 102570.2
1065.202, 103682.6
1065.684, 104787.4
1066.166, 105792.5
1066.648, 106467.4
1067.130, 106798.3
1067.612, 106770.5
1068.094, 106360.2
1068.577, 105627.6
1069.059, 104451.9
1069.541, 103064.3
1070.023, 101672.1
1070.505, 100267.1
1070.987, 98868.81
1071.469, 97450.45
1071.951, 96132.90
1072.434, 94988.34
1072.916, 93981.64
1073.398, 93076.18
1073.880, 92258.67
1074.362, 91494.10
1074.844, 90685.99
1075.326, 90064.46
1075.808, 89686.32
1076.291, 89443.77
1076.773, 89201.54
1077.255, 88966.39
1077.737, 88765.91
1078.219, 88607.09
1078.701, 88464.13
1079.183, 88261.33
1079.665, 88145.66
1080.147, 88220.95
1080.630, 88441.95
1081.112, 88513.41
1081.594, 88442.21
1082.076, 88441.06
1082.558, 88596.99
1083.040, 88839.38
1083.522, 89135.95
1084.004, 89466.87
1084.486, 89805.20
1084.969, 90148.64
1085.451, 90507.53
1085.933, 90879.92
1086.415, 91263.30
1086.897, 91643.36
1087.379, 92038.09
1087.861, 92499.12
1088.343, 93008.43
1088.826, 93489.96
1089.308, 93909.32
1089.790, 94296.73
1090.272, 94653.30
1090.754, 94986.89
1091.236, 95361.88
1091.718, 95734.23
1092.200, 95875.72
1092.682, 95740.54
1093.165, 95534.08
1093.647, 95415.08
1094.129, 95234.49
1094.611, 94874.07
1095.093, 94361.97
1095.575, 93886.84
1096.057, 93451.63
1096.539, 92968.48
1097.022, 92381.88
1097.504, 91802.61
1097.986, 91368.55
1098.468, 91005.65
1098.950, 90617.19
1099.432, 90167.98
1099.914, 89731.77
1100.396, 89308.33
1100.879, 88923.34
1101.361, 88605.59
1101.843, 88338.09
1102.325, 88082.40
1102.807, 87840.96
1103.289, 87629.45
1103.771, 87457.25
1104.253, 87311.20
1104.735, 87196.11
1105.218, 87090.30
1105.700, 86956.67
1106.182, 86804.61
1106.664, 86697.06
1107.146, 86640.44
1107.628, 86560.06
1108.110, 86355.61
1108.592, 86168.23
1109.074, 86100.24
1109.557, 86114.08
1110.039, 86055.32
1110.521, 85922.34
1111.003, 85806.87
1111.485, 85735.63
1111.967, 85693.83
1112.449, 85680.70
1112.931, 85683.31
1113.414, 85698.48
1113.896, 85741.23
1114.378, 85688.37
1114.860, 85508.59
1115.342, 85371.35
1115.824, 85408.84
1116.306, 85515.35
1116.788, 85542.05
1117.271, 85503.39
1117.753, 85431.34
1118.235, 85269.19
1118.717, 85176.15
1119.199, 85172.93
1119.681, 85216.46
1120.163, 85293.84
1120.645, 85379.32
1121.127, 85371.80
1121.609, 85280.43
1122.092, 85228.42
1122.574, 85325.91
1123.056, 85413.87
1123.538, 85427.01
1124.020, 85408.83
1124.502, 85470.33
1124.984, 85593.84
1125.466, 85605.52
1125.949, 85458.59
1126.431, 85335.30
1126.913, 85398.42
1127.395, 85502.74
1127.877, 85544.20
1128.359, 85528.66
1128.841, 85513.68
1129.323, 85499.05
1129.806, 85486.70
1130.288, 85473.53
1130.770, 85471.05
1131.252, 85511.52
1131.734, 85560.07
1132.216, 85563.43
1132.698, 85490.81
1133.180, 85473.98
1133.662, 85526.67
1134.145, 85577.89
1134.627, 85577.70
1135.109, 85551.65
1135.591, 85515.19
1136.073, 85486.77
1136.555, 85514.05
1137.037, 85704.28
1137.519, 85800.20
1138.001, 85751.84
1138.484, 85680.83
1138.966, 85734.23
1139.448, 85857.36
1139.930, 85922.59
1140.412, 85925.08
1140.894, 85890.85
1141.376, 85748.81
1141.858, 85683.90
1142.341, 85778.55
1142.823, 85934.67
1143.305, 85956.98
1143.787, 85878.64
1144.269, 85852.40
1144.751, 85907.05
1145.233, 85976.30
1145.715, 86054.56
1146.198, 86102.88
1146.680, 86093.70
1147.162, 86040.78
1147.644, 86005.26
1148.126, 85986.51
1148.608, 85980.88
1149.090, 85995.55
1149.572, 85999.73
1150.054, 85954.24
1150.536, 85898.40
1151.019, 85865.87
1151.501, 85856.62
1151.983, 85887.23
1152.465, 85959.61
1152.947, 86027.00
1153.429, 86074.20
1153.911, 86093.83
1154.393, 86049.50
1154.876, 85981.31
1155.358, 85963.20
1155.840, 86016.09
1156.322, 86065.92
1156.804, 86111.68
1157.286, 86152.66
1157.768, 86199.70
1158.250, 86233.62
1158.733, 86211.51
1159.215, 86152.62
1159.697, 86135.58
1160.179, 86223.76
1160.661, 86228.48
1161.143, 86101.05
1161.625, 85962.20
1162.107, 85935.56
1162.589, 85999.03
1163.072, 86164.33
1163.554, 86417.41
1164.036, 86548.93
1164.518, 86412.64
1165.000, 86310.25
1165.482, 86319.73
1165.964, 86386.16
1166.446, 86419.02
1166.928, 86429.19
1167.411, 86442.58
1167.893, 86465.84
1168.375, 86478.02
1168.857, 86446.07
1169.339, 86439.27
1169.821, 86508.21
1170.303, 86603.30
1170.785, 86544.63
1171.268, 86385.38
1171.750, 86303.41
1172.232, 86381.05
1172.714, 86474.75
1173.196, 86536.37
1173.678, 86588.38
1174.160, 86643.45
1174.642, 86699.86
1175.125, 86745.35
1175.607, 86778.82
1176.089, 86792.05
1176.571, 86777.15
1177.053, 86746.80
1177.535, 86685.56
1178.017, 86627.46
1178.499, 86597.29
1178.981, 86595.14
1179.464, 86673.95
1179.946, 86825.96
1180.428, 86923.59
1180.910, 86810.53
1181.392, 86704.97
1181.874, 86754.14
1182.356, 86869.46
1182.838, 86904.59
1183.320, 86855.35
1183.803, 86877.65
1184.285, 86986.38
1184.767, 87072.52
1185.249, 86996.02
1185.731, 86924.73
1186.213, 87019.23
1186.695, 87204.96
1187.177, 87248.29
1187.660, 87134.84
1188.142, 87109.97
1188.624, 87221.50
1189.106, 87360.10
1189.588, 87480.49
1190.070, 87545.59
1190.552, 87484.01
1191.034, 87323.72
1191.516, 87264.24
1191.999, 87314.77
1192.481, 87382.13
1192.963, 87446.51
1193.445, 87507.20
1193.927, 87595.36
1194.409, 87657.92
1194.891, 87607.59
1195.373, 87437.36
1195.855, 87405.70
1196.338, 87530.21
1196.820, 87636.19
1197.302, 87642.00
1197.784, 87628.45
1198.266, 87685.94
1198.748, 87775.24
1199.230, 87861.39
1199.712, 87955.65
1200.195, 87910.38
1200.677, 87695.09
1201.159, 87558.43
1201.641, 87692.91
1202.123, 87898.77
1202.605, 87949.37
1203.087, 87912.98
1203.569, 87907.84
1204.052, 87982.21
1204.534, 87960.94
1205.016, 87820.05
1205.498, 87726.16
1205.980, 87852.02
1206.462, 88039.59
1206.944, 88106.63
1207.426, 88093.88
1207.908, 88092.24
1208.391, 88108.03
1208.873, 88149.90
1209.355, 88224.34
1209.837, 88293.96
1210.319, 88330.22
1210.801, 88341.58
1211.283, 88313.91
1211.765, 88267.73
1212.247, 88283.66
1212.730, 88412.84
1213.212, 88437.61
1213.694, 88311.77
1214.176, 88194.07
1214.658, 88257.91
1215.140, 88399.30
1215.622, 88519.52
1216.104, 88609.72
1216.587, 88656.24
1217.069, 88645.59
1217.551, 88639.26
1218.033, 88643.44
1218.515, 88670.68
1218.997, 88782.53
1219.479, 88892.96
1219.961, 88872.39
1220.443, 88726.91
1220.926, 88685.87
1221.408, 88787.49
1221.890, 88875.34
1222.372, 88916.04
1222.854, 88921.07
1223.336, 88860.84
1223.818, 88800.21
1224.300, 88824.23
1224.782, 88947.16
1225.265, 89050.12
1225.747, 89133.13
1226.229, 89191.90
1226.711, 89219.73
1227.193, 89237.66
1227.675, 89280.84
1228.157, 89323.12
1228.639, 89322.15
1229.122, 89267.05
1229.604, 89264.40
1230.086, 89320.01
1230.568, 89392.73
1231.050, 89479.88
1231.532, 89549.57
1232.014, 89539.39
1232.496, 89504.46
1232.979, 89521.91
1233.461, 89606.54
1233.943, 89638.81
1234.425, 89609.50
1234.907, 89621.89
1235.389, 89756.70
1235.871, 89902.05
1236.353, 89933.74
1236.835, 89918.84
1237.318, 89952.19
1237.800, 90050.34
1238.282, 90092.45
1238.764, 90075.75
1239.246, 90052.59
1239.728, 90049.13
1240.210, 90054.62
1240.692, 90055.48
1241.175, 90062.99
1241.657, 90086.62
1242.139, 90120.48
1242.621, 90240.84
1243.103, 90450.17
1243.585, 90578.09
1244.067, 90420.98
1244.549, 90257.23
1245.031, 90294.03
1245.514, 90431.11
1245.996, 90532.94
1246.478, 90602.71
1246.960, 90576.85
1247.442, 90461.04
1247.924, 90391.37
1248.406, 90501.84
1248.888, 90632.45
1249.370, 90714.98
1249.853, 90751.59
1250.335, 90726.70
1250.817, 90644.44
1251.299, 90640.98
1251.781, 90716.91
1252.263, 90789.94
1252.745, 90766.00
1253.227, 90781.05
1253.710, 90951.65
1254.192, 91148.68
1254.674, 91193.93
1255.156, 91110.88
1255.638, 91066.15
1256.120, 91067.45
1256.602, 91075.91
1257.084, 91060.06
1257.567, 91064.01
1258.049, 91118.10
1258.531, 91176.82
1259.013, 91153.06
1259.495, 91080.58
1259.977, 91098.10
1260.459, 91207.04
1260.941, 91299.74
1261.423, 91317.13
1261.906, 91321.31
1262.388, 91315.73
1262.870, 91321.34
1263.352, 91389.81
1263.834, 91486.14
1264.316, 91526.81
1264.798, 91506.97
1265.280, 91471.16
1265.762, 91392.20
1266.245, 91368.73
1266.727, 91428.63
1267.209, 91526.29
1267.691, 91613.13
1268.173, 91688.45
1268.655, 91753.88
1269.137, 91809.34
1269.619, 91840.48
1270.102, 91839.04
1270.584, 91836.87
1271.066, 91839.07
1271.548, 91847.47
1272.030, 91870.59
1272.512, 91896.89
1272.994, 91916.43
1273.476, 91926.26
1273.958, 91906.78
1274.441, 91839.03
1274.923, 91848.55
1275.405, 91982.03
1275.887, 92111.23
1276.369, 92063.52
1276.851, 91977.39
1277.333, 92004.38
1277.815, 92123.69
1278.297, 92153.71
1278.780, 92088.61
1279.262, 92055.80
1279.744, 92086.66
1280.226, 92139.23
1280.708, 92201.27
1281.190, 92252.00
1281.672, 92264.48
1282.154, 92256.14
1282.637, 92304.09
1283.119, 92398.24
1283.601, 92432.95
1284.083, 92377.45
1284.565, 92327.54
1285.047, 92354.99
1285.529, 92386.83
1286.011, 92379.26
1286.494, 92355.51
1286.976, 92392.88
1287.458, 92470.27
1287.940, 92512.36
1288.422, 92499.24
1288.904, 92489.42
1289.386, 92505.27
1289.868, 92529.68
1290.350, 92565.02
1290.833, 92594.77
1291.315, 92576.54
1291.797, 92530.61
1292.279, 92489.23
1292.761, 92453.97
1293.243, 92465.77
1293.725, 92530.24
1294.207, 92638.13
1294.689, 92815.95
1295.172, 92967.49
1295.654, 92900.60
1296.136, 92749.78
1296.618, 92701.51
1297.100, 92793.66
1297.582, 92830.51
1298.064, 92798.34
1298.546, 92800.99
1299.029, 92878.82
1299.511, 92976.85
1299.993, 93052.52
1300.475, 93107.98
1300.957, 93147.04
1301.439, 93168.53
1301.921, 93140.29
1302.403, 93064.64
1302.885, 93013.55
1303.368, 93008.29
1303.850, 93023.54
1304.332, 93066.19
1304.814, 93096.35
1305.296, 93073.93
1305.778, 93029.01
1306.260, 93085.96
1306.742, 93217.59
1307.224, 93321.22
1307.707, 93373.37
1308.189, 93382.82
1308.671, 93281.03
1309.153, 93238.49
1309.635, 93342.26
1310.117, 93509.34
1310.599, 93575.31
1311.081, 93566.40
1311.564, 93510.76
1312.046, 93397.83
1312.528, 93398.19
1313.010, 93571.91
1313.492, 93712.43
1313.974, 93748.50
1314.456, 93722.87
1314.938, 93655.02
##END=



