##NAMES=Marialite
##RRUFFID=R050123
##IDEAL CHEMISTRY=Na_4_Al_3_Si_9_O_24_Cl
##LOCALITY=Pakistan
##OWNER=RRUFF
##SOURCE=Syed Shah
##DESCRIPTION=Purple fragment
##STATUS=The identification of this mineral has been confirmed by X-ray diffraction and chemical analysis
##URL=rruff.info/R050123
##MEASURED CHEMISTRY=(Na_0.88_Ca_0.07_K_0.05_)_4_Al_3.00_Si_9.00_O_24_Cl_0.97
122.5448, 151.5234
123.0269, 151.7054
123.5090, 150.9078
123.9911, 150.7126
124.4732, 151.2000
124.9554, 152.0553
125.4375, 153.3130
125.9196, 154.8828
126.4017, 156.4188
126.8838, 157.4716
127.3659, 157.7490
127.8481, 158.3992
128.3302, 159.8010
128.8123, 161.4387
129.2944, 162.6270
129.7765, 163.0937
130.2586, 163.4850
130.7408, 164.9637
131.2229, 167.5327
131.7050, 170.0429
132.1871, 171.9100
132.6692, 173.3132
133.1513, 174.9351
133.6335, 177.0129
134.1156, 179.3676
134.5977, 181.8316
135.0798, 184.4223
135.5619, 186.9697
136.0440, 189.1704
136.5262, 190.9206
137.0083, 193.0636
137.4904, 196.3000
137.9725, 199.7489
138.4546, 202.8071
138.9367, 205.2734
139.4189, 207.4547
139.9010, 209.9173
140.3831, 212.7755
140.8652, 215.7185
141.3473, 218.7351
141.8294, 221.7680
142.3116, 224.8069
142.7937, 227.8740
143.2758, 230.8517
143.7579, 233.3107
144.2400, 234.4378
144.7221, 235.8750
145.2043, 238.1438
145.6864, 240.8678
146.1685, 243.3415
146.6506, 245.0857
147.1327, 246.1681
147.6148, 247.6847
148.0969, 249.9693
148.5791, 252.2620
149.0612, 254.3486
149.5433, 256.1903
150.0254, 257.6921
150.5075, 258.6239
150.9896, 259.0677
151.4718, 259.9678
151.9539, 261.8089
152.4360, 263.8407
152.9181, 265.3444
153.4002, 266.2254
153.8823, 266.9391
154.3645, 267.9302
154.8466, 269.0404
155.3287, 269.8708
155.8108, 270.3219
156.2929, 270.4007
156.7750, 270.1450
157.2572, 269.5984
157.7393, 268.5686
158.2214, 266.9318
158.7035, 264.8087
159.1856, 262.4603
159.6677, 260.2452
160.1499, 258.1149
160.6320, 255.0376
161.1141, 250.0627
161.5962, 244.9953
162.0783, 240.6633
162.5604, 236.8921
163.0426, 233.0674
163.5247, 228.5078
164.0068, 223.0140
164.4889, 217.9321
164.9710, 213.4808
165.4531, 209.2193
165.9353, 204.8740
166.4174, 200.4860
166.8995, 196.2973
167.3816, 192.6661
167.8637, 189.8364
168.3458, 186.9470
168.8279, 184.0210
169.3101, 181.0375
169.7922, 177.9268
170.2743, 174.6926
170.7564, 171.5043
171.2385, 168.5588
171.7206, 165.8654
172.2028, 163.5010
172.6849, 161.6447
173.1670, 160.0524
173.6491, 158.4306
174.1312, 156.6725
174.6133, 154.9305
175.0955, 153.5538
175.5776, 152.6021
176.0597, 151.5359
176.5418, 150.0795
177.0239, 148.3962
177.5060, 146.8503
177.9882, 145.5998
178.4703, 144.4536
178.9524, 143.1025
179.4345, 141.5214
179.9166, 139.9989
180.3987, 138.8244
180.8809, 137.9344
181.3630, 136.8303
181.8451, 135.2628
182.3272, 133.5154
182.8093, 131.8093
183.2914, 130.1620
183.7736, 128.6087
184.2557, 127.2451
184.7378, 126.1131
185.2199, 124.8531
185.7020, 123.1386
186.1841, 121.4220
186.6663, 120.0129
187.1484, 118.9692
187.6305, 118.0583
188.1126, 116.9659
188.5947, 115.6790
189.0768, 114.2460
189.5589, 112.4696
190.0411, 110.6976
190.5232, 109.1814
191.0053, 107.9951
191.4874, 106.9943
191.9695, 105.8636
192.4516, 104.2936
192.9338, 103.1519
193.4159, 102.7838
193.8980, 102.6462
194.3801, 102.2736
194.8622, 101.4885
195.3443, 100.4149
195.8265, 99.33850
196.3086, 98.21445
196.7907, 97.13622
197.2728, 95.95930
197.7549, 94.87849
198.2370, 94.14003
198.7192, 93.85168
199.2013, 93.89376
199.6834, 93.96660
200.1655, 94.13066
200.6476, 94.23737
201.1297, 94.35623
201.6119, 94.38924
202.0940, 94.10916
202.5761, 93.36117
203.0582, 92.38136
203.5403, 91.83965
204.0224, 91.96007
204.5046, 91.96544
204.9867, 91.49047
205.4688, 90.67994
205.9509, 89.90526
206.4330, 89.31885
206.9151, 88.85583
207.3973, 88.37778
207.8794, 87.87944
208.3615, 87.38622
208.8436, 86.90618
209.3257, 86.44209
209.8078, 86.00048
210.2899, 85.57799
210.7721, 85.19267
211.2542, 84.83033
211.7363, 84.46590
212.2184, 84.22436
212.7005, 84.34760
213.1826, 84.83829
213.6648, 85.03603
214.1469, 84.34788
214.6290, 83.54678
215.1111, 83.39227
215.5932, 84.03355
216.0753, 84.76306
216.5575, 84.71045
217.0396, 83.71450
217.5217, 83.01005
218.0038, 83.16309
218.4859, 83.55185
218.9680, 83.89994
219.4502, 84.13887
219.9323, 84.19646
220.4144, 83.94698
220.8965, 83.30954
221.3786, 82.62119
221.8607, 81.75819
222.3429, 80.97225
222.8250, 80.45205
223.3071, 80.22820
223.7892, 80.16837
224.2713, 80.10059
224.7534, 80.07220
225.2356, 79.91284
225.7177, 79.58421
226.1998, 79.16800
226.6819, 78.68874
227.1640, 78.16598
227.6461, 77.63725
228.1283, 77.16604
228.6104, 76.77464
229.0925, 76.40221
229.5746, 75.85339
230.0567, 75.44283
230.5388, 75.45562
231.0210, 75.93069
231.5031, 76.62453
231.9852, 77.18542
232.4673, 77.53637
232.9494, 77.88166
233.4315, 78.15881
233.9137, 78.46751
234.3958, 78.88404
234.8779, 79.42494
235.3600, 80.06013
235.8421, 80.74638
236.3242, 81.47262
236.8064, 82.30290
237.2885, 83.19202
237.7706, 84.21159
238.2527, 85.46507
238.7348, 86.96540
239.2169, 88.56360
239.6991, 90.05772
240.1812, 91.41493
240.6633, 92.83285
241.1454, 94.38076
241.6275, 95.96043
242.1096, 97.49307
242.5918, 98.95466
243.0739, 100.3869
243.5560, 101.7910
244.0381, 103.1586
244.5202, 104.6434
245.0023, 106.3599
245.4845, 108.1567
245.9666, 109.8473
246.4487, 111.4002
246.9308, 112.9598
247.4129, 114.6504
247.8950, 116.4761
248.3772, 118.4063
248.8593, 120.6028
249.3414, 122.8260
249.8235, 124.7119
250.3056, 126.1929
250.7877, 127.6911
251.2698, 129.5452
251.7520, 131.6921
252.2341, 133.9990
252.7162, 136.6666
253.1983, 139.3726
253.6804, 141.6494
254.1625, 143.4534
254.6447, 145.0746
255.1268, 146.7924
255.6089, 148.4574
256.0910, 149.7781
256.5731, 150.6545
257.0552, 151.1704
257.5374, 151.4967
258.0195, 151.6887
258.5016, 151.4176
258.9837, 150.3647
259.4658, 148.7519
259.9479, 146.7637
260.4301, 144.4935
260.9122, 141.8042
261.3943, 138.3928
261.8764, 134.1047
262.3585, 129.7467
262.8406, 125.7725
263.3228, 121.8652
263.8049, 117.7067
264.2870, 113.1639
264.7691, 108.5030
265.2512, 103.9522
265.7333, 99.37674
266.2155, 95.48816
266.6976, 93.09913
267.1797, 91.17012
267.6618, 88.96489
268.1439, 86.30739
268.6260, 83.54665
269.1082, 81.08736
269.5903, 78.94430
270.0724, 76.99207
270.5545, 75.12975
271.0366, 73.52106
271.5187, 72.36141
272.0009, 71.66013
272.4830, 71.14781
272.9651, 70.47659
273.4472, 69.57005
273.9293, 68.95065
274.4114, 69.00066
274.8936, 69.11602
275.3757, 69.03759
275.8578, 68.74050
276.3399, 68.32563
276.8220, 67.80942
277.3041, 67.14076
277.7863, 66.76059
278.2684, 66.94637
278.7505, 67.21901
279.2326, 67.45125
279.7147, 67.62080
280.1968, 67.73901
280.6789, 67.83659
281.1610, 67.91887
281.6432, 67.81329
282.1253, 67.29440
282.6074, 66.79038
283.0895, 66.41617
283.5716, 66.15701
284.0537, 65.97176
284.5359, 65.85021
285.0180, 65.77899
285.5001, 65.60049
285.9822, 65.19882
286.4643, 64.81417
286.9464, 64.51041
287.4286, 64.25871
287.9107, 63.99494
288.3928, 63.66946
288.8749, 63.32853
289.3570, 63.18716
289.8391, 63.46738
290.3213, 63.66596
290.8034, 63.65079
291.2855, 63.53654
291.7676, 63.42779
292.2497, 63.37105
292.7318, 63.39883
293.2140, 63.61411
293.6961, 64.24161
294.1782, 64.70467
294.6603, 64.95623
295.1424, 65.04072
295.6245, 65.03303
296.1067, 64.94646
296.5888, 64.68418
297.0709, 64.05440
297.5530, 62.86701
298.0351, 61.65001
298.5172, 60.44658
298.9994, 59.20262
299.4815, 57.85664
299.9636, 56.40612
300.4457, 54.90459
300.9278, 53.39781
301.4099, 51.85583
301.8921, 50.41003
302.3742, 48.97445
302.8563, 47.67215
303.3384, 46.63660
303.8205, 45.81359
304.3026, 45.01401
304.7848, 44.05285
305.2669, 42.89470
305.7490, 41.86708
306.2311, 40.81852
306.7132, 40.03761
307.1953, 39.74126
307.6775, 39.79666
308.1596, 39.93790
308.6417, 39.98890
309.1238, 39.95296
309.6059, 39.86361
310.0880, 39.60824
310.5702, 39.42194
311.0523, 39.37859
311.5344, 39.42342
312.0165, 39.49564
312.4986, 39.56784
312.9807, 39.61238
313.4629, 39.52981
313.9450, 38.96628
314.4271, 38.75399
314.9092, 39.33305
315.3913, 40.09242
315.8734, 40.35371
316.3556, 39.90676
316.8377, 39.16549
317.3198, 38.87886
317.8019, 39.30050
318.2840, 39.75663
318.7661, 40.39273
319.2483, 40.95874
319.7304, 41.20766
320.2125, 41.14445
320.6946, 41.02605
321.1767, 41.16059
321.6588, 41.62595
322.1409, 42.04778
322.6230, 42.50098
323.1052, 42.85461
323.5873, 42.95512
324.0694, 42.88158
324.5515, 42.87331
325.0336, 43.14547
325.5157, 43.69709
325.9979, 44.11144
326.4800, 44.29307
326.9621, 44.43628
327.4442, 44.54906
327.9263, 44.65966
328.4084, 44.76775
328.8906, 44.85927
329.3727, 45.00372
329.8548, 45.50637
330.3369, 46.99894
330.8190, 48.03262
331.3011, 48.11941
331.7833, 47.85294
332.2654, 47.84726
332.7475, 48.32566
333.2296, 49.06881
333.7117, 49.65334
334.1938, 49.89281
334.6760, 50.33677
335.1581, 51.18701
335.6402, 52.07258
336.1223, 52.70297
336.6044, 53.06483
337.0865, 53.38305
337.5687, 53.92894
338.0508, 54.75558
338.5329, 55.54338
339.0150, 56.24660
339.4971, 56.95228
339.9792, 57.68702
340.4614, 58.45139
340.9435, 59.25290
341.4256, 60.10649
341.9077, 61.00129
342.3898, 61.79666
342.8719, 62.41514
343.3541, 63.02479
343.8362, 63.65441
344.3183, 64.29870
344.8004, 64.92236
345.2825, 65.50074
345.7646, 66.10526
346.2468, 66.93301
346.7289, 68.09120
347.2110, 69.28587
347.6931, 70.56006
348.1752, 71.79649
348.6573, 72.82388
349.1395, 73.62881
349.6216, 74.45525
350.1037, 75.71486
350.5858, 77.58247
351.0679, 79.16406
351.5500, 80.18082
352.0322, 81.08321
352.5143, 82.04665
352.9964, 83.08086
353.4785, 84.13988
353.9606, 85.20303
354.4427, 86.26509
354.9249, 87.26681
355.4070, 88.29812
355.8891, 89.13164
356.3712, 89.68875
356.8533, 90.01905
357.3354, 90.21444
357.8176, 90.33468
358.2997, 90.32380
358.7818, 90.04694
359.2639, 89.48345
359.7460, 88.68559
360.2281, 87.58071
360.7103, 86.31424
361.1924, 85.01084
361.6745, 83.70393
362.1566, 82.28989
362.6387, 80.52283
363.1208, 78.33211
363.6029, 76.54646
364.0851, 75.59402
364.5672, 74.82640
365.0493, 73.80957
365.5314, 72.57597
366.0135, 71.41961
366.4956, 70.68344
366.9778, 70.23653
367.4599, 69.44852
367.9420, 68.20982
368.4241, 66.79480
368.9062, 65.30684
369.3883, 63.77661
369.8705, 62.22371
370.3526, 60.55929
370.8347, 58.98562
371.3168, 57.86428
371.7989, 57.25441
372.2810, 56.61538
372.7632, 55.63599
373.2453, 54.55754
373.7274, 53.68122
374.2095, 53.06197
374.6916, 52.51826
375.1737, 51.94716
375.6559, 51.34652
376.1380, 50.67873
376.6201, 49.86833
377.1022, 49.09711
377.5843, 48.61858
378.0664, 48.39581
378.5486, 48.07354
379.0307, 47.45597
379.5128, 46.68974
379.9949, 45.93800
380.4770, 45.19610
380.9591, 44.62997
381.4413, 44.46473
381.9234, 44.58271
382.4055, 44.52858
382.8876, 44.21646
383.3697, 43.77699
383.8518, 43.20629
384.3340, 42.55711
384.8161, 42.06150
385.2982, 41.87986
385.7803, 41.82449
386.2624, 41.41719
386.7445, 40.46375
387.2267, 39.79405
387.7088, 39.88945
388.1909, 40.29098
388.6730, 40.35623
389.1551, 39.94647
389.6372, 39.39100
390.1194, 39.02960
390.6015, 38.89679
391.0836, 38.80684
391.5657, 38.90236
392.0478, 38.91718
392.5299, 38.54284
393.0121, 37.91093
393.4942, 37.49903
393.9763, 37.63825
394.4584, 38.20435
394.9405, 38.53666
395.4226, 38.54337
395.9048, 38.44844
396.3869, 38.24942
396.8690, 37.97986
397.3511, 37.60439
397.8332, 37.13042
398.3153, 36.74270
398.7975, 36.74759
399.2796, 37.34187
399.7617, 37.84196
400.2438, 38.36742
400.7259, 38.71478
401.2080, 38.67491
401.6902, 38.32872
402.1723, 37.93367
402.6544, 37.67331
403.1365, 37.55145
403.6186, 37.61881
404.1007, 38.00580
404.5828, 38.44388
405.0649, 38.97406
405.5471, 39.49266
406.0292, 39.85426
406.5113, 40.00356
406.9934, 40.06963
407.4755, 40.27929
407.9576, 40.67256
408.4398, 41.09035
408.9219, 41.62660
409.4040, 42.09655
409.8861, 42.30474
410.3682, 42.31110
410.8503, 42.41339
411.3325, 42.94933
411.8146, 43.83309
412.2967, 44.36007
412.7788, 44.30836
413.2609, 44.27616
413.7430, 44.56799
414.2252, 45.02307
414.7073, 45.40347
415.1894, 45.59363
415.6715, 45.77247
416.1536, 46.17760
416.6357, 46.81577
417.1179, 47.56701
417.6000, 48.62754
418.0821, 49.57025
418.5642, 49.83515
419.0463, 49.42266
419.5284, 49.27275
420.0106, 50.14119
420.4927, 51.58892
420.9748, 52.57317
421.4569, 52.89518
421.9390, 53.26266
422.4211, 54.38004
422.9033, 55.98022
423.3854, 57.18393
423.8675, 57.46954
424.3496, 57.73265
424.8317, 58.75043
425.3138, 60.30346
425.7960, 61.53228
426.2781, 61.98789
426.7602, 62.13733
427.2423, 62.93533
427.7244, 64.52742
428.2065, 66.11258
428.6887, 67.59013
429.1708, 68.97127
429.6529, 70.16041
430.1350, 71.18738
430.6171, 72.35316
431.0992, 73.91153
431.5814, 75.85410
432.0635, 78.16692
432.5456, 80.83613
433.0277, 83.79713
433.5098, 87.10560
433.9919, 90.69506
434.4741, 94.47852
434.9562, 98.43656
435.4383, 102.5750
435.9204, 106.8824
436.4025, 111.2343
436.8846, 116.1210
437.3668, 121.7944
437.8489, 127.7046
438.3310, 133.5608
438.8131, 139.3495
439.2952, 145.1408
439.7773, 151.0327
440.2595, 156.9922
440.7416, 162.6657
441.2237, 167.7584
441.7058, 172.9861
442.1879, 178.6450
442.6700, 184.4430
443.1522, 190.0516
443.6343, 195.3653
444.1164, 200.6047
444.5985, 206.1349
445.0806, 211.9400
445.5627, 217.8315
446.0448, 223.7485
446.5269, 229.7479
447.0091, 235.8085
447.4912, 241.9763
447.9733, 248.4801
448.4554, 255.3656
448.9375, 262.7162
449.4196, 270.7981
449.9018, 279.7074
450.3839, 288.8515
450.8660, 298.2970
451.3481, 307.6053
451.8302, 316.0258
452.3123, 323.4030
452.7945, 330.3912
453.2766, 337.7388
453.7587, 344.8661
454.2408, 350.8791
454.7229, 355.6607
455.2050, 358.7213
455.6872, 359.5325
456.1693, 357.8629
456.6514, 354.4931
457.1335, 349.8865
457.6156, 343.1449
458.0977, 333.4401
458.5799, 321.1722
459.0620, 307.1718
459.5441, 291.7617
460.0262, 275.4759
460.5083, 259.9370
460.9904, 245.4947
461.4726, 231.3538
461.9547, 217.3072
462.4368, 203.7055
462.9189, 190.6903
463.4010, 178.3924
463.8831, 167.1259
464.3653, 157.2175
464.8474, 148.6145
465.3295, 140.4570
465.8116, 132.5152
466.2937, 125.3941
466.7758, 119.4922
467.2580, 114.3339
467.7401, 109.4231
468.2222, 104.6372
468.7043, 100.0370
469.1864, 95.78641
469.6685, 91.91959
470.1507, 88.01193
470.6328, 83.63905
471.1149, 79.71211
471.5970, 76.89703
472.0791, 74.88441
472.5612, 72.84690
473.0434, 70.36441
473.5255, 67.70357
474.0076, 65.17044
474.4897, 62.76002
474.9718, 60.68884
475.4539, 59.16318
475.9361, 57.92220
476.4182, 56.57542
476.9003, 55.10659
477.3824, 53.64861
477.8645, 52.23142
478.3466, 50.85360
478.8288, 49.51564
479.3109, 48.21465
479.7930, 47.02013
480.2751, 46.00834
480.7572, 45.15301
481.2393, 44.17815
481.7215, 42.77034
482.2036, 41.64087
482.6857, 41.21125
483.1678, 41.08842
483.6499, 40.71601
484.1320, 39.94261
484.6142, 39.04204
485.0963, 38.35975
485.5784, 37.91720
486.0605, 37.60292
486.5426, 37.55497
487.0247, 37.47789
487.5068, 37.26032
487.9890, 36.93663
488.4711, 36.56930
488.9532, 36.18816
489.4353, 35.80898
489.9174, 35.49214
490.3995, 35.29047
490.8817, 34.97276
491.3638, 34.32422
491.8459, 33.69174
492.3280, 33.25991
492.8101, 33.02361
493.2922, 32.88346
493.7744, 32.80818
494.2565, 32.77708
494.7386, 32.77234
495.2207, 32.81387
495.7028, 32.74367
496.1849, 32.38096
496.6671, 31.92892
497.1492, 31.73385
497.6313, 31.88279
498.1134, 31.96582
498.5955, 31.70211
499.0776, 31.28144
499.5598, 31.03347
500.0419, 31.00661
500.5240, 30.97586
501.0061, 30.72584
501.4882, 30.28729
501.9703, 30.06812
502.4525, 30.20514
502.9346, 30.37393
503.4167, 30.55728
503.8988, 30.68417
504.3809, 30.61835
504.8630, 30.33286
505.3452, 30.00081
505.8273, 29.86898
506.3094, 30.00666
506.7915, 29.98120
507.2736, 29.52777
507.7557, 29.19300
508.2379, 29.28503
508.7200, 29.58519
509.2021, 29.71291
509.6842, 29.48934
510.1663, 29.12098
510.6484, 28.90767
511.1306, 28.83451
511.6127, 29.04137
512.0948, 29.79706
512.5769, 30.58601
513.0590, 30.95439
513.5411, 31.03983
514.0233, 31.34448
514.5054, 32.14514
514.9875, 33.24458
515.4696, 34.37199
515.9517, 35.53022
516.4338, 36.82679
516.9160, 38.30436
517.3981, 39.92919
517.8802, 41.63905
518.3623, 43.37328
518.8444, 45.41300
519.3265, 48.10601
519.8087, 50.92633
520.2908, 53.45784
520.7729, 55.66616
521.2550, 57.66082
521.7371, 59.50820
522.2192, 61.20325
522.7014, 62.72320
523.1835, 63.80290
523.6656, 65.05578
524.1477, 66.54408
524.6298, 68.17757
525.1119, 69.86584
525.5941, 71.62834
526.0762, 73.56020
526.5583, 75.79185
527.0404, 78.27125
527.5225, 80.66309
528.0046, 82.93919
528.4868, 85.19805
528.9689, 87.11812
529.4510, 89.23306
529.9331, 92.14072
530.4152, 95.93102
530.8973, 99.94898
531.3795, 103.6860
531.8616, 107.2452
532.3437, 110.9497
532.8258, 114.8508
533.3079, 118.7617
533.7900, 122.6616
534.2722, 126.4732
534.7543, 130.0840
535.2364, 134.1120
535.7185, 136.9029
536.2006, 137.6930
536.6827, 136.8652
537.1649, 134.9749
537.6470, 132.1245
538.1291, 128.0821
538.6112, 122.5156
539.0933, 115.4109
539.5754, 107.9917
540.0576, 99.60444
540.5397, 91.74102
541.0218, 84.69904
541.5039, 78.31533
541.9860, 72.43039
542.4681, 66.99056
542.9503, 62.02116
543.4324, 57.53312
543.9145, 53.50460
544.3966, 50.13082
544.8787, 47.68769
545.3608, 45.50585
545.8430, 43.23126
546.3251, 41.02352
546.8072, 39.12867
547.2892, 37.64008
547.7714, 36.37043
548.2535, 35.23305
548.7356, 34.19644
549.2177, 33.08068
549.6998, 31.81888
550.1819, 30.67896
550.6641, 29.92188
551.1462, 29.51905
551.6283, 29.06256
552.1104, 28.45659
552.5925, 27.90178
553.0746, 27.52646
553.5568, 27.23566
554.0389, 26.88184
554.5210, 26.42767
555.0031, 25.94791
555.4852, 25.52165
555.9673, 25.14832
556.4495, 24.83618
556.9316, 24.71426
557.4137, 24.50492
557.8958, 24.02731
558.3779, 23.48119
558.8600, 23.11141
559.3422, 22.98840
559.8243, 22.98664
560.3064, 22.97783
560.7885, 22.96402
561.2706, 23.00252
561.7527, 23.17850
562.2349, 23.23895
562.7170, 22.86590
563.1991, 22.31347
563.6812, 22.00497
564.1633, 22.10758
564.6454, 22.22925
565.1276, 22.10444
565.6097, 21.83408
566.0918, 21.59622
566.5739, 21.42456
567.0560, 21.32306
567.5381, 21.30606
568.0203, 21.36939
568.5024, 21.41498
568.9845, 21.42293
569.4666, 21.44032
569.9487, 21.51394
570.4308, 21.58197
570.9130, 21.53209
571.3951, 21.36989
571.8772, 21.26676
572.3593, 21.43495
572.8414, 21.84578
573.3235, 22.01745
573.8057, 21.77868
574.2878, 21.60754
574.7699, 21.75764
575.2520, 21.98918
575.7341, 22.01500
576.2162, 21.78556
576.6984, 21.65232
577.1805, 22.04036
577.6626, 22.65069
578.1447, 22.77195
578.6268, 22.33009
579.1089, 21.90601
579.5911, 21.82966
580.0732, 22.01594
580.5553, 22.23412
581.0374, 22.56227
581.5195, 22.75634
582.0016, 22.66990
582.4838, 22.49890
582.9659, 22.36836
583.4480, 22.31634
583.9301, 22.41224
584.4122, 22.73000
584.8943, 23.16644
585.3765, 23.32084
585.8586, 23.00280
586.3407, 22.79714
586.8228, 22.82648
587.3049, 22.93751
587.7870, 23.10415
588.2692, 23.28003
588.7513, 23.33389
589.2334, 23.11242
589.7155, 22.80203
590.1976, 22.76029
590.6797, 22.97964
591.1619, 23.09713
591.6440, 22.98051
592.1261, 22.74243
592.6082, 22.47231
593.0903, 22.16381
593.5724, 22.02086
594.0546, 22.14667
594.5367, 22.37302
595.0188, 22.72407
595.5009, 23.07901
595.9830, 23.15313
596.4651, 22.84026
596.9473, 22.39127
597.4294, 22.20587
597.9115, 22.36917
598.3936, 22.38204
598.8757, 21.96613
599.3578, 21.69678
599.8400, 21.89988
600.3221, 22.29586
600.8042, 22.46562
601.2863, 22.26564
601.7684, 21.99601
602.2505, 21.99904
602.7327, 22.20443
603.2148, 22.28231
603.6969, 22.17677
604.1790, 22.03974
604.6611, 21.96151
605.1432, 21.93040
605.6254, 21.90381
606.1075, 21.91298
606.5896, 21.86923
607.0717, 21.66558
607.5538, 21.44246
608.0359, 21.35779
608.5181, 21.41897
609.0002, 21.54528
609.4823, 21.68466
609.9644, 21.82908
610.4465, 21.95061
610.9286, 22.08313
611.4108, 22.12277
611.8929, 21.95273
612.3750, 21.78214
612.8571, 21.74564
613.3392, 21.83146
613.8214, 21.95351
614.3035, 22.07364
614.7856, 22.19523
615.2677, 22.36616
615.7498, 22.57257
616.2319, 22.59113
616.7141, 22.27292
617.1962, 21.94369
617.6783, 22.05332
618.1604, 22.61402
618.6425, 22.91013
619.1246, 22.64184
619.6068, 22.39473
620.0889, 22.46937
620.5710, 22.72703
621.0531, 22.99185
621.5352, 23.19547
622.0173, 23.27197
622.4995, 23.12036
622.9816, 22.74051
623.4637, 22.39142
623.9458, 21.95767
624.4279, 21.75134
624.9100, 22.04131
625.3922, 22.47742
625.8743, 22.73924
626.3564, 22.77988
626.8385, 22.68893
627.3206, 22.47945
627.8027, 22.19422
628.2849, 21.87543
628.7670, 21.53297
629.2491, 21.26290
629.7311, 21.15549
630.2133, 21.06055
630.6954, 20.65499
631.1775, 19.68176
631.6596, 19.09121
632.1417, 19.10203
632.6238, 19.28519
633.1060, 19.56931
633.5881, 19.82223
634.0702, 19.79420
634.5523, 19.38202
635.0344, 18.89219
635.5165, 18.80113
635.9987, 19.12379
636.4808, 19.35775
636.9629, 19.47879
637.4450, 19.51508
637.9271, 19.44623
638.4092, 19.31359
638.8914, 19.17402
639.3735, 19.03824
639.8556, 18.87927
640.3377, 18.59480
640.8198, 18.32521
641.3019, 18.28344
641.7841, 18.46363
642.2662, 18.71670
642.7483, 18.96955
643.2304, 19.17536
643.7125, 19.18038
644.1946, 18.77154
644.6768, 18.56896
645.1589, 18.77419
645.6410, 18.97330
646.1231, 18.92484
646.6052, 18.71052
647.0873, 18.52379
647.5695, 18.44732
648.0516, 18.43275
648.5337, 18.41744
649.0158, 18.40923
649.4979, 18.47937
649.9800, 18.66933
650.4622, 18.80289
650.9443, 18.70380
651.4264, 18.44176
651.9085, 18.34455
652.3906, 18.55674
652.8727, 18.69575
653.3549, 18.62684
653.8370, 18.48412
654.3191, 18.35686
654.8012, 18.27254
655.2833, 18.27811
655.7654, 18.42225
656.2476, 18.60862
656.7297, 18.55273
657.2118, 18.17539
657.6939, 17.91650
658.1760, 17.85610
658.6581, 17.91165
659.1403, 18.06304
659.6224, 18.27563
660.1045, 18.46517
660.5866, 18.61521
661.0687, 18.72618
661.5508, 18.85353
662.0330, 18.92437
662.5151, 18.73578
662.9972, 18.27922
663.4793, 17.85416
663.9614, 17.69221
664.4435, 17.75874
664.9257, 17.88951
665.4078, 18.20354
665.8899, 18.38063
666.3720, 18.31395
666.8541, 18.19419
667.3362, 18.12589
667.8184, 18.10855
668.3005, 18.11345
668.7826, 18.14855
669.2647, 18.15038
669.7468, 17.96082
670.2289, 17.64118
670.7111, 17.56762
671.1932, 17.85835
671.6753, 18.15174
672.1574, 18.12826
672.6395, 17.84148
673.1216, 17.68733
673.6038, 17.74790
674.0859, 17.81257
674.5680, 17.83418
675.0501, 17.85868
675.5322, 17.95047
676.0143, 18.08645
676.4965, 18.16759
676.9786, 18.12037
677.4607, 18.02300
677.9428, 18.05003
678.4249, 18.21223
678.9070, 18.33574
679.3892, 18.37974
679.8713, 18.40430
680.3534, 18.44304
680.8355, 18.49882
681.3176, 18.59147
681.7997, 18.81755
682.2819, 18.92487
682.7640, 18.63363
683.2461, 18.28068
683.7282, 18.35605
684.2103, 18.80903
684.6924, 19.13056
685.1746, 18.96683
685.6567, 18.51737
686.1388, 18.34790
686.6209, 18.55160
687.1030, 18.69469
687.5851, 18.66876
688.0673, 18.65361
688.5494, 18.81853
689.0315, 19.05375
689.5136, 19.11120
689.9957, 18.86381
690.4778, 18.61407
690.9600, 18.56784
691.4421, 18.63724
691.9242, 18.68085
692.4063, 18.68955
692.8884, 18.75520
693.3705, 18.95207
693.8527, 19.19498
694.3348, 19.22870
694.8169, 18.88736
695.2990, 18.71115
695.7811, 18.84703
696.2632, 19.00298
696.7454, 19.02448
697.2275, 18.99120
697.7096, 19.06451
698.1917, 19.30894
698.6738, 19.55736
699.1559, 19.67231
699.6381, 19.69403
700.1202, 19.66138
700.6023, 19.58841
701.0844, 19.64603
701.5665, 19.96733
702.0486, 20.38450
702.5308, 20.51565
703.0129, 20.18539
703.4950, 20.01293
703.9771, 20.14661
704.4592, 20.25783
704.9413, 20.15697
705.4235, 19.96882
705.9056, 19.89785
706.3877, 20.00021
706.8698, 20.12456
707.3519, 20.11247
707.8340, 20.02475
708.3162, 20.03843
708.7983, 20.16005
709.2804, 20.21307
709.7625, 20.07337
710.2446, 19.92932
710.7267, 20.14088
711.2089, 20.89116
711.6909, 21.19042
712.1730, 20.59901
712.6552, 20.08622
713.1373, 20.00331
713.6194, 20.19699
714.1015, 20.52777
714.5836, 20.92829
715.0657, 21.25137
715.5479, 21.36624
716.0300, 21.31276
716.5121, 21.14955
716.9942, 20.87397
717.4763, 20.66473
717.9584, 20.58041
718.4406, 20.57584
718.9227, 20.59966
719.4048, 20.65294
719.8869, 20.77038
720.3690, 21.03886
720.8511, 21.26081
721.3333, 21.40192
721.8154, 21.45580
722.2975, 21.38085
722.7796, 21.20366
723.2617, 21.01379
723.7438, 20.82989
724.2260, 20.74904
724.7081, 21.10807
725.1902, 21.88572
725.6723, 22.23307
726.1544, 21.83729
726.6365, 21.40640
727.1187, 21.59246
727.6008, 22.25727
728.0829, 22.57753
728.5650, 22.27077
729.0471, 22.06267
729.5292, 22.12272
730.0114, 22.28655
730.4935, 22.50136
730.9756, 22.70336
731.4577, 22.74143
731.9398, 22.52169
732.4219, 22.27891
732.9041, 22.38892
733.3862, 22.80957
733.8683, 23.18423
734.3504, 23.48472
734.8325, 23.73050
735.3146, 23.95076
735.7968, 24.11095
736.2789, 24.10654
736.7610, 23.86825
737.2431, 23.71102
737.7252, 23.63970
738.2073, 23.67897
738.6895, 23.89636
739.1716, 24.21528
739.6537, 24.56405
740.1358, 24.90348
740.6179, 25.11058
741.1000, 24.88073
741.5822, 24.42226
742.0643, 24.66724
742.5464, 25.68655
743.0285, 26.30072
743.5106, 25.91396
743.9927, 25.31027
744.4749, 25.53727
744.9570, 26.68931
745.4391, 27.39199
745.9212, 27.22763
746.4033, 27.15717
746.8854, 27.58628
747.3676, 28.14881
747.8497, 28.42982
748.3318, 28.44417
748.8139, 28.52487
749.2960, 28.92151
749.7781, 29.43164
750.2603, 29.68625
750.7424, 29.72330
751.2245, 29.85738
751.7066, 30.15004
752.1887, 30.51663
752.6708, 30.91003
753.1530, 31.32090
753.6351, 31.70864
754.1172, 32.08620
754.5993, 32.41774
755.0814, 32.62923
755.5635, 32.86572
756.0457, 33.29368
756.5278, 33.78813
757.0099, 34.08162
757.4920, 34.07802
757.9741, 34.04024
758.4562, 34.21859
758.9384, 34.54818
759.4205, 34.90409
759.9026, 35.27348
760.3847, 35.54924
760.8668, 35.64510
761.3489, 35.77538
761.8311, 36.31210
762.3132, 37.36478
762.7953, 38.02907
763.2774, 37.84632
763.7595, 37.84124
764.2416, 38.31805
764.7238, 38.99098
765.2059, 39.67727
765.6880, 40.31173
766.1701, 40.76406
766.6522, 40.84371
767.1343, 40.85857
767.6165, 41.23558
768.0986, 41.80195
768.5807, 42.03952
769.0628, 41.86890
769.5449, 41.72895
770.0270, 41.96669
770.5092, 42.47061
770.9913, 42.82218
771.4734, 42.84404
771.9555, 43.15729
772.4376, 44.21178
772.9197, 45.10381
773.4019, 45.28195
773.8840, 45.08825
774.3661, 45.09023
774.8482, 45.41612
775.3303, 45.79641
775.8124, 46.01965
776.2946, 46.28819
776.7767, 46.94832
777.2588, 47.83164
777.7409, 48.46711
778.2230, 48.68470
778.7051, 48.61428
779.1873, 48.34767
779.6694, 47.91901
780.1515, 47.74025
780.6336, 47.87518
781.1157, 48.07066
781.5978, 48.36456
782.0800, 48.58488
782.5621, 48.62921
783.0442, 48.48289
783.5263, 48.02970
784.0084, 46.85515
784.4905, 45.88334
784.9727, 45.69685
785.4548, 45.68539
785.9369, 45.24981
786.4190, 44.40190
786.9011, 43.43568
787.3832, 42.49971
787.8654, 41.57807
788.3475, 40.67727
788.8296, 39.77820
789.3117, 38.75170
789.7938, 37.57052
790.2759, 36.38173
790.7581, 35.27929
791.2402, 34.17574
791.7223, 32.87138
792.2044, 31.25115
792.6865, 29.98122
793.1686, 29.32016
793.6508, 28.68913
794.1328, 27.81067
794.6149, 26.94049
795.0970, 26.42465
795.5792, 26.23975
796.0613, 25.99679
796.5434, 25.37260
797.0255, 24.71778
797.5076, 24.58736
797.9897, 24.77036
798.4719, 24.55036
798.9540, 23.82600
799.4361, 23.20981
799.9182, 23.15149
800.4003, 23.45816
800.8824, 23.58966
801.3646, 23.51861
801.8467, 23.34274
802.3288, 22.91807
802.8109, 22.57540
803.2930, 22.47034
803.7751, 22.50724
804.2573, 22.58121
804.7394, 22.68261
805.2215, 22.76969
805.7036, 22.78215
806.1857, 22.81844
806.6678, 23.01338
807.1500, 23.26468
807.6321, 23.33377
808.1142, 23.20870
808.5963, 23.18496
809.0784, 23.54896
809.5605, 24.12592
810.0427, 24.42438
810.5248, 24.43295
811.0069, 24.43340
811.4890, 24.50029
811.9711, 24.47735
812.4532, 24.23367
812.9354, 23.82661
813.4175, 23.43460
813.8996, 23.05688
814.3817, 22.68682
814.8638, 22.45875
815.3459, 22.09199
815.8281, 21.26584
816.3102, 20.29516
816.7923, 19.62640
817.2744, 19.35290
817.7565, 19.25284
818.2386, 19.27822
818.7208, 19.31022
819.2029, 19.15710
819.6850, 18.86275
820.1671, 18.56243
820.6492, 18.28994
821.1313, 18.05132
821.6135, 17.84830
822.0956, 17.68849
822.5777, 17.62717
823.0598, 17.74789
823.5419, 17.69236
824.0240, 17.29922
824.5062, 16.90420
824.9883, 16.64311
825.4704, 16.50729
825.9525, 16.51197
826.4346, 16.68574
826.9167, 16.83544
827.3989, 16.93644
827.8810, 16.96540
828.3631, 16.87856
828.8452, 16.72150
829.3273, 16.51797
829.8094, 16.30204
830.2916, 16.20284
830.7737, 16.36241
831.2558, 16.63866
831.7379, 16.75344
832.2200, 16.71838
832.7021, 16.59939
833.1843, 16.39231
833.6664, 16.25927
834.1485, 16.33526
834.6306, 16.53192
835.1127, 16.60451
835.5948, 16.48139
836.0770, 16.42497
836.5591, 16.56496
837.0412, 16.62050
837.5233, 16.38333
838.0054, 16.08992
838.4875, 16.00551
838.9697, 16.15394
839.4518, 16.38625
839.9339, 16.83619
840.4160, 17.14420
840.8981, 16.91683
841.3802, 16.45291
841.8624, 16.18906
842.3445, 16.17411
842.8266, 16.24820
843.3087, 16.32069
843.7908, 16.36875
844.2729, 16.34787
844.7551, 16.26062
845.2372, 16.11967
845.7193, 15.90097
846.2014, 15.80092
846.6835, 15.95564
847.1656, 16.20210
847.6478, 16.29639
848.1299, 16.22218
848.6120, 16.12271
849.0941, 16.02862
849.5762, 15.86957
850.0583, 15.44851
850.5405, 15.10958
851.0226, 15.23978
851.5047, 15.70096
851.9868, 15.97907
852.4689, 15.84069
852.9510, 15.63879
853.4332, 15.58018
853.9153, 15.61003
854.3974, 15.70725
854.8795, 15.82979
855.3616, 15.85444
855.8438, 15.73783
856.3259, 15.60923
856.8080, 15.66284
857.2901, 15.83500
857.7722, 15.71413
858.2543, 15.25674
858.7365, 15.08165
859.2186, 15.43573
859.7007, 15.85306
860.1828, 15.92126
860.6649, 15.71021
861.1470, 15.58155
861.6292, 15.64861
862.1113, 15.61572
862.5934, 15.32569
863.0755, 15.10913
863.5576, 15.20859
864.0397, 15.43578
864.5219, 15.50742
865.0040, 15.37564
865.4861, 15.23790
865.9682, 15.18338
866.4503, 15.16949
866.9324, 15.21341
867.4146, 15.25128
867.8967, 15.12457
868.3788, 14.85332
868.8609, 14.67837
869.3430, 14.77092
869.8251, 14.98422
870.3073, 15.04782
870.7894, 14.97758
871.2715, 14.94923
871.7536, 14.98902
872.2357, 14.89434
872.7178, 14.49174
873.2000, 14.10907
873.6821, 14.29822
874.1642, 15.13186
874.6463, 15.47909
875.1284, 14.94580
875.6105, 14.51801
876.0927, 14.43322
876.5747, 14.41581
877.0568, 14.24143
877.5389, 13.98672
878.0211, 13.88172
878.5032, 14.01063
878.9853, 14.18313
879.4674, 14.40189
879.9495, 14.55568
880.4316, 14.50114
880.9138, 14.32698
881.3959, 14.21160
881.8780, 14.19608
882.3601, 14.17994
882.8422, 14.06460
883.3243, 13.91228
883.8065, 13.81587
884.2886, 13.78553
884.7707, 13.91347
885.2528, 14.21269
885.7349, 14.45872
886.2170, 14.50368
886.6992, 14.41539
887.1813, 14.32795
887.6634, 14.23468
888.1455, 14.19385
888.6276, 14.25744
889.1097, 14.26583
889.5919, 14.12733
890.0740, 13.94604
890.5561, 13.82848
891.0382, 13.76756
891.5203, 13.70966
892.0024, 13.61220
892.4846, 13.57102
892.9667, 13.68246
893.4488, 13.78511
893.9309, 13.76854
894.4130, 13.65303
894.8951, 13.45051
895.3773, 13.16717
895.8594, 13.00082
896.3415, 13.19878
896.8236, 13.50185
897.3057, 13.61656
897.7878, 13.59012
898.2700, 13.52970
898.7521, 13.46264
899.2342, 13.38222
899.7163, 13.27777
900.1984, 13.18401
900.6805, 13.18260
901.1627, 13.26943
901.6448, 13.37254
902.1269, 13.50288
902.6090, 13.52073
903.0911, 13.32768
903.5732, 13.08755
904.0554, 13.02391
904.5375, 13.13666
905.0196, 13.18007
905.5017, 13.04266
905.9838, 13.02357
906.4659, 13.35584
906.9481, 13.61719
907.4302, 13.47161
907.9123, 13.11735
908.3944, 12.95739
908.8765, 13.06904
909.3586, 13.23595
909.8408, 13.60843
910.3229, 13.78475
910.8050, 13.26437
911.2871, 12.55338
911.7692, 12.37487
912.2513, 12.73005
912.7335, 13.06338
913.2156, 13.06822
913.6977, 12.92299
914.1798, 12.75132
914.6619, 12.59846
915.1440, 12.59511
915.6262, 12.71182
916.1083, 12.76285
916.5904, 12.67618
917.0725, 12.57275
917.5546, 12.60666
918.0367, 12.73488
918.5189, 12.71826
919.0010, 12.53868
919.4831, 12.50746
919.9652, 12.72742
920.4473, 12.91929
920.9294, 12.89261
921.4116, 12.71289
921.8937, 12.51169
922.3758, 12.23094
922.8579, 12.15483
923.3400, 12.48818
923.8221, 12.73662
924.3043, 12.75466
924.7864, 12.65822
925.2685, 12.48800
925.7506, 12.27911
926.2327, 12.16680
926.7148, 12.24500
927.1970, 12.28070
927.6791, 12.15454
928.1612, 12.00979
928.6433, 11.94624
929.1254, 11.93507
929.6075, 11.89995
930.0897, 11.83494
930.5718, 11.84229
931.0539, 12.03967
931.5360, 12.27504
932.0181, 12.43183
932.5002, 12.49461
932.9824, 12.38603
933.4645, 12.14343
933.9466, 11.93840
934.4287, 11.85445
934.9108, 11.85671
935.3929, 11.94161
935.8751, 12.07236
936.3572, 12.04466
936.8393, 11.86637
937.3214, 11.81255
937.8035, 11.96161
938.2856, 12.13492
938.7678, 12.19151
939.2499, 12.17039
939.7320, 12.19654
940.2141, 12.30927
940.6962, 12.29811
941.1783, 12.08298
941.6605, 11.91443
942.1426, 11.88574
942.6247, 11.94304
943.1068, 12.08178
943.5889, 12.28364
944.0710, 12.31269
944.5532, 11.83138
945.0353, 11.67967
945.5174, 12.31619
945.9995, 12.89504
946.4816, 12.88511
946.9637, 12.56513
947.4459, 12.36250
947.9280, 12.34160
948.4101, 12.32736
948.8922, 12.20351
949.3743, 12.12446
949.8564, 12.27915
950.3386, 12.45247
950.8207, 12.34540
951.3028, 12.04302
951.7849, 11.82631
952.2670, 11.80550
952.7491, 11.92553
953.2313, 12.28807
953.7134, 12.65950
954.1955, 12.57378
954.6776, 12.21686
955.1597, 12.13851
955.6418, 12.40601
956.1240, 12.63533
956.6061, 12.56628
957.0882, 12.39541
957.5703, 12.53094
958.0524, 12.89981
958.5345, 12.93392
959.0166, 12.61453
959.4987, 12.40882
959.9808, 12.47317
960.4630, 12.65152
960.9451, 12.81501
961.4272, 12.95113
961.9093, 13.01291
962.3914, 13.00667
962.8735, 12.86753
963.3557, 12.46093
963.8378, 12.23966
964.3199, 12.50864
964.8020, 12.93124
965.2841, 13.04891
965.7662, 12.86591
966.2484, 12.87697
966.7305, 13.46118
967.2126, 13.67943
967.6947, 13.00766
968.1768, 12.45957
968.6589, 12.65792
969.1411, 13.25897
969.6232, 13.80056
970.1053, 14.24132
970.5874, 14.38663
971.0695, 13.87261
971.5516, 13.46332
972.0338, 13.50904
972.5159, 13.75145
972.9980, 13.99553
973.4801, 14.23073
973.9622, 14.50067
974.4443, 14.82054
974.9265, 15.12355
975.4086, 15.41158
975.8907, 15.62478
976.3728, 15.64754
976.8549, 15.59160
977.3370, 15.64348
977.8192, 15.79932
978.3013, 15.91710
978.7834, 15.92137
979.2655, 15.91734
979.7476, 15.99193
980.2297, 16.15469
980.7119, 16.48347
981.1940, 16.91706
981.6761, 17.23840
982.1582, 17.40556
982.6403, 17.55116
983.1224, 17.77499
983.6046, 18.00789
984.0867, 18.06658
984.5688, 17.99790
985.0509, 18.17829
985.5330, 18.61943
986.0151, 19.03311
986.4973, 19.33772
986.9794, 19.48621
987.4615, 19.39921
987.9436, 19.18070
988.4257, 19.22777
988.9078, 19.59798
989.3900, 19.84108
989.8721, 19.93257
990.3542, 19.89285
990.8363, 19.65576
991.3184, 19.43283
991.8005, 19.48948
992.2827, 19.78470
992.7648, 19.96747
993.2469, 20.03421
993.7290, 19.99450
994.2111, 19.84536
994.6932, 19.59235
995.1754, 19.12108
995.6575, 18.62360
996.1396, 18.38903
996.6217, 18.40601
997.1038, 18.30599
997.5859, 17.96527
998.0681, 17.66871
998.5502, 17.44135
999.0323, 17.27674
999.5144, 17.19008
999.9965, 17.15388
1000.479, 17.14606
1000.961, 17.16109
1001.443, 17.14571
1001.925, 17.08390
1002.407, 16.99166
1002.889, 16.80993
1003.371, 16.65998
1003.853, 16.70197
1004.336, 16.82366
1004.818, 16.79607
1005.300, 16.57531
1005.782, 16.36294
1006.264, 16.24555
1006.746, 16.19042
1007.228, 16.17152
1007.710, 16.20676
1008.193, 16.38439
1008.675, 16.62181
1009.157, 16.69963
1009.639, 16.55528
1010.121, 16.40275
1010.603, 16.42386
1011.085, 16.50255
1011.567, 16.48579
1012.049, 16.44561
1012.532, 16.53457
1013.014, 16.72741
1013.496, 16.87752
1013.978, 16.92353
1014.460, 16.90294
1014.942, 16.81806
1015.424, 16.71952
1015.906, 16.71925
1016.388, 16.78112
1016.871, 16.79214
1017.353, 16.74710
1017.835, 16.74706
1018.317, 16.84266
1018.799, 16.89602
1019.281, 16.65110
1019.763, 16.26510
1020.245, 16.34019
1020.728, 16.78935
1021.210, 17.00204
1021.692, 16.88640
1022.174, 16.78627
1022.656, 16.89672
1023.138, 17.07286
1023.620, 17.07945
1024.102, 16.95505
1024.584, 16.97995
1025.067, 17.15716
1025.549, 17.32139
1026.031, 17.44553
1026.513, 17.53528
1026.995, 17.60065
1027.477, 17.60262
1027.959, 17.43911
1028.441, 17.12326
1028.923, 17.07340
1029.406, 17.34105
1029.888, 17.59563
1030.370, 17.80136
1030.852, 17.89116
1031.334, 17.78906
1031.816, 17.61005
1032.298, 17.56395
1032.780, 17.65701
1033.263, 17.74230
1033.745, 17.81776
1034.227, 17.88990
1034.709, 17.94901
1035.191, 18.03112
1035.673, 18.18302
1036.155, 18.34693
1036.637, 18.41135
1037.120, 18.36722
1037.602, 18.31656
1038.084, 18.25633
1038.566, 18.19363
1039.048, 18.10076
1039.530, 18.04739
1040.012, 18.10831
1040.494, 18.21516
1040.976, 18.23659
1041.458, 18.15637
1041.941, 18.12323
1042.423, 18.10534
1042.905, 18.18243
1043.387, 18.47614
1043.869, 18.74945
1044.351, 18.83877
1044.833, 18.84308
1045.315, 18.98537
1045.798, 19.30546
1046.280, 19.29379
1046.762, 18.38330
1047.244, 17.92995
1047.726, 18.70108
1048.208, 19.38623
1048.690, 18.97352
1049.172, 18.13064
1049.655, 17.94975
1050.137, 18.50729
1050.619, 18.91081
1051.101, 18.90939
1051.583, 18.92684
1052.065, 19.11882
1052.547, 19.27839
1053.029, 19.23137
1053.511, 19.10013
1053.994, 19.05630
1054.476, 19.11553
1054.958, 19.22923
1055.440, 19.43510
1055.922, 19.62473
1056.404, 19.86994
1056.886, 19.98560
1057.368, 19.66275
1057.850, 19.25263
1058.333, 19.32942
1058.815, 19.87833
1059.297, 20.21371
1059.779, 19.95929
1060.261, 19.80021
1060.743, 20.05254
1061.225, 20.35779
1061.707, 20.53859
1062.190, 20.60782
1062.672, 20.54278
1063.154, 20.38572
1063.636, 20.34464
1064.118, 20.52213
1064.600, 20.73233
1065.082, 20.89086
1065.564, 21.07801
1066.047, 21.41711
1066.529, 21.76681
1067.011, 21.90201
1067.493, 21.86790
1067.975, 21.97143
1068.457, 22.38541
1068.939, 22.69591
1069.421, 22.61939
1069.903, 22.51351
1070.385, 22.50595
1070.868, 22.66513
1071.350, 23.19060
1071.832, 23.93989
1072.314, 24.42144
1072.796, 24.42777
1073.278, 24.46765
1073.760, 24.89034
1074.242, 25.26864
1074.725, 25.22600
1075.207, 25.09158
1075.689, 25.18650
1076.171, 25.51528
1076.653, 26.02565
1077.135, 26.72935
1077.617, 27.30424
1078.099, 27.52599
1078.582, 27.67355
1079.064, 27.89212
1079.546, 28.12300
1080.028, 28.30485
1080.510, 28.44970
1080.992, 28.54917
1081.474, 28.60473
1081.956, 28.85784
1082.438, 29.58882
1082.921, 30.32096
1083.403, 30.84651
1083.885, 31.23441
1084.367, 31.49891
1084.849, 31.68549
1085.331, 31.82967
1085.813, 31.95063
1086.295, 32.15569
1086.777, 32.53423
1087.260, 32.93336
1087.742, 33.29198
1088.224, 33.63598
1088.706, 33.99340
1089.188, 34.34254
1089.670, 34.64003
1090.152, 34.88941
1090.634, 35.15480
1091.116, 35.46790
1091.599, 35.77464
1092.081, 36.11916
1092.563, 36.37799
1093.045, 36.45744
1093.527, 36.41944
1094.009, 36.34564
1094.491, 36.23131
1094.973, 35.99553
1095.456, 35.55194
1095.938, 35.23101
1096.420, 35.30142
1096.902, 35.34314
1097.384, 35.09390
1097.866, 34.75097
1098.348, 34.48442
1098.830, 34.29834
1099.313, 34.14764
1099.795, 34.02071
1100.277, 33.96152
1100.759, 34.17537
1101.241, 34.20448
1101.723, 33.71325
1102.205, 33.12593
1102.687, 32.68808
1103.169, 32.42274
1103.651, 32.41590
1104.134, 32.66989
1104.616, 32.67978
1105.098, 32.21598
1105.580, 31.66900
1106.062, 30.86522
1106.544, 30.29983
1107.026, 30.54805
1107.508, 31.01493
1107.991, 30.82080
1108.473, 30.01942
1108.955, 29.53140
1109.437, 29.68657
1109.919, 29.76594
1110.401, 29.60406
1110.883, 29.44458
1111.365, 29.47595
1111.848, 29.47765
1112.330, 29.16756
1112.812, 28.64486
1113.294, 28.30308
1113.776, 28.26011
1114.258, 28.10112
1114.740, 27.59282
1115.222, 27.26848
1115.704, 27.44582
1116.187, 27.63924
1116.669, 27.52454
1117.151, 27.20552
1117.633, 26.86517
1118.115, 26.49140
1118.597, 26.20140
1119.079, 25.99969
1119.561, 25.87935
1120.043, 25.89634
1120.526, 25.90769
1121.008, 25.84488
1121.490, 25.73745
1121.972, 25.60896
1122.454, 25.46676
1122.936, 25.38807
1123.418, 25.41412
1123.900, 25.38835
1124.383, 25.30845
1124.865, 25.15997
1125.347, 24.91132
1125.829, 24.64435
1126.311, 24.41707
1126.793, 24.24410
1127.275, 24.18783
1127.757, 24.27881
1128.240, 24.23242
1128.722, 23.99362
1129.204, 23.89997
1129.686, 24.05588
1130.168, 24.24423
1130.650, 24.33242
1131.132, 24.35243
1131.614, 24.35758
1132.096, 24.34359
1132.578, 24.24077
1133.061, 24.04295
1133.543, 24.01591
1134.025, 24.20684
1134.507, 24.24424
1134.989, 23.95357
1135.471, 23.62043
1135.953, 23.53342
1136.435, 23.64944
1136.918, 23.95443
1137.400, 24.37597
1137.882, 24.35419
1138.364, 23.91987
1138.846, 23.56490
1139.328, 23.43217
1139.810, 23.56454
1140.292, 24.01984
1140.775, 24.51262
1141.257, 24.53150
1141.739, 24.29243
1142.221, 24.35288
1142.703, 24.63788
1143.185, 24.95499
1143.667, 25.24204
1144.149, 25.39669
1144.631, 25.38065
1145.114, 25.30200
1145.596, 25.18893
1146.078, 25.17176
1146.560, 25.52903
1147.042, 26.03558
1147.524, 26.36979
1148.006, 26.52485
1148.488, 26.50482
1148.970, 26.36522
1149.453, 26.35282
1149.935, 26.62106
1150.417, 26.98301
1150.899, 27.37985
1151.381, 27.71282
1151.863, 27.79396
1152.345, 27.81882
1152.827, 28.11573
1153.310, 28.60019
1153.792, 28.90401
1154.274, 28.91192
1154.756, 28.95985
1155.238, 29.20250
1155.720, 29.52094
1156.202, 29.86323
1156.684, 30.25313
1157.167, 30.79866
1157.649, 31.35953
1158.131, 31.70241
1158.613, 31.82487
1159.095, 31.95020
1159.577, 32.14415
1160.059, 32.29924
1160.541, 32.21859
1161.023, 32.32461
1161.505, 32.95472
1161.988, 33.69011
1162.470, 34.12579
1162.952, 34.37679
1163.434, 34.78736
1163.916, 35.39837
1164.398, 35.96503
1164.880, 36.56065
1165.362, 36.93767
1165.844, 36.89164
1166.327, 36.94695
1166.809, 37.37682
1167.291, 38.04970
1167.773, 38.84966
1168.255, 39.72060
1168.737, 40.28426
1169.219, 40.47054
1169.701, 40.83679
1170.184, 41.45060
1170.666, 41.90026
1171.148, 42.04467
1171.630, 42.14080
1172.112, 42.36216
1172.594, 42.72136
1173.076, 43.26752
1173.558, 43.96783
1174.041, 44.65322
1174.523, 45.31851
1175.005, 45.91824
1175.487, 46.45601
1175.969, 47.04694
1176.451, 47.72883
1176.933, 48.31775
1177.415, 48.60937
1177.897, 48.81155
1178.380, 49.23758
1178.862, 49.82086
1179.344, 50.53506
1179.826, 51.27001
1180.308, 51.72857
1180.790, 51.93049
1181.272, 52.19164
1181.754, 52.65409
1182.236, 53.24802
1182.719, 54.07644
1183.201, 54.84603
1183.683, 55.15419
1184.165, 55.39956
1184.647, 56.10680
1185.129, 57.06411
1185.611, 57.77421
1186.093, 58.17913
1186.576, 58.63537
1187.058, 59.32282
1187.540, 59.94307
1188.022, 60.20218
1188.504, 60.61145
1188.986, 61.75995
1189.468, 62.88044
1189.950, 63.05954
1190.432, 62.67433
1190.915, 62.81869
1191.397, 63.67265
1191.879, 64.22916
1192.361, 64.06618
1192.843, 64.45351
1193.325, 65.97134
1193.807, 67.20513
1194.289, 67.43326
1194.771, 67.25336
1195.254, 67.23350
1195.736, 67.39285
1196.218, 67.88111
1196.700, 68.76957
1197.182, 69.18826
1197.664, 69.07796
1198.146, 69.17892
1198.628, 69.65572
1199.111, 70.17729
1199.593, 70.57027
1200.075, 70.78972
1200.557, 70.72705
1201.039, 70.52294
1201.521, 70.49456
1202.003, 70.64279
1202.485, 71.07706
1202.968, 71.68759
1203.450, 72.00876
1203.932, 71.99120
1204.414, 72.15461
1204.896, 72.82797
1205.378, 73.46300
1205.860, 73.48390
1206.342, 73.26040
1206.824, 73.14300
1207.307, 73.05409
1207.789, 72.86882
1208.271, 72.62205
1208.753, 72.37389
1209.235, 72.15801
1209.717, 72.12475
1210.199, 72.51334
1210.681, 72.71078
1211.163, 72.17170
1211.646, 71.80209
1212.128, 72.42382
1212.610, 73.09016
1213.092, 72.69401
1213.574, 71.71536
1214.056, 71.55233
1214.538, 72.34714
1215.020, 72.57974
1215.503, 71.98689
1215.985, 71.41994
1216.467, 70.89662
1216.949, 70.56533
1217.431, 70.55278
1217.913, 70.56670
1218.395, 70.32342
1218.877, 69.93344
1219.359, 69.72532
1219.842, 69.67375
1220.324, 69.18357
1220.806, 68.30014
1221.288, 67.75985
1221.770, 67.66337
1222.252, 67.80421
1222.734, 68.08580
1223.216, 68.33602
1223.698, 68.41478
1224.181, 68.33511
1224.663, 67.95065
1225.145, 67.53537
1225.627, 67.80412
1226.109, 68.27475
1226.591, 67.77298
1227.073, 66.49204
1227.555, 65.68889
1228.038, 65.78242
1228.520, 65.92383
1229.002, 65.63817
1229.484, 65.30347
1229.966, 65.02753
1230.448, 64.85160
1230.930, 64.84006
1231.412, 64.91969
1231.895, 65.06625
1232.377, 65.22678
1232.859, 65.22665
1233.341, 65.04823
1233.823, 64.71900
1234.305, 64.12298
1234.787, 63.61603
1235.269, 63.27441
1235.751, 62.97047
1236.234, 62.64061
1236.716, 62.32768
1237.198, 62.07204
1237.680, 61.87934
1238.162, 61.77547
1238.644, 61.75608
1239.126, 61.80515
1239.608, 61.88975
1240.090, 61.53781
1240.573, 60.74590
1241.055, 60.28487
1241.537, 60.49324
1242.019, 60.75700
1242.501, 60.53263
1242.983, 60.03508
1243.465, 59.35527
1243.947, 58.72603
1244.430, 58.51014
1244.912, 58.56053
1245.394, 58.74548
1245.876, 58.90670
1246.358, 58.65423
1246.840, 57.85802
1247.322, 57.14301
1247.804, 56.74362
1248.286, 56.46822
1248.769, 56.45761
1249.251, 56.31544
1249.733, 55.63860
1250.215, 54.87872
1250.697, 54.53440
1251.179, 54.48216
1251.661, 54.36806
1252.143, 54.18217
1252.625, 54.04420
1253.108, 53.99597
1253.590, 53.76469
1254.072, 53.26308
1254.554, 52.98391
1255.036, 53.15680
1255.518, 53.24141
1256.000, 52.72561
1256.482, 51.96515
1256.964, 51.59444
1257.447, 51.52836
1257.929, 51.67136
1258.411, 51.87776
1258.893, 51.69062
1259.375, 51.19460
1259.857, 50.87221
1260.339, 50.84172
1260.821, 50.78782
1261.304, 50.53236
1261.786, 50.21930
1262.268, 49.81185
1262.750, 49.53386
1263.232, 49.71149
1263.714, 49.92836
1264.196, 49.81197
1264.678, 49.42431
1265.161, 48.83704
1265.643, 48.06663
1266.125, 47.68425
1266.607, 47.88622
1267.089, 48.04310
1267.571, 48.15135
1268.053, 48.21989
1268.535, 48.29327
1269.017, 48.13100
1269.500, 47.51036
1269.982, 46.87743
1270.464, 46.93005
1270.946, 47.36920
1271.428, 47.14617
1271.910, 46.47200
1272.392, 46.23275
1272.874, 46.37268
1273.356, 46.52930
1273.839, 46.59087
1274.321, 46.46828
1274.803, 46.12418
##END=



