##NAMES=Marialite
##RRUFFID=R070689
##IDEAL CHEMISTRY=Na_4_Al_3_Si_9_O_24_Cl
##LOCALITY=Itaguassu, Espirito Santo State, Brazil
##OWNER=RRUFF
##SOURCE=Michael Scott
##DESCRIPTION=Pale yellow striated prism; bright orange-pink fluorescence under SW UV light
##STATUS=The identification of this mineral has been confirmed by X-ray diffraction and chemical analysis
##URL=rruff.info/R070689
##MEASURED CHEMISTRY=(Na_2.48_Ca_1.28_K_0.24_)_Σ=4_(Si_7.91_Al_4.09_)_Σ=12_O_24_(Cl_0.81_(CO_3_)_0.19_)_Σ=1_; CO_2_ estimated by difference and charge balance
89.93622, 9667.999
90.41833, 10006.49
90.90045, 10374.23
91.38257, 10747.70
91.86469, 11091.90
92.34680, 11388.59
92.82892, 11646.40
93.31104, 11915.18
93.79315, 12230.15
94.27527, 12487.76
94.75739, 12572.08
95.23950, 12484.16
95.72162, 12374.20
96.20374, 12245.65
96.68585, 12102.08
97.16797, 11959.93
97.65009, 11823.77
98.13220, 11689.21
98.61432, 11546.19
99.09644, 11387.47
99.57855, 11231.88
100.0607, 11091.18
100.5428, 10962.64
101.0249, 10839.45
101.5070, 10716.98
101.9891, 10594.01
102.4713, 10476.36
102.9534, 10352.78
103.4355, 10241.13
103.9176, 10151.43
104.3997, 10085.28
104.8818, 10034.70
105.3640, 9987.338
105.8461, 9940.113
106.3282, 9901.512
106.8103, 9879.032
107.2924, 9860.729
107.7745, 9831.551
108.2567, 9782.871
108.7388, 9721.248
109.2209, 9689.478
109.7030, 9697.896
110.1851, 9723.739
110.6672, 9776.938
111.1494, 9846.164
111.6315, 9904.286
112.1136, 9924.465
112.5957, 9900.593
113.0778, 9919.173
113.5599, 10000.10
114.0421, 10104.79
114.5242, 10212.43
115.0063, 10319.18
115.4884, 10419.50
115.9705, 10501.30
116.4526, 10565.00
116.9348, 10631.52
117.4169, 10703.40
117.8990, 10781.74
118.3811, 10868.42
118.8632, 10964.45
119.3453, 11069.25
119.8275, 11182.41
120.3096, 11305.49
120.7917, 11425.80
121.2738, 11540.21
121.7559, 11649.54
122.2381, 11733.69
122.7202, 11758.81
123.2023, 11766.32
123.6844, 11789.43
124.1665, 11842.22
124.6486, 11901.06
125.1308, 11919.17
125.6129, 11875.43
126.0950, 11826.23
126.5771, 11792.64
127.0592, 11762.56
127.5413, 11722.65
128.0235, 11665.71
128.5056, 11592.02
128.9877, 11500.31
129.4698, 11362.91
129.9519, 11233.35
130.4340, 11144.48
130.9162, 11078.33
131.3983, 10985.91
131.8804, 10814.84
132.3625, 10533.31
132.8446, 10311.91
133.3267, 10168.27
133.8089, 10056.83
134.2910, 9958.674
134.7731, 9867.420
135.2552, 9775.814
135.7373, 9673.654
136.2194, 9552.151
136.7016, 9436.940
137.1837, 9330.419
137.6658, 9230.238
138.1479, 9134.977
138.6300, 9044.563
139.1121, 8956.404
139.5943, 8867.618
140.0764, 8781.020
140.5585, 8687.876
141.0406, 8571.229
141.5227, 8439.961
142.0048, 8331.731
142.4870, 8274.546
142.9691, 8246.775
143.4512, 8203.076
143.9333, 8134.573
144.4154, 8058.247
144.8975, 7989.153
145.3797, 7927.526
145.8618, 7872.231
146.3439, 7821.881
146.8260, 7777.828
147.3081, 7743.787
147.7902, 7726.586
148.2724, 7718.346
148.7545, 7697.284
149.2366, 7651.277
149.7187, 7612.339
150.2008, 7595.327
150.6829, 7593.479
151.1651, 7594.031
151.6472, 7586.406
152.1293, 7570.710
152.6114, 7566.029
153.0935, 7580.497
153.5757, 7600.289
154.0578, 7620.953
154.5399, 7642.859
155.0220, 7668.980
155.5041, 7704.082
155.9862, 7754.261
156.4684, 7794.339
156.9505, 7832.742
157.4326, 7857.403
157.9147, 7855.563
158.3968, 7827.146
158.8789, 7787.378
159.3611, 7760.138
159.8432, 7754.468
160.3253, 7749.157
160.8074, 7739.234
161.2895, 7731.824
161.7716, 7737.416
162.2538, 7760.397
162.7359, 7790.785
163.2180, 7802.971
163.7001, 7812.254
164.1822, 7786.188
164.6643, 7693.404
165.1465, 7562.315
165.6286, 7444.802
166.1107, 7366.747
166.5928, 7320.770
167.0749, 7277.513
167.5570, 7248.222
168.0392, 7209.868
168.5213, 7141.112
169.0034, 7048.535
169.4855, 6966.483
169.9676, 6921.543
170.4497, 6904.602
170.9319, 6877.581
171.4140, 6833.244
171.8961, 6781.698
172.3782, 6729.904
172.8603, 6677.167
173.3424, 6629.767
173.8246, 6594.970
174.3067, 6568.933
174.7888, 6545.396
175.2709, 6520.992
175.7530, 6498.304
176.2351, 6482.478
176.7173, 6473.994
177.1994, 6472.084
177.6815, 6483.018
178.1636, 6500.273
178.6457, 6508.247
179.1278, 6485.258
179.6100, 6439.227
180.0921, 6423.144
180.5742, 6451.153
181.0563, 6497.742
181.5384, 6561.413
182.0205, 6634.569
182.5027, 6694.958
182.9848, 6715.800
183.4669, 6691.383
183.9490, 6683.367
184.4311, 6710.868
184.9132, 6742.923
185.3954, 6765.818
185.8775, 6779.418
186.3596, 6793.144
186.8417, 6821.137
187.3238, 6873.392
187.8059, 6910.297
188.2881, 6919.536
188.7702, 6923.378
189.2523, 6936.003
189.7344, 6960.218
190.2165, 6987.703
190.6986, 7004.317
191.1808, 6998.748
191.6629, 7001.120
192.1450, 7017.681
192.6271, 7038.324
193.1092, 7057.237
193.5914, 7071.851
194.0735, 7079.646
194.5556, 7074.846
195.0377, 7035.691
195.5198, 7008.697
196.0019, 7008.619
196.4841, 7016.807
196.9662, 7006.843
197.4483, 6965.540
197.9304, 6906.888
198.4125, 6879.664
198.8946, 6912.348
199.3768, 6940.856
199.8589, 6958.554
200.3410, 6964.287
200.8231, 6952.538
201.3052, 6916.371
201.7873, 6864.859
202.2695, 6842.567
202.7516, 6870.013
203.2337, 6898.601
203.7158, 6907.184
204.1979, 6901.553
204.6800, 6900.704
205.1622, 6917.414
205.6443, 6948.068
206.1264, 6970.407
206.6085, 6980.578
207.0906, 6986.601
207.5727, 6988.442
208.0549, 6987.511
208.5370, 6995.404
209.0191, 7024.417
209.5012, 7069.144
209.9833, 7103.115
210.4654, 7112.971
210.9476, 7119.963
211.4297, 7142.029
211.9118, 7179.757
212.3939, 7226.140
212.8760, 7285.540
213.3581, 7350.104
213.8403, 7396.514
214.3224, 7400.453
214.8045, 7393.194
215.2866, 7418.051
215.7687, 7481.992
216.2508, 7550.452
216.7330, 7599.523
217.2151, 7635.079
217.6972, 7664.840
218.1793, 7698.328
218.6614, 7726.329
219.1435, 7725.373
219.6257, 7681.933
220.1078, 7640.970
220.5899, 7640.386
221.0720, 7663.945
221.5541, 7678.524
222.0362, 7666.042
222.5184, 7632.660
223.0005, 7595.802
223.4826, 7551.590
223.9647, 7510.888
224.4468, 7480.492
224.9289, 7457.816
225.4111, 7436.961
225.8932, 7417.345
226.3753, 7397.728
226.8574, 7371.271
227.3395, 7338.918
227.8216, 7296.942
228.3038, 7235.460
228.7859, 7162.848
229.2680, 7099.959
229.7501, 7071.034
230.2322, 7072.986
230.7143, 7049.156
231.1965, 6963.179
231.6786, 6889.622
232.1607, 6876.987
232.6428, 6907.187
233.1249, 6925.693
233.6070, 6876.528
234.0892, 6756.430
234.5713, 6673.383
235.0534, 6658.802
235.5355, 6656.365
236.0176, 6647.675
236.4998, 6632.784
236.9819, 6619.238
237.4640, 6616.254
237.9461, 6626.190
238.4282, 6624.509
238.9103, 6590.761
239.3925, 6562.320
239.8746, 6553.307
240.3567, 6562.956
240.8388, 6582.776
241.3209, 6605.214
241.8030, 6629.901
242.2852, 6659.960
242.7673, 6700.670
243.2494, 6742.142
243.7315, 6776.769
244.2136, 6806.742
244.6957, 6841.428
245.1779, 6891.170
245.6600, 6958.917
246.1421, 7026.958
246.6242, 7092.564
247.1063, 7160.484
247.5884, 7230.082
248.0706, 7303.142
248.5527, 7384.503
249.0348, 7480.379
249.5169, 7594.506
249.9990, 7707.898
250.4811, 7814.216
250.9633, 7924.538
251.4454, 8047.729
251.9275, 8181.598
252.4096, 8316.841
252.8917, 8439.749
253.3738, 8539.715
253.8560, 8672.822
254.3381, 8856.277
254.8202, 9051.902
255.3023, 9239.476
255.7844, 9419.345
256.2665, 9608.190
256.7487, 9826.927
257.2308, 10091.58
257.7129, 10321.48
258.1950, 10503.42
258.6771, 10670.07
259.1592, 10841.10
259.6414, 11015.81
260.1235, 11179.78
260.6056, 11323.22
261.0877, 11457.58
261.5698, 11512.02
262.0519, 11469.69
262.5341, 11382.22
263.0162, 11278.08
263.4983, 11157.03
263.9804, 10999.09
264.4625, 10780.63
264.9446, 10485.61
265.4268, 10206.98
265.9089, 9963.336
266.3910, 9717.696
266.8731, 9441.065
267.3552, 9140.884
267.8373, 8851.657
268.3195, 8608.522
268.8016, 8422.029
269.2837, 8222.444
269.7658, 7988.732
270.2479, 7763.426
270.7300, 7563.022
271.2122, 7389.517
271.6943, 7238.749
272.1764, 7108.468
272.6585, 7000.433
273.1406, 6899.213
273.6227, 6796.947
274.1049, 6705.837
274.5870, 6639.155
275.0691, 6591.130
275.5512, 6540.239
276.0333, 6467.159
276.5154, 6368.109
276.9976, 6293.420
277.4797, 6248.233
277.9618, 6215.864
278.4439, 6195.466
278.9260, 6182.782
279.4081, 6167.562
279.8903, 6140.176
280.3724, 6099.982
280.8545, 6081.931
281.3366, 6090.119
281.8187, 6111.231
282.3008, 6149.559
282.7830, 6197.790
283.2651, 6240.161
283.7472, 6265.154
284.2293, 6273.612
284.7114, 6284.427
285.1935, 6284.153
285.6757, 6299.369
286.1578, 6351.543
286.6399, 6425.834
287.1220, 6487.988
287.6041, 6514.394
288.0862, 6511.908
288.5684, 6540.591
289.0505, 6631.948
289.5326, 6716.711
290.0147, 6765.104
290.4968, 6796.844
290.9789, 6845.617
291.4611, 6929.964
291.9432, 7045.617
292.4253, 7172.437
292.9074, 7310.853
293.3895, 7459.549
293.8716, 7620.405
294.3538, 7791.137
294.8359, 7978.812
295.3180, 8190.300
295.8001, 8402.694
296.2823, 8542.224
296.7644, 8614.615
297.2465, 8598.327
297.7286, 8457.334
298.2107, 8238.158
298.6928, 7982.140
299.1750, 7705.668
299.6571, 7424.091
300.1392, 7169.857
300.6213, 6948.533
301.1034, 6752.127
301.5855, 6588.970
302.0677, 6446.402
302.5498, 6314.323
303.0319, 6189.635
303.5140, 6073.065
303.9961, 5967.825
304.4782, 5871.846
304.9604, 5793.499
305.4425, 5737.184
305.9246, 5693.952
306.4067, 5658.912
306.8888, 5630.271
307.3709, 5606.483
307.8531, 5586.687
308.3352, 5577.017
308.8173, 5555.841
309.2994, 5514.036
309.7815, 5469.667
310.2636, 5431.815
310.7458, 5402.778
311.2279, 5381.645
311.7100, 5368.035
312.1921, 5363.761
312.6742, 5360.450
313.1563, 5360.925
313.6385, 5359.724
314.1206, 5349.635
314.6027, 5334.020
315.0848, 5325.075
315.5669, 5337.169
316.0490, 5373.906
316.5312, 5390.198
317.0133, 5367.000
317.4954, 5341.871
317.9775, 5323.174
318.4596, 5312.370
318.9417, 5310.168
319.4239, 5318.848
319.9060, 5337.278
320.3881, 5346.863
320.8702, 5336.100
321.3523, 5328.558
321.8344, 5329.529
322.3166, 5337.244
322.7987, 5349.329
323.2808, 5365.176
323.7629, 5382.964
324.2450, 5395.311
324.7271, 5401.685
325.2093, 5402.431
325.6914, 5392.408
326.1735, 5379.405
326.6556, 5371.301
327.1377, 5371.346
327.6198, 5379.154
328.1020, 5395.041
328.5841, 5422.290
329.0662, 5450.549
329.5483, 5483.837
330.0304, 5513.915
330.5125, 5531.195
330.9947, 5532.812
331.4768, 5529.495
331.9589, 5537.424
332.4410, 5559.972
332.9231, 5579.267
333.4052, 5583.741
333.8874, 5589.716
334.3695, 5613.438
334.8516, 5655.252
335.3337, 5691.303
335.8158, 5688.435
336.2979, 5644.775
336.7801, 5624.873
337.2622, 5655.531
337.7443, 5693.699
338.2264, 5711.860
338.7085, 5712.006
339.1906, 5712.857
339.6728, 5727.753
340.1549, 5754.680
340.6370, 5777.678
341.1191, 5775.527
341.6012, 5804.908
342.0833, 5936.467
342.5655, 6128.916
343.0476, 6270.487
343.5297, 6278.441
344.0118, 6206.722
344.4939, 6167.079
344.9760, 6163.556
345.4582, 6179.303
345.9403, 6216.147
346.4224, 6264.076
346.9045, 6307.088
347.3866, 6336.482
347.8687, 6363.695
348.3509, 6403.904
348.8330, 6457.542
349.3151, 6507.014
349.7972, 6537.802
350.2793, 6561.757
350.7614, 6601.858
351.2436, 6664.525
351.7257, 6734.045
352.2078, 6804.945
352.6899, 6875.500
353.1720, 6935.318
353.6541, 6976.911
354.1363, 7010.627
354.6184, 7055.219
355.1005, 7111.384
355.5826, 7172.387
356.0647, 7243.788
356.5468, 7316.801
357.0290, 7375.565
357.5111, 7415.724
357.9932, 7444.225
358.4753, 7471.840
358.9574, 7501.858
359.4395, 7512.978
359.9217, 7505.228
360.4038, 7476.216
360.8859, 7414.688
361.3680, 7321.872
361.8501, 7226.689
362.3322, 7158.353
362.8144, 7120.725
363.2965, 7061.463
363.7786, 6953.626
364.2607, 6850.776
364.7428, 6783.672
365.2249, 6747.338
365.7071, 6719.758
366.1892, 6686.020
366.6713, 6648.257
367.1534, 6626.362
367.6355, 6630.012
368.1176, 6637.108
368.5998, 6641.783
369.0819, 6647.344
369.5640, 6659.182
370.0461, 6679.671
370.5282, 6706.877
371.0103, 6736.164
371.4925, 6772.961
371.9746, 6802.994
372.4567, 6825.021
372.9388, 6840.805
373.4209, 6849.877
373.9030, 6852.851
374.3852, 6853.274
374.8673, 6854.902
375.3494, 6855.771
375.8315, 6864.067
376.3136, 6892.447
376.7957, 6917.146
377.2779, 6925.798
377.7600, 6919.400
378.2421, 6906.813
378.7242, 6897.313
379.2064, 6890.144
379.6885, 6866.573
380.1706, 6810.456
380.6527, 6758.514
381.1348, 6727.183
381.6169, 6708.905
382.0991, 6691.401
382.5812, 6671.341
383.0633, 6645.327
383.5454, 6600.792
384.0275, 6527.699
384.5096, 6466.704
384.9918, 6448.042
385.4739, 6443.370
385.9560, 6425.670
386.4381, 6387.763
386.9202, 6340.587
387.4023, 6289.254
387.8845, 6234.693
388.3666, 6192.763
388.8487, 6176.786
389.3308, 6165.505
389.8129, 6132.925
390.2950, 6077.836
390.7772, 6022.236
391.2593, 5971.475
391.7414, 5928.156
392.2235, 5900.368
392.7056, 5892.131
393.1877, 5887.154
393.6699, 5868.447
394.1520, 5837.223
394.6341, 5809.510
395.1162, 5789.239
395.5983, 5771.859
396.0804, 5752.477
396.5626, 5731.679
397.0447, 5714.517
397.5268, 5704.817
398.0089, 5701.572
398.4910, 5697.601
398.9731, 5689.455
399.4553, 5684.546
399.9374, 5689.314
400.4195, 5698.087
400.9016, 5701.141
401.3837, 5694.411
401.8658, 5681.261
402.3480, 5668.219
402.8301, 5646.140
403.3122, 5639.460
403.7943, 5656.723
404.2764, 5683.098
404.7585, 5709.819
405.2407, 5734.119
405.7228, 5754.522
406.2049, 5767.289
406.6870, 5769.316
407.1691, 5783.865
407.6512, 5815.772
408.1334, 5855.580
408.6155, 5904.875
409.0976, 5959.545
409.5797, 6011.416
410.0618, 6054.407
410.5439, 6091.672
411.0261, 6134.601
411.5082, 6182.591
411.9903, 6237.580
412.4724, 6302.854
412.9545, 6372.999
413.4366, 6440.666
413.9188, 6502.843
414.4009, 6568.670
414.8830, 6653.489
415.3651, 6758.125
415.8472, 6854.201
416.3293, 6929.985
416.8115, 7000.004
417.2936, 7084.384
417.7757, 7181.598
418.2578, 7257.930
418.7399, 7297.142
419.2220, 7302.078
419.7042, 7275.168
420.1863, 7214.356
420.6684, 7133.431
421.1505, 7042.164
421.6326, 6939.168
422.1147, 6817.081
422.5969, 6656.147
423.0790, 6492.737
423.5611, 6338.941
424.0432, 6200.647
424.5253, 6102.032
425.0074, 6062.780
425.4896, 6060.775
425.9717, 6029.187
426.4538, 5938.447
426.9359, 5868.487
427.4180, 5845.554
427.9001, 5844.520
428.3823, 5838.024
428.8644, 5819.199
429.3465, 5795.549
429.8286, 5775.394
430.3107, 5755.500
430.7928, 5752.092
431.2750, 5770.676
431.7571, 5796.999
432.2392, 5825.973
432.7213, 5856.874
433.2034, 5891.662
433.6855, 5933.008
434.1677, 5977.806
434.6498, 6008.086
435.1319, 6001.490
435.6140, 6015.670
436.0961, 6077.778
436.5782, 6156.683
437.0604, 6218.565
437.5425, 6252.419
438.0246, 6279.662
438.5067, 6332.112
438.9888, 6412.405
439.4709, 6478.202
439.9531, 6515.373
440.4352, 6543.019
440.9173, 6570.573
441.3994, 6599.664
441.8815, 6639.703
442.3636, 6698.168
442.8458, 6770.172
443.3279, 6847.327
443.8100, 6928.737
444.2921, 7016.233
444.7742, 7106.801
445.2563, 7205.642
445.7385, 7323.258
446.2206, 7457.126
446.7027, 7613.249
447.1848, 7802.680
447.6669, 8016.273
448.1490, 8231.528
448.6312, 8437.934
449.1133, 8647.780
449.5954, 8886.354
450.0775, 9181.882
450.5596, 9444.521
451.0417, 9656.600
451.5239, 9844.009
452.0060, 10031.56
452.4881, 10217.28
452.9702, 10378.95
453.4523, 10495.11
453.9344, 10565.49
454.4166, 10636.30
454.8987, 10729.25
455.3808, 10798.31
455.8629, 10826.31
456.3450, 10826.85
456.8271, 10819.27
457.3093, 10811.83
457.7914, 10797.01
458.2735, 10763.55
458.7556, 10712.80
459.2377, 10636.91
459.7198, 10521.73
460.2020, 10389.27
460.6841, 10247.96
461.1662, 10099.85
461.6483, 9949.705
462.1305, 9805.758
462.6126, 9661.872
463.0947, 9498.804
463.5768, 9310.624
464.0589, 9118.580
464.5410, 8933.307
465.0232, 8753.687
465.5053, 8577.160
465.9874, 8400.975
466.4695, 8230.482
466.9516, 8070.213
467.4337, 7918.575
467.9159, 7775.104
468.3980, 7640.443
468.8801, 7508.193
469.3622, 7366.662
469.8443, 7203.624
470.3264, 7062.439
470.8086, 6958.000
471.2907, 6866.145
471.7728, 6769.728
472.2549, 6668.540
472.7370, 6572.170
473.2191, 6488.875
473.7013, 6417.560
474.1834, 6342.824
474.6655, 6256.159
475.1476, 6177.085
475.6297, 6109.648
476.1118, 6051.135
476.5940, 5998.145
477.0761, 5949.662
477.5582, 5905.526
478.0403, 5868.200
478.5224, 5839.456
479.0045, 5800.571
479.4867, 5744.574
479.9688, 5682.424
480.4509, 5617.466
480.9330, 5552.055
481.4151, 5493.762
481.8972, 5448.698
482.3794, 5411.760
482.8615, 5376.985
483.3436, 5344.558
483.8257, 5308.351
484.3078, 5263.765
484.7899, 5214.279
485.2721, 5168.441
485.7542, 5124.963
486.2363, 5087.737
486.7184, 5060.822
487.2005, 5039.898
487.6826, 5019.206
488.1648, 4997.574
488.6469, 4977.118
489.1290, 4960.231
489.6111, 4947.388
490.0932, 4935.469
490.5753, 4926.690
491.0575, 4916.410
491.5396, 4901.402
492.0217, 4884.020
492.5038, 4867.964
492.9859, 4855.177
493.4680, 4844.942
493.9502, 4836.658
494.4323, 4832.648
494.9144, 4823.875
495.3965, 4806.807
495.8786, 4786.295
496.3607, 4761.843
496.8429, 4735.198
497.3250, 4714.004
497.8071, 4702.939
498.2892, 4701.422
498.7713, 4712.114
499.2534, 4739.400
499.7356, 4758.384
500.2177, 4751.530
500.6998, 4726.783
501.1819, 4702.870
501.6640, 4677.545
502.1461, 4658.442
502.6283, 4651.044
503.1104, 4652.000
503.5925, 4656.151
504.0746, 4662.243
504.5567, 4668.040
505.0388, 4671.109
505.5210, 4671.403
506.0031, 4668.335
506.4852, 4660.479
506.9673, 4651.114
507.4494, 4636.884
507.9315, 4622.799
508.4137, 4619.458
508.8958, 4633.077
509.3779, 4656.321
509.8600, 4671.545
510.3421, 4676.664
510.8242, 4678.915
511.3064, 4673.149
511.7885, 4669.537
512.2706, 4675.400
512.7527, 4690.332
513.2349, 4707.663
513.7170, 4721.842
514.1991, 4735.088
514.6812, 4754.883
515.1633, 4782.716
515.6454, 4808.351
516.1276, 4818.218
516.6097, 4825.349
517.0918, 4859.328
517.5739, 4934.685
518.0560, 5010.687
518.5381, 5070.146
519.0203, 5118.981
519.5024, 5164.614
519.9845, 5208.987
520.4666, 5254.990
520.9487, 5303.097
521.4308, 5350.526
521.9130, 5427.707
522.3951, 5549.444
522.8772, 5680.354
523.3593, 5812.252
523.8414, 5944.494
524.3235, 6077.919
524.8057, 6212.282
525.2878, 6347.960
525.7699, 6476.619
526.2520, 6588.094
526.7341, 6743.752
527.2162, 6980.499
527.6984, 7235.132
528.1805, 7467.353
528.6626, 7683.536
529.1447, 7916.642
529.6268, 8179.264
530.1089, 8468.318
530.5911, 8786.136
531.0732, 9131.711
531.5553, 9481.806
532.0374, 9833.683
532.5195, 10179.03
533.0016, 10509.22
533.4838, 10845.56
533.9659, 11110.63
534.4480, 11292.80
534.9301, 11396.74
535.4122, 11425.95
535.8943, 11382.25
536.3765, 11267.03
536.8586, 11075.37
537.3407, 10814.01
537.8228, 10535.92
538.3049, 10246.77
538.7870, 9928.703
539.2692, 9555.561
539.7513, 9166.439
540.2334, 8792.421
540.7155, 8441.875
541.1976, 8117.621
541.6797, 7827.945
542.1619, 7568.598
542.6440, 7314.237
543.1261, 7054.231
543.6082, 6821.878
544.0903, 6653.115
544.5724, 6525.555
545.0546, 6396.955
545.5367, 6255.354
546.0188, 6121.034
546.5009, 6008.194
546.9830, 5909.890
547.4651, 5812.020
547.9473, 5710.119
548.4294, 5615.429
548.9115, 5540.818
549.3936, 5489.011
549.8757, 5443.661
550.3578, 5409.138
550.8400, 5375.224
551.3221, 5340.597
551.8042, 5303.410
552.2863, 5257.496
552.7684, 5200.007
553.2505, 5144.624
553.7327, 5117.898
554.2148, 5125.100
554.6969, 5121.625
555.1790, 5092.745
555.6611, 5063.353
556.1432, 5052.510
556.6254, 5054.802
557.1075, 5051.802
557.5896, 5031.155
558.0717, 5007.068
558.5538, 4996.731
559.0359, 4996.929
559.5181, 4989.476
560.0002, 4965.141
560.4823, 4937.715
560.9644, 4931.266
561.4465, 4957.671
561.9286, 4972.396
562.4108, 4965.864
562.8929, 4955.723
563.3750, 4951.706
563.8571, 4953.067
564.3392, 4955.702
564.8214, 4957.428
565.3035, 4958.143
565.7856, 4956.970
566.2677, 4952.248
566.7498, 4950.683
567.2319, 4957.387
567.7141, 4964.322
568.1962, 4965.719
568.6783, 4962.356
569.1604, 4959.905
569.6425, 4964.189
570.1246, 4969.559
570.6068, 4965.417
571.0889, 4952.603
571.5710, 4945.077
572.0531, 4950.842
572.5352, 4962.620
573.0173, 4965.481
573.4995, 4956.204
573.9816, 4947.363
574.4637, 4935.888
574.9458, 4928.634
575.4279, 4934.101
575.9100, 4948.969
576.3922, 4962.470
576.8743, 4968.001
577.3564, 4966.125
577.8385, 4954.719
578.3206, 4919.869
578.8027, 4909.796
579.2849, 4965.820
579.7670, 5024.974
580.2491, 5043.850
580.7312, 5023.736
581.2133, 4998.385
581.6954, 4980.832
582.1776, 4972.036
582.6597, 4979.620
583.1418, 5002.306
583.6239, 5014.824
584.1060, 5002.476
584.5881, 4977.080
585.0703, 4964.441
585.5524, 4969.795
586.0345, 4974.453
586.5166, 4975.500
586.9987, 4976.469
587.4808, 4982.272
587.9630, 4990.666
588.4451, 4993.407
588.9272, 4984.205
589.4093, 4968.752
589.8914, 4967.042
590.3735, 4989.200
590.8557, 4995.355
591.3378, 4959.030
591.8199, 4919.031
592.3020, 4901.857
592.7841, 4906.396
593.2662, 4915.104
593.7484, 4928.494
594.2305, 4936.283
594.7126, 4920.571
595.1947, 4884.407
595.6768, 4848.760
596.1589, 4820.102
596.6411, 4802.945
597.1232, 4808.793
597.6053, 4858.103
598.0874, 4882.973
598.5695, 4845.381
599.0516, 4856.872
599.5338, 4858.060
600.0159, 4849.506
600.4980, 4802.020
600.9801, 4804.807
601.4622, 4787.446
601.9443, 4769.261
602.4265, 4779.120
602.9086, 4737.295
603.3907, 4746.715
603.8728, 4735.678
604.3549, 4734.002
604.8370, 4712.056
605.3192, 4696.367
605.8013, 4700.961
606.2834, 4694.325
606.7655, 4677.184
607.2476, 4689.002
607.7297, 4697.002
608.2119, 4697.854
608.6940, 4689.139
609.1761, 4665.057
609.6582, 4617.640
610.1403, 4588.000
610.6224, 4583.586
611.1046, 4587.284
611.5867, 4603.588
612.0688, 4621.011
612.5509, 4622.029
613.0330, 4599.675
613.5151, 4566.169
613.9973, 4532.704
614.4794, 4499.992
614.9615, 4474.820
615.4436, 4458.967
615.9257, 4448.821
616.4078, 4445.496
616.8900, 4446.187
617.3721, 4439.284
617.8542, 4414.376
618.3363, 4393.681
618.8184, 4391.333
619.3005, 4395.262
619.7827, 4387.763
620.2648, 4366.474
620.7469, 4343.853
621.2290, 4331.864
621.7111, 4330.011
622.1932, 4330.792
622.6754, 4342.203
623.1575, 4342.504
623.6396, 4315.829
624.1217, 4282.793
624.6038, 4264.142
625.0859, 4262.809
625.5681, 4260.667
626.0502, 4242.972
626.5323, 4218.514
627.0144, 4202.833
627.4965, 4196.238
627.9786, 4190.562
628.4608, 4181.326
628.9429, 4170.177
629.4250, 4161.466
629.9071, 4156.531
630.3892, 4151.861
630.8713, 4153.218
631.3535, 4149.775
631.8356, 4130.126
632.3177, 4099.578
632.7998, 4072.747
633.2819, 4057.849
633.7640, 4051.352
634.2462, 4047.923
634.7283, 4047.767
635.2104, 4046.779
635.6925, 4043.751
636.1746, 4040.285
636.6567, 4040.719
637.1389, 4043.348
637.6210, 4037.033
638.1031, 4009.101
638.5852, 3983.219
639.0673, 3976.495
639.5494, 3979.455
640.0316, 3974.444
640.5137, 3956.771
640.9958, 3936.278
641.4779, 3924.260
641.9600, 3920.909
642.4421, 3921.137
642.9243, 3930.159
643.4064, 3934.728
643.8885, 3929.658
644.3706, 3918.953
644.8527, 3904.662
645.3348, 3886.498
645.8170, 3874.223
646.2991, 3883.121
646.7812, 3898.244
647.2633, 3891.449
647.7454, 3862.465
648.2275, 3831.360
648.7097, 3807.036
649.1918, 3792.931
649.6739, 3799.804
650.1560, 3852.929
650.6381, 3885.379
651.1202, 3890.854
651.6024, 3882.287
652.0845, 3860.282
652.5666, 3830.941
653.0487, 3804.228
653.5308, 3783.127
654.0129, 3773.220
654.4951, 3792.471
654.9772, 3837.252
655.4593, 3858.712
655.9414, 3840.417
656.4235, 3814.701
656.9056, 3811.248
657.3878, 3829.545
657.8699, 3843.295
658.3520, 3855.279
658.8341, 3859.437
659.3162, 3847.553
659.7983, 3829.846
660.2805, 3816.770
660.7626, 3811.142
661.2447, 3812.933
661.7268, 3826.268
662.2089, 3846.822
662.6910, 3845.644
663.1732, 3814.529
663.6553, 3787.483
664.1374, 3774.878
664.6195, 3773.250
665.1016, 3782.624
665.5837, 3804.437
666.0659, 3813.244
666.5480, 3788.266
667.0302, 3758.218
667.5123, 3747.638
667.9944, 3752.002
668.4765, 3755.804
668.9586, 3752.387
669.4407, 3747.332
669.9229, 3752.559
670.4050, 3773.862
670.8871, 3775.005
671.3692, 3736.512
671.8513, 3702.950
672.3334, 3695.666
672.8156, 3703.143
673.2977, 3709.889
673.7798, 3713.565
674.2619, 3711.861
674.7440, 3696.234
675.2261, 3677.200
675.7083, 3672.112
676.1904, 3681.985
676.6725, 3698.982
677.1546, 3719.486
677.6367, 3740.616
678.1188, 3752.993
678.6010, 3754.378
679.0831, 3750.867
679.5652, 3737.926
680.0473, 3725.022
680.5294, 3717.649
681.0115, 3714.564
681.4937, 3712.019
681.9758, 3709.402
682.4579, 3704.714
682.9400, 3687.988
683.4221, 3666.864
683.9042, 3673.613
684.3864, 3717.053
684.8685, 3756.455
685.3506, 3752.710
685.8327, 3710.814
686.3148, 3691.900
686.7969, 3726.698
687.2791, 3744.677
687.7612, 3719.708
688.2433, 3688.996
688.7254, 3683.700
689.2075, 3704.042
689.6896, 3730.718
690.1718, 3756.591
690.6539, 3776.246
691.1360, 3774.233
691.6181, 3753.138
692.1002, 3744.364
692.5823, 3759.651
693.0645, 3781.021
693.5466, 3787.536
694.0287, 3777.332
694.5108, 3774.792
694.9929, 3787.052
695.4750, 3797.676
695.9572, 3801.524
696.4393, 3801.498
696.9214, 3797.487
697.4035, 3791.352
697.8856, 3792.840
698.3677, 3816.301
698.8499, 3852.121
699.3320, 3869.300
699.8141, 3866.650
700.2962, 3873.914
700.7783, 3907.665
701.2604, 3946.559
701.7426, 3956.389
702.2247, 3927.515
702.7068, 3916.882
703.1889, 3941.904
703.6710, 3966.983
704.1531, 3979.432
704.6353, 3981.380
705.1174, 3972.544
705.5995, 3954.548
706.0816, 3941.726
706.5637, 3954.525
707.0458, 3985.862
707.5280, 4004.260
708.0101, 4007.969
708.4922, 4008.788
708.9743, 4011.665
709.4564, 4014.675
709.9385, 4014.712
710.4207, 4012.128
710.9028, 4005.258
711.3849, 3990.189
711.8670, 3974.542
712.3491, 3955.914
712.8312, 3941.471
713.3134, 3945.704
713.7955, 3973.116
714.2776, 4004.277
714.7597, 4020.344
715.2418, 4021.511
715.7239, 4005.329
716.2061, 3968.655
716.6882, 3933.674
717.1703, 3910.241
717.6524, 3896.517
718.1345, 3889.978
718.6166, 3893.061
719.0988, 3895.092
719.5809, 3899.886
720.0630, 3898.885
720.5451, 3877.366
721.0272, 3849.074
721.5093, 3842.065
721.9915, 3866.967
722.4736, 3896.322
722.9557, 3893.059
723.4378, 3864.647
723.9199, 3851.920
724.4020, 3858.718
724.8842, 3869.899
725.3663, 3881.511
725.8484, 3889.013
726.3305, 3880.086
726.8126, 3843.107
727.2947, 3820.072
727.7769, 3826.318
728.2590, 3833.770
728.7411, 3826.977
729.2232, 3810.146
729.7053, 3789.987
730.1874, 3768.808
730.6696, 3755.209
731.1517, 3767.653
731.6338, 3796.231
732.1159, 3798.194
732.5980, 3768.392
733.0801, 3744.433
733.5623, 3747.760
734.0444, 3767.037
734.5265, 3778.324
735.0086, 3779.690
735.4907, 3776.600
735.9728, 3764.024
736.4550, 3752.299
736.9371, 3742.210
737.4192, 3737.587
737.9013, 3747.272
738.3834, 3774.625
738.8655, 3800.149
739.3477, 3799.482
739.8298, 3784.087
740.3119, 3785.884
740.7940, 3806.158
741.2761, 3822.908
741.7582, 3824.011
742.2404, 3817.983
742.7225, 3822.525
743.2046, 3844.869
743.6867, 3856.713
744.1688, 3842.818
744.6509, 3836.088
745.1331, 3852.652
745.6152, 3882.079
746.0973, 3910.234
746.5794, 3933.594
747.0615, 3954.736
747.5436, 3974.657
748.0258, 3993.956
748.5079, 4013.138
748.9900, 4032.505
749.4721, 4053.455
749.9542, 4076.443
750.4363, 4102.909
750.9185, 4137.063
751.4006, 4182.701
751.8827, 4213.584
752.3648, 4206.688
752.8469, 4215.452
753.3290, 4267.938
753.8112, 4337.171
754.2933, 4392.183
754.7754, 4428.174
755.2575, 4464.852
755.7396, 4515.948
756.2217, 4568.457
756.7039, 4601.826
757.1860, 4626.024
757.6681, 4671.172
758.1502, 4747.705
758.6323, 4837.417
759.1144, 4918.666
759.5966, 4991.646
760.0787, 5067.613
760.5608, 5145.018
761.0429, 5228.902
761.5250, 5328.928
762.0071, 5430.674
762.4893, 5513.162
762.9714, 5576.210
763.4535, 5653.625
763.9356, 5767.288
764.4177, 5882.119
764.8998, 5974.300
765.3820, 6055.785
765.8641, 6147.294
766.3462, 6251.926
766.8283, 6354.892
767.3104, 6445.544
767.7925, 6523.044
768.2747, 6583.547
768.7568, 6625.729
769.2389, 6670.068
769.7210, 6729.573
770.2031, 6778.879
770.6852, 6791.167
771.1674, 6766.134
771.6495, 6733.155
772.1316, 6697.092
772.6137, 6647.003
773.0958, 6580.589
773.5779, 6499.058
774.0601, 6405.008
774.5422, 6297.321
775.0243, 6170.260
775.5064, 6017.665
775.9885, 5851.433
776.4706, 5680.754
776.9528, 5509.865
777.4349, 5357.272
777.9170, 5227.150
778.3991, 5096.781
778.8812, 4946.360
779.3633, 4782.063
779.8455, 4635.745
780.3276, 4506.761
780.8097, 4396.375
781.2918, 4316.392
781.7739, 4242.667
782.2560, 4161.412
782.7382, 4077.427
783.2203, 4003.586
783.7024, 3947.850
784.1845, 3889.341
784.6666, 3799.858
785.1487, 3710.033
785.6309, 3668.099
786.1130, 3666.751
786.5951, 3661.343
787.0772, 3628.742
787.5593, 3581.119
788.0414, 3538.534
788.5236, 3501.013
789.0057, 3466.450
789.4878, 3433.299
789.9699, 3406.511
790.4520, 3390.160
790.9341, 3380.583
791.4163, 3372.404
791.8984, 3367.131
792.3805, 3356.185
792.8626, 3328.330
793.3447, 3305.049
793.8268, 3305.615
794.3090, 3315.179
794.7911, 3308.904
795.2732, 3281.847
795.7553, 3253.480
796.2374, 3241.984
796.7195, 3241.209
797.2017, 3237.564
797.6838, 3231.389
798.1659, 3226.773
798.6480, 3225.133
799.1301, 3224.660
799.6122, 3224.609
800.0944, 3224.846
800.5765, 3214.010
801.0586, 3179.427
801.5407, 3153.278
802.0228, 3141.525
802.5049, 3137.986
802.9871, 3143.992
803.4692, 3155.131
803.9513, 3154.489
804.4334, 3121.134
804.9155, 3097.271
805.3976, 3130.770
805.8798, 3180.621
806.3619, 3180.555
806.8440, 3132.154
807.3261, 3090.735
807.8082, 3092.876
808.2903, 3115.863
808.7725, 3107.496
809.2546, 3066.293
809.7367, 3050.750
810.2188, 3077.496
810.7009, 3095.411
811.1830, 3067.792
811.6652, 3014.595
812.1473, 2984.603
812.6294, 2983.149
813.1115, 2989.552
813.5936, 3013.880
814.0757, 3033.907
814.5579, 3038.494
815.0400, 3032.094
815.5221, 3021.297
816.0042, 3007.978
816.4863, 2992.837
816.9684, 2971.531
817.4506, 2951.780
817.9327, 2946.010
818.4148, 2952.298
818.8969, 2965.010
819.3790, 2982.406
819.8611, 2995.150
820.3433, 2992.220
820.8254, 2975.165
821.3075, 2959.661
821.7896, 2944.270
822.2717, 2934.858
822.7538, 2936.946
823.2360, 2940.902
823.7181, 2940.091
824.2002, 2934.511
824.6823, 2923.281
825.1644, 2895.066
825.6465, 2876.402
826.1287, 2882.354
826.6108, 2895.097
827.0929, 2899.513
827.5750, 2896.392
828.0571, 2893.518
828.5392, 2894.673
829.0214, 2896.593
829.5035, 2894.002
829.9856, 2889.287
830.4678, 2891.053
830.9499, 2899.423
831.4320, 2904.539
831.9141, 2901.446
832.3962, 2893.021
832.8784, 2883.013
833.3605, 2869.557
833.8426, 2866.938
834.3247, 2884.821
834.8068, 2897.949
835.2889, 2893.967
835.7711, 2883.804
836.2532, 2880.442
836.7353, 2883.843
837.2174, 2875.596
837.6995, 2831.726
838.1816, 2797.604
838.6638, 2802.595
839.1459, 2826.055
839.6280, 2846.767
840.1101, 2859.518
840.5922, 2862.757
841.0743, 2852.480
841.5565, 2839.201
842.0386, 2841.631
842.5207, 2855.962
843.0028, 2864.048
843.4849, 2863.245
843.9670, 2862.627
844.4492, 2869.680
844.9313, 2877.257
845.4134, 2864.737
845.8955, 2820.179
846.3776, 2791.857
846.8597, 2783.206
847.3419, 2786.373
847.8240, 2809.069
848.3061, 2835.868
848.7882, 2845.270
849.2703, 2834.087
849.7524, 2824.408
850.2346, 2826.517
850.7167, 2826.974
851.1988, 2807.360
851.6809, 2786.444
852.1630, 2799.044
852.6451, 2844.618
853.1273, 2880.677
853.6094, 2871.579
854.0915, 2841.787
854.5736, 2831.867
855.0557, 2836.607
855.5378, 2831.063
856.0200, 2810.885
856.5021, 2793.938
856.9842, 2793.507
857.4663, 2805.370
857.9484, 2819.245
858.4305, 2840.334
858.9127, 2843.463
859.3948, 2812.424
859.8769, 2786.631
860.3590, 2792.044
860.8411, 2812.132
861.3232, 2820.526
861.8054, 2813.724
862.2875, 2809.626
862.7696, 2817.463
863.2517, 2822.073
863.7338, 2810.096
864.2159, 2793.356
864.6981, 2788.703
865.1802, 2797.698
865.6623, 2807.306
866.1444, 2809.972
866.6265, 2807.697
867.1086, 2800.381
867.5908, 2790.563
868.0729, 2785.907
868.5550, 2787.216
869.0371, 2786.960
869.5192, 2778.939
870.0013, 2768.938
870.4835, 2774.872
870.9656, 2800.236
871.4477, 2808.017
871.9298, 2788.845
872.4119, 2770.404
872.8940, 2767.644
873.3762, 2773.429
873.8583, 2774.793
874.3404, 2770.359
874.8225, 2766.344
875.3046, 2760.798
875.7867, 2758.043
876.2689, 2763.201
876.7510, 2769.313
877.2331, 2768.727
877.7152, 2761.336
878.1973, 2753.018
878.6794, 2746.008
879.1616, 2739.446
879.6437, 2730.577
880.1258, 2722.810
880.6079, 2722.361
881.0900, 2728.575
881.5721, 2735.335
882.0543, 2739.084
882.5364, 2742.290
883.0185, 2753.179
883.5006, 2768.164
883.9827, 2761.859
884.4648, 2731.688
884.9470, 2707.424
885.4291, 2701.948
885.9112, 2710.008
886.3933, 2726.770
886.8754, 2753.989
887.3575, 2763.937
887.8397, 2745.001
888.3218, 2730.028
888.8039, 2729.808
889.2860, 2733.465
889.7681, 2730.253
890.2502, 2722.665
890.7324, 2723.415
891.2145, 2747.098
891.6966, 2759.726
892.1787, 2741.009
892.6608, 2717.235
893.1429, 2708.599
893.6251, 2711.708
894.1072, 2715.476
894.5893, 2716.098
895.0714, 2716.452
895.5535, 2719.901
896.0356, 2723.846
896.5178, 2723.281
896.9999, 2719.920
897.4820, 2721.365
897.9641, 2729.134
898.4462, 2732.654
898.9283, 2719.017
899.4105, 2696.070
899.8926, 2692.525
900.3747, 2709.127
900.8568, 2726.075
901.3389, 2741.582
901.8210, 2750.112
902.3032, 2746.764
902.7853, 2734.621
903.2674, 2722.240
903.7495, 2709.592
904.2316, 2696.686
904.7137, 2677.684
905.1959, 2665.821
905.6780, 2669.376
906.1601, 2680.095
906.6422, 2690.891
907.1243, 2701.178
907.6064, 2703.104
908.0886, 2685.695
908.5707, 2670.604
909.0528, 2670.592
909.5349, 2675.625
910.0170, 2673.219
910.4991, 2665.204
910.9813, 2664.365
911.4634, 2679.444
911.9455, 2693.929
912.4276, 2687.409
912.9097, 2671.871
913.3918, 2667.022
913.8740, 2672.916
914.3561, 2684.481
914.8382, 2699.434
915.3203, 2710.376
915.8024, 2705.425
916.2845, 2688.998
916.7667, 2686.914
917.2488, 2699.839
917.7309, 2702.553
918.2130, 2686.924
918.6951, 2668.199
919.1772, 2658.523
919.6594, 2656.844
920.1415, 2659.278
920.6236, 2670.673
921.1057, 2673.848
921.5878, 2660.827
922.0699, 2649.362
922.5521, 2648.594
923.0342, 2654.289
923.5163, 2662.051
923.9984, 2672.862
924.4805, 2677.739
924.9626, 2667.834
925.4448, 2642.809
925.9269, 2666.291
926.4090, 2679.474
926.8911, 2682.912
927.3732, 2647.417
927.8553, 2662.195
928.3375, 2656.826
928.8196, 2650.632
929.3017, 2672.486
929.7838, 2642.654
930.2659, 2664.063
930.7480, 2665.018
931.2302, 2675.335
931.7123, 2665.379
932.1944, 2661.685
932.6765, 2678.269
933.1586, 2683.625
933.6407, 2671.336
934.1229, 2682.248
934.6050, 2651.707
935.0871, 2657.541
935.5692, 2679.070
936.0513, 2667.800
936.5334, 2679.082
937.0156, 2681.775
937.4977, 2645.435
937.9798, 2676.978
938.4619, 2679.163
938.9440, 2659.945
939.4261, 2678.733
939.9083, 2699.809
940.3904, 2692.219
940.8725, 2648.752
941.3546, 2631.591
941.8367, 2662.046
942.3188, 2687.718
942.8010, 2696.453
943.2831, 2699.284
943.7652, 2702.592
944.2473, 2706.722
944.7294, 2712.511
945.2115, 2724.405
945.6937, 2728.830
946.1758, 2716.987
946.6579, 2701.979
947.1400, 2687.895
947.6221, 2678.126
948.1042, 2677.991
948.5864, 2688.067
949.0685, 2700.474
949.5506, 2713.506
950.0327, 2724.171
950.5148, 2729.373
950.9969, 2730.688
951.4791, 2729.426
951.9612, 2726.626
952.4433, 2725.326
952.9254, 2727.618
953.4075, 2728.558
953.8896, 2717.897
954.3718, 2702.019
954.8539, 2699.073
955.3360, 2707.943
955.8181, 2716.873
956.3002, 2721.840
956.7823, 2724.959
957.2645, 2728.016
957.7466, 2731.460
958.2287, 2739.465
958.7108, 2752.763
959.1929, 2753.510
959.6750, 2736.127
960.1572, 2720.507
960.6393, 2718.963
961.1214, 2726.408
961.6035, 2732.450
962.0856, 2736.984
962.5677, 2741.418
963.0499, 2749.091
963.5320, 2749.616
964.0141, 2733.373
964.4962, 2715.761
964.9783, 2714.744
965.4604, 2727.590
965.9426, 2730.426
966.4247, 2715.374
966.9068, 2702.214
967.3889, 2681.690
967.8710, 2674.806
968.3531, 2711.229
968.8353, 2759.920
969.3174, 2770.318
969.7995, 2733.940
970.2816, 2697.986
970.7637, 2669.092
971.2458, 2654.154
971.7280, 2667.297
972.2101, 2688.683
972.6922, 2695.969
973.1743, 2691.336
973.6564, 2691.314
974.1385, 2703.950
974.6207, 2716.494
975.1028, 2716.276
975.5849, 2713.136
976.0670, 2721.089
976.5491, 2734.898
977.0313, 2738.668
977.5134, 2730.388
977.9955, 2728.167
978.4776, 2749.621
978.9597, 2779.466
979.4418, 2796.393
979.9240, 2801.542
980.4061, 2792.766
980.8882, 2773.327
981.3703, 2764.542
981.8524, 2777.271
982.3345, 2796.196
982.8167, 2796.348
983.2988, 2783.737
983.7809, 2794.199
984.2630, 2827.270
984.7451, 2859.665
985.2272, 2886.410
985.7094, 2904.397
986.1915, 2909.653
986.6736, 2907.540
987.1557, 2914.486
987.6378, 2932.348
988.1199, 2945.911
988.6021, 2954.116
989.0842, 2960.081
989.5663, 2964.786
990.0484, 2968.086
990.5305, 2969.193
991.0126, 2968.323
991.4948, 2970.131
991.9769, 2972.908
992.4590, 2982.373
992.9411, 3006.221
993.4232, 3027.693
993.9053, 3037.450
994.3875, 3038.383
994.8696, 3034.998
995.3517, 3025.943
995.8339, 3019.267
996.3160, 3013.861
996.7981, 3012.751
997.2802, 3014.691
997.7623, 3022.919
998.2444, 3048.278
998.7266, 3082.426
999.2087, 3096.662
999.6908, 3076.614
1000.173, 3060.053
1000.655, 3061.736
1001.137, 3064.781
1001.619, 3056.018
1002.101, 3044.437
1002.583, 3043.219
1003.066, 3053.058
1003.548, 3063.598
1004.030, 3071.829
1004.512, 3077.567
1004.994, 3083.875
1005.476, 3085.154
1005.958, 3072.044
1006.440, 3050.149
1006.923, 3030.121
1007.405, 3015.569
1007.887, 3009.616
1008.369, 3021.452
1008.851, 3036.652
1009.333, 3041.437
1009.815, 3038.688
1010.297, 3028.258
1010.779, 3014.634
1011.262, 3014.926
1011.744, 3039.074
1012.226, 3060.982
1012.708, 3044.335
1013.190, 3010.098
1013.672, 2995.821
1014.154, 2997.750
1014.636, 3001.377
1015.119, 3002.981
1015.601, 3004.965
1016.083, 3009.371
1016.565, 3014.134
1017.047, 3014.313
1017.529, 3011.918
1018.011, 3014.865
1018.493, 3023.065
1018.975, 3032.107
1019.458, 3040.322
1019.940, 3046.024
1020.422, 3046.539
1020.904, 3044.191
1021.386, 3046.604
1021.868, 3053.507
1022.350, 3062.029
1022.832, 3071.993
1023.315, 3077.507
1023.797, 3074.956
1024.279, 3070.179
1024.761, 3071.726
1025.243, 3079.150
1025.725, 3088.825
1026.207, 3102.037
1026.689, 3102.786
1027.171, 3084.562
1027.654, 3069.429
1028.136, 3071.640
1028.618, 3087.710
1029.100, 3113.507
1029.582, 3152.723
1030.064, 3166.668
1030.546, 3145.882
1031.028, 3133.399
1031.510, 3143.496
1031.993, 3159.479
1032.475, 3167.841
1032.957, 3169.933
1033.439, 3169.457
1033.921, 3160.866
1034.403, 3167.267
1034.885, 3197.074
1035.367, 3225.031
1035.849, 3242.498
1036.332, 3253.374
1036.814, 3257.939
1037.296, 3258.205
1037.778, 3276.285
1038.260, 3335.871
1038.742, 3366.582
1039.224, 3349.889
1039.706, 3324.639
1040.189, 3301.910
1040.671, 3284.117
1041.153, 3274.153
1041.635, 3272.017
1042.117, 3277.514
1042.599, 3304.373
1043.081, 3318.573
1043.563, 3307.072
1044.046, 3292.446
1044.528, 3281.801
1045.010, 3278.127
1045.492, 3289.841
1045.974, 3320.827
1046.456, 3339.358
1046.938, 3331.346
1047.420, 3326.450
1047.902, 3336.568
1048.385, 3347.032
1048.867, 3343.252
1049.349, 3332.754
1049.831, 3335.271
1050.313, 3357.513
1050.795, 3371.422
1051.277, 3365.414
1051.759, 3359.396
1052.241, 3358.194
1052.724, 3361.706
1053.206, 3372.030
1053.688, 3386.703
1054.170, 3398.162
1054.652, 3403.268
1055.134, 3410.934
1055.616, 3419.234
1056.098, 3435.404
1056.581, 3475.040
1057.063, 3515.197
1057.545, 3526.057
1058.027, 3513.857
1058.509, 3514.427
1058.991, 3544.523
1059.473, 3568.410
1059.955, 3568.805
1060.438, 3566.670
1060.920, 3571.557
1061.402, 3582.694
1061.884, 3598.215
1062.366, 3618.026
1062.848, 3643.613
1063.330, 3681.325
1063.812, 3713.602
1064.294, 3729.530
1064.776, 3742.075
1065.259, 3758.956
1065.741, 3778.931
1066.223, 3801.262
1066.705, 3824.802
1067.187, 3842.652
1067.669, 3842.621
1068.151, 3851.605
1068.633, 3889.485
1069.116, 3932.686
1069.598, 3963.508
1070.080, 3986.782
1070.562, 4012.811
1071.044, 4043.089
1071.526, 4069.336
1072.008, 4080.920
1072.490, 4097.317
1072.973, 4137.415
1073.455, 4177.154
1073.937, 4190.336
1074.419, 4190.068
1074.901, 4202.964
1075.383, 4234.191
1075.865, 4266.901
1076.347, 4294.675
1076.829, 4320.928
1077.312, 4348.430
1077.794, 4374.423
1078.276, 4392.538
1078.758, 4408.334
1079.240, 4434.602
1079.722, 4474.335
1080.204, 4510.746
1080.686, 4533.457
1081.169, 4554.847
1081.651, 4581.783
1082.133, 4610.213
1082.615, 4643.018
1083.097, 4672.283
1083.579, 4677.858
1084.061, 4653.973
1084.543, 4639.711
1085.026, 4653.228
1085.508, 4679.464
1085.990, 4726.554
1086.472, 4769.250
1086.954, 4777.081
1087.436, 4762.246
1087.918, 4754.666
1088.400, 4761.285
1088.882, 4778.992
1089.365, 4813.147
1089.847, 4849.951
1090.329, 4888.339
1090.811, 4920.817
1091.293, 4933.742
1091.775, 4936.491
1092.257, 4956.387
1092.739, 5003.596
1093.221, 5030.724
1093.704, 4994.900
1094.186, 4966.813
1094.668, 4994.330
1095.150, 5033.251
1095.632, 5039.175
1096.114, 5022.688
1096.596, 5020.914
1097.078, 5045.537
1097.561, 5054.341
1098.043, 5028.135
1098.525, 4991.109
1099.007, 4943.411
1099.489, 4898.236
1099.971, 4868.134
1100.453, 4849.467
1100.935, 4832.599
1101.417, 4817.285
1101.900, 4795.586
1102.382, 4758.173
1102.864, 4723.844
1103.346, 4704.242
1103.828, 4685.764
1104.310, 4653.372
1104.792, 4613.914
1105.274, 4583.559
1105.756, 4563.883
1106.239, 4555.717
1106.721, 4564.026
1107.203, 4577.339
1107.685, 4598.455
1108.167, 4617.355
1108.649, 4620.056
1109.131, 4616.348
1109.613, 4631.028
1110.096, 4670.957
1110.578, 4703.095
1111.060, 4723.695
1111.542, 4737.171
1112.024, 4738.273
1112.506, 4738.586
1112.988, 4753.351
1113.470, 4770.930
1113.953, 4766.562
1114.435, 4738.798
1114.917, 4694.583
1115.399, 4607.804
1115.881, 4544.394
1116.363, 4518.806
1116.845, 4514.577
1117.327, 4529.414
1117.809, 4554.712
1118.292, 4574.510
1118.774, 4588.494
1119.256, 4599.306
1119.738, 4603.715
1120.220, 4611.633
1120.702, 4624.305
1121.184, 4641.649
1121.666, 4666.457
1122.148, 4692.944
1122.631, 4709.703
1123.113, 4716.181
1123.595, 4732.237
1124.077, 4761.187
1124.559, 4788.871
1125.041, 4813.042
1125.523, 4835.333
1126.005, 4853.943
1126.488, 4876.852
1126.970, 4918.392
1127.452, 4976.477
1127.934, 5021.563
1128.416, 5052.071
1128.898, 5078.379
1129.380, 5099.825
1129.862, 5129.428
1130.344, 5175.047
1130.827, 5224.038
1131.309, 5260.089
1131.791, 5285.501
1132.273, 5308.062
1132.755, 5328.006
1133.237, 5368.829
1133.719, 5433.136
1134.201, 5484.456
1134.683, 5507.103
1135.166, 5521.849
1135.648, 5549.065
1136.130, 5588.220
1136.612, 5642.791
1137.094, 5709.158
1137.576, 5768.932
1138.058, 5820.105
1138.540, 5855.060
1139.023, 5872.669
1139.505, 5895.567
1139.987, 5942.688
1140.469, 6008.967
1140.951, 6098.958
1141.433, 6196.940
1141.915, 6261.777
1142.397, 6297.334
1142.880, 6320.231
1143.362, 6338.831
1143.844, 6372.017
1144.326, 6435.381
1144.808, 6507.642
1145.290, 6562.296
1145.772, 6611.470
1146.254, 6672.051
1146.736, 6741.269
1147.219, 6814.145
1147.701, 6887.580
1148.183, 6953.439
1148.665, 7003.449
1149.147, 7063.880
1149.629, 7167.342
1150.111, 7277.479
1150.593, 7362.424
1151.075, 7433.281
1151.558, 7507.702
1152.040, 7585.450
1152.522, 7656.103
1153.004, 7715.764
1153.486, 7777.080
1153.968, 7844.843
1154.450, 7917.672
1154.932, 7995.133
1155.415, 8077.302
1155.897, 8167.452
1156.379, 8261.249
1156.861, 8348.176
1157.343, 8425.417
1157.825, 8506.575
1158.307, 8596.869
1158.789, 8687.096
1159.271, 8766.527
1159.754, 8853.698
1160.236, 8973.798
1160.718, 9103.106
1161.200, 9197.586
1161.682, 9253.688
1162.164, 9326.314
1162.646, 9423.364
1163.128, 9521.311
1163.610, 9615.347
1164.093, 9715.396
1164.575, 9832.848
1165.057, 9950.100
1165.539, 10042.97
1166.021, 10117.31
1166.503, 10215.60
1166.985, 10349.61
1167.467, 10449.45
1167.950, 10499.60
1168.432, 10575.65
1168.914, 10708.37
1169.396, 10848.96
1169.878, 10951.44
1170.360, 11030.32
1170.842, 11118.74
1171.324, 11217.01
1171.807, 11332.43
1172.289, 11463.51
1172.771, 11589.99
1173.253, 11706.40
1173.735, 11808.70
1174.217, 11893.58
1174.699, 11972.87
1175.181, 12053.72
1175.663, 12147.15
1176.146, 12298.49
1176.628, 12483.25
1177.110, 12630.37
1177.592, 12732.77
1178.074, 12810.56
1178.556, 12873.50
1179.038, 12951.25
1179.520, 13082.68
1180.002, 13230.46
1180.485, 13359.17
1180.967, 13473.99
1181.449, 13574.30
1181.931, 13668.52
1182.413, 13776.73
1182.895, 13901.57
1183.377, 14016.17
1183.859, 14092.17
1184.342, 14179.22
1184.824, 14325.06
1185.306, 14466.47
1185.788, 14543.99
1186.270, 14598.59
1186.752, 14682.36
1187.234, 14799.35
1187.716, 14940.97
1188.198, 15145.32
1188.681, 15287.06
1189.163, 15296.15
1189.645, 15311.71
1190.127, 15377.20
1190.609, 15468.57
1191.091, 15573.91
1191.573, 15689.21
1192.055, 15808.53
1192.537, 15939.02
1193.020, 16026.29
1193.502, 16055.62
1193.984, 16084.30
1194.466, 16116.37
1194.948, 16173.29
1195.430, 16277.27
1195.912, 16381.85
1196.394, 16414.59
1196.877, 16391.13
1197.359, 16399.42
1197.841, 16437.63
1198.323, 16466.09
1198.805, 16482.06
1199.287, 16507.79
1199.769, 16550.97
1200.251, 16585.92
1200.734, 16587.98
1201.216, 16577.12
1201.698, 16590.97
1202.180, 16614.32
1202.662, 16608.36
1203.144, 16585.38
1203.626, 16586.53
1204.108, 16612.50
1204.590, 16625.41
1205.073, 16606.15
1205.555, 16573.99
1206.037, 16530.84
1206.519, 16494.89
1207.001, 16497.82
1207.483, 16503.32
1207.965, 16453.98
1208.447, 16376.12
1208.929, 16345.13
1209.412, 16378.73
1209.894, 16392.03
1210.376, 16334.64
1210.858, 16293.45
1211.340, 16315.82
1211.822, 16331.11
1212.304, 16289.83
1212.786, 16226.25
1213.269, 16179.13
1213.751, 16148.33
1214.233, 16135.93
1214.715, 16154.35
1215.197, 16155.76
1215.679, 16137.39
1216.161, 16107.94
1216.643, 16067.25
1217.125, 16025.84
1217.608, 15991.99
1218.090, 15961.65
1218.572, 15922.68
1219.054, 15878.53
1219.536, 15859.76
1220.018, 15864.18
1220.500, 15872.96
1220.982, 15882.56
1221.464, 15889.92
1221.947, 15893.70
1222.429, 15895.81
1222.911, 15901.05
1223.393, 15900.56
1223.875, 15876.28
1224.357, 15840.96
1224.839, 15813.21
1225.321, 15791.97
1225.804, 15769.98
1226.286, 15747.25
1226.768, 15732.58
1227.250, 15732.71
1227.732, 15731.66
1228.214, 15725.12
1228.696, 15710.35
1229.178, 15681.57
1229.661, 15647.57
1230.143, 15610.75
1230.625, 15576.76
1231.107, 15559.17
1231.589, 15562.22
1232.071, 15560.65
1232.553, 15562.80
1233.035, 15541.57
1233.517, 15476.09
1234.000, 15422.65
1234.482, 15411.52
1234.964, 15413.09
1235.446, 15394.31
1235.928, 15359.77
1236.410, 15322.32
1236.892, 15281.43
1237.374, 15286.73
1237.856, 15337.06
1238.339, 15343.54
1238.821, 15286.81
1239.303, 15221.92
1239.785, 15182.27
1240.267, 15151.40
1240.749, 15107.30
1241.231, 15058.64
1241.713, 15024.12
1242.196, 14994.43
1242.678, 14947.00
1243.160, 14890.13
1243.642, 14854.62
1244.124, 14845.64
1244.606, 14829.44
1245.088, 14786.97
1245.570, 14737.53
1246.052, 14679.97
1246.535, 14630.32
1247.017, 14598.34
1247.499, 14579.69
1247.981, 14578.78
1248.463, 14586.21
1248.945, 14567.51
1249.427, 14512.60
1249.909, 14469.24
1250.392, 14440.02
1250.874, 14417.24
1251.356, 14403.58
1251.838, 14384.29
1252.320, 14347.82
1252.802, 14316.40
1253.284, 14324.20
1253.766, 14351.16
1254.249, 14311.85
1254.731, 14218.49
1255.213, 14168.63
1255.695, 14160.27
1256.177, 14142.88
1256.659, 14104.90
1257.141, 14063.08
1257.623, 14026.71
1258.105, 13994.74
1258.588, 13955.11
1259.070, 13930.49
1259.552, 13972.42
1260.034, 14023.94
1260.516, 14000.31
1260.998, 13929.06
1261.480, 13879.38
1261.962, 13864.77
1262.444, 13868.66
1262.927, 13910.30
1263.409, 13929.37
1263.891, 13894.21
1264.373, 13860.11
1264.855, 13854.32
1265.337, 13851.58
1265.819, 13834.02
1266.301, 13802.63
1266.784, 13755.49
1267.266, 13691.20
1267.748, 13661.64
1268.230, 13670.78
1268.712, 13661.20
1269.194, 13624.88
1269.676, 13596.36
1270.158, 13589.86
1270.641, 13581.38
1271.123, 13547.02
1271.605, 13502.74
1272.087, 13469.05
1272.569, 13447.16
1273.051, 13446.90
1273.533, 13456.69
1274.015, 13456.24
1274.497, 13442.80
1274.979, 13418.92
1275.462, 13384.37
1275.944, 13356.24
1276.426, 13349.43
1276.908, 13340.43
1277.390, 13314.77
1277.872, 13289.90
1278.354, 13280.98
1278.836, 13276.03
1279.319, 13258.01
1279.801, 13230.60
1280.283, 13212.05
1280.765, 13206.71
1281.247, 13187.48
1281.729, 13149.79
1282.211, 13129.60
1282.693, 13136.21
1283.176, 13139.85
1283.658, 13125.15
1284.140, 13088.08
1284.622, 13011.39
1285.104, 12928.35
1285.586, 12919.72
1286.068, 12949.71
1286.550, 12944.71
1287.032, 12912.74
1287.515, 12880.64
##END=



