##NAMES=Maricite
##RRUFFID=R070273
##IDEAL CHEMISTRY=NaFe^2+^PO_4_
##LOCALITY=Locality 16, Big Fish River, Richardson Mountains, Dawson Mining District, Yukon Territory, Canada
##OWNER=RRUFF
##SOURCE=Mark Mauthner
##DESCRIPTION=Compact radiating aggregate of gray prismatic crystals (with bluish to brownish sections) in phosphate nodule.
##STATUS=The identification of this mineral is confirmed by single-crystal X-ray diffraction and chemical analysis.
##URL=rruff.info/R070273
##MEASURED CHEMISTRY=Na_1.00_(Fe^2+^_0.90_Mn_0.06_Mg_0.03_Ca_0.01_)_Î£=1_P_1.00_O_4_
160.0709, 2260.497
160.5530, 2275.973
161.0351, 2305.812
161.5172, 2354.243
161.9993, 2401.188
162.4814, 2423.781
162.9636, 2434.469
163.4457, 2457.424
163.9278, 2508.259
164.4099, 2574.321
164.8920, 2633.829
165.3741, 2686.971
165.8563, 2732.373
166.3384, 2763.849
166.8205, 2787.783
167.3026, 2814.676
167.7847, 2847.319
168.2668, 2886.175
168.7490, 2935.915
169.2311, 3005.530
169.7132, 3065.559
170.1953, 3092.832
170.6774, 3102.362
171.1595, 3117.237
171.6417, 3149.841
172.1238, 3193.771
172.6059, 3233.285
173.0880, 3267.392
173.5701, 3298.786
174.0522, 3325.027
174.5344, 3350.542
175.0165, 3381.562
175.4986, 3421.742
175.9807, 3469.144
176.4628, 3517.974
176.9449, 3563.844
177.4271, 3620.427
177.9092, 3688.788
178.3913, 3769.802
178.8734, 3864.503
179.3555, 3973.960
179.8376, 4098.296
180.3197, 4243.454
180.8019, 4430.910
181.2840, 4600.177
181.7661, 4753.401
182.2482, 4875.747
182.7303, 4949.427
183.2124, 4967.985
183.6946, 4929.391
184.1767, 4819.463
184.6588, 4596.626
185.1409, 4372.802
185.6230, 4170.223
186.1051, 3987.086
186.5873, 3819.769
187.0694, 3666.416
187.5515, 3528.877
188.0336, 3408.899
188.5157, 3308.400
188.9978, 3226.773
189.4800, 3167.170
189.9621, 3121.770
190.4442, 3082.216
190.9263, 3045.242
191.4084, 3012.479
191.8905, 2988.965
192.3727, 2981.547
192.8548, 2971.311
193.3369, 2953.678
193.8190, 2932.787
194.3011, 2911.167
194.7832, 2889.721
195.2654, 2870.906
195.7475, 2861.014
196.2296, 2866.096
196.7117, 2868.918
197.1938, 2868.131
197.6759, 2864.101
198.1581, 2854.545
198.6402, 2839.049
199.1223, 2824.152
199.6044, 2823.881
200.0865, 2850.620
200.5686, 2867.162
201.0508, 2864.653
201.5329, 2856.185
202.0150, 2850.234
202.4971, 2849.561
202.9792, 2853.630
203.4613, 2863.475
203.9435, 2886.899
204.4256, 2897.781
204.9077, 2886.204
205.3898, 2869.886
205.8719, 2859.216
206.3540, 2856.893
206.8362, 2860.840
207.3183, 2870.665
207.8004, 2893.852
208.2825, 2902.847
208.7646, 2883.428
209.2467, 2862.454
209.7289, 2855.545
210.2110, 2864.322
210.6931, 2880.369
211.1752, 2895.125
211.6573, 2909.541
212.1395, 2918.569
212.6216, 2919.914
213.1037, 2918.269
213.5858, 2914.315
214.0679, 2909.015
214.5500, 2904.117
215.0322, 2900.981
215.5143, 2899.313
215.9964, 2901.663
216.4785, 2906.931
216.9606, 2917.149
217.4427, 2936.724
217.9249, 2962.708
218.4070, 2987.926
218.8891, 3006.896
219.3712, 3019.605
219.8533, 3026.425
220.3354, 3024.602
220.8176, 3019.096
221.2997, 3010.956
221.7818, 3000.055
222.2639, 2984.600
222.7460, 2961.837
223.2281, 2933.381
223.7103, 2918.801
224.1924, 2938.294
224.6745, 2950.112
225.1566, 2939.166
225.6387, 2916.385
226.1208, 2899.752
226.6030, 2900.762
227.0851, 2913.152
227.5672, 2910.127
228.0493, 2878.520
228.5314, 2848.124
229.0135, 2819.694
229.4957, 2796.726
229.9778, 2784.485
230.4599, 2785.643
230.9420, 2794.767
231.4241, 2798.533
231.9062, 2794.396
232.3884, 2788.750
232.8705, 2780.271
233.3526, 2772.064
233.8347, 2766.199
234.3168, 2763.480
234.7989, 2764.281
235.2811, 2769.686
235.7632, 2781.547
236.2453, 2793.849
236.7274, 2808.365
237.2095, 2821.642
237.6916, 2832.293
238.1738, 2839.661
238.6559, 2842.728
239.1380, 2838.454
239.6201, 2823.347
240.1022, 2813.917
240.5843, 2811.214
241.0665, 2813.901
241.5486, 2823.607
242.0307, 2839.182
242.5128, 2856.306
242.9949, 2872.270
243.4770, 2887.533
243.9592, 2896.015
244.4413, 2887.805
244.9234, 2882.061
245.4055, 2887.244
245.8876, 2900.986
246.3697, 2915.851
246.8519, 2925.705
247.3340, 2931.701
247.8161, 2943.912
248.2982, 2966.977
248.7803, 2990.503
249.2624, 3011.407
249.7446, 3030.311
250.2267, 3047.975
250.7088, 3064.408
251.1909, 3080.480
251.6730, 3099.388
252.1551, 3123.873
252.6373, 3145.637
253.1194, 3159.458
253.6015, 3170.518
254.0836, 3187.074
254.5657, 3214.448
255.0478, 3239.310
255.5300, 3235.246
256.0121, 3192.079
256.4942, 3158.740
256.9763, 3162.278
257.4584, 3173.573
257.9406, 3172.322
258.4227, 3154.187
258.9048, 3126.848
259.3869, 3094.199
259.8690, 3055.615
260.3511, 3025.915
260.8333, 3016.889
261.3154, 3009.524
261.7975, 2987.920
262.2796, 2952.484
262.7617, 2918.010
263.2438, 2897.115
263.7260, 2887.110
264.2081, 2870.908
264.6902, 2839.492
265.1723, 2813.406
265.6544, 2813.789
266.1365, 2832.678
266.6187, 2843.488
267.1008, 2824.527
267.5829, 2790.664
268.0650, 2776.262
268.5471, 2788.152
269.0292, 2799.804
269.5114, 2784.673
269.9935, 2757.424
270.4756, 2743.896
270.9577, 2757.743
271.4398, 2782.278
271.9219, 2804.099
272.4041, 2823.543
272.8862, 2826.750
273.3683, 2793.628
273.8504, 2745.857
274.3325, 2726.317
274.8146, 2750.161
275.2968, 2778.300
275.7789, 2785.395
276.2610, 2774.945
276.7431, 2759.424
277.2252, 2739.015
277.7073, 2721.334
278.1895, 2721.795
278.6716, 2744.665
279.1537, 2761.833
279.6358, 2757.427
280.1179, 2742.015
280.6000, 2734.559
281.0822, 2739.942
281.5643, 2748.922
282.0464, 2750.217
282.5285, 2743.079
283.0106, 2737.796
283.4927, 2736.981
283.9749, 2737.565
284.4570, 2736.769
284.9391, 2734.401
285.4212, 2731.440
285.9033, 2727.566
286.3854, 2723.225
286.8676, 2726.587
287.3497, 2751.023
287.8318, 2769.560
288.3139, 2764.317
288.7960, 2742.061
289.2781, 2721.622
289.7603, 2713.562
290.2424, 2714.960
290.7245, 2713.842
291.2066, 2706.350
291.6887, 2701.266
292.1708, 2703.346
292.6530, 2707.327
293.1351, 2706.334
293.6172, 2697.995
294.0993, 2685.324
294.5814, 2673.408
295.0635, 2660.666
295.5457, 2652.113
296.0278, 2648.723
296.5099, 2648.491
296.9920, 2651.016
297.4741, 2655.682
297.9562, 2660.838
298.4384, 2664.736
298.9205, 2667.097
299.4026, 2670.189
299.8847, 2677.668
300.3668, 2682.231
300.8489, 2681.092
301.3310, 2675.011
301.8131, 2665.086
302.2953, 2650.936
302.7774, 2634.702
303.2595, 2628.092
303.7416, 2640.305
304.2237, 2648.791
304.7058, 2647.266
305.1880, 2640.782
305.6701, 2633.925
306.1522, 2628.288
306.6343, 2624.816
307.1164, 2625.523
307.5985, 2631.370
308.0807, 2637.816
308.5628, 2644.471
309.0449, 2651.233
309.5270, 2659.535
310.0091, 2668.931
310.4912, 2674.856
310.9734, 2671.480
311.4555, 2659.781
311.9376, 2649.814
312.4197, 2638.971
312.9018, 2635.350
313.3839, 2650.948
313.8661, 2677.542
314.3482, 2693.088
314.8303, 2681.140
315.3124, 2654.962
315.7945, 2635.286
316.2766, 2621.465
316.7588, 2618.339
317.2409, 2635.491
317.7230, 2663.186
318.2051, 2685.684
318.6872, 2701.265
319.1693, 2711.023
319.6515, 2713.922
320.1336, 2710.999
320.6157, 2706.025
321.0978, 2698.412
321.5799, 2692.269
322.0620, 2694.908
322.5442, 2706.777
323.0263, 2720.708
323.5084, 2739.474
323.9905, 2757.207
324.4726, 2763.637
324.9547, 2757.150
325.4369, 2750.140
325.9190, 2754.918
326.4011, 2772.940
326.8832, 2788.342
327.3653, 2803.949
327.8474, 2814.604
328.3296, 2814.145
328.8117, 2805.819
329.2938, 2798.813
329.7759, 2798.367
330.2580, 2803.574
330.7401, 2810.376
331.2223, 2822.764
331.7044, 2831.821
332.1865, 2841.942
332.6686, 2845.886
333.1507, 2830.020
333.6328, 2792.061
334.1150, 2751.015
334.5971, 2737.531
335.0792, 2767.966
335.5613, 2781.703
336.0434, 2767.371
336.5255, 2748.531
337.0077, 2736.977
337.4898, 2731.957
337.9719, 2725.840
338.4540, 2711.010
338.9361, 2689.474
339.4182, 2680.400
339.9004, 2694.951
340.3825, 2705.732
340.8646, 2703.897
341.3467, 2694.478
341.8288, 2683.187
342.3109, 2671.737
342.7931, 2661.040
343.2752, 2653.054
343.7573, 2648.300
344.2394, 2642.240
344.7215, 2630.092
345.2036, 2619.379
345.6858, 2617.756
346.1679, 2625.265
346.6500, 2631.719
347.1321, 2630.978
347.6142, 2624.300
348.0963, 2611.081
348.5785, 2585.739
349.0606, 2571.385
349.5427, 2603.001
350.0248, 2662.451
350.5069, 2694.192
350.9890, 2668.759
351.4712, 2627.852
351.9533, 2600.173
352.4354, 2585.406
352.9175, 2582.349
353.3996, 2593.535
353.8817, 2612.533
354.3639, 2622.099
354.8460, 2619.499
355.3281, 2615.705
355.8102, 2616.318
356.2923, 2615.564
356.7744, 2603.272
357.2566, 2578.156
357.7387, 2553.173
358.2208, 2543.201
358.7029, 2551.229
359.1850, 2558.488
359.6671, 2567.346
360.1493, 2573.254
360.6314, 2572.113
361.1135, 2566.493
361.5956, 2562.050
362.0777, 2562.231
362.5598, 2565.592
363.0420, 2567.178
363.5241, 2569.130
364.0062, 2565.301
364.4883, 2545.677
364.9704, 2526.397
365.4525, 2525.127
365.9347, 2543.864
366.4168, 2564.070
366.8989, 2561.070
367.3810, 2532.717
367.8631, 2517.301
368.3452, 2524.979
368.8274, 2535.815
369.3095, 2539.494
369.7916, 2538.225
370.2737, 2537.674
370.7558, 2540.661
371.2379, 2545.741
371.7201, 2551.698
372.2022, 2559.013
372.6843, 2562.301
373.1664, 2556.691
373.6485, 2547.160
374.1306, 2541.432
374.6128, 2540.476
375.0949, 2540.635
375.5770, 2539.597
376.0591, 2538.422
376.5412, 2540.664
377.0233, 2547.722
377.5055, 2552.724
377.9876, 2546.856
378.4697, 2528.620
378.9518, 2518.032
379.4339, 2522.180
379.9160, 2527.894
380.3982, 2528.311
380.8803, 2523.853
381.3624, 2515.665
381.8445, 2503.568
382.3266, 2490.985
382.8087, 2488.449
383.2909, 2512.466
383.7730, 2524.846
384.2551, 2513.273
384.7372, 2497.389
385.2193, 2494.815
385.7014, 2507.237
386.1836, 2522.546
386.6657, 2527.497
387.1478, 2521.332
387.6299, 2519.131
388.1120, 2525.033
388.5941, 2530.238
389.0763, 2529.964
389.5584, 2527.576
390.0405, 2528.763
390.5226, 2536.554
391.0047, 2547.189
391.4868, 2556.741
391.9690, 2565.901
392.4511, 2566.343
392.9332, 2548.688
393.4153, 2527.731
393.8974, 2518.119
394.3795, 2519.906
394.8617, 2522.861
395.3438, 2519.536
395.8259, 2515.009
396.3080, 2518.566
396.7901, 2531.295
397.2722, 2546.978
397.7544, 2562.710
398.2365, 2577.750
398.7186, 2589.402
399.2007, 2600.700
399.6828, 2605.296
400.1649, 2594.015
400.6471, 2575.945
401.1292, 2566.264
401.6113, 2569.958
402.0934, 2581.837
402.5755, 2594.841
403.0576, 2610.032
403.5398, 2622.788
404.0219, 2637.623
404.5040, 2646.395
404.9861, 2640.741
405.4682, 2625.416
405.9503, 2611.183
406.4325, 2604.215
406.9146, 2604.777
407.3967, 2615.595
407.8788, 2644.835
408.3609, 2667.420
408.8430, 2673.213
409.3252, 2674.634
409.8073, 2679.249
410.2894, 2688.839
410.7715, 2705.296
411.2536, 2734.080
411.7357, 2772.334
412.2179, 2805.908
412.7000, 2836.086
413.1821, 2855.944
413.6642, 2844.048
414.1463, 2819.367
414.6284, 2822.587
415.1106, 2878.364
415.5927, 2943.088
416.0748, 2986.295
416.5569, 3012.626
417.0390, 3034.664
417.5211, 3055.436
418.0033, 3077.634
418.4854, 3104.958
418.9675, 3137.403
419.4496, 3176.141
419.9317, 3224.786
420.4138, 3276.612
420.8960, 3329.230
421.3781, 3381.389
421.8602, 3429.273
422.3423, 3469.332
422.8244, 3506.375
423.3065, 3561.043
423.7887, 3641.462
424.2708, 3728.439
424.7529, 3824.828
425.2350, 3923.102
425.7171, 4016.372
426.1992, 4104.284
426.6814, 4190.937
427.1635, 4278.022
427.6456, 4366.713
428.1277, 4463.603
428.6098, 4572.002
429.0919, 4682.112
429.5741, 4785.952
430.0562, 4889.560
430.5383, 5002.071
431.0204, 5126.788
431.5025, 5258.408
431.9846, 5400.580
432.4668, 5547.395
432.9489, 5675.378
433.4310, 5775.715
433.9131, 5865.761
434.3952, 5970.685
434.8773, 6093.648
435.3595, 6185.199
435.8416, 6229.007
436.3237, 6252.497
436.8058, 6278.289
437.2879, 6297.958
437.7701, 6284.923
438.2522, 6224.046
438.7343, 6132.032
439.2164, 6051.547
439.6985, 5991.530
440.1806, 5927.693
440.6628, 5860.951
441.1449, 5789.042
441.6270, 5711.682
442.1091, 5628.092
442.5912, 5534.102
443.0733, 5420.138
443.5555, 5296.342
444.0376, 5205.083
444.5197, 5156.453
445.0018, 5112.066
445.4839, 5061.115
445.9660, 5004.752
446.4482, 4943.637
446.9303, 4878.136
447.4124, 4807.521
447.8945, 4732.776
448.3766, 4652.218
448.8587, 4562.359
449.3409, 4462.137
449.8230, 4354.878
450.3051, 4238.948
450.7872, 4116.451
451.2693, 4008.097
451.7514, 3913.993
452.2336, 3832.640
452.7157, 3775.235
453.1978, 3726.367
453.6799, 3659.525
454.1620, 3568.857
454.6441, 3480.394
455.1263, 3431.263
455.6084, 3431.742
456.0905, 3413.561
456.5726, 3351.908
457.0547, 3296.667
457.5368, 3262.848
458.0190, 3245.516
458.5011, 3235.723
458.9832, 3229.923
459.4653, 3229.318
459.9474, 3239.618
460.4295, 3261.087
460.9117, 3272.224
461.3938, 3265.432
461.8759, 3251.704
462.3580, 3238.138
462.8401, 3225.381
463.3222, 3217.645
463.8044, 3224.842
464.2865, 3230.614
464.7686, 3218.472
465.2507, 3191.611
465.7328, 3163.732
466.2149, 3141.039
466.6971, 3119.586
467.1792, 3092.309
467.6613, 3058.321
468.1434, 3019.208
468.6255, 2968.136
469.1076, 2917.890
469.5898, 2877.585
470.0719, 2845.468
470.5540, 2814.873
471.0361, 2781.193
471.5182, 2746.718
472.0003, 2718.975
472.4825, 2703.277
472.9646, 2680.261
473.4467, 2636.368
473.9288, 2590.673
474.4109, 2555.372
474.8930, 2530.807
475.3752, 2509.860
475.8573, 2486.709
476.3394, 2465.306
476.8215, 2453.778
477.3036, 2452.398
477.7857, 2452.789
478.2679, 2452.323
478.7500, 2449.735
479.2321, 2440.872
479.7142, 2422.366
480.1963, 2407.155
480.6784, 2400.074
481.1606, 2395.741
481.6427, 2390.836
482.1248, 2384.148
482.6069, 2373.279
483.0890, 2355.514
483.5711, 2332.996
484.0533, 2317.724
484.5354, 2316.081
485.0175, 2311.233
485.4996, 2296.484
485.9817, 2280.976
486.4638, 2272.391
486.9460, 2271.244
487.4281, 2272.432
487.9102, 2273.349
488.3923, 2273.473
488.8744, 2270.294
489.3565, 2262.961
489.8387, 2257.193
490.3208, 2255.948
490.8029, 2258.210
491.2850, 2261.493
491.7671, 2266.014
492.2492, 2270.910
492.7314, 2281.553
493.2135, 2289.218
493.6956, 2278.465
494.1777, 2251.104
494.6598, 2229.074
495.1419, 2230.613
495.6241, 2250.829
496.1062, 2257.623
496.5883, 2235.952
497.0704, 2221.697
497.5525, 2224.983
498.0346, 2232.144
498.5168, 2230.323
498.9989, 2219.182
499.4810, 2209.473
499.9631, 2212.391
500.4452, 2223.740
500.9273, 2226.680
501.4095, 2219.175
501.8916, 2211.989
502.3737, 2211.704
502.8558, 2213.196
503.3379, 2207.231
503.8200, 2190.921
504.3022, 2178.878
504.7843, 2176.900
505.2664, 2181.902
505.7485, 2195.927
506.2306, 2216.079
506.7127, 2224.848
507.1949, 2207.869
507.6770, 2174.010
508.1591, 2162.716
508.6412, 2199.856
509.1233, 2221.945
509.6054, 2215.015
510.0876, 2200.779
510.5697, 2194.913
511.0518, 2197.697
511.5339, 2199.973
512.0161, 2193.665
512.4982, 2183.094
512.9803, 2181.804
513.4624, 2191.938
513.9445, 2197.819
514.4266, 2189.222
514.9088, 2177.948
515.3909, 2182.910
515.8730, 2206.262
516.3551, 2218.107
516.8372, 2199.199
517.3193, 2172.428
517.8015, 2155.460
518.2836, 2149.664
518.7657, 2155.628
519.2478, 2175.122
519.7299, 2200.003
520.2120, 2210.537
520.6942, 2199.261
521.1763, 2187.439
521.6584, 2168.492
522.1405, 2155.155
522.6226, 2161.386
523.1047, 2178.857
523.5869, 2185.144
524.0690, 2164.985
524.5511, 2135.677
525.0332, 2127.189
525.5153, 2139.378
525.9974, 2149.042
526.4796, 2150.707
526.9617, 2148.187
527.4438, 2142.774
527.9259, 2135.177
528.4080, 2133.937
528.8901, 2148.322
529.3723, 2161.411
529.8544, 2162.198
530.3365, 2154.663
530.8186, 2146.260
531.3007, 2139.602
531.7828, 2134.194
532.2650, 2129.251
532.7471, 2124.549
533.2292, 2121.505
533.7113, 2116.764
534.1934, 2117.933
534.6755, 2135.061
535.1577, 2156.374
535.6398, 2162.858
536.1219, 2147.351
536.6040, 2133.539
537.0861, 2153.051
537.5682, 2192.336
538.0504, 2202.704
538.5325, 2175.005
539.0146, 2145.069
539.4967, 2138.120
539.9788, 2149.963
540.4609, 2159.078
540.9431, 2165.786
541.4252, 2169.812
541.9073, 2166.743
542.3894, 2163.771
542.8715, 2167.826
543.3536, 2179.406
543.8358, 2195.171
544.3179, 2213.105
544.8000, 2232.460
545.2821, 2249.081
545.7642, 2260.131
546.2463, 2276.339
546.7285, 2311.167
547.2106, 2343.866
547.6926, 2352.217
548.1747, 2338.577
548.6569, 2335.854
549.1390, 2361.751
549.6211, 2403.296
550.1032, 2451.642
550.5853, 2504.263
551.0674, 2550.287
551.5496, 2585.056
552.0317, 2615.316
552.5138, 2652.068
552.9959, 2697.141
553.4780, 2743.199
553.9601, 2806.511
554.4423, 2853.644
554.9244, 2858.102
555.4065, 2841.607
555.8886, 2837.698
556.3707, 2858.758
556.8528, 2892.510
557.3350, 2926.343
557.8171, 2960.299
558.2992, 2992.985
558.7813, 3021.311
559.2634, 3057.451
559.7455, 3106.520
560.2277, 3171.073
560.7098, 3253.996
561.1919, 3359.299
561.6740, 3476.278
562.1561, 3606.623
562.6382, 3743.876
563.1204, 3878.840
563.6025, 4012.956
564.0846, 4158.354
564.5667, 4325.828
565.0488, 4511.667
565.5309, 4707.155
566.0131, 4924.463
566.4952, 5120.483
566.9773, 5308.445
567.4594, 5454.864
567.9415, 5543.414
568.4236, 5571.652
568.9058, 5535.183
569.3879, 5419.651
569.8700, 5249.481
570.3521, 5035.191
570.8342, 4784.995
571.3163, 4519.847
571.7985, 4243.854
572.2806, 3976.823
572.7627, 3744.165
573.2448, 3547.194
573.7269, 3365.689
574.2090, 3197.922
574.6912, 3044.410
575.1733, 2899.245
575.6554, 2771.714
576.1375, 2675.195
576.6196, 2611.024
577.1017, 2561.660
577.5839, 2514.120
578.0660, 2468.515
578.5481, 2425.110
579.0302, 2383.932
579.5123, 2344.534
579.9944, 2303.675
580.4766, 2267.344
580.9587, 2251.687
581.4408, 2263.811
581.9229, 2263.074
582.4050, 2234.847
582.8871, 2200.404
583.3693, 2168.407
583.8514, 2142.239
584.3335, 2126.365
584.8156, 2123.063
585.2977, 2127.250
585.7798, 2133.039
586.2620, 2141.156
586.7441, 2141.024
587.2262, 2126.154
587.7083, 2112.855
588.1904, 2116.124
588.6725, 2125.547
589.1547, 2121.507
589.6368, 2092.855
590.1189, 2073.415
590.6010, 2089.637
591.0831, 2118.704
591.5652, 2131.042
592.0474, 2125.529
592.5295, 2116.064
593.0116, 2110.855
593.4937, 2111.066
593.9758, 2121.646
594.4579, 2149.412
594.9401, 2171.193
595.4222, 2181.266
595.9043, 2188.187
596.3864, 2193.711
596.8685, 2199.441
597.3506, 2208.509
597.8328, 2222.049
598.3149, 2239.251
598.7970, 2261.196
599.2791, 2286.144
599.7612, 2309.678
600.2433, 2331.036
600.7255, 2351.284
601.2076, 2370.700
601.6897, 2389.883
602.1718, 2413.613
602.6539, 2436.522
603.1360, 2472.151
603.6182, 2534.123
604.1003, 2598.990
604.5824, 2649.481
605.0645, 2686.092
605.5466, 2719.322
606.0287, 2757.823
606.5109, 2793.003
606.9930, 2813.929
607.4751, 2820.529
607.9572, 2808.718
608.4393, 2773.410
608.9214, 2735.507
609.4036, 2718.527
609.8857, 2722.531
610.3678, 2709.517
610.8499, 2667.820
611.3320, 2625.738
611.8141, 2581.501
612.2963, 2545.095
612.7784, 2529.563
613.2605, 2533.958
613.7426, 2544.791
614.2247, 2554.716
614.7068, 2561.526
615.1890, 2557.036
615.6711, 2540.534
616.1532, 2528.374
616.6353, 2524.418
617.1174, 2528.073
617.5995, 2541.180
618.0817, 2564.013
618.5638, 2582.825
619.0459, 2595.662
619.5280, 2606.034
620.0101, 2625.272
620.4922, 2637.805
620.9744, 2619.081
621.4565, 2567.971
621.9386, 2510.696
622.4207, 2472.021
622.9028, 2445.483
623.3849, 2403.590
623.8671, 2342.331
624.3492, 2289.740
624.8313, 2258.325
625.3134, 2234.463
625.7955, 2201.998
626.2776, 2161.470
626.7598, 2123.487
627.2419, 2088.433
627.7240, 2057.545
628.2061, 2029.393
628.6882, 2006.932
629.1703, 1997.266
629.6525, 2000.512
630.1346, 2006.400
630.6167, 2006.156
631.0988, 1999.700
631.5809, 1984.013
632.0630, 1954.426
632.5452, 1934.435
633.0273, 1938.917
633.5094, 1948.437
633.9915, 1937.723
634.4736, 1908.211
634.9557, 1889.011
635.4379, 1891.290
635.9200, 1899.735
636.4021, 1911.453
636.8842, 1921.622
637.3663, 1922.143
637.8484, 1911.785
638.3306, 1897.453
638.8127, 1885.617
639.2948, 1875.878
639.7769, 1865.720
640.2590, 1854.248
640.7411, 1845.367
641.2233, 1839.794
641.7054, 1837.824
642.1875, 1843.263
642.6696, 1854.922
643.1517, 1856.660
643.6339, 1830.099
644.1160, 1808.886
644.5981, 1820.647
645.0802, 1846.083
645.5623, 1852.365
646.0444, 1834.572
646.5266, 1817.212
647.0087, 1825.763
647.4908, 1852.203
647.9729, 1855.212
648.4550, 1826.757
648.9371, 1807.613
649.4193, 1814.639
649.9014, 1827.492
650.3835, 1824.273
650.8656, 1807.823
651.3477, 1798.443
651.8298, 1808.063
652.3120, 1815.718
652.7941, 1808.489
653.2762, 1794.935
653.7583, 1785.154
654.2404, 1781.521
654.7225, 1783.925
655.2047, 1794.318
655.6868, 1807.908
656.1689, 1805.468
656.6510, 1782.789
657.1331, 1771.137
657.6152, 1783.410
658.0974, 1799.287
658.5795, 1799.718
659.0616, 1787.825
659.5437, 1776.915
660.0258, 1764.805
660.5079, 1758.001
660.9901, 1764.935
661.4722, 1774.309
661.9543, 1772.393
662.4364, 1760.069
662.9185, 1748.314
663.4006, 1744.074
663.8828, 1745.873
664.3649, 1753.827
664.8470, 1768.450
665.3291, 1769.660
665.8112, 1747.345
666.2933, 1728.240
666.7755, 1736.563
667.2576, 1764.741
667.7397, 1778.905
668.2218, 1773.044
668.7039, 1763.131
669.1860, 1747.453
669.6682, 1732.765
670.1503, 1724.056
670.6324, 1720.984
671.1145, 1720.978
671.5966, 1722.763
672.0787, 1727.003
672.5609, 1737.677
673.0430, 1752.932
673.5251, 1757.328
674.0072, 1747.351
674.4893, 1739.217
674.9714, 1744.340
675.4536, 1756.410
675.9357, 1758.413
676.4178, 1742.475
676.8999, 1733.760
677.3820, 1736.759
677.8641, 1743.186
678.3463, 1755.613
678.8284, 1766.206
679.3105, 1759.492
679.7926, 1730.611
680.2747, 1701.934
680.7568, 1696.262
681.2390, 1706.100
681.7211, 1716.488
682.2032, 1726.340
682.6853, 1728.532
683.1674, 1718.101
683.6495, 1704.840
684.1317, 1705.055
684.6138, 1722.846
685.0959, 1732.357
685.5780, 1731.095
686.0601, 1724.449
686.5422, 1705.828
687.0244, 1687.199
687.5065, 1682.905
687.9886, 1693.594
688.4707, 1704.559
688.9528, 1708.571
689.4349, 1707.768
689.9171, 1701.905
690.3992, 1693.264
690.8813, 1688.203
691.3634, 1688.474
691.8455, 1693.039
692.3276, 1701.928
692.8098, 1713.997
693.2919, 1718.550
693.7740, 1712.719
694.2561, 1705.677
694.7382, 1698.348
695.2203, 1690.930
695.7025, 1683.407
696.1846, 1675.857
696.6667, 1668.126
697.1488, 1654.008
697.6309, 1648.959
698.1130, 1673.208
698.5952, 1704.391
699.0773, 1711.589
699.5594, 1695.749
700.0415, 1678.837
700.5236, 1674.155
701.0057, 1677.298
701.4879, 1679.777
701.9700, 1681.558
702.4521, 1683.054
702.9342, 1683.197
703.4163, 1686.225
703.8984, 1698.230
704.3806, 1713.386
704.8627, 1717.626
705.3448, 1708.366
705.8269, 1696.585
706.3090, 1678.931
706.7911, 1663.935
707.2733, 1658.737
707.7554, 1659.020
708.2375, 1656.838
708.7196, 1649.909
709.2017, 1643.524
709.6838, 1641.000
710.1660, 1643.229
710.6481, 1656.914
711.1302, 1680.930
711.6123, 1693.580
712.0944, 1685.374
712.5765, 1670.853
713.0587, 1669.189
713.5408, 1681.517
714.0229, 1682.202
714.5050, 1654.980
714.9871, 1638.453
715.4692, 1647.734
715.9514, 1662.606
716.4335, 1667.315
716.9156, 1662.171
717.3977, 1655.312
717.8798, 1647.405
718.3619, 1642.627
718.8441, 1645.135
719.3262, 1652.691
719.8083, 1665.311
720.2904, 1680.596
720.7725, 1686.291
721.2546, 1673.058
721.7368, 1649.416
722.2189, 1635.729
722.7010, 1633.112
723.1831, 1632.988
723.6652, 1635.424
724.1473, 1639.073
724.6295, 1644.805
725.1116, 1650.582
725.5937, 1652.764
726.0758, 1651.553
726.5579, 1645.847
727.0400, 1627.965
727.5222, 1613.105
728.0043, 1615.476
728.4864, 1625.036
728.9685, 1621.358
729.4506, 1600.777
729.9327, 1585.801
730.4149, 1604.552
730.8970, 1640.255
731.3791, 1653.605
731.8612, 1646.634
732.3433, 1638.947
732.8254, 1636.504
733.3076, 1632.415
733.7897, 1618.079
734.2718, 1594.973
734.7539, 1582.269
735.2360, 1585.674
735.7181, 1590.010
736.2003, 1590.772
736.6824, 1594.466
737.1645, 1612.444
737.6466, 1636.344
738.1287, 1641.919
738.6108, 1614.420
739.0930, 1588.240
739.5751, 1585.420
740.0572, 1592.426
740.5393, 1593.722
741.0214, 1590.004
741.5035, 1589.190
741.9857, 1595.001
742.4678, 1604.087
742.9499, 1612.493
743.4320, 1620.126
743.9141, 1627.298
744.3962, 1635.465
744.8784, 1633.530
745.3605, 1611.168
745.8426, 1585.787
746.3247, 1583.211
746.8068, 1607.065
747.2889, 1619.756
747.7711, 1613.521
748.2532, 1606.990
748.7353, 1608.236
749.2174, 1608.269
749.6995, 1594.954
750.1816, 1571.768
750.6638, 1555.876
751.1459, 1557.466
751.6280, 1565.254
752.1101, 1570.015
752.5922, 1573.165
753.0743, 1578.654
753.5565, 1586.006
754.0386, 1588.203
754.5207, 1580.439
755.0028, 1570.110
755.4849, 1574.849
755.9670, 1597.823
756.4492, 1603.894
756.9313, 1584.735
757.4134, 1568.140
757.8955, 1567.036
758.3776, 1574.338
758.8597, 1580.604
759.3419, 1586.164
759.8240, 1587.895
760.3061, 1578.018
760.7882, 1573.279
761.2703, 1590.265
761.7524, 1608.816
762.2346, 1601.961
762.7167, 1572.540
763.1988, 1550.659
763.6809, 1556.800
764.1630, 1571.731
764.6451, 1572.997
765.1273, 1565.778
765.6094, 1563.495
766.0915, 1567.549
766.5736, 1570.630
767.0557, 1567.884
767.5378, 1563.017
768.0200, 1566.335
768.5021, 1581.396
768.9842, 1581.777
769.4663, 1560.362
769.9484, 1538.396
770.4305, 1520.950
770.9127, 1510.797
771.3948, 1513.705
771.8769, 1530.642
772.3590, 1545.962
772.8411, 1564.496
773.3232, 1573.117
773.8054, 1556.731
774.2875, 1534.521
774.7696, 1527.193
775.2517, 1535.147
775.7338, 1546.061
776.2159, 1554.582
776.6981, 1560.332
777.1802, 1562.101
777.6623, 1560.964
778.1444, 1559.898
778.6265, 1558.913
779.1086, 1554.683
779.5908, 1545.139
780.0729, 1532.961
780.5550, 1522.397
781.0371, 1513.194
781.5192, 1508.855
782.0013, 1510.770
782.4835, 1513.738
782.9656, 1514.963
783.4477, 1517.127
783.9298, 1527.008
784.4119, 1545.106
784.8940, 1549.600
785.3762, 1523.376
785.8583, 1504.400
786.3404, 1506.500
786.8225, 1517.115
787.3046, 1527.587
787.7867, 1536.417
788.2689, 1544.367
788.7510, 1553.094
789.2331, 1556.735
789.7152, 1544.536
790.1973, 1527.062
790.6794, 1523.253
791.1616, 1531.079
791.6437, 1535.407
792.1258, 1529.721
792.6079, 1519.847
793.0900, 1512.273
793.5721, 1507.358
794.0543, 1511.330
794.5364, 1527.023
795.0185, 1532.501
795.5006, 1517.432
795.9827, 1498.783
796.4648, 1493.177
796.9470, 1499.396
797.4291, 1504.507
797.9112, 1510.874
798.3933, 1512.582
798.8754, 1502.440
799.3575, 1494.438
799.8397, 1500.822
800.3218, 1513.912
800.8039, 1517.502
801.2860, 1506.305
801.7681, 1497.039
802.2502, 1501.812
802.7324, 1508.885
803.2145, 1507.790
803.6966, 1500.888
804.1787, 1492.431
804.6608, 1484.151
805.1429, 1478.075
805.6251, 1475.934
806.1072, 1477.085
806.5893, 1482.198
807.0714, 1490.201
807.5535, 1491.343
808.0356, 1483.479
808.5178, 1477.386
808.9999, 1481.086
809.4820, 1489.515
809.9641, 1489.145
810.4462, 1476.199
810.9283, 1468.293
811.4105, 1466.934
811.8926, 1468.169
812.3747, 1472.872
812.8568, 1477.861
813.3389, 1479.056
813.8210, 1476.447
814.3032, 1474.380
814.7853, 1470.039
815.2674, 1470.733
815.7495, 1486.647
816.2316, 1502.667
816.7137, 1501.905
817.1959, 1488.704
817.6780, 1480.819
818.1601, 1487.035
818.6422, 1493.617
819.1243, 1485.651
819.6064, 1472.374
820.0886, 1468.798
820.5707, 1473.344
821.0528, 1476.816
821.5349, 1475.996
822.0170, 1475.262
822.4991, 1481.776
822.9813, 1491.167
823.4634, 1480.427
823.9455, 1447.945
824.4276, 1428.137
824.9097, 1429.682
825.3918, 1438.993
825.8740, 1447.303
826.3561, 1454.476
826.8382, 1460.080
827.3203, 1465.071
827.8024, 1466.179
828.2845, 1458.272
828.7667, 1452.798
829.2488, 1457.404
829.7309, 1464.512
830.2130, 1463.693
830.6951, 1454.443
831.1772, 1449.176
831.6594, 1452.556
832.1415, 1458.410
832.6236, 1469.703
833.1057, 1478.055
833.5878, 1471.500
834.0699, 1454.087
834.5521, 1441.099
835.0342, 1439.804
835.5163, 1441.848
835.9984, 1439.978
836.4805, 1436.126
836.9626, 1430.900
837.4448, 1426.450
837.9269, 1432.755
838.4090, 1452.264
838.8911, 1468.431
839.3732, 1461.488
839.8553, 1439.184
840.3375, 1431.852
840.8196, 1439.888
841.3017, 1440.544
841.7838, 1427.453
842.2659, 1419.506
842.7480, 1432.656
843.2302, 1455.590
843.7123, 1458.094
844.1944, 1429.641
844.6765, 1416.309
845.1586, 1427.047
845.6407, 1439.560
846.1229, 1449.030
846.6050, 1455.065
847.0871, 1455.633
847.5692, 1451.349
848.0513, 1449.507
848.5334, 1459.209
849.0156, 1460.471
849.4977, 1434.912
849.9798, 1410.494
850.4619, 1414.362
850.9440, 1435.381
851.4261, 1445.341
851.9083, 1434.905
852.3904, 1424.882
852.8725, 1433.490
853.3546, 1445.474
853.8367, 1443.065
854.3188, 1431.960
854.8010, 1424.141
855.2831, 1422.191
855.7652, 1423.544
856.2473, 1427.669
856.7294, 1430.111
857.2115, 1418.286
857.6937, 1397.293
858.1758, 1391.986
858.6579, 1404.236
859.1400, 1417.936
859.6221, 1426.184
860.1042, 1428.165
860.5864, 1420.143
861.0685, 1403.047
861.5506, 1403.720
862.0327, 1427.953
862.5148, 1447.714
862.9969, 1457.927
863.4791, 1460.272
863.9612, 1453.389
864.4433, 1440.404
864.9254, 1433.132
865.4075, 1438.315
865.8896, 1435.012
866.3718, 1413.356
866.8539, 1395.317
867.3360, 1385.743
867.8181, 1385.495
868.3002, 1400.490
868.7823, 1429.039
869.2645, 1448.163
869.7466, 1448.445
870.2287, 1442.837
870.7108, 1432.028
871.1929, 1420.885
871.6750, 1409.948
872.1572, 1403.052
872.6393, 1411.784
873.1214, 1440.995
873.6035, 1461.576
874.0856, 1441.894
874.5677, 1411.463
875.0499, 1405.206
875.5320, 1413.548
876.0141, 1414.680
876.4962, 1405.112
876.9783, 1394.781
877.4604, 1390.274
877.9426, 1389.043
878.4247, 1385.088
878.9068, 1380.953
879.3889, 1389.964
879.8710, 1411.291
880.3531, 1424.319
880.8353, 1420.314
881.3174, 1410.673
881.7995, 1408.987
882.2816, 1413.641
882.7637, 1414.268
883.2458, 1410.383
883.7280, 1405.377
884.2101, 1398.443
884.6922, 1395.291
885.1743, 1401.034
885.6564, 1411.390
886.1385, 1417.063
886.6207, 1417.209
887.1028, 1416.227
887.5849, 1411.959
888.0670, 1410.121
888.5491, 1415.670
889.0313, 1421.180
889.5134, 1419.400
889.9955, 1411.902
890.4776, 1405.698
890.9597, 1398.641
891.4418, 1397.663
891.9240, 1410.576
892.4061, 1422.313
892.8882, 1422.017
893.3703, 1417.301
893.8524, 1421.852
894.3345, 1436.046
894.8167, 1440.728
895.2988, 1416.336
895.7809, 1395.002
896.2630, 1398.028
896.7451, 1409.470
897.2272, 1413.294
897.7094, 1410.667
898.1915, 1409.145
898.6736, 1411.415
899.1557, 1415.849
899.6378, 1426.601
900.1199, 1434.450
900.6021, 1422.449
901.0842, 1400.338
901.5663, 1389.111
902.0484, 1391.510
902.5305, 1398.596
903.0126, 1405.654
903.4948, 1409.337
903.9769, 1400.551
904.4590, 1384.956
904.9411, 1383.531
905.4232, 1394.619
905.9053, 1397.858
906.3875, 1386.703
906.8696, 1374.128
907.3517, 1372.101
907.8338, 1379.152
908.3159, 1393.226
908.7980, 1414.411
909.2802, 1426.909
909.7623, 1428.387
910.2444, 1426.330
910.7265, 1424.389
911.2086, 1420.287
911.6907, 1409.134
912.1729, 1391.177
912.6550, 1384.496
913.1371, 1389.421
913.6192, 1406.707
914.1013, 1448.082
914.5834, 1479.578
915.0656, 1474.056
915.5477, 1446.271
916.0298, 1429.190
916.5119, 1423.289
916.9940, 1426.501
917.4761, 1444.396
917.9583, 1463.515
918.4404, 1489.017
918.9225, 1507.589
919.4046, 1502.245
919.8867, 1480.654
920.3688, 1471.939
920.8510, 1485.906
921.3331, 1495.686
921.8152, 1493.380
922.2973, 1490.808
922.7794, 1490.010
923.2615, 1494.125
923.7437, 1509.836
924.2258, 1535.199
924.7079, 1554.745
925.1900, 1561.038
925.6721, 1565.560
926.1542, 1572.107
926.6364, 1579.478
927.1185, 1586.609
927.6006, 1593.868
928.0827, 1599.627
928.5648, 1604.558
929.0469, 1618.945
929.5291, 1664.867
930.0112, 1703.377
930.4933, 1691.693
930.9754, 1665.193
931.4575, 1667.345
931.9396, 1695.663
932.4218, 1730.760
932.9039, 1765.449
933.3860, 1795.357
933.8681, 1806.724
934.3502, 1819.166
934.8323, 1864.491
935.3145, 1928.030
935.7966, 1976.171
936.2787, 2008.094
936.7608, 2046.822
937.2429, 2104.396
937.7250, 2172.882
938.2072, 2239.896
938.6893, 2312.077
939.1714, 2403.683
939.6535, 2514.582
940.1356, 2641.861
940.6177, 2785.711
941.0999, 2947.953
941.5820, 3128.770
942.0641, 3335.454
942.5462, 3581.597
943.0283, 3865.440
943.5104, 4178.397
943.9926, 4519.179
944.4747, 4891.868
944.9568, 5297.694
945.4389, 5729.612
945.9210, 6176.922
946.4031, 6650.614
946.8853, 7188.479
947.3674, 7791.380
947.8495, 8414.109
948.3316, 9050.605
948.8137, 9742.851
949.2958, 10503.42
949.7780, 11343.27
950.2601, 12285.41
950.7422, 13303.23
951.2243, 14272.31
951.7064, 15207.06
952.1885, 16016.11
952.6707, 16728.21
953.1528, 17157.85
953.6349, 17223.02
954.1170, 16947.45
954.5991, 16332.68
955.0812, 15391.90
955.5634, 14331.35
956.0455, 13100.77
956.5276, 11911.33
957.0097, 10762.17
957.4918, 9688.038
957.9739, 8696.551
958.4561, 7799.313
958.9382, 7017.584
959.4203, 6350.355
959.9024, 5777.741
960.3845, 5315.969
960.8666, 4917.452
961.3488, 4587.741
961.8309, 4303.119
962.3130, 4053.039
962.7951, 3838.479
963.2772, 3661.854
963.7593, 3527.506
964.2415, 3407.797
964.7236, 3291.927
965.2057, 3206.428
965.6878, 3169.558
966.1699, 3150.642
966.6520, 3132.012
967.1342, 3116.313
967.6163, 3112.623
968.0984, 3128.023
968.5805, 3127.599
969.0626, 3072.900
969.5447, 3051.477
970.0269, 3107.121
970.5090, 3184.012
970.9911, 3235.071
971.4732, 3274.068
971.9553, 3341.972
972.4374, 3450.376
972.9196, 3559.762
973.4017, 3655.022
973.8838, 3764.073
974.3659, 3885.233
974.8480, 4033.616
975.3301, 4222.739
975.8123, 4450.078
976.2944, 4703.054
976.7765, 4982.783
977.2586, 5276.901
977.7407, 5602.123
978.2228, 5916.074
978.7050, 6238.165
979.1871, 6509.084
979.6692, 6683.645
980.1513, 6755.579
980.6334, 6722.729
981.1155, 6579.893
981.5977, 6345.780
982.0798, 5993.020
982.5619, 5589.234
983.0440, 5120.004
983.5261, 4649.100
984.0082, 4238.626
984.4904, 3889.534
984.9725, 3581.331
985.4546, 3313.607
985.9367, 3070.708
986.4188, 2833.225
986.9009, 2632.644
987.3831, 2498.748
987.8652, 2403.607
988.3473, 2322.497
988.8294, 2250.222
989.3115, 2184.748
989.7936, 2127.064
990.2758, 2071.573
990.7579, 2008.863
991.2400, 1955.746
991.7221, 1924.485
992.2042, 1908.180
992.6863, 1903.187
993.1685, 1904.648
993.6506, 1897.743
994.1327, 1873.596
994.6148, 1852.488
995.0969, 1846.620
995.5790, 1843.411
996.0612, 1833.520
996.5433, 1821.770
997.0254, 1814.938
997.5075, 1812.912
997.9896, 1810.772
998.4717, 1805.720
998.9539, 1803.786
999.4360, 1809.061
999.9181, 1817.029
1000.400, 1821.673
1000.882, 1828.933
1001.364, 1848.634
1001.847, 1878.921
1002.329, 1908.150
1002.811, 1933.241
1003.293, 1954.091
1003.775, 1960.823
1004.257, 1974.074
1004.739, 2014.509
1005.221, 2065.506
1005.703, 2106.211
1006.186, 2135.956
1006.668, 2163.196
1007.150, 2185.481
1007.632, 2222.822
1008.114, 2292.702
1008.596, 2371.252
1009.078, 2441.925
1009.560, 2513.100
1010.043, 2589.731
1010.525, 2677.323
1011.007, 2788.877
1011.489, 2929.763
1011.971, 3092.176
1012.453, 3287.143
1012.935, 3487.438
1013.417, 3665.962
1013.899, 3847.501
1014.382, 4053.344
1014.864, 4287.162
1015.346, 4552.398
1015.828, 4850.490
1016.310, 5172.703
1016.792, 5513.550
1017.274, 5880.756
1017.756, 6300.773
1018.239, 6731.604
1018.721, 7156.688
1019.203, 7551.448
1019.685, 7874.615
1020.167, 8128.012
1020.649, 8250.901
1021.131, 8206.583
1021.613, 8048.992
1022.095, 7780.230
1022.578, 7429.235
1023.060, 6997.325
1023.542, 6508.919
1024.024, 6008.835
1024.506, 5502.656
1024.988, 5013.532
1025.470, 4526.332
1025.952, 4087.937
1026.435, 3728.644
1026.917, 3417.864
1027.399, 3127.231
1027.881, 2869.415
1028.363, 2681.209
1028.845, 2575.969
1029.327, 2469.229
1029.809, 2335.405
1030.292, 2212.797
1030.774, 2110.645
1031.256, 2023.329
1031.738, 1948.700
1032.220, 1885.249
1032.702, 1830.569
1033.184, 1784.359
1033.666, 1748.838
1034.148, 1728.880
1034.630, 1713.084
1035.113, 1708.077
1035.595, 1697.578
1036.077, 1665.817
1036.559, 1626.639
1037.041, 1601.850
1037.523, 1592.139
1038.005, 1579.470
1038.487, 1556.791
1038.970, 1542.506
1039.452, 1548.997
1039.934, 1548.944
1040.416, 1521.868
1040.898, 1489.532
1041.380, 1479.764
1041.862, 1490.275
1042.344, 1495.634
1042.826, 1495.615
1043.309, 1490.712
1043.791, 1479.611
1044.273, 1465.377
1044.755, 1443.644
1045.237, 1427.137
1045.719, 1431.662
1046.201, 1451.633
1046.683, 1460.198
1047.166, 1451.547
1047.648, 1452.367
1048.130, 1466.925
1048.612, 1478.425
1049.094, 1480.350
1049.576, 1481.634
1050.058, 1490.057
1050.540, 1503.058
1051.022, 1514.858
1051.505, 1526.285
1051.987, 1525.029
1052.469, 1506.991
1052.951, 1503.287
1053.433, 1522.857
1053.915, 1550.293
1054.397, 1577.749
1054.879, 1598.818
1055.361, 1594.864
1055.844, 1571.059
1056.326, 1595.865
1056.808, 1669.208
1057.290, 1726.645
1057.772, 1756.995
1058.254, 1791.882
1058.736, 1847.959
1059.218, 1914.379
1059.701, 1977.047
1060.183, 2037.849
1060.665, 2101.974
1061.147, 2170.036
1061.629, 2241.799
1062.111, 2318.732
1062.593, 2412.407
1063.075, 2526.809
1063.557, 2647.876
1064.040, 2764.861
1064.522, 2871.615
1065.004, 2955.206
1065.486, 3019.245
1065.968, 3079.279
1066.450, 3127.571
1066.932, 3130.817
1067.414, 3084.389
1067.896, 3021.838
1068.379, 2964.903
1068.861, 2905.847
1069.343, 2844.502
1069.825, 2769.285
1070.307, 2652.586
1070.789, 2513.465
1071.271, 2382.279
1071.753, 2268.813
1072.236, 2181.289
1072.718, 2125.697
1073.200, 2076.928
1073.682, 2016.755
1074.164, 1955.151
1074.646, 1897.995
1075.128, 1845.713
1075.610, 1794.112
1076.093, 1748.339
1076.575, 1724.244
1077.057, 1726.659
1077.539, 1726.098
1078.021, 1708.974
1078.503, 1687.202
1078.985, 1662.487
1079.467, 1638.858
1079.949, 1614.110
1080.432, 1594.997
1080.914, 1595.869
1081.396, 1616.888
1081.878, 1630.653
1082.360, 1625.568
1082.842, 1623.276
1083.324, 1622.253
1083.806, 1630.370
1084.288, 1657.820
1084.771, 1691.253
1085.253, 1715.689
1085.735, 1733.035
1086.217, 1753.019
1086.699, 1775.298
1087.181, 1801.167
1087.663, 1832.678
1088.145, 1864.104
1088.628, 1897.505
1089.110, 1923.078
1089.592, 1929.698
1090.074, 1928.623
1090.556, 1946.219
1091.038, 1983.586
1091.520, 2007.271
1092.002, 2016.214
1092.484, 2017.753
1092.967, 2013.500
1093.449, 1996.628
1093.931, 1961.409
1094.413, 1924.172
1094.895, 1908.340
1095.377, 1904.194
1095.859, 1871.600
1096.341, 1815.481
1096.823, 1776.196
1097.306, 1755.300
1097.788, 1731.263
1098.270, 1697.585
1098.752, 1667.499
1099.234, 1653.430
1099.716, 1641.014
1100.198, 1602.126
1100.680, 1552.135
1101.163, 1523.213
1101.645, 1509.958
1102.127, 1495.967
1102.609, 1479.008
1103.091, 1465.095
1103.573, 1457.236
1104.055, 1451.363
1104.537, 1449.721
1105.020, 1442.659
1105.502, 1412.133
1105.984, 1377.978
1106.466, 1364.770
1106.948, 1368.055
1107.430, 1377.051
1107.912, 1387.982
1108.394, 1386.807
1108.876, 1356.597
1109.359, 1330.262
1109.841, 1319.058
1110.323, 1316.591
1110.805, 1325.483
1111.287, 1336.513
1111.769, 1341.331
1112.251, 1338.674
1112.733, 1324.250
1113.215, 1284.936
1113.698, 1265.916
1114.180, 1279.768
1114.662, 1296.545
1115.144, 1319.315
1115.626, 1328.695
1116.108, 1304.095
1116.590, 1265.293
1117.072, 1249.331
1117.555, 1256.314
1118.037, 1265.434
1118.519, 1277.595
1119.001, 1287.406
1119.483, 1294.804
1119.965, 1295.494
1120.447, 1287.103
1120.929, 1275.080
1121.411, 1264.905
1121.894, 1255.709
1122.376, 1244.093
1122.858, 1231.460
1123.340, 1225.209
1123.822, 1225.023
1124.304, 1227.376
1124.786, 1231.443
1125.268, 1239.284
1125.750, 1252.485
1126.233, 1262.581
1126.715, 1255.849
1127.197, 1243.807
1127.679, 1242.102
1128.161, 1246.364
1128.643, 1252.121
1129.125, 1256.672
1129.607, 1255.592
1130.090, 1248.003
1130.572, 1237.453
1131.054, 1222.058
1131.536, 1210.604
1132.018, 1204.539
1132.500, 1207.319
1132.982, 1232.346
1133.464, 1259.521
1133.947, 1262.167
1134.429, 1244.911
1134.911, 1234.237
1135.393, 1237.204
1135.875, 1233.389
1136.357, 1210.207
1136.839, 1196.867
1137.321, 1203.569
1137.803, 1213.818
1138.286, 1220.951
1138.768, 1222.763
1139.250, 1213.595
1139.732, 1195.795
1140.214, 1192.823
1140.696, 1207.060
1141.178, 1218.243
1141.660, 1225.126
1142.142, 1227.743
1142.625, 1225.807
1143.107, 1225.094
1143.589, 1230.860
1144.071, 1236.466
1144.553, 1226.378
1145.035, 1208.067
1145.517, 1205.619
1145.999, 1214.591
1146.482, 1223.431
1146.964, 1228.729
1147.446, 1223.274
1147.928, 1205.591
1148.410, 1194.586
1148.892, 1211.210
1149.374, 1228.195
1149.856, 1214.904
1150.339, 1196.275
1150.821, 1203.539
1151.303, 1218.540
1151.785, 1209.019
1152.267, 1177.787
1152.749, 1152.531
1153.231, 1137.575
1153.713, 1138.574
1154.195, 1175.764
1154.677, 1202.679
1155.160, 1195.861
1155.642, 1185.193
1156.124, 1191.876
1156.606, 1203.613
1157.088, 1201.596
1157.570, 1187.280
1158.052, 1177.792
1158.534, 1173.679
1159.017, 1172.391
1159.499, 1174.396
1159.981, 1175.765
1160.463, 1175.240
1160.945, 1174.586
1161.427, 1175.091
1161.909, 1176.231
1162.391, 1179.018
1162.874, 1180.996
1163.356, 1170.327
1163.838, 1152.303
1164.320, 1145.274
1164.802, 1148.636
1165.284, 1149.850
1165.766, 1145.464
1166.248, 1144.219
1166.730, 1152.689
1167.213, 1164.228
1167.695, 1182.471
1168.177, 1191.877
1168.659, 1164.049
1169.141, 1129.591
1169.623, 1133.453
1170.105, 1164.052
1170.587, 1176.207
1171.069, 1159.440
1171.552, 1146.016
1172.034, 1142.976
1172.516, 1141.130
1172.998, 1139.973
1173.480, 1138.224
1173.962, 1133.235
1174.444, 1130.751
1174.926, 1139.032
1175.409, 1152.882
1175.891, 1152.329
1176.373, 1135.689
1176.855, 1130.803
1177.337, 1138.079
1177.819, 1135.708
1178.301, 1119.980
1178.783, 1108.496
1179.266, 1109.805
1179.748, 1118.991
1180.230, 1134.935
1180.712, 1147.926
1181.194, 1132.521
1181.676, 1109.424
1182.158, 1119.522
1182.640, 1148.691
1183.122, 1165.968
1183.604, 1166.406
1184.087, 1154.966
1184.569, 1130.780
1185.051, 1115.833
1185.533, 1129.783
1186.015, 1141.957
1186.497, 1137.759
1186.979, 1129.114
1187.461, 1121.380
1187.944, 1116.366
1188.426, 1117.995
1188.908, 1124.427
1189.390, 1123.962
1189.872, 1113.189
1190.354, 1107.950
1190.836, 1109.509
1191.318, 1110.625
1191.801, 1109.345
1192.283, 1110.962
1192.765, 1119.115
1193.247, 1126.305
1193.729, 1122.112
1194.211, 1111.641
1194.693, 1106.066
1195.175, 1104.812
1195.657, 1108.048
1196.140, 1113.792
1196.622, 1116.613
1197.104, 1116.124
1197.586, 1115.240
1198.068, 1114.635
1198.550, 1120.215
1199.032, 1147.877
1199.514, 1166.931
1199.996, 1151.293
1200.479, 1129.102
1200.961, 1119.115
1201.443, 1119.007
1201.925, 1128.291
1202.407, 1143.786
1202.889, 1144.638
1203.371, 1124.646
1203.853, 1109.126
1204.336, 1097.078
1204.818, 1093.755
1205.300, 1101.964
1205.782, 1111.011
1206.264, 1115.192
1206.746, 1117.214
1207.228, 1119.408
1207.710, 1123.613
1208.193, 1139.094
1208.675, 1158.782
1209.157, 1158.145
1209.639, 1144.021
1210.121, 1141.698
1210.603, 1151.082
1211.085, 1148.923
1211.567, 1125.662
1212.049, 1107.001
1212.531, 1113.520
1213.014, 1122.280
1213.496, 1121.102
1213.978, 1117.960
1214.460, 1117.055
1214.942, 1118.401
1215.424, 1123.852
1215.906, 1131.060
1216.388, 1131.080
1216.871, 1121.859
1217.353, 1118.009
1217.835, 1119.795
1218.317, 1127.736
1218.799, 1143.952
1219.281, 1151.026
1219.763, 1141.276
1220.245, 1126.026
1220.728, 1114.688
1221.210, 1107.608
1221.692, 1105.590
1222.174, 1108.197
1222.656, 1119.429
1223.138, 1132.177
1223.620, 1127.136
1224.102, 1110.986
1224.584, 1109.017
1225.067, 1126.702
1225.549, 1144.682
1226.031, 1160.899
1226.513, 1163.812
1226.995, 1136.110
1227.477, 1111.694
1227.959, 1101.664
1228.441, 1105.203
1228.923, 1130.146
1229.406, 1159.493
1229.888, 1161.793
1230.370, 1140.359
1230.852, 1132.521
1231.334, 1138.982
1231.816, 1140.578
1232.298, 1136.457
1232.780, 1136.412
1233.263, 1142.169
1233.745, 1141.131
1234.227, 1125.708
1234.709, 1113.366
1235.191, 1128.397
1235.673, 1148.723
1236.155, 1151.165
1236.637, 1144.487
1237.120, 1132.668
1237.602, 1122.240
1238.084, 1124.113
1238.566, 1135.914
1239.048, 1143.227
1239.530, 1141.944
1240.012, 1144.239
1240.494, 1158.421
1240.976, 1159.356
1241.458, 1135.143
1241.941, 1122.001
1242.423, 1138.208
1242.905, 1158.930
##END=



