##NAMES=Marialite
##RRUFFID=R060458
##IDEAL CHEMISTRY=Na_4_Al_3_Si_9_O_24_Cl
##LOCALITY=Dading, Nepal
##OWNER=RRUFF
##SOURCE=Michael Scott
##DESCRIPTION=Colorless elongated prism
##STATUS=The identification of this mineral has been confirmed by X-ray diffraction and chemical analysis
##URL=rruff.info/R060458
##MEASURED CHEMISTRY=(Na_0.52_Ca_0.47_K_0.01_)_4_(Al_0.36_Si_0.64_)_12_O_24_(Cl_0.44_(CO_3_)_0.56_)
92.10938, 8.162068
92.59149, 7.938195
93.07361, 8.057186
93.55573, 8.487349
94.03784, 8.828244
94.51996, 8.614285
95.00208, 7.996305
95.48419, 7.504682
95.96631, 7.323355
96.44843, 7.378284
96.93054, 7.472969
97.41266, 7.607404
97.89478, 7.776636
98.37689, 7.983494
98.85901, 8.224688
99.34113, 8.478349
99.82324, 8.762188
100.3054, 9.073780
100.7875, 9.268627
101.2696, 9.292170
101.7517, 9.269780
102.2338, 9.435239
102.7159, 9.812481
103.1981, 10.30911
103.6802, 10.88678
104.1623, 11.55791
104.6444, 12.28000
105.1265, 13.02836
105.6086, 13.82787
106.0908, 14.82397
106.5729, 16.13347
107.0550, 17.49391
107.5371, 18.73063
108.0192, 19.57765
108.5013, 20.71356
108.9835, 22.21801
109.4656, 24.08206
109.9477, 26.16535
110.4298, 28.38602
110.9119, 30.87694
111.3940, 33.78557
111.8762, 37.19300
112.3583, 40.90409
112.8404, 44.86942
113.3225, 49.04995
113.8046, 53.70625
114.2867, 59.46526
114.7689, 65.58401
115.2510, 71.20367
115.7331, 75.82640
116.2152, 80.23551
116.6973, 84.71534
117.1794, 89.36011
117.6616, 93.78863
118.1437, 97.60374
118.6258, 101.1676
119.1079, 104.9478
119.5900, 109.1608
120.0721, 113.6807
120.5543, 118.3753
121.0364, 123.1134
121.5185, 128.2784
122.0006, 134.2574
122.4827, 140.9084
122.9648, 147.9191
123.4470, 154.9879
123.9291, 162.2979
124.4112, 169.9970
124.8933, 178.0435
125.3754, 186.6024
125.8575, 196.0812
126.3397, 206.3625
126.8218, 216.7686
127.3039, 226.6926
127.7860, 236.3141
128.2681, 245.9788
128.7502, 256.2038
129.2324, 266.2551
129.7145, 274.5554
130.1966, 281.1431
130.6787, 287.0538
131.1608, 293.7346
131.6429, 300.7533
132.1251, 306.2509
132.6072, 309.0804
133.0893, 309.9122
133.5714, 311.2406
134.0535, 313.2104
134.5356, 315.0106
135.0178, 315.2534
135.4999, 313.8918
135.9820, 313.0396
136.4641, 313.6706
136.9462, 315.7487
137.4283, 317.6443
137.9105, 319.2432
138.3926, 320.8922
138.8747, 323.1319
139.3568, 326.0341
139.8389, 329.3264
140.3210, 332.9911
140.8032, 337.1569
141.2853, 341.0305
141.7674, 344.2492
142.2495, 347.3743
142.7316, 351.6134
143.2137, 356.5239
143.6959, 359.3080
144.1780, 360.6194
144.6601, 359.7820
145.1422, 359.3986
145.6243, 359.8273
146.1064, 360.7656
146.5886, 361.0494
147.0707, 360.4637
147.5528, 359.5021
148.0349, 358.4746
148.5170, 357.8163
148.9991, 356.4032
149.4813, 353.6573
149.9634, 349.7857
150.4455, 346.9997
150.9276, 346.4136
151.4097, 346.1005
151.8918, 344.9047
152.3740, 341.4481
152.8561, 338.6390
153.3382, 336.8087
153.8203, 335.9381
154.3024, 335.4105
154.7845, 335.5728
155.2667, 335.8542
155.7488, 335.8282
156.2309, 335.0987
156.7130, 334.4002
157.1951, 333.7406
157.6772, 333.1015
158.1594, 333.0159
158.6415, 334.2557
159.1236, 335.8400
159.6057, 336.8141
160.0878, 336.2635
160.5699, 335.6681
161.0521, 335.8061
161.5342, 336.8857
162.0163, 337.2207
162.4984, 335.6577
162.9805, 333.1672
163.4626, 330.9751
163.9448, 330.2583
164.4269, 329.3909
164.9090, 327.3658
165.3911, 323.9144
165.8732, 320.3426
166.3553, 317.4770
166.8375, 314.9050
167.3196, 311.9440
167.8017, 307.7631
168.2838, 303.4142
168.7659, 299.7656
169.2480, 297.1336
169.7302, 294.3375
170.2123, 290.1748
170.6944, 285.2013
171.1765, 280.7440
171.6586, 277.7195
172.1407, 275.3803
172.6229, 272.9405
173.1050, 270.2287
173.5871, 267.5532
174.0692, 265.2765
174.5513, 263.2878
175.0334, 261.2931
175.5156, 258.9976
175.9977, 256.6068
176.4798, 254.4539
176.9619, 252.5415
177.4440, 250.9054
177.9261, 249.5713
178.4083, 248.5455
178.8904, 247.8903
179.3725, 248.0268
179.8546, 248.5260
180.3367, 248.5032
180.8188, 247.6197
181.3010, 246.4698
181.7831, 245.9024
182.2652, 245.8617
182.7473, 245.8706
183.2294, 245.3775
183.7115, 244.6416
184.1937, 244.4318
184.6758, 245.0107
185.1579, 246.0415
185.6400, 247.0639
186.1221, 248.0661
186.6042, 248.9733
187.0864, 249.5556
187.5685, 249.9342
188.0506, 250.6812
188.5327, 252.1559
189.0148, 253.8694
189.4969, 254.7559
189.9791, 254.7908
190.4612, 254.4877
190.9433, 254.0989
191.4254, 253.6672
191.9075, 253.5828
192.3896, 254.1615
192.8718, 255.0298
193.3539, 254.9721
193.8360, 253.8916
194.3181, 252.6505
194.8002, 251.9762
195.2823, 251.8533
195.7645, 252.0229
196.2466, 252.6178
196.7287, 253.4160
197.2108, 253.3910
197.6929, 252.3970
198.1750, 251.2249
198.6572, 250.6924
199.1393, 250.8355
199.6214, 250.7968
200.1035, 250.3013
200.5856, 249.4444
201.0677, 248.8167
201.5499, 248.4380
202.0320, 248.2064
202.5141, 248.0901
202.9962, 248.1255
203.4783, 248.0149
203.9604, 247.6955
204.4426, 247.1789
204.9247, 246.4579
205.4068, 245.4430
205.8889, 244.4810
206.3710, 243.9847
206.8531, 244.0585
207.3353, 244.0605
207.8174, 243.7349
208.2995, 243.1405
208.7816, 243.1380
209.2637, 243.8945
209.7458, 244.9119
210.2280, 245.5768
210.7101, 245.6604
211.1922, 246.2637
211.6743, 247.9042
212.1564, 250.5053
212.6385, 252.1139
213.1207, 252.3779
213.6028, 252.1898
214.0849, 252.4696
214.5670, 253.3522
215.0491, 254.2644
215.5313, 255.0128
216.0134, 255.6058
216.4955, 256.6938
216.9776, 258.6273
217.4597, 260.5883
217.9418, 261.7105
218.4239, 261.7190
218.9061, 261.5800
219.3882, 261.5122
219.8703, 261.5181
220.3524, 261.2310
220.8345, 260.4420
221.3166, 259.6198
221.7988, 259.2584
222.2809, 259.5505
222.7630, 259.8610
223.2451, 260.0451
223.7272, 260.1023
224.2093, 260.2658
224.6915, 260.5597
225.1736, 260.9388
225.6557, 261.3937
226.1378, 262.0976
226.6199, 262.5210
227.1020, 262.5136
227.5842, 262.0737
228.0663, 261.6470
228.5484, 261.3534
229.0305, 260.9354
229.5126, 260.1133
229.9947, 258.6620
230.4769, 257.2555
230.9590, 255.9319
231.4411, 254.6969
231.9232, 253.8504
232.4053, 253.6331
232.8874, 253.5350
233.3696, 253.0871
233.8517, 252.0925
234.3338, 251.1436
234.8159, 250.3839
235.2980, 249.8013
235.7801, 249.0106
236.2623, 247.8147
236.7444, 246.6295
237.2265, 245.7879
237.7086, 245.3277
238.1907, 245.1532
238.6728, 245.3355
239.1550, 245.8506
239.6371, 246.2541
240.1192, 246.4033
240.6013, 246.5988
241.0834, 247.1113
241.5655, 248.1751
242.0477, 249.0515
242.5298, 249.4770
243.0119, 249.5382
243.4940, 250.1891
243.9761, 251.7156
244.4582, 253.4885
244.9404, 255.0333
245.4225, 256.0999
245.9046, 257.4445
246.3867, 259.1572
246.8688, 261.2211
247.3509, 263.5318
247.8331, 266.1273
248.3152, 268.9217
248.7973, 271.9105
249.2794, 275.3298
249.7615, 278.4339
250.2436, 280.8983
250.7258, 282.9767
251.2079, 285.8741
251.6900, 290.0055
252.1721, 294.3696
252.6542, 298.3249
253.1363, 301.3695
253.6185, 305.1256
254.1006, 309.7785
254.5827, 315.1774
255.0648, 320.8057
255.5469, 326.7973
256.0291, 332.7085
256.5112, 338.3307
256.9933, 343.7428
257.4754, 348.6740
257.9575, 352.8377
258.4396, 356.6208
258.9218, 361.1094
259.4039, 366.9264
259.8860, 372.3864
260.3681, 376.7948
260.8502, 380.1042
261.3323, 382.5408
261.8145, 384.1617
262.2966, 384.8735
262.7787, 384.4246
263.2608, 382.6142
263.7429, 380.0308
264.2250, 376.9496
264.7072, 373.5547
265.1893, 368.9063
265.6714, 362.7442
266.1535, 355.5645
266.6356, 348.2355
267.1177, 340.6766
267.5999, 332.9712
268.0820, 325.0425
268.5641, 316.7109
269.0462, 309.0253
269.5283, 301.9219
270.0104, 295.4448
270.4926, 289.6278
270.9747, 284.5990
271.4568, 279.6066
271.9389, 274.2962
272.4210, 268.5981
272.9031, 263.5997
273.3853, 259.2696
273.8674, 255.6935
274.3495, 253.2655
274.8316, 252.1664
275.3137, 251.1926
275.7958, 250.0352
276.2780, 248.7058
276.7601, 247.2896
277.2422, 245.7186
277.7243, 244.2218
278.2064, 243.0854
278.6885, 242.3481
279.1707, 241.5705
279.6528, 240.4819
280.1349, 239.2693
280.6170, 239.0078
281.0991, 239.8329
281.5812, 241.0763
282.0634, 242.3541
282.5455, 243.7030
283.0276, 244.3887
283.5097, 244.0449
283.9918, 243.0858
284.4739, 242.7323
284.9561, 242.9924
285.4382, 243.7954
285.9203, 245.2443
286.4024, 247.2908
286.8845, 249.4156
287.3666, 251.6023
287.8488, 253.7107
288.3309, 255.2071
288.8130, 256.0671
289.2951, 257.2120
289.7772, 259.4982
290.2593, 262.6881
290.7415, 265.4218
291.2236, 267.3789
291.7057, 269.2226
292.1878, 272.1428
292.6699, 276.0624
293.1520, 280.0329
293.6342, 283.4116
294.1163, 286.4092
294.5984, 289.7623
295.0805, 293.6822
295.5626, 297.3470
296.0447, 300.1126
296.5269, 301.8979
297.0090, 302.3004
297.4911, 300.8534
297.9732, 297.9160
298.4553, 294.3134
298.9374, 290.0929
299.4196, 284.9759
299.9017, 277.9047
300.3838, 269.6401
300.8659, 262.3261
301.3480, 257.1922
301.8301, 253.3603
302.3123, 249.6125
302.7944, 245.9260
303.2765, 242.5935
303.7586, 239.8832
304.2407, 237.6644
304.7228, 235.6431
305.2050, 233.7759
305.6871, 232.0449
306.1692, 230.3989
306.6513, 228.8580
307.1334, 227.6761
307.6155, 227.3174
308.0977, 227.3034
308.5798, 226.9960
309.0619, 226.1071
309.5440, 225.1347
310.0261, 224.4533
310.5082, 224.0123
310.9904, 223.6616
311.4725, 223.3549
311.9546, 223.0776
312.4367, 222.8430
312.9188, 222.6980
313.4009, 222.4524
313.8831, 221.9068
314.3652, 221.1863
314.8473, 220.5202
315.3294, 219.8451
315.8115, 219.3653
316.2936, 219.2629
316.7758, 219.6020
317.2579, 219.9973
317.7400, 220.3582
318.2221, 220.6613
318.7042, 220.8842
319.1863, 221.0691
319.6685, 221.1301
320.1506, 220.9520
320.6327, 220.5275
321.1148, 220.2242
321.5969, 220.2952
322.0790, 220.4599
322.5612, 220.4843
323.0433, 219.6875
323.5254, 219.4018
324.0075, 220.3985
324.4896, 222.4412
324.9717, 223.6922
325.4539, 223.1201
325.9360, 222.1872
326.4181, 221.7105
326.9002, 221.8166
327.3823, 222.3034
327.8644, 223.5635
328.3466, 225.2548
328.8287, 226.3255
329.3108, 225.8745
329.7929, 225.5799
330.2750, 226.1086
330.7571, 228.0676
331.2393, 229.4749
331.7214, 230.0967
332.2035, 230.2528
332.6856, 230.4381
333.1677, 230.6198
333.6498, 230.8730
334.1320, 231.1978
334.6141, 231.5700
335.0962, 232.1402
335.5783, 232.9220
336.0604, 233.8884
336.5425, 235.0521
337.0247, 236.5078
337.5068, 237.9548
337.9889, 239.4509
338.4710, 240.9349
338.9531, 241.8671
339.4352, 242.1106
339.9173, 242.1376
340.3994, 242.2988
340.8816, 242.6208
341.3637, 242.8998
341.8458, 243.0415
342.3279, 243.1862
342.8100, 243.8381
343.2921, 245.0851
343.7743, 246.2190
344.2564, 246.5479
344.7385, 246.1504
345.2206, 246.6351
345.7027, 248.2505
346.1848, 250.3609
346.6670, 251.5085
347.1491, 251.8344
347.6312, 253.5403
348.1133, 259.5478
348.5954, 267.7936
349.0775, 270.6335
349.5597, 267.7007
350.0418, 263.4641
350.5239, 262.2474
351.0060, 263.4586
351.4881, 265.4028
351.9702, 267.8849
352.4524, 270.5181
352.9345, 272.2628
353.4166, 273.2870
353.8987, 275.1053
354.3808, 280.3573
354.8629, 286.7154
355.3451, 290.2614
355.8272, 289.1962
356.3093, 287.2059
356.7914, 287.4948
357.2735, 289.5089
357.7556, 291.7430
358.2378, 293.6151
358.7199, 295.1958
359.2020, 296.5125
359.6841, 297.5529
360.1662, 298.4150
360.6483, 299.3672
361.1305, 300.1254
361.6126, 300.2916
362.0947, 299.7686
362.5768, 298.5790
363.0589, 296.5652
363.5410, 293.7408
364.0232, 290.7715
364.5053, 287.6581
364.9874, 284.6097
365.4695, 281.7886
365.9516, 279.4499
366.4337, 277.0985
366.9159, 274.2516
367.3980, 271.1971
367.8801, 269.0733
368.3622, 268.9603
368.8443, 269.0827
369.3264, 268.6529
369.8086, 267.1365
370.2907, 265.9643
370.7728, 265.1910
371.2549, 264.7391
371.7370, 264.5031
372.2191, 264.5807
372.7013, 264.7302
373.1834, 264.8109
373.6655, 264.7657
374.1476, 265.3265
374.6297, 266.9730
375.1118, 268.6259
375.5940, 269.0163
376.0761, 267.4732
376.5582, 266.8743
377.0403, 267.9940
377.5224, 270.3828
378.0045, 272.1430
378.4867, 273.1965
378.9688, 273.8065
379.4509, 274.0211
379.9330, 273.8306
380.4151, 273.6743
380.8972, 273.5685
381.3794, 273.5406
381.8615, 273.6639
382.3436, 273.9349
382.8257, 274.2259
383.3078, 274.6573
383.7899, 275.0730
384.2721, 274.7653
384.7542, 273.6638
385.2363, 272.6074
385.7184, 272.7639
386.2005, 273.6549
386.6826, 273.8990
387.1648, 272.6119
387.6469, 270.9636
388.1290, 270.6523
388.6111, 271.4528
389.0932, 272.0612
389.5753, 271.5284
390.0575, 270.3785
390.5396, 269.2064
391.0217, 268.1018
391.5038, 266.9998
391.9859, 265.7174
392.4680, 264.4177
392.9502, 263.3802
393.4323, 262.9460
393.9144, 262.6447
394.3965, 262.1521
394.8786, 261.4281
395.3607, 260.8966
395.8429, 260.7907
396.3250, 260.8998
396.8071, 261.0344
397.2892, 261.2803
397.7713, 261.4101
398.2534, 261.2589
398.7356, 260.9089
399.2177, 260.7584
399.6998, 260.9686
400.1819, 261.2916
400.6640, 261.6528
401.1461, 262.2159
401.6283, 262.4556
402.1104, 261.9522
402.5925, 261.3179
403.0746, 261.5491
403.5567, 263.1912
404.0388, 264.7071
404.5210, 265.6700
405.0031, 266.0781
405.4852, 266.5223
405.9673, 266.9557
406.4494, 267.5175
406.9315, 268.3860
407.4137, 269.6189
407.8958, 270.7202
408.3779, 271.5486
408.8600, 272.2796
409.3421, 273.3875
409.8242, 274.8879
410.3064, 276.4716
410.7885, 277.8826
411.2706, 279.2204
411.7527, 281.0098
412.2348, 283.3415
412.7169, 285.7611
413.1991, 287.5952
413.6812, 289.0390
414.1633, 290.6839
414.6454, 292.7895
415.1275, 295.1677
415.6096, 297.5778
416.0918, 300.0094
416.5739, 302.5571
417.0560, 305.2935
417.5381, 308.1764
418.0202, 311.1990
418.5023, 314.4104
418.9845, 317.6093
419.4666, 321.0135
419.9487, 324.2791
420.4308, 326.6772
420.9129, 327.4716
421.3951, 327.7442
421.8772, 328.2676
422.3593, 329.1668
422.8414, 328.9594
423.3235, 326.3503
423.8056, 322.9499
424.2878, 320.0734
424.7699, 319.0361
425.2520, 317.2261
425.7341, 313.7583
426.2162, 309.2086
426.6983, 305.4704
427.1805, 302.7311
427.6626, 300.6358
428.1447, 299.0882
428.6268, 298.2009
429.1089, 297.4933
429.5910, 296.9764
430.0732, 296.6167
430.5553, 296.3823
431.0374, 296.2995
431.5195, 296.1872
432.0016, 295.8221
432.4837, 295.4124
432.9659, 296.0524
433.4480, 297.8502
433.9301, 300.0061
434.4122, 301.9625
434.8943, 303.7653
435.3764, 305.7012
435.8586, 307.7548
436.3407, 310.0900
436.8228, 313.0890
437.3049, 316.6376
437.7870, 320.1588
438.2691, 323.1645
438.7513, 326.1319
439.2334, 329.6469
439.7155, 333.7168
440.1976, 338.3939
440.6797, 344.3443
441.1618, 350.6915
441.6440, 356.2603
442.1261, 360.0626
442.6082, 364.2390
443.0903, 370.1871
443.5724, 377.4082
444.0545, 384.8266
444.5367, 392.0379
445.0188, 399.3402
445.5009, 406.8907
445.9830, 414.6031
446.4651, 422.7708
446.9472, 431.5122
447.4294, 440.7163
447.9115, 450.1776
448.3936, 459.4482
448.8757, 469.6269
449.3578, 481.3028
449.8399, 493.8651
450.3221, 505.9570
450.8042, 517.2581
451.2863, 528.6481
451.7684, 540.7955
452.2505, 554.0179
452.7326, 566.2853
453.2148, 577.8925
453.6969, 587.8824
454.1790, 594.6284
454.6611, 598.1251
455.1432, 599.9940
455.6253, 600.2902
456.1075, 599.4280
456.5896, 598.5540
457.0717, 597.6420
457.5538, 596.0938
458.0359, 592.8282
458.5180, 588.7104
459.0002, 585.8671
459.4823, 584.6329
459.9644, 583.7376
460.4465, 582.5349
460.9286, 580.7313
461.4107, 577.7910
461.8929, 573.4544
462.3750, 567.9608
462.8571, 561.2721
463.3392, 553.4725
463.8213, 545.2420
464.3034, 536.8619
464.7856, 528.0952
465.2677, 518.6915
465.7498, 508.4132
466.2319, 498.0754
466.7140, 488.0652
467.1961, 478.0843
467.6783, 467.6108
468.1604, 455.3221
468.6425, 444.0292
469.1246, 434.3594
469.6067, 426.2099
470.0888, 418.4340
470.5710, 411.1557
471.0531, 404.0733
471.5352, 396.9774
472.0173, 389.6125
472.4994, 382.9562
472.9815, 377.1346
473.4637, 371.8477
473.9458, 366.6047
474.4279, 361.3397
474.9100, 356.8577
475.3921, 353.8030
475.8742, 351.5529
476.3564, 347.9577
476.8385, 343.0343
477.3206, 338.2583
477.8027, 334.7528
478.2848, 332.2343
478.7669, 330.3405
479.2491, 329.1811
479.7312, 327.9171
480.2133, 325.4779
480.6954, 322.3835
481.1775, 319.5949
481.6596, 317.6325
482.1418, 316.0414
482.6239, 314.6071
483.1060, 313.3133
483.5881, 312.1341
484.0702, 311.1729
484.5523, 310.2285
485.0345, 309.1503
485.5166, 307.8051
485.9987, 306.6081
486.4808, 305.9101
486.9629, 305.3091
487.4450, 304.2424
487.9272, 302.1518
488.4093, 300.3913
488.8914, 299.2108
489.3735, 298.5686
489.8556, 298.1880
490.3377, 298.1985
490.8199, 298.1769
491.3020, 297.7577
491.7841, 296.8734
492.2662, 296.6119
492.7483, 297.2302
493.2304, 297.8839
493.7126, 297.0174
494.1947, 294.8827
494.6768, 293.5194
495.1589, 293.8862
495.6410, 295.1289
496.1231, 295.8342
496.6053, 296.0587
497.0874, 296.1373
497.5695, 296.2778
498.0516, 296.3966
498.5337, 296.3746
499.0158, 296.1743
499.4980, 295.9691
499.9801, 295.9474
500.4622, 295.9491
500.9443, 295.7837
501.4264, 295.1196
501.9085, 294.5771
502.3907, 294.3308
502.8728, 294.3582
503.3549, 294.5395
503.8370, 295.2696
504.3191, 295.7749
504.8012, 295.6034
505.2834, 294.3955
505.7655, 294.1938
506.2476, 295.5517
506.7297, 297.2888
507.2118, 298.2359
507.6939, 298.1909
508.1761, 298.1277
508.6582, 298.1293
509.1403, 298.2442
509.6224, 298.5561
510.1045, 299.0608
510.5866, 299.8585
511.0688, 301.2711
511.5509, 303.0077
512.0330, 304.0737
512.5151, 304.4558
512.9973, 304.8280
513.4794, 305.7817
513.9615, 307.1089
514.4436, 308.4875
514.9257, 309.8393
515.4078, 311.2359
515.8900, 312.6667
516.3721, 314.1756
516.8542, 315.8482
517.3363, 317.8790
517.8184, 319.9454
518.3005, 321.7136
518.7827, 323.2025
519.2648, 325.3463
519.7469, 328.5432
520.2290, 332.2627
520.7111, 336.2709
521.1932, 340.8163
521.6754, 345.0266
522.1575, 348.6973
522.6396, 352.2267
523.1217, 356.1814
523.6038, 360.6157
524.0859, 365.2475
524.5681, 369.8606
525.0502, 374.6257
525.5323, 380.2879
526.0144, 386.8929
526.4965, 394.0046
526.9786, 401.5297
527.4608, 409.4300
527.9429, 417.3687
528.4250, 425.3736
528.9071, 433.7348
529.3892, 442.7661
529.8713, 452.3864
530.3535, 462.2646
530.8356, 472.3543
531.3177, 482.7878
531.7998, 493.9757
532.2819, 505.6179
532.7640, 516.4807
533.2462, 527.4544
533.7283, 536.6124
534.2104, 543.1783
534.6925, 546.9581
535.1746, 549.1182
535.6567, 550.5710
536.1389, 549.7410
536.6210, 545.5665
537.1031, 536.8508
537.5852, 527.3573
538.0673, 517.0764
538.5494, 506.0281
539.0316, 493.8926
539.5137, 480.3059
539.9958, 467.4265
540.4779, 456.0078
540.9600, 445.6663
541.4421, 435.0848
541.9243, 424.3434
542.4064, 414.2878
542.8885, 405.6265
543.3706, 398.1147
543.8527, 391.3412
544.3348, 385.2736
544.8170, 379.8962
545.2991, 375.3961
545.7812, 371.5228
546.2633, 367.9221
546.7454, 364.6120
547.2275, 361.4399
547.7097, 358.2212
548.1918, 355.0822
548.6739, 352.3712
549.1560, 350.4857
549.6381, 348.6838
550.1202, 346.6591
550.6024, 344.3892
551.0845, 342.6172
551.5666, 341.5750
552.0487, 340.7161
552.5308, 339.7088
553.0129, 338.5183
553.4951, 337.2672
553.9772, 335.8434
554.4593, 334.6076
554.9414, 334.2507
555.4235, 334.6892
555.9056, 334.9413
556.3878, 334.6826
556.8699, 334.1202
557.3520, 333.3499
557.8341, 332.4948
558.3162, 332.1117
558.7983, 333.1886
559.2805, 334.4811
559.7626, 334.6858
560.2447, 333.6945
560.7268, 332.6455
561.2089, 331.7402
561.6910, 331.1934
562.1732, 331.2413
562.6553, 332.7943
563.1374, 333.5792
563.6195, 332.6005
564.1016, 330.9125
564.5837, 330.0882
565.0659, 330.5494
565.5480, 331.0928
566.0301, 331.4882
566.5122, 331.7662
566.9943, 332.0473
567.4764, 332.3129
567.9586, 332.6595
568.4407, 333.3816
568.9228, 334.3070
569.4049, 334.2872
569.8870, 333.2285
570.3691, 332.0446
570.8513, 331.4597
571.3334, 331.4165
571.8155, 331.9510
572.2976, 333.4024
572.7797, 334.6270
573.2618, 334.4703
573.7440, 333.5325
574.2261, 332.8918
574.7082, 333.1203
575.1903, 333.5543
575.6724, 334.1182
576.1545, 334.7518
576.6367, 334.9813
577.1188, 334.2013
577.6009, 333.5834
578.0830, 333.6032
578.5651, 334.3657
579.0472, 335.2878
579.5294, 336.4984
580.0115, 337.6659
580.4936, 338.5338
580.9757, 339.1111
581.4578, 339.2531
581.9399, 338.8186
582.4221, 338.2303
582.9042, 338.1542
583.3863, 338.5023
583.8684, 338.9100
584.3505, 339.2774
584.8326, 339.5818
585.3148, 339.6512
585.7969, 339.5783
586.2789, 339.7961
586.7610, 340.9063
587.2432, 342.0986
587.7253, 342.7958
588.2074, 342.8654
588.6895, 342.9454
589.1716, 343.1687
589.6537, 343.4364
590.1359, 343.6611
590.6180, 343.7173
591.1001, 344.0209
591.5822, 344.8395
592.0643, 345.6786
592.5464, 345.4675
593.0286, 343.9933
593.5107, 343.1623
593.9928, 343.7584
594.4749, 345.1647
594.9570, 345.8001
595.4391, 345.7203
595.9213, 345.5052
596.4034, 345.2803
596.8855, 345.2372
597.3676, 345.8223
597.8497, 347.0411
598.3318, 348.0566
598.8140, 348.1840
599.2961, 347.9527
599.7782, 347.8307
600.2603, 348.0302
600.7424, 348.0443
601.2245, 347.4405
601.7067, 346.7000
602.1888, 346.4617
602.6709, 346.9731
603.1530, 347.5802
603.6351, 348.2984
604.1172, 349.0066
604.5994, 349.2451
605.0815, 348.8979
605.5636, 348.7006
606.0457, 349.0266
606.5278, 349.7502
607.0099, 350.3651
607.4921, 350.8719
607.9742, 351.4899
608.4563, 352.8056
608.9384, 354.1867
609.4205, 354.4732
609.9026, 353.3877
610.3848, 352.3954
610.8669, 352.6927
611.3490, 353.4535
611.8311, 353.8141
612.3132, 353.2035
612.7953, 352.6464
613.2775, 352.3691
613.7596, 352.2580
614.2417, 352.0865
614.7238, 351.7241
615.2059, 351.5091
615.6880, 351.5237
616.1702, 351.7329
616.6523, 351.9191
617.1344, 352.0341
617.6165, 352.4336
618.0986, 353.7046
618.5807, 355.4628
619.0629, 356.0573
619.5450, 355.4736
620.0271, 354.7011
620.5092, 354.3264
620.9913, 354.3484
621.4734, 354.8900
621.9556, 356.1417
622.4377, 357.2485
622.9198, 357.6936
623.4019, 357.7686
623.8840, 357.8105
624.3661, 357.8446
624.8483, 357.8963
625.3304, 357.9008
625.8125, 357.9295
626.2946, 358.1730
626.7767, 358.7392
627.2589, 359.2736
627.7410, 359.7013
628.2231, 360.0195
628.7052, 360.1301
629.1873, 360.0166
629.6694, 360.0050
630.1516, 360.4571
630.6337, 361.1439
631.1158, 361.5555
631.5979, 361.6706
632.0800, 361.5482
632.5621, 360.7339
633.0443, 359.9479
633.5264, 360.0629
634.0085, 361.5673
634.4906, 363.1033
634.9727, 364.3995
635.4548, 365.3630
635.9370, 365.8578
636.4191, 365.1901
636.9012, 365.0305
637.3833, 365.8909
637.8654, 367.1859
638.3475, 367.2640
638.8297, 365.6984
639.3118, 364.9539
639.7939, 366.1898
640.2760, 368.6971
640.7581, 370.1771
641.2402, 370.6797
641.7224, 370.7530
642.2045, 370.6338
642.6866, 370.3610
643.1687, 369.8691
643.6508, 369.1652
644.1329, 368.7204
644.6151, 368.7097
645.0972, 369.1292
645.5793, 370.1084
646.0614, 372.1291
646.5435, 373.5245
647.0256, 373.4128
647.5078, 372.9566
647.9899, 373.3001
648.4720, 375.0125
648.9541, 376.0381
649.4362, 375.9733
649.9183, 375.3821
650.4005, 375.3272
650.8826, 375.7983
651.3647, 376.2241
651.8468, 376.2621
652.3289, 376.3026
652.8110, 377.2911
653.2932, 378.9713
653.7753, 380.2350
654.2574, 379.6762
654.7395, 379.0894
655.2216, 380.1877
655.7037, 382.8941
656.1859, 384.8871
656.6680, 384.9309
657.1501, 384.5121
657.6322, 384.4034
658.1143, 384.6636
658.5964, 385.0800
659.0786, 385.8035
659.5607, 386.4842
660.0428, 386.8171
660.5249, 386.7957
661.0070, 386.6140
661.4891, 386.2285
661.9713, 385.9355
662.4534, 386.0867
662.9355, 386.6409
663.4176, 387.5919
663.8997, 389.3959
664.3818, 390.7709
664.8640, 389.9093
665.3461, 387.9033
665.8282, 386.8867
666.3103, 388.4213
666.7924, 390.2014
667.2745, 391.8358
667.7567, 393.1623
668.2388, 393.4471
668.7209, 391.7686
669.2030, 390.5232
669.6851, 390.6641
670.1672, 392.0882
670.6494, 393.2422
671.1315, 394.0991
671.6136, 394.9400
672.0957, 396.1510
672.5778, 397.4924
673.0599, 398.1689
673.5421, 398.1147
674.0242, 397.9849
674.5063, 398.0812
674.9884, 398.4777
675.4705, 399.4127
675.9526, 401.3677
676.4348, 402.6341
676.9169, 401.8758
677.3990, 400.4803
677.8811, 400.0524
678.3632, 401.7518
678.8453, 402.3451
679.3275, 401.0800
679.8096, 399.0658
680.2917, 398.4146
680.7738, 399.2188
681.2559, 400.2151
681.7380, 401.1297
682.2202, 401.9335
682.7023, 402.5922
683.1844, 403.0898
683.6665, 403.3298
684.1486, 402.7617
684.6307, 402.3153
685.1129, 402.9839
685.5950, 404.5534
686.0771, 405.7689
686.5592, 405.7466
687.0413, 405.6578
687.5234, 406.1449
688.0056, 407.2790
688.4877, 407.8889
688.9698, 407.5536
689.4519, 407.4332
689.9340, 408.6626
690.4161, 411.2677
690.8983, 412.0962
691.3804, 410.8589
691.8625, 409.4493
692.3446, 410.0297
692.8267, 411.7656
693.3088, 413.0482
693.7910, 413.5468
694.2731, 413.7193
694.7552, 413.4849
695.2373, 413.2693
695.7194, 413.5673
696.2015, 414.8557
696.6837, 416.2153
697.1658, 417.7116
697.6479, 419.1288
698.1300, 420.1133
698.6121, 420.5371
699.0942, 420.8486
699.5764, 421.0359
700.0585, 421.2560
700.5406, 421.9597
701.0227, 423.1055
701.5048, 424.2773
701.9869, 425.5086
702.4691, 426.4940
702.9512, 426.5623
703.4333, 425.9615
703.9154, 425.6313
704.3975, 426.2630
704.8796, 427.0920
705.3618, 427.7713
705.8439, 428.2832
706.3260, 428.6513
706.8081, 428.3402
707.2902, 428.5555
707.7723, 430.0594
708.2545, 432.9610
708.7366, 434.8072
709.2187, 435.4504
709.7008, 435.6801
710.1829, 436.2917
710.6650, 437.0060
711.1472, 436.6073
711.6293, 434.8939
712.1114, 433.6020
712.5935, 434.7139
713.0756, 436.7257
713.5577, 437.8328
714.0399, 437.1681
714.5220, 436.9973
715.0041, 438.7011
715.4862, 440.8531
715.9683, 441.9684
716.4504, 441.7128
716.9326, 440.9821
717.4147, 439.3448
717.8968, 437.9273
718.3789, 439.0687
718.8610, 442.6247
719.3431, 445.2277
719.8253, 445.8929
720.3074, 445.5353
720.7895, 445.1759
721.2716, 444.7549
721.7537, 444.1331
722.2358, 442.6431
722.7180, 441.5299
723.2001, 441.5346
723.6822, 442.4285
724.1643, 443.5596
724.6464, 445.2510
725.1285, 446.6432
725.6107, 447.4356
726.0928, 447.7712
726.5749, 448.4666
727.0570, 449.6474
727.5391, 450.3620
728.0212, 449.7672
728.5034, 448.5063
728.9855, 448.3539
729.4676, 449.2126
729.9497, 450.3723
730.4318, 451.6812
730.9139, 452.8532
731.3961, 453.5040
731.8782, 453.6149
732.3603, 454.0211
732.8424, 455.3333
733.3245, 456.6617
733.8066, 457.3964
734.2888, 457.2935
734.7709, 458.3970
735.2530, 461.2562
735.7351, 463.9190
736.2172, 464.6090
736.6993, 463.6387
737.1815, 462.8759
737.6636, 462.4148
738.1457, 462.4481
738.6278, 463.3816
739.1099, 464.8146
739.5920, 466.3506
740.0742, 468.0660
740.5563, 469.2986
741.0384, 469.1997
741.5205, 468.8118
742.0026, 469.1788
742.4847, 470.6525
742.9669, 472.3031
743.4490, 474.3939
743.9311, 476.2900
744.4132, 476.8927
744.8953, 476.2505
745.3774, 476.2741
745.8596, 477.3569
746.3417, 479.0961
746.8238, 481.3167
747.3059, 483.7635
747.7880, 485.9064
748.2701, 487.2509
748.7523, 488.6944
749.2344, 490.8640
749.7165, 493.4000
750.1986, 495.5784
750.6807, 497.2059
751.1628, 498.6944
751.6450, 499.9437
752.1271, 501.1713
752.6092, 502.8868
753.0913, 505.1166
753.5734, 507.4871
754.0555, 509.7606
754.5377, 512.1783
755.0198, 515.3674
755.5019, 519.0538
755.9840, 522.2863
756.4661, 524.0132
756.9482, 525.7314
757.4304, 528.4885
757.9125, 531.9951
758.3946, 535.2764
758.8767, 537.8271
759.3588, 540.5175
759.8409, 543.5241
760.3231, 546.8204
760.8052, 550.3911
761.2873, 554.2714
761.7694, 558.1951
762.2515, 562.1270
762.7336, 566.0614
763.2158, 570.0812
763.6979, 574.1747
764.1800, 578.0563
764.6621, 581.6639
765.1442, 584.9180
765.6263, 587.5960
766.1085, 589.7256
766.5906, 592.0389
767.0727, 595.2219
767.5548, 597.9716
768.0369, 599.6886
768.5190, 600.3903
769.0012, 601.3326
769.4833, 602.6774
769.9654, 603.2532
770.4475, 601.8691
770.9296, 599.2134
771.4117, 597.0685
771.8939, 595.4462
772.3760, 593.6542
772.8581, 591.2534
773.3402, 588.5162
773.8223, 585.7021
774.3044, 582.8747
774.7866, 579.5918
775.2687, 575.7034
775.7508, 571.4150
776.2329, 566.6826
776.7150, 561.3873
777.1971, 556.6305
777.6793, 552.4367
778.1614, 548.4568
778.6435, 544.5286
779.1256, 540.6020
779.6077, 536.5704
780.0898, 532.4062
780.5720, 528.3136
781.0541, 524.0674
781.5362, 520.1316
782.0183, 516.9394
782.5004, 514.5905
782.9825, 512.8054
783.4647, 511.9027
783.9468, 511.1471
784.4289, 509.9234
784.9110, 508.0891
785.3931, 507.1432
785.8752, 507.2808
786.3574, 507.4047
786.8395, 506.3923
787.3216, 504.5909
787.8037, 502.3424
788.2858, 499.5783
788.7679, 497.8480
789.2501, 499.2521
789.7322, 501.4197
790.2143, 502.2618
790.6964, 500.6858
791.1785, 499.5958
791.6606, 499.1864
792.1428, 499.1335
792.6249, 499.2750
793.1070, 499.6326
793.5891, 499.5277
794.0712, 498.7950
794.5533, 498.3891
795.0355, 500.0691
795.5176, 502.5153
795.9997, 503.1488
796.4818, 501.0380
796.9639, 499.4601
797.4460, 500.6792
797.9282, 502.7784
798.4103, 503.9731
798.8924, 503.6596
799.3745, 503.5005
799.8566, 503.4840
800.3387, 503.6412
800.8209, 504.0181
801.3030, 504.6112
801.7851, 505.4203
802.2672, 506.5011
802.7493, 507.4849
803.2314, 507.7460
803.7136, 507.7829
804.1957, 508.3626
804.6778, 509.9225
805.1599, 511.0696
805.6420, 510.9807
806.1241, 510.4702
806.6063, 510.2543
807.0884, 510.4278
807.5705, 510.6590
808.0526, 510.9948
808.5347, 511.2506
809.0168, 511.0969
809.4990, 510.6672
809.9811, 510.6797
810.4632, 511.3218
810.9453, 511.7194
811.4274, 510.4120
811.9095, 508.8536
812.3917, 508.8795
812.8738, 511.9204
813.3559, 513.5620
813.8380, 511.5199
814.3201, 509.2175
814.8022, 509.6794
815.2844, 513.6475
815.7665, 515.6643
816.2486, 515.2594
816.7307, 514.0864
817.2128, 513.5823
817.6949, 513.6387
818.1771, 514.0524
818.6592, 514.8036
819.1413, 515.8194
819.6234, 517.6813
820.1055, 519.4034
820.5876, 520.0614
821.0698, 518.8985
821.5519, 518.2493
822.0340, 518.2457
822.5161, 518.5786
822.9982, 519.1895
823.4803, 520.0477
823.9625, 520.0760
824.4446, 519.1345
824.9267, 518.4352
825.4088, 519.5386
825.8909, 521.3405
826.3730, 522.1954
826.8552, 521.7102
827.3373, 521.7863
827.8194, 523.9028
828.3015, 526.1497
828.7836, 527.2339
829.2657, 526.8631
829.7479, 526.9507
830.2300, 527.6942
830.7121, 528.2542
831.1942, 527.4279
831.6763, 525.8908
832.1584, 526.1767
832.6406, 528.3738
833.1227, 530.4116
833.6048, 530.4788
834.0869, 530.0193
834.5690, 530.2108
835.0511, 531.2758
835.5333, 532.0983
836.0154, 532.6555
836.4975, 532.8568
836.9796, 532.4230
837.4617, 531.3809
837.9438, 531.4741
838.4260, 532.7360
838.9081, 534.0271
839.3902, 534.4427
839.8723, 534.4453
840.3544, 534.6408
840.8365, 535.0421
841.3187, 535.4546
841.8008, 535.8032
842.2829, 536.1398
842.7650, 536.4268
843.2471, 536.6907
843.7292, 537.3118
844.2114, 538.4354
844.6935, 539.4576
845.1756, 540.0491
845.6577, 540.3359
846.1398, 540.7664
846.6219, 541.2808
847.1041, 541.5456
847.5862, 540.8238
848.0683, 540.2555
848.5504, 540.7353
849.0325, 542.1066
849.5146, 543.4803
849.9968, 544.7823
850.4789, 546.0038
850.9610, 547.2434
851.4431, 548.3582
851.9252, 548.6622
852.4073, 548.1876
852.8895, 547.9833
853.3716, 548.7167
853.8537, 549.6846
854.3358, 549.9186
854.8179, 549.7249
855.3000, 549.8229
855.7822, 550.6035
856.2643, 551.5692
856.7464, 552.9570
857.2285, 554.3029
857.7106, 554.5802
858.1927, 553.4901
858.6749, 552.7601
859.1570, 552.7527
859.6391, 553.2496
860.1212, 554.1512
860.6033, 555.2625
861.0854, 556.0618
861.5676, 556.2129
862.0497, 556.3720
862.5318, 557.0863
863.0139, 557.9525
863.4960, 558.3683
863.9781, 558.0392
864.4603, 557.7687
864.9424, 557.4160
865.4245, 557.4390
865.9066, 558.7075
866.3887, 560.9493
866.8708, 562.8098
867.3530, 564.0711
867.8351, 564.8943
868.3172, 565.0475
868.7993, 565.0537
869.2814, 565.5313
869.7635, 566.8693
870.2457, 567.8112
870.7278, 568.0007
871.2099, 568.0591
871.6920, 568.5095
872.1741, 569.3721
872.6563, 569.7913
873.1384, 569.7336
873.6205, 569.5085
874.1026, 568.9098
874.5847, 568.5488
875.0668, 569.7548
875.5490, 572.5724
876.0311, 574.2413
876.5132, 572.4077
876.9953, 570.4920
877.4774, 570.1556
877.9595, 571.3477
878.4417, 572.2704
878.9238, 572.8686
879.4059, 573.5350
879.8880, 574.6365
880.3701, 575.8736
880.8522, 576.4249
881.3344, 576.4988
881.8165, 576.9850
882.2986, 579.3053
882.7807, 581.1637
883.2628, 580.8856
883.7449, 579.1609
884.2271, 578.7813
884.7092, 580.4662
885.1913, 581.3168
885.6734, 580.1955
886.1555, 578.3176
886.6376, 578.5174
887.1198, 580.2556
887.6019, 581.6130
888.0840, 581.5901
888.5661, 581.4633
889.0482, 582.0164
889.5303, 583.0042
890.0125, 584.0726
890.4946, 585.8376
890.9767, 586.3411
891.4588, 584.7521
891.9409, 583.0159
892.4230, 584.3734
892.9052, 588.1345
893.3873, 589.7342
893.8694, 588.1794
894.3515, 586.4456
894.8336, 587.2783
895.3157, 589.1065
895.7979, 590.3622
896.2800, 590.5746
896.7621, 590.7955
897.2442, 590.7833
897.7263, 591.2114
898.2084, 592.9638
898.6906, 595.9475
899.1727, 597.0300
899.6548, 596.1949
900.1369, 595.0667
900.6190, 594.5983
901.1011, 594.6549
901.5833, 595.4350
902.0654, 596.8147
902.5475, 597.6057
903.0296, 596.1365
903.5117, 595.6686
903.9938, 597.8672
904.4760, 601.7945
904.9581, 602.6991
905.4402, 600.5204
905.9223, 598.9660
906.4044, 599.9759
906.8865, 601.9312
907.3687, 602.9566
907.8508, 603.3407
908.3329, 603.7050
908.8150, 603.9816
909.2971, 604.6495
909.7792, 606.1089
910.2614, 607.8127
910.7435, 609.0189
911.2256, 609.7415
911.7077, 609.7446
912.1898, 608.8334
912.6719, 607.8278
913.1541, 607.5399
913.6362, 607.8818
914.1183, 608.8967
914.6004, 610.9154
915.0825, 612.4102
915.5646, 612.2027
916.0468, 611.8552
916.5289, 612.5374
917.0110, 614.4842
917.4931, 615.4306
917.9752, 615.2463
918.4573, 615.1288
918.9395, 616.4682
919.4216, 618.2384
919.9037, 618.6027
920.3858, 617.6740
920.8679, 617.1248
921.3500, 618.0607
921.8322, 619.1005
922.3143, 619.5391
922.7964, 619.5927
923.2785, 620.5510
923.7606, 622.6241
924.2427, 623.9303
924.7249, 623.3851
925.2070, 622.2024
925.6891, 622.3796
926.1712, 623.4398
926.6533, 624.3221
927.1354, 624.2294
927.6176, 624.3558
928.0997, 625.1807
928.5818, 626.3305
929.0639, 627.5022
929.5460, 628.8457
930.0281, 629.0387
930.5103, 627.6403
930.9924, 626.4049
931.4745, 627.8804
931.9566, 630.6603
932.4387, 632.4399
932.9208, 632.7311
933.4030, 632.9972
933.8851, 633.9158
934.3672, 634.8874
934.8493, 635.5468
935.3314, 635.8922
935.8135, 636.1946
936.2957, 636.4194
936.7778, 636.9157
937.2599, 638.3252
937.7420, 639.9015
938.2241, 640.1805
938.7062, 639.5274
939.1884, 639.4073
939.6705, 641.0799
940.1526, 642.5958
940.6347, 643.3422
941.1168, 643.5500
941.5989, 643.7255
942.0811, 643.8903
942.5632, 643.6546
943.0453, 642.7189
943.5274, 641.9474
944.0095, 642.4082
944.4916, 643.7726
944.9738, 645.6469
945.4559, 648.4655
945.9380, 650.4699
946.4201, 650.6187
946.9022, 650.3281
947.3843, 650.5244
947.8665, 651.2176
948.3486, 652.2354
948.8307, 653.5867
949.3128, 654.9848
949.7949, 656.5590
950.2770, 657.8273
950.7592, 657.6735
951.2413, 656.3307
951.7234, 656.0740
952.2055, 658.9328
952.6876, 661.3926
953.1697, 662.4695
953.6519, 662.4612
954.1340, 662.0986
954.6161, 661.4261
955.0982, 661.3397
955.5803, 662.4238
956.0624, 663.7131
956.5446, 664.1780
957.0267, 664.2146
957.5088, 664.4133
957.9909, 664.6202
958.4730, 665.4915
958.9551, 667.2513
959.4373, 669.3467
959.9194, 671.4000
960.4015, 673.3547
960.8836, 674.8203
961.3657, 675.7482
961.8478, 676.2269
962.3300, 675.5517
962.8121, 675.0272
963.2942, 676.1323
963.7763, 678.9623
964.2584, 680.4842
964.7405, 679.9146
965.2227, 679.4537
965.7048, 680.1113
966.1869, 681.3020
966.6690, 681.1995
967.1511, 680.1273
967.6332, 679.4182
968.1154, 679.6105
968.5975, 680.3557
969.0796, 681.8593
969.5617, 683.6395
970.0438, 684.9202
970.5259, 685.2128
971.0081, 686.4511
971.4902, 689.1258
971.9723, 691.5596
972.4544, 691.1924
972.9365, 689.2995
973.4186, 688.9738
973.9008, 690.5195
974.3829, 692.2293
974.8650, 693.0627
975.3471, 693.9598
975.8292, 695.8111
976.3113, 698.4060
976.7935, 699.2175
977.2756, 697.9876
977.7577, 697.0441
978.2398, 697.3558
978.7219, 698.5615
979.2040, 700.6340
979.6862, 703.1135
980.1683, 704.9916
980.6504, 705.7404
981.1325, 706.0793
981.6146, 705.9414
982.0967, 705.6575
982.5789, 705.4404
983.0610, 705.2802
983.5431, 706.1394
984.0252, 708.2108
984.5073, 710.0373
984.9894, 709.5023
985.4716, 708.6449
985.9537, 710.1016
986.4358, 714.1922
986.9179, 716.1770
987.4000, 714.0066
987.8821, 712.5067
988.3643, 713.8228
988.8464, 716.8895
989.3285, 718.2847
989.8106, 718.3054
990.2927, 718.3676
990.7748, 719.1016
991.2570, 720.0089
991.7391, 720.7783
992.2212, 721.5236
992.7033, 722.4465
993.1854, 723.6345
993.6675, 724.7896
994.1497, 725.9484
994.6318, 726.8886
995.1139, 727.3057
995.5960, 727.3408
996.0781, 727.0020
996.5602, 726.3438
997.0424, 726.4992
997.5245, 729.0997
998.0066, 731.4846
998.4887, 732.3831
998.9708, 732.0736
999.4529, 731.6104
999.9351, 730.9578
1000.417, 731.0234
1000.899, 732.3981
1001.381, 734.0941
1001.864, 735.3672
1002.346, 736.0369
1002.828, 735.7070
1003.310, 732.9609
1003.792, 731.7680
1004.274, 733.0446
1004.756, 734.9495
1005.238, 736.0496
1005.720, 736.4043
1006.203, 736.4240
1006.685, 736.1374
1007.167, 735.8123
1007.649, 734.9719
1008.131, 734.7441
1008.613, 736.3979
1009.095, 739.5120
1009.577, 741.6049
1010.060, 742.4200
1010.542, 742.7872
1011.024, 742.7549
1011.506, 742.6351
1011.988, 742.9574
1012.470, 743.5644
1012.952, 744.0873
1013.434, 744.3220
1013.916, 744.8376
1014.399, 746.3367
1014.881, 747.7552
1015.363, 748.3629
1015.845, 748.1529
1016.327, 747.8719
1016.809, 747.5222
1017.291, 747.6502
1017.773, 748.7982
1018.255, 750.4540
1018.738, 752.7148
1019.220, 755.0998
1019.702, 756.1773
1020.184, 754.8508
1020.666, 753.5388
1021.148, 752.2010
1021.630, 751.5040
1022.112, 753.0059
1022.595, 755.9794
1023.077, 757.8916
1023.559, 758.2744
1024.041, 758.5135
1024.523, 759.3406
1025.005, 760.4057
1025.487, 761.4977
1025.969, 762.6071
1026.452, 763.7205
1026.934, 764.8876
1027.416, 765.5842
1027.898, 765.1970
1028.380, 764.7098
1028.862, 765.6310
1029.344, 767.4752
1029.826, 769.3333
1030.308, 771.5412
1030.791, 772.8090
1031.273, 772.7719
1031.755, 772.2015
1032.237, 771.4406
1032.719, 770.6787
1033.201, 771.7226
1033.683, 774.5583
1034.165, 777.1510
1034.647, 777.7279
1035.130, 777.9369
1035.612, 778.7188
1036.094, 780.0622
1036.576, 781.7015
1037.058, 783.7229
1037.540, 785.5859
1038.022, 787.2413
1038.504, 788.4093
1038.987, 788.5100
1039.469, 787.8912
1039.951, 786.9568
1040.433, 785.4684
1040.915, 784.9695
1041.397, 786.4300
1041.879, 788.1821
1042.361, 789.3386
1042.844, 789.9796
1043.326, 790.9383
1043.808, 792.1401
1044.290, 792.8815
1044.772, 792.2953
1045.254, 791.6642
1045.736, 791.8018
1046.218, 792.4805
1046.700, 793.1461
1047.182, 793.5433
1047.665, 794.9436
1048.147, 797.7445
1048.629, 800.2991
1049.111, 800.3271
1049.593, 799.2158
1050.075, 799.2675
1050.557, 800.6414
1051.039, 801.8593
1051.522, 802.0244
1052.004, 802.4330
1052.486, 803.5218
1052.968, 805.0523
1053.450, 806.4258
1053.932, 807.6430
1054.414, 808.7039
1054.896, 809.5969
1055.379, 810.3909
1055.861, 811.0023
1056.343, 811.6489
1056.825, 812.5865
1057.307, 813.8849
1057.789, 815.1572
1058.271, 816.4537
1058.753, 817.4619
1059.235, 817.7350
1059.718, 817.7375
1060.200, 818.1088
1060.682, 818.7686
1061.164, 819.4940
1061.646, 819.8910
1062.128, 820.8235
1062.610, 822.4991
1063.092, 824.5410
1063.574, 826.8048
1064.057, 829.0791
1064.539, 830.2147
1065.021, 830.0995
1065.503, 830.0215
1065.985, 830.4850
1066.467, 831.5485
1066.949, 833.6321
1067.431, 836.3890
1067.914, 838.6548
1068.396, 840.4863
1068.878, 841.0613
1069.360, 839.5126
1069.842, 838.3031
1070.324, 841.1725
1070.806, 845.7316
1071.288, 848.7491
1071.771, 848.9069
1072.253, 849.8686
1072.735, 852.1854
1073.217, 854.3340
1073.699, 855.2512
1074.181, 855.3276
1074.663, 855.2637
1075.145, 855.2958
1075.627, 856.2696
1076.109, 859.8765
1076.592, 862.8624
1077.074, 863.6539
1077.556, 863.7809
1078.038, 865.0357
1078.520, 867.4147
1079.002, 869.3192
1079.484, 870.6313
1079.966, 871.8054
1080.448, 872.7789
1080.931, 874.0966
1081.413, 876.6403
1081.895, 880.0806
1082.377, 882.0875
1082.859, 882.1263
1083.341, 882.6407
1083.823, 884.0319
1084.305, 886.5588
1084.788, 891.5585
1085.270, 897.4958
1085.752, 901.8343
1086.234, 903.8639
1086.716, 905.7170
1087.198, 907.3379
1087.680, 909.5562
1088.162, 912.9987
1088.645, 917.1850
1089.127, 920.8424
1089.609, 923.9783
1090.091, 926.6708
1090.573, 928.7704
1091.055, 930.7277
1091.537, 932.1629
1092.019, 933.9916
1092.501, 937.4612
1092.984, 942.8986
1093.466, 946.0455
1093.948, 946.8389
1094.430, 946.9662
1094.912, 947.7222
1095.394, 948.2441
1095.876, 947.5715
1096.358, 946.0754
1096.840, 944.9752
1097.323, 944.5355
1097.805, 943.9593
1098.287, 943.2409
1098.769, 942.0634
1099.251, 939.5499
1099.733, 936.5732
1100.215, 934.4230
1100.697, 933.2135
1101.180, 932.5309
1101.662, 932.9862
1102.144, 932.8535
1102.626, 931.5356
1103.108, 929.4025
1103.590, 927.0568
1104.072, 924.6749
1104.554, 922.9052
1105.036, 921.9880
1105.519, 921.4877
1106.001, 921.2857
1106.483, 921.4283
1106.965, 922.3469
1107.447, 923.8576
1107.929, 922.9210
1108.411, 919.6744
1108.893, 916.0431
1109.375, 912.7722
1109.858, 909.8046
1110.340, 907.3557
1110.822, 905.1317
1111.304, 902.6027
1111.786, 899.6243
1112.268, 896.9855
1112.750, 894.8086
1113.232, 892.2808
1113.715, 887.7896
1114.197, 883.2598
1114.679, 881.4579
1115.161, 881.6688
1115.643, 881.0038
1116.125, 878.3673
1116.607, 875.8366
1117.089, 873.4756
1117.572, 871.7539
1118.054, 871.6594
1118.536, 872.5316
1119.018, 872.9244
1119.500, 872.7144
1119.982, 872.7105
1120.464, 873.3516
1120.946, 874.1143
1121.428, 874.9434
1121.911, 875.6747
1122.393, 875.5266
1122.875, 874.8647
1123.357, 875.5980
1123.839, 878.5297
1124.321, 881.0488
1124.803, 881.4509
1125.285, 881.0262
1125.767, 880.6205
1126.250, 880.2303
1126.732, 879.5778
1127.214, 878.6999
1127.696, 878.4872
1128.178, 879.6827
1128.660, 881.0273
1129.142, 881.2659
1129.624, 881.1645
1130.107, 881.8138
1130.589, 883.6561
1131.071, 884.1056
1131.553, 882.9385
1132.035, 882.1604
1132.517, 883.8353
1132.999, 886.0458
1133.481, 886.2264
1133.964, 885.1871
1134.446, 884.8234
1134.928, 886.0315
1135.410, 886.6024
1135.892, 886.1208
1136.374, 885.9137
1136.856, 888.1633
1137.338, 891.1573
1137.820, 891.5717
1138.302, 889.6604
1138.785, 887.9320
1139.267, 886.9189
1139.749, 886.6843
1140.231, 887.5023
1140.713, 888.6983
1141.195, 889.0574
1141.677, 889.0128
1142.159, 889.9825
1142.642, 892.1642
1143.124, 894.0600
1143.606, 895.2221
1144.088, 895.5234
1144.570, 894.4735
1145.052, 892.8726
1145.534, 893.0665
1146.016, 894.7892
1146.499, 896.7720
1146.981, 898.8615
1147.463, 900.3834
1147.945, 900.5535
1148.427, 900.3356
1148.909, 900.3453
1149.391, 900.5778
1149.873, 900.9269
1150.355, 901.4011
1150.838, 901.8257
1151.320, 901.9694
1151.802, 902.4140
1152.284, 904.3173
1152.766, 906.3047
1153.248, 906.6381
1153.730, 904.9894
1154.212, 904.5528
1154.694, 905.3881
1155.177, 906.6547
1155.659, 908.2265
1156.141, 909.6327
1156.623, 909.6934
1157.105, 909.4717
1157.587, 911.2446
1158.069, 916.7512
1158.551, 919.0104
1159.034, 917.4396
1159.516, 915.3299
1159.998, 915.5207
1160.480, 916.4940
1160.962, 915.9850
1161.444, 914.6088
1161.926, 914.6117
1162.408, 916.8419
1162.891, 919.3458
1163.373, 922.1897
1163.855, 924.5129
1164.337, 925.1820
1164.819, 924.8340
1165.301, 924.2801
1165.783, 923.6464
1166.265, 923.2647
1166.747, 923.5169
1167.229, 923.4440
1167.712, 922.6190
1168.194, 921.9498
1168.676, 923.1226
1169.158, 925.3253
1169.640, 926.7652
1170.122, 927.2330
1170.604, 928.0463
1171.086, 930.1422
1171.569, 931.9323
1172.051, 932.9078
1172.533, 933.4451
1173.015, 934.1824
1173.497, 935.1536
1173.979, 936.7214
1174.461, 939.2032
1174.943, 940.6389
1175.426, 938.9735
1175.908, 937.5775
1176.390, 937.9195
1176.872, 939.4246
1177.354, 940.0823
1177.836, 940.2422
1178.318, 941.3056
1178.800, 944.1081
1179.282, 946.5533
1179.765, 947.8232
1180.247, 948.2341
1180.729, 947.4226
1181.211, 945.9212
1181.693, 947.4521
1182.175, 951.3679
1182.657, 954.2511
1183.139, 954.7032
1183.621, 953.9247
1184.104, 950.7402
1184.586, 948.1002
1185.068, 948.7589
1185.550, 952.4996
1186.032, 954.7991
1186.514, 955.7814
1186.996, 956.2794
1187.478, 956.3823
1187.961, 956.5449
1188.443, 956.8383
1188.925, 957.4109
1189.407, 958.5104
1189.889, 960.1469
1190.371, 961.5636
1190.853, 962.7479
1191.335, 963.7779
1191.818, 964.7779
1192.300, 965.5538
1192.782, 965.5634
1193.264, 965.4957
1193.746, 966.5374
1194.228, 968.7597
1194.710, 970.1022
1195.192, 970.4377
1195.674, 970.5746
1196.156, 970.9628
1196.639, 971.4687
1197.121, 972.0781
1197.603, 972.7332
1198.085, 973.2529
1198.567, 973.6277
1199.049, 974.4623
1199.531, 975.8588
1200.013, 976.9887
1200.496, 977.1237
1200.978, 976.8370
1201.460, 975.9421
1201.942, 975.0570
1202.424, 976.3653
1202.906, 980.0193
1203.388, 981.4452
1203.870, 979.6848
1204.353, 978.1152
1204.835, 980.1719
1205.317, 983.0818
1205.799, 984.8810
1206.281, 985.6227
1206.763, 985.2431
1207.245, 983.6488
1207.727, 983.7762
1208.209, 986.5769
1208.692, 989.1475
1209.174, 988.1293
1209.656, 986.4745
1210.138, 987.0152
1210.620, 989.2685
1211.102, 989.9389
1211.584, 988.9568
1212.066, 988.7211
1212.548, 990.0750
1213.031, 991.5997
1213.513, 992.2267
1213.995, 992.3781
1214.477, 992.1537
1214.959, 991.6989
1215.441, 992.4388
1215.923, 994.4006
1216.405, 995.5257
1216.888, 994.7997
1217.370, 994.1195
1217.852, 995.8088
1218.334, 997.7394
1218.816, 997.5615
1219.298, 995.4293
1219.780, 995.0019
1220.262, 996.2762
1220.745, 998.6446
1221.227, 1002.497
1221.709, 1005.989
1222.191, 1007.886
1222.673, 1008.492
1223.155, 1007.869
1223.637, 1006.070
1224.119, 1005.139
1224.601, 1005.036
1225.083, 1005.234
1225.566, 1005.283
1226.048, 1005.958
1226.530, 1008.804
1227.012, 1011.807
1227.494, 1012.925
1227.976, 1012.152
1228.458, 1011.336
1228.940, 1010.503
1229.423, 1009.993
1229.905, 1009.854
1230.387, 1010.245
1230.869, 1011.519
1231.351, 1013.202
1231.833, 1014.946
1232.315, 1016.744
1232.797, 1017.767
1233.280, 1018.105
1233.762, 1018.665
1234.244, 1020.539
1234.726, 1021.956
1235.208, 1021.424
1235.690, 1020.484
1236.172, 1020.432
1236.654, 1021.271
1237.136, 1023.238
1237.619, 1026.073
1238.101, 1027.925
1238.583, 1026.870
1239.065, 1025.772
1239.547, 1025.668
1240.029, 1026.072
1240.511, 1026.492
1240.993, 1027.016
1241.475, 1028.755
1241.958, 1031.436
1242.440, 1033.417
1242.922, 1033.161
1243.404, 1032.975
1243.886, 1032.968
1244.368, 1033.870
1244.850, 1037.368
1245.332, 1042.433
1245.815, 1044.076
1246.297, 1042.758
1246.779, 1041.485
1247.261, 1041.753
1247.743, 1042.043
1248.225, 1041.970
1248.707, 1041.956
1249.189, 1042.467
1249.672, 1043.393
1250.154, 1044.518
1250.636, 1045.797
1251.118, 1046.981
1251.600, 1048.303
1252.082, 1049.014
1252.564, 1048.917
1253.046, 1048.500
1253.528, 1048.087
1254.010, 1047.803
1254.493, 1048.214
1254.975, 1049.046
1255.457, 1049.043
1255.939, 1046.394
1256.421, 1045.653
1256.903, 1047.591
1257.385, 1050.224
1257.867, 1051.635
1258.350, 1052.494
1258.832, 1053.800
1259.314, 1055.470
1259.796, 1057.021
1260.278, 1058.532
1260.760, 1059.361
1261.242, 1059.250
1261.724, 1059.478
1262.207, 1062.067
1262.689, 1065.003
1263.171, 1065.645
1263.653, 1064.681
1264.135, 1065.065
1264.617, 1067.467
1265.099, 1068.263
1265.581, 1066.949
1266.063, 1065.663
1266.546, 1066.279
1267.028, 1067.663
1267.510, 1069.213
1267.992, 1070.692
1268.474, 1071.497
1268.956, 1071.527
1269.438, 1072.419
1269.920, 1074.336
1270.402, 1075.948
1270.885, 1075.300
1271.367, 1075.015
1271.849, 1077.934
1272.331, 1081.633
1272.813, 1081.697
1273.295, 1078.484
1273.777, 1077.271
1274.259, 1078.421
1274.742, 1080.194
1275.224, 1082.118
1275.706, 1083.747
1276.188, 1085.139
1276.670, 1085.937
1277.152, 1085.019
1277.634, 1083.017
1278.116, 1082.850
1278.599, 1084.516
1279.081, 1085.980
1279.563, 1085.910
1280.045, 1086.262
1280.527, 1087.712
1281.009, 1089.256
1281.491, 1089.180
1281.973, 1088.391
1282.455, 1089.182
1282.938, 1091.320
1283.420, 1092.596
1283.902, 1091.450
1284.384, 1091.142
1284.866, 1092.017
1285.348, 1093.838
1285.830, 1097.373
1286.312, 1100.940
1286.794, 1101.664
1287.277, 1100.218
1287.759, 1100.147
1288.241, 1102.085
1288.723, 1104.196
1289.205, 1106.461
1289.687, 1107.660
1290.169, 1105.370
1290.651, 1102.778
1291.134, 1102.892
1291.616, 1105.057
1292.098, 1106.984
1292.580, 1108.654
1293.062, 1110.565
1293.544, 1112.772
1294.026, 1114.486
1294.508, 1114.945
1294.990, 1114.983
1295.473, 1114.869
1295.955, 1114.759
1296.437, 1114.856
1296.919, 1115.151
1297.401, 1115.373
1297.883, 1115.580
1298.365, 1116.418
1298.847, 1118.785
1299.329, 1121.158
1299.812, 1123.196
1300.294, 1124.864
1300.776, 1126.313
1301.258, 1127.449
1301.740, 1127.608
1302.222, 1127.117
1302.704, 1127.625
1303.186, 1131.254
1303.669, 1133.295
1304.151, 1133.386
1304.633, 1131.630
##END=



