##NAMES=Marialite
##RRUFFID=R040043
##IDEAL CHEMISTRY=Na_4_Al_3_Si_9_O_24_Cl
##LOCALITY=Gouverneur, New York, USA
##OWNER=RRUFF
##SOURCE=University of Arizona Mineral Museum
##DESCRIPTION=White prismatic crystals
##STATUS=The identification of this mineral has been confirmed by X-ray diffraction and chemical analysis
##URL=rruff.info/R040043
##MEASURED CHEMISTRY=(Na_.493_Ca_.446_K_.061_)_4_(Si_.634_Al_.366_)_12_O_24_((CO_3_)_.581_Cl_.419_)
125.3791, 10200.14
125.8612, 10641.98
126.3433, 11050.20
126.8254, 11402.54
127.3075, 11700.91
127.7896, 11950.00
128.2718, 12137.42
128.7539, 12278.38
129.2360, 12407.73
129.7181, 12527.03
130.2002, 12623.64
130.6823, 12678.14
131.1645, 12692.68
131.6466, 12689.47
132.1287, 12667.68
132.6108, 12632.30
133.0929, 12618.51
133.5750, 12631.76
134.0572, 12663.63
134.5393, 12694.51
135.0214, 12722.83
135.5035, 12760.62
135.9856, 12813.49
136.4677, 12881.33
136.9498, 12973.84
137.4320, 13098.61
137.9141, 13252.22
138.3962, 13401.06
138.8783, 13544.79
139.3604, 13690.16
139.8425, 13848.37
140.3247, 14032.34
140.8068, 14191.52
141.2889, 14304.82
141.7710, 14364.15
142.2531, 14453.70
142.7352, 14585.04
143.2174, 14738.03
143.6995, 14884.46
144.1816, 15024.26
144.6637, 15153.92
145.1458, 15269.86
145.6279, 15369.63
146.1101, 15461.29
146.5922, 15542.75
147.0743, 15615.02
147.5564, 15682.87
148.0385, 15732.21
148.5206, 15788.94
149.0028, 15866.67
149.4849, 16014.00
149.9670, 16123.06
150.4491, 16163.64
150.9312, 16142.13
151.4133, 16160.57
151.8955, 16246.49
152.3776, 16358.86
152.8597, 16470.60
153.3418, 16568.96
153.8239, 16678.29
154.3060, 16810.65
154.7882, 16968.81
155.2703, 17119.27
155.7524, 17254.52
156.2345, 17381.08
156.7166, 17504.26
157.1987, 17618.45
157.6808, 17733.74
158.1630, 17857.16
158.6451, 17993.87
159.1272, 18115.78
159.6093, 18206.49
160.0914, 18274.86
160.5735, 18338.64
161.0557, 18426.23
161.5378, 18494.77
162.0199, 18516.19
162.5020, 18463.45
162.9841, 18397.80
163.4662, 18350.39
163.9484, 18312.32
164.4305, 18253.33
164.9126, 18151.10
165.3947, 18026.87
165.8768, 17898.95
166.3589, 17779.64
166.8411, 17653.08
167.3232, 17507.11
167.8053, 17343.47
168.2874, 17174.67
168.7695, 16987.18
169.2516, 16804.32
169.7338, 16656.08
170.2159, 16589.12
170.6980, 16540.06
171.1801, 16447.79
171.6622, 16308.57
172.1443, 16174.88
172.6265, 16091.32
173.1086, 16042.04
173.5907, 15996.24
174.0728, 15925.98
174.5549, 15855.53
175.0370, 15819.10
175.5192, 15823.87
176.0013, 15841.31
176.4834, 15843.29
176.9655, 15834.40
177.4476, 15830.31
177.9297, 15851.98
178.4118, 15882.65
178.8940, 15886.50
179.3761, 15848.46
179.8582, 15804.05
180.3403, 15807.86
180.8224, 15853.71
181.3046, 15897.98
181.7867, 15889.86
182.2688, 15854.46
182.7509, 15865.82
183.2330, 15956.46
183.7151, 16083.87
184.1973, 16178.55
184.6794, 16239.71
185.1615, 16288.24
185.6436, 16342.94
186.1257, 16400.81
186.6078, 16444.90
187.0900, 16466.18
187.5721, 16472.16
188.0542, 16484.19
188.5363, 16503.09
189.0184, 16522.98
189.5005, 16537.84
189.9827, 16548.05
190.4648, 16557.92
190.9469, 16574.40
191.4290, 16593.25
191.9111, 16589.39
192.3932, 16558.29
192.8754, 16520.83
193.3575, 16505.71
193.8396, 16513.30
194.3217, 16524.91
194.8038, 16534.92
195.2859, 16543.33
195.7681, 16546.04
196.2502, 16541.75
196.7323, 16534.76
197.2144, 16531.91
197.6965, 16533.49
198.1786, 16538.00
198.6607, 16546.84
199.1429, 16560.44
199.6250, 16566.79
200.1071, 16561.67
200.5892, 16552.30
201.0713, 16555.59
201.5534, 16572.07
202.0356, 16596.60
202.5177, 16632.76
202.9998, 16684.54
203.4819, 16706.86
203.9640, 16678.49
204.4461, 16622.20
204.9283, 16630.78
205.4104, 16723.87
205.8925, 16826.73
206.3746, 16885.02
206.8567, 16892.65
207.3388, 16882.97
207.8210, 16853.10
208.3031, 16809.38
208.7852, 16796.81
209.2673, 16829.31
209.7494, 16866.94
210.2315, 16867.63
210.7137, 16814.61
211.1958, 16787.34
211.6779, 16813.50
212.1600, 16889.27
212.6421, 16925.26
213.1242, 16903.31
213.6064, 16867.87
214.0885, 16867.63
214.5706, 16911.04
215.0527, 16964.97
215.5348, 17026.24
216.0169, 17094.50
216.4991, 17144.10
216.9812, 17165.08
217.4633, 17176.67
217.9454, 17207.97
218.4275, 17274.11
218.9096, 17325.87
219.3917, 17348.36
219.8739, 17338.06
220.3560, 17319.42
220.8381, 17291.63
221.3202, 17256.97
221.8023, 17218.09
222.2844, 17174.56
222.7666, 17128.72
223.2487, 17077.89
223.7308, 17015.90
224.2129, 16976.54
224.6950, 16972.86
225.1771, 16984.56
225.6593, 16969.05
226.1414, 16906.33
226.6235, 16848.97
227.1056, 16819.98
227.5877, 16837.31
228.0698, 16833.73
228.5520, 16797.34
229.0341, 16743.57
229.5162, 16712.89
229.9983, 16726.01
230.4804, 16731.47
230.9625, 16702.38
231.4447, 16612.35
231.9268, 16546.91
232.4089, 16514.14
232.8910, 16505.66
233.3731, 16494.27
233.8552, 16482.15
234.3374, 16464.63
234.8195, 16437.94
235.3016, 16393.80
235.7837, 16359.32
236.2658, 16341.86
236.7479, 16335.72
237.2301, 16314.37
237.7122, 16264.80
238.1943, 16217.38
238.6764, 16188.06
239.1585, 16177.15
239.6406, 16186.56
240.1227, 16228.30
240.6049, 16293.51
241.0870, 16329.71
241.5691, 16321.51
242.0512, 16302.64
242.5333, 16293.74
243.0154, 16295.63
243.4976, 16304.29
243.9797, 16316.88
244.4618, 16334.11
244.9439, 16367.19
245.4260, 16423.16
245.9081, 16485.29
246.3903, 16542.22
246.8724, 16593.92
247.3545, 16638.84
247.8366, 16671.50
248.3187, 16694.08
248.8008, 16734.25
249.2830, 16796.20
249.7651, 16872.24
250.2472, 16958.04
250.7293, 17063.21
251.2114, 17160.23
251.6935, 17237.75
252.1757, 17298.11
252.6578, 17393.16
253.1399, 17534.96
253.6220, 17696.51
254.1041, 17855.74
254.5862, 18012.99
255.0684, 18168.09
255.5505, 18317.49
256.0326, 18463.03
256.5147, 18629.66
256.9968, 18830.42
257.4789, 19038.52
257.9611, 19224.67
258.4432, 19377.62
258.9253, 19537.38
259.4074, 19712.87
259.8895, 19904.55
260.3716, 20083.50
260.8538, 20250.18
261.3359, 20402.15
261.8180, 20541.84
262.3001, 20688.79
262.7822, 20772.39
263.2643, 20770.08
263.7465, 20683.77
264.2286, 20579.92
264.7107, 20461.94
265.1928, 20324.89
265.6749, 20164.81
266.1570, 19976.41
266.6392, 19779.17
267.1213, 19578.63
267.6034, 19375.08
268.0855, 19137.88
268.5676, 18846.47
269.0497, 18559.07
269.5318, 18339.99
270.0139, 18209.74
270.4961, 18075.76
270.9782, 17910.29
271.4603, 17717.35
271.9424, 17551.82
272.4245, 17417.48
272.9066, 17302.95
273.3888, 17196.03
273.8709, 17095.57
274.3530, 17009.79
274.8351, 16943.04
275.3172, 16893.92
275.7993, 16848.29
276.2815, 16803.58
276.7636, 16767.90
277.2457, 16755.92
277.7278, 16771.65
278.2099, 16775.99
278.6920, 16755.55
279.1742, 16714.03
279.6563, 16676.68
280.1384, 16642.00
280.6205, 16614.27
281.1026, 16598.89
281.5847, 16596.31
282.0669, 16596.58
282.5490, 16596.71
283.0311, 16597.81
283.5132, 16606.68
283.9953, 16625.12
284.4774, 16644.17
284.9596, 16650.60
285.4417, 16645.28
285.9238, 16649.72
286.4059, 16668.24
286.8880, 16701.18
287.3701, 16752.07
287.8523, 16821.49
288.3344, 16901.07
288.8165, 16985.61
289.2986, 17074.27
289.7807, 17157.87
290.2628, 17232.36
290.7450, 17301.04
291.2271, 17367.77
291.7092, 17432.27
292.1913, 17505.21
292.6734, 17599.46
293.1555, 17711.78
293.6377, 17827.48
294.1198, 17941.69
294.6019, 18060.36
295.0840, 18202.57
295.5661, 18368.63
296.0482, 18524.50
296.5304, 18658.61
297.0125, 18761.07
297.4946, 18809.33
297.9767, 18791.96
298.4588, 18722.70
298.9409, 18609.55
299.4231, 18455.55
299.9052, 18285.58
300.3873, 18110.40
300.8694, 17935.38
301.3515, 17772.44
301.8336, 17620.76
302.3158, 17487.80
302.7979, 17387.77
303.2800, 17317.39
303.7621, 17265.24
304.2442, 17227.65
304.7263, 17201.44
305.2085, 17182.08
305.6906, 17172.72
306.1727, 17163.78
306.6548, 17145.15
307.1369, 17119.36
307.6190, 17094.37
308.1012, 17080.69
308.5833, 17069.19
309.0654, 17047.52
309.5475, 17006.58
310.0296, 16969.30
310.5117, 16952.25
310.9938, 16952.00
311.4760, 16957.99
311.9581, 16971.97
312.4402, 16986.04
312.9223, 16992.83
313.4044, 16989.05
313.8865, 16983.51
314.3687, 16988.10
314.8508, 16994.65
315.3329, 16985.41
315.8150, 16931.17
316.2971, 16873.75
316.7792, 16841.84
317.2614, 16846.20
317.7435, 16855.20
318.2256, 16854.12
318.7077, 16850.48
319.1898, 16857.10
319.6719, 16882.18
320.1541, 16915.04
320.6362, 16953.78
321.1183, 17002.68
321.6004, 17039.85
322.0825, 17049.78
322.5646, 17047.01
323.0468, 17051.74
323.5289, 17065.24
324.0110, 17088.73
324.4931, 17127.45
324.9752, 17187.02
325.4573, 17233.79
325.9395, 17266.37
326.4216, 17283.31
326.9037, 17283.62
327.3858, 17232.83
327.8679, 17200.53
328.3500, 17211.25
328.8322, 17273.07
329.3143, 17305.45
329.7964, 17283.91
330.2785, 17248.71
330.7606, 17235.01
331.2427, 17256.58
331.7249, 17280.67
332.2070, 17304.56
332.6891, 17328.45
333.1712, 17344.58
333.6533, 17344.25
334.1354, 17346.53
334.6176, 17370.86
335.0997, 17439.84
335.5818, 17476.30
336.0639, 17456.29
336.5460, 17393.18
337.0281, 17370.23
337.5103, 17397.92
337.9924, 17441.51
338.4745, 17479.54
338.9566, 17512.08
339.4387, 17538.07
339.9208, 17555.05
340.4030, 17567.21
340.8851, 17587.33
341.3672, 17617.26
341.8493, 17648.67
342.3314, 17679.29
342.8135, 17709.27
343.2957, 17731.44
343.7778, 17742.73
344.2599, 17751.65
344.7420, 17772.11
345.2241, 17803.99
345.7062, 17846.57
346.1884, 17905.78
346.6705, 17977.06
347.1526, 18032.99
347.6347, 18068.25
348.1168, 18101.74
348.5989, 18159.83
349.0811, 18237.49
349.5632, 18316.57
350.0453, 18391.19
350.5274, 18459.26
351.0095, 18515.27
351.4916, 18557.77
351.9737, 18598.76
352.4558, 18647.38
352.9380, 18703.35
353.4201, 18766.10
353.9022, 18846.55
354.3843, 18927.87
354.8664, 18990.75
355.3485, 19036.31
355.8307, 19076.53
356.3128, 19107.38
356.7949, 19141.53
357.2770, 19197.22
357.7591, 19308.05
358.2412, 19412.03
358.7234, 19457.74
359.2055, 19456.52
359.6876, 19461.77
360.1697, 19529.26
360.6518, 19596.87
361.1339, 19615.50
361.6161, 19552.99
362.0982, 19471.58
362.5803, 19385.89
363.0624, 19298.16
363.5445, 19215.45
364.0266, 19149.76
364.5088, 19081.86
364.9909, 19002.15
365.4730, 18903.62
365.9551, 18807.03
366.4372, 18697.81
366.9193, 18595.97
367.4015, 18534.10
367.8836, 18547.56
368.3657, 18572.46
368.8478, 18592.63
369.3299, 18606.56
369.8120, 18622.17
370.2942, 18644.05
370.7763, 18664.63
371.2584, 18673.47
371.7405, 18649.37
372.2226, 18646.07
372.7047, 18678.79
373.1869, 18746.26
373.6690, 18808.29
374.1511, 18863.40
374.6332, 18913.26
375.1153, 18958.69
375.5974, 18998.48
376.0796, 19036.73
376.5617, 19075.41
377.0438, 19112.67
377.5259, 19143.97
378.0080, 19169.29
378.4901, 19189.58
378.9723, 19203.72
379.4544, 19212.23
379.9365, 19222.99
380.4186, 19236.69
380.9007, 19254.50
381.3828, 19283.11
381.8650, 19322.31
382.3471, 19351.58
382.8292, 19350.06
383.3113, 19329.02
383.7934, 19330.13
384.2755, 19359.01
384.7577, 19385.91
385.2398, 19363.93
385.7219, 19308.85
386.2040, 19270.01
386.6861, 19295.90
387.1682, 19335.68
387.6504, 19312.09
388.1325, 19225.69
388.6146, 19138.68
389.0967, 19095.91
389.5788, 19080.47
390.0609, 19071.55
390.5431, 19079.00
391.0252, 19074.31
391.5073, 19028.93
391.9894, 18952.00
392.4715, 18882.27
392.9536, 18845.95
393.4357, 18820.98
393.9178, 18789.81
394.4000, 18738.20
394.8821, 18701.55
395.3642, 18701.54
395.8463, 18723.91
396.3284, 18738.89
396.8105, 18739.02
397.2927, 18730.14
397.7748, 18708.38
398.2569, 18661.40
398.7390, 18639.96
399.2211, 18667.22
399.7032, 18714.26
400.1854, 18747.85
400.6675, 18763.70
401.1496, 18771.56
401.6317, 18768.79
402.1138, 18755.61
402.5959, 18756.62
403.0781, 18777.87
403.5602, 18806.05
404.0423, 18830.23
404.5244, 18847.48
405.0065, 18871.79
405.4886, 18909.09
405.9708, 18952.80
406.4529, 18974.48
406.9350, 18965.69
407.4171, 18971.30
407.8992, 19029.26
408.3813, 19137.76
408.8635, 19219.24
409.3456, 19263.72
409.8277, 19295.15
410.3098, 19352.23
410.7919, 19432.29
411.2740, 19506.05
411.7562, 19553.38
412.2383, 19586.80
412.7204, 19632.48
413.2025, 19690.63
413.6846, 19761.45
414.1667, 19843.50
414.6489, 19937.63
415.1310, 20047.82
415.6131, 20197.40
416.0952, 20340.07
416.5773, 20413.34
417.0594, 20431.89
417.5416, 20460.76
418.0237, 20556.13
418.5058, 20668.31
418.9879, 20754.62
419.4700, 20807.10
419.9521, 20835.31
420.4343, 20839.18
420.9164, 20822.90
421.3985, 20794.85
421.8806, 20757.44
422.3627, 20709.32
422.8448, 20650.79
423.3270, 20583.77
423.8091, 20500.32
424.2912, 20375.06
424.7733, 20245.78
425.2554, 20146.53
425.7375, 20098.91
426.2197, 20053.49
426.7018, 19992.84
427.1839, 19922.36
427.6660, 19899.65
428.1481, 19950.32
428.6302, 20011.11
429.1124, 20042.15
429.5945, 20034.20
430.0766, 20029.68
430.5587, 20025.59
431.0408, 20031.46
431.5229, 20074.08
432.0051, 20158.60
432.4872, 20241.53
432.9693, 20306.84
433.4514, 20354.83
433.9335, 20376.12
434.4156, 20364.45
434.8977, 20363.84
435.3799, 20432.42
435.8620, 20556.31
436.3441, 20680.98
436.8262, 20785.96
437.3083, 20884.04
437.7904, 20986.27
438.2726, 21094.25
438.7547, 21219.22
439.2368, 21390.12
439.7189, 21573.09
440.2010, 21722.80
440.6831, 21813.91
441.1653, 21910.75
441.6474, 22060.97
442.1295, 22244.75
442.6116, 22424.23
443.0937, 22556.09
443.5758, 22703.79
444.0580, 22903.58
444.5401, 23161.65
445.0222, 23430.87
445.5043, 23700.83
445.9864, 23979.41
446.4685, 24273.41
446.9507, 24589.17
447.4328, 24914.60
447.9149, 25235.29
448.3970, 25559.86
448.8791, 25951.45
449.3612, 26448.45
449.8434, 26955.24
450.3255, 27426.59
450.8076, 27844.59
451.2897, 28274.53
451.7718, 28732.84
452.2539, 29184.90
452.7361, 29589.75
453.2182, 29955.88
453.7003, 30235.10
454.1824, 30396.23
454.6645, 30458.42
455.1466, 30513.83
455.6288, 30562.75
456.1109, 30606.28
456.5930, 30651.38
457.0751, 30693.16
457.5572, 30716.78
458.0393, 30721.60
458.5215, 30702.50
459.0036, 30655.09
459.4857, 30578.63
459.9678, 30471.01
460.4499, 30328.90
460.9320, 30157.38
461.4142, 29968.95
461.8963, 29765.33
462.3784, 29520.78
462.8605, 29195.15
463.3426, 28828.04
463.8247, 28470.00
464.3069, 28154.83
464.7890, 27831.88
465.2711, 27474.75
465.7532, 27091.45
466.2353, 26725.00
466.7174, 26385.72
467.1996, 26065.70
467.6817, 25761.68
468.1638, 25467.23
468.6459, 25193.27
469.1280, 24946.03
469.6101, 24714.43
470.0923, 24476.30
470.5744, 24226.17
471.0565, 23983.57
471.5386, 23749.77
472.0207, 23525.14
472.5028, 23338.67
472.9850, 23200.38
473.4671, 23061.30
473.9492, 22864.14
474.4313, 22613.99
474.9134, 22405.26
475.3955, 22253.39
475.8776, 22149.07
476.3597, 22092.36
476.8419, 22076.91
477.3240, 22067.68
477.8061, 22081.29
478.2882, 22076.00
478.7703, 21963.02
479.2524, 21731.87
479.7346, 21518.45
480.2167, 21447.82
480.6988, 21445.63
481.1809, 21419.88
481.6630, 21307.28
482.1451, 21199.31
482.6273, 21139.00
483.1094, 21116.76
483.5915, 21101.28
484.0736, 21093.93
484.5557, 21081.30
485.0378, 21056.85
485.5200, 21017.51
486.0021, 20972.50
486.4842, 20921.03
486.9663, 20865.50
487.4484, 20808.16
487.9305, 20748.77
488.4127, 20690.87
488.8948, 20632.85
489.3769, 20577.40
489.8590, 20536.17
490.3411, 20511.47
490.8232, 20495.60
491.3054, 20487.28
491.7875, 20486.30
492.2696, 20476.65
492.7517, 20455.51
493.2338, 20429.71
493.7159, 20404.18
494.1981, 20380.32
494.6802, 20365.65
495.1623, 20371.11
495.6444, 20382.50
496.1265, 20377.50
496.6086, 20357.64
497.0908, 20337.19
497.5729, 20323.18
498.0550, 20315.04
498.5371, 20315.18
499.0192, 20333.15
499.5013, 20338.40
499.9835, 20293.95
500.4656, 20230.95
500.9477, 20200.28
501.4298, 20240.96
501.9119, 20292.24
502.3940, 20342.78
502.8762, 20392.45
503.3583, 20418.58
503.8404, 20401.25
504.3225, 20376.70
504.8046, 20366.83
505.2867, 20375.57
505.7689, 20389.33
506.2510, 20410.64
506.7331, 20433.83
507.2152, 20447.73
507.6973, 20451.88
508.1794, 20450.17
508.6616, 20440.26
509.1437, 20425.60
509.6258, 20422.29
510.1079, 20430.67
510.5900, 20450.00
511.0721, 20491.87
511.5543, 20544.45
512.0364, 20573.07
512.5185, 20560.74
513.0006, 20545.90
513.4827, 20570.75
513.9648, 20623.83
514.4470, 20677.76
514.9291, 20723.88
515.4112, 20762.20
515.8933, 20791.02
516.3754, 20810.01
516.8575, 20827.47
517.3397, 20818.12
517.8218, 20824.85
518.3039, 20879.01
518.7860, 21044.36
519.2681, 21183.18
519.7502, 21269.13
520.2324, 21328.25
520.7145, 21414.91
521.1966, 21542.96
521.6787, 21674.90
522.1608, 21799.40
522.6429, 21916.79
523.1251, 22046.76
523.6072, 22191.77
524.0893, 22339.14
524.5714, 22472.19
525.0535, 22594.30
525.5356, 22741.56
526.0178, 22924.88
526.4999, 23123.21
526.9820, 23299.54
527.4641, 23459.89
527.9462, 23639.89
528.4283, 23851.83
528.9105, 24094.23
529.3926, 24383.87
529.8747, 24715.18
530.3568, 25038.08
530.8389, 25315.91
531.3210, 25575.25
531.8032, 25845.31
532.2853, 26126.94
532.7674, 26424.78
533.2495, 26777.12
533.7316, 27140.66
534.2137, 27429.80
534.6959, 27630.39
535.1780, 27768.33
535.6601, 27853.13
536.1422, 27883.96
536.6243, 27843.52
537.1064, 27724.60
537.5885, 27547.38
538.0706, 27318.30
538.5527, 27036.09
539.0349, 26713.06
539.5170, 26338.35
539.9991, 25949.58
540.4812, 25605.82
540.9633, 25298.72
541.4454, 24994.08
541.9276, 24665.36
542.4097, 24339.90
542.8918, 24062.52
543.3739, 23829.07
543.8560, 23613.65
544.3381, 23396.89
544.8203, 23191.48
545.3024, 23014.74
545.7845, 22874.20
546.2666, 22742.79
546.7487, 22594.86
547.2308, 22456.40
547.7130, 22354.45
548.1951, 22350.13
548.6772, 22322.15
549.1593, 22238.07
549.6414, 22110.13
550.1235, 21992.79
550.6057, 21879.12
551.0878, 21787.01
551.5699, 21726.87
552.0520, 21701.78
552.5341, 21681.53
553.0162, 21669.69
553.4984, 21652.62
553.9805, 21612.65
554.4626, 21551.77
554.9447, 21482.93
555.4268, 21396.86
555.9089, 21326.72
556.3911, 21342.43
556.8732, 21424.54
557.3553, 21496.54
557.8374, 21522.42
558.3195, 21516.91
558.8016, 21478.74
559.2838, 21408.78
559.7659, 21359.84
560.2480, 21382.26
560.7301, 21421.90
561.2122, 21434.22
561.6943, 21366.78
562.1765, 21337.69
562.6586, 21394.49
563.1407, 21489.84
563.6228, 21546.45
564.1049, 21542.52
564.5870, 21536.09
565.0692, 21540.89
565.5513, 21555.30
566.0334, 21566.46
566.5155, 21574.56
566.9976, 21578.93
567.4797, 21579.27
567.9619, 21575.70
568.4440, 21567.28
568.9261, 21553.31
569.4082, 21538.84
569.8903, 21528.44
570.3724, 21522.09
570.8546, 21519.61
571.3367, 21525.67
571.8188, 21530.12
572.3009, 21524.81
572.7830, 21511.13
573.2651, 21493.66
573.7473, 21463.81
574.2294, 21439.53
574.7115, 21431.29
575.1936, 21441.46
575.6757, 21457.81
576.1578, 21500.15
576.6400, 21533.20
577.1221, 21527.13
577.6042, 21455.11
578.0863, 21409.57
578.5684, 21397.55
579.0505, 21414.42
579.5327, 21466.58
580.0148, 21559.02
580.4969, 21620.21
580.9790, 21608.50
581.4611, 21553.70
581.9432, 21534.31
582.4254, 21549.09
582.9075, 21581.70
583.3896, 21636.89
583.8717, 21695.92
584.3538, 21731.76
584.8359, 21738.57
585.3181, 21736.05
585.8002, 21732.41
586.2823, 21727.34
586.7644, 21720.51
587.2465, 21701.70
587.7286, 21692.84
588.2108, 21700.25
588.6929, 21721.64
589.1750, 21750.40
589.6571, 21806.54
590.1392, 21839.55
590.6213, 21823.48
591.1035, 21595.30
591.5856, 21761.46
592.0677, 21857.64
592.5498, 21887.59
593.0319, 21652.96
593.5140, 21759.98
593.9962, 21730.09
594.4783, 21694.58
594.9604, 21849.69
595.4425, 21653.54
595.9246, 21805.62
596.4067, 21818.70
596.8889, 21895.40
597.3710, 21834.33
597.8531, 21815.82
598.3352, 21935.11
598.8173, 21978.10
599.2994, 21901.17
599.7816, 21981.91
600.2637, 21780.96
600.7458, 21879.97
601.2279, 21899.57
601.7100, 21953.54
602.1921, 22013.46
602.6743, 22059.22
603.1564, 22088.18
603.6385, 22108.93
604.1206, 22117.27
604.6027, 22125.06
605.0848, 22158.22
605.5670, 22214.49
606.0491, 22259.89
606.5312, 22277.44
607.0133, 22282.42
607.4954, 22303.55
607.9775, 22336.81
608.4597, 22363.41
608.9418, 22364.20
609.4239, 22357.91
609.9060, 22361.06
610.3881, 22376.08
610.8702, 22389.56
611.3524, 22406.64
611.8345, 22414.75
612.3166, 22403.89
612.7987, 22190.70
613.2808, 22362.16
613.7629, 22463.63
614.2451, 22498.88
614.7272, 22269.55
615.2093, 22381.87
615.6914, 22357.27
616.1735, 22327.05
616.6556, 22487.46
617.1378, 22296.61
617.6199, 22453.99
618.1020, 22472.36
618.5840, 22554.35
619.0662, 22498.59
619.5483, 22485.37
620.0304, 22609.96
620.5125, 22658.24
620.9946, 22586.61
621.4767, 22672.65
621.9589, 22476.99
622.4410, 22528.52
622.9231, 22609.72
623.4052, 22598.44
623.8873, 22563.62
624.3694, 22544.66
624.8516, 22550.42
625.3337, 22561.00
625.8158, 22579.55
626.2979, 22599.98
626.7800, 22591.86
627.2621, 22548.52
627.7443, 22512.37
628.2264, 22516.47
628.7085, 22547.74
629.1906, 22540.30
629.6727, 22494.22
630.1548, 22443.73
630.6370, 22414.31
631.1191, 22399.42
631.6012, 22394.93
632.0833, 22407.14
632.5654, 22403.76
633.0475, 22348.33
633.5297, 22273.32
634.0118, 22218.36
634.4939, 22241.99
634.9760, 22228.42
635.4581, 22137.69
635.9402, 21997.86
636.4224, 21879.80
636.9045, 21786.14
637.3866, 21713.06
637.8687, 21665.59
638.3508, 21639.49
638.8329, 21602.72
639.3151, 21555.10
639.7972, 21497.43
640.2793, 21411.09
640.7614, 21317.65
641.2435, 21279.84
641.7256, 21308.82
642.2078, 21330.83
642.6899, 21271.04
643.1720, 21175.96
643.6541, 21102.56
644.1362, 21072.75
644.6183, 21054.53
645.1005, 21037.10
645.5826, 21024.14
646.0647, 21023.19
646.5468, 21045.97
647.0289, 21061.99
647.5110, 21064.73
647.9932, 21054.82
648.4753, 21036.19
648.9574, 21006.48
649.4395, 20976.70
649.9216, 20953.48
650.4037, 20935.01
650.8859, 20910.61
651.3680, 20880.38
651.8501, 20860.82
652.3322, 20882.13
652.8143, 20916.68
653.2964, 20927.73
653.7786, 20905.41
654.2607, 20874.66
654.7428, 20845.41
655.2249, 20816.11
655.7070, 20785.18
656.1891, 20731.75
656.6713, 20704.28
657.1534, 20721.08
657.6355, 20761.20
658.1176, 20775.70
658.5997, 20754.14
659.0818, 20739.63
659.5640, 20749.35
660.0461, 20774.60
660.5282, 20786.06
661.0103, 20784.16
661.4924, 20766.71
661.9745, 20713.17
662.4567, 20651.73
662.9388, 20635.81
663.4209, 20668.43
663.9030, 20692.57
664.3851, 20656.25
664.8672, 20606.30
665.3494, 20585.62
665.8315, 20624.30
666.3136, 20639.62
666.7957, 20585.04
667.2778, 20516.40
667.7599, 20492.63
668.2421, 20531.67
668.7242, 20564.25
669.2063, 20579.60
669.6884, 20584.42
670.1705, 20596.60
670.6526, 20615.44
671.1348, 20622.76
671.6169, 20610.76
672.0990, 20584.70
672.5811, 20544.45
673.0632, 20495.55
673.5453, 20459.56
674.0275, 20463.52
674.5096, 20475.48
674.9917, 20468.78
675.4738, 20440.62
675.9559, 20429.37
676.4380, 20467.31
676.9202, 20506.88
677.4023, 20516.98
677.8844, 20477.86
678.3665, 20469.58
678.8486, 20502.96
679.3307, 20546.39
679.8129, 20559.09
680.2950, 20542.41
680.7771, 20537.79
681.2592, 20554.99
681.7413, 20577.81
682.2234, 20578.67
682.7056, 20567.61
683.1877, 20569.46
683.6698, 20623.79
684.1519, 20666.03
684.6340, 20637.08
685.1161, 20563.11
685.5983, 20526.01
686.0804, 20592.39
686.5625, 20650.64
687.0446, 20657.31
687.5267, 20617.20
688.0089, 20617.32
688.4910, 20674.71
688.9731, 20730.28
689.4552, 20742.74
689.9373, 20717.13
690.4194, 20711.46
690.9016, 20727.53
691.3837, 20746.25
691.8658, 20745.62
692.3479, 20737.63
692.8300, 20743.04
693.3121, 20768.00
693.7943, 20795.21
694.2764, 20827.89
694.7585, 20852.08
695.2406, 20852.67
695.7227, 20784.18
696.2048, 20748.35
696.6870, 20768.32
697.1691, 20818.00
697.6512, 20850.41
698.1333, 20862.48
698.6154, 20872.81
699.0975, 20886.56
699.5797, 20901.57
700.0618, 20911.62
700.5438, 20917.21
701.0259, 20921.80
701.5081, 20919.06
701.9902, 20921.26
702.4723, 20953.33
702.9544, 21009.18
703.4365, 21045.07
703.9186, 21021.04
704.4008, 20987.76
704.8829, 20970.48
705.3650, 20971.88
705.8471, 20989.79
706.3292, 21039.40
706.8113, 21085.79
707.2935, 21098.72
707.7756, 21072.64
708.2577, 21079.64
708.7398, 21132.63
709.2219, 21178.27
709.7040, 21128.53
710.1862, 21023.07
710.6683, 20971.63
711.1504, 21013.94
711.6325, 21071.08
712.1146, 21081.25
712.5967, 21065.22
713.0789, 21054.00
713.5610, 21061.65
714.0431, 21068.93
714.5252, 21070.93
715.0073, 21069.22
715.4894, 21065.77
715.9716, 21055.34
716.4537, 21057.18
716.9358, 21085.20
717.4179, 21125.39
717.9000, 21114.87
718.3821, 21056.44
718.8643, 21016.12
719.3464, 21049.63
719.8285, 21113.43
720.3106, 21146.96
720.7927, 21151.90
721.2748, 21153.93
721.7570, 21165.33
722.2391, 21179.31
722.7212, 21196.30
723.2033, 21220.16
723.6854, 21218.36
724.1675, 21160.89
724.6497, 21110.44
725.1318, 21115.48
725.6139, 21189.19
726.0960, 21220.33
726.5781, 21198.43
727.0602, 21167.68
727.5424, 21190.71
728.0245, 21243.65
728.5066, 21254.22
728.9887, 21197.21
729.4708, 21136.14
729.9529, 21116.28
730.4351, 21124.83
730.9172, 21145.09
731.3993, 21187.00
731.8814, 21222.46
732.3635, 21244.46
732.8456, 21257.18
733.3278, 21265.45
733.8099, 21266.23
734.2920, 21272.24
734.7741, 21291.86
735.2562, 21312.74
735.7383, 21290.32
736.2205, 21231.47
736.7026, 21198.82
737.1847, 21248.60
737.6668, 21321.50
738.1489, 21345.63
738.6310, 21332.01
739.1132, 21323.11
739.5953, 21354.66
740.0774, 21381.05
740.5595, 21367.55
741.0416, 21313.45
741.5237, 21307.68
742.0059, 21373.55
742.4880, 21447.88
742.9701, 21498.25
743.4522, 21524.90
743.9343, 21558.97
744.4164, 21599.55
744.8986, 21649.82
745.3807, 21723.90
745.8628, 21804.82
746.3449, 21858.04
746.8270, 21878.38
747.3091, 21898.69
747.7913, 21957.70
748.2734, 22014.47
748.7555, 22029.93
749.2376, 21966.10
749.7197, 21936.16
750.2018, 21955.54
750.6840, 21999.88
751.1661, 22045.29
751.6482, 22090.35
752.1303, 22154.13
752.6124, 22239.92
753.0945, 22339.86
753.5767, 22463.84
754.0588, 22594.17
754.5409, 22676.28
755.0230, 22666.44
755.5051, 22660.01
755.9872, 22732.19
756.4694, 22849.36
756.9515, 22957.64
757.4336, 23046.37
757.9157, 23123.47
758.3978, 23190.59
758.8799, 23248.67
759.3621, 23294.28
759.8442, 23320.17
760.3263, 23377.80
760.8084, 23494.43
761.2905, 23641.61
761.7726, 23748.50
762.2548, 23827.78
762.7369, 23929.52
763.2190, 24118.27
763.7011, 24308.78
764.1832, 24407.70
764.6653, 24439.27
765.1475, 24511.47
765.6296, 24705.04
766.1117, 24889.09
766.5938, 25009.06
767.0759, 25072.52
767.5580, 25184.46
768.0402, 25359.49
768.5223, 25515.93
769.0044, 25595.05
769.4865, 25617.44
769.9686, 25671.47
770.4507, 25752.83
770.9329, 25799.52
771.4150, 25737.48
771.8971, 25642.24
772.3792, 25583.03
772.8613, 25568.62
773.3434, 25545.71
773.8256, 25521.30
774.3077, 25466.53
774.7898, 25361.03
775.2719, 25193.49
775.7540, 25043.05
776.2361, 24912.18
776.7183, 24788.78
777.2004, 24670.85
777.6825, 24552.39
778.1646, 24400.55
778.6467, 24209.43
779.1288, 24031.67
779.6110, 23918.56
780.0931, 23833.59
780.5752, 23742.20
781.0573, 23642.07
781.5394, 23521.08
782.0215, 23330.76
782.5037, 23148.92
782.9857, 23044.69
783.4678, 23045.48
783.9500, 23020.93
784.4321, 22957.28
784.9142, 22886.81
785.3963, 22853.38
785.8784, 22846.58
786.3605, 22824.86
786.8427, 22771.11
787.3248, 22733.21
787.8069, 22773.21
788.2890, 22843.76
788.7711, 22884.92
789.2532, 22861.20
789.7354, 22833.35
790.2175, 22788.38
790.6996, 22754.69
791.1817, 22778.67
791.6638, 22874.88
792.1459, 22951.15
792.6281, 22995.24
793.1102, 23008.47
793.5923, 22976.15
794.0744, 22913.68
794.5565, 22868.05
795.0386, 22849.28
795.5208, 22859.79
796.0029, 22929.21
796.4850, 23023.97
796.9671, 23084.80
797.4492, 23071.35
797.9313, 23059.09
798.4135, 23055.84
798.8956, 23060.87
799.3777, 23072.30
799.8598, 23090.00
800.3419, 23118.14
800.8240, 23164.29
801.3062, 23211.74
801.7883, 23220.39
802.2704, 23206.44
802.7525, 23214.55
803.2346, 23299.74
803.7167, 23376.56
804.1989, 23384.69
804.6810, 23350.70
805.1631, 23353.59
805.6452, 23433.61
806.1273, 23490.70
806.6094, 23490.88
807.0916, 23461.94
807.5737, 23496.11
808.0558, 23592.02
808.5379, 23677.70
809.0200, 23719.24
809.5021, 23739.20
809.9843, 23752.15
810.4664, 23767.78
810.9485, 23814.13
811.4306, 23947.14
811.9127, 24067.65
812.3948, 24123.08
812.8770, 24129.76
813.3591, 24161.71
813.8412, 24230.63
814.3233, 24293.78
814.8054, 24333.29
815.2875, 24360.51
815.7697, 24409.94
816.2518, 24480.31
816.7339, 24558.78
817.2160, 24646.13
817.6981, 24732.98
818.1802, 24808.36
818.6624, 24875.28
819.1445, 24946.62
819.6266, 25038.61
820.1087, 25122.51
820.5908, 25188.97
821.0729, 25240.80
821.5551, 25288.06
822.0372, 25330.46
822.5193, 25368.72
823.0014, 25405.21
823.4835, 25435.64
823.9656, 25444.80
824.4478, 25437.57
824.9299, 25437.03
825.4120, 25447.18
825.8941, 25474.38
826.3762, 25542.19
826.8583, 25637.25
827.3405, 25686.11
827.8226, 25658.67
828.3047, 25621.64
828.7868, 25585.61
829.2689, 25556.92
829.7510, 25573.21
830.2332, 25633.49
830.7153, 25683.00
831.1974, 25692.65
831.6795, 25676.94
832.1616, 25645.51
832.6437, 25603.64
833.1259, 25567.54
833.6080, 25534.86
834.0901, 25519.39
834.5722, 25541.94
835.0543, 25588.83
835.5364, 25601.98
836.0186, 25570.75
836.5007, 25538.54
836.9828, 25520.42
837.4649, 25511.50
837.9470, 25497.83
838.4291, 25481.25
838.9113, 25422.02
839.3934, 25496.84
839.8755, 25536.66
840.3576, 25543.36
840.8397, 25417.78
841.3218, 25463.03
841.8040, 25439.81
842.2861, 25413.79
842.7682, 25483.07
843.2503, 25376.73
843.7324, 25444.50
844.2145, 25442.78
844.6967, 25472.85
845.1788, 25434.05
845.6609, 25416.53
846.1430, 25467.90
846.6251, 25481.13
847.1072, 25380.83
847.5894, 25369.78
848.0715, 25351.63
848.5536, 25317.49
849.0357, 25275.59
849.5178, 25245.50
849.9999, 25225.74
850.4821, 25230.28
850.9642, 25279.12
851.4463, 25334.74
851.9284, 25291.33
852.4105, 25177.24
852.8926, 25104.32
853.3748, 25150.42
853.8569, 25213.14
854.3390, 25224.02
854.8211, 25200.83
855.3032, 25181.18
855.7853, 25173.64
856.2675, 25165.07
856.7496, 25149.58
857.2317, 25135.16
857.7138, 25137.42
858.1959, 25155.74
858.6780, 25188.93
859.1602, 25246.01
859.6423, 25294.24
860.1244, 25281.00
860.6065, 25235.43
861.0886, 25207.49
861.5707, 25220.45
862.0529, 25244.79
862.5350, 25293.34
863.0171, 25339.77
863.4992, 25346.67
863.9813, 25302.77
864.4634, 25273.75
864.9456, 25269.67
865.4276, 25278.96
865.9097, 25299.80
866.3918, 25320.57
866.8740, 25308.09
867.3561, 25238.91
867.8382, 25182.15
868.3203, 25188.82
868.8024, 25220.86
869.2845, 25234.26
869.7667, 25199.71
870.2488, 25207.23
870.7309, 25274.39
871.2130, 25350.57
871.6951, 25379.57
872.1772, 25367.88
872.6594, 25341.13
873.1415, 25298.54
873.6236, 25270.80
874.1057, 25294.74
874.5878, 25339.24
875.0699, 25377.43
875.5521, 25409.94
876.0342, 25415.53
876.5163, 25367.57
876.9984, 25324.85
877.4805, 25339.13
877.9626, 25413.13
878.4448, 25427.13
878.9269, 25375.99
879.4090, 25340.98
879.8911, 25434.91
880.3732, 25558.35
880.8553, 25572.73
881.3375, 25466.52
881.8196, 25388.00
882.3017, 25412.25
882.7838, 25451.29
883.2659, 25461.64
883.7480, 25443.81
884.2302, 25449.52
884.7123, 25481.18
885.1944, 25519.20
885.6765, 25552.02
886.1586, 25583.26
886.6407, 25629.50
887.1229, 25684.40
887.6050, 25717.15
888.0871, 25684.45
888.5692, 25653.87
889.0513, 25665.99
889.5334, 25710.51
890.0156, 25731.54
890.4977, 25716.26
890.9798, 25720.79
891.4619, 25774.24
891.9440, 25847.65
892.4261, 25870.82
892.9083, 25854.27
893.3904, 25839.54
893.8725, 25853.16
894.3546, 25865.15
894.8367, 25848.28
895.3188, 25819.54
895.8010, 25820.00
896.2831, 25881.48
896.7652, 25909.26
897.2473, 25882.75
897.7294, 25830.34
898.2115, 25798.66
898.6937, 25784.06
899.1758, 25762.15
899.6579, 25719.73
900.1400, 25692.46
900.6221, 25735.34
901.1042, 25799.67
901.5864, 25826.04
902.0685, 25764.81
902.5506, 25728.25
903.0327, 25728.75
903.5148, 25737.58
903.9969, 25715.45
904.4791, 25667.99
904.9612, 25667.51
905.4433, 25722.94
905.9254, 25781.37
906.4075, 25795.86
906.8896, 25791.45
907.3718, 25795.81
907.8539, 25816.15
908.3360, 25820.98
908.8181, 25794.21
909.3002, 25766.83
909.7823, 25755.20
910.2645, 25758.53
910.7466, 25763.23
911.2287, 25769.24
911.7108, 25773.36
912.1929, 25768.94
912.6750, 25764.21
913.1572, 25767.73
913.6393, 25779.04
914.1214, 25794.22
914.6035, 25826.15
915.0856, 25844.48
915.5677, 25828.86
916.0499, 25796.63
916.5320, 25828.49
917.0141, 25926.49
917.4962, 25979.02
917.9783, 25916.90
918.4604, 25826.51
918.9426, 25809.56
919.4247, 25846.77
919.9068, 25898.20
920.3889, 25981.05
920.8710, 26035.57
921.3531, 26028.38
921.8353, 26002.44
922.3174, 26022.97
922.7995, 26093.38
923.2816, 26146.99
923.7637, 26171.84
924.2458, 26182.60
924.7280, 26188.40
925.2101, 26193.68
925.6922, 26206.06
926.1743, 26229.49
926.6564, 26252.37
927.1385, 26269.20
927.6207, 26286.71
928.1028, 26313.49
928.5849, 26353.38
929.0670, 26367.01
929.5491, 26353.50
930.0313, 26327.03
930.5134, 26276.58
930.9955, 26232.46
931.4776, 26251.08
931.9597, 26326.40
932.4418, 26374.04
932.9240, 26327.92
933.4061, 26285.76
933.8882, 26290.60
934.3703, 26330.39
934.8524, 26330.63
935.3345, 26287.51
935.8167, 26274.06
936.2988, 26343.04
936.7809, 26429.61
937.2630, 26442.17
937.7451, 26403.72
938.2272, 26366.30
938.7094, 26331.35
939.1915, 26322.56
939.6736, 26365.46
940.1557, 26421.99
940.6378, 26433.96
941.1199, 26397.65
941.6021, 26376.13
942.0842, 26380.47
942.5663, 26391.71
943.0484, 26385.54
943.5305, 26374.76
944.0126, 26375.08
944.4948, 26387.75
944.9769, 26419.69
945.4590, 26508.52
945.9411, 26582.67
946.4232, 26593.10
946.9053, 26538.51
947.3875, 26518.57
947.8695, 26534.08
948.3516, 26562.00
948.8337, 26591.52
949.3159, 26620.63
949.7980, 26649.98
950.2801, 26677.66
950.7622, 26693.22
951.2443, 26674.73
951.7264, 26665.68
952.2086, 26678.94
952.6907, 26707.50
953.1728, 26737.41
953.6549, 26767.23
954.1370, 26771.58
954.6191, 26723.82
955.1013, 26682.44
955.5834, 26723.44
956.0655, 26806.00
956.5476, 26868.42
957.0297, 26876.14
957.5118, 26892.01
957.9940, 26929.79
958.4761, 26962.17
958.9582, 26950.11
959.4403, 26900.54
959.9224, 26879.63
960.4045, 26893.93
960.8867, 26913.10
961.3688, 26908.31
961.8509, 26900.63
962.3330, 26908.72
962.8151, 26935.39
963.2972, 26965.52
963.7794, 27008.34
964.2615, 27034.68
964.7436, 27025.09
965.2257, 26992.51
965.7078, 26984.03
966.1899, 26996.06
966.6721, 27009.42
967.1542, 27011.42
967.6363, 27015.41
968.1184, 27043.14
968.6005, 27076.23
969.0826, 27070.21
969.5648, 26995.38
970.0469, 26954.78
970.5290, 26965.38
971.0111, 27003.09
971.4932, 27039.21
971.9753, 27074.99
972.4575, 27117.21
972.9396, 27171.04
973.4217, 27209.18
973.9038, 27204.55
974.3859, 27187.63
974.8680, 27176.88
975.3502, 27170.73
975.8323, 27189.32
976.3144, 27234.57
976.7965, 27291.69
977.2786, 27366.67
977.7607, 27439.99
978.2429, 27476.47
978.7250, 27479.81
979.2071, 27466.64
979.6892, 27429.15
980.1713, 27393.03
980.6534, 27361.09
981.1356, 27338.26
981.6177, 27335.87
982.0998, 27354.73
982.5819, 27391.16
983.0640, 27453.25
983.5461, 27504.83
984.0283, 27483.70
984.5104, 27437.17
984.9925, 27431.02
985.4746, 27496.69
985.9567, 27551.49
986.4388, 27586.89
986.9210, 27607.91
987.4031, 27612.52
987.8852, 27602.60
988.3673, 27606.96
988.8494, 27624.42
989.3315, 27635.27
989.8137, 27608.96
990.2958, 27703.51
990.7779, 27827.38
991.2600, 27904.59
991.7421, 27937.65
992.2242, 27794.33
992.7064, 27878.77
993.1885, 27871.94
993.6706, 27861.36
994.1527, 27977.86
994.6348, 27860.19
995.1169, 27974.67
995.5991, 27996.49
996.0812, 28060.72
996.5633, 28033.10
997.0454, 28033.86
997.5275, 28126.48
998.0096, 28168.23
998.4918, 27864.86
998.9739, 27933.19
999.4560, 28005.19
999.9381, 28031.60
1000.420, 28035.87
1000.902, 28060.53
1001.384, 28100.24
1001.867, 28117.53
1002.349, 28068.92
1002.831, 28032.39
1003.313, 28031.03
1003.795, 28054.54
1004.277, 28086.12
1004.759, 28124.84
1005.241, 28137.25
1005.724, 28108.85
1006.206, 28073.40
1006.688, 28063.34
1007.170, 28064.44
1007.652, 28058.06
1008.134, 28027.66
1008.616, 28031.19
1009.098, 28083.27
1009.580, 28140.09
1010.063, 28173.17
1010.545, 28185.35
1011.027, 28188.05
1011.509, 28180.41
1011.991, 28158.08
1012.473, 28077.65
1012.955, 28022.93
1013.437, 28062.05
1013.919, 28156.78
1014.402, 28211.59
1014.884, 28221.38
1015.366, 28219.68
1015.848, 28209.75
1016.330, 28202.74
1016.812, 28215.96
1017.294, 28240.78
1017.776, 28267.58
1018.259, 28299.48
1018.741, 28313.07
1019.223, 28294.44
1019.705, 28266.59
1020.187, 28232.40
1020.669, 28196.38
1021.151, 28212.14
1021.633, 28275.46
1022.115, 28338.28
1022.598, 28372.95
1023.080, 28394.35
1023.562, 28399.79
1024.044, 28400.54
1024.526, 28430.11
1025.008, 28511.16
1025.490, 28561.35
1025.972, 28564.03
1026.454, 28549.89
1026.937, 28558.54
1027.419, 28581.49
1027.901, 28606.79
1028.383, 28635.93
1028.865, 28638.03
1029.347, 28549.91
1029.829, 28433.38
1030.311, 28527.61
1030.794, 28586.87
1031.276, 28612.98
1031.758, 28506.82
1032.240, 28571.47
1032.722, 28567.66
1033.204, 28561.05
1033.686, 28649.74
1034.168, 28562.81
1034.651, 28650.03
1035.133, 28667.71
1035.615, 28717.20
1036.097, 28697.81
1036.579, 28699.69
1037.061, 28770.48
1037.543, 28803.11
1038.025, 28775.79
1038.507, 28827.31
1038.990, 28738.00
1039.472, 28772.26
1039.954, 28859.85
1040.436, 28835.99
1040.918, 28888.76
1041.400, 28912.35
1041.882, 28803.31
1042.364, 28924.92
1042.846, 28946.78
1043.329, 28866.25
1043.811, 28979.97
1044.293, 28913.52
1044.775, 28911.39
1045.257, 28957.64
1045.739, 28953.45
1046.221, 29028.79
1046.703, 28923.17
1047.186, 28914.26
1047.668, 28936.45
1048.150, 28973.48
1048.632, 29021.00
1049.114, 29052.67
1049.596, 29022.28
1050.078, 29006.45
1050.560, 29060.12
1051.042, 29149.04
1051.525, 29204.33
1052.007, 29221.49
1052.489, 29244.62
1052.971, 29280.41
1053.453, 29323.99
1053.935, 29390.21
1054.417, 29449.00
1054.899, 29449.96
1055.381, 29370.35
1055.864, 29356.35
1056.346, 29461.65
1056.828, 29545.45
1057.310, 29527.85
1057.792, 29453.09
1058.274, 29457.85
1058.756, 29521.66
1059.238, 29572.30
1059.721, 29568.99
1060.203, 29563.16
1060.685, 29572.01
1061.167, 29592.12
1061.649, 29622.26
1062.131, 29664.91
1062.613, 29696.89
1063.095, 29717.36
1063.578, 29729.17
1064.060, 29724.22
1064.542, 29719.60
1065.024, 29726.34
1065.506, 29746.97
1065.988, 29798.50
1066.470, 29903.17
1066.952, 29982.64
1067.434, 30010.85
1067.917, 30021.37
1068.399, 30085.65
1068.881, 30175.04
1069.363, 30213.65
1069.845, 30167.77
1070.327, 30149.79
1070.809, 30227.68
1071.291, 30324.21
1071.773, 30395.93
1072.255, 30445.25
1072.738, 30506.47
1073.220, 30577.27
1073.702, 30618.28
1074.184, 30583.53
1074.666, 30540.60
1075.148, 30540.84
1075.630, 30567.80
1076.112, 30590.74
1076.595, 30602.33
1077.077, 30636.27
1077.559, 30703.95
1078.041, 30758.29
1078.523, 30733.92
1079.005, 30677.67
1079.487, 30656.11
1079.969, 30673.65
1080.452, 30722.84
1080.934, 30836.58
1081.416, 30934.87
1081.898, 30990.20
1082.380, 31028.51
1082.862, 31123.14
1083.344, 31254.02
1083.826, 31327.88
1084.308, 31305.14
1084.791, 31301.83
1085.273, 31410.06
1085.755, 31546.05
1086.237, 31652.29
1086.719, 31729.15
1087.201, 31767.72
1087.683, 31766.01
1088.165, 31779.26
1088.647, 31851.27
1089.130, 31934.25
1089.612, 31963.14
1090.094, 31972.42
1090.576, 32027.07
1091.058, 32172.17
1091.540, 32291.80
1092.022, 32381.06
1092.504, 32450.15
1092.987, 32507.22
1093.469, 32550.70
1093.951, 32566.57
1094.433, 32560.03
1094.915, 32572.98
1095.397, 32652.39
1095.879, 32713.86
1096.361, 32733.09
1096.844, 32725.13
1097.326, 32726.46
1097.808, 32729.98
1098.290, 32681.56
1098.772, 32562.41
1099.254, 32463.37
1099.736, 32505.28
1100.218, 32540.42
1100.700, 32444.81
1101.182, 32231.45
1101.665, 32066.05
1102.147, 31949.68
1102.629, 31865.36
1103.111, 31811.22
1103.593, 31778.29
1104.075, 31769.71
1104.557, 31771.17
1105.039, 31762.00
1105.522, 31732.15
1106.004, 31704.58
1106.486, 31676.88
1106.968, 31659.23
1107.450, 31655.47
1107.932, 31669.69
1108.414, 31731.62
1108.896, 31823.39
1109.379, 31874.29
1109.861, 31824.31
1110.343, 31781.94
1110.825, 31776.28
1111.307, 31772.94
1111.789, 31729.69
1112.271, 31649.01
1112.753, 31531.43
1113.235, 31378.72
1113.718, 31240.18
1114.200, 31210.27
1114.682, 31134.03
1115.164, 30891.45
1115.646, 30548.19
1116.128, 30320.54
1116.610, 30206.54
1117.092, 30102.18
1117.574, 29977.14
1118.057, 29870.85
1118.539, 29839.62
1119.021, 29831.26
1119.503, 29784.75
1119.985, 29688.40
1120.467, 29660.05
1120.949, 29713.73
1121.431, 29754.23
1121.914, 29721.07
1122.396, 29670.76
1122.878, 29689.58
1123.360, 29745.40
1123.842, 29781.81
1124.324, 29778.92
1124.806, 29756.48
1125.288, 29696.35
1125.771, 29658.26
1126.253, 29707.20
1126.735, 29807.21
1127.217, 29878.64
1127.699, 29921.63
1128.181, 29949.56
1128.663, 29963.28
1129.145, 29963.90
1129.627, 29944.98
1130.109, 29921.10
1130.592, 29912.43
1131.074, 29917.04
1131.556, 29929.41
1132.038, 29949.21
1132.520, 29963.30
1133.002, 29974.42
1133.484, 29967.37
1133.966, 29924.35
1134.449, 29863.08
1134.931, 29839.05
1135.413, 29850.66
1135.895, 29842.21
1136.377, 29795.86
1136.859, 29753.30
1137.341, 29762.64
1137.823, 29780.48
1138.306, 29760.75
1138.788, 29702.88
1139.270, 29664.44
1139.752, 29644.89
1140.234, 29635.87
1140.716, 29630.02
1141.198, 29638.18
1141.680, 29701.81
1142.162, 29775.51
1142.645, 29788.42
1143.127, 29699.80
1143.609, 29646.33
1144.091, 29637.65
1144.573, 29635.37
1145.055, 29611.45
1145.537, 29581.40
1146.019, 29567.76
1146.501, 29569.68
1146.984, 29583.69
1147.466, 29628.68
1147.948, 29654.31
1148.430, 29649.30
1148.912, 29640.20
1149.394, 29657.06
1149.876, 29687.83
1150.358, 29705.73
1150.841, 29709.62
1151.323, 29707.83
1151.805, 29687.50
1152.287, 29681.38
1152.769, 29695.78
1153.251, 29727.37
1153.733, 29780.96
1154.215, 29847.90
1154.697, 29892.85
1155.180, 29911.58
1155.662, 29923.34
1156.144, 29955.33
1156.626, 29962.56
1157.108, 29913.73
1157.590, 29835.47
1158.072, 29806.53
1158.554, 29821.37
1159.036, 29838.05
1159.519, 29844.30
1160.001, 29859.43
1160.483, 29920.63
1160.965, 29972.81
1161.447, 29970.62
1161.929, 29921.49
1162.411, 29897.15
1162.893, 29896.31
1163.375, 29869.75
1163.858, 29778.14
1164.340, 29699.35
1164.822, 29713.43
1165.304, 29763.20
1165.786, 29784.22
1166.268, 29770.94
1166.750, 29767.46
1167.232, 29774.20
1167.715, 29790.80
1168.197, 29824.17
1168.679, 29858.99
1169.161, 29872.23
1169.643, 29878.23
1170.125, 29903.55
1170.607, 29953.60
1171.089, 30003.68
1171.572, 30052.98
1172.054, 30101.06
1172.536, 30158.30
1173.018, 30206.94
1173.500, 30222.80
1173.982, 30212.41
1174.464, 30193.98
1174.946, 30157.58
1175.428, 30149.24
1175.911, 30177.69
1176.393, 30217.37
1176.875, 30254.07
1177.357, 30279.74
1177.839, 30273.73
1178.321, 30241.74
1178.803, 30230.62
1179.285, 30259.97
1179.767, 30279.20
1180.250, 30273.58
1180.732, 30270.36
1181.214, 30323.31
1181.696, 30395.86
1182.178, 30422.48
1182.660, 30395.34
1183.142, 30366.68
1183.624, 30343.79
1184.107, 30324.35
1184.589, 30306.25
1185.071, 30294.14
1185.553, 30298.31
1186.035, 30314.59
1186.517, 30337.75
1186.999, 30369.71
1187.481, 30389.44
1187.964, 30395.32
1188.446, 30383.95
1188.928, 30346.54
1189.410, 30300.05
1189.892, 30283.30
1190.374, 30289.73
1190.856, 30303.21
1191.338, 30317.24
1191.820, 30346.95
1192.302, 30411.22
1192.785, 30468.09
1193.267, 30502.02
1193.749, 30508.55
1194.231, 30438.67
1194.713, 30328.96
1195.195, 30293.74
1195.677, 30431.90
1196.159, 30531.73
1196.642, 30523.04
1197.124, 30491.52
1197.606, 30499.83
1198.088, 30533.26
1198.570, 30515.87
1199.052, 30464.71
1199.534, 30444.34
1200.016, 30521.18
1200.499, 30581.57
1200.981, 30595.64
1201.463, 30590.99
1201.945, 30584.94
1202.427, 30580.00
1202.909, 30592.01
1203.391, 30618.25
1203.873, 30641.64
1204.355, 30647.63
1204.838, 30658.18
1205.320, 30683.83
1205.802, 30710.29
1206.284, 30721.16
1206.766, 30718.49
1207.248, 30706.73
1207.730, 30688.63
1208.212, 30684.81
1208.694, 30723.38
1209.177, 30754.68
1209.659, 30756.22
1210.141, 30751.73
1210.623, 30783.22
1211.105, 30839.50
1211.587, 30867.98
1212.069, 30865.01
1212.551, 30854.60
1213.034, 30825.40
1213.516, 30823.75
1213.998, 30881.88
1214.480, 30954.81
1214.962, 30946.52
1215.444, 30880.36
1215.926, 30855.43
1216.408, 30885.25
1216.891, 30909.70
1217.373, 30874.46
1217.855, 30861.79
1218.337, 30915.02
1218.819, 30995.56
1219.301, 31023.39
1219.783, 31005.57
1220.265, 30952.20
1220.747, 30860.10
1221.229, 30797.99
1221.712, 30818.94
1222.194, 30851.65
1222.676, 30865.81
1223.158, 30875.37
1223.640, 30931.27
1224.122, 31012.88
1224.604, 31043.39
1225.086, 30993.43
1225.569, 30973.62
1226.051, 31086.83
1226.533, 31169.05
1227.015, 31143.06
1227.497, 31055.12
1227.979, 31029.53
1228.461, 31048.76
1228.943, 31062.04
1229.426, 31054.53
1229.908, 31050.61
1230.390, 31055.32
1230.872, 31070.00
1231.354, 31096.18
1231.836, 31132.72
1232.318, 31196.68
1232.800, 31266.32
1233.282, 31271.49
1233.765, 31149.91
1234.247, 31102.10
1234.729, 31218.24
1235.211, 31324.23
1235.693, 31316.21
1236.175, 31249.39
1236.657, 31287.25
1237.139, 31380.54
1237.621, 31409.06
1238.104, 31294.17
1238.586, 31224.47
1239.068, 31234.38
1239.550, 31262.70
1240.032, 31274.73
1240.514, 31282.12
1240.996, 31319.55
1241.478, 31371.32
1241.960, 31399.32
1242.443, 31369.74
1242.925, 31366.59
1243.407, 31398.03
1243.889, 31442.34
1244.371, 31483.17
1244.853, 31528.23
1245.335, 31600.99
1245.817, 31671.28
1246.300, 31706.55
1246.782, 31708.73
1247.264, 31578.62
1247.746, 31619.34
1248.228, 31591.59
1248.710, 31561.04
1249.192, 31625.80
1249.674, 31514.93
1250.156, 31578.18
1250.639, 31427.44
1251.121, 31482.33
1251.603, 31530.73
1252.085, 31574.68
1252.567, 31600.31
1253.049, 31581.96
1253.531, 31553.50
1254.013, 31542.75
1254.495, 31550.97
1254.978, 31584.97
1255.460, 31654.58
1255.942, 31695.08
1256.424, 31702.30
1256.906, 31698.95
1257.388, 31701.68
1257.870, 31699.07
1258.352, 31678.83
1258.835, 31647.21
1259.317, 31611.11
1259.799, 31564.91
1260.281, 31576.26
1260.763, 31647.84
1261.245, 31716.32
1261.727, 31769.60
1262.209, 31775.38
1262.692, 31650.07
1263.174, 31502.86
1263.656, 31503.02
1264.138, 31650.01
1264.620, 31714.13
1265.102, 31691.17
1265.584, 31646.26
1266.066, 31566.70
1266.548, 31537.39
1267.031, 31632.16
1267.513, 31764.39
1267.995, 31838.24
1268.477, 31861.05
1268.959, 31889.31
1269.441, 31923.84
1269.923, 31956.38
1270.405, 31975.97
1270.887, 32000.27
1271.370, 32039.73
1271.852, 32074.67
1272.334, 32083.69
1272.816, 32070.95
1273.298, 32036.76
1273.780, 31990.52
1274.262, 31975.33
1274.744, 32044.19
1275.227, 32096.86
1275.709, 32126.26
1276.191, 32129.20
1276.673, 32084.35
1277.155, 32020.50
1277.637, 31984.66
1278.119, 31978.20
1278.601, 31997.88
1279.083, 32061.53
1279.566, 32110.41
1280.048, 32138.34
1280.530, 32154.04
1281.012, 32160.25
1281.494, 32162.04
1281.976, 32158.26
1282.458, 32155.09
1282.940, 32173.88
1283.422, 32220.98
1283.905, 32263.62
1284.387, 32299.66
1284.869, 32322.41
1285.351, 32316.75
1285.833, 32305.54
1286.315, 32309.71
1286.797, 32321.32
1287.279, 32327.14
1287.762, 32328.64
1288.244, 32284.57
1288.726, 32194.61
1289.208, 32150.76
1289.690, 32274.79
1290.172, 32396.67
1290.654, 32410.79
1291.136, 32373.79
1291.619, 32358.10
1292.101, 32367.42
1292.583, 32388.36
1293.065, 32417.08
1293.547, 32434.87
1294.029, 32414.46
1294.511, 32406.79
1294.993, 32433.24
1295.475, 32459.72
1295.958, 32479.56
1296.440, 32529.68
1296.922, 32553.13
1297.404, 32564.60
1297.886, 32593.80
1298.368, 32678.26
1298.850, 32725.25
##END=



