##NAMES=Maricopaite
##RRUFFID=R120147
##IDEAL CHEMISTRY=Ca_2_Pb^2+^_7_(Si_36_Al_12_)O_99_&#183;n(H_2_O,OH)
##LOCALITY=Moon Anchor mine, Hummingbird Spring,  Big Horn Mts, Maricopa County, Arizona, USA
##OWNER=RRUFF
##SOURCE=Bob Jenkins and Ron Gibbs
##DESCRIPTION=Spherical radial aggregates of white bladed crystals associated with yellow mimetite
##STATUS=The identification of this mineral has been confirmed by single-crystal X-ray diffraction.
##URL=rruff.info/R120147
8.936163e+001, 0.000000e+000
8.984375e+001, 5.930109e+002
9.032587e+001, 5.955474e+002
9.080798e+001, 5.961923e+002
9.129010e+001, 5.946848e+002
9.177222e+001, 5.915705e+002
9.225433e+001, 5.873282e+002
9.273645e+001, 5.819752e+002
9.321857e+001, 5.758087e+002
9.370068e+001, 5.687919e+002
9.418280e+001, 5.611246e+002
9.466492e+001, 5.534836e+002
9.514703e+001, 5.454620e+002
9.562915e+001, 5.377522e+002
9.611127e+001, 5.326082e+002
9.659338e+001, 5.304457e+002
9.707550e+001, 5.289293e+002
9.755762e+001, 5.252059e+002
9.803973e+001, 5.192217e+002
9.852185e+001, 5.127333e+002
9.900397e+001, 5.053323e+002
9.948608e+001, 4.969027e+002
9.996820e+001, 4.929610e+002
1.004503e+002, 4.951404e+002
1.009324e+002, 4.998973e+002
1.014146e+002, 4.997043e+002
1.018967e+002, 4.934526e+002
1.023788e+002, 4.854152e+002
1.028609e+002, 4.771836e+002
1.033430e+002, 4.680793e+002
1.038251e+002, 4.614485e+002
1.043073e+002, 4.588734e+002
1.047894e+002, 4.591882e+002
1.052715e+002, 4.560331e+002
1.057536e+002, 4.468686e+002
1.062357e+002, 4.370021e+002
1.067178e+002, 4.301161e+002
1.072000e+002, 4.288185e+002
1.076821e+002, 4.267919e+002
1.081642e+002, 4.228026e+002
1.086463e+002, 4.166200e+002
1.091284e+002, 4.116871e+002
1.096105e+002, 4.092579e+002
1.100927e+002, 4.075292e+002
1.105748e+002, 4.048510e+002
1.110569e+002, 4.000454e+002
1.115390e+002, 3.953714e+002
1.120211e+002, 3.914138e+002
1.125032e+002, 3.883939e+002
1.129854e+002, 3.853597e+002
1.134675e+002, 3.830955e+002
1.139496e+002, 3.805949e+002
1.144317e+002, 3.763528e+002
1.149138e+002, 3.675424e+002
1.153959e+002, 3.587766e+002
1.158781e+002, 3.522122e+002
1.163602e+002, 3.486534e+002
1.168423e+002, 3.461239e+002
1.173244e+002, 3.447229e+002
1.178065e+002, 3.439058e+002
1.182886e+002, 3.422860e+002
1.187708e+002, 3.381974e+002
1.192529e+002, 3.336142e+002
1.197350e+002, 3.302178e+002
1.202171e+002, 3.295027e+002
1.206992e+002, 3.287785e+002
1.211813e+002, 3.260067e+002
1.216635e+002, 3.215246e+002
1.221456e+002, 3.172508e+002
1.226277e+002, 3.145103e+002
1.231098e+002, 3.126620e+002
1.235919e+002, 3.108655e+002
1.240740e+002, 3.089549e+002
1.245562e+002, 3.068750e+002
1.250383e+002, 3.045363e+002
1.255204e+002, 3.019306e+002
1.260025e+002, 2.992685e+002
1.264846e+002, 2.965996e+002
1.269667e+002, 2.939991e+002
1.274489e+002, 2.916543e+002
1.279310e+002, 2.898624e+002
1.284131e+002, 2.883463e+002
1.288952e+002, 2.866161e+002
1.293773e+002, 2.846642e+002
1.298594e+002, 2.824351e+002
1.303416e+002, 2.795493e+002
1.308237e+002, 2.761448e+002
1.313058e+002, 2.730349e+002
1.317879e+002, 2.709230e+002
1.322700e+002, 2.695704e+002
1.327521e+002, 2.677665e+002
1.332343e+002, 2.653041e+002
1.337164e+002, 2.625483e+002
1.341985e+002, 2.600134e+002
1.346806e+002, 2.577000e+002
1.351627e+002, 2.555900e+002
1.356448e+002, 2.537952e+002
1.361270e+002, 2.523138e+002
1.366091e+002, 2.506956e+002
1.370912e+002, 2.488643e+002
1.375733e+002, 2.468779e+002
1.380554e+002, 2.446590e+002
1.385375e+002, 2.420060e+002
1.390197e+002, 2.396954e+002
1.395018e+002, 2.386554e+002
1.399839e+002, 2.394285e+002
1.404660e+002, 2.390476e+002
1.409481e+002, 2.365001e+002
1.414302e+002, 2.320549e+002
1.419124e+002, 2.293201e+002
1.423945e+002, 2.291412e+002
1.428766e+002, 2.295137e+002
1.433587e+002, 2.283812e+002
1.438408e+002, 2.250200e+002
1.443229e+002, 2.216356e+002
1.448051e+002, 2.186208e+002
1.452872e+002, 2.159192e+002
1.457693e+002, 2.137912e+002
1.462514e+002, 2.124081e+002
1.467335e+002, 2.114604e+002
1.472156e+002, 2.105247e+002
1.476978e+002, 2.094456e+002
1.481799e+002, 2.085890e+002
1.486620e+002, 2.081875e+002
1.491441e+002, 2.087240e+002
1.496262e+002, 2.083996e+002
1.501083e+002, 2.066299e+002
1.505905e+002, 2.041021e+002
1.510726e+002, 2.020045e+002
1.515547e+002, 2.006700e+002
1.520368e+002, 1.994976e+002
1.525189e+002, 1.983020e+002
1.530010e+002, 1.970664e+002
1.534832e+002, 1.958426e+002
1.539653e+002, 1.945414e+002
1.544474e+002, 1.932486e+002
1.549295e+002, 1.921703e+002
1.554116e+002, 1.917474e+002
1.558937e+002, 1.912429e+002
1.563759e+002, 1.903188e+002
1.568580e+002, 1.886774e+002
1.573401e+002, 1.869525e+002
1.578222e+002, 1.849066e+002
1.583043e+002, 1.827684e+002
1.587864e+002, 1.813787e+002
1.592686e+002, 1.817840e+002
1.597507e+002, 1.825327e+002
1.602328e+002, 1.826927e+002
1.607149e+002, 1.812061e+002
1.611970e+002, 1.799463e+002
1.616791e+002, 1.794554e+002
1.621613e+002, 1.797007e+002
1.626434e+002, 1.804276e+002
1.631255e+002, 1.819694e+002
1.636076e+002, 1.837641e+002
1.640897e+002, 1.853112e+002
1.645718e+002, 1.863445e+002
1.650540e+002, 1.871794e+002
1.655361e+002, 1.876852e+002
1.660182e+002, 1.879063e+002
1.665003e+002, 1.887222e+002
1.669824e+002, 1.913116e+002
1.674645e+002, 1.945980e+002
1.679467e+002, 1.972182e+002
1.684288e+002, 1.975832e+002
1.689109e+002, 1.978579e+002
1.693930e+002, 1.994966e+002
1.698751e+002, 2.025781e+002
1.703572e+002, 2.066087e+002
1.708394e+002, 2.113940e+002
1.713215e+002, 2.169351e+002
1.718036e+002, 2.231456e+002
1.722857e+002, 2.303105e+002
1.727678e+002, 2.380141e+002
1.732499e+002, 2.459812e+002
1.737321e+002, 2.543118e+002
1.742142e+002, 2.624642e+002
1.746963e+002, 2.703060e+002
1.751784e+002, 2.777931e+002
1.756605e+002, 2.848496e+002
1.761426e+002, 2.912201e+002
1.766248e+002, 2.971462e+002
1.771069e+002, 3.030773e+002
1.775890e+002, 3.092186e+002
1.780711e+002, 3.147409e+002
1.785532e+002, 3.184416e+002
1.790353e+002, 3.207027e+002
1.795175e+002, 3.227515e+002
1.799996e+002, 3.248995e+002
1.804817e+002, 3.273730e+002
1.809638e+002, 3.309618e+002
1.814459e+002, 3.361732e+002
1.819280e+002, 3.414138e+002
1.824102e+002, 3.439906e+002
1.828923e+002, 3.443129e+002
1.833744e+002, 3.452860e+002
1.838565e+002, 3.488965e+002
1.843386e+002, 3.546038e+002
1.848207e+002, 3.607773e+002
1.853029e+002, 3.672979e+002
1.857850e+002, 3.741173e+002
1.862671e+002, 3.813684e+002
1.867492e+002, 3.890120e+002
1.872313e+002, 3.968501e+002
1.877134e+002, 4.046066e+002
1.881956e+002, 4.124354e+002
1.886777e+002, 4.207792e+002
1.891598e+002, 4.300208e+002
1.896419e+002, 4.395840e+002
1.901240e+002, 4.482022e+002
1.906061e+002, 4.559517e+002
1.910883e+002, 4.634510e+002
1.915704e+002, 4.713565e+002
1.920525e+002, 4.796599e+002
1.925346e+002, 4.876107e+002
1.930167e+002, 4.951534e+002
1.934988e+002, 5.018544e+002
1.939810e+002, 5.053326e+002
1.944631e+002, 5.049626e+002
1.949452e+002, 5.046277e+002
1.954273e+002, 5.058797e+002
1.959094e+002, 5.086566e+002
1.963915e+002, 5.102207e+002
1.968737e+002, 5.098593e+002
1.973558e+002, 5.080533e+002
1.978379e+002, 5.063231e+002
1.983200e+002, 5.046841e+002
1.988021e+002, 5.031241e+002
1.992842e+002, 5.015326e+002
1.997664e+002, 4.998744e+002
2.002485e+002, 4.988258e+002
2.007306e+002, 4.988560e+002
2.012127e+002, 4.996299e+002
2.016948e+002, 4.989231e+002
2.021769e+002, 4.963076e+002
2.026591e+002, 4.936082e+002
2.031412e+002, 4.927751e+002
2.036233e+002, 4.940536e+002
2.041054e+002, 4.951432e+002
2.045875e+002, 4.953380e+002
2.050696e+002, 4.948112e+002
2.055518e+002, 4.953412e+002
2.060339e+002, 4.972718e+002
2.065160e+002, 4.994443e+002
2.069981e+002, 5.004928e+002
2.074802e+002, 5.000794e+002
2.079623e+002, 5.000913e+002
2.084445e+002, 5.011570e+002
2.089266e+002, 5.032094e+002
2.094087e+002, 5.044991e+002
2.098908e+002, 5.047474e+002
2.103729e+002, 5.047545e+002
2.108550e+002, 5.055523e+002
2.113372e+002, 5.075057e+002
2.118193e+002, 5.089175e+002
2.123014e+002, 5.092556e+002
2.127835e+002, 5.085199e+002
2.132656e+002, 5.078780e+002
2.137477e+002, 5.072641e+002
2.142299e+002, 5.068239e+002
2.147120e+002, 5.067324e+002
2.151941e+002, 5.070116e+002
2.156762e+002, 5.075802e+002
2.161583e+002, 5.086814e+002
2.166404e+002, 5.103952e+002
2.171226e+002, 5.108575e+002
2.176047e+002, 5.096840e+002
2.180868e+002, 5.077237e+002
2.185689e+002, 5.059157e+002
2.190510e+002, 5.042032e+002
2.195331e+002, 5.027597e+002
2.200153e+002, 5.016091e+002
2.204974e+002, 5.007548e+002
2.209795e+002, 5.002041e+002
2.214616e+002, 5.001367e+002
2.219437e+002, 5.001958e+002
2.224258e+002, 4.998745e+002
2.229080e+002, 4.989028e+002
2.233901e+002, 4.981579e+002
2.238722e+002, 4.979602e+002
2.243543e+002, 4.983935e+002
2.248364e+002, 4.985750e+002
2.253185e+002, 4.983777e+002
2.258007e+002, 4.980310e+002
2.262828e+002, 4.978466e+002
2.267649e+002, 4.979745e+002
2.272470e+002, 4.979175e+002
2.277291e+002, 4.973842e+002
2.282112e+002, 4.962002e+002
2.286934e+002, 4.958223e+002
2.291755e+002, 4.966799e+002
2.296576e+002, 4.979555e+002
2.301397e+002, 4.985919e+002
2.306218e+002, 4.984306e+002
2.311039e+002, 4.979321e+002
2.315861e+002, 4.971141e+002
2.320682e+002, 4.958721e+002
2.325503e+002, 4.950477e+002
2.330324e+002, 4.948138e+002
2.335145e+002, 4.948733e+002
2.339966e+002, 4.948428e+002
2.344788e+002, 4.946207e+002
2.349609e+002, 4.945210e+002
2.354430e+002, 4.947113e+002
2.359251e+002, 4.952896e+002
2.364072e+002, 4.954386e+002
2.368893e+002, 4.948119e+002
2.373715e+002, 4.940338e+002
2.378536e+002, 4.939292e+002
2.383357e+002, 4.949240e+002
2.388178e+002, 4.958181e+002
2.392999e+002, 4.962359e+002
2.397820e+002, 4.960663e+002
2.402642e+002, 4.961877e+002
2.407463e+002, 4.967209e+002
2.412284e+002, 4.974220e+002
2.417105e+002, 4.980226e+002
2.421926e+002, 4.985815e+002
2.426747e+002, 4.989077e+002
2.431569e+002, 4.989161e+002
2.436390e+002, 4.985699e+002
2.441211e+002, 4.981572e+002
2.446032e+002, 4.976203e+002
2.450853e+002, 4.970630e+002
2.455674e+002, 4.966020e+002
2.460496e+002, 4.962423e+002
2.465317e+002, 4.959893e+002
2.470138e+002, 4.959243e+002
2.474959e+002, 4.960969e+002
2.479780e+002, 4.959252e+002
2.484601e+002, 4.951942e+002
2.489423e+002, 4.943518e+002
2.494244e+002, 4.940079e+002
2.499065e+002, 4.947942e+002
2.503886e+002, 4.948176e+002
2.508707e+002, 4.932613e+002
2.513528e+002, 4.900130e+002
2.518350e+002, 4.882356e+002
2.523171e+002, 4.885944e+002
2.527992e+002, 4.897124e+002
2.532813e+002, 4.901484e+002
2.537634e+002, 4.894535e+002
2.542455e+002, 4.890457e+002
2.547277e+002, 4.893847e+002
2.552098e+002, 4.904878e+002
2.556919e+002, 4.908690e+002
2.561740e+002, 4.903662e+002
2.566561e+002, 4.893309e+002
2.571382e+002, 4.880085e+002
2.576204e+002, 4.861355e+002
2.581025e+002, 4.845768e+002
2.585846e+002, 4.835359e+002
2.590667e+002, 4.829887e+002
2.595488e+002, 4.825744e+002
2.600309e+002, 4.822939e+002
2.605131e+002, 4.821629e+002
2.609952e+002, 4.822827e+002
2.614773e+002, 4.828702e+002
2.619594e+002, 4.830991e+002
2.624415e+002, 4.826899e+002
2.629236e+002, 4.817370e+002
2.634058e+002, 4.812730e+002
2.638879e+002, 4.815382e+002
2.643700e+002, 4.818885e+002
2.648521e+002, 4.817512e+002
2.653342e+002, 4.809191e+002
2.658163e+002, 4.803158e+002
2.662985e+002, 4.801248e+002
2.667806e+002, 4.802763e+002
2.672627e+002, 4.803844e+002
2.677448e+002, 4.804343e+002
2.682269e+002, 4.804612e+002
2.687090e+002, 4.804949e+002
2.691912e+002, 4.805448e+002
2.696733e+002, 4.805171e+002
2.701554e+002, 4.803166e+002
2.706375e+002, 4.800408e+002
2.711196e+002, 4.801659e+002
2.716017e+002, 4.808293e+002
2.720839e+002, 4.814998e+002
2.725660e+002, 4.817576e+002
2.730481e+002, 4.815213e+002
2.735302e+002, 4.814308e+002
2.740123e+002, 4.815848e+002
2.744944e+002, 4.819038e+002
2.749766e+002, 4.821324e+002
2.754587e+002, 4.822339e+002
2.759408e+002, 4.824037e+002
2.764229e+002, 4.828892e+002
2.769050e+002, 4.837581e+002
2.773871e+002, 4.840975e+002
2.778693e+002, 4.836715e+002
2.783514e+002, 4.828875e+002
2.788335e+002, 4.826517e+002
2.793156e+002, 4.830175e+002
2.797977e+002, 4.836084e+002
2.802798e+002, 4.842717e+002
2.807620e+002, 4.850013e+002
2.812441e+002, 4.857144e+002
2.817262e+002, 4.864118e+002
2.822083e+002, 4.870717e+002
2.826904e+002, 4.876167e+002
2.831725e+002, 4.880310e+002
2.836547e+002, 4.885026e+002
2.841368e+002, 4.891536e+002
2.846189e+002, 4.899611e+002
2.851010e+002, 4.907263e+002
2.855831e+002, 4.914301e+002
2.860652e+002, 4.921294e+002
2.865474e+002, 4.929611e+002
2.870295e+002, 4.939203e+002
2.875116e+002, 4.947637e+002
2.879937e+002, 4.951569e+002
2.884758e+002, 4.952684e+002
2.889579e+002, 4.961524e+002
2.894401e+002, 4.979199e+002
2.899222e+002, 4.999240e+002
2.904043e+002, 5.014122e+002
2.908864e+002, 5.024284e+002
2.913685e+002, 5.033253e+002
2.918506e+002, 5.043854e+002
2.923328e+002, 5.054065e+002
2.928149e+002, 5.054378e+002
2.932970e+002, 5.043784e+002
2.937791e+002, 5.035436e+002
2.942612e+002, 5.047256e+002
2.947433e+002, 5.074215e+002
2.952255e+002, 5.096054e+002
2.957076e+002, 5.103520e+002
2.961897e+002, 5.103044e+002
2.966718e+002, 5.105614e+002
2.971539e+002, 5.111202e+002
2.976360e+002, 5.120184e+002
2.981182e+002, 5.135550e+002
2.986003e+002, 5.154607e+002
2.990824e+002, 5.170602e+002
2.995645e+002, 5.179626e+002
3.000466e+002, 5.187057e+002
3.005287e+002, 5.203424e+002
3.010109e+002, 5.227078e+002
3.014930e+002, 5.246806e+002
3.019751e+002, 5.249805e+002
3.024572e+002, 5.244154e+002
3.029393e+002, 5.243217e+002
3.034214e+002, 5.249933e+002
3.039036e+002, 5.262134e+002
3.043857e+002, 5.280547e+002
3.048678e+002, 5.303377e+002
3.053499e+002, 5.324400e+002
3.058320e+002, 5.338568e+002
3.063141e+002, 5.349151e+002
3.067963e+002, 5.359484e+002
3.072784e+002, 5.369943e+002
3.077605e+002, 5.381080e+002
3.082426e+002, 5.391684e+002
3.087247e+002, 5.403130e+002
3.092068e+002, 5.418757e+002
3.096890e+002, 5.445074e+002
3.101711e+002, 5.473422e+002
3.106532e+002, 5.495349e+002
3.111353e+002, 5.508762e+002
3.116174e+002, 5.521088e+002
3.120995e+002, 5.535632e+002
3.125817e+002, 5.552126e+002
3.130638e+002, 5.570359e+002
3.135459e+002, 5.595839e+002
3.140280e+002, 5.619019e+002
3.145101e+002, 5.632669e+002
3.149922e+002, 5.635802e+002
3.154744e+002, 5.638658e+002
3.159565e+002, 5.645520e+002
3.164386e+002, 5.655070e+002
3.169207e+002, 5.665684e+002
3.174028e+002, 5.680910e+002
3.178849e+002, 5.693707e+002
3.183671e+002, 5.702094e+002
3.188492e+002, 5.706070e+002
3.193313e+002, 5.704539e+002
3.198134e+002, 5.692349e+002
3.202955e+002, 5.676954e+002
3.207776e+002, 5.664423e+002
3.212598e+002, 5.656295e+002
3.217419e+002, 5.650620e+002
3.222240e+002, 5.648848e+002
3.227061e+002, 5.649844e+002
3.231882e+002, 5.647996e+002
3.236703e+002, 5.641765e+002
3.241525e+002, 5.632571e+002
3.246346e+002, 5.621208e+002
3.251167e+002, 5.606425e+002
3.255988e+002, 5.591201e+002
3.260809e+002, 5.573232e+002
3.265630e+002, 5.554811e+002
3.270452e+002, 5.542109e+002
3.275273e+002, 5.542689e+002
3.280094e+002, 5.543102e+002
3.284915e+002, 5.538248e+002
3.289736e+002, 5.524518e+002
3.294557e+002, 5.513732e+002
3.299379e+002, 5.506425e+002
3.304200e+002, 5.501864e+002
3.309021e+002, 5.499200e+002
3.313842e+002, 5.501182e+002
3.318663e+002, 5.501190e+002
3.323484e+002, 5.496242e+002
3.328306e+002, 5.484952e+002
3.333127e+002, 5.478139e+002
3.337948e+002, 5.477753e+002
3.342769e+002, 5.480027e+002
3.347590e+002, 5.480471e+002
3.352411e+002, 5.477014e+002
3.357233e+002, 5.476581e+002
3.362054e+002, 5.481425e+002
3.366875e+002, 5.491257e+002
3.371696e+002, 5.499766e+002
3.376517e+002, 5.506429e+002
3.381339e+002, 5.512957e+002
3.386160e+002, 5.521818e+002
3.390981e+002, 5.534662e+002
3.395802e+002, 5.541519e+002
3.400623e+002, 5.538923e+002
3.405444e+002, 5.530206e+002
3.410266e+002, 5.527263e+002
3.415087e+002, 5.530994e+002
3.419908e+002, 5.535491e+002
3.424729e+002, 5.537221e+002
3.429550e+002, 5.536105e+002
3.434371e+002, 5.533340e+002
3.439193e+002, 5.528171e+002
3.444014e+002, 5.522853e+002
3.448835e+002, 5.521240e+002
3.453656e+002, 5.523330e+002
3.458477e+002, 5.528484e+002
3.463298e+002, 5.540956e+002
3.468120e+002, 5.557412e+002
3.472941e+002, 5.561293e+002
3.477762e+002, 5.551102e+002
3.482583e+002, 5.535081e+002
3.487404e+002, 5.520720e+002
3.492225e+002, 5.508324e+002
3.497047e+002, 5.499111e+002
3.501868e+002, 5.495408e+002
3.506689e+002, 5.494369e+002
3.511510e+002, 5.490833e+002
3.516331e+002, 5.484818e+002
3.521152e+002, 5.478134e+002
3.525974e+002, 5.473713e+002
3.530795e+002, 5.469474e+002
3.535616e+002, 5.461206e+002
3.540437e+002, 5.445526e+002
3.545258e+002, 5.428243e+002
3.550079e+002, 5.417141e+002
3.554901e+002, 5.410385e+002
3.559722e+002, 5.399542e+002
3.564543e+002, 5.373163e+002
3.569364e+002, 5.343115e+002
3.574185e+002, 5.321701e+002
3.579006e+002, 5.312982e+002
3.583828e+002, 5.308236e+002
3.588649e+002, 5.305304e+002
3.593470e+002, 5.302281e+002
3.598291e+002, 5.295305e+002
3.603112e+002, 5.278346e+002
3.607933e+002, 5.260171e+002
3.612755e+002, 5.246111e+002
3.617576e+002, 5.237165e+002
3.622397e+002, 5.228359e+002
3.627218e+002, 5.218073e+002
3.632039e+002, 5.206777e+002
3.636860e+002, 5.195002e+002
3.641682e+002, 5.179550e+002
3.646503e+002, 5.166766e+002
3.651324e+002, 5.160413e+002
3.656145e+002, 5.160128e+002
3.660966e+002, 5.158069e+002
3.665787e+002, 5.153393e+002
3.670609e+002, 5.146296e+002
3.675430e+002, 5.136905e+002
3.680251e+002, 5.118510e+002
3.685072e+002, 5.105813e+002
3.689893e+002, 5.104841e+002
3.694714e+002, 5.111136e+002
3.699536e+002, 5.109858e+002
3.704357e+002, 5.093892e+002
3.709178e+002, 5.077850e+002
3.713999e+002, 5.067840e+002
3.718820e+002, 5.066472e+002
3.723641e+002, 5.064478e+002
3.728463e+002, 5.063052e+002
3.733284e+002, 5.060220e+002
3.738105e+002, 5.051840e+002
3.742926e+002, 5.033974e+002
3.747747e+002, 5.019528e+002
3.752568e+002, 5.014041e+002
3.757390e+002, 5.017611e+002
3.762211e+002, 5.012327e+002
3.767032e+002, 4.994667e+002
3.771853e+002, 4.975237e+002
3.776674e+002, 4.964125e+002
3.781495e+002, 4.962038e+002
3.786317e+002, 4.962177e+002
3.791138e+002, 4.964819e+002
3.795959e+002, 4.967881e+002
3.800780e+002, 4.963163e+002
3.805601e+002, 4.949930e+002
3.810422e+002, 4.937694e+002
3.815244e+002, 4.934758e+002
3.820065e+002, 4.939248e+002
3.824886e+002, 4.940666e+002
3.829707e+002, 4.937734e+002
3.834528e+002, 4.932397e+002
3.839349e+002, 4.926117e+002
3.844171e+002, 4.919340e+002
3.848992e+002, 4.914343e+002
3.853813e+002, 4.911885e+002
3.858634e+002, 4.911946e+002
3.863455e+002, 4.915057e+002
3.868276e+002, 4.921298e+002
3.873098e+002, 4.928293e+002
3.877919e+002, 4.934285e+002
3.882740e+002, 4.939573e+002
3.887561e+002, 4.944654e+002
3.892382e+002, 4.949210e+002
3.897203e+002, 4.954018e+002
3.902025e+002, 4.961016e+002
3.906846e+002, 4.969270e+002
3.911667e+002, 4.974698e+002
3.916488e+002, 4.971334e+002
3.921309e+002, 4.966056e+002
3.926130e+002, 4.965331e+002
3.930952e+002, 4.973306e+002
3.935773e+002, 4.979523e+002
3.940594e+002, 4.977175e+002
3.945415e+002, 4.970267e+002
3.950236e+002, 4.966220e+002
3.955057e+002, 4.971876e+002
3.959879e+002, 4.976905e+002
3.964700e+002, 4.975879e+002
3.969521e+002, 4.966991e+002
3.974342e+002, 4.961837e+002
3.979163e+002, 4.965645e+002
3.983984e+002, 4.972375e+002
3.988806e+002, 4.976508e+002
3.993627e+002, 4.975663e+002
3.998448e+002, 4.974501e+002
4.003269e+002, 4.973540e+002
4.008090e+002, 4.972681e+002
4.012911e+002, 4.971154e+002
4.017733e+002, 4.967148e+002
4.022554e+002, 4.964554e+002
4.027375e+002, 4.965804e+002
4.032196e+002, 4.973167e+002
4.037017e+002, 4.978725e+002
4.041838e+002, 4.982124e+002
4.046660e+002, 4.983872e+002
4.051481e+002, 4.985043e+002
4.056302e+002, 4.986021e+002
4.061123e+002, 4.984985e+002
4.065944e+002, 4.979792e+002
4.070765e+002, 4.970853e+002
4.075587e+002, 4.967855e+002
4.080408e+002, 4.971501e+002
4.085229e+002, 4.978144e+002
4.090050e+002, 4.984948e+002
4.094871e+002, 4.991749e+002
4.099692e+002, 4.996944e+002
4.104514e+002, 4.999435e+002
4.109335e+002, 5.000891e+002
4.114156e+002, 5.006254e+002
4.118977e+002, 5.014944e+002
4.123798e+002, 5.021007e+002
4.128619e+002, 5.016483e+002
4.133441e+002, 5.007241e+002
4.138262e+002, 5.006012e+002
4.143083e+002, 5.015650e+002
4.147904e+002, 5.026337e+002
4.152725e+002, 5.028980e+002
4.157546e+002, 5.025644e+002
4.162368e+002, 5.020622e+002
4.167189e+002, 5.012759e+002
4.172010e+002, 5.006253e+002
4.176831e+002, 5.005762e+002
4.181652e+002, 5.010946e+002
4.186473e+002, 5.015280e+002
4.191295e+002, 5.013451e+002
4.196116e+002, 5.010021e+002
4.200937e+002, 5.009191e+002
4.205758e+002, 5.014098e+002
4.210579e+002, 5.018586e+002
4.215400e+002, 5.022127e+002
4.220222e+002, 5.023887e+002
4.225043e+002, 5.021898e+002
4.229864e+002, 5.009576e+002
4.234685e+002, 4.998880e+002
4.239506e+002, 4.995536e+002
4.244327e+002, 5.003431e+002
4.249149e+002, 5.006764e+002
4.253970e+002, 4.998311e+002
4.258791e+002, 4.988740e+002
4.263612e+002, 4.989017e+002
4.268433e+002, 5.006621e+002
4.273254e+002, 5.022198e+002
4.278076e+002, 5.033191e+002
4.282897e+002, 5.039835e+002
4.287718e+002, 5.042500e+002
4.292539e+002, 5.038425e+002
4.297360e+002, 5.035670e+002
4.302181e+002, 5.041675e+002
4.307003e+002, 5.059354e+002
4.311824e+002, 5.064195e+002
4.316645e+002, 5.051127e+002
4.321466e+002, 5.031841e+002
4.326287e+002, 5.026748e+002
4.331108e+002, 5.036143e+002
4.335930e+002, 5.048263e+002
4.340751e+002, 5.058773e+002
4.345572e+002, 5.068671e+002
4.350393e+002, 5.082570e+002
4.355214e+002, 5.100627e+002
4.360035e+002, 5.117039e+002
4.364857e+002, 5.123539e+002
4.369678e+002, 5.124324e+002
4.374499e+002, 5.130127e+002
4.379320e+002, 5.144761e+002
4.384141e+002, 5.162200e+002
4.388962e+002, 5.174606e+002
4.393784e+002, 5.184100e+002
4.398605e+002, 5.196970e+002
4.403426e+002, 5.217636e+002
4.408247e+002, 5.242347e+002
4.413068e+002, 5.269464e+002
4.417889e+002, 5.298878e+002
4.422711e+002, 5.326575e+002
4.427532e+002, 5.350445e+002
4.432353e+002, 5.371492e+002
4.437174e+002, 5.390765e+002
4.441995e+002, 5.404655e+002
4.446816e+002, 5.420876e+002
4.451638e+002, 5.442876e+002
4.456459e+002, 5.469388e+002
4.461280e+002, 5.495441e+002
4.466101e+002, 5.516563e+002
4.470922e+002, 5.540157e+002
4.475743e+002, 5.570861e+002
4.480565e+002, 5.614254e+002
4.485386e+002, 5.649777e+002
4.490207e+002, 5.673082e+002
4.495028e+002, 5.691064e+002
4.499849e+002, 5.712286e+002
4.504670e+002, 5.738812e+002
4.509492e+002, 5.764398e+002
4.514313e+002, 5.787415e+002
4.519134e+002, 5.808289e+002
4.523955e+002, 5.829951e+002
4.528776e+002, 5.853136e+002
4.533597e+002, 5.873516e+002
4.538419e+002, 5.887031e+002
4.543240e+002, 5.893764e+002
4.548061e+002, 5.901005e+002
4.552882e+002, 5.909719e+002
4.557703e+002, 5.917968e+002
4.562524e+002, 5.922712e+002
4.567346e+002, 5.924180e+002
4.572167e+002, 5.923753e+002
4.576988e+002, 5.924743e+002
4.581809e+002, 5.922986e+002
4.586630e+002, 5.910364e+002
4.591451e+002, 5.887264e+002
4.596273e+002, 5.858925e+002
4.601094e+002, 5.827874e+002
4.605915e+002, 5.794655e+002
4.610736e+002, 5.760272e+002
4.615557e+002, 5.725072e+002
4.620378e+002, 5.687659e+002
4.625200e+002, 5.646604e+002
4.630021e+002, 5.602571e+002
4.634842e+002, 5.557643e+002
4.639663e+002, 5.511754e+002
4.644484e+002, 5.465741e+002
4.649305e+002, 5.420629e+002
4.654127e+002, 5.376442e+002
4.658948e+002, 5.333478e+002
4.663769e+002, 5.290916e+002
4.668590e+002, 5.250546e+002
4.673411e+002, 5.213903e+002
4.678232e+002, 5.187198e+002
4.683054e+002, 5.154985e+002
4.687875e+002, 5.110700e+002
4.692696e+002, 5.061931e+002
4.697517e+002, 5.028918e+002
4.702338e+002, 5.021891e+002
4.707159e+002, 5.011801e+002
4.711981e+002, 4.986432e+002
4.716802e+002, 4.944891e+002
4.721623e+002, 4.910317e+002
4.726444e+002, 4.883395e+002
4.731265e+002, 4.862547e+002
4.736086e+002, 4.848995e+002
4.740908e+002, 4.842564e+002
4.745729e+002, 4.832856e+002
4.750550e+002, 4.816475e+002
4.755371e+002, 4.798198e+002
4.760192e+002, 4.787759e+002
4.765013e+002, 4.784272e+002
4.769835e+002, 4.781386e+002
4.774656e+002, 4.775327e+002
4.779477e+002, 4.767610e+002
4.784298e+002, 4.761478e+002
4.789119e+002, 4.757145e+002
4.793940e+002, 4.750775e+002
4.798762e+002, 4.735795e+002
4.803583e+002, 4.718076e+002
4.808404e+002, 4.705390e+002
4.813225e+002, 4.701273e+002
4.818046e+002, 4.700833e+002
4.822867e+002, 4.704228e+002
4.827689e+002, 4.709655e+002
4.832510e+002, 4.712374e+002
4.837331e+002, 4.708815e+002
4.842152e+002, 4.704107e+002
4.846973e+002, 4.699969e+002
4.851794e+002, 4.696151e+002
4.856616e+002, 4.694980e+002
4.861437e+002, 4.700625e+002
4.866258e+002, 4.706591e+002
4.871079e+002, 4.707583e+002
4.875900e+002, 4.698891e+002
4.880721e+002, 4.693321e+002
4.885543e+002, 4.692009e+002
4.890364e+002, 4.694416e+002
4.895185e+002, 4.699540e+002
4.900006e+002, 4.707813e+002
4.904827e+002, 4.717070e+002
4.909648e+002, 4.727690e+002
4.914470e+002, 4.739357e+002
4.919291e+002, 4.743309e+002
4.924112e+002, 4.738005e+002
4.928933e+002, 4.732325e+002
4.933754e+002, 4.736408e+002
4.938575e+002, 4.748316e+002
4.943397e+002, 4.759548e+002
4.948218e+002, 4.768344e+002
4.953039e+002, 4.775499e+002
4.957860e+002, 4.781139e+002
4.962681e+002, 4.785771e+002
4.967502e+002, 4.790988e+002
4.972324e+002, 4.799370e+002
4.977145e+002, 4.807730e+002
4.981966e+002, 4.812379e+002
4.986787e+002, 4.813138e+002
4.991608e+002, 4.814354e+002
4.996429e+002, 4.820154e+002
5.001251e+002, 4.826400e+002
5.006072e+002, 4.829300e+002
5.010893e+002, 4.822910e+002
5.015714e+002, 4.819965e+002
5.020535e+002, 4.827880e+002
5.025356e+002, 4.840927e+002
5.030178e+002, 4.846117e+002
5.034999e+002, 4.837942e+002
5.039820e+002, 4.826670e+002
5.044641e+002, 4.813369e+002
5.049462e+002, 4.797792e+002
5.054283e+002, 4.787805e+002
5.059105e+002, 4.786045e+002
5.063926e+002, 4.786102e+002
5.068747e+002, 4.783072e+002
5.073568e+002, 4.776497e+002
5.078389e+002, 4.770109e+002
5.083210e+002, 4.763822e+002
5.088032e+002, 4.758810e+002
5.092853e+002, 4.758100e+002
5.097674e+002, 4.761390e+002
5.102495e+002, 4.764102e+002
5.107316e+002, 4.764005e+002
5.112137e+002, 4.762137e+002
5.116959e+002, 4.760490e+002
5.121780e+002, 4.759033e+002
5.126601e+002, 4.757887e+002
5.131422e+002, 4.757861e+002
5.136243e+002, 4.757863e+002
5.141064e+002, 4.756615e+002
5.145886e+002, 4.753956e+002
5.150707e+002, 4.749884e+002
5.155528e+002, 4.742521e+002
5.160349e+002, 4.734320e+002
5.165170e+002, 4.728679e+002
5.169991e+002, 4.730876e+002
5.174813e+002, 4.731718e+002
5.179634e+002, 4.726158e+002
5.184455e+002, 4.715412e+002
5.189276e+002, 4.709348e+002
5.194097e+002, 4.716856e+002
5.198918e+002, 4.722526e+002
5.203740e+002, 4.719563e+002
5.208561e+002, 4.704660e+002
5.213382e+002, 4.692065e+002
5.218203e+002, 4.683384e+002
5.223024e+002, 4.674980e+002
5.227845e+002, 4.661188e+002
5.232667e+002, 4.640193e+002
5.237488e+002, 4.624173e+002
5.242309e+002, 4.617666e+002
5.247130e+002, 4.615717e+002
5.251951e+002, 4.603483e+002
5.256772e+002, 4.581209e+002
5.261594e+002, 4.562461e+002
5.266415e+002, 4.560190e+002
5.271236e+002, 4.565853e+002
5.276057e+002, 4.557865e+002
5.280878e+002, 4.535464e+002
5.285699e+002, 4.513748e+002
5.290521e+002, 4.507032e+002
5.295342e+002, 4.508172e+002
5.300163e+002, 4.507896e+002
5.304984e+002, 4.503448e+002
5.309805e+002, 4.497862e+002
5.314626e+002, 4.493867e+002
5.319448e+002, 4.489828e+002
5.324269e+002, 4.482596e+002
5.329090e+002, 4.462099e+002
5.333911e+002, 4.447016e+002
5.338732e+002, 4.447366e+002
5.343553e+002, 4.464093e+002
5.348375e+002, 4.471612e+002
5.353196e+002, 4.462245e+002
5.358017e+002, 4.450420e+002
5.362838e+002, 4.443968e+002
5.367659e+002, 4.444485e+002
5.372480e+002, 4.445948e+002
5.377302e+002, 4.449279e+002
5.382123e+002, 4.452138e+002
5.386944e+002, 4.450833e+002
5.391765e+002, 4.445169e+002
5.396586e+002, 4.437850e+002
5.401407e+002, 4.428423e+002
5.406229e+002, 4.419028e+002
5.411050e+002, 4.417056e+002
5.415871e+002, 4.421702e+002
5.420692e+002, 4.424278e+002
5.425513e+002, 4.414432e+002
5.430334e+002, 4.401058e+002
5.435156e+002, 4.398292e+002
5.439977e+002, 4.407314e+002
5.444798e+002, 4.420487e+002
5.449619e+002, 4.438788e+002
5.454440e+002, 4.455611e+002
5.459261e+002, 4.463247e+002
5.464083e+002, 4.452941e+002
5.468904e+002, 4.442696e+002
5.473725e+002, 4.440181e+002
5.478546e+002, 4.441753e+002
5.483367e+002, 4.439657e+002
5.488188e+002, 4.425834e+002
5.493010e+002, 4.415443e+002
5.497831e+002, 4.413176e+002
5.502652e+002, 4.418873e+002
5.507473e+002, 4.422373e+002
5.512294e+002, 4.420786e+002
5.517115e+002, 4.421921e+002
5.521937e+002, 4.434476e+002
5.526758e+002, 4.461309e+002
5.531579e+002, 4.470609e+002
5.536400e+002, 4.457466e+002
5.541221e+002, 4.436948e+002
5.546042e+002, 4.429753e+002
5.550864e+002, 4.433861e+002
5.555685e+002, 4.436234e+002
5.560506e+002, 4.431483e+002
5.565327e+002, 4.424984e+002
5.570148e+002, 4.425754e+002
5.574969e+002, 4.431794e+002
5.579791e+002, 4.435704e+002
5.584612e+002, 4.431449e+002
5.589433e+002, 4.424442e+002
5.594254e+002, 4.418345e+002
5.599075e+002, 4.413358e+002
5.603896e+002, 4.410407e+002
5.608718e+002, 4.410980e+002
5.613539e+002, 4.413080e+002
5.618360e+002, 4.415409e+002
5.623181e+002, 4.420265e+002
5.628002e+002, 4.421608e+002
5.632823e+002, 4.418403e+002
5.637645e+002, 4.412089e+002
5.642466e+002, 4.404126e+002
5.647287e+002, 4.392266e+002
5.652108e+002, 4.384429e+002
5.656929e+002, 4.383775e+002
5.661750e+002, 4.388409e+002
5.666572e+002, 4.389676e+002
5.671393e+002, 4.387263e+002
5.676214e+002, 4.383485e+002
5.681035e+002, 4.379339e+002
5.685856e+002, 4.374857e+002
5.690677e+002, 4.369300e+002
5.695499e+002, 4.362461e+002
5.700320e+002, 4.357511e+002
5.705141e+002, 4.360177e+002
5.709962e+002, 4.366082e+002
5.714783e+002, 4.367938e+002
5.719604e+002, 4.362873e+002
5.724426e+002, 4.355685e+002
5.729247e+002, 4.347530e+002
5.734068e+002, 4.339685e+002
5.738889e+002, 4.334257e+002
5.743710e+002, 4.333859e+002
5.748531e+002, 4.334237e+002
5.753353e+002, 4.334586e+002
5.758174e+002, 4.334804e+002
5.762995e+002, 4.333782e+002
5.767816e+002, 4.331505e+002
5.772637e+002, 4.328051e+002
5.777458e+002, 4.322969e+002
5.782280e+002, 4.315611e+002
5.787101e+002, 4.310527e+002
5.791922e+002, 4.308578e+002
5.796743e+002, 4.306988e+002
5.801564e+002, 4.300470e+002
5.806385e+002, 4.289670e+002
5.811207e+002, 4.288013e+002
5.816028e+002, 4.300486e+002
5.820849e+002, 4.317041e+002
5.825670e+002, 4.322427e+002
5.830491e+002, 4.319011e+002
5.835313e+002, 4.314689e+002
5.840134e+002, 4.311551e+002
5.844955e+002, 4.310337e+002
5.849776e+002, 4.313974e+002
5.854597e+002, 4.321159e+002
5.859418e+002, 4.324638e+002
5.864240e+002, 4.315992e+002
5.869061e+002, 4.306468e+002
5.873882e+002, 4.302913e+002
5.878703e+002, 4.307627e+002
5.883524e+002, 4.312252e+002
5.888345e+002, 4.319675e+002
5.893167e+002, 4.324037e+002
5.897988e+002, 4.319461e+002
5.902809e+002, 4.298234e+002
5.907630e+002, 4.286013e+002
5.912451e+002, 4.286328e+002
5.917272e+002, 4.294674e+002
5.922094e+002, 4.304574e+002
5.926915e+002, 4.316332e+002
5.931736e+002, 4.323478e+002
5.936557e+002, 4.322266e+002
5.941378e+002, 4.316063e+002
5.946199e+002, 4.312616e+002
5.951021e+002, 4.311713e+002
5.955842e+002, 4.311277e+002
5.960663e+002, 4.308492e+002
5.965484e+002, 4.306232e+002
5.970305e+002, 4.309127e+002
5.975126e+002, 4.317751e+002
5.979948e+002, 4.324707e+002
5.984769e+002, 4.324692e+002
5.989590e+002, 4.321779e+002
5.994411e+002, 4.319405e+002
5.999232e+002, 4.318342e+002
6.004053e+002, 4.317661e+002
6.008875e+002, 4.319691e+002
6.013696e+002, 4.321179e+002
6.018517e+002, 4.316497e+002
6.023338e+002, 4.298679e+002
6.028159e+002, 4.288938e+002
6.032980e+002, 4.293260e+002
6.037802e+002, 4.307736e+002
6.042623e+002, 4.319425e+002
6.047444e+002, 4.328333e+002
6.052265e+002, 4.333432e+002
6.057086e+002, 4.331335e+002
6.061907e+002, 4.324886e+002
6.066729e+002, 4.325996e+002
6.071550e+002, 4.334427e+002
6.076371e+002, 4.340434e+002
6.081192e+002, 4.330703e+002
6.086013e+002, 4.316042e+002
6.090834e+002, 4.312055e+002
6.095656e+002, 4.323780e+002
6.100477e+002, 4.335475e+002
6.105298e+002, 4.338744e+002
6.110119e+002, 4.337286e+002
6.114940e+002, 4.335286e+002
6.119761e+002, 4.332045e+002
6.124583e+002, 4.330497e+002
6.129404e+002, 4.333883e+002
6.134225e+002, 4.338989e+002
6.139046e+002, 4.337671e+002
6.143867e+002, 4.324947e+002
6.148688e+002, 4.316706e+002
6.153510e+002, 4.319319e+002
6.158331e+002, 4.330446e+002
6.163152e+002, 4.334195e+002
6.167973e+002, 4.329667e+002
6.172794e+002, 4.325799e+002
6.177615e+002, 4.329605e+002
6.182437e+002, 4.338523e+002
6.187258e+002, 4.346432e+002
6.192079e+002, 4.353077e+002
6.196900e+002, 4.356702e+002
6.201721e+002, 4.351302e+002
6.206542e+002, 4.343759e+002
6.211364e+002, 4.344689e+002
6.216185e+002, 4.364103e+002
6.221006e+002, 4.374940e+002
6.225827e+002, 4.354562e+002
6.230648e+002, 4.321939e+002
6.235469e+002, 4.303562e+002
6.240291e+002, 4.320723e+002
6.245112e+002, 4.332415e+002
6.249933e+002, 4.330301e+002
6.254754e+002, 4.318947e+002
6.259575e+002, 4.313962e+002
6.264396e+002, 4.317296e+002
6.269218e+002, 4.321424e+002
6.274039e+002, 4.323534e+002
6.278860e+002, 4.324013e+002
6.283681e+002, 4.325985e+002
6.288502e+002, 4.329580e+002
6.293323e+002, 4.330864e+002
6.298145e+002, 4.322450e+002
6.302966e+002, 4.310732e+002
6.307787e+002, 4.309585e+002
6.312608e+002, 4.321012e+002
6.317429e+002, 4.333003e+002
6.322250e+002, 4.339240e+002
6.327072e+002, 4.340028e+002
6.331893e+002, 4.334858e+002
6.336714e+002, 4.316146e+002
6.341535e+002, 4.304154e+002
6.346356e+002, 4.308924e+002
6.351177e+002, 4.322330e+002
6.355999e+002, 4.331446e+002
6.360820e+002, 4.334419e+002
6.365641e+002, 4.335563e+002
6.370462e+002, 4.335139e+002
6.375283e+002, 4.333484e+002
6.380104e+002, 4.332014e+002
6.384926e+002, 4.331018e+002
6.389747e+002, 4.328390e+002
6.394568e+002, 4.321884e+002
6.399389e+002, 4.313257e+002
6.404210e+002, 4.308141e+002
6.409031e+002, 4.306502e+002
6.413853e+002, 4.307771e+002
6.418674e+002, 4.313795e+002
6.423495e+002, 4.321401e+002
6.428316e+002, 4.326337e+002
6.433137e+002, 4.327920e+002
6.437958e+002, 4.329746e+002
6.442780e+002, 4.335169e+002
6.447601e+002, 4.340788e+002
6.452422e+002, 4.343527e+002
6.457243e+002, 4.340935e+002
6.462064e+002, 4.338149e+002
6.466885e+002, 4.332835e+002
6.471707e+002, 4.328950e+002
6.476528e+002, 4.333631e+002
6.481349e+002, 4.352073e+002
6.486170e+002, 4.361328e+002
6.490991e+002, 4.354139e+002
6.495812e+002, 4.338492e+002
6.500634e+002, 4.333220e+002
6.505455e+002, 4.337727e+002
6.510276e+002, 4.344056e+002
6.515097e+002, 4.350227e+002
6.519918e+002, 4.355064e+002
6.524739e+002, 4.355347e+002
6.529561e+002, 4.352044e+002
6.534382e+002, 4.350194e+002
6.539203e+002, 4.355426e+002
6.544024e+002, 4.361115e+002
6.548845e+002, 4.361599e+002
6.553666e+002, 4.355672e+002
6.558488e+002, 4.352864e+002
6.563309e+002, 4.357843e+002
6.568130e+002, 4.364724e+002
6.572951e+002, 4.370227e+002
6.577772e+002, 4.374847e+002
6.582593e+002, 4.376058e+002
6.587415e+002, 4.371524e+002
6.592236e+002, 4.367369e+002
6.597057e+002, 4.374071e+002
6.601878e+002, 4.391197e+002
6.606699e+002, 4.397228e+002
6.611520e+002, 4.385850e+002
6.616342e+002, 4.368019e+002
6.621163e+002, 4.358035e+002
6.625984e+002, 4.354016e+002
6.630805e+002, 4.350910e+002
6.635626e+002, 4.343538e+002
6.640447e+002, 4.339561e+002
6.645269e+002, 4.347944e+002
6.650090e+002, 4.364408e+002
6.654911e+002, 4.376666e+002
6.659732e+002, 4.379695e+002
6.664553e+002, 4.379128e+002
6.669374e+002, 4.375346e+002
6.674196e+002, 4.368799e+002
6.679017e+002, 4.365138e+002
6.683838e+002, 4.365471e+002
6.688659e+002, 4.366725e+002
6.693480e+002, 4.367626e+002
6.698301e+002, 4.368196e+002
6.703123e+002, 4.367512e+002
6.707944e+002, 4.365208e+002
6.712765e+002, 4.364535e+002
6.717586e+002, 4.371494e+002
6.722407e+002, 4.381736e+002
6.727228e+002, 4.383252e+002
6.732050e+002, 4.372583e+002
6.736871e+002, 4.365010e+002
6.741692e+002, 4.379702e+002
6.746513e+002, 4.400547e+002
6.751334e+002, 4.408028e+002
6.756155e+002, 4.384930e+002
6.760977e+002, 4.366698e+002
6.765798e+002, 4.364081e+002
6.770619e+002, 4.370229e+002
6.775440e+002, 4.375336e+002
6.780261e+002, 4.379282e+002
6.785082e+002, 4.382353e+002
6.789904e+002, 4.384303e+002
6.794725e+002, 4.385718e+002
6.799546e+002, 4.388210e+002
6.804367e+002, 4.391790e+002
6.809188e+002, 4.395771e+002
6.814009e+002, 4.401354e+002
6.818831e+002, 4.406210e+002
6.823652e+002, 4.403190e+002
6.828473e+002, 4.394294e+002
6.833294e+002, 4.389491e+002
6.838115e+002, 4.401657e+002
6.842936e+002, 4.414657e+002
6.847758e+002, 4.414096e+002
6.852579e+002, 4.399243e+002
6.857400e+002, 4.390031e+002
6.862221e+002, 4.395700e+002
6.867042e+002, 4.405061e+002
6.871863e+002, 4.413224e+002
6.876685e+002, 4.421052e+002
6.881506e+002, 4.422387e+002
6.886327e+002, 4.413908e+002
6.891148e+002, 4.405601e+002
6.895969e+002, 4.408318e+002
6.900790e+002, 4.421083e+002
6.905612e+002, 4.428346e+002
6.910433e+002, 4.427607e+002
6.915254e+002, 4.425620e+002
6.920075e+002, 4.432632e+002
6.924896e+002, 4.443447e+002
6.929717e+002, 4.448220e+002
6.934539e+002, 4.442538e+002
6.939360e+002, 4.433628e+002
6.944181e+002, 4.421182e+002
6.949002e+002, 4.409355e+002
6.953823e+002, 4.404592e+002
6.958644e+002, 4.415305e+002
6.963466e+002, 4.424998e+002
6.968287e+002, 4.432046e+002
6.973108e+002, 4.436558e+002
6.977929e+002, 4.438291e+002
6.982750e+002, 4.436906e+002
6.987571e+002, 4.434459e+002
6.992393e+002, 4.431469e+002
6.997214e+002, 4.428061e+002
7.002035e+002, 4.423849e+002
7.006856e+002, 4.419090e+002
7.011677e+002, 4.416143e+002
7.016498e+002, 4.417962e+002
7.021320e+002, 4.421309e+002
7.026141e+002, 4.421252e+002
7.030962e+002, 4.418348e+002
7.035783e+002, 4.418576e+002
7.040604e+002, 4.429475e+002
7.045425e+002, 4.440258e+002
7.050247e+002, 4.443360e+002
7.055068e+002, 4.435907e+002
7.059889e+002, 4.433984e+002
7.064710e+002, 4.440712e+002
7.069531e+002, 4.448917e+002
7.074352e+002, 4.454290e+002
7.079174e+002, 4.456722e+002
7.083995e+002, 4.456940e+002
7.088816e+002, 4.454514e+002
7.093637e+002, 4.452185e+002
7.098458e+002, 4.453356e+002
7.103279e+002, 4.456860e+002
7.108101e+002, 4.458866e+002
7.112922e+002, 4.457672e+002
7.117743e+002, 4.459852e+002
7.122564e+002, 4.476536e+002
7.127385e+002, 4.497081e+002
7.132206e+002, 4.508724e+002
7.137028e+002, 4.503707e+002
7.141849e+002, 4.495594e+002
7.146670e+002, 4.481835e+002
7.151491e+002, 4.468389e+002
7.156312e+002, 4.464039e+002
7.161133e+002, 4.472262e+002
7.165955e+002, 4.480103e+002
7.170776e+002, 4.485611e+002
7.175597e+002, 4.489136e+002
7.180418e+002, 4.490357e+002
7.185239e+002, 4.489575e+002
7.190060e+002, 4.490184e+002
7.194882e+002, 4.494546e+002
7.199703e+002, 4.499674e+002
7.204524e+002, 4.502665e+002
7.209345e+002, 4.503389e+002
7.214166e+002, 4.501679e+002
7.218987e+002, 4.495448e+002
7.223809e+002, 4.488573e+002
7.228630e+002, 4.481055e+002
7.233451e+002, 4.473718e+002
7.238272e+002, 4.472914e+002
7.243093e+002, 4.482562e+002
7.247914e+002, 4.493271e+002
7.252736e+002, 4.502287e+002
7.257557e+002, 4.509601e+002
7.262378e+002, 4.513511e+002
7.267199e+002, 4.513561e+002
7.272020e+002, 4.515078e+002
7.276841e+002, 4.525009e+002
7.281663e+002, 4.538287e+002
7.286484e+002, 4.542770e+002
7.291305e+002, 4.538295e+002
7.296126e+002, 4.531256e+002
7.300947e+002, 4.524083e+002
7.305768e+002, 4.517402e+002
7.310590e+002, 4.510535e+002
7.315411e+002, 4.502085e+002
7.320232e+002, 4.500356e+002
7.325053e+002, 4.511526e+002
7.329874e+002, 4.525977e+002
7.334695e+002, 4.539009e+002
7.339517e+002, 4.551894e+002
7.344338e+002, 4.557418e+002
7.349159e+002, 4.553963e+002
7.353980e+002, 4.547757e+002
7.358801e+002, 4.543680e+002
7.363622e+002, 4.542270e+002
7.368444e+002, 4.547324e+002
7.373265e+002, 4.560851e+002
7.378086e+002, 4.573768e+002
7.382907e+002, 4.576149e+002
7.387728e+002, 4.573301e+002
7.392549e+002, 4.572149e+002
7.397371e+002, 4.576001e+002
7.402192e+002, 4.579344e+002
7.407013e+002, 4.580319e+002
7.411834e+002, 4.580122e+002
7.416655e+002, 4.580047e+002
7.421476e+002, 4.578660e+002
7.426298e+002, 4.581099e+002
7.431119e+002, 4.589118e+002
7.435940e+002, 4.599547e+002
7.440761e+002, 4.606907e+002
7.445582e+002, 4.611247e+002
7.450403e+002, 4.614175e+002
7.455225e+002, 4.615489e+002
7.460046e+002, 4.616572e+002
7.464867e+002, 4.618165e+002
7.469688e+002, 4.620844e+002
7.474509e+002, 4.625917e+002
7.479330e+002, 4.639180e+002
7.484152e+002, 4.649380e+002
7.488973e+002, 4.648969e+002
7.493794e+002, 4.641865e+002
7.498615e+002, 4.641063e+002
7.503436e+002, 4.649808e+002
7.508257e+002, 4.659756e+002
7.513079e+002, 4.669149e+002
7.517900e+002, 4.678254e+002
7.522721e+002, 4.688470e+002
7.527542e+002, 4.699896e+002
7.532363e+002, 4.708227e+002
7.537184e+002, 4.708291e+002
7.542006e+002, 4.705994e+002
7.546827e+002, 4.710725e+002
7.551648e+002, 4.721491e+002
7.556469e+002, 4.733900e+002
7.561290e+002, 4.747581e+002
7.566111e+002, 4.760682e+002
7.570933e+002, 4.771447e+002
7.575754e+002, 4.779913e+002
7.580575e+002, 4.791120e+002
7.585396e+002, 4.806041e+002
7.590217e+002, 4.822288e+002
7.595038e+002, 4.839490e+002
7.599860e+002, 4.857343e+002
7.604681e+002, 4.873293e+002
7.609502e+002, 4.886850e+002
7.614323e+002, 4.903344e+002
7.619144e+002, 4.929673e+002
7.623965e+002, 4.960085e+002
7.628787e+002, 4.983109e+002
7.633608e+002, 4.998917e+002
7.638429e+002, 5.015003e+002
7.643250e+002, 5.037931e+002
7.648071e+002, 5.060924e+002
7.652892e+002, 5.078418e+002
7.657714e+002, 5.089358e+002
7.662535e+002, 5.102042e+002
7.667356e+002, 5.119034e+002
7.672177e+002, 5.135224e+002
7.676998e+002, 5.147512e+002
7.681819e+002, 5.155787e+002
7.686641e+002, 5.164567e+002
7.691462e+002, 5.174039e+002
7.696283e+002, 5.182204e+002
7.701104e+002, 5.184668e+002
7.705925e+002, 5.185361e+002
7.710746e+002, 5.193520e+002
7.715568e+002, 5.210312e+002
7.720389e+002, 5.225116e+002
7.725210e+002, 5.232528e+002
7.730031e+002, 5.234378e+002
7.734852e+002, 5.231099e+002
7.739673e+002, 5.219958e+002
7.744495e+002, 5.212574e+002
7.749316e+002, 5.211374e+002
7.754137e+002, 5.211400e+002
7.758958e+002, 5.208362e+002
7.763779e+002, 5.201770e+002
7.768600e+002, 5.199140e+002
7.773422e+002, 5.201301e+002
7.778243e+002, 5.203959e+002
7.783064e+002, 5.202772e+002
7.787885e+002, 5.199077e+002
7.792706e+002, 5.193809e+002
7.797527e+002, 5.186081e+002
7.802349e+002, 5.184206e+002
7.807170e+002, 5.202697e+002
7.811991e+002, 5.223761e+002
7.816812e+002, 5.230551e+002
7.821633e+002, 5.206161e+002
7.826454e+002, 5.196461e+002
7.831276e+002, 5.208155e+002
7.836097e+002, 5.226595e+002
7.840918e+002, 5.237703e+002
7.845739e+002, 5.241347e+002
7.850560e+002, 5.243493e+002
7.855381e+002, 5.244583e+002
7.860203e+002, 5.244650e+002
7.865024e+002, 5.242571e+002
7.869845e+002, 5.239793e+002
7.874666e+002, 5.239312e+002
7.879487e+002, 5.242948e+002
7.884308e+002, 5.245002e+002
7.889130e+002, 5.243040e+002
7.893951e+002, 5.237891e+002
7.898772e+002, 5.230095e+002
7.903593e+002, 5.217123e+002
7.908414e+002, 5.206407e+002
7.913235e+002, 5.198870e+002
7.918057e+002, 5.192345e+002
7.922878e+002, 5.184158e+002
7.927699e+002, 5.174362e+002
7.932520e+002, 5.166216e+002
7.937341e+002, 5.160348e+002
7.942162e+002, 5.154938e+002
7.946984e+002, 5.148400e+002
7.951805e+002, 5.140743e+002
7.956626e+002, 5.131340e+002
7.961447e+002, 5.116914e+002
7.966268e+002, 5.107802e+002
7.971089e+002, 5.111592e+002
7.975911e+002, 5.120665e+002
7.980732e+002, 5.126018e+002
7.985553e+002, 5.123934e+002
7.990374e+002, 5.126864e+002
7.995195e+002, 5.135762e+002
8.000016e+002, 5.149367e+002
8.004838e+002, 5.168777e+002
8.009659e+002, 5.192540e+002
8.014480e+002, 5.210832e+002
8.019301e+002, 5.219736e+002
8.024122e+002, 5.231833e+002
8.028943e+002, 5.257528e+002
8.033765e+002, 5.294324e+002
8.038586e+002, 5.339946e+002
8.043407e+002, 5.398906e+002
8.048228e+002, 5.457054e+002
8.053049e+002, 5.507344e+002
8.057870e+002, 5.558469e+002
8.062692e+002, 5.618979e+002
8.067513e+002, 5.689482e+002
8.072334e+002, 5.767655e+002
8.077155e+002, 5.853484e+002
8.081976e+002, 5.943967e+002
8.086797e+002, 6.037325e+002
8.091619e+002, 6.131797e+002
8.096440e+002, 6.219533e+002
8.101261e+002, 6.294709e+002
8.106082e+002, 6.379492e+002
8.110903e+002, 6.496368e+002
8.115724e+002, 6.627842e+002
8.120546e+002, 6.754227e+002
8.125367e+002, 6.864339e+002
8.130188e+002, 6.981727e+002
8.135009e+002, 7.109501e+002
8.139830e+002, 7.243351e+002
8.144651e+002, 7.379955e+002
8.149473e+002, 7.521354e+002
8.154294e+002, 7.652590e+002
8.159115e+002, 7.774100e+002
8.163936e+002, 7.880352e+002
8.168757e+002, 7.961451e+002
8.173578e+002, 8.023535e+002
8.178400e+002, 8.080088e+002
8.183221e+002, 8.137006e+002
8.188042e+002, 8.177733e+002
8.192863e+002, 8.194600e+002
8.197684e+002, 8.191266e+002
8.202505e+002, 8.170031e+002
8.207327e+002, 8.132913e+002
8.212148e+002, 8.076213e+002
8.216969e+002, 7.997902e+002
8.221790e+002, 7.902394e+002
8.226611e+002, 7.795798e+002
8.231432e+002, 7.676910e+002
8.236254e+002, 7.545002e+002
8.241075e+002, 7.398334e+002
8.245896e+002, 7.247272e+002
8.250717e+002, 7.099189e+002
8.255538e+002, 6.954328e+002
8.260359e+002, 6.815608e+002
8.265181e+002, 6.685039e+002
8.270002e+002, 6.555941e+002
8.274823e+002, 6.420442e+002
8.279644e+002, 6.290537e+002
8.284465e+002, 6.172302e+002
8.289286e+002, 6.067108e+002
8.294108e+002, 5.972917e+002
8.298929e+002, 5.891033e+002
8.303750e+002, 5.817116e+002
8.308571e+002, 5.749625e+002
8.313392e+002, 5.686838e+002
8.318214e+002, 5.622463e+002
8.323035e+002, 5.556186e+002
8.327856e+002, 5.495772e+002
8.332677e+002, 5.448903e+002
8.337498e+002, 5.408445e+002
8.342319e+002, 5.368632e+002
8.347141e+002, 5.327553e+002
8.351962e+002, 5.293604e+002
8.356783e+002, 5.269371e+002
8.361604e+002, 5.247714e+002
8.366425e+002, 5.221816e+002
8.371246e+002, 5.192668e+002
8.376068e+002, 5.180812e+002
8.380889e+002, 5.186478e+002
8.385710e+002, 5.187078e+002
8.390531e+002, 5.157828e+002
8.395352e+002, 5.118974e+002
8.400173e+002, 5.092212e+002
8.404995e+002, 5.078836e+002
8.409816e+002, 5.068606e+002
8.414637e+002, 5.061097e+002
8.419458e+002, 5.053116e+002
8.424279e+002, 5.042506e+002
8.429100e+002, 5.029351e+002
8.433922e+002, 5.018979e+002
8.438743e+002, 5.011196e+002
8.443564e+002, 5.007010e+002
8.448385e+002, 5.009813e+002
8.453206e+002, 5.015807e+002
8.458027e+002, 5.017611e+002
8.462849e+002, 5.014961e+002
8.467670e+002, 5.006263e+002
8.472491e+002, 4.982125e+002
8.477312e+002, 4.959559e+002
8.482133e+002, 4.950553e+002
8.486954e+002, 4.953808e+002
8.491776e+002, 4.952115e+002
8.496597e+002, 4.942263e+002
8.501418e+002, 4.933373e+002
8.506239e+002, 4.929282e+002
8.511060e+002, 4.928136e+002
8.515881e+002, 4.923228e+002
8.520703e+002, 4.915015e+002
8.525524e+002, 4.907021e+002
8.530345e+002, 4.900964e+002
8.535166e+002, 4.896003e+002
8.539987e+002, 4.893503e+002
8.544808e+002, 4.891381e+002
8.549630e+002, 4.884384e+002
8.554451e+002, 4.862348e+002
8.559272e+002, 4.845985e+002
8.564093e+002, 4.842003e+002
8.568914e+002, 4.844776e+002
8.573735e+002, 4.840933e+002
8.578557e+002, 4.829837e+002
8.583378e+002, 4.818951e+002
8.588199e+002, 4.809895e+002
8.593020e+002, 4.802521e+002
8.597841e+002, 4.797230e+002
8.602662e+002, 4.793469e+002
8.607484e+002, 4.790282e+002
8.612305e+002, 4.788478e+002
8.617126e+002, 4.785596e+002
8.621947e+002, 4.780835e+002
8.626768e+002, 4.774440e+002
8.631589e+002, 4.766382e+002
8.636411e+002, 4.754192e+002
8.641232e+002, 4.747852e+002
8.646053e+002, 4.749559e+002
8.650874e+002, 4.754150e+002
8.655695e+002, 4.755297e+002
8.660516e+002, 4.753702e+002
8.665338e+002, 4.752082e+002
8.670159e+002, 4.751403e+002
8.674980e+002, 4.748185e+002
8.679801e+002, 4.733521e+002
8.684622e+002, 4.718780e+002
8.689443e+002, 4.716163e+002
8.694265e+002, 4.736894e+002
8.699086e+002, 4.746395e+002
8.703907e+002, 4.740060e+002
8.708728e+002, 4.729588e+002
8.713549e+002, 4.724578e+002
8.718370e+002, 4.724482e+002
8.723192e+002, 4.723372e+002
8.728013e+002, 4.721031e+002
8.732834e+002, 4.716517e+002
8.737655e+002, 4.703041e+002
8.742476e+002, 4.690858e+002
8.747297e+002, 4.694202e+002
8.752119e+002, 4.714822e+002
8.756940e+002, 4.726388e+002
8.761761e+002, 4.710225e+002
8.766582e+002, 4.696664e+002
8.771403e+002, 4.699933e+002
8.776224e+002, 4.718176e+002
8.781046e+002, 4.724966e+002
8.785867e+002, 4.719862e+002
8.790688e+002, 4.713251e+002
8.795509e+002, 4.710085e+002
8.800330e+002, 4.710012e+002
8.805151e+002, 4.715905e+002
8.809973e+002, 4.725308e+002
8.814794e+002, 4.728702e+002
8.819615e+002, 4.713426e+002
8.824436e+002, 4.700929e+002
8.829257e+002, 4.702119e+002
8.834078e+002, 4.711814e+002
8.838900e+002, 4.714155e+002
8.843721e+002, 4.706722e+002
8.848542e+002, 4.705627e+002
8.853363e+002, 4.718512e+002
8.858184e+002, 4.735111e+002
8.863005e+002, 4.734542e+002
8.867827e+002, 4.723125e+002
8.872648e+002, 4.717135e+002
8.877469e+002, 4.724621e+002
8.882290e+002, 4.735363e+002
8.887111e+002, 4.748053e+002
8.891932e+002, 4.760036e+002
8.896754e+002, 4.767166e+002
8.901575e+002, 4.766375e+002
8.906396e+002, 4.769549e+002
8.911217e+002, 4.779647e+002
8.916038e+002, 4.788996e+002
8.920859e+002, 4.784785e+002
8.925681e+002, 4.772027e+002
8.930502e+002, 4.766774e+002
8.935323e+002, 4.772412e+002
8.940144e+002, 4.779922e+002
8.944965e+002, 4.783762e+002
8.949786e+002, 4.786240e+002
8.954608e+002, 4.789349e+002
8.959429e+002, 4.793520e+002
8.964250e+002, 4.797375e+002
8.969071e+002, 4.800903e+002
8.973892e+002, 4.803978e+002
8.978713e+002, 4.806379e+002
8.983535e+002, 4.808188e+002
8.988356e+002, 4.808585e+002
8.993177e+002, 4.807880e+002
8.997998e+002, 4.810629e+002
9.002819e+002, 4.824783e+002
9.007640e+002, 4.839591e+002
9.012462e+002, 4.847315e+002
9.017283e+002, 4.847919e+002
9.022104e+002, 4.845306e+002
9.026925e+002, 4.836325e+002
9.031746e+002, 4.830660e+002
9.036567e+002, 4.831693e+002
9.041389e+002, 4.837758e+002
9.046210e+002, 4.844112e+002
9.051031e+002, 4.850707e+002
9.055852e+002, 4.857328e+002
9.060673e+002, 4.864057e+002
9.065494e+002, 4.870506e+002
9.070316e+002, 4.876585e+002
9.075137e+002, 4.882014e+002
9.079958e+002, 4.886398e+002
9.084779e+002, 4.889541e+002
9.089600e+002, 4.891361e+002
9.094421e+002, 4.890794e+002
9.099243e+002, 4.890033e+002
9.104064e+002, 4.892386e+002
9.108885e+002, 4.897682e+002
9.113706e+002, 4.903185e+002
9.118527e+002, 4.908698e+002
9.123348e+002, 4.913175e+002
9.128170e+002, 4.914350e+002
9.132991e+002, 4.914637e+002
9.137812e+002, 4.916382e+002
9.142633e+002, 4.919588e+002
9.147454e+002, 4.926452e+002
9.152275e+002, 4.942558e+002
9.157097e+002, 4.956024e+002
9.161918e+002, 4.956983e+002
9.166739e+002, 4.945820e+002
9.171560e+002, 4.951281e+002
9.176381e+002, 4.973480e+002
9.181202e+002, 4.992539e+002
9.186024e+002, 4.989545e+002
9.190845e+002, 4.979712e+002
9.195666e+002, 4.980051e+002
9.200487e+002, 4.989152e+002
9.205308e+002, 4.995906e+002
9.210129e+002, 4.994269e+002
9.214951e+002, 4.993036e+002
9.219772e+002, 4.993332e+002
9.224593e+002, 4.995957e+002
9.229414e+002, 5.005990e+002
9.234235e+002, 5.023065e+002
9.239056e+002, 5.033592e+002
9.243878e+002, 5.031306e+002
9.248699e+002, 5.024150e+002
9.253520e+002, 5.018237e+002
9.258341e+002, 5.014526e+002
9.263162e+002, 5.014476e+002
9.267983e+002, 5.020136e+002
9.272805e+002, 5.027565e+002
9.277626e+002, 5.040318e+002
9.282447e+002, 5.050790e+002
9.287268e+002, 5.049955e+002
9.292089e+002, 5.037852e+002
9.296910e+002, 5.025939e+002
9.301732e+002, 5.015030e+002
9.306553e+002, 5.006052e+002
9.311374e+002, 4.999113e+002
9.316195e+002, 4.995123e+002
9.321016e+002, 4.996854e+002
9.325837e+002, 5.004929e+002
9.330659e+002, 5.008639e+002
9.335480e+002, 5.000530e+002
9.340301e+002, 4.993285e+002
9.345122e+002, 4.992013e+002
9.349943e+002, 4.995743e+002
9.354764e+002, 4.999272e+002
9.359586e+002, 5.002469e+002
9.364407e+002, 5.003277e+002
9.369228e+002, 5.000145e+002
9.374049e+002, 4.994518e+002
9.378870e+002, 4.986495e+002
9.383691e+002, 4.977240e+002
9.388513e+002, 4.969673e+002
9.393334e+002, 4.965099e+002
9.398155e+002, 4.961826e+002
9.402976e+002, 4.960202e+002
9.407797e+002, 4.959403e+002
9.412618e+002, 4.959865e+002
9.417440e+002, 4.961140e+002
9.422261e+002, 4.953719e+002
9.427082e+002, 4.933908e+002
9.431903e+002, 4.917025e+002
9.436724e+002, 4.923665e+002
9.441545e+002, 4.937563e+002
9.446367e+002, 4.941188e+002
9.451188e+002, 4.928708e+002
9.456009e+002, 4.917228e+002
9.460830e+002, 4.906281e+002
9.465651e+002, 4.899175e+002
9.470472e+002, 4.899742e+002
9.475294e+002, 4.906446e+002
9.480115e+002, 4.906559e+002
9.484936e+002, 4.900468e+002
9.489757e+002, 4.892935e+002
9.494578e+002, 4.885775e+002
9.499399e+002, 4.879474e+002
9.504221e+002, 4.874881e+002
9.509042e+002, 4.871660e+002
9.513863e+002, 4.868655e+002
9.518684e+002, 4.868492e+002
9.523505e+002, 4.863498e+002
9.528326e+002, 4.850787e+002
9.533148e+002, 4.835013e+002
9.537969e+002, 4.824087e+002
9.542790e+002, 4.817682e+002
9.547611e+002, 4.814561e+002
9.552432e+002, 4.815140e+002
9.557253e+002, 4.816458e+002
9.562075e+002, 4.818135e+002
9.566896e+002, 4.818386e+002
9.571717e+002, 4.814437e+002
9.576538e+002, 4.802666e+002
9.581359e+002, 4.798374e+002
9.586180e+002, 4.804308e+002
9.591002e+002, 4.810416e+002
9.595823e+002, 4.807416e+002
9.600644e+002, 4.798860e+002
9.605465e+002, 4.796762e+002
9.610286e+002, 4.800374e+002
9.615107e+002, 4.802663e+002
9.619929e+002, 4.797186e+002
9.624750e+002, 4.791773e+002
9.629571e+002, 4.791290e+002
9.634392e+002, 4.794401e+002
9.639213e+002, 4.796064e+002
9.644034e+002, 4.796490e+002
9.648856e+002, 4.794141e+002
9.653677e+002, 4.787383e+002
9.658498e+002, 4.780347e+002
9.663319e+002, 4.780329e+002
9.668140e+002, 4.784862e+002
9.672961e+002, 4.789212e+002
9.677783e+002, 4.793088e+002
9.682604e+002, 4.794110e+002
9.687425e+002, 4.788748e+002
9.692246e+002, 4.782169e+002
9.697067e+002, 4.778805e+002
9.701888e+002, 4.779576e+002
9.706710e+002, 4.776614e+002
9.711531e+002, 4.769523e+002
9.716352e+002, 4.762442e+002
9.721173e+002, 4.758146e+002
9.725994e+002, 4.755998e+002
9.730815e+002, 4.756410e+002
9.735637e+002, 4.758605e+002
9.740458e+002, 4.758649e+002
9.745279e+002, 4.750626e+002
9.750100e+002, 4.746085e+002
9.754921e+002, 4.749151e+002
9.759742e+002, 4.756683e+002
9.764564e+002, 4.761152e+002
9.769385e+002, 4.762756e+002
9.774206e+002, 4.763452e+002
9.779027e+002, 4.763541e+002
9.783848e+002, 4.763880e+002
9.788669e+002, 4.765917e+002
9.793491e+002, 4.768494e+002
9.798312e+002, 4.770527e+002
9.803133e+002, 4.773068e+002
9.807954e+002, 4.771093e+002
9.812775e+002, 4.761449e+002
9.817596e+002, 4.752564e+002
9.822418e+002, 4.751195e+002
9.827239e+002, 4.755781e+002
9.832060e+002, 4.758552e+002
9.836881e+002, 4.759484e+002
9.841702e+002, 4.759419e+002
9.846523e+002, 4.757582e+002
9.851345e+002, 4.756001e+002
9.856166e+002, 4.755241e+002
9.860987e+002, 4.755718e+002
9.865808e+002, 4.759051e+002
9.870629e+002, 4.767340e+002
9.875450e+002, 4.770885e+002
9.880272e+002, 4.766003e+002
9.885093e+002, 4.760073e+002
9.889914e+002, 4.767775e+002
9.894735e+002, 4.782113e+002
9.899556e+002, 4.787612e+002
9.904377e+002, 4.778705e+002
9.909199e+002, 4.770764e+002
9.914020e+002, 4.770439e+002
9.918841e+002, 4.773268e+002
9.923662e+002, 4.777264e+002
9.928483e+002, 4.782567e+002
9.933304e+002, 4.781999e+002
9.938126e+002, 4.775227e+002
9.942947e+002, 4.768347e+002
9.947768e+002, 4.763032e+002
9.952589e+002, 4.761205e+002
9.957410e+002, 4.768959e+002
9.962231e+002, 4.782159e+002
9.967053e+002, 4.789218e+002
9.971874e+002, 4.782257e+002
9.976695e+002, 4.773987e+002
9.981516e+002, 4.763380e+002
9.986337e+002, 4.755301e+002
9.991158e+002, 4.760547e+002
9.995980e+002, 4.776537e+002
1.000080e+003, 4.783536e+002
1.000562e+003, 4.777821e+002
1.001044e+003, 4.771513e+002
1.001526e+003, 4.775794e+002
1.002009e+003, 4.782159e+002
1.002491e+003, 4.782576e+002
1.002973e+003, 4.775591e+002
1.003455e+003, 4.773413e+002
1.003937e+003, 4.777256e+002
1.004419e+003, 4.782481e+002
1.004901e+003, 4.788400e+002
1.005383e+003, 4.793165e+002
1.005865e+003, 4.791522e+002
1.006348e+003, 4.785318e+002
1.006830e+003, 4.779772e+002
1.007312e+003, 4.777177e+002
1.007794e+003, 4.775503e+002
1.008276e+003, 4.770987e+002
1.008758e+003, 4.769019e+002
1.009240e+003, 4.777469e+002
1.009722e+003, 4.797899e+002
1.010205e+003, 4.811584e+002
1.010687e+003, 4.817201e+002
1.011169e+003, 4.818576e+002
1.011651e+003, 4.815733e+002
1.012133e+003, 4.812914e+002
1.012615e+003, 4.816300e+002
1.013097e+003, 4.825758e+002
1.013579e+003, 4.830844e+002
1.014061e+003, 4.826591e+002
1.014544e+003, 4.823553e+002
1.015026e+003, 4.825378e+002
1.015508e+003, 4.829756e+002
1.015990e+003, 4.830279e+002
1.016472e+003, 4.828153e+002
1.016954e+003, 4.828573e+002
1.017436e+003, 4.834167e+002
1.017918e+003, 4.840008e+002
1.018401e+003, 4.842802e+002
1.018883e+003, 4.844460e+002
1.019365e+003, 4.847270e+002
1.019847e+003, 4.852144e+002
1.020329e+003, 4.853689e+002
1.020811e+003, 4.851347e+002
1.021293e+003, 4.848916e+002
1.021775e+003, 4.850028e+002
1.022257e+003, 4.852281e+002
1.022740e+003, 4.852387e+002
1.023222e+003, 4.850323e+002
1.023704e+003, 4.846288e+002
1.024186e+003, 4.834253e+002
1.024668e+003, 4.828615e+002
1.025150e+003, 4.835116e+002
1.025632e+003, 4.846440e+002
1.026114e+003, 4.848483e+002
1.026596e+003, 4.842787e+002
1.027079e+003, 4.846128e+002
1.027561e+003, 4.862568e+002
1.028043e+003, 4.876162e+002
1.028525e+003, 4.869669e+002
1.029007e+003, 4.857788e+002
1.029489e+003, 4.853755e+002
1.029971e+003, 4.859247e+002
1.030453e+003, 4.861203e+002
1.030936e+003, 4.858141e+002
1.031418e+003, 4.856870e+002
1.031900e+003, 4.861569e+002
1.032382e+003, 4.868436e+002
1.032864e+003, 4.869721e+002
1.033346e+003, 4.867105e+002
1.033828e+003, 4.864436e+002
1.034310e+003, 4.861493e+002
1.034792e+003, 4.861180e+002
1.035275e+003, 4.865803e+002
1.035757e+003, 4.871926e+002
1.036239e+003, 4.877182e+002
1.036721e+003, 4.881563e+002
1.037203e+003, 4.883948e+002
1.037685e+003, 4.884305e+002
1.038167e+003, 4.882484e+002
1.038649e+003, 4.876472e+002
1.039132e+003, 4.869913e+002
1.039614e+003, 4.864820e+002
1.040096e+003, 4.861678e+002
1.040578e+003, 4.861854e+002
1.041060e+003, 4.866596e+002
1.041542e+003, 4.871220e+002
1.042024e+003, 4.875034e+002
1.042506e+003, 4.877788e+002
1.042989e+003, 4.878766e+002
1.043471e+003, 4.878453e+002
1.043953e+003, 4.877777e+002
1.044435e+003, 4.876705e+002
1.044917e+003, 4.876088e+002
1.045399e+003, 4.875291e+002
1.045881e+003, 4.876085e+002
1.046363e+003, 4.880208e+002
1.046845e+003, 4.886943e+002
1.047328e+003, 4.890198e+002
1.047810e+003, 4.890187e+002
1.048292e+003, 4.889219e+002
1.048774e+003, 4.887808e+002
1.049256e+003, 4.886801e+002
1.049738e+003, 4.888390e+002
1.050220e+003, 4.890371e+002
1.050702e+003, 4.888585e+002
1.051184e+003, 4.878260e+002
1.051667e+003, 4.875880e+002
1.052149e+003, 4.883675e+002
1.052631e+003, 4.893057e+002
1.053113e+003, 4.898033e+002
1.053595e+003, 4.898693e+002
1.054077e+003, 4.893319e+002
1.054559e+003, 4.882979e+002
1.055041e+003, 4.874732e+002
1.055523e+003, 4.870318e+002
1.056006e+003, 4.870342e+002
1.056488e+003, 4.876649e+002
1.056970e+003, 4.885735e+002
1.057452e+003, 4.891121e+002
1.057934e+003, 4.892893e+002
1.058416e+003, 4.890540e+002
1.058898e+003, 4.883256e+002
1.059380e+003, 4.876758e+002
1.059863e+003, 4.877323e+002
1.060345e+003, 4.879566e+002
1.060827e+003, 4.877289e+002
1.061309e+003, 4.869897e+002
1.061791e+003, 4.872813e+002
1.062273e+003, 4.888797e+002
1.062755e+003, 4.901563e+002
1.063237e+003, 4.902155e+002
1.063719e+003, 4.897783e+002
1.064202e+003, 4.900536e+002
1.064684e+003, 4.906487e+002
1.065166e+003, 4.907873e+002
1.065648e+003, 4.896511e+002
1.066130e+003, 4.891191e+002
1.066612e+003, 4.896241e+002
1.067094e+003, 4.903798e+002
1.067576e+003, 4.906652e+002
1.068059e+003, 4.906181e+002
1.068541e+003, 4.910861e+002
1.069023e+003, 4.920238e+002
1.069505e+003, 4.929583e+002
1.069987e+003, 4.938955e+002
1.070469e+003, 4.944468e+002
1.070951e+003, 4.939882e+002
1.071433e+003, 4.931282e+002
1.071916e+003, 4.931009e+002
1.072398e+003, 4.940475e+002
1.072880e+003, 4.945230e+002
1.073362e+003, 4.942915e+002
1.073844e+003, 4.938352e+002
1.074326e+003, 4.933011e+002
1.074808e+003, 4.930308e+002
1.075290e+003, 4.935872e+002
1.075772e+003, 4.950153e+002
1.076255e+003, 4.959958e+002
1.076737e+003, 4.963961e+002
1.077219e+003, 4.964406e+002
1.077701e+003, 4.960788e+002
1.078183e+003, 4.955791e+002
1.078665e+003, 4.953994e+002
1.079147e+003, 4.955056e+002
1.079629e+003, 4.957867e+002
1.080111e+003, 4.961194e+002
1.080594e+003, 4.969066e+002
1.081076e+003, 4.990958e+002
1.081558e+003, 5.009874e+002
1.082040e+003, 5.014730e+002
1.082522e+003, 5.006881e+002
1.083004e+003, 4.997046e+002
1.083486e+003, 4.986124e+002
1.083968e+003, 4.983783e+002
1.084450e+003, 5.008080e+002
1.084933e+003, 5.028615e+002
1.085415e+003, 5.017953e+002
1.085897e+003, 4.994398e+002
1.086379e+003, 4.988419e+002
1.086861e+003, 5.006790e+002
1.087343e+003, 5.017619e+002
1.087825e+003, 5.018968e+002
1.088307e+003, 5.016691e+002
1.088790e+003, 5.012964e+002
1.089272e+003, 5.010581e+002
1.089754e+003, 5.015324e+002
1.090236e+003, 5.025419e+002
1.090718e+003, 5.029924e+002
1.091200e+003, 5.022442e+002
1.091682e+003, 5.017266e+002
1.092164e+003, 5.016561e+002
1.092646e+003, 5.019579e+002
1.093129e+003, 5.029848e+002
1.093611e+003, 5.042067e+002
1.094093e+003, 5.040757e+002
1.094575e+003, 5.022509e+002
1.095057e+003, 5.007583e+002
1.095539e+003, 5.005693e+002
1.096021e+003, 5.009157e+002
1.096503e+003, 5.017264e+002
1.096986e+003, 5.027038e+002
1.097468e+003, 5.024300e+002
1.097950e+003, 5.011006e+002
1.098432e+003, 5.004282e+002
1.098914e+003, 5.011284e+002
1.099396e+003, 5.021552e+002
1.099878e+003, 5.033244e+002
1.100360e+003, 5.040564e+002
1.100843e+003, 5.036137e+002
1.101325e+003, 5.018417e+002
1.101807e+003, 5.006224e+002
1.102289e+003, 4.999680e+002
1.102771e+003, 4.996599e+002
1.103253e+003, 4.995296e+002
1.103735e+003, 4.997313e+002
1.104217e+003, 5.008122e+002
1.104699e+003, 5.022738e+002
1.105182e+003, 5.031747e+002
1.105664e+003, 5.031187e+002
1.106146e+003, 5.028142e+002
1.106628e+003, 5.021522e+002
1.107110e+003, 5.015706e+002
1.107592e+003, 5.015487e+002
1.108074e+003, 5.018512e+002
1.108556e+003, 5.019563e+002
1.109038e+003, 5.018998e+002
1.109521e+003, 5.019809e+002
1.110003e+003, 5.025226e+002
1.110485e+003, 5.029167e+002
1.110967e+003, 5.029366e+002
1.111449e+003, 5.028734e+002
1.111931e+003, 5.033930e+002
1.112413e+003, 5.042540e+002
1.112895e+003, 5.041100e+002
1.113377e+003, 5.027825e+002
1.113860e+003, 5.018514e+002
1.114342e+003, 5.027541e+002
1.114824e+003, 5.038481e+002
1.115306e+003, 5.042505e+002
1.115788e+003, 5.041280e+002
1.116270e+003, 5.040165e+002
1.116752e+003, 5.039140e+002
1.117234e+003, 5.035728e+002
1.117717e+003, 5.028155e+002
1.118199e+003, 5.022820e+002
1.118681e+003, 5.025750e+002
1.119163e+003, 5.033348e+002
1.119645e+003, 5.044859e+002
1.120127e+003, 5.060434e+002
1.120609e+003, 5.062861e+002
1.121091e+003, 5.049399e+002
1.121573e+003, 5.040043e+002
1.122056e+003, 5.045302e+002
1.122538e+003, 5.055450e+002
1.123020e+003, 5.059486e+002
1.123502e+003, 5.059366e+002
1.123984e+003, 5.058254e+002
1.124466e+003, 5.057413e+002
1.124948e+003, 5.052984e+002
1.125430e+003, 5.042040e+002
1.125913e+003, 5.035300e+002
1.126395e+003, 5.044702e+002
1.126877e+003, 5.061157e+002
1.127359e+003, 5.063968e+002
1.127841e+003, 5.056426e+002
1.128323e+003, 5.047442e+002
1.128805e+003, 5.028476e+002
1.129287e+003, 5.027516e+002
1.129770e+003, 5.058539e+002
1.130252e+003, 5.091423e+002
1.130734e+003, 5.093249e+002
1.131216e+003, 5.071834e+002
1.131698e+003, 5.056524e+002
1.132180e+003, 5.048564e+002
1.132662e+003, 5.048048e+002
1.133144e+003, 5.061668e+002
1.133626e+003, 5.074851e+002
1.134109e+003, 5.084208e+002
1.134591e+003, 5.088804e+002
1.135073e+003, 5.084392e+002
1.135555e+003, 5.072145e+002
1.136037e+003, 5.067309e+002
1.136519e+003, 5.071787e+002
1.137001e+003, 5.076374e+002
1.137483e+003, 5.074217e+002
1.137965e+003, 5.070381e+002
1.138448e+003, 5.068558e+002
1.138930e+003, 5.067755e+002
1.139412e+003, 5.063089e+002
1.139894e+003, 5.054125e+002
1.140376e+003, 5.052831e+002
1.140858e+003, 5.063448e+002
1.141340e+003, 5.073156e+002
1.141822e+003, 5.065721e+002
1.142304e+003, 5.054981e+002
1.142787e+003, 5.055054e+002
1.143269e+003, 5.066695e+002
1.143751e+003, 5.072631e+002
1.144233e+003, 5.071188e+002
1.144715e+003, 5.073250e+002
1.145197e+003, 5.084305e+002
1.145679e+003, 5.095786e+002
1.146161e+003, 5.095368e+002
1.146644e+003, 5.089005e+002
1.147126e+003, 5.083627e+002
1.147608e+003, 5.079466e+002
1.148090e+003, 5.083022e+002
1.148572e+003, 5.098686e+002
1.149054e+003, 5.107719e+002
1.149536e+003, 5.096090e+002
1.150018e+003, 5.078039e+002
1.150500e+003, 5.082466e+002
1.150983e+003, 5.098582e+002
1.151465e+003, 5.104236e+002
1.151947e+003, 5.084810e+002
1.152429e+003, 5.073095e+002
1.152911e+003, 5.073397e+002
1.153393e+003, 5.077224e+002
1.153875e+003, 5.079481e+002
1.154357e+003, 5.080596e+002
1.154840e+003, 5.081105e+002
1.155322e+003, 5.081434e+002
1.155804e+003, 5.082906e+002
1.156286e+003, 5.088962e+002
1.156768e+003, 5.091650e+002
1.157250e+003, 5.087610e+002
1.157732e+003, 5.083471e+002
1.158214e+003, 5.087763e+002
1.158697e+003, 5.097296e+002
1.159179e+003, 5.096128e+002
1.159661e+003, 5.085933e+002
1.160143e+003, 5.078792e+002
1.160625e+003, 5.083037e+002
1.161107e+003, 5.088439e+002
1.161589e+003, 5.092700e+002
1.162071e+003, 5.095660e+002
1.162553e+003, 5.096668e+002
1.163036e+003, 5.095997e+002
1.163518e+003, 5.096769e+002
1.164000e+003, 5.098934e+002
1.164482e+003, 5.097603e+002
1.164964e+003, 5.084255e+002
1.165446e+003, 5.072975e+002
1.165928e+003, 5.072138e+002
1.166410e+003, 5.076885e+002
1.166892e+003, 5.077692e+002
1.167375e+003, 5.075158e+002
1.167857e+003, 5.079329e+002
1.168339e+003, 5.091968e+002
1.168821e+003, 5.101111e+002
1.169303e+003, 5.091974e+002
1.169785e+003, 5.082310e+002
1.170267e+003, 5.085407e+002
1.170749e+003, 5.096781e+002
1.171231e+003, 5.104671e+002
1.171714e+003, 5.109070e+002
1.172196e+003, 5.109162e+002
1.172678e+003, 5.103861e+002
1.173160e+003, 5.099956e+002
1.173642e+003, 5.103280e+002
1.174124e+003, 5.110338e+002
1.174606e+003, 5.122097e+002
1.175088e+003, 5.136088e+002
1.175571e+003, 5.134158e+002
1.176053e+003, 5.115131e+002
1.176535e+003, 5.105542e+002
1.177017e+003, 5.115754e+002
1.177499e+003, 5.127429e+002
1.177981e+003, 5.121981e+002
1.178463e+003, 5.109957e+002
1.178945e+003, 5.099835e+002
1.179427e+003, 5.092248e+002
1.179910e+003, 5.093297e+002
1.180392e+003, 5.104130e+002
1.180874e+003, 5.111995e+002
1.181356e+003, 5.112375e+002
1.181838e+003, 5.107288e+002
1.182320e+003, 5.093081e+002
1.182802e+003, 5.078001e+002
1.183284e+003, 5.072402e+002
1.183767e+003, 5.078145e+002
1.184249e+003, 5.086512e+002
1.184731e+003, 5.098706e+002
1.185213e+003, 5.105682e+002
1.185695e+003, 5.101062e+002
1.186177e+003, 5.092478e+002
1.186659e+003, 5.087079e+002
1.187141e+003, 5.084266e+002
1.187624e+003, 5.083457e+002
1.188106e+003, 5.084832e+002
1.188588e+003, 5.087729e+002
1.189070e+003, 5.092600e+002
1.189552e+003, 5.096760e+002
1.190034e+003, 5.100872e+002
1.190516e+003, 5.101110e+002
1.190998e+003, 5.086595e+002
1.191480e+003, 5.066790e+002
1.191963e+003, 5.058396e+002
1.192445e+003, 5.068618e+002
1.192927e+003, 5.079259e+002
1.193409e+003, 5.091138e+002
1.193891e+003, 5.099370e+002
1.194373e+003, 5.099575e+002
1.194855e+003, 5.094936e+002
1.195337e+003, 5.084565e+002
1.195819e+003, 5.073424e+002
1.196302e+003, 5.073527e+002
1.196784e+003, 5.094932e+002
1.197266e+003, 5.106960e+002
1.197748e+003, 5.107117e+002
1.198230e+003, 5.106103e+002
1.198712e+003, 5.114397e+002
1.199194e+003, 5.125240e+002
1.199676e+003, 5.130649e+002
1.200158e+003, 5.130943e+002
1.200641e+003, 5.126589e+002
1.201123e+003, 5.113742e+002
1.201605e+003, 5.106458e+002
1.202087e+003, 5.106161e+002
1.202569e+003, 5.108944e+002
1.203051e+003, 5.114734e+002
1.203533e+003, 5.119126e+002
1.204015e+003, 5.112995e+002
1.204498e+003, 5.100056e+002
1.204980e+003, 5.094218e+002
1.205462e+003, 5.101084e+002
1.205944e+003, 5.105976e+002
1.206426e+003, 5.107694e+002
1.206908e+003, 5.107199e+002
1.207390e+003, 5.104387e+002
1.207872e+003, 5.100635e+002
1.208354e+003, 5.096767e+002
1.208837e+003, 5.093346e+002
1.209319e+003, 5.092863e+002
1.209801e+003, 5.095726e+002
1.210283e+003, 5.101348e+002
1.210765e+003, 5.110971e+002
1.211247e+003, 5.118286e+002
1.211729e+003, 5.112856e+002
1.212211e+003, 5.103961e+002
1.212694e+003, 5.105172e+002
1.213176e+003, 5.114918e+002
1.213658e+003, 5.119294e+002
1.214140e+003, 5.115525e+002
1.214622e+003, 5.111652e+002
1.215104e+003, 5.108877e+002
1.215586e+003, 5.106430e+002
1.216068e+003, 5.104366e+002
1.216551e+003, 5.101617e+002
1.217033e+003, 5.094205e+002
1.217515e+003, 5.083755e+002
1.217997e+003, 5.083622e+002
1.218479e+003, 5.098124e+002
1.218961e+003, 5.110137e+002
1.219443e+003, 5.117370e+002
1.219925e+003, 5.119051e+002
1.220407e+003, 5.109499e+002
1.220890e+003, 5.097222e+002
1.221372e+003, 5.090687e+002
1.221854e+003, 5.090893e+002
1.222336e+003, 5.097962e+002
1.222818e+003, 5.114769e+002
1.223300e+003, 5.125163e+002
1.223782e+003, 5.125131e+002
1.224264e+003, 5.121912e+002
1.224746e+003, 5.123595e+002
1.225229e+003, 5.126235e+002
1.225711e+003, 5.125031e+002
1.226193e+003, 5.120171e+002
1.226675e+003, 5.118003e+002
1.227157e+003, 5.119183e+002
1.227639e+003, 5.119901e+002
1.228121e+003, 5.119275e+002
1.228603e+003, 5.118441e+002
1.229085e+003, 5.117984e+002
1.229568e+003, 5.118374e+002
1.230050e+003, 5.121273e+002
1.230532e+003, 5.125969e+002
1.231014e+003, 5.125242e+002
1.231496e+003, 5.117872e+002
1.231978e+003, 5.116695e+002
1.232460e+003, 5.126080e+002
1.232942e+003, 5.135026e+002
1.233425e+003, 5.129997e+002
1.233907e+003, 5.122208e+002
1.234389e+003, 5.123890e+002
1.234871e+003, 5.132822e+002
1.235353e+003, 5.130941e+002
1.235835e+003, 5.117602e+002
1.236317e+003, 5.109706e+002
1.236799e+003, 5.111967e+002
1.237281e+003, 5.117112e+002
1.237764e+003, 5.121805e+002
1.238246e+003, 5.124480e+002
1.238728e+003, 5.121098e+002
1.239210e+003, 5.114493e+002
1.239692e+003, 5.118347e+002
1.240174e+003, 5.132098e+002
1.240656e+003, 5.143173e+002
1.241138e+003, 5.148814e+002
1.241621e+003, 5.149293e+002
1.242103e+003, 5.138055e+002
1.242585e+003, 5.128153e+002
1.243067e+003, 5.128765e+002
1.243549e+003, 5.137468e+002
1.244031e+003, 5.147786e+002
1.244513e+003, 5.158988e+002
1.244995e+003, 5.163599e+002
1.245478e+003, 5.158603e+002
1.245960e+003, 5.155185e+002
1.246442e+003, 5.164442e+002
1.246924e+003, 5.172316e+002
1.247406e+003, 5.169439e+002
1.247888e+003, 5.160750e+002
1.248370e+003, 5.163547e+002
1.248852e+003, 5.174536e+002
1.249334e+003, 5.179050e+002
1.249817e+003, 5.172913e+002
1.250299e+003, 5.166339e+002
1.250781e+003, 5.163198e+002
1.251263e+003, 5.162164e+002
1.251745e+003, 5.163071e+002
1.252227e+003, 5.165376e+002
1.252709e+003, 5.168841e+002
1.253191e+003, 5.172463e+002
1.253673e+003, 5.173083e+002
1.254156e+003, 5.169778e+002
1.254638e+003, 5.165643e+002
1.255120e+003, 5.157888e+002
1.255602e+003, 5.155401e+002
1.256084e+003, 5.162460e+002
1.256566e+003, 5.174653e+002
1.257048e+003, 5.185936e+002
1.257530e+003, 5.194785e+002
1.258012e+003, 5.196555e+002
1.258495e+003, 5.189503e+002
1.258977e+003, 5.185816e+002
1.259459e+003, 5.187375e+002
1.259941e+003, 5.192228e+002
1.260423e+003, 5.201090e+002
1.260905e+003, 5.209999e+002
1.261387e+003, 5.211496e+002
1.261869e+003, 5.209490e+002
1.262352e+003, 5.210667e+002
1.262834e+003, 5.216307e+002
1.263316e+003, 5.216205e+002
1.263798e+003, 5.207267e+002
1.264280e+003, 5.202580e+002
1.264762e+003, 5.206440e+002
1.265244e+003, 5.214752e+002
1.265726e+003, 5.228820e+002
1.266208e+003, 5.240452e+002
1.266691e+003, 5.236510e+002
1.267173e+003, 5.216665e+002
1.267655e+003, 5.211524e+002
1.268137e+003, 5.223464e+002
1.268619e+003, 5.228806e+002
1.269101e+003, 5.219318e+002
1.269583e+003, 5.210478e+002
1.270065e+003, 5.217518e+002
1.270548e+003, 5.231288e+002
1.271030e+003, 5.248869e+002
1.271512e+003, 5.266317e+002
1.271994e+003, 5.261983e+002
1.272476e+003, 5.236577e+002
1.272958e+003, 5.223214e+002
1.273440e+003, 5.230765e+002
1.273922e+003, 5.239841e+002
1.274405e+003, 5.234980e+002
1.274887e+003, 5.229073e+002
1.275369e+003, 5.230080e+002
1.275851e+003, 5.235741e+002
1.276333e+003, 5.240084e+002
1.276815e+003, 5.243225e+002
1.277297e+003, 5.245142e+002
1.277779e+003, 5.245578e+002
1.278261e+003, 5.248195e+002
1.278744e+003, 5.259753e+002
1.279226e+003, 5.267089e+002
1.279708e+003, 5.263396e+002
1.280190e+003, 5.255416e+002
1.280672e+003, 5.256978e+002
1.281154e+003, 5.264576e+002
1.281636e+003, 5.268738e+002
1.282118e+003, 5.268146e+002
1.282600e+003, 5.269781e+002
1.283083e+003, 5.277850e+002
1.283565e+003, 5.284468e+002
1.284047e+003, 5.287509e+002
1.284529e+003, 5.289360e+002
1.285011e+003, 5.294469e+002
1.285493e+003, 5.300154e+002
1.285975e+003, 5.301406e+002
1.286457e+003, 5.298232e+002
1.286939e+003, 5.297919e+002
1.287422e+003, 5.304188e+002
1.287904e+003, 5.301823e+002
1.288386e+003, 5.286165e+002
1.288868e+003, 5.269958e+002
1.289350e+003, 5.267632e+002
1.289832e+003, 5.271180e+002
1.290314e+003, 5.271534e+002
1.290796e+003, 5.270308e+002
1.291279e+003, 5.278039e+002
1.291761e+003, 5.296031e+002
1.292243e+003, 5.308201e+002
1.292725e+003, 5.312154e+002
1.293207e+003, 5.311661e+002
1.293689e+003, 5.303726e+002
1.294171e+003, 5.298286e+002
1.294653e+003, 5.306586e+002
1.295135e+003, 5.319692e+002
1.295618e+003, 5.321979e+002
1.296100e+003, 5.314485e+002
1.296582e+003, 5.306130e+002
1.297064e+003, 5.298513e+002
1.297546e+003, 5.294896e+002
1.298028e+003, 5.297877e+002
1.298510e+003, 5.302533e+002
1.298992e+003, 5.309249e+002
1.299475e+003, 5.314888e+002
1.299957e+003, 5.312126e+002
1.300439e+003, 5.305743e+002
1.300921e+003, 5.310366e+002
1.301403e+003, 5.325290e+002
1.301885e+003, 5.339931e+002
##END=



