##NAMES=Marialite
##RRUFFID=R060469
##IDEAL CHEMISTRY=Na_4_Al_3_Si_9_O_24_Cl
##LOCALITY=Mpwa-Mpwa mine, Umba Valley, near Arusha, Tanzania
##OWNER=RRUFF
##SOURCE=Michael Scott
##DESCRIPTION=Yellow tetragonal prism with pronounced striations along the c-axis direction
##STATUS=The identification of this mineral has been confirmed by X-ray diffraction and chemical analysis
##URL=rruff.info/R060469
##MEASURED CHEMISTRY=(Na_0.66_Ca_0.27_K_0.07_)_4_(Si_0.68_Al_0.32_)_12_O_24_(Cl_0.75_(CO_3_)_0.25_)
91.62726, 0.0000000E+00
92.10938, 18.68724
92.59149, 18.56204
93.07361, 18.60543
93.55573, 18.80482
94.03784, 19.00434
94.51996, 19.07692
95.00208, 19.04117
95.48419, 18.95904
95.96631, 18.79535
96.44843, 18.60873
96.93054, 18.55051
97.41266, 18.61776
97.89478, 18.83120
98.37689, 19.30566
98.85901, 20.03718
99.34113, 20.69050
99.82324, 21.11329
100.3054, 21.30215
100.7875, 21.46693
101.2696, 21.57827
101.7517, 21.70400
102.2338, 21.93400
102.7159, 22.21636
103.1981, 22.75275
103.6802, 23.74172
104.1623, 25.45367
104.6444, 26.70466
105.1265, 27.11780
105.6086, 27.06510
106.0908, 28.02904
106.5729, 30.47291
107.0550, 33.38665
107.5371, 36.20247
108.0192, 38.92697
108.5013, 41.56824
108.9835, 43.88683
109.4656, 45.90757
109.9477, 48.76963
110.4298, 53.00268
110.9119, 57.79380
111.3940, 62.68974
111.8762, 66.64413
112.3583, 71.69066
112.8404, 78.48472
113.3225, 87.16257
113.8046, 95.98064
114.2867, 104.8087
114.7689, 113.7155
115.2510, 122.6982
115.7331, 131.7399
116.2152, 140.9637
116.6973, 150.5656
117.1794, 160.8087
117.6616, 170.3465
118.1437, 178.2646
118.6258, 185.2625
119.1079, 192.2278
119.5900, 199.0932
120.0721, 206.3996
120.5543, 214.5034
121.0364, 223.4979
121.5185, 233.1630
122.0006, 243.3074
122.4827, 254.0423
122.9648, 265.8463
123.4470, 278.9361
123.9291, 293.1470
124.4112, 308.3519
124.8933, 324.8922
125.3754, 341.8629
125.8575, 358.1346
126.3397, 373.8741
126.8218, 390.1779
127.3039, 408.3613
127.7860, 427.5635
128.2681, 445.8877
128.7502, 462.7340
129.2324, 478.5324
129.7145, 493.9637
130.1966, 509.1029
130.6787, 523.0974
131.1608, 535.0120
131.6429, 544.9460
132.1251, 553.9524
132.6072, 562.5421
133.0893, 570.4139
133.5714, 576.6611
134.0535, 581.1507
134.5356, 584.6273
135.0178, 587.6530
135.4999, 590.1959
135.9820, 593.1586
136.4641, 596.7079
136.9462, 600.8832
137.4283, 606.2249
137.9105, 612.7064
138.3926, 620.4833
138.8747, 629.7828
139.3568, 640.8199
139.8389, 652.8786
140.3210, 665.8334
140.8032, 679.9553
141.2853, 693.7524
141.7674, 706.4643
142.2495, 719.2402
142.7316, 734.0892
143.2137, 749.2244
143.6959, 761.2628
144.1780, 772.8676
144.6601, 784.0546
145.1422, 795.3572
145.6243, 807.0525
146.1064, 818.9173
146.5886, 830.5139
147.0707, 841.6434
147.5528, 852.7245
148.0349, 863.8048
148.5170, 875.4091
148.9991, 886.3197
149.4813, 896.0749
149.9634, 904.8997
150.4455, 914.0466
150.9276, 923.5823
151.4097, 933.4142
151.8918, 943.2252
152.3740, 955.4120
152.8561, 965.1534
153.3382, 971.1883
153.8203, 973.5964
154.3024, 976.3605
154.7845, 979.2891
155.2667, 982.8605
155.7488, 987.4932
156.2309, 993.1786
156.7130, 999.8658
157.1951, 1008.724
157.6772, 1019.936
158.1594, 1028.249
158.6415, 1030.547
159.1236, 1030.204
159.6057, 1030.515
160.0878, 1034.004
160.5699, 1036.743
161.0521, 1037.344
161.5342, 1035.600
162.0163, 1032.751
162.4984, 1029.746
162.9805, 1025.782
163.4626, 1019.843
163.9448, 1010.516
164.4269, 999.9615
164.9090, 989.3268
165.3911, 978.8753
165.8732, 967.5341
166.3553, 954.1780
166.8375, 939.6459
167.3196, 925.3201
167.8017, 911.7688
168.2838, 898.6842
168.7659, 885.7409
169.2480, 872.9285
169.7302, 860.1170
170.2123, 847.1132
170.6944, 833.9656
171.1765, 821.0323
171.6586, 807.3943
172.1407, 794.4441
172.6229, 783.5574
173.1050, 775.2666
173.5871, 768.0089
174.0692, 760.5023
174.5513, 752.9553
175.0334, 746.1058
175.5156, 740.4841
175.9977, 735.7515
176.4798, 731.6136
176.9619, 728.0176
177.4440, 724.8295
177.9261, 721.8849
178.4083, 719.2198
178.8904, 717.0460
179.3725, 716.0137
179.8546, 715.5270
180.3367, 714.3269
180.8188, 711.8200
181.3010, 709.1564
181.7831, 707.9167
182.2652, 708.0160
182.7473, 708.7268
183.2294, 710.1013
183.7115, 711.7365
184.1937, 712.3477
184.6758, 711.3007
185.1579, 709.5873
185.6400, 709.0352
186.1221, 709.6018
186.6042, 710.1716
187.0864, 709.7142
187.5685, 708.4562
188.0506, 707.4842
188.5327, 707.2801
189.0148, 707.2766
189.4969, 706.0854
189.9791, 703.6812
190.4612, 700.8734
190.9433, 698.1768
191.4254, 695.6218
191.9075, 693.2582
192.3896, 691.2597
192.8718, 689.4084
193.3539, 686.9082
193.8360, 683.6678
194.3181, 680.3136
194.8002, 677.3211
195.2823, 674.6584
195.7645, 672.3703
196.2466, 670.6396
196.7287, 669.2364
197.2108, 666.9382
197.6929, 663.4529
198.1750, 660.3399
198.6572, 659.6172
199.1393, 661.4397
199.6214, 662.1606
200.1035, 660.4574
200.5856, 656.8741
201.0677, 654.8898
201.5499, 654.8336
202.0320, 655.2464
202.5141, 654.6041
202.9962, 652.7572
203.4783, 651.1230
203.9604, 650.0750
204.4426, 649.5555
204.9247, 649.1853
205.4068, 649.2216
205.8889, 648.8382
206.3710, 646.8184
206.8531, 642.6806
207.3353, 639.5208
207.8174, 638.5738
208.2995, 639.5643
208.7816, 638.4650
209.2637, 634.6442
209.7458, 629.9948
210.2280, 626.4245
210.7101, 624.1243
211.1922, 622.1583
211.6743, 620.2616
212.1564, 618.4594
212.6385, 617.3359
213.1207, 617.2159
213.6028, 617.2576
214.0849, 616.3348
214.5670, 613.8033
215.0491, 612.3502
215.5313, 612.9276
216.0134, 615.5192
216.4955, 617.0866
216.9776, 617.1623
217.4597, 616.8770
217.9418, 617.5266
218.4240, 619.6260
218.9061, 621.2918
219.3882, 622.0426
219.8703, 621.8661
220.3524, 621.6998
220.8345, 621.5881
221.3167, 621.4283
221.7988, 621.1539
222.2809, 620.8762
222.7630, 620.2182
223.2451, 619.0308
223.7272, 617.2972
224.2094, 615.6044
224.6915, 613.8652
225.1736, 612.2413
225.6557, 610.9847
226.1378, 610.3269
226.6199, 609.4984
227.1021, 608.3205
227.5842, 606.7822
228.0663, 605.2276
228.5484, 603.3670
229.0305, 601.7806
229.5126, 601.2803
229.9948, 603.1982
230.4769, 603.4385
230.9590, 600.8259
231.4411, 595.3705
231.9232, 590.4932
232.4053, 586.1463
232.8875, 582.3615
233.3696, 579.1492
233.8517, 576.5194
234.3338, 574.4893
234.8159, 573.3632
235.2980, 573.1025
235.7802, 571.9276
236.2623, 569.0770
236.7444, 566.1501
237.2265, 564.6186
237.7086, 565.5944
238.1907, 565.7681
238.6729, 564.2646
239.1550, 561.2347
239.6371, 559.2829
240.1192, 558.6728
240.6013, 558.8349
241.0834, 559.3430
241.5656, 560.1288
242.0477, 561.3904
242.5298, 563.3337
243.0119, 565.8634
243.4940, 568.0290
243.9761, 569.6522
244.4583, 571.1088
244.9404, 572.6722
245.4225, 574.4503
245.9046, 576.0554
246.3867, 577.0342
246.8688, 577.6688
247.3510, 580.0540
247.8331, 585.1240
248.3152, 590.7496
248.7973, 595.5381
249.2794, 598.9942
249.7615, 602.6985
250.2437, 606.7296
250.7258, 611.1074
251.2079, 615.9069
251.6900, 621.4418
252.1721, 626.9615
252.6542, 631.8527
253.1364, 635.1624
253.6185, 640.0266
254.1006, 646.8480
254.5827, 655.2981
255.0648, 664.3348
255.5469, 674.4613
256.0291, 684.2159
256.5112, 692.7209
256.9933, 699.4459
257.4754, 706.3382
257.9575, 713.3778
258.4396, 720.6825
258.9218, 728.4990
259.4039, 737.4562
259.8860, 745.9107
260.3681, 753.2077
260.8502, 759.3022
261.3323, 764.5212
261.8145, 769.2218
262.2966, 772.8206
262.7787, 774.0711
263.2608, 772.7447
263.7429, 769.4764
264.2250, 764.3134
264.7072, 757.0281
265.1893, 748.8158
265.6714, 739.6059
266.1535, 729.5549
266.6356, 718.8646
267.1177, 707.1780
267.5999, 695.4919
268.0820, 684.1661
268.5641, 673.1127
269.0462, 662.3783
269.5283, 651.7614
270.0104, 641.5814
270.4926, 632.1979
270.9747, 623.7284
271.4568, 615.3548
271.9389, 606.4372
272.4210, 596.8324
272.9031, 589.8768
273.3853, 586.3975
273.8674, 584.0917
274.3495, 579.9973
274.8316, 573.6658
275.3137, 567.7552
275.7958, 562.7361
276.2780, 558.6591
276.7601, 556.2135
277.2422, 555.8047
277.7243, 555.9587
278.2064, 555.1184
278.6885, 553.1723
279.1707, 551.0858
279.6528, 548.7644
280.1349, 546.4822
280.6170, 546.0267
281.0991, 547.7948
281.5812, 549.8189
282.0634, 550.1393
282.5455, 548.7176
283.0276, 547.7308
283.5097, 547.7064
283.9918, 548.3314
284.4739, 548.5528
284.9561, 548.3047
285.4382, 548.1437
285.9203, 548.4963
286.4024, 549.3368
286.8845, 550.2973
287.3666, 551.1950
287.8488, 552.3220
288.3309, 554.5346
288.8130, 557.8531
289.2951, 561.1742
289.7772, 563.9399
290.2593, 566.1208
290.7415, 567.5261
291.2236, 567.8828
291.7057, 568.0314
292.1878, 569.3357
292.6699, 571.7408
293.1520, 574.5449
293.6342, 577.5311
294.1163, 580.6346
294.5984, 583.3677
295.0805, 585.6113
295.5626, 588.0353
296.0447, 591.9457
296.5269, 597.0003
297.0090, 601.5471
297.4911, 604.7927
297.9732, 606.9604
298.4553, 608.6766
298.9374, 610.0129
299.4196, 610.0810
299.9017, 607.6688
300.3838, 603.2129
300.8659, 597.8715
301.3480, 591.4365
301.8301, 584.7379
302.3123, 579.0341
302.7944, 574.2585
303.2765, 569.9843
303.7586, 565.5374
304.2407, 561.3528
304.7228, 558.1449
305.2050, 556.4251
305.6871, 555.5354
306.1692, 555.1356
306.6513, 555.1197
307.1334, 554.8873
307.6155, 553.7831
308.0977, 552.3138
308.5798, 551.1100
309.0619, 550.3080
309.5440, 549.7982
310.0261, 549.7129
310.5082, 549.8896
310.9904, 549.8380
311.4725, 548.8931
311.9546, 547.8126
312.4367, 547.2780
312.9188, 547.4653
313.4009, 547.9798
313.8831, 548.9503
314.3652, 550.0558
314.8473, 550.7083
315.3294, 550.0534
315.8115, 549.3159
316.2936, 549.2078
316.7758, 549.8206
317.2579, 550.9330
317.7400, 553.0964
318.2221, 555.5305
318.7042, 557.2878
319.1863, 557.4310
319.6685, 557.4107
320.1506, 557.7452
320.6327, 558.4625
321.1148, 559.4158
321.5969, 560.7067
322.0790, 562.1312
322.5612, 563.5470
323.0433, 564.6179
323.5254, 565.9727
324.0075, 568.0687
324.4896, 570.7554
324.9717, 572.8293
325.4539, 573.7316
325.9360, 574.2391
326.4181, 574.7758
326.9002, 575.4692
327.3823, 576.0890
327.8644, 576.3701
328.3466, 576.5330
328.8287, 577.2538
329.3108, 579.0746
329.7929, 581.0067
330.2750, 582.6635
330.7571, 583.9082
331.2393, 585.2295
331.7214, 586.6047
332.2035, 588.0662
332.6856, 589.7022
333.1677, 592.0458
333.6498, 593.7814
334.1320, 594.2823
334.6141, 593.2627
335.0962, 593.2578
335.5783, 594.8568
336.0604, 596.8601
336.5425, 598.0656
337.0247, 598.3597
337.5068, 598.1010
337.9889, 597.0734
338.4710, 595.4540
338.9531, 594.7787
339.4352, 595.2707
339.9174, 596.1976
340.3995, 597.0970
340.8816, 598.0251
341.3637, 598.5424
341.8458, 598.3145
342.3279, 597.8828
342.8101, 598.9496
343.2922, 601.7411
343.7743, 604.4686
344.2564, 605.6473
344.7385, 605.4200
345.2206, 606.5888
345.7028, 609.5646
346.1849, 613.3244
346.6670, 616.4395
347.1491, 618.9280
347.6312, 621.0844
348.1133, 622.6035
348.5955, 623.8779
349.0776, 626.4452
349.5597, 630.4143
350.0418, 634.7275
350.5239, 638.1860
351.0060, 641.0780
351.4882, 644.1104
351.9703, 647.2263
352.4524, 650.8495
352.9345, 656.1458
353.4166, 662.8962
353.8987, 669.1353
354.3809, 672.4423
354.8630, 674.5329
355.3451, 677.9727
355.8272, 683.6574
356.3093, 690.0845
356.7914, 696.3983
357.2736, 702.4766
357.7557, 707.8289
358.2378, 711.8105
358.7199, 715.1304
359.2020, 718.6153
359.6841, 722.5788
360.1663, 725.3788
360.6484, 725.8021
361.1305, 724.5500
361.6126, 722.6085
362.0947, 720.0883
362.5768, 717.1854
363.0590, 714.1006
363.5411, 710.8325
364.0232, 706.8307
364.5053, 701.3683
364.9874, 695.4048
365.4695, 689.6863
365.9517, 683.5956
366.4338, 678.6182
366.9159, 675.1661
367.3980, 673.0632
367.8801, 671.5991
368.3622, 671.2792
368.8444, 671.1152
369.3265, 670.7052
369.8086, 670.0607
370.2907, 669.0583
370.7728, 666.9222
371.2549, 664.6565
371.7371, 663.9923
372.2192, 666.1617
372.7013, 668.2394
373.1834, 669.4531
373.6655, 669.7416
374.1476, 669.8687
374.6298, 669.8412
375.1119, 669.6569
375.5940, 669.3026
376.0761, 668.7681
376.5582, 668.0590
377.0403, 666.8536
377.5225, 665.5255
378.0046, 666.1364
378.4867, 669.3037
378.9688, 672.1005
379.4509, 672.2086
379.9330, 669.5661
380.4152, 667.7145
380.8973, 667.0720
381.3794, 667.0306
381.8615, 666.5266
382.3436, 665.5638
382.8257, 664.8031
383.3079, 664.6356
383.7900, 664.8938
384.2721, 665.1322
384.7542, 665.3718
385.2363, 665.2911
385.7184, 664.2803
386.2006, 662.6762
386.6827, 661.3655
387.1648, 660.7575
387.6469, 660.4592
388.1290, 660.1432
388.6111, 659.7669
389.0933, 659.0656
389.5754, 657.3977
390.0575, 655.5091
390.5396, 654.3310
391.0217, 654.1942
391.5038, 654.2371
391.9860, 653.6638
392.4681, 652.8582
392.9502, 652.5134
393.4323, 653.4061
393.9144, 654.4722
394.3965, 655.1165
394.8787, 655.2907
395.3608, 655.2391
395.8429, 654.9862
396.3250, 654.5714
396.8071, 654.0306
397.2892, 652.7067
397.7714, 651.9741
398.2535, 652.3812
398.7356, 653.7256
399.2177, 655.0105
399.6998, 656.3766
400.1819, 657.4731
400.6641, 658.0675
401.1462, 657.5576
401.6283, 657.8177
402.1104, 659.3434
402.5925, 661.4082
403.0746, 662.9310
403.5568, 663.7328
404.0389, 664.2598
404.5210, 664.2894
405.0031, 663.8154
405.4852, 665.0060
405.9673, 668.4133
406.4495, 672.4685
406.9316, 675.9465
407.4137, 678.8554
407.8958, 681.2489
408.3779, 683.0071
408.8600, 684.3903
409.3422, 685.8391
409.8243, 687.3165
410.3064, 689.4564
410.7885, 693.1331
411.2706, 697.9421
411.7527, 701.6986
412.2349, 704.2206
412.7170, 706.3884
413.1991, 709.0486
413.6812, 712.1653
414.1633, 715.5657
414.6454, 719.3690
415.1276, 723.2636
415.6097, 726.9653
416.0918, 730.4083
416.5739, 733.3874
417.0560, 735.3659
417.5381, 736.9527
418.0203, 738.9316
418.5024, 741.6198
418.9845, 744.2867
419.4666, 746.2386
419.9487, 747.8546
420.4308, 749.7955
420.9130, 753.5800
421.3951, 756.7249
421.8772, 757.8062
422.3593, 756.5901
422.8414, 755.1369
423.3235, 753.6183
423.8057, 752.2955
424.2878, 751.3961
424.7699, 752.1422
425.2520, 751.9429
425.7341, 749.5129
426.2162, 745.7321
426.6984, 743.6758
427.1805, 743.8011
427.6626, 745.1669
428.1447, 747.8399
428.6268, 752.6899
429.1089, 755.3931
429.5911, 754.8534
430.0732, 753.3407
430.5553, 753.8607
431.0374, 756.9804
431.5195, 759.8177
432.0016, 761.5389
432.4838, 762.4875
432.9659, 764.1506
433.4480, 766.4590
433.9301, 769.8799
434.4122, 775.1262
434.8943, 781.9671
435.3765, 788.7304
435.8586, 795.2042
436.3407, 801.7271
436.8228, 808.6928
437.3049, 816.1307
437.7870, 823.9564
438.2692, 832.3783
438.7513, 841.1418
439.2334, 850.0098
439.7155, 858.9716
440.1976, 867.7516
440.6797, 875.0287
441.1619, 882.4426
441.6440, 892.2020
442.1261, 905.6956
442.6082, 919.8317
443.0903, 932.6927
443.5724, 944.8625
444.0546, 957.6000
444.5367, 970.6716
445.0188, 984.9898
445.5009, 1001.061
445.9830, 1018.762
446.4651, 1038.259
446.9473, 1059.033
447.4294, 1081.958
447.9115, 1107.491
448.3936, 1136.370
448.8757, 1167.239
449.3578, 1200.465
449.8400, 1235.350
450.3221, 1271.802
450.8042, 1310.470
451.2863, 1349.802
451.7684, 1389.794
452.2505, 1430.772
452.7327, 1470.959
453.2148, 1510.708
453.6969, 1548.630
454.1790, 1582.476
454.6611, 1612.685
455.1432, 1637.496
455.6254, 1655.592
456.1075, 1668.530
456.5896, 1679.925
457.0717, 1689.828
457.5538, 1696.723
458.0359, 1700.376
458.5181, 1700.218
459.0002, 1695.147
459.4823, 1685.198
459.9644, 1669.623
460.4465, 1646.195
460.9286, 1616.776
461.4108, 1585.345
461.8929, 1552.872
462.3750, 1519.447
462.8571, 1485.437
463.3392, 1450.478
463.8214, 1414.412
464.3035, 1374.627
464.7856, 1334.960
465.2677, 1297.809
465.7498, 1263.697
466.2319, 1231.656
466.7141, 1202.047
467.1962, 1174.290
467.6783, 1147.250
468.1604, 1119.815
468.6425, 1094.472
469.1246, 1072.009
469.6068, 1052.235
470.0889, 1032.972
470.5710, 1013.816
471.0531, 995.7003
471.5352, 979.2722
472.0173, 964.6606
472.4995, 950.6844
472.9816, 937.2373
473.4637, 924.5021
473.9458, 913.0078
474.4279, 902.7372
474.9100, 893.2324
475.3922, 884.5690
475.8743, 876.4852
476.3564, 867.9095
476.8385, 858.8568
477.3206, 850.4901
477.8027, 843.7523
478.2849, 838.3861
478.7670, 834.1861
479.2491, 831.3451
479.7312, 828.6377
480.2133, 824.5776
480.6954, 819.8347
481.1776, 815.6484
481.6597, 812.8096
482.1418, 810.5109
482.6239, 808.4101
483.1060, 806.4578
483.5881, 804.4761
484.0703, 802.9796
484.5524, 800.9989
485.0345, 797.5730
485.5166, 790.9885
485.9987, 786.6046
486.4808, 786.9747
486.9630, 789.3990
487.4451, 790.2097
487.9272, 788.7516
488.4093, 786.5844
488.8914, 783.6030
489.3735, 779.9711
489.8557, 777.3240
490.3378, 775.7644
490.8199, 774.8826
491.3020, 774.6940
491.7841, 775.2997
492.2662, 775.2809
492.7484, 774.4982
493.2305, 773.3399
493.7126, 772.1685
494.1947, 771.0193
494.6768, 770.2719
495.1589, 769.9955
495.6411, 770.2313
496.1232, 771.5266
496.6053, 773.6667
497.0874, 775.1699
497.5695, 774.3535
498.0516, 772.7493
498.5338, 772.1827
499.0159, 772.9907
499.4980, 774.0413
499.9801, 774.8117
500.4622, 775.3777
500.9443, 775.8464
501.4265, 776.1258
501.9086, 776.4402
502.3907, 776.8318
502.8728, 777.3184
503.3549, 777.9489
503.8370, 779.1367
504.3192, 780.1183
504.8013, 780.5186
505.2834, 780.1039
505.7655, 780.2240
506.2476, 781.2087
506.7297, 782.3570
507.2119, 782.9775
507.6940, 782.9528
508.1761, 782.7723
508.6582, 782.3113
509.1403, 781.9130
509.6224, 782.4496
510.1046, 783.9290
510.5867, 785.8559
511.0688, 788.3506
511.5509, 791.0883
512.0330, 792.9227
512.5151, 793.8378
512.9973, 794.7268
513.4794, 796.5403
513.9615, 798.7991
514.4436, 800.7233
514.9257, 802.0346
515.4078, 803.2180
515.8900, 804.5392
516.3721, 805.9836
516.8542, 807.5233
517.3363, 809.0961
517.8184, 810.8261
518.3005, 812.4949
518.7827, 814.1348
519.2648, 816.8482
519.7469, 821.9626
520.2290, 827.3377
520.7111, 831.7283
521.1932, 834.0793
521.6754, 837.5748
522.1575, 842.6039
522.6396, 848.4678
523.1217, 854.1148
523.6038, 859.3360
524.0859, 865.0886
524.5681, 871.5111
525.0502, 878.5883
525.5323, 886.4803
526.0144, 895.2353
526.4965, 904.4888
526.9786, 913.8663
527.4608, 923.6761
527.9429, 934.6283
528.4250, 946.8752
528.9071, 960.1457
529.3892, 974.4267
529.8713, 989.5981
530.3535, 1005.061
530.8356, 1020.127
531.3177, 1036.492
531.7998, 1055.959
532.2819, 1077.668
532.7640, 1098.651
533.2462, 1117.655
533.7283, 1136.354
534.2104, 1156.301
534.6925, 1177.706
535.1746, 1196.568
535.6567, 1214.032
536.1389, 1227.573
536.6210, 1235.457
537.1031, 1237.721
537.5852, 1234.448
538.0673, 1225.033
538.5494, 1210.624
539.0316, 1192.337
539.5137, 1169.504
539.9958, 1146.266
540.4779, 1123.716
540.9600, 1101.673
541.4421, 1078.995
541.9243, 1055.863
542.4064, 1034.354
542.8885, 1016.444
543.3706, 1001.201
543.8527, 987.1049
544.3348, 974.0534
544.8170, 961.7863
545.2991, 950.0421
545.7812, 939.0213
546.2633, 928.7750
546.7454, 918.7504
547.2275, 910.4266
547.7097, 905.2316
548.1918, 902.1640
548.6739, 898.9737
549.1560, 895.2895
549.6381, 891.2950
550.1202, 886.7929
550.6024, 881.7460
551.0845, 877.6555
551.5666, 874.9426
552.0487, 872.6131
552.5308, 869.9460
553.0129, 866.7109
553.4951, 864.3549
553.9772, 863.0613
554.4593, 862.3680
554.9414, 861.8658
555.4235, 861.5051
555.9056, 860.6306
556.3878, 858.7313
556.8699, 856.5997
557.3520, 855.7477
557.8341, 855.9282
558.3162, 856.0959
558.7983, 855.3875
559.2805, 854.5373
559.7626, 854.5308
560.2447, 855.4582
560.7268, 855.7263
561.2089, 853.4968
561.6910, 850.9424
562.1732, 849.8641
562.6553, 851.9869
563.1374, 853.4147
563.6195, 853.1218
564.1016, 852.0276
564.5837, 851.4614
565.0659, 851.5017
565.5480, 851.9519
566.0301, 852.9551
566.5122, 854.3380
566.9943, 855.0865
567.4764, 855.0356
567.9586, 855.1160
568.4407, 856.1582
568.9228, 857.8912
569.4049, 858.6019
569.8870, 858.1639
570.3691, 857.6962
570.8513, 858.3250
571.3334, 859.6995
571.8155, 861.1990
572.2976, 862.8916
572.7797, 864.2086
573.2618, 864.4555
573.7440, 864.0720
574.2261, 863.8580
574.7082, 864.0692
575.1903, 864.5457
575.6724, 865.3239
576.1545, 866.3663
576.6367, 867.3646
577.1188, 868.2579
577.6009, 869.1451
578.0830, 870.1747
578.5651, 871.5012
579.0472, 872.0729
579.5294, 871.5632
580.0115, 870.9099
580.4936, 871.0564
580.9757, 872.0222
581.4578, 873.0451
581.9399, 874.0321
582.4221, 874.9979
582.9042, 875.9952
583.3863, 876.9984
583.8684, 877.9630
584.3505, 878.9921
584.8326, 879.8674
585.3148, 880.0670
585.7969, 879.7905
586.2790, 879.9695
586.7611, 881.1415
587.2432, 882.8853
587.7253, 885.3022
588.2075, 888.7119
588.6896, 890.7568
589.1717, 889.6714
589.6538, 887.8750
590.1359, 887.2062
590.6180, 888.2850
591.1002, 889.3398
591.5823, 890.4582
592.0644, 891.3801
592.5465, 891.4618
593.0286, 890.5421
593.5107, 890.0540
593.9929, 890.3894
594.4750, 891.4526
594.9571, 893.5932
595.4392, 896.6246
595.9213, 898.6259
596.4034, 897.0248
596.8856, 894.4152
597.3677, 894.8320
597.8498, 898.4084
598.3319, 901.6511
598.8140, 901.8881
599.2961, 901.0504
599.7783, 900.6583
600.2604, 900.6849
600.7425, 901.8346
601.2246, 905.9835
601.7067, 910.6597
602.1888, 912.4913
602.6710, 908.9511
603.1531, 906.7756
603.6352, 907.2831
604.1173, 909.5400
604.5994, 910.8708
605.0815, 911.1643
605.5637, 911.0196
606.0458, 910.2680
606.5279, 909.3187
607.0100, 910.2239
607.4921, 912.9344
607.9742, 915.3431
608.4564, 915.2291
608.9385, 914.0420
609.4206, 913.8829
609.9027, 915.0723
610.3848, 916.8774
610.8669, 919.8380
611.3491, 922.7082
611.8312, 924.1547
612.3133, 921.8338
612.7954, 920.7206
613.2775, 922.8522
613.7596, 926.5685
614.2418, 928.7855
614.7239, 928.8783
615.2060, 928.3746
615.6881, 927.1671
616.1702, 925.6141
616.6523, 925.7101
617.1345, 927.7071
617.6166, 929.7955
618.0987, 930.9174
618.5808, 931.3077
619.0629, 931.9457
619.5450, 932.8470
620.0272, 933.4639
620.5093, 932.7155
620.9914, 931.6535
621.4735, 931.8787
621.9556, 933.9978
622.4377, 936.1577
622.9199, 936.9085
623.4020, 937.3330
623.8841, 938.6773
624.3662, 942.9228
624.8483, 946.0339
625.3304, 947.0032
625.8126, 946.5336
626.2947, 946.1074
626.7768, 945.7625
627.2589, 945.3666
627.7410, 944.7685
628.2231, 944.1058
628.7053, 944.2763
629.1874, 945.3597
629.6695, 946.2391
630.1516, 945.7039
630.6337, 944.5358
631.1158, 944.8010
631.5980, 946.5803
632.0801, 948.4405
632.5622, 949.1669
633.0443, 949.4578
633.5264, 950.1367
634.0085, 951.6218
634.4907, 952.7913
634.9728, 952.6262
635.4549, 952.1576
635.9370, 952.6114
636.4191, 954.8607
636.9012, 956.9874
637.3834, 958.8468
637.8655, 960.4649
638.3476, 961.7755
638.8297, 962.6555
639.3118, 963.8199
639.7939, 965.8508
640.2761, 968.1894
640.7582, 968.3796
641.2403, 966.5965
641.7224, 965.5909
642.2045, 968.1882
642.6866, 972.0713
643.1688, 973.8980
643.6509, 973.5463
644.1330, 972.9235
644.6151, 972.5590
645.0972, 972.7549
645.5793, 973.9740
646.0615, 977.0947
646.5436, 979.1779
647.0257, 978.6733
647.5078, 977.6243
647.9899, 977.9358
648.4720, 980.1560
648.9542, 982.4454
649.4363, 984.8713
649.9184, 987.0188
650.4005, 988.0328
650.8826, 987.9221
651.3647, 987.6771
651.8469, 987.2884
652.3290, 987.2986
652.8111, 988.9883
653.2932, 992.0204
653.7753, 994.9173
654.2574, 997.0899
654.7396, 998.6494
655.2217, 999.4372
655.7038, 999.4948
656.1859, 999.6066
656.6680, 999.6838
657.1501, 1000.151
657.6323, 1001.395
658.1144, 1003.721
658.5965, 1005.485
659.0786, 1006.659
659.5607, 1007.381
660.0428, 1007.566
660.5250, 1007.167
661.0071, 1007.568
661.4892, 1009.102
661.9713, 1010.775
662.4534, 1010.947
662.9355, 1010.199
663.4177, 1010.205
663.8998, 1011.744
664.3819, 1013.674
664.8640, 1014.957
665.3461, 1015.922
665.8282, 1017.246
666.3104, 1020.557
666.7925, 1022.795
667.2746, 1022.072
667.7567, 1019.044
668.2388, 1017.631
668.7209, 1018.108
669.2031, 1019.850
669.6852, 1023.264
670.1673, 1028.113
670.6494, 1030.585
671.1315, 1030.487
671.6136, 1029.618
672.0958, 1028.755
672.5779, 1028.147
673.0600, 1028.646
673.5421, 1030.306
674.0242, 1032.332
674.5063, 1034.897
674.9885, 1037.086
675.4706, 1037.526
675.9527, 1034.914
676.4348, 1033.473
676.9169, 1035.683
677.3990, 1039.275
677.8812, 1041.761
678.3633, 1042.748
678.8454, 1043.128
679.3275, 1042.700
679.8096, 1041.946
680.2917, 1041.529
680.7739, 1041.417
681.2560, 1042.565
681.7381, 1045.811
682.2202, 1049.771
682.7023, 1051.572
683.1844, 1051.660
683.6666, 1051.728
684.1487, 1053.275
684.6308, 1054.669
685.1129, 1054.081
685.5950, 1051.925
686.0771, 1050.688
686.5593, 1051.864
687.0414, 1053.572
687.5235, 1054.983
688.0056, 1056.043
688.4877, 1057.156
688.9698, 1058.102
689.4520, 1059.464
689.9341, 1062.053
690.4162, 1065.889
690.8983, 1068.116
691.3804, 1068.585
691.8625, 1068.233
692.3447, 1067.098
692.8268, 1066.013
693.3089, 1067.068
693.7910, 1071.205
694.2731, 1075.045
694.7552, 1075.784
695.2374, 1075.087
695.7195, 1074.883
696.2016, 1076.187
696.6837, 1077.316
697.1658, 1077.505
697.6479, 1077.594
698.1301, 1078.921
698.6122, 1081.883
699.0943, 1085.024
699.5764, 1088.391
700.0585, 1091.415
700.5406, 1092.329
701.0228, 1091.354
701.5049, 1090.918
701.9870, 1092.636
702.4691, 1095.043
702.9512, 1095.875
703.4333, 1095.613
703.9155, 1096.047
704.3976, 1099.268
704.8797, 1102.383
705.3618, 1103.409
705.8439, 1102.312
706.3260, 1102.467
706.8082, 1105.278
707.2903, 1108.021
707.7724, 1109.295
708.2545, 1109.003
708.7366, 1109.718
709.2188, 1111.606
709.7009, 1113.693
710.1830, 1115.257
710.6651, 1116.346
711.1472, 1116.767
711.6293, 1116.405
712.1115, 1116.739
712.5936, 1120.209
713.0757, 1124.441
713.5578, 1126.543
714.0399, 1125.073
714.5220, 1123.906
715.0042, 1124.636
715.4863, 1126.016
715.9684, 1126.669
716.4505, 1125.988
716.9326, 1125.960
717.4147, 1126.808
717.8969, 1128.265
718.3790, 1130.326
718.8611, 1132.922
719.3432, 1134.030
719.8253, 1132.481
720.3074, 1130.568
720.7896, 1131.885
721.2717, 1135.214
721.7538, 1137.797
722.2359, 1137.494
722.7180, 1137.023
723.2001, 1137.758
723.6823, 1139.398
724.1644, 1141.029
724.6465, 1142.782
725.1286, 1144.212
725.6107, 1145.199
726.0928, 1145.798
726.5750, 1146.138
727.0571, 1146.172
727.5392, 1146.338
728.0213, 1146.768
728.5034, 1147.526
728.9855, 1149.089
729.4677, 1151.307
729.9498, 1153.097
730.4319, 1153.540
730.9140, 1153.359
731.3961, 1152.538
731.8782, 1151.118
732.3604, 1151.531
732.8425, 1157.136
733.3246, 1162.411
733.8067, 1164.237
734.2888, 1161.845
734.7709, 1160.912
735.2531, 1161.696
735.7352, 1163.254
736.2173, 1165.486
736.6994, 1168.071
737.1815, 1168.331
737.6636, 1165.887
738.1458, 1163.857
738.6279, 1165.832
739.1100, 1169.634
739.5921, 1172.355
740.0742, 1173.034
740.5563, 1174.228
741.0385, 1178.628
741.5206, 1183.100
742.0027, 1184.277
742.4848, 1178.567
742.9669, 1176.623
743.4490, 1180.157
743.9312, 1185.493
744.4133, 1187.476
744.8954, 1186.225
745.3775, 1186.510
745.8596, 1189.439
746.3417, 1193.485
746.8239, 1197.249
747.3060, 1200.617
747.7881, 1203.291
748.2702, 1204.622
748.7523, 1206.028
749.2344, 1208.321
749.7166, 1211.144
750.1987, 1213.757
750.6808, 1215.494
751.1629, 1218.018
751.6450, 1221.821
752.1271, 1226.377
752.6093, 1230.337
753.0914, 1233.686
753.5735, 1236.924
754.0556, 1240.068
754.5377, 1243.256
755.0198, 1246.436
755.5020, 1249.762
755.9841, 1253.640
756.4662, 1259.131
756.9483, 1264.426
757.4304, 1268.274
757.9125, 1270.965
758.3947, 1274.012
758.8768, 1277.614
759.3589, 1281.644
759.8410, 1286.188
760.3231, 1291.129
760.8052, 1296.061
761.2874, 1301.072
761.7695, 1305.457
762.2516, 1308.386
762.7337, 1310.787
763.2158, 1314.731
763.6979, 1320.137
764.1801, 1326.308
764.6622, 1333.678
765.1443, 1340.972
765.6264, 1347.244
766.1085, 1352.475
766.5906, 1357.494
767.0728, 1362.702
767.5549, 1367.365
768.0370, 1370.810
768.5191, 1373.080
769.0012, 1377.097
769.4833, 1383.150
769.9655, 1388.979
770.4476, 1393.192
770.9297, 1396.094
771.4118, 1398.439
771.8939, 1400.266
772.3760, 1401.590
772.8582, 1402.291
773.3403, 1402.600
773.8224, 1402.774
774.3045, 1402.897
774.7866, 1402.287
775.2687, 1399.924
775.7509, 1397.754
776.2330, 1397.097
776.7151, 1398.270
777.1972, 1397.327
777.6793, 1394.011
778.1614, 1389.865
778.6436, 1386.553
779.1257, 1383.332
779.6078, 1377.969
780.0899, 1370.213
780.5720, 1363.104
781.0541, 1359.936
781.5363, 1357.394
782.0184, 1352.289
782.5005, 1342.898
782.9826, 1336.111
783.4647, 1333.831
783.9468, 1332.756
784.4290, 1330.835
784.9111, 1328.034
785.3932, 1324.376
785.8753, 1319.701
786.3574, 1315.167
786.8395, 1312.214
787.3217, 1310.179
787.8038, 1307.422
788.2859, 1303.634
788.7680, 1300.348
789.2501, 1298.858
789.7322, 1298.076
790.2144, 1297.027
790.6965, 1295.313
791.1786, 1294.004
791.6607, 1293.308
792.1428, 1292.826
792.6249, 1292.205
793.1071, 1291.439
793.5892, 1290.768
794.0713, 1290.137
794.5534, 1290.088
795.0355, 1291.898
795.5176, 1294.453
795.9998, 1295.750
796.4819, 1295.219
796.9640, 1294.444
797.4461, 1293.657
797.9282, 1293.292
798.4103, 1293.859
798.8925, 1296.193
799.3746, 1297.625
799.8567, 1297.977
800.3388, 1297.702
800.8209, 1296.816
801.3030, 1295.464
801.7852, 1295.573
802.2673, 1297.491
802.7494, 1299.959
803.2315, 1301.846
803.7136, 1303.427
804.1957, 1304.965
804.6779, 1306.387
805.1600, 1308.233
805.6421, 1311.603
806.1242, 1314.849
806.6063, 1316.488
807.0884, 1315.766
807.5706, 1315.294
808.0527, 1314.926
808.5348, 1315.172
809.0169, 1317.447
809.4990, 1320.971
809.9811, 1322.138
810.4633, 1320.250
810.9454, 1317.699
811.4275, 1315.677
811.9096, 1314.492
812.3917, 1314.602
812.8738, 1316.539
813.3560, 1318.611
813.8381, 1320.904
814.3202, 1322.951
814.8023, 1324.347
815.2844, 1324.989
815.7665, 1325.395
816.2487, 1325.467
816.7308, 1325.784
817.2129, 1327.433
817.6950, 1329.678
818.1771, 1330.755
818.6592, 1330.245
819.1414, 1329.791
819.6235, 1330.614
820.1056, 1331.788
820.5877, 1332.345
821.0698, 1331.112
821.5519, 1332.267
822.0341, 1337.310
822.5162, 1342.603
822.9983, 1344.977
823.4804, 1344.580
823.9625, 1345.137
824.4446, 1346.904
824.9268, 1348.761
825.4089, 1349.622
825.8910, 1349.949
826.3731, 1350.075
826.8552, 1349.906
827.3373, 1350.595
827.8195, 1354.455
828.3016, 1357.702
828.7837, 1357.340
829.2658, 1352.051
829.7479, 1350.777
830.2300, 1354.481
830.7122, 1359.099
831.1943, 1361.248
831.6764, 1361.692
832.1585, 1362.945
832.6406, 1365.125
833.1227, 1366.890
833.6049, 1367.090
834.0870, 1366.627
834.5691, 1365.984
835.0512, 1365.119
835.5333, 1365.035
836.0154, 1366.152
836.4976, 1367.489
836.9797, 1368.322
837.4618, 1368.690
837.9439, 1370.791
838.4260, 1374.693
838.9081, 1378.210
839.3903, 1379.630
839.8724, 1379.802
840.3545, 1379.252
840.8366, 1378.215
841.3187, 1378.488
841.8008, 1382.695
842.2830, 1386.706
842.7651, 1388.149
843.2472, 1387.273
843.7293, 1387.780
844.2114, 1390.340
844.6935, 1392.054
845.1757, 1390.741
845.6578, 1387.834
846.1399, 1387.790
846.6220, 1390.209
847.1041, 1392.831
847.5862, 1394.279
848.0684, 1395.503
848.5505, 1397.385
849.0326, 1399.685
849.5147, 1401.145
849.9968, 1400.850
850.4789, 1400.844
850.9611, 1401.752
851.4432, 1403.276
851.9253, 1404.323
852.4074, 1404.916
852.8895, 1405.756
853.3716, 1407.260
853.8538, 1408.994
854.3359, 1410.614
854.8180, 1412.045
855.3001, 1413.084
855.7822, 1413.128
856.2643, 1413.404
856.7465, 1414.666
857.2286, 1416.227
857.7107, 1416.492
858.1928, 1414.894
858.6749, 1414.884
859.1570, 1417.499
859.6392, 1421.345
860.1213, 1424.803
860.6034, 1427.617
861.0855, 1429.037
861.5676, 1428.258
862.0497, 1427.180
862.5319, 1426.265
863.0140, 1425.891
863.4961, 1426.712
863.9782, 1429.599
864.4603, 1431.801
864.9424, 1432.827
865.4246, 1433.807
865.9067, 1436.747
866.3888, 1441.087
866.8709, 1443.811
867.3530, 1444.245
867.8351, 1444.148
868.3173, 1444.769
868.7994, 1445.771
869.2815, 1446.758
869.7636, 1447.494
870.2457, 1448.750
870.7278, 1451.058
871.2100, 1453.318
871.6921, 1454.641
872.1742, 1454.984
872.6563, 1455.381
873.1384, 1455.824
873.6205, 1456.668
874.1027, 1458.487
874.5848, 1460.749
875.0669, 1462.951
875.5490, 1465.021
876.0311, 1466.421
876.5132, 1466.352
876.9954, 1466.143
877.4775, 1466.381
877.9596, 1467.061
878.4417, 1468.042
878.9238, 1469.428
879.4059, 1470.520
879.8881, 1470.809
880.3702, 1470.591
880.8523, 1469.899
881.3344, 1469.065
881.8165, 1469.517
882.2986, 1473.076
882.7808, 1476.982
883.2629, 1480.412
883.7450, 1483.106
884.2271, 1484.089
884.7092, 1482.489
885.1913, 1481.724
885.6735, 1482.937
886.1556, 1485.141
886.6377, 1486.334
887.1198, 1486.695
887.6019, 1486.830
888.0840, 1486.227
888.5662, 1486.649
889.0483, 1490.490
889.5304, 1495.721
890.0125, 1499.038
890.4946, 1499.365
890.9767, 1499.114
891.4589, 1498.086
891.9410, 1497.085
892.4231, 1496.925
892.9052, 1497.659
893.3873, 1500.039
893.8694, 1504.538
894.3516, 1508.362
894.8337, 1507.512
895.3158, 1505.676
895.7979, 1506.954
896.2800, 1513.507
896.7621, 1517.937
897.2443, 1518.456
897.7264, 1518.456
898.2085, 1520.671
898.6906, 1524.953
899.1727, 1526.140
899.6548, 1524.208
900.1370, 1522.239
900.6191, 1522.421
901.1012, 1523.873
901.5833, 1526.090
902.0654, 1528.909
902.5475, 1531.338
903.0297, 1532.898
903.5118, 1534.256
903.9939, 1535.634
904.4760, 1536.945
904.9581, 1537.465
905.4402, 1537.160
905.9224, 1538.010
906.4045, 1541.899
906.8866, 1546.120
907.3687, 1546.662
907.8508, 1544.964
908.3329, 1544.217
908.8151, 1546.382
909.2972, 1548.586
909.7793, 1550.373
910.2614, 1551.823
910.7435, 1553.104
911.2256, 1554.257
911.7078, 1554.772
912.1899, 1554.411
912.6720, 1554.073
913.1541, 1554.597
913.6362, 1555.950
914.1183, 1558.228
914.6005, 1561.727
915.0826, 1565.105
915.5647, 1568.272
916.0468, 1570.840
916.5289, 1572.498
917.0110, 1573.150
917.4932, 1573.199
917.9753, 1572.483
918.4574, 1572.342
918.9395, 1574.039
919.4216, 1576.862
919.9037, 1580.313
920.3859, 1584.165
920.8680, 1586.721
921.3501, 1586.232
921.8322, 1585.417
922.3143, 1585.047
922.7964, 1585.273
923.2786, 1587.464
923.7607, 1592.164
924.2428, 1594.423
924.7249, 1591.048
925.2070, 1586.047
925.6891, 1585.880
926.1713, 1589.145
926.6534, 1592.740
927.1355, 1596.338
927.6176, 1599.015
928.0997, 1599.857
928.5818, 1599.969
929.0640, 1600.549
929.5461, 1601.514
930.0282, 1603.669
930.5103, 1607.376
930.9924, 1610.935
931.4745, 1612.056
931.9567, 1611.811
932.4388, 1611.743
932.9209, 1612.035
933.4030, 1613.087
933.8851, 1615.949
934.3672, 1618.861
934.8494, 1620.784
935.3315, 1621.719
935.8136, 1622.289
936.2957, 1622.412
936.7778, 1622.924
937.2599, 1624.881
937.7421, 1627.236
938.2242, 1628.103
938.7063, 1627.862
939.1884, 1628.065
939.6705, 1628.860
940.1526, 1630.815
940.6348, 1634.957
941.1169, 1639.983
941.5990, 1642.616
942.0811, 1642.608
942.5632, 1643.324
943.0453, 1645.842
943.5275, 1648.601
944.0096, 1649.210
944.4917, 1648.927
944.9738, 1649.861
945.4559, 1653.136
945.9380, 1656.185
946.4202, 1657.953
946.9023, 1659.676
947.3844, 1662.409
947.8665, 1666.301
948.3486, 1669.104
948.8307, 1670.737
949.3129, 1671.927
949.7950, 1672.995
950.2771, 1674.093
950.7592, 1675.361
951.2413, 1676.810
951.7234, 1678.436
952.2056, 1680.607
952.6877, 1682.521
953.1698, 1683.675
953.6519, 1684.558
954.1340, 1687.325
954.6161, 1691.882
955.0983, 1695.024
955.5804, 1694.967
956.0625, 1694.351
956.5446, 1695.197
957.0267, 1697.438
957.5089, 1701.002
957.9910, 1708.359
958.4731, 1713.045
958.9552, 1713.794
959.4373, 1713.210
959.9194, 1713.402
960.4016, 1714.422
960.8837, 1717.596
961.3658, 1723.015
961.8479, 1727.670
962.3300, 1728.093
962.8121, 1727.539
963.2943, 1728.836
963.7764, 1732.209
964.2585, 1734.768
964.7406, 1736.109
965.2227, 1737.184
965.7048, 1738.105
966.1870, 1739.241
966.6691, 1742.339
967.1512, 1746.800
967.6333, 1749.842
968.1154, 1748.683
968.5975, 1748.063
969.0797, 1751.716
969.5618, 1757.261
970.0439, 1760.972
970.5260, 1761.745
971.0081, 1763.294
971.4902, 1765.912
971.9724, 1768.961
972.4545, 1771.635
972.9366, 1774.186
973.4187, 1777.180
973.9008, 1780.656
974.3829, 1784.166
974.8651, 1787.723
975.3472, 1790.946
975.8293, 1793.506
976.3114, 1795.500
976.7935, 1797.818
977.2756, 1800.425
977.7578, 1803.791
978.2399, 1808.341
978.7220, 1813.533
979.2041, 1818.868
979.6862, 1824.104
980.1683, 1828.679
980.6505, 1830.654
981.1326, 1834.457
981.6147, 1842.563
982.0968, 1851.286
982.5789, 1855.843
983.0610, 1856.191
983.5432, 1858.498
984.0253, 1863.391
984.5074, 1869.091
984.9895, 1874.300
985.4716, 1879.380
985.9537, 1884.769
986.4359, 1890.516
986.9180, 1896.004
987.4001, 1901.454
987.8822, 1906.136
988.3643, 1909.156
988.8464, 1911.583
989.3286, 1917.204
989.8107, 1925.455
990.2928, 1933.531
990.7749, 1940.836
991.2570, 1946.841
991.7391, 1951.343
992.2213, 1954.232
992.7034, 1955.388
993.1855, 1954.246
993.6676, 1953.036
994.1497, 1951.812
994.6318, 1950.504
995.1140, 1950.375
995.5961, 1949.687
996.0782, 1943.901
996.5603, 1932.867
997.0424, 1922.134
997.5245, 1913.997
998.0067, 1907.007
998.4888, 1900.692
998.9709, 1894.944
999.4530, 1888.750
999.9351, 1882.048
1000.417, 1876.972
1000.899, 1874.685
1001.381, 1873.451
1001.864, 1871.140
1002.346, 1868.445
1002.828, 1866.540
1003.310, 1866.807
1003.792, 1865.759
1004.274, 1861.942
1004.756, 1858.552
1005.238, 1859.145
1005.721, 1862.950
1006.203, 1863.457
1006.685, 1860.672
1007.167, 1858.461
1007.649, 1859.993
1008.131, 1862.495
1008.613, 1864.057
1009.095, 1864.846
1009.577, 1866.385
1010.060, 1868.871
1010.542, 1871.414
1011.024, 1873.807
1011.506, 1876.086
1011.988, 1878.755
1012.470, 1881.266
1012.952, 1882.149
1013.434, 1880.348
1013.917, 1879.239
1014.399, 1880.808
1014.881, 1882.948
1015.363, 1884.412
1015.845, 1885.211
1016.327, 1885.330
1016.809, 1884.773
1017.291, 1884.810
1017.773, 1887.724
1018.256, 1890.471
1018.738, 1889.009
1019.220, 1884.933
1019.702, 1882.984
1020.184, 1885.484
1020.666, 1887.698
1021.148, 1889.040
1021.630, 1889.938
1022.112, 1890.511
1022.595, 1891.131
1023.077, 1893.465
1023.559, 1897.929
1024.041, 1901.876
1024.523, 1903.891
1025.005, 1904.613
1025.487, 1903.790
1025.969, 1901.665
1026.452, 1901.967
1026.934, 1904.998
1027.416, 1907.950
1027.898, 1909.576
1028.380, 1910.498
1028.862, 1910.708
1029.344, 1911.052
1029.826, 1913.135
1030.308, 1920.394
1030.791, 1925.108
1031.273, 1925.983
1031.755, 1925.196
1032.237, 1924.648
1032.719, 1924.281
1033.201, 1923.005
1033.683, 1920.907
1034.165, 1921.018
1034.647, 1927.928
1035.130, 1935.390
1035.612, 1938.808
1036.094, 1938.993
1036.576, 1941.449
1037.058, 1946.955
1037.540, 1950.999
1038.022, 1952.196
1038.504, 1952.106
1038.987, 1952.428
1039.469, 1953.154
1039.951, 1954.360
1040.433, 1956.199
1040.915, 1957.912
1041.397, 1958.979
1041.879, 1960.306
1042.361, 1963.028
1042.844, 1966.624
1043.326, 1965.745
1043.808, 1961.116
1044.290, 1959.243
1044.772, 1967.787
1045.254, 1975.985
1045.736, 1975.218
1046.218, 1969.914
1046.700, 1969.262
1047.183, 1975.454
1047.665, 1979.560
1048.147, 1980.440
1048.629, 1980.554
1049.111, 1982.730
1049.593, 1985.732
1050.075, 1987.133
1050.557, 1986.815
1051.040, 1987.862
1051.522, 1993.505
1052.004, 1997.768
1052.486, 1998.059
1052.968, 1996.252
1053.450, 1998.228
1053.932, 2003.312
1054.414, 2007.526
1054.896, 2009.702
1055.379, 2010.712
1055.861, 2009.260
1056.343, 2008.236
1056.825, 2011.117
1057.307, 2018.940
1057.789, 2024.336
1058.271, 2027.035
1058.753, 2028.988
1059.235, 2031.989
1059.718, 2034.653
1060.200, 2034.413
1060.682, 2032.092
1061.164, 2030.029
1061.646, 2027.071
1062.128, 2027.295
1062.610, 2032.032
1063.092, 2038.729
1063.574, 2044.769
1064.057, 2050.066
1064.539, 2054.303
1065.021, 2057.469
1065.503, 2059.439
1065.985, 2059.374
1066.467, 2058.894
1066.949, 2058.506
1067.431, 2058.526
1067.914, 2060.451
1068.396, 2064.447
1068.878, 2069.003
1069.360, 2073.995
1069.842, 2078.697
1070.324, 2081.822
1070.806, 2084.360
1071.288, 2087.708
1071.771, 2092.849
1072.253, 2096.167
1072.735, 2096.507
1073.217, 2097.193
1073.699, 2100.487
1074.181, 2105.502
1074.663, 2110.156
1075.145, 2114.364
1075.627, 2117.697
1076.110, 2119.941
1076.592, 2121.347
1077.074, 2121.376
1077.556, 2121.107
1078.038, 2121.595
1078.520, 2122.856
1079.002, 2125.503
1079.484, 2129.606
1079.967, 2133.069
1080.449, 2132.715
1080.931, 2132.342
1081.413, 2135.779
1081.895, 2142.302
1082.377, 2145.754
1082.859, 2144.960
1083.341, 2145.633
1083.823, 2149.352
1084.306, 2154.311
1084.788, 2159.034
1085.270, 2162.860
1085.752, 2163.939
1086.234, 2161.033
1086.716, 2160.958
1087.198, 2166.812
1087.680, 2172.320
1088.162, 2173.754
1088.645, 2173.122
1089.127, 2178.511
1089.609, 2188.191
1090.091, 2195.352
1090.573, 2195.422
1091.055, 2195.324
1091.537, 2197.948
1092.019, 2202.024
1092.501, 2206.120
1092.984, 2210.113
1093.466, 2216.655
1093.948, 2225.871
1094.430, 2233.110
1094.912, 2232.956
1095.394, 2231.480
1095.876, 2234.513
1096.358, 2240.380
1096.841, 2243.270
1097.323, 2241.407
1097.805, 2241.631
1098.287, 2245.375
1098.769, 2249.312
1099.251, 2249.358
1099.733, 2247.157
1100.215, 2245.053
1100.698, 2243.281
1101.180, 2241.540
1101.662, 2240.204
1102.144, 2237.938
1102.626, 2233.462
1103.108, 2228.669
1103.590, 2229.672
1104.072, 2234.241
1104.554, 2234.939
1105.037, 2228.571
1105.519, 2222.750
1106.001, 2221.883
1106.483, 2222.254
1106.965, 2221.008
1107.447, 2218.480
1107.929, 2219.780
1108.411, 2224.700
1108.894, 2229.667
1109.376, 2232.904
1109.858, 2235.547
1110.340, 2237.538
1110.822, 2239.863
1111.304, 2244.227
1111.786, 2251.651
1112.268, 2257.452
1112.750, 2261.534
1113.233, 2263.968
1113.715, 2264.958
1114.197, 2264.234
1114.679, 2261.388
1115.161, 2256.543
1115.643, 2250.029
1116.125, 2240.582
1116.607, 2232.098
1117.089, 2225.136
1117.572, 2219.214
1118.054, 2213.423
1118.536, 2208.317
1119.018, 2205.218
1119.500, 2204.223
1119.982, 2204.063
1120.464, 2204.821
1120.946, 2205.729
1121.428, 2206.946
1121.911, 2207.770
1122.393, 2204.942
1122.875, 2199.930
1123.357, 2200.317
1123.839, 2209.301
1124.321, 2216.536
1124.803, 2214.079
1125.285, 2209.410
1125.768, 2207.348
1126.250, 2207.702
1126.732, 2208.666
1127.214, 2210.225
1127.696, 2211.699
1128.178, 2212.833
1128.660, 2213.785
1129.142, 2214.411
1129.625, 2215.100
1130.107, 2216.422
1130.589, 2218.623
1131.071, 2220.545
1131.553, 2222.275
1132.035, 2223.149
1132.517, 2221.363
1132.999, 2219.511
1133.481, 2221.751
1133.964, 2226.179
1134.446, 2228.250
1134.928, 2224.421
1135.410, 2224.322
1135.892, 2229.611
1136.374, 2235.097
1136.856, 2234.504
1137.338, 2231.112
1137.821, 2230.814
1138.303, 2233.381
1138.785, 2235.488
1139.267, 2235.359
1139.749, 2235.764
1140.231, 2237.446
1140.713, 2239.477
1141.195, 2239.777
1141.677, 2239.406
1142.160, 2242.151
1142.642, 2248.554
1143.124, 2253.242
1143.606, 2252.980
1144.088, 2250.976
1144.570, 2247.265
1145.052, 2243.515
1145.534, 2245.175
1146.016, 2251.315
1146.499, 2257.238
1146.981, 2262.104
1147.463, 2265.052
1147.945, 2263.797
1148.427, 2262.042
1148.909, 2262.418
1149.391, 2264.649
1149.873, 2266.172
1150.355, 2267.050
1150.838, 2267.694
1151.320, 2268.210
1151.802, 2268.737
1152.284, 2268.751
1152.766, 2269.258
1153.248, 2271.684
1153.730, 2276.407
1154.212, 2279.308
1154.695, 2280.256
1155.177, 2280.882
1155.659, 2281.965
1156.141, 2283.315
1156.623, 2284.255
1157.105, 2285.456
1157.587, 2288.538
1158.069, 2295.363
1158.552, 2298.032
1159.034, 2295.684
1159.516, 2293.353
1159.998, 2296.322
1160.480, 2300.647
1160.962, 2300.868
1161.444, 2298.184
1161.926, 2296.982
1162.408, 2298.512
1162.891, 2300.067
1163.373, 2301.284
1163.855, 2302.894
1164.337, 2307.158
1164.819, 2311.600
1165.301, 2310.835
1165.783, 2305.570
1166.265, 2303.412
1166.748, 2309.281
1167.230, 2312.770
1167.712, 2311.175
1168.194, 2308.333
1168.676, 2310.387
1169.158, 2315.214
1169.640, 2318.404
1170.122, 2319.438
1170.604, 2320.249
1171.087, 2321.386
1171.569, 2322.331
1172.051, 2322.507
1172.533, 2322.922
1173.015, 2326.037
1173.497, 2331.082
1173.979, 2336.290
1174.461, 2341.549
1174.943, 2345.357
1175.426, 2345.835
1175.908, 2346.173
1176.390, 2347.767
1176.872, 2350.059
1177.354, 2351.440
1177.836, 2351.963
1178.318, 2351.455
1178.800, 2348.835
1179.282, 2348.378
1179.765, 2354.920
1180.247, 2361.291
1180.729, 2362.935
1181.211, 2360.862
1181.693, 2360.974
1182.175, 2362.813
1182.657, 2363.824
1183.139, 2362.300
1183.622, 2361.011
1184.104, 2361.194
1184.586, 2362.332
1185.068, 2364.130
1185.550, 2366.585
1186.032, 2369.542
1186.514, 2372.909
1186.996, 2375.642
1187.479, 2375.997
1187.961, 2376.938
1188.443, 2380.349
1188.925, 2384.776
1189.407, 2389.199
1189.889, 2393.645
1190.371, 2394.886
1190.853, 2393.020
1191.335, 2391.454
1191.818, 2392.251
1192.300, 2393.993
1192.782, 2395.855
1193.264, 2398.185
1193.746, 2401.875
1194.228, 2407.031
1194.710, 2410.492
1195.192, 2412.052
1195.675, 2412.897
1196.157, 2413.295
1196.639, 2413.839
1197.121, 2415.081
1197.603, 2416.721
1198.085, 2418.169
1198.567, 2419.462
1199.049, 2420.002
1199.531, 2419.670
1200.014, 2420.447
1200.496, 2426.151
1200.978, 2431.451
1201.460, 2431.515
1201.942, 2428.316
1202.424, 2427.613
1202.906, 2429.474
1203.388, 2432.112
1203.870, 2435.306
1204.353, 2438.592
1204.835, 2442.170
1205.317, 2445.108
1205.799, 2445.964
1206.281, 2448.163
1206.763, 2449.309
1207.245, 2449.368
1207.727, 2450.496
1208.209, 2448.872
1208.692, 2447.566
1209.174, 2449.482
1209.656, 2452.672
1210.138, 2456.014
1210.620, 2459.259
1211.102, 2461.539
1211.584, 2462.827
1212.066, 2462.934
1212.549, 2461.296
1213.031, 2460.456
1213.513, 2463.693
1213.995, 2467.817
1214.477, 2469.733
1214.959, 2469.741
1215.441, 2471.234
1215.923, 2474.248
1216.406, 2476.827
1216.888, 2478.265
1217.370, 2479.322
1217.852, 2479.964
1218.334, 2481.066
1218.816, 2483.580
1219.298, 2487.451
1219.780, 2491.687
1220.262, 2496.279
1220.745, 2499.125
1221.227, 2498.911
1221.709, 2498.029
1222.191, 2497.586
1222.673, 2497.966
1223.155, 2499.680
1223.637, 2502.667
1224.119, 2504.921
1224.602, 2506.513
1225.084, 2509.415
1225.566, 2515.735
1226.048, 2521.273
1226.530, 2522.330
1227.012, 2521.668
1227.494, 2522.382
1227.976, 2522.239
1228.458, 2524.242
1228.941, 2521.794
1229.423, 2519.844
1229.905, 2519.112
1230.387, 2520.064
1230.869, 2524.086
1231.351, 2529.152
1231.833, 2533.749
1232.315, 2537.854
1232.797, 2538.269
1233.280, 2535.514
1233.762, 2534.415
1234.244, 2539.163
1234.726, 2544.054
1235.208, 2546.704
1235.690, 2547.736
1236.172, 2547.362
1236.654, 2545.687
1237.136, 2544.364
1237.619, 2543.579
1238.101, 2544.372
1238.583, 2549.604
1239.065, 2553.684
1239.547, 2552.757
1240.029, 2551.289
1240.511, 2553.691
1240.993, 2559.385
1241.476, 2563.721
1241.958, 2566.629
1242.440, 2568.229
1242.922, 2565.706
1243.404, 2565.833
1243.886, 2572.518
1244.368, 2579.940
1244.850, 2581.477
1245.333, 2578.760
1245.815, 2579.271
1246.297, 2582.674
1246.779, 2586.373
1247.261, 2589.481
1247.743, 2592.336
1248.225, 2595.355
1248.707, 2597.656
1249.189, 2598.099
1249.672, 2597.218
1250.154, 2596.203
1250.636, 2595.261
1251.118, 2594.964
1251.600, 2595.325
1252.082, 2597.102
1252.564, 2601.192
1253.046, 2605.032
1253.529, 2604.680
1254.011, 2602.758
1254.493, 2605.282
1254.975, 2611.229
1255.457, 2615.175
1255.939, 2613.687
1256.421, 2613.411
1256.903, 2614.864
1257.385, 2617.628
1257.868, 2622.361
1258.350, 2627.495
1258.832, 2631.140
1259.314, 2633.154
1259.796, 2632.948
1260.278, 2628.540
1260.760, 2628.010
1261.242, 2632.724
1261.724, 2638.354
1262.207, 2640.426
1262.689, 2641.557
1263.171, 2645.294
1263.653, 2650.604
1264.135, 2653.346
1264.617, 2652.698
1265.099, 2652.992
1265.581, 2654.698
1266.063, 2656.573
1266.546, 2657.782
1267.028, 2658.454
1267.510, 2657.549
1267.992, 2656.492
1268.474, 2658.941
1268.956, 2665.223
1269.438, 2671.116
1269.920, 2676.289
1270.403, 2680.239
1270.885, 2681.499
1271.367, 2682.501
1271.849, 2684.341
1272.331, 2687.139
1272.813, 2692.349
1273.295, 2699.521
1273.777, 2700.963
1274.260, 2696.344
1274.742, 2692.281
1275.224, 2693.669
1275.706, 2695.337
1276.188, 2695.375
1276.670, 2694.582
1277.152, 2693.509
1277.634, 2692.589
1278.116, 2694.360
1278.599, 2698.624
1279.081, 2701.681
1279.563, 2699.959
1280.045, 2699.840
1280.527, 2703.255
1281.009, 2707.620
1281.491, 2709.492
1281.973, 2709.884
1282.456, 2710.788
1282.938, 2712.293
1283.420, 2714.085
1283.902, 2715.948
1284.384, 2718.374
1284.866, 2721.581
1285.348, 2724.698
1285.830, 2726.059
1286.313, 2727.108
1286.795, 2730.114
1287.277, 2734.635
1287.759, 2738.141
1288.241, 2739.876
1288.723, 2742.807
1289.205, 2747.425
1289.687, 2751.887
1290.169, 2754.468
1290.651, 2756.364
1291.134, 2759.055
1291.616, 2761.809
1292.098, 2762.449
1292.580, 2760.696
1293.062, 2759.998
1293.544, 2760.630
1294.026, 2762.573
1294.508, 2767.550
1294.990, 2772.010
1295.473, 2773.533
1295.955, 2773.497
1296.437, 2772.860
1296.919, 2771.989
1297.401, 2774.405
1297.883, 2780.069
1298.365, 2785.891
1298.847, 2791.181
1299.330, 2795.084
1299.812, 2796.689
1300.294, 2797.832
1300.776, 2801.613
1301.258, 2806.647
1301.740, 2808.562
1302.222, 2807.967
1302.704, 2808.682
1303.187, 2814.083
1303.669, 2817.087
1304.151, 2817.059
##END=



