##NAMES=Marialite
##RRUFFID=R060297
##IDEAL CHEMISTRY=Na_4_Al_3_Si_9_O_24_Cl
##LOCALITY=Morogoro District, Marasi, Tanzania
##OWNER=RRUFF
##SOURCE=Herb Obodda
##DESCRIPTION=Pale yellow crystal fragment
##STATUS=The identification of this mineral has been confirmed by X-ray diffraction and chemical analysis
##URL=rruff.info/R060297
##MEASURED CHEMISTRY=(Na_0.66_Ca_0.29_K_0.06_)_4_(Si_0.68_Al_0.32_)_12_O_24_(Cl_0.70_(CO_3_)_0.30_)
92.20605, 161.1596
92.68817, 157.1608
93.17029, 156.4660
93.65240, 159.3269
94.13452, 163.8091
94.61664, 167.9008
95.09875, 171.0990
95.58087, 173.5615
96.06299, 175.2306
96.54510, 176.0112
97.02722, 176.1074
97.50933, 175.4919
97.99145, 174.4649
98.47356, 173.4337
98.95568, 172.6215
99.43780, 171.7924
99.91991, 170.1418
100.4020, 166.8977
100.8841, 163.8161
101.3663, 161.6381
101.8484, 160.2888
102.3305, 159.1757
102.8126, 157.6501
103.2947, 155.4903
103.7768, 154.0897
104.2590, 154.0704
104.7411, 154.4889
105.2232, 154.2897
105.7053, 153.1588
106.1874, 151.7550
106.6695, 150.9346
107.1517, 150.6369
107.6338, 150.3377
108.1159, 149.7179
108.5980, 148.8556
109.0801, 148.1486
109.5622, 147.6098
110.0444, 147.3622
110.5265, 147.5595
111.0086, 148.2222
111.4907, 149.0049
111.9728, 149.4712
112.4549, 149.4670
112.9371, 149.6734
113.4192, 150.2952
113.9013, 151.1055
114.3834, 151.9485
114.8655, 152.7604
115.3476, 153.6007
115.8298, 154.6082
116.3119, 155.7771
116.7940, 157.1796
117.2761, 158.8430
117.7582, 160.7309
118.2403, 162.8218
118.7225, 165.1216
119.2046, 167.6136
119.6867, 170.0515
120.1688, 172.5331
120.6509, 174.8828
121.1330, 176.8832
121.6152, 178.6348
122.0973, 180.5345
122.5794, 182.9186
123.0615, 185.7947
123.5436, 188.5399
124.0257, 191.2236
124.5079, 193.7419
124.9900, 196.0704
125.4721, 198.2603
125.9542, 199.9654
126.4363, 200.5169
126.9184, 200.2865
127.4006, 200.0291
127.8827, 200.2228
128.3648, 200.6287
128.8469, 200.4913
129.3290, 199.5703
129.8111, 198.2934
130.2932, 197.0108
130.7754, 195.6712
131.2575, 194.0936
131.7396, 192.0254
132.2217, 189.3961
132.7038, 186.9297
133.1859, 184.7472
133.6681, 182.6514
134.1502, 180.5880
134.6323, 178.5385
135.1144, 176.5171
135.5965, 174.5322
136.0786, 172.5841
136.5608, 170.6583
137.0429, 168.8291
137.5250, 166.9716
138.0071, 164.9226
138.4892, 162.6512
138.9713, 160.3466
139.4535, 158.4556
139.9356, 157.5331
140.4177, 156.2484
140.8998, 154.2821
141.3819, 151.9650
141.8640, 149.7148
142.3462, 147.7090
142.8283, 145.9119
143.3104, 144.2605
143.7925, 142.7813
144.2746, 141.3620
144.7567, 139.9191
145.2388, 138.4850
145.7210, 137.2056
146.2031, 136.2480
146.6852, 135.4362
147.1673, 134.4027
147.6494, 133.0230
148.1315, 131.5893
148.6137, 130.2848
149.0958, 129.0779
149.5779, 128.2198
150.0600, 128.0619
150.5421, 128.2424
151.0242, 128.4761
151.5064, 128.6934
151.9885, 128.8813
152.4706, 128.9712
152.9527, 128.8049
153.4348, 128.8600
153.9169, 129.4476
154.3991, 130.2541
154.8812, 130.8855
155.3633, 131.0889
155.8454, 130.9522
156.3275, 131.0064
156.8096, 131.3012
157.2918, 131.7712
157.7739, 132.5029
158.2560, 133.3958
158.7381, 134.3098
159.2202, 135.1642
159.7023, 135.9652
160.1845, 136.4334
160.6666, 136.3954
161.1487, 136.2468
161.6308, 136.2697
162.1129, 136.3556
162.5950, 136.1002
163.0772, 135.1007
163.5593, 133.2259
164.0414, 131.5821
164.5235, 130.4618
165.0056, 129.3422
165.4877, 127.8104
165.9698, 125.8405
166.4520, 123.8072
166.9341, 122.0675
167.4162, 120.6322
167.8983, 119.2986
168.3804, 118.1821
168.8625, 117.0971
169.3447, 115.7921
169.8268, 114.2011
170.3089, 112.5282
170.7910, 110.9389
171.2731, 109.4285
171.7552, 108.0179
172.2374, 106.6883
172.7195, 105.4664
173.2016, 104.4294
173.6837, 103.5927
174.1658, 102.9598
174.6479, 102.5417
175.1301, 102.3008
175.6122, 102.0911
176.0943, 101.8713
176.5764, 101.6348
177.0585, 101.2037
177.5406, 100.1874
178.0228, 99.33340
178.5049, 99.01402
178.9870, 99.19749
179.4691, 99.64157
179.9512, 100.1760
180.4333, 100.8486
180.9155, 101.3921
181.3976, 101.8492
181.8797, 102.1498
182.3618, 102.0218
182.8439, 101.5763
183.3260, 101.3217
183.8082, 101.9965
184.2903, 104.2652
184.7724, 105.7043
185.2545, 105.6845
185.7366, 105.4751
186.2187, 105.9842
186.7009, 107.3302
187.1830, 108.8898
187.6651, 109.7484
188.1472, 109.4294
188.6293, 109.3494
189.1114, 109.5720
189.5936, 109.9842
190.0757, 110.5834
190.5578, 111.3553
191.0399, 112.0995
191.5220, 112.4675
192.0041, 112.3089
192.4863, 112.1816
192.9684, 112.2089
193.4505, 112.2766
193.9326, 112.2263
194.4147, 112.0009
194.8968, 111.6934
195.3790, 111.4483
195.8611, 111.2631
196.3432, 111.0975
196.8253, 110.9803
197.3074, 110.8717
197.7895, 110.6736
198.2717, 110.3331
198.7538, 109.9392
199.2359, 109.6034
199.7180, 109.3223
200.2001, 109.0603
200.6822, 108.7601
201.1644, 108.4470
201.6465, 108.2588
202.1286, 108.2896
202.6107, 108.3910
203.0928, 108.4078
203.5749, 108.3410
204.0571, 108.2987
204.5392, 108.4269
205.0213, 108.7221
205.5034, 108.8392
205.9855, 108.4495
206.4676, 108.0939
206.9497, 108.1650
207.4319, 108.6568
207.9140, 109.2204
208.3961, 109.5204
208.8782, 109.5300
209.3603, 109.4411
209.8424, 108.9802
210.3246, 108.6401
210.8067, 108.7010
211.2888, 109.1745
211.7709, 109.8572
212.2530, 110.4599
212.7351, 110.8158
213.2173, 111.6307
213.6994, 113.8749
214.1815, 115.8115
214.6636, 116.1700
215.1457, 114.9549
215.6278, 113.3393
216.1100, 112.8631
216.5921, 114.0248
217.0742, 115.1704
217.5563, 116.4877
218.0384, 117.6639
218.5205, 118.4560
219.0027, 118.8492
219.4848, 119.0601
219.9669, 119.3735
220.4490, 119.8647
220.9311, 120.2708
221.4132, 120.5227
221.8954, 120.7481
222.3775, 121.0523
222.8596, 121.4493
223.3417, 121.8597
223.8238, 122.1649
224.3059, 122.2581
224.7881, 122.5750
225.2702, 123.4614
225.7523, 124.3636
226.2344, 124.8173
226.7165, 124.7368
227.1986, 124.2981
227.6807, 123.6476
228.1629, 122.7250
228.6450, 121.9007
229.1271, 121.1224
229.6092, 120.4907
230.0913, 120.2604
230.5734, 120.4942
231.0556, 120.6735
231.5377, 120.1526
232.0198, 118.9426
232.5019, 117.7105
232.9840, 116.4102
233.4661, 115.2057
233.9483, 114.3154
234.4304, 113.7848
234.9125, 113.4654
235.3946, 113.3822
235.8767, 113.4533
236.3588, 113.2640
236.8410, 112.5087
237.3231, 111.4997
237.8052, 110.6601
238.2873, 110.0051
238.7694, 109.5657
239.2515, 109.5120
239.7337, 109.6992
240.2158, 109.8191
240.6979, 109.6651
241.1800, 109.4016
241.6621, 109.3061
242.1442, 109.3612
242.6264, 109.6526
243.1085, 110.3918
243.5906, 111.3736
244.0727, 112.2650
244.5548, 112.8179
245.0369, 113.2420
245.5191, 114.0117
246.0012, 115.2399
246.4833, 116.5536
246.9654, 117.6904
247.4475, 118.8072
247.9296, 120.1286
248.4117, 121.7783
248.8939, 123.6578
249.3760, 125.5784
249.8581, 127.5087
250.3402, 129.5479
250.8223, 131.4684
251.3044, 133.5784
251.7866, 136.2854
252.2687, 139.8295
252.7508, 143.9040
253.2329, 147.7997
253.7150, 151.1530
254.1971, 155.0714
254.6793, 159.7927
255.1614, 165.1086
255.6435, 170.9484
256.1256, 177.2849
256.6077, 183.9287
257.0898, 190.5477
257.5720, 197.1174
258.0541, 203.6664
258.5362, 210.0400
259.0183, 216.4734
259.5004, 223.4910
259.9825, 231.2080
260.4647, 238.8249
260.9468, 244.8297
261.4289, 248.7793
261.9110, 251.7979
262.3931, 254.4278
262.8752, 256.1386
263.3574, 256.5660
263.8395, 255.6023
264.3216, 253.3180
264.8037, 249.8074
265.2858, 245.0252
265.7679, 238.8839
266.2501, 230.7417
266.7322, 221.9841
267.2143, 213.3888
267.6964, 205.2023
268.1785, 197.3914
268.6606, 189.9360
269.1428, 182.9275
269.6249, 176.1422
270.1070, 169.5303
270.5891, 163.1269
271.0712, 156.9408
271.5533, 150.9950
272.0355, 145.3529
272.5176, 140.0596
272.9997, 135.1127
273.4818, 130.7409
273.9639, 126.8616
274.4460, 123.4966
274.9282, 120.8889
275.4103, 118.8870
275.8924, 117.0038
276.3745, 114.7717
276.8566, 112.1073
277.3387, 109.8938
277.8208, 108.0344
278.3029, 106.5867
278.7851, 105.8601
279.2672, 105.6123
279.7493, 105.1771
280.2314, 104.0126
280.7135, 102.1589
281.1956, 100.7895
281.6778, 99.92574
282.1599, 99.40276
282.6420, 99.30046
283.1241, 99.49888
283.6062, 99.77444
284.0883, 100.0027
284.5705, 100.1907
285.0526, 100.3689
285.5347, 100.2514
286.0168, 100.4475
286.4989, 101.2846
286.9810, 102.5059
287.4632, 103.6680
287.9453, 104.5573
288.4274, 105.2926
288.9095, 106.2197
289.3916, 107.1702
289.8737, 108.5245
290.3559, 110.5050
290.8380, 112.8736
291.3201, 115.2097
291.8022, 117.3487
292.2843, 119.6337
292.7664, 122.7393
293.2486, 126.7405
293.7307, 131.3704
294.2128, 136.8528
294.6949, 142.8417
295.1770, 149.2808
295.6591, 156.1664
296.1413, 162.7090
296.6234, 168.1602
297.1055, 172.7096
297.5876, 174.4888
298.0697, 172.6586
298.5518, 168.5139
299.0340, 162.6114
299.5161, 155.1941
299.9982, 147.2035
300.4803, 139.3443
300.9624, 131.6412
301.4445, 124.7230
301.9267, 118.6042
302.4088, 113.2807
302.8909, 108.7706
303.3730, 105.0586
303.8551, 101.9864
304.3372, 99.50082
304.8194, 97.59220
305.3015, 95.85423
305.7836, 94.35249
306.2657, 92.92638
306.7478, 91.40537
307.2299, 89.87962
307.7121, 88.62127
308.1942, 87.78043
308.6763, 87.30071
309.1584, 87.02723
309.6405, 87.22836
310.1227, 87.19750
310.6048, 86.52999
311.0869, 85.49487
311.5690, 84.57262
312.0511, 83.92915
312.5332, 83.52644
313.0154, 83.34121
313.4975, 83.41079
313.9796, 83.52678
314.4617, 83.63311
314.9438, 83.76991
315.4259, 84.03386
315.9081, 84.45542
316.3902, 84.86575
316.8723, 85.02708
317.3544, 84.88608
317.8365, 84.84008
318.3186, 84.94283
318.8007, 85.14001
319.2828, 85.36951
319.7650, 85.62971
320.2471, 86.00476
320.7292, 86.65022
321.2113, 87.55033
321.6934, 88.03822
322.1755, 87.73612
322.6577, 87.36541
323.1398, 87.41737
323.6219, 87.82262
324.1040, 88.17172
324.5861, 88.16764
325.0682, 87.92460
325.5504, 88.02337
326.0325, 88.76081
326.5146, 89.45238
326.9967, 89.69215
327.4788, 89.71976
327.9609, 90.10725
328.4431, 91.16271
328.9252, 92.52921
329.4073, 93.34332
329.8894, 93.38407
330.3715, 93.45259
330.8536, 93.67937
331.3358, 94.01755
331.8179, 94.40351
332.3000, 94.82018
332.7821, 95.30602
333.2642, 95.93893
333.7463, 96.78819
334.2285, 97.52311
334.7106, 98.00635
335.1927, 98.45341
335.6748, 99.10468
336.1569, 99.94836
336.6390, 100.6951
337.1212, 101.0216
337.6033, 100.9075
338.0854, 101.2673
338.5675, 102.5364
339.0496, 103.8064
339.5317, 104.4754
340.0139, 104.7506
340.4960, 105.3208
340.9781, 106.6602
341.4602, 108.5410
341.9423, 109.7883
342.4244, 109.7668
342.9066, 109.9737
343.3887, 110.8722
343.8708, 112.1414
344.3529, 113.3390
344.8350, 114.2928
345.3171, 115.0706
345.7993, 115.7757
346.2814, 116.1407
346.7635, 116.9396
347.2456, 118.3894
347.7277, 120.1406
348.2098, 121.9099
348.6920, 123.6364
349.1741, 125.4734
349.6562, 127.6370
350.1383, 130.3333
350.6204, 132.2739
351.1025, 132.7072
351.5847, 133.2062
352.0668, 134.5622
352.5489, 136.6673
353.0310, 139.0105
353.5131, 141.2072
353.9952, 143.3004
354.4774, 145.8166
354.9595, 149.4225
355.4416, 152.6675
355.9237, 154.8263
356.4058, 156.5835
356.8879, 159.0911
357.3701, 162.8670
357.8522, 167.1007
358.3343, 169.9498
358.8164, 170.7351
359.2985, 171.0255
359.7806, 170.6262
360.2627, 169.9454
360.7448, 169.5605
361.2270, 169.4286
361.7091, 168.7410
362.1912, 166.4015
362.6733, 161.9376
363.1554, 157.8935
363.6375, 154.1128
364.1197, 150.8708
364.6018, 148.5189
365.0839, 146.8137
365.5660, 145.2254
366.0481, 143.3317
366.5302, 141.2263
367.0124, 139.6510
367.4945, 139.0047
367.9766, 138.4152
368.4587, 137.4262
368.9408, 136.5049
369.4229, 136.3167
369.9051, 137.1430
370.3872, 138.4364
370.8693, 139.1591
371.3514, 139.0830
371.8335, 139.0055
372.3156, 138.8883
372.7978, 138.8976
373.2799, 139.3373
373.7620, 140.1351
374.2441, 140.7319
374.7262, 140.3199
375.2083, 138.8248
375.6905, 138.0965
376.1726, 138.8828
376.6547, 139.6220
377.1368, 139.6748
377.6189, 139.1758
378.1010, 138.4227
378.5832, 137.4699
379.0653, 136.4554
379.5474, 135.8071
380.0295, 135.7166
380.5116, 135.4842
380.9937, 134.6697
381.4759, 133.6725
381.9580, 132.9069
382.4401, 132.5064
382.9222, 132.1352
383.4043, 131.3708
383.8864, 130.2166
384.3686, 129.2136
384.8507, 128.6041
385.3328, 128.0472
385.8149, 127.1913
386.2970, 126.0785
386.7791, 125.0533
387.2613, 124.2728
387.7434, 123.7270
388.2255, 123.4646
388.7076, 123.5865
389.1897, 123.6609
389.6718, 123.3355
390.1540, 122.7434
390.6361, 122.1255
391.1182, 121.5395
391.6003, 120.9343
392.0824, 120.2556
392.5645, 119.5079
393.0467, 118.7371
393.5288, 117.9171
394.0109, 117.1343
394.4930, 116.5349
394.9751, 116.1313
395.4572, 115.8264
395.9394, 115.5654
396.4215, 115.3843
396.9036, 115.3974
397.3857, 115.6473
397.8678, 115.9056
398.3499, 115.9180
398.8321, 115.6644
399.3142, 115.4477
399.7963, 115.2115
400.2784, 115.0685
400.7605, 115.1498
401.2426, 115.4114
401.7247, 115.6354
402.2068, 115.6487
402.6890, 115.5644
403.1711, 115.9116
403.6532, 117.0159
404.1353, 118.0725
404.6174, 119.1076
405.0995, 119.9554
405.5817, 120.1945
406.0638, 119.7461
406.5459, 119.2999
407.0280, 119.8743
407.5101, 121.8907
407.9922, 123.6313
408.4744, 124.8669
408.9565, 126.0622
409.4386, 127.4056
409.9207, 128.9337
410.4028, 130.6446
410.8849, 132.5555
411.3671, 134.6588
411.8492, 136.9418
412.3313, 139.3963
412.8134, 142.0632
413.2955, 145.1143
413.7776, 148.2975
414.2598, 151.3773
414.7419, 154.2714
415.2240, 157.0160
415.7061, 159.6520
416.1882, 162.1789
416.6703, 164.6395
417.1525, 167.4230
417.6346, 169.7828
418.1167, 171.3482
418.5988, 172.1714
419.0809, 172.5153
419.5630, 172.7041
420.0452, 172.5421
420.5273, 171.0719
421.0094, 167.8272
421.4915, 164.2473
421.9736, 160.9560
422.4557, 157.6376
422.9379, 153.8824
423.4200, 149.5258
423.9021, 145.0720
424.3842, 141.0271
424.8663, 137.3902
425.3484, 133.8807
425.8306, 130.1365
426.3127, 126.9470
426.7948, 125.2252
427.2769, 124.7538
427.7590, 124.1046
428.2411, 122.4120
428.7233, 120.2892
429.2054, 118.6520
429.6875, 117.5395
430.1696, 116.7288
430.6517, 116.0921
431.1339, 115.6906
431.6160, 115.6051
432.0981, 115.9462
432.5802, 116.4290
433.0623, 116.8254
433.5444, 117.2687
434.0266, 118.0917
434.5087, 119.4154
434.9908, 120.9732
435.4729, 122.4377
435.9550, 123.8029
436.4371, 125.0570
436.9193, 125.9862
437.4014, 126.9776
437.8835, 128.4587
438.3656, 130.2898
438.8477, 131.8689
439.3298, 132.7576
439.8120, 133.1254
440.2941, 133.8664
440.7762, 135.4534
441.2583, 136.8330
441.7404, 137.7178
442.2225, 138.4358
442.7046, 139.1968
443.1867, 140.1010
443.6689, 141.3282
444.1510, 143.1069
444.6331, 145.4892
445.1152, 148.1927
445.5973, 150.8423
446.0794, 154.1941
446.5616, 158.6080
447.0437, 163.8960
447.5258, 169.7462
448.0079, 175.9379
448.4900, 182.5795
448.9721, 189.9170
449.4543, 197.9312
449.9364, 206.6955
450.4185, 217.2380
450.9006, 227.9121
451.3827, 237.7683
451.8648, 246.6512
452.3470, 254.5993
452.8291, 261.5526
453.3112, 267.5781
453.7933, 272.7760
454.2754, 277.1238
454.7575, 280.6484
455.2397, 283.0778
455.7218, 284.7294
456.2039, 286.0428
456.6860, 287.1575
457.1681, 287.8834
457.6502, 288.0413
458.1324, 287.6668
458.6145, 286.9871
459.0966, 286.1816
459.5787, 284.8856
460.0608, 282.5372
460.5429, 279.2312
461.0251, 274.9220
461.5072, 269.1031
461.9893, 262.6315
462.4714, 256.2520
462.9535, 249.9814
463.4356, 243.4535
463.9178, 236.3148
464.3999, 228.7507
464.8820, 221.5583
465.3641, 215.0681
465.8462, 208.4969
466.3283, 201.2478
466.8105, 194.0478
467.2926, 187.7930
467.7747, 182.6121
468.2568, 177.9191
468.7389, 173.0251
469.2210, 167.8182
469.7032, 162.8926
470.1853, 158.2214
470.6674, 153.8675
471.1495, 149.9346
471.6316, 146.3304
472.1137, 142.9194
472.5959, 139.6241
473.0780, 136.5626
473.5601, 133.9987
474.0422, 132.0208
474.5243, 130.1803
475.0064, 128.6073
475.4886, 126.9896
475.9707, 125.0437
476.4528, 122.8431
476.9349, 120.7481
477.4170, 119.0877
477.8991, 117.6781
478.3813, 116.0540
478.8634, 114.1811
479.3455, 112.3277
479.8276, 110.5662
480.3097, 108.9488
480.7918, 107.5900
481.2740, 106.5995
481.7561, 105.5755
482.2382, 104.2185
482.7203, 102.7136
483.2024, 101.4357
483.6845, 100.4674
484.1666, 99.54048
484.6487, 98.35818
485.1309, 96.91493
485.6130, 95.73544
486.0951, 95.14683
486.5772, 94.45987
487.0593, 93.11703
487.5414, 91.51475
488.0236, 90.47142
488.5057, 90.30703
488.9878, 90.50087
489.4699, 90.10300
489.9520, 88.69490
490.4341, 87.71543
490.9163, 87.35581
491.3984, 87.17117
491.8805, 87.05433
492.3626, 86.92549
492.8447, 86.64268
493.3268, 86.07796
493.8090, 85.38664
494.2911, 85.05238
494.7732, 85.21019
495.2553, 85.36191
495.7374, 85.48040
496.2195, 85.48957
496.7017, 85.27220
497.1838, 84.84415
497.6659, 84.42186
498.1480, 84.11666
498.6301, 83.93716
499.1122, 84.01094
499.5944, 84.44531
500.0765, 84.63070
500.5586, 84.00129
501.0407, 82.95045
501.5228, 82.30019
502.0049, 82.18285
502.4871, 82.26343
502.9692, 82.53255
503.4513, 82.84631
503.9334, 82.89117
504.4155, 82.59494
504.8976, 82.26871
505.3798, 82.23007
505.8619, 82.50081
506.3440, 82.69471
506.8261, 82.85954
507.3082, 82.90704
507.7903, 82.66659
508.2725, 82.32796
508.7546, 82.19253
509.2367, 82.36961
509.7188, 82.71799
510.2009, 83.02385
510.6830, 83.28780
511.1652, 83.50913
511.6473, 83.61663
512.1294, 83.75185
512.6115, 83.95914
513.0936, 84.23776
513.5757, 84.58094
514.0579, 84.99157
514.5400, 85.44851
515.0221, 85.88171
515.5042, 86.26763
515.9863, 86.83461
516.4684, 87.79325
516.9506, 88.79895
517.4327, 89.44945
517.9148, 89.81548
518.3969, 90.43177
518.8790, 91.81847
519.3611, 93.41312
519.8433, 94.28573
520.3254, 94.50451
520.8075, 95.22625
521.2896, 97.14899
521.7717, 99.74419
522.2538, 101.6888
522.7360, 102.6482
523.2181, 104.0475
523.7002, 106.2377
524.1823, 108.8772
524.6644, 111.6192
525.1465, 114.4723
525.6287, 117.7144
526.1108, 121.5334
526.5929, 125.8808
527.0750, 130.6113
527.5571, 135.4271
528.0392, 141.0830
528.5214, 147.7497
529.0035, 155.1757
529.4856, 163.0828
529.9677, 171.4749
530.4498, 180.6156
530.9319, 190.8248
531.4141, 201.9777
531.8962, 213.4810
532.3783, 225.2699
532.8604, 237.4880
533.3425, 251.2717
533.8246, 264.9728
534.3068, 277.2688
534.7889, 288.0549
535.2710, 296.5797
535.7531, 302.6116
536.2352, 306.0243
536.7173, 306.4906
537.1995, 303.9305
537.6816, 298.8891
538.1637, 291.6161
538.6458, 282.0970
539.1279, 271.0153
539.6100, 257.0413
540.0922, 243.2519
540.5743, 230.1457
541.0564, 217.8046
541.5385, 206.2874
542.0206, 195.6279
542.5027, 185.7745
542.9849, 176.7241
543.4670, 168.4727
543.9491, 161.1595
544.4312, 155.4644
544.9133, 150.0042
545.3954, 144.3009
545.8775, 138.8118
546.3596, 134.0695
546.8417, 130.2051
547.3239, 126.9981
547.8060, 124.4434
548.2881, 122.4716
548.7702, 120.3590
549.2523, 117.9666
549.7344, 115.6683
550.2166, 113.6611
550.6987, 111.9098
551.1808, 110.4003
551.6629, 109.2078
552.1450, 108.0941
552.6271, 106.9465
553.1093, 105.7605
553.5914, 104.4292
554.0735, 102.9225
554.5556, 101.6338
555.0377, 100.9858
555.5198, 100.9646
556.0020, 100.7027
556.4841, 100.1127
556.9662, 99.42757
557.4483, 98.42244
557.9304, 97.48454
558.4125, 97.21854
558.8947, 97.69892
559.3768, 98.30177
559.8589, 98.26711
560.3410, 97.57273
560.8231, 97.28515
561.3052, 97.77894
561.7874, 98.14080
562.2695, 98.05556
562.7516, 97.71130
563.2337, 97.21147
563.7158, 96.55789
564.1979, 96.17392
564.6801, 96.71011
565.1622, 97.82421
565.6443, 98.30799
566.1264, 97.94416
566.6085, 97.43897
567.0906, 97.20263
567.5728, 97.22308
568.0549, 97.38863
568.5370, 97.83568
569.0191, 98.21252
569.5012, 98.25900
569.9833, 98.23865
570.4655, 98.62154
570.9476, 99.40035
571.4297, 99.96653
571.9118, 99.70776
572.3939, 98.71590
572.8760, 98.19296
573.3582, 98.47964
573.8403, 98.79252
574.3224, 98.95183
574.8045, 99.13745
575.2866, 99.64021
575.7687, 100.4254
576.2509, 101.0113
576.7330, 100.8447
577.2151, 100.1492
577.6972, 99.77478
578.1793, 99.74625
578.6614, 99.94617
579.1436, 100.4774
579.6257, 101.1161
580.1078, 101.5320
580.5899, 101.6951
581.0720, 101.7884
581.5541, 101.9006
582.0363, 101.9664
582.5184, 101.8482
583.0005, 101.5829
583.4826, 101.4143
583.9647, 101.4998
584.4468, 101.7519
584.9290, 101.9141
585.4111, 101.9115
585.8932, 101.9335
586.3753, 101.9704
586.8574, 102.0385
587.3395, 102.2102
587.8217, 102.4240
588.3038, 102.4978
588.7859, 102.2837
589.2680, 101.9713
589.7501, 102.0613
590.2322, 102.6514
590.7144, 102.9069
591.1965, 102.3442
591.6786, 101.7589
592.1607, 102.0109
592.6428, 102.8828
593.1249, 103.3625
593.6071, 102.7724
594.0892, 101.9968
594.5713, 101.8081
595.0534, 102.0299
595.5355, 102.1534
596.0176, 102.0092
596.4998, 101.7744
596.9819, 101.7029
597.4640, 101.8750
597.9461, 101.7000
598.4282, 100.6865
598.9103, 99.93980
599.3925, 99.95711
599.8746, 100.3915
600.3567, 100.8171
600.8388, 101.0904
601.3209, 101.2426
601.8030, 101.2682
602.2852, 101.1746
602.7673, 101.2011
603.2494, 101.5102
603.7315, 101.5848
604.2136, 100.7928
604.6957, 99.74808
605.1779, 99.38013
605.6600, 99.98386
606.1421, 100.4263
606.6242, 99.88992
607.1063, 98.97047
607.5884, 98.60876
608.0706, 98.82996
608.5527, 98.91174
609.0348, 98.33564
609.5169, 97.34446
609.9990, 96.78203
610.4811, 97.21774
610.9633, 97.25331
611.4454, 96.50766
611.9275, 95.69343
612.4096, 95.27996
612.8917, 95.21320
613.3738, 95.22041
613.8560, 95.17421
614.3381, 95.02713
614.8202, 94.63180
615.3023, 93.95863
615.7844, 93.37413
616.2665, 92.91172
616.7487, 92.60954
617.2308, 92.69733
617.7129, 93.01920
618.1950, 92.92442
618.6771, 91.87167
619.1592, 90.78649
619.6414, 90.22664
620.1235, 90.02877
620.6056, 89.94460
621.0877, 89.89631
621.5698, 89.76102
622.0519, 89.37192
622.5341, 88.72456
623.0162, 88.37412
623.4983, 88.76323
623.9804, 88.88647
624.4625, 88.38178
624.9446, 87.67086
625.4268, 87.13358
625.9089, 86.82909
626.3910, 86.59588
626.8731, 86.35598
627.3552, 86.08533
627.8373, 85.70457
628.3194, 85.20467
628.8015, 84.68930
629.2836, 84.14539
629.7657, 83.66292
630.2479, 83.46436
630.7300, 83.59579
631.2121, 83.49559
631.6942, 82.88039
632.1763, 82.19791
632.6584, 81.75235
633.1406, 81.46003
633.6227, 81.09675
634.1048, 80.57661
634.5869, 80.00749
635.0690, 79.56727
635.5511, 79.28770
636.0333, 78.87654
636.5154, 78.03882
636.9975, 77.49260
637.4796, 77.80233
637.9617, 78.38705
638.4438, 78.48160
638.9260, 77.89674
639.4081, 77.15010
639.8902, 76.53068
640.3723, 76.01839
640.8544, 75.60213
641.3365, 75.27656
641.8187, 74.90818
642.3008, 74.38456
642.7829, 73.82989
643.2650, 73.56240
643.7471, 73.82010
644.2292, 73.92146
644.7114, 73.83164
645.1935, 73.62122
645.6756, 73.26431
646.1577, 72.82780
646.6398, 72.44816
647.1219, 72.19554
647.6041, 71.94424
648.0862, 71.49799
648.5683, 70.85926
649.0504, 70.14919
649.5325, 69.24129
650.0146, 68.58052
650.4968, 68.62637
650.9789, 69.09928
651.4610, 69.39043
651.9431, 69.39222
652.4252, 69.35765
652.9073, 69.49243
653.3895, 69.57598
653.8716, 69.30059
654.3537, 68.69830
654.8358, 68.01116
655.3179, 67.36205
655.8000, 66.86380
656.2822, 66.90490
656.7643, 67.83053
657.2464, 68.41590
657.7285, 68.36135
658.2106, 68.13859
658.6927, 67.84711
659.1749, 67.55718
659.6570, 67.41959
660.1391, 67.55538
660.6212, 67.66242
661.1033, 67.33660
661.5854, 66.77895
662.0676, 66.57487
662.5497, 66.82566
663.0318, 67.10676
663.5139, 67.10776
663.9960, 66.87933
664.4781, 66.67252
664.9603, 66.62990
665.4424, 66.40784
665.9245, 65.84446
666.4066, 65.22352
666.8887, 64.67729
667.3708, 64.24920
667.8530, 63.99253
668.3351, 63.95314
668.8172, 64.03329
669.2993, 64.16838
669.7814, 64.34373
670.2635, 64.08926
670.7457, 63.11132
671.2278, 62.27858
671.7099, 62.46907
672.1920, 63.38400
672.6741, 63.71711
673.1563, 63.05397
673.6384, 62.42751
674.1205, 62.14876
674.6026, 62.04372
675.0847, 61.94003
675.5668, 61.83381
676.0490, 61.85307
676.5311, 62.11116
677.0132, 62.42878
677.4953, 62.28934
677.9774, 61.56098
678.4595, 61.00126
678.9417, 60.69032
679.4238, 60.58282
679.9059, 60.80716
680.3880, 61.18102
680.8701, 61.24624
681.3522, 60.67881
681.8344, 60.26878
682.3165, 60.63945
682.7986, 61.37254
683.2807, 61.87362
683.7628, 62.07667
684.2449, 62.19196
684.7271, 62.35345
685.2092, 62.55230
685.6913, 62.77602
686.1734, 63.09844
686.6555, 63.27328
687.1376, 63.21043
687.6198, 63.06803
688.1019, 62.85830
688.5840, 62.63245
689.0661, 62.47991
689.5482, 62.43625
690.0303, 62.45258
690.5125, 62.53424
690.9946, 62.63462
691.4767, 62.60869
691.9588, 62.44728
692.4409, 62.36701
692.9230, 62.51400
693.4052, 62.82854
693.8873, 63.14964
694.3694, 63.63648
694.8515, 63.82674
695.3336, 63.19416
695.8157, 62.81530
696.2979, 63.61735
696.7800, 64.97458
697.2621, 65.63817
697.7442, 65.10435
698.2263, 64.26400
698.7084, 63.97585
699.1906, 64.12567
699.6727, 64.35525
700.1548, 64.63406
700.6369, 64.98795
701.1190, 65.47102
701.6011, 65.99233
702.0833, 66.32726
702.5654, 66.38528
703.0475, 66.45833
703.5296, 66.44672
704.0117, 66.55508
704.4938, 66.99001
704.9760, 67.58689
705.4581, 68.08712
705.9402, 68.39866
706.4223, 68.59819
706.9044, 68.80261
707.3865, 68.96949
707.8687, 68.80370
708.3508, 68.22205
708.8329, 67.90386
709.3149, 68.25807
709.7971, 68.92959
710.2792, 69.33100
710.7613, 69.43657
711.2434, 69.43848
711.7255, 69.21784
712.2076, 69.03569
712.6898, 69.08411
713.1719, 69.22819
713.6540, 69.25254
714.1361, 69.10767
714.6182, 68.93802
715.1003, 68.97807
715.5825, 69.10442
716.0646, 68.63308
716.5467, 67.42799
717.0288, 66.63966
717.5109, 66.82599
717.9930, 67.37804
718.4752, 67.63236
718.9573, 67.59709
719.4394, 67.33025
719.9215, 66.45375
720.4036, 65.78878
720.8857, 65.81817
721.3679, 66.17109
721.8500, 66.46428
722.3321, 66.59121
722.8142, 66.54731
723.2963, 66.31772
723.7784, 65.92867
724.2606, 65.33944
724.7427, 64.47742
725.2248, 64.15808
725.7069, 64.82227
726.1890, 65.61294
726.6711, 65.72382
727.1533, 65.29632
727.6354, 65.02223
728.1175, 65.11905
728.5996, 65.12529
729.0817, 64.71093
729.5638, 64.27952
730.0460, 64.32034
730.5281, 64.74649
731.0102, 65.10530
731.4923, 65.13714
731.9744, 64.92690
732.4565, 64.53838
732.9387, 63.96486
733.4208, 63.67470
733.9029, 63.81256
734.3850, 63.98882
734.8671, 64.00041
735.3492, 63.86626
735.8314, 63.60364
736.3135, 63.05807
736.7956, 62.82514
737.2777, 63.26940
737.7598, 63.84482
738.2419, 64.22015
738.7241, 64.40762
739.2062, 64.47823
739.6883, 64.46546
740.1704, 64.44846
740.6525, 64.55706
741.1346, 64.76592
741.6168, 64.79371
742.0989, 64.54697
742.5810, 64.62137
743.0631, 65.49306
743.5452, 66.55205
744.0273, 66.79070
744.5095, 66.13861
744.9916, 65.87995
745.4737, 66.20946
745.9558, 66.84725
746.4379, 67.96302
746.9200, 69.16676
747.4022, 69.90943
747.8843, 70.16350
748.3664, 70.43000
748.8485, 71.11769
749.3306, 71.69057
749.8127, 72.43070
750.2949, 73.43175
750.7770, 74.29000
751.2591, 75.59145
751.7412, 76.92334
752.2233, 77.91324
752.7054, 78.61509
753.1876, 79.46853
753.6697, 80.59820
754.1518, 81.68789
754.6339, 82.56316
755.1160, 83.50432
755.5981, 84.73103
756.0803, 86.20093
756.5624, 87.78973
757.0445, 89.45889
757.5266, 91.14485
758.0087, 92.65308
758.4908, 94.10336
758.9730, 95.99095
759.4551, 98.37573
759.9372, 100.8675
760.4193, 103.3080
760.9014, 105.6669
761.3835, 107.8531
761.8657, 109.7140
762.3478, 111.9460
762.8299, 115.0557
763.3120, 117.9053
763.7941, 119.7033
764.2762, 121.2522
764.7584, 123.5322
765.2405, 126.6760
765.7226, 130.0804
766.2047, 133.6048
766.6868, 136.9663
767.1689, 139.6992
767.6511, 141.9003
768.1332, 143.8651
768.6153, 145.6714
769.0974, 147.4754
769.5795, 149.4973
770.0616, 151.6366
770.5438, 152.9330
771.0259, 152.9309
771.5080, 152.8927
771.9901, 153.1740
772.4722, 153.2312
772.9543, 152.8914
773.4365, 152.0629
773.9186, 150.5570
774.4007, 148.2458
774.8828, 145.4993
775.3649, 142.4861
775.8470, 139.2391
776.3292, 135.8215
776.8113, 132.2201
777.2934, 128.3227
777.7755, 124.0494
778.2576, 119.5989
778.7397, 115.2969
779.2219, 111.1425
779.7040, 107.0065
780.1861, 102.7145
780.6682, 98.79945
781.1503, 95.75049
781.6324, 92.97707
782.1146, 89.83618
782.5967, 86.31525
783.0788, 82.99608
783.5609, 79.94180
784.0430, 77.21009
784.5251, 74.86073
785.0073, 72.82235
785.4894, 71.05315
785.9715, 69.51537
786.4536, 68.14034
786.9357, 66.90697
787.4178, 65.73193
787.9000, 64.44866
788.3821, 63.06210
788.8642, 61.57809
789.3463, 59.91327
789.8284, 58.44720
790.3105, 57.46435
790.7927, 56.85184
791.2748, 56.33877
791.7568, 56.01913
792.2390, 55.55476
792.7211, 54.73064
793.2032, 53.96704
793.6853, 53.50829
794.1674, 53.22540
794.6495, 52.96919
795.1317, 52.68409
795.6138, 52.25307
796.0959, 51.40142
796.5780, 50.44249
797.0601, 49.99842
797.5422, 49.96657
798.0244, 49.82193
798.5065, 49.41658
798.9886, 48.94803
799.4707, 48.61339
799.9528, 48.37936
800.4349, 47.99298
800.9171, 47.19640
801.3992, 46.76055
801.8813, 47.19002
802.3634, 47.59120
802.8455, 47.42317
803.3276, 46.91115
803.8098, 46.56133
804.2919, 46.53912
804.7740, 46.45506
805.2561, 46.02463
805.7382, 45.50755
806.2203, 45.21880
806.7025, 45.07146
807.1846, 44.76850
807.6667, 44.20920
808.1488, 43.58687
808.6309, 43.08935
809.1130, 42.73173
809.5952, 42.70344
810.0773, 43.09856
810.5594, 43.22597
811.0415, 42.76542
811.5236, 42.20744
812.0057, 42.05438
812.4879, 42.26255
812.9700, 42.32626
813.4521, 42.23252
813.9342, 42.01595
814.4163, 41.55934
814.8984, 41.09031
815.3806, 40.69940
815.8627, 40.44738
816.3448, 40.47856
816.8269, 40.86953
817.3090, 41.25117
817.7911, 41.30502
818.2733, 41.09521
818.7554, 40.63589
819.2375, 39.99148
819.7196, 39.54524
820.2017, 39.45110
820.6838, 39.50251
821.1660, 39.42553
821.6481, 39.22982
822.1302, 39.30649
822.6123, 39.88169
823.0944, 40.24639
823.5765, 40.14032
824.0587, 39.88598
824.5408, 39.66442
825.0229, 39.48385
825.5050, 39.36323
825.9871, 39.32350
826.4692, 39.30980
826.9514, 39.38982
827.4335, 39.41499
827.9156, 39.16712
828.3977, 38.76057
828.8798, 38.47006
829.3619, 38.40158
829.8441, 38.47887
830.3262, 38.72643
830.8083, 39.04411
831.2904, 38.98270
831.7725, 38.54756
832.2546, 38.26588
832.7368, 38.33294
833.2189, 38.48339
833.7010, 38.42857
834.1831, 38.19625
834.6652, 38.10860
835.1473, 38.31124
835.6295, 38.42469
836.1116, 38.38246
836.5937, 38.28759
837.0758, 38.12105
837.5579, 37.96244
838.0400, 37.99858
838.5222, 38.32566
839.0043, 38.55346
839.4864, 38.41796
839.9685, 38.13774
840.4506, 37.84449
840.9327, 37.60101
841.4149, 37.59620
841.8970, 37.84450
842.3791, 37.95411
842.8612, 37.41800
843.3433, 37.74885
843.8254, 36.62296
844.3076, 37.66385
844.7897, 38.14328
845.2718, 37.63736
845.7539, 36.92466
846.2360, 36.54641
846.7181, 36.43086
847.2003, 36.32897
847.6824, 36.11684
848.1645, 36.17220
848.6466, 36.82931
849.1287, 37.36710
849.6108, 37.43224
850.0930, 37.23387
850.5751, 36.99032
851.0572, 36.75531
851.5393, 36.67066
852.0214, 36.91969
852.5035, 37.24262
852.9857, 37.45913
853.4678, 37.57223
853.9499, 37.59069
854.4320, 37.51679
854.9141, 37.31677
855.3962, 36.94397
855.8784, 36.55924
856.3605, 36.54195
856.8426, 36.87910
857.3247, 37.10682
857.8068, 37.19779
858.2889, 37.14443
858.7711, 36.89814
859.2532, 36.56900
859.7353, 36.29467
860.2174, 36.05153
860.6995, 36.04760
861.1816, 36.65244
861.6638, 36.99564
862.1459, 36.65781
862.6280, 36.21260
863.1101, 36.18352
863.5922, 36.46151
864.0743, 36.55868
864.5565, 36.24059
865.0386, 35.92229
865.5207, 35.77857
866.0028, 35.83824
866.4849, 36.32966
866.9670, 37.04500
867.4492, 37.37705
867.9313, 37.11919
868.4134, 36.69174
868.8955, 36.58008
869.3776, 36.67315
869.8597, 36.49411
870.3419, 36.04065
870.8240, 35.82274
871.3061, 36.00636
871.7882, 36.23667
872.2703, 36.22423
872.7524, 36.02265
873.2346, 35.83889
873.7167, 35.66980
874.1987, 35.52454
874.6808, 35.38654
875.1630, 35.29353
875.6451, 35.23997
876.1272, 35.25020
876.6093, 35.45380
877.0914, 35.85057
877.5735, 35.93238
878.0557, 35.21576
878.5378, 34.48871
879.0199, 34.13680
879.5020, 34.07965
879.9841, 34.30983
880.4662, 34.73113
880.9484, 35.12853
881.4305, 35.40682
881.9126, 35.47293
882.3947, 35.01076
882.8768, 34.26226
883.3589, 34.07632
883.8411, 34.44153
884.3232, 34.67774
884.8053, 34.51258
885.2874, 34.20605
885.7695, 34.08053
886.2516, 34.10739
886.7338, 33.92476
887.2159, 33.38145
887.6980, 33.07372
888.1801, 33.24541
888.6622, 33.46255
889.1443, 33.32773
889.6265, 33.04922
890.1086, 33.18429
890.5907, 34.00053
891.0728, 34.39544
891.5549, 33.82460
892.0370, 33.24010
892.5192, 33.07185
893.0013, 33.16734
893.4834, 33.39016
893.9655, 33.67314
894.4476, 33.86706
894.9297, 33.89007
895.4119, 33.80077
895.8940, 33.57798
896.3761, 33.31600
896.8582, 33.15263
897.3403, 33.10910
897.8224, 33.22142
898.3046, 33.50547
898.7867, 33.78921
899.2688, 33.84945
899.7509, 33.70370
900.2330, 33.41603
900.7151, 32.97359
901.1973, 32.62471
901.6794, 32.43367
902.1615, 32.35117
902.6436, 32.34099
903.1257, 32.40014
903.6078, 32.52287
904.0900, 32.77818
904.5721, 32.95240
905.0542, 33.01902
905.5363, 33.03216
906.0184, 33.01281
906.5005, 32.95290
906.9827, 32.81723
907.4648, 32.60750
907.9469, 32.45375
908.4290, 32.39288
908.9111, 32.38722
909.3932, 32.58209
909.8754, 32.70166
910.3575, 32.29592
910.8396, 31.58972
911.3217, 31.26346
911.8038, 31.61305
912.2859, 32.11581
912.7681, 32.35573
913.2502, 32.42882
913.7323, 32.51467
914.2144, 32.56741
914.6965, 32.33662
915.1786, 31.79435
915.6608, 31.36954
916.1429, 31.45122
916.6250, 31.83239
917.1071, 31.99393
917.5892, 31.93571
918.0714, 31.70344
918.5535, 31.24153
919.0356, 30.96708
919.5177, 31.16583
919.9998, 31.48294
920.4819, 31.31672
920.9641, 30.59957
921.4462, 30.38755
921.9283, 31.09155
922.4104, 31.60546
922.8925, 31.61488
923.3746, 31.50119
923.8568, 31.46502
924.3389, 31.48864
924.8210, 31.54075
925.3031, 31.66505
925.7852, 31.65022
926.2673, 31.27084
926.7495, 30.92948
927.2316, 30.93458
927.7137, 31.05983
928.1958, 30.93960
928.6779, 30.60447
929.1600, 30.48545
929.6422, 30.91318
930.1243, 31.38843
930.6064, 31.40261
931.0885, 31.22050
931.5706, 31.25806
932.0527, 31.48370
932.5349, 31.66641
933.0170, 31.71826
933.4991, 31.69864
933.9812, 31.64320
934.4633, 31.58458
934.9454, 31.68434
935.4276, 31.90871
935.9097, 31.82529
936.3918, 31.33322
936.8739, 31.02452
937.3560, 31.32808
937.8381, 31.89308
938.3203, 31.96997
938.8024, 31.48110
939.2845, 31.13662
939.7666, 30.92277
940.2487, 30.90264
940.7308, 31.22628
941.2130, 31.57556
941.6951, 31.64019
942.1772, 31.47247
942.6593, 31.35722
943.1414, 31.15650
943.6235, 31.24838
944.1057, 32.04688
944.5878, 32.68418
945.0699, 32.65276
945.5520, 32.32408
946.0341, 32.10450
946.5162, 32.04848
946.9984, 32.13418
947.4805, 32.51365
947.9626, 32.82442
948.4447, 32.85813
948.9268, 32.76700
949.4089, 32.66366
949.8911, 32.56726
950.3732, 32.46228
950.8553, 32.34676
951.3374, 32.29185
951.8195, 32.40176
952.3016, 32.56715
952.7838, 32.63877
953.2659, 32.65479
953.7480, 32.72299
954.2301, 32.84269
954.7122, 32.86473
955.1943, 32.68724
955.6765, 32.55665
956.1586, 32.98797
956.6406, 33.81864
957.1227, 34.17594
957.6049, 34.06033
958.0870, 33.89775
958.5691, 33.80460
959.0512, 33.73631
959.5333, 33.64041
960.0154, 33.56257
960.4976, 33.71767
960.9797, 34.21693
961.4618, 34.33339
961.9439, 33.89930
962.4260, 33.45289
962.9081, 33.13293
963.3903, 33.01509
963.8724, 33.26890
964.3545, 33.86834
964.8366, 34.22956
965.3187, 34.34352
965.8008, 34.22595
966.2830, 33.63891
966.7651, 33.09243
967.2472, 32.80544
967.7293, 32.71502
968.2114, 32.74896
968.6935, 32.90335
969.1757, 33.06617
969.6578, 33.24333
970.1399, 33.38751
970.6220, 33.35383
971.1041, 33.39031
971.5862, 33.81702
972.0684, 34.45943
972.5505, 34.88779
973.0326, 34.96881
973.5147, 35.03795
973.9968, 35.30038
974.4789, 35.61683
974.9611, 35.84273
975.4432, 36.05947
975.9253, 36.39379
976.4074, 36.84711
976.8895, 37.35368
977.3716, 37.88225
977.8538, 38.42420
978.3359, 38.92810
978.8180, 39.46235
979.3001, 40.08619
979.7822, 40.85753
980.2643, 42.01585
980.7465, 43.57213
981.2286, 45.06527
981.7107, 46.11434
982.1928, 47.10829
982.6749, 48.96504
983.1570, 51.45648
983.6392, 53.16737
984.1213, 54.04896
984.6034, 54.95753
985.0855, 56.17047
985.5676, 57.66566
986.0497, 59.46384
986.5319, 61.46033
987.0140, 63.19549
987.4961, 64.57198
987.9782, 66.51615
988.4603, 69.21803
988.9424, 72.05267
989.4246, 74.86428
989.9067, 77.47282
990.3888, 79.68975
990.8709, 81.50072
991.3530, 82.79591
991.8351, 83.56441
992.3173, 83.83138
992.7994, 83.47088
993.2815, 82.80160
993.7636, 82.08956
994.2457, 81.09817
994.7278, 79.48941
995.2100, 77.26476
995.6921, 74.44936
996.1742, 70.32267
996.6563, 66.61610
997.1384, 63.90982
997.6205, 61.38515
998.1027, 58.33345
998.5848, 55.21379
999.0669, 52.86566
999.5490, 51.42336
1000.031, 50.32432
1000.513, 49.69056
1000.995, 49.04980
1001.477, 48.15208
1001.960, 47.23471
1002.442, 46.38942
1002.924, 45.72715
1003.406, 45.49675
1003.888, 45.78658
1004.370, 46.09220
1004.852, 46.22091
1005.334, 46.21044
1005.817, 45.99359
1006.299, 45.71495
1006.781, 45.57613
1007.263, 45.54062
1007.745, 45.39143
1008.227, 45.02966
1008.709, 44.77669
1009.191, 45.06102
1009.673, 45.44041
1010.156, 45.29186
1010.638, 44.91637
1011.120, 44.97277
1011.602, 45.43861
1012.084, 45.72192
1012.566, 45.50369
1013.048, 45.16680
1013.530, 45.20307
1014.013, 44.96716
1014.495, 45.21752
1014.977, 44.82386
1015.459, 44.67485
1015.941, 44.82775
1016.423, 44.94082
1016.905, 44.79234
1017.387, 44.55103
1017.869, 44.46910
1018.352, 44.51024
1018.834, 44.53184
1019.316, 44.54381
1019.798, 44.65197
1020.280, 44.87996
1020.762, 45.16149
1021.244, 45.46761
1021.726, 45.70549
1022.208, 45.64174
1022.691, 45.30669
1023.173, 45.03794
1023.655, 44.83880
1024.137, 44.86344
1024.619, 45.16985
1025.101, 45.57655
1025.583, 45.95701
1026.065, 46.29047
1026.547, 46.46828
1027.030, 46.45638
1027.512, 46.80921
1027.994, 47.66009
1028.476, 48.09352
1028.958, 47.68859
1029.440, 47.31144
1029.922, 47.78192
1030.404, 48.78139
1030.887, 49.23789
1031.369, 48.98626
1031.851, 48.94194
1032.333, 49.17089
1032.815, 49.41120
1033.297, 49.54763
1033.779, 49.74799
1034.261, 50.22593
1034.744, 50.85975
1035.226, 51.18525
1035.708, 51.05091
1036.190, 51.06158
1036.672, 51.24861
1037.154, 51.52180
1037.636, 51.84792
1038.118, 52.26054
1038.600, 52.87953
1039.083, 53.60448
1039.565, 54.02584
1040.047, 54.04413
1040.529, 53.98922
1041.011, 53.65116
1041.493, 53.53587
1041.975, 53.93843
1042.457, 54.48963
1042.939, 55.03472
1043.422, 55.47355
1043.904, 55.35948
1044.386, 54.24552
1044.868, 53.66290
1045.350, 54.03229
1045.832, 54.47678
1046.314, 54.60895
1046.796, 54.81061
1047.279, 55.69788
1047.761, 56.93887
1048.243, 57.34742
1048.725, 56.48044
1049.207, 55.77533
1049.689, 55.32218
1050.171, 55.18078
1050.653, 55.62200
1051.135, 56.17058
1051.618, 56.40486
1052.100, 56.39450
1052.582, 56.40010
1053.064, 56.40088
1053.546, 56.63444
1054.028, 57.26866
1054.510, 57.99847
1054.992, 58.86858
1055.474, 59.63806
1055.957, 59.98533
1056.439, 60.06951
1056.921, 60.37660
1057.403, 61.07029
1057.885, 61.60505
1058.367, 61.65302
1058.849, 61.72747
1059.331, 62.12365
1059.814, 62.58967
1060.296, 62.92084
1060.778, 63.11975
1061.260, 63.14820
1061.742, 62.91903
1062.224, 63.17536
1062.706, 64.60614
1063.188, 66.03659
1063.671, 66.96964
1064.153, 67.61472
1064.635, 68.02068
1065.117, 68.34686
1065.599, 68.92983
1066.081, 69.86380
1066.563, 70.64820
1067.045, 70.98140
1067.527, 71.25489
1068.010, 71.51743
1068.492, 71.92839
1068.974, 72.68960
1069.456, 73.68449
1069.938, 74.69313
1070.420, 75.66679
1070.902, 76.61209
1071.384, 77.67737
1071.866, 78.52744
1072.349, 78.64711
1072.831, 78.81087
1073.313, 79.90826
1073.795, 81.46250
1074.277, 82.47021
1074.759, 82.78871
1075.241, 83.26534
1075.723, 84.25968
1076.206, 85.48644
1076.688, 87.09199
1077.170, 88.59872
1077.652, 89.43303
1078.134, 89.99168
1078.616, 91.03503
1079.098, 92.59478
1079.580, 93.90373
1080.062, 94.62074
1080.545, 95.11986
1081.027, 95.46513
1081.509, 95.78490
1081.991, 96.06865
1082.473, 96.45454
1082.955, 97.18042
1083.437, 98.21217
1083.919, 99.24039
1084.401, 100.2030
1084.884, 101.0372
1085.366, 101.5579
1085.848, 102.1064
1086.330, 103.1244
1086.812, 104.1619
1087.294, 104.5076
1087.776, 104.3250
1088.258, 104.4573
1088.740, 105.1742
1089.223, 106.1530
1089.705, 107.6427
1090.187, 108.9176
1090.669, 109.2223
1091.151, 109.3456
1091.633, 110.2183
1092.115, 111.6352
1092.597, 112.8327
1093.080, 113.6405
1093.562, 114.1550
1094.044, 114.0572
1094.526, 114.1228
1095.008, 114.9417
1095.490, 115.8895
1095.972, 116.5210
1096.454, 116.8049
1096.937, 116.6994
1097.419, 116.1853
1097.901, 115.8096
1098.383, 115.9894
1098.865, 115.9996
1099.347, 115.5308
1099.829, 114.8541
1100.311, 114.1525
1100.793, 113.3845
1101.276, 112.4250
1101.758, 111.2742
1102.240, 110.1440
1102.722, 108.9324
1103.204, 107.9830
1103.686, 107.5899
1104.168, 107.2332
1104.650, 106.7182
1105.132, 106.0142
1105.615, 104.9497
1106.097, 103.6333
1106.579, 102.6681
1107.061, 102.0211
1107.543, 102.0059
1108.025, 103.1557
1108.507, 104.3318
1108.989, 105.0792
1109.472, 105.6698
1109.954, 106.3614
1110.436, 107.1209
1110.918, 107.8104
1111.400, 108.4427
1111.882, 108.9351
1112.364, 108.9676
1112.846, 109.2917
1113.328, 110.6616
1113.811, 111.8115
1114.293, 111.8152
1114.775, 111.0025
1115.257, 109.9737
1115.739, 108.6966
1116.221, 107.4626
1116.703, 106.0878
1117.185, 105.0698
1117.667, 104.4547
1118.150, 104.2261
1118.632, 104.4806
1119.114, 105.0305
1119.596, 105.6954
1120.078, 106.4514
1120.560, 106.9309
1121.042, 106.8388
1121.524, 107.2199
1122.007, 108.3460
1122.489, 109.4736
1122.971, 110.2993
1123.453, 111.0850
1123.935, 112.1022
1124.417, 113.2783
1124.899, 114.3455
1125.381, 115.3040
1125.864, 116.1318
1126.346, 116.7345
1126.828, 117.6112
1127.310, 118.9969
1127.792, 120.3067
1128.274, 121.0925
1128.756, 121.5723
1129.238, 122.1163
1129.720, 122.7299
1130.203, 123.9286
1130.685, 125.8048
1131.167, 126.9961
1131.649, 127.1814
1132.131, 127.7075
1132.613, 129.2834
1133.095, 131.3217
1133.577, 133.1342
1134.059, 134.7094
1134.542, 135.9102
1135.024, 136.7862
1135.506, 137.8325
1135.988, 139.0889
1136.470, 140.5234
1136.952, 142.1207
1137.434, 143.6151
1137.916, 144.7482
1138.399, 145.7898
1138.881, 147.1519
1139.363, 148.8663
1139.845, 151.3054
1140.327, 154.2253
1140.809, 156.5492
1141.291, 158.1008
1141.773, 159.1877
1142.255, 159.9676
1142.738, 160.9742
1143.220, 162.9307
1143.702, 165.4534
1144.184, 168.1477
1144.666, 170.7907
1145.148, 172.7796
1145.630, 174.2791
1146.112, 175.9766
1146.594, 178.1106
1147.077, 180.4716
1147.559, 182.9399
1148.041, 185.5169
1148.523, 188.3043
1149.005, 191.1188
1149.487, 193.7132
1149.969, 196.1848
1150.451, 198.7803
1150.934, 201.4750
1151.416, 203.8537
1151.898, 205.5677
1152.380, 207.7166
1152.862, 211.1394
1153.344, 214.9640
1153.826, 219.0271
1154.308, 222.8430
1154.791, 225.6364
1155.273, 227.8552
1155.755, 230.6082
1156.237, 234.1357
1156.719, 237.9222
1157.201, 241.9893
1157.683, 246.0490
1158.165, 250.3123
1158.647, 254.2463
1159.130, 257.0002
1159.612, 259.5895
1160.094, 263.6510
1160.576, 269.0433
1161.058, 273.5434
1161.540, 276.5294
1162.022, 279.5809
1162.504, 282.5775
1162.986, 285.8673
1163.469, 289.5308
1163.951, 293.5279
1164.433, 297.8976
1164.915, 302.5274
1165.397, 307.1918
1165.879, 311.9138
1166.361, 316.2942
1166.843, 320.2337
1167.325, 324.0239
1167.808, 327.4954
1168.290, 331.7518
1168.772, 337.5488
1169.254, 343.6747
1169.736, 348.6773
1170.218, 352.8803
1170.700, 357.4820
1171.182, 362.4701
1171.665, 367.9669
1172.147, 373.9471
1172.629, 379.9311
1173.111, 385.7882
1173.593, 391.1215
1174.075, 395.5954
1174.557, 399.9733
1175.039, 405.5610
1175.521, 411.9515
1176.004, 418.1722
1176.486, 424.1960
1176.968, 429.7813
1177.450, 435.0819
1177.932, 440.7013
1178.414, 446.8599
1178.896, 453.1630
1179.378, 459.3491
1179.860, 465.4283
1180.343, 471.3893
1180.825, 477.2746
1181.307, 482.9053
1181.789, 488.6429
1182.271, 495.2229
1182.753, 502.4827
1183.235, 509.4200
1183.717, 515.6049
1184.200, 521.6036
1184.682, 527.8708
1185.164, 533.8063
1185.646, 538.4817
1186.128, 543.2268
1186.610, 549.4271
1187.092, 556.5037
1187.574, 563.3017
1188.057, 569.7020
1188.539, 576.0057
1189.021, 582.2959
1189.503, 588.4426
1189.985, 594.3229
1190.467, 600.1641
1190.949, 606.0417
1191.431, 611.8674
1191.913, 617.4141
1192.396, 622.8447
1192.878, 628.7577
1193.360, 635.3190
1193.842, 640.8286
1194.324, 645.1193
1194.806, 648.7462
1195.288, 651.4494
1195.770, 655.0611
1196.252, 660.6777
1196.735, 666.7336
1197.217, 671.4022
1197.699, 675.0049
1198.181, 678.5934
1198.663, 682.0928
1199.145, 685.0255
1199.627, 687.3466
1200.109, 688.6103
1200.592, 688.8918
1201.074, 690.0272
1201.556, 693.1227
1202.038, 696.5434
1202.520, 698.1342
1203.002, 699.0594
1203.484, 701.4377
1203.966, 704.4431
1204.448, 706.8640
1204.931, 708.5081
1205.413, 709.2116
1205.895, 709.0334
1206.377, 708.4681
1206.859, 707.5824
1207.341, 706.9388
1207.823, 706.8866
1208.305, 707.2072
1208.787, 708.1954
1209.270, 709.1068
1209.752, 709.2423
1210.234, 708.6487
1210.716, 707.2913
1211.198, 705.0568
1211.680, 704.0801
1212.162, 706.3531
1212.644, 707.2914
1213.127, 705.3423
1213.609, 703.1693
1214.091, 701.6268
1214.573, 700.4305
1215.055, 699.3264
1215.537, 698.3571
1216.019, 697.7325
1216.501, 697.5575
1216.984, 696.7990
1217.466, 695.4484
1217.948, 693.4018
1218.430, 690.5309
1218.912, 688.1642
1219.394, 686.9733
1219.876, 686.1973
1220.358, 684.9061
1220.840, 683.6522
1221.323, 684.3889
1221.805, 682.6714
1222.287, 684.8257
1222.769, 681.4373
1223.251, 680.1791
1223.733, 681.2980
1224.215, 681.3798
1224.697, 678.8102
1225.179, 675.6824
1225.662, 673.6246
1226.144, 671.9562
1226.626, 669.8473
1227.108, 668.0186
1227.590, 667.8207
1228.072, 668.1570
1228.554, 666.8390
1229.036, 664.0370
1229.519, 662.2719
1230.001, 662.7185
1230.483, 662.4698
1230.965, 660.3574
1231.447, 658.1483
1231.929, 656.0519
1232.411, 654.4232
1232.893, 654.0049
1233.375, 653.7253
1233.858, 652.0731
1234.340, 649.1453
1234.822, 645.6338
1235.304, 641.1459
1235.786, 638.0154
1236.268, 636.5446
1236.750, 635.0141
1237.232, 632.9850
1237.714, 630.7118
1238.197, 628.3232
1238.679, 626.0096
1239.161, 624.0956
1239.643, 622.3757
1240.125, 620.3282
1240.607, 617.9597
1241.089, 615.0209
1241.571, 611.7960
1242.054, 609.2754
1242.536, 607.5587
1243.018, 605.8147
1243.500, 603.6415
1243.982, 601.0811
1244.464, 597.8167
1244.946, 594.5573
1245.428, 591.8063
1245.910, 589.3502
1246.393, 587.0107
1246.875, 584.7917
1247.357, 582.8292
1247.839, 581.0965
1248.321, 579.2328
1248.803, 577.3782
1249.285, 574.9457
1249.767, 570.9752
1250.250, 568.0313
1250.732, 567.5495
1251.214, 566.6414
1251.696, 563.1596
1252.178, 558.8992
1252.660, 556.6272
1253.142, 553.9140
1253.624, 551.8123
1254.106, 550.5472
1254.589, 548.8377
1255.071, 548.7129
1255.553, 547.7468
1256.035, 545.4636
1256.517, 543.6687
1256.999, 543.4232
1257.481, 543.2153
1257.963, 541.2062
1258.445, 538.5254
1258.928, 536.4304
1259.410, 534.8723
1259.892, 534.1133
1260.374, 533.6691
1260.856, 532.6308
1261.338, 530.9962
1261.820, 529.4590
1262.302, 528.2535
1262.785, 527.0248
1263.267, 525.8434
1263.749, 524.3572
1264.231, 521.5520
1264.713, 519.4813
1265.195, 520.2179
1265.677, 521.4353
1266.159, 520.3924
1266.641, 517.6735
1267.124, 515.5842
1267.606, 514.2121
1268.088, 512.8206
1268.570, 511.3833
1269.052, 510.2856
1269.534, 509.5999
1270.016, 508.7311
1270.498, 507.3994
1270.980, 506.2286
1271.463, 505.8860
1271.945, 505.7986
1272.427, 504.9802
1272.909, 503.8312
1273.391, 502.8091
1273.873, 502.1241
1274.355, 502.7172
1274.837, 503.8568
1275.320, 502.9522
1275.802, 499.4705
1276.284, 496.9689
1276.766, 497.7641
1277.248, 498.2667
1277.730, 496.8151
1278.212, 495.4177
1278.694, 495.2428
1279.177, 495.3134
1279.659, 494.9309
1280.141, 494.1299
1280.623, 492.8049
1281.105, 492.4726
1281.587, 490.3088
1282.069, 490.9301
1282.551, 490.6192
1283.033, 489.1656
1283.516, 488.1179
1283.998, 487.8916
1284.480, 487.7246
1284.962, 487.1289
1285.444, 486.4076
1285.926, 485.9091
1286.408, 485.6685
##END=



