##NAMES=Marialite
##RRUFFID=R060469
##IDEAL CHEMISTRY=Na_4_Al_3_Si_9_O_24_Cl
##LOCALITY=Mpwa-Mpwa mine, Umba Valley, near Arusha, Tanzania
##OWNER=RRUFF
##SOURCE=Michael Scott
##DESCRIPTION=Yellow tetragonal prism with pronounced striations along the c-axis direction
##STATUS=The identification of this mineral has been confirmed by X-ray diffraction and chemical analysis
##URL=rruff.info/R060469
##MEASURED CHEMISTRY=(Na_0.66_Ca_0.27_K_0.07_)_4_(Si_0.68_Al_0.32_)_12_O_24_(Cl_0.75_(CO_3_)_0.25_)
91.72394, 0.0000000E+00
92.20605, 228.3754
92.68817, 222.3535
93.17029, 221.2099
93.65240, 225.4819
94.13452, 232.1866
94.61664, 238.2778
95.09875, 242.9526
95.58087, 246.5270
96.06299, 249.1461
96.54510, 250.4942
97.02721, 251.3141
97.50933, 252.1046
97.99145, 252.6623
98.47356, 252.6667
98.95568, 251.7447
99.43780, 249.5314
99.91991, 246.9705
100.4020, 243.7051
100.8841, 240.5724
101.3663, 237.8680
101.8484, 235.5624
102.3305, 233.4645
102.8126, 231.3627
103.2947, 229.1866
103.7768, 227.4133
104.2590, 226.1724
104.7411, 225.2282
105.2232, 224.3987
105.7053, 223.6623
106.1874, 222.9036
106.6695, 221.9363
107.1517, 220.7784
107.6338, 219.4584
108.1159, 218.0014
108.5980, 216.3897
109.0801, 214.5495
109.5622, 212.4840
110.0444, 210.0971
110.5265, 207.0886
111.0086, 203.3977
111.4907, 199.9104
111.9728, 197.9295
112.4549, 198.1636
112.9371, 197.4591
113.4192, 194.2540
113.9013, 190.5279
114.3834, 187.7089
114.8655, 186.3564
115.3476, 185.9789
115.8298, 185.2933
116.3119, 183.8286
116.7940, 182.6173
117.2761, 181.8378
117.7582, 181.3425
118.2403, 180.9167
118.7225, 180.4216
119.2046, 179.8850
119.6867, 179.6738
120.1688, 179.8202
120.6509, 180.1713
121.1330, 180.8748
121.6152, 181.8049
122.0973, 182.5391
122.5794, 182.6985
123.0615, 182.2668
123.5436, 181.9669
124.0257, 181.8822
124.5079, 181.8785
124.9900, 181.9310
125.4721, 182.0822
125.9542, 182.0029
126.4363, 181.0427
126.9184, 179.5563
127.4006, 178.4067
127.8827, 178.2136
128.3648, 178.6445
128.8469, 178.6931
129.3290, 178.2227
129.8111, 177.4001
130.2932, 176.2250
130.7754, 174.7947
131.2575, 173.4370
131.7396, 172.4592
132.2217, 171.9094
132.7038, 171.3169
133.1859, 170.5791
133.6681, 169.8596
134.1502, 169.2479
134.6323, 168.7435
135.1144, 168.2785
135.5965, 167.7399
136.0786, 166.9870
136.5608, 166.4601
137.0429, 166.0471
137.5250, 165.8736
138.0071, 166.1523
138.4892, 166.9154
138.9713, 167.8860
139.4535, 168.4768
139.9356, 168.3858
140.4177, 168.3112
140.8998, 168.2866
141.3819, 168.2992
141.8640, 168.2292
142.3462, 167.9469
142.8283, 167.7495
143.3104, 168.5672
143.7925, 170.8250
144.2746, 173.0919
144.7567, 174.7157
145.2388, 175.8278
145.7210, 177.0069
146.2031, 178.5662
146.6852, 180.3445
147.1673, 181.9620
147.6494, 183.2071
148.1315, 184.5759
148.6137, 186.7005
149.0958, 189.7172
149.5779, 192.5439
150.0600, 194.4129
150.5421, 195.9207
151.0242, 197.6310
151.5064, 199.7774
151.9885, 202.1464
152.4706, 204.2154
152.9527, 205.6800
153.4348, 207.4742
153.9169, 210.4421
154.3991, 213.7083
154.8812, 216.1343
155.3633, 216.9325
155.8454, 216.4416
156.3275, 216.7285
156.8096, 218.8675
157.2918, 220.7130
157.7739, 221.6552
158.2560, 222.0011
158.7381, 222.3757
159.2202, 223.3067
159.7023, 224.8326
160.1845, 225.3913
160.6666, 224.6428
161.1487, 223.4218
161.6308, 221.9666
162.1129, 220.2959
162.5950, 218.3226
163.0772, 215.9579
163.5593, 213.1265
164.0414, 210.3075
164.5235, 207.7135
165.0056, 204.9913
165.4877, 201.8493
165.9698, 198.2707
166.4520, 194.5745
166.9341, 191.0545
167.4162, 187.7198
167.8983, 184.4256
168.3804, 181.0159
168.8625, 177.6796
169.3447, 174.7439
169.8268, 172.3367
170.3089, 170.0067
170.7910, 167.2169
171.2731, 164.1018
171.7552, 161.1290
172.2374, 158.4112
172.7195, 155.9749
173.2016, 153.9083
173.6837, 152.2686
174.1658, 150.9787
174.6479, 149.9035
175.1301, 149.0449
175.6122, 148.4102
176.0943, 148.1352
176.5764, 148.1969
177.0585, 148.0472
177.5406, 147.3800
178.0228, 146.7412
178.5049, 146.4743
178.9870, 146.5150
179.4691, 146.5429
179.9512, 146.1160
180.4333, 145.0112
180.9155, 144.5000
181.3976, 145.2427
181.8797, 146.0359
182.3618, 146.2682
182.8439, 145.9322
183.3260, 145.4570
183.8082, 145.3992
184.2903, 146.0240
184.7724, 146.3752
185.2545, 146.2038
185.7366, 145.9984
186.2187, 146.1582
186.7009, 146.7160
187.1830, 147.3268
187.6651, 147.4884
188.1472, 146.9472
188.6293, 146.4257
189.1114, 146.0205
189.5936, 145.5863
190.0757, 144.9217
190.5578, 143.9849
191.0399, 143.0187
191.5220, 142.4446
192.0041, 142.4552
192.4863, 142.3274
192.9684, 141.8588
193.4505, 141.2538
193.9326, 140.7784
194.4147, 140.5195
194.8968, 140.3637
195.3790, 140.1820
195.8611, 140.0213
196.3432, 139.6406
196.8253, 138.7434
197.3074, 137.5794
197.7895, 136.6687
198.2717, 136.1301
198.7538, 135.9437
199.2359, 136.1903
199.7180, 136.8872
200.2001, 137.4206
200.6822, 137.3447
201.1644, 136.7829
201.6465, 136.3171
202.1286, 136.0036
202.6107, 135.9333
203.0928, 136.2518
203.5749, 136.9487
204.0571, 137.5923
204.5392, 137.8215
205.0213, 137.6431
205.5034, 137.4382
205.9855, 137.2750
206.4676, 137.0943
206.9497, 136.8407
207.4319, 136.5201
207.9140, 136.2060
208.3961, 135.9904
208.8782, 135.8959
209.3603, 135.7584
209.8424, 135.3877
210.3246, 135.1004
210.8067, 135.1637
211.2888, 135.5507
211.7709, 135.9357
212.2530, 135.8252
212.7351, 134.8996
213.2173, 134.5073
213.6994, 135.0553
214.1815, 135.7915
214.6636, 136.3290
215.1457, 136.6078
215.6278, 136.8024
216.1100, 137.1399
216.5921, 137.6904
217.0742, 138.2196
217.5563, 138.9377
218.0384, 139.4944
218.5205, 139.6100
219.0027, 139.2716
219.4848, 138.7187
219.9669, 138.2503
220.4490, 137.8249
220.9311, 137.6387
221.4132, 138.2035
221.8954, 138.6432
222.3775, 138.1794
222.8596, 136.7281
223.3417, 134.9292
223.8238, 133.5794
224.3059, 132.8433
224.7881, 132.2169
225.2702, 131.8030
225.7523, 131.4345
226.2344, 130.9837
226.7165, 130.4239
227.1986, 129.7867
227.6807, 129.1122
228.1629, 128.4088
228.6450, 127.5983
229.1271, 126.6028
229.6092, 125.5346
230.0913, 124.4932
230.5734, 123.4953
231.0556, 122.5731
231.5377, 121.8164
232.0198, 121.2240
232.5019, 120.5492
232.9840, 119.5846
233.4661, 118.5911
233.9483, 117.9198
234.4304, 117.6447
234.9125, 117.5133
235.3946, 117.2571
235.8767, 116.9219
236.3588, 116.7426
236.8410, 117.0420
237.3231, 117.4440
237.8052, 117.2779
238.2873, 116.3320
238.7694, 115.3884
239.2515, 115.2440
239.7337, 115.5920
240.2158, 115.7722
240.6979, 115.2900
241.1800, 114.5614
241.6621, 114.4107
242.1442, 115.0030
242.6264, 115.7597
243.1085, 116.4173
243.5906, 116.9756
244.0727, 117.4108
244.5548, 117.6999
245.0369, 117.8639
245.5191, 117.8901
246.0012, 117.6489
246.4833, 117.5874
246.9654, 117.8852
247.4475, 118.4773
247.9296, 119.3452
248.4117, 120.5931
248.8939, 121.9987
249.3760, 123.0734
249.8581, 123.7129
250.3402, 124.2140
250.8223, 124.3477
251.3044, 124.5309
251.7866, 125.3120
252.2687, 127.0129
252.7508, 129.2168
253.2329, 130.9615
253.7150, 131.9262
254.1971, 133.0660
254.6793, 134.5771
255.1614, 136.3581
255.6435, 138.4144
256.1256, 140.7627
256.6077, 143.1789
257.0898, 145.1798
257.5720, 146.5277
258.0541, 147.8941
258.5362, 149.5504
259.0183, 151.1804
259.5004, 152.5161
259.9825, 153.4616
260.4647, 154.1362
260.9468, 154.8075
261.4289, 155.7666
261.9110, 156.0903
262.3931, 155.6855
262.8752, 154.7779
263.3574, 153.4750
263.8395, 151.8257
264.3216, 149.9301
264.8037, 147.9573
265.2858, 146.0790
265.7679, 143.7249
266.2501, 140.5898
266.7322, 137.2865
267.2143, 134.1686
267.6964, 131.3396
268.1785, 128.7635
268.6606, 126.4162
269.1428, 124.3919
269.6249, 122.3870
270.1070, 120.1969
270.5891, 118.1744
271.0712, 116.6209
271.5533, 115.5135
272.0355, 114.5609
272.5176, 113.4482
272.9997, 112.1523
273.4818, 110.8102
273.9639, 109.1410
274.4460, 107.6734
274.9282, 106.7888
275.4103, 106.4115
275.8924, 106.1542
276.3745, 105.6451
276.8566, 104.8206
277.3387, 104.3765
277.8208, 104.6247
278.3029, 104.8595
278.7851, 104.7442
279.2672, 104.3422
279.7493, 103.9046
280.2314, 103.6091
280.7135, 103.4533
281.1956, 103.3622
281.6778, 103.2143
282.1599, 103.2396
282.6420, 103.6408
283.1241, 104.2787
283.6062, 104.8708
284.0883, 105.2594
284.5705, 105.4543
285.0526, 105.4823
285.5347, 105.1480
286.0168, 104.8990
286.4989, 104.8378
286.9810, 104.9314
287.4632, 105.1393
287.9453, 105.4531
288.4274, 105.8319
288.9095, 106.1667
289.3916, 106.4823
289.8737, 106.7214
290.3559, 106.7409
290.8380, 106.7159
291.3201, 106.9342
291.8022, 107.5073
292.2843, 108.2057
292.7664, 108.5956
293.2486, 108.4597
293.7307, 108.5363
294.2128, 108.9020
294.6949, 109.5127
295.1770, 110.4071
295.6591, 111.5933
296.1413, 112.8365
296.6234, 113.8850
297.1055, 114.7568
297.5876, 115.2247
298.0697, 115.3096
298.5518, 114.9694
299.0340, 114.0232
299.5161, 112.4964
299.9982, 110.8059
300.4803, 109.3184
300.9624, 108.0608
301.4445, 106.8262
301.9267, 105.5054
302.4088, 104.3031
302.8909, 103.3938
303.3730, 102.7523
303.8551, 102.1521
304.3372, 101.4034
304.8194, 100.5534
305.3015, 99.96194
305.7836, 99.85851
306.2657, 99.75404
306.7478, 99.36607
307.2299, 98.77794
307.7121, 98.25517
308.1942, 97.94561
308.6763, 97.78639
309.1584, 97.54932
309.6405, 97.03127
310.1227, 96.74488
310.6048, 97.02722
311.0869, 97.63539
311.5690, 98.07565
312.0511, 98.13060
312.5332, 98.05397
313.0154, 98.42040
313.4975, 99.48357
313.9796, 100.1627
314.4617, 99.88337
314.9438, 99.23813
315.4259, 99.02749
315.9081, 99.45646
316.3902, 100.1164
316.8723, 100.5102
317.3544, 100.5876
317.8365, 100.7147
318.3186, 100.9304
318.8007, 101.2015
319.2828, 101.4517
319.7650, 101.6866
320.2471, 102.0767
320.7292, 102.8372
321.2113, 103.9670
321.6934, 104.8260
322.1755, 105.2760
322.6577, 105.5901
323.1398, 105.8225
323.6219, 106.0307
324.1040, 106.4597
324.5861, 107.3425
325.0682, 108.5302
325.5504, 109.2343
326.0325, 109.1250
326.5146, 108.9846
326.9967, 108.9867
327.4788, 109.1593
327.9609, 109.6024
328.4431, 110.3964
328.9252, 111.3840
329.4073, 112.2028
329.8894, 112.8126
330.3715, 113.3741
330.8536, 113.9219
331.3358, 114.4326
331.8179, 114.7806
332.3000, 114.9283
332.7821, 115.2090
333.2642, 116.2055
333.7463, 118.3387
334.2285, 119.5223
334.7106, 118.8401
335.1927, 117.7562
335.6748, 117.4011
336.1569, 117.8829
336.6390, 118.7295
337.1212, 119.5874
337.6033, 120.4591
338.0854, 121.1387
338.5675, 121.6429
339.0496, 121.9747
339.5317, 122.0217
340.0139, 121.8831
340.4960, 121.8034
340.9781, 121.9145
341.4602, 122.2119
341.9423, 122.6965
342.4244, 123.7730
342.9066, 124.5246
343.3887, 124.4462
343.8708, 124.0142
344.3529, 123.9287
344.8350, 124.4601
345.3171, 125.3550
345.7993, 126.1424
346.2814, 126.7879
346.7635, 127.3657
347.2456, 127.8003
347.7277, 128.2093
348.2098, 128.6460
348.6920, 129.1370
349.1741, 129.7597
349.6562, 130.5915
350.1383, 131.6528
350.6204, 132.8878
351.1025, 134.5921
351.5847, 136.1705
352.0668, 137.2192
352.5489, 137.8532
353.0310, 138.4609
353.5131, 139.3157
353.9952, 140.3904
354.4774, 141.4306
354.9595, 142.1758
355.4416, 143.1831
355.9237, 144.7759
356.4058, 146.6296
356.8879, 148.3314
357.3701, 149.6926
357.8522, 150.7957
358.3343, 151.8594
358.8164, 153.1122
359.2985, 153.9299
359.7806, 154.1846
360.2627, 154.1215
360.7448, 153.9410
361.2270, 153.6710
361.7091, 153.1884
362.1912, 152.3101
362.6733, 150.9283
363.1554, 149.6220
363.6375, 148.4855
364.1197, 147.3326
364.6018, 145.9682
365.0839, 144.5098
365.5660, 143.2737
366.0481, 142.5040
366.5302, 142.1449
367.0124, 141.7613
367.4945, 141.2464
367.9766, 140.8544
368.4587, 140.7088
368.9408, 140.6792
369.4229, 140.6223
369.9051, 140.4801
370.3872, 140.2796
370.8693, 140.0373
371.3514, 139.6611
371.8335, 139.4944
372.3156, 139.7487
372.7978, 140.0828
373.2799, 140.2625
373.7620, 140.2764
374.2441, 140.3038
374.7262, 140.6265
375.2083, 141.2737
375.6905, 141.5077
376.1726, 140.9288
376.6547, 140.3690
377.1368, 140.2488
377.6189, 140.4143
378.1010, 140.5212
378.5832, 140.3551
379.0653, 140.0212
379.5474, 139.7745
380.0295, 139.5848
380.5116, 139.5681
380.9937, 140.0937
381.4759, 140.6549
381.9580, 140.6807
382.4401, 139.9744
382.9222, 139.0893
383.4043, 138.6632
383.8864, 138.6898
384.3686, 138.5900
384.8507, 138.1772
385.3328, 137.6584
385.8149, 137.3103
386.2970, 137.0913
386.7791, 136.6089
387.2613, 135.2535
387.7434, 133.5278
388.2255, 132.7517
388.7076, 133.2477
389.1897, 133.8855
389.6718, 133.8598
390.1540, 133.4017
390.6361, 132.9317
391.1182, 132.4894
391.6003, 132.1102
392.0824, 131.9091
392.5645, 131.8524
393.0467, 131.6288
393.5288, 131.0626
394.0109, 130.3018
394.4930, 129.5675
394.9751, 128.7830
395.4572, 128.2835
395.9394, 128.4660
396.4215, 128.9502
396.9036, 129.0550
397.3857, 128.6161
397.8678, 128.0404
398.3499, 127.7784
398.8321, 127.8543
399.3142, 127.7321
399.7963, 127.0174
400.2784, 126.3975
400.7605, 126.5368
401.2426, 127.2679
401.7247, 127.8067
402.2068, 127.6549
402.6890, 126.9803
403.1711, 126.5316
403.6532, 126.3709
404.1353, 126.3175
404.6174, 126.4035
405.0995, 126.5553
405.5817, 126.7081
406.0638, 126.8373
406.5459, 126.8965
407.0280, 126.7887
407.5101, 126.3673
407.9922, 126.2731
408.4744, 126.7595
408.9565, 127.3043
409.4386, 127.6494
409.9207, 127.8000
410.4028, 127.8724
410.8849, 127.9493
411.3671, 128.0226
411.8492, 128.0235
412.3313, 127.6332
412.8134, 127.5865
413.2955, 128.2148
413.7776, 129.1182
414.2598, 129.8450
414.7419, 130.2547
415.2240, 130.5902
415.7061, 131.3252
416.1882, 132.7445
416.6703, 133.5700
417.1525, 133.1217
417.6346, 132.5947
418.1167, 132.5540
418.5988, 132.9220
419.0809, 133.2965
419.5630, 133.3739
420.0452, 133.2385
420.5273, 133.2512
421.0094, 133.4520
421.4915, 133.7231
421.9736, 134.3411
422.4557, 134.8639
422.9379, 134.6507
423.4200, 133.4239
423.9021, 132.0663
424.3842, 131.6242
424.8663, 132.0565
425.3484, 132.2839
425.8306, 131.9622
426.3127, 131.5258
426.7948, 131.3397
427.2769, 131.3829
427.7590, 131.5380
428.2411, 131.8183
428.7233, 132.1547
429.2054, 132.4300
429.6875, 132.6358
430.1696, 132.8521
430.6517, 133.0976
431.1339, 133.4032
431.6160, 133.8122
432.0981, 134.2674
432.5802, 134.9186
433.0623, 135.9258
433.5444, 137.1704
434.0266, 138.3800
434.5087, 139.4496
434.9908, 140.5887
435.4729, 142.1126
435.9550, 144.1299
436.4371, 146.0682
436.9193, 147.9617
437.4014, 149.7298
437.8835, 151.1234
438.3656, 152.2848
438.8477, 153.7603
439.3298, 155.9576
439.8120, 158.7005
440.2941, 160.9895
440.7762, 161.9755
441.2583, 163.5715
441.7404, 166.2856
442.2225, 169.5318
442.7046, 172.7765
443.1867, 175.8435
443.6689, 178.7860
444.1510, 181.5233
444.6331, 183.8264
445.1152, 187.1197
445.5973, 192.2812
446.0794, 197.5659
446.5616, 201.7714
447.0437, 205.6967
447.5258, 211.0296
448.0079, 218.8005
448.4900, 228.1748
448.9721, 237.0160
449.4543, 244.8885
449.9364, 253.4725
450.4185, 263.8752
450.9006, 274.7088
451.3827, 285.1500
451.8648, 295.0809
452.3470, 304.6802
452.8291, 314.4778
453.3112, 324.1538
453.7933, 331.9368
454.2754, 337.3951
454.7575, 341.6769
455.2397, 345.4329
455.7218, 348.5379
456.2039, 350.5848
456.6860, 351.2113
457.1681, 351.1284
457.6502, 351.2431
458.1324, 351.2693
458.6145, 349.9120
459.0966, 346.7406
459.5787, 342.0128
460.0608, 335.7348
460.5429, 327.8881
461.0251, 319.7479
461.5072, 311.7130
461.9893, 303.3860
462.4714, 294.2213
462.9535, 284.3205
463.4356, 274.3857
463.9178, 264.7685
464.3999, 255.5235
464.8820, 246.6626
465.3641, 238.2310
465.8462, 230.0898
466.3283, 222.0217
466.8105, 214.2576
467.2926, 207.0710
467.7747, 200.4891
468.2568, 194.4277
468.7389, 188.8321
469.2210, 183.7154
469.7032, 178.6847
470.1853, 173.6367
470.6674, 168.7833
471.1495, 164.0761
471.6316, 159.6457
472.1137, 155.7676
472.5959, 152.5919
473.0780, 149.8593
473.5601, 147.1112
474.0422, 144.3465
474.5243, 141.5929
475.0064, 138.9744
475.4886, 136.2771
475.9707, 133.0322
476.4528, 129.4619
476.9349, 126.5769
477.4170, 125.4776
477.8991, 125.4177
478.3813, 124.6417
478.8634, 123.0404
479.3455, 121.3711
479.8276, 119.9717
480.3097, 118.7683
480.7918, 117.6313
481.2740, 116.5781
481.7561, 115.5336
482.2382, 114.3644
482.7203, 113.2015
483.2024, 112.3427
483.6845, 111.8590
484.1666, 111.4411
484.6487, 110.8261
485.1309, 110.0006
485.6130, 108.9801
486.0951, 107.2706
486.5772, 105.9018
487.0593, 105.5206
487.5414, 105.7429
488.0236, 105.8753
488.5057, 105.6404
488.9878, 105.2100
489.4699, 104.9098
489.9520, 104.9283
490.4341, 104.5902
490.9163, 103.5280
491.3984, 102.5131
491.8805, 102.0413
492.3626, 101.9490
492.8447, 101.7469
493.3268, 101.0932
493.8090, 100.2014
494.2911, 99.70598
494.7732, 99.70872
495.2553, 99.83681
495.7374, 100.2451
496.2195, 100.5807
496.7017, 100.4960
497.1838, 100.0071
497.6659, 99.56315
498.1480, 99.58977
498.6301, 99.89500
499.1122, 99.94913
499.5944, 99.71150
500.0765, 99.31660
500.5586, 98.69798
501.0407, 98.01546
501.5228, 97.58976
502.0049, 97.47359
502.4871, 97.53013
502.9692, 97.83647
503.4513, 98.23241
503.9334, 98.42491
504.4155, 98.34895
504.8976, 98.12735
505.3798, 97.84296
505.8619, 97.48507
506.3440, 97.32244
506.8261, 97.56013
507.3082, 97.74454
507.7903, 97.67243
508.2725, 97.45072
508.7546, 97.21548
509.2367, 97.02444
509.7188, 96.93511
510.2009, 97.07793
510.6830, 97.58527
511.1652, 97.87746
511.6473, 97.63377
512.1294, 97.49198
512.6115, 97.76413
513.0936, 98.31880
513.5757, 98.84303
514.0579, 99.14567
514.5400, 99.43723
515.0221, 100.2366
515.5042, 101.6664
515.9863, 102.6601
516.4684, 102.6058
516.9506, 102.4018
517.4327, 102.8383
517.9148, 103.8494
518.3969, 104.8824
518.8790, 105.8028
519.3611, 106.5673
519.8433, 106.9514
520.3254, 107.0044
520.8075, 107.4045
521.2896, 108.5428
521.7717, 110.1496
522.2538, 111.6522
522.7360, 113.1993
523.2181, 114.2996
523.7002, 114.2182
524.1823, 114.1027
524.6644, 115.0611
525.1465, 117.0490
525.6287, 119.2867
526.1108, 121.1995
526.5929, 122.8770
527.0750, 124.8503
527.5571, 127.2629
528.0392, 129.7697
528.5214, 132.1328
529.0035, 134.7210
529.4856, 137.7888
529.9677, 141.3849
530.4498, 145.4632
530.9319, 150.1033
531.4141, 155.2006
531.8962, 160.2013
532.3783, 165.0922
532.8604, 169.8808
533.3425, 174.7050
533.8246, 179.3491
534.3068, 183.7681
534.7889, 188.0312
535.2710, 191.4375
535.7531, 193.6538
536.2352, 194.6793
536.7173, 194.5283
537.1995, 193.2007
537.6816, 190.6415
538.1637, 186.4806
538.6458, 181.0024
539.1279, 176.1418
539.6100, 172.9090
540.0922, 168.9878
540.5743, 162.9655
541.0564, 156.2317
541.5385, 150.4091
542.0206, 145.8677
542.5027, 142.1178
542.9849, 138.7229
543.4670, 135.6854
543.9491, 132.8605
544.4312, 129.9554
544.9133, 127.6790
545.3954, 126.7512
545.8775, 126.2402
546.3596, 125.0323
546.8417, 122.8676
547.3239, 120.5252
547.8060, 118.8546
548.2881, 117.8044
548.7702, 116.8573
549.2523, 115.9911
549.7344, 115.2267
550.2166, 114.5827
550.6987, 114.0511
551.1808, 113.6678
551.6629, 113.5580
552.1450, 113.3267
552.6271, 112.4861
553.1093, 111.3911
553.5914, 110.8257
554.0735, 110.9543
554.5556, 111.3226
555.0377, 111.5700
555.5198, 111.6940
556.0020, 111.6071
556.4841, 111.0181
556.9662, 110.6015
557.4483, 110.5451
557.9304, 110.7508
558.4125, 111.1910
558.8947, 111.8136
559.3768, 112.3824
559.8589, 112.6138
560.3410, 112.4982
560.8231, 112.4133
561.3052, 112.3214
561.7874, 112.3224
562.2695, 112.6229
562.7516, 112.9393
563.2337, 112.8777
563.7158, 112.3223
564.1979, 111.7385
564.6801, 111.4607
565.1622, 111.4737
565.6443, 111.7894
566.1264, 112.4649
566.6085, 113.1608
567.0906, 113.6479
567.5728, 113.9683
568.0549, 114.3197
568.5370, 114.7985
569.0191, 115.1578
569.5012, 115.2224
569.9833, 115.1660
570.4655, 115.1715
570.9476, 115.2814
571.4297, 115.5270
571.9118, 115.9861
572.3939, 116.6118
572.8760, 116.7602
573.3582, 115.6204
573.8403, 115.1248
574.3224, 116.0556
574.8045, 117.3691
575.2866, 118.1540
575.7687, 118.2947
576.2509, 118.2472
576.7330, 118.3842
577.2151, 118.6467
577.6972, 118.8070
578.1793, 118.8533
578.6614, 118.8420
579.1436, 118.7183
579.6257, 118.6040
580.1078, 118.6924
580.5899, 119.0234
581.0720, 119.3373
581.5541, 119.5004
582.0363, 119.6193
582.5184, 119.9436
583.0005, 120.4005
583.4826, 120.4461
583.9647, 119.6604
584.4468, 118.4695
584.9290, 118.1382
585.4111, 119.6043
585.8932, 120.4746
586.3753, 120.2683
586.8574, 119.9274
587.3395, 120.1620
587.8217, 120.7913
588.3038, 121.1075
588.7859, 120.5999
589.2680, 119.7726
589.7501, 119.9291
590.2322, 121.3100
590.7144, 121.8859
591.1965, 120.6427
591.6786, 119.1540
592.1607, 118.8850
592.6428, 119.5783
593.1249, 120.0584
593.6071, 119.7685
594.0892, 119.3056
594.5713, 119.1123
595.0534, 119.1445
595.5355, 119.3089
596.0176, 119.5851
596.4998, 119.8746
596.9819, 120.0707
597.4640, 120.1917
597.9461, 120.0922
598.4282, 119.5604
598.9103, 119.0848
599.3925, 118.8625
599.8746, 118.7711
600.3567, 118.6200
600.8388, 118.3575
601.3209, 118.1188
601.8030, 118.0906
602.2852, 118.2613
602.7673, 118.3762
603.2494, 118.4639
603.7315, 118.4226
604.2136, 118.1104
604.6957, 117.6683
605.1779, 117.2933
605.6600, 117.0318
606.1421, 116.7233
606.6242, 116.2207
607.1063, 115.6524
607.5884, 115.2136
608.0706, 114.9143
608.5527, 114.6225
609.0348, 114.2364
609.5169, 113.8235
609.9990, 113.6190
610.4811, 113.8818
610.9633, 113.9795
611.4454, 113.8199
611.9275, 113.5775
612.4096, 113.3853
612.8917, 113.2131
613.3738, 112.9303
613.8560, 112.4387
614.3381, 111.8515
614.8202, 111.3279
615.3023, 110.8497
615.7844, 110.7056
616.2665, 111.2914
616.7487, 111.7452
617.2308, 111.0915
617.7129, 109.6139
618.1950, 108.4021
618.6771, 107.7222
619.1592, 107.3213
619.6414, 107.2551
620.1235, 107.3146
620.6056, 107.0259
621.0877, 106.2871
621.5698, 105.5313
622.0519, 105.2417
622.5341, 105.4219
623.0162, 105.3911
623.4983, 105.1666
623.9804, 104.6861
624.4625, 103.6041
624.9446, 102.4808
625.4268, 101.9032
625.9089, 101.9136
626.3910, 102.0301
626.8730, 101.9541
627.3552, 101.6914
627.8373, 101.1892
628.3194, 100.4225
628.8015, 99.74844
629.2836, 99.35526
629.7657, 99.06709
630.2479, 98.58397
630.7300, 97.89211
631.2121, 97.23714
631.6942, 96.53543
632.1763, 95.99038
632.6584, 95.86244
633.1406, 95.97183
633.6227, 95.93544
634.1048, 95.60215
634.5869, 95.11577
635.0690, 94.68607
635.5511, 94.32534
636.0333, 93.91321
636.5154, 93.34448
636.9975, 92.87657
637.4796, 92.69748
637.9617, 92.62008
638.4438, 92.41743
638.9260, 92.04168
639.4081, 91.55350
639.8902, 90.85367
640.3723, 90.12288
640.8544, 89.74812
641.3365, 89.74446
641.8187, 89.74360
642.3008, 89.56812
642.7829, 89.21333
643.2650, 88.63612
643.7471, 87.49179
644.2292, 86.80985
644.7114, 86.98208
645.1935, 87.24377
645.6756, 87.15567
646.1577, 86.81528
646.6398, 86.52660
647.1219, 86.43752
647.6041, 86.35573
648.0862, 85.93996
648.5683, 85.19772
649.0504, 84.60228
649.5325, 84.21569
650.0146, 83.94572
650.4968, 83.81750
650.9789, 83.74751
651.4610, 83.53588
651.9431, 83.05460
652.4252, 82.68792
652.9073, 82.73455
653.3895, 82.88387
653.8716, 82.74242
654.3537, 82.32915
654.8358, 81.96390
655.3179, 81.86416
655.8000, 81.90088
656.2822, 81.66825
656.7643, 80.94886
657.2464, 80.51891
657.7285, 80.71352
658.2106, 80.95293
658.6927, 81.02244
659.1749, 80.93331
659.6570, 80.69439
660.1391, 80.20432
660.6212, 79.85084
661.1033, 80.12050
661.5854, 80.78941
662.0676, 81.31906
662.5497, 81.62329
663.0318, 81.67513
663.5139, 81.42615
663.9960, 80.91980
664.4781, 80.37464
664.9603, 79.71728
665.4424, 79.12375
665.9245, 78.51726
666.4066, 78.04386
666.8887, 77.85548
667.3708, 77.89079
667.8530, 77.95274
668.3351, 77.92004
668.8172, 77.91765
669.2993, 78.26821
669.7814, 78.94434
670.2635, 79.21788
670.7457, 78.86951
671.2278, 78.36781
671.7099, 78.01646
672.1920, 77.81045
672.6741, 77.70079
673.1563, 77.68273
673.6384, 77.76636
674.1205, 78.20615
674.6026, 78.58113
675.0847, 78.28624
675.5668, 77.45839
676.0490, 76.85049
676.5311, 76.96945
677.0132, 77.55061
677.4953, 77.94103
677.9774, 78.11551
678.4595, 78.23006
678.9417, 78.40150
679.4238, 78.38488
679.9059, 77.85876
680.3880, 77.06409
680.8701, 76.55256
681.3522, 76.51431
681.8344, 76.61559
682.3165, 76.75018
682.7986, 76.86581
683.2807, 76.83796
683.7628, 76.68251
684.2449, 76.59370
684.7271, 76.70804
685.2092, 76.97288
685.6913, 77.25700
686.1734, 77.72713
686.6555, 77.82871
687.1376, 77.06376
687.6198, 76.37702
688.1019, 76.26407
688.5840, 76.54442
689.0661, 76.84614
689.5482, 77.08121
690.0303, 77.19175
690.5125, 76.95274
690.9946, 76.59287
691.4767, 76.75317
691.9588, 77.48369
692.4409, 77.97415
692.9230, 77.62422
693.4052, 76.80074
693.8873, 76.61247
694.3694, 77.78404
694.8515, 78.26151
695.3336, 77.38247
695.8157, 76.52980
696.2979, 76.53019
696.7800, 77.03075
697.2621, 77.27991
697.7442, 76.98190
698.2263, 76.58393
698.7084, 76.50687
699.1906, 76.70348
699.6727, 77.10891
700.1548, 77.73800
700.6369, 78.16321
701.1190, 78.07258
701.6011, 77.70893
702.0833, 77.67956
702.5654, 78.33179
703.0475, 78.48241
703.5296, 77.33914
704.0117, 76.47934
704.4938, 77.01096
704.9760, 78.30432
705.4581, 79.31634
705.9402, 79.67970
706.4223, 79.63813
706.9044, 79.28178
707.3865, 78.71873
707.8687, 78.45925
708.3508, 78.54896
708.8329, 78.72691
709.3149, 78.91458
709.7971, 79.08442
710.2792, 79.16534
710.7613, 79.12147
711.2434, 79.18809
711.7255, 79.45527
712.2076, 79.75779
712.6898, 80.08385
713.1719, 80.36344
713.6540, 80.49112
714.1361, 80.44676
714.6182, 80.31858
715.1003, 80.18046
715.5825, 80.03346
716.0646, 79.85017
716.5467, 79.60767
717.0288, 79.51456
717.5109, 79.72666
717.9930, 80.00803
718.4752, 80.06844
718.9573, 79.91469
719.4394, 79.72831
719.9215, 79.37273
720.4036, 79.16291
720.8857, 79.36245
721.3679, 79.70849
721.8500, 79.90584
722.3321, 79.89555
722.8142, 79.74676
723.2963, 79.47703
723.7784, 79.15813
724.2606, 78.99584
724.7427, 78.99500
725.2248, 79.11935
725.7069, 79.46546
726.1890, 79.75566
726.6711, 79.74243
727.1533, 79.45777
727.6354, 79.06074
728.1175, 78.28186
728.5996, 77.76740
729.0817, 77.92542
729.5638, 78.28204
730.0460, 78.40609
730.5281, 78.27872
731.0102, 78.06341
731.4923, 77.84954
731.9744, 77.63757
732.4565, 77.41734
732.9387, 77.18839
733.4208, 76.99332
733.9029, 76.81057
734.3850, 76.73434
734.8671, 76.90658
735.3492, 77.19952
735.8314, 77.25215
736.3135, 76.87231
736.7956, 76.79769
737.2777, 77.69638
737.7598, 78.47985
738.2419, 78.07001
738.7241, 76.99236
739.2062, 76.48828
739.6883, 77.00889
740.1704, 77.80380
740.6525, 77.88973
741.1346, 77.36840
741.6168, 77.10825
742.0989, 77.17065
742.5810, 77.19099
743.0631, 76.91378
743.5452, 76.63953
744.0273, 76.89855
744.5095, 77.73647
744.9916, 78.32628
745.4737, 78.53426
745.9558, 78.55881
746.4379, 78.22964
746.9200, 77.89959
747.4022, 78.16575
747.8843, 78.99848
748.3664, 79.60916
748.8485, 79.22217
749.3306, 78.37025
749.8127, 78.43078
750.2949, 79.40836
750.7770, 80.14662
751.2591, 80.32838
751.7412, 80.40011
752.2233, 80.77795
752.7054, 81.39750
753.1876, 81.78886
753.6697, 81.56071
754.1518, 81.67351
754.6339, 82.61204
755.1160, 83.62718
755.5981, 84.07340
756.0803, 84.12642
756.5624, 84.40520
757.0445, 85.22600
757.5266, 86.05629
758.0087, 86.01189
758.4908, 85.40681
758.9730, 85.59541
759.4551, 86.72665
759.9372, 87.76162
760.4193, 88.08314
760.9014, 88.13292
761.3835, 88.78843
761.8657, 90.31004
762.3478, 91.57603
762.8299, 92.60386
763.3120, 93.37173
763.7941, 93.66075
764.2762, 93.80257
764.7584, 94.11071
765.2405, 94.66548
765.7226, 95.50790
766.2047, 97.00769
766.6868, 98.57463
767.1689, 99.22422
767.6511, 99.14937
768.1332, 99.12637
768.6153, 99.35670
769.0974, 99.79243
769.5795, 100.4389
770.0616, 101.2413
770.5438, 101.7091
771.0259, 101.6989
771.5080, 101.6055
771.9901, 101.3127
772.4722, 101.0951
772.9543, 101.2879
773.4365, 101.6593
773.9186, 101.6685
774.4007, 101.1334
774.8828, 100.3016
775.3649, 99.19661
775.8470, 97.97456
776.3292, 96.83991
776.8113, 95.80146
777.2934, 94.83328
777.7755, 93.92495
778.2576, 92.95541
778.7397, 91.71519
779.2219, 90.18118
779.7040, 88.64428
780.1861, 87.13243
780.6682, 85.55397
781.1503, 83.77867
781.6324, 81.99614
782.1146, 80.40153
782.5967, 78.98641
783.0788, 77.73196
783.5609, 76.80728
784.0430, 75.84818
784.5251, 74.57236
785.0073, 73.18637
785.4894, 71.95789
785.9715, 70.92826
786.4536, 70.02068
786.9357, 69.19923
787.4178, 68.41658
787.9000, 67.58101
788.3821, 66.69562
788.8642, 65.72288
789.3463, 64.55879
789.8284, 63.66928
790.3105, 63.48649
790.7927, 63.74067
791.2747, 63.68944
791.7568, 63.25561
792.2390, 62.72527
792.7211, 61.89717
793.2032, 61.20509
793.6853, 60.90607
794.1674, 60.85986
794.6495, 60.93993
795.1317, 61.08064
795.6138, 61.02839
796.0959, 60.29502
796.5780, 59.39601
797.0601, 59.38477
797.5422, 60.07076
798.0244, 60.46911
798.5065, 60.30792
798.9886, 59.87186
799.4707, 59.39396
799.9528, 58.89353
800.4349, 58.54273
800.9171, 58.45867
801.3992, 58.28624
801.8813, 57.94648
802.3634, 57.54874
802.8455, 57.03471
803.3276, 56.52702
803.8098, 56.29292
804.2919, 56.44069
804.7740, 56.65850
805.2561, 56.90111
805.7382, 57.05260
806.2203, 56.93684
806.7025, 56.63365
807.1846, 56.38877
807.6667, 56.28550
808.1488, 56.10127
808.6309, 55.45177
809.1130, 54.48656
809.5952, 54.29193
810.0773, 55.03505
810.5594, 55.52555
811.0415, 55.35450
811.5236, 54.96984
812.0057, 54.79552
812.4879, 54.80640
812.9700, 54.71838
813.4521, 54.64657
813.9342, 54.31791
814.4163, 53.40019
814.8984, 52.46896
815.3806, 51.86557
815.8627, 51.60971
816.3448, 51.73670
816.8269, 52.29449
817.3090, 52.77833
817.7911, 52.58323
818.2733, 52.03244
818.7554, 51.72901
819.2375, 51.68995
819.7196, 51.82555
820.2017, 52.11180
820.6838, 52.42917
821.1660, 52.63007
821.6481, 52.71688
822.1302, 52.79127
822.6123, 52.92535
823.0944, 52.89174
823.5765, 52.57353
824.0587, 52.13621
824.5408, 51.53248
825.0229, 50.90273
825.5050, 50.74958
825.9871, 51.62444
826.4692, 52.04556
826.9514, 50.91524
827.4335, 49.51248
827.9156, 48.95840
828.3977, 49.14009
828.8798, 49.62015
829.3619, 50.21198
829.8441, 50.68551
830.3262, 50.71100
830.8083, 50.40600
831.2904, 50.19972
831.7725, 50.09259
832.2546, 49.94460
832.7368, 49.68236
833.2189, 49.49718
833.7010, 49.63581
834.1831, 50.05029
834.6652, 50.18650
835.1473, 49.67305
835.6295, 49.48058
836.1116, 50.04386
836.5937, 50.56413
837.0758, 50.52228
837.5579, 50.12912
838.0400, 49.85010
838.5222, 49.81389
839.0043, 49.77421
839.4864, 49.57568
839.9685, 49.33496
840.4506, 49.16656
840.9327, 49.05140
841.4149, 48.90353
841.8970, 48.71054
842.3791, 48.59871
842.8612, 48.71889
843.3433, 48.99374
843.8254, 49.17313
844.3076, 49.25486
844.7897, 49.28559
845.2718, 49.26320
845.7539, 49.22410
846.2360, 49.17870
846.7181, 49.14537
847.2003, 49.19104
847.6824, 49.36831
848.1645, 49.52141
848.6466, 49.81205
849.1287, 49.89748
849.6108, 49.40625
850.0930, 48.74650
850.5751, 48.43760
851.0572, 48.55727
851.5393, 48.84269
852.0214, 49.34243
852.5035, 49.77917
852.9857, 49.85801
853.4678, 49.72520
853.9499, 49.64590
854.4320, 49.65307
854.9141, 49.61464
855.3962, 49.43798
855.8784, 49.18375
856.3605, 48.93282
856.8426, 48.68932
857.3247, 48.68121
857.8068, 48.99434
858.2889, 49.16914
858.7711, 48.92662
859.2532, 48.52160
859.7353, 48.34792
860.2174, 48.44064
860.6995, 48.51149
861.1816, 48.68960
861.6638, 48.67451
862.1459, 48.21016
862.6280, 47.69628
863.1101, 47.45871
863.5922, 47.45717
864.0743, 47.46889
864.5565, 47.39902
865.0386, 47.39014
865.5207, 47.57378
866.0028, 47.83778
866.4849, 48.15065
866.9670, 48.42048
867.4492, 48.38632
867.9313, 47.96907
868.4134, 47.44574
868.8955, 47.05642
869.3776, 46.83887
869.8597, 47.05320
870.3419, 47.70276
870.8240, 48.06469
871.3061, 47.93472
871.7882, 47.64094
872.2703, 47.43698
872.7524, 47.29621
873.2346, 47.11044
873.7166, 46.79685
874.1987, 46.60290
874.6808, 46.65095
875.1630, 46.68395
875.6451, 46.53355
876.1272, 46.35917
876.6093, 46.39822
877.0914, 46.67011
877.5735, 46.87531
878.0557, 46.75386
878.5378, 46.71638
879.0199, 47.14373
879.5020, 47.70541
879.9841, 48.05719
880.4662, 48.12816
880.9484, 47.85870
881.4305, 47.16500
881.9126, 46.47473
882.3947, 46.45911
882.8768, 46.88272
883.3589, 47.06353
883.8411, 46.96325
884.3232, 46.53731
884.8053, 45.72595
885.2874, 44.98590
885.7695, 44.91830
886.2516, 45.44283
886.7338, 45.61881
887.2159, 45.29943
887.6980, 45.04650
888.1801, 44.93517
888.6622, 44.92551
889.1443, 45.09706
889.6265, 45.32860
890.1086, 45.30353
890.5907, 44.88545
891.0728, 44.63370
891.5549, 44.77663
892.0370, 44.93250
892.5192, 44.90396
893.0013, 44.79197
893.4834, 44.64471
893.9655, 44.52647
894.4476, 44.69168
894.9297, 45.50980
895.4119, 46.25166
895.8940, 46.02467
896.3761, 45.35790
896.8582, 45.16499
897.3403, 45.44148
897.8224, 45.69440
898.3046, 45.69255
898.7867, 45.54448
899.2688, 45.34615
899.7509, 45.12469
900.2330, 45.09146
900.7151, 45.26374
901.1973, 45.29087
901.6794, 45.03523
902.1615, 44.79143
902.6436, 44.83667
903.1257, 45.09267
903.6078, 45.22443
904.0900, 45.21824
904.5721, 45.11553
905.0542, 44.83191
905.5363, 44.55395
906.0184, 44.35877
906.5005, 44.20572
906.9827, 43.98947
907.4648, 43.71241
907.9469, 43.69053
908.4290, 44.39141
908.9111, 44.87381
909.3932, 44.52952
909.8754, 43.93751
910.3575, 43.61609
910.8396, 43.56644
911.3217, 43.59939
911.8038, 43.64378
912.2859, 43.70164
912.7681, 43.78223
913.2502, 43.87317
913.7323, 43.97776
914.2144, 44.07468
914.6965, 44.09893
915.1786, 44.03519
915.6608, 43.91146
916.1429, 43.73747
916.6250, 43.55379
917.1071, 43.48661
917.5892, 43.53625
918.0714, 43.48473
918.5535, 43.27222
919.0356, 43.21785
919.5177, 43.56422
919.9998, 43.96955
920.4819, 43.86118
920.9641, 43.17851
921.4462, 42.85828
921.9283, 43.12753
922.4104, 43.37489
922.8925, 43.50226
923.3746, 43.57312
923.8568, 43.64869
924.3389, 43.69240
924.8210, 43.60723
925.3031, 43.35222
925.7852, 43.07798
926.2673, 42.67467
926.7495, 42.42430
927.2316, 42.75258
927.7137, 43.16688
928.1958, 42.90491
928.6779, 42.02913
929.1600, 41.38861
929.6422, 41.47516
930.1243, 41.82484
930.6064, 42.06530
931.0885, 42.28447
931.5706, 42.66665
932.0527, 43.15789
932.5349, 43.56040
933.0170, 43.79453
933.4991, 43.85455
933.9812, 43.69001
934.4633, 43.37815
934.9454, 43.14825
935.4276, 42.98991
935.9097, 42.74247
936.3918, 42.36514
936.8739, 42.19313
937.3560, 42.48730
937.8381, 42.97744
938.3203, 43.08303
938.8024, 42.74035
939.2845, 42.54272
939.7666, 42.51823
940.2487, 42.56858
940.7308, 42.70300
941.2130, 42.85455
941.6951, 42.95778
942.1772, 43.02368
942.6593, 43.11482
943.1414, 43.22907
943.6235, 43.37133
944.1057, 43.55748
944.5878, 43.75377
945.0699, 44.01591
945.5520, 44.23809
946.0341, 44.23432
946.5162, 44.01907
946.9984, 43.91703
947.4805, 44.18538
947.9626, 44.39672
948.4447, 44.27293
948.9268, 44.05399
949.4089, 43.96217
949.8911, 43.97375
950.3732, 43.95247
950.8553, 43.85946
951.3374, 43.85989
951.8195, 44.23587
952.3016, 44.66341
952.7838, 44.65060
953.2659, 44.37355
953.7480, 44.24128
954.2301, 44.29949
954.7122, 44.34905
955.1943, 44.27157
955.6764, 44.16177
956.1585, 44.14931
956.6406, 44.23071
957.1227, 44.46016
957.6049, 44.82734
958.0870, 44.89884
958.5691, 44.51534
959.0512, 44.20879
959.5333, 44.48317
960.0154, 45.13033
960.4976, 45.43703
960.9797, 45.35305
961.4618, 45.17088
961.9439, 44.82740
962.4260, 44.60265
962.9081, 44.69514
963.3903, 44.83941
963.8724, 44.63913
964.3545, 44.12645
964.8366, 44.05434
965.3187, 44.96657
965.8008, 45.45373
966.2830, 45.12257
966.7651, 44.71187
967.2472, 44.55812
967.7293, 44.54325
968.2114, 44.43044
968.6935, 44.19215
969.1757, 44.23079
969.6578, 44.93856
970.1399, 45.53684
970.6220, 45.60559
971.1041, 45.57038
971.5862, 45.77638
972.0684, 46.18080
972.5505, 46.65403
973.0326, 47.16901
973.5147, 47.54364
973.9968, 47.63822
974.4789, 47.58451
974.9611, 47.29306
975.4432, 47.03268
975.9253, 47.27914
976.4074, 47.96655
976.8895, 48.64179
977.3716, 49.08702
977.8538, 49.35420
978.3359, 49.39164
978.8180, 49.34767
979.3001, 49.41788
979.7822, 49.64613
980.2643, 50.16470
980.7465, 50.98744
981.2286, 51.95667
981.7107, 52.96814
982.1928, 53.99622
982.6749, 55.03399
983.1570, 56.04100
983.6392, 56.73014
984.1213, 57.09709
984.6034, 57.51552
985.0855, 58.11430
985.5676, 58.76650
986.0497, 59.33006
986.5319, 59.87066
987.0140, 60.65907
987.4961, 61.72174
987.9782, 62.84468
988.4603, 64.05079
988.9424, 65.19852
989.4246, 66.28000
989.9067, 67.15856
990.3888, 67.59676
990.8709, 67.63524
991.3530, 67.96323
991.8351, 68.78323
992.3173, 69.44408
992.7994, 70.00462
993.2815, 70.23697
993.7636, 70.08423
994.2457, 69.50440
994.7278, 68.32364
995.2100, 66.49974
995.6921, 64.77438
996.1742, 63.21944
996.6563, 61.66119
997.1384, 59.90073
997.6205, 58.31476
998.1027, 57.36341
998.5848, 56.64787
999.0669, 55.32303
999.5490, 53.21820
1000.031, 51.78301
1000.513, 51.87597
1000.995, 52.06414
1001.477, 51.80275
1001.960, 51.39457
1002.442, 51.02668
1002.924, 50.75728
1003.406, 50.66703
1003.888, 50.78552
1004.370, 50.93344
1004.852, 51.05916
1005.334, 51.14024
1005.817, 51.12301
1006.299, 51.07820
1006.781, 51.04585
1007.263, 51.07159
1007.745, 51.28245
1008.227, 51.74201
1008.709, 52.16484
1009.191, 52.36345
1009.673, 52.36956
1010.156, 52.14107
1010.638, 51.77807
1011.120, 51.27622
1011.602, 50.79586
1012.084, 51.01047
1012.566, 52.32781
1013.048, 53.60758
1013.530, 53.29527
1014.013, 52.19535
1014.495, 51.78880
1014.977, 51.94783
1015.459, 52.22675
1015.941, 52.50203
1016.423, 52.69343
1016.905, 52.74409
1017.387, 52.74538
1017.869, 52.90418
1018.352, 53.12428
1018.834, 52.94469
1019.316, 52.43897
1019.798, 52.21787
1020.280, 52.42450
1020.762, 52.71277
1021.244, 52.83447
1021.726, 52.86279
1022.208, 52.97240
1022.691, 53.14497
1023.173, 53.06012
1023.655, 52.70096
1024.137, 52.73649
1024.619, 53.39844
1025.101, 54.05538
1025.583, 54.19424
1026.065, 53.98633
1026.547, 53.82355
1027.030, 53.69049
1027.512, 53.85541
1027.994, 54.39035
1028.476, 54.84053
1028.958, 55.06839
1029.440, 55.17427
1029.922, 55.22234
1030.404, 55.23981
1030.887, 55.30320
1031.369, 55.39496
1031.851, 55.65316
1032.333, 56.22780
1032.815, 56.49711
1033.297, 56.05078
1033.779, 55.65647
1034.261, 56.06009
1034.744, 57.04015
1035.226, 57.81929
1035.708, 58.49949
1036.190, 58.63461
1036.672, 57.84467
1037.154, 57.21560
1037.636, 57.02871
1038.118, 57.18574
1038.600, 57.74892
1039.083, 58.57559
1039.565, 59.08157
1040.047, 59.11543
1040.529, 59.19053
1041.011, 59.37291
1041.493, 59.50248
1041.975, 59.40096
1042.457, 59.34450
1042.939, 59.59423
1043.422, 60.08920
1043.904, 60.63676
1044.386, 61.45056
1044.868, 61.78895
1045.350, 61.06374
1045.832, 60.58051
1046.314, 60.93562
1046.796, 61.52629
1047.279, 61.88713
1047.761, 62.03422
1048.243, 62.06620
1048.725, 61.86971
1049.207, 61.91317
1049.689, 62.44328
1050.171, 62.98643
1050.653, 63.48051
1051.135, 63.82741
1051.618, 63.78297
1052.100, 63.53777
1052.582, 63.69848
1053.064, 64.49669
1053.546, 65.16730
1054.028, 65.46157
1054.510, 65.71036
1054.992, 66.04306
1055.474, 66.39449
1055.957, 66.70614
1056.439, 66.98229
1056.921, 67.25886
1057.403, 67.56277
1057.885, 67.76138
1058.367, 67.45393
1058.849, 67.48700
1059.331, 68.64164
1059.814, 69.96269
1060.296, 70.53767
1060.778, 70.55785
1061.260, 70.61951
1061.742, 70.82684
1062.224, 71.25730
1062.706, 72.35571
1063.188, 73.16100
1063.671, 72.83817
1064.153, 72.35351
1064.635, 72.64717
1065.117, 73.49307
1065.599, 74.24509
1066.081, 74.76486
1066.563, 75.19429
1067.045, 75.59528
1067.527, 75.91138
1068.010, 75.96431
1068.492, 76.05305
1068.974, 76.47677
1069.456, 77.13464
1069.938, 77.73980
1070.420, 78.23803
1070.902, 78.99123
1071.384, 80.78564
1071.866, 82.05199
1072.349, 81.51220
1072.831, 80.60310
1073.313, 80.49742
1073.795, 80.97747
1074.277, 81.48333
1074.759, 81.90295
1075.241, 82.38181
1075.723, 83.03629
1076.206, 83.68548
1076.688, 84.44512
1077.170, 84.96835
1077.652, 84.70005
1078.134, 84.13022
1078.616, 84.04555
1079.098, 84.54372
1079.580, 85.24260
1080.062, 86.23181
1080.545, 86.95480
1081.027, 86.88128
1081.509, 86.71670
1081.991, 86.93399
1082.473, 87.44053
1082.955, 88.09731
1083.437, 88.86131
1083.919, 89.70885
1084.401, 90.76244
1084.884, 91.56155
1085.366, 91.64540
1085.848, 91.66978
1086.330, 92.05997
1086.812, 92.66319
1087.294, 93.21859
1087.776, 93.77428
1088.258, 94.67299
1088.740, 96.15765
1089.223, 97.41879
1089.705, 97.88878
1090.187, 98.32236
1090.669, 99.05535
1091.151, 100.0628
1091.633, 101.5045
1092.115, 103.1477
1092.597, 104.3835
1093.080, 105.0482
1093.562, 105.4919
1094.044, 105.5309
1094.526, 105.7761
1095.008, 106.6728
1095.490, 107.7654
1095.972, 108.7661
1096.454, 109.6015
1096.937, 110.1665
1097.419, 110.4335
1097.901, 110.7423
1098.383, 111.2320
1098.865, 111.7362
1099.347, 112.3494
1099.829, 112.8075
1100.311, 112.9684
1100.793, 112.8238
1101.276, 112.3059
1101.758, 111.4371
1102.240, 110.5930
1102.722, 109.9018
1103.204, 109.1930
1103.686, 108.2530
1104.168, 107.4743
1104.650, 107.1403
1105.132, 107.0503
1105.615, 106.8794
1106.097, 106.6830
1106.579, 106.9084
1107.061, 107.7599
1107.543, 108.7432
1108.025, 109.9114
1108.507, 111.0363
1108.989, 111.9120
1109.472, 112.8101
1109.954, 113.9751
1110.436, 115.3758
1110.918, 116.9086
1111.400, 118.6779
1111.882, 120.2076
1112.364, 121.3271
1112.846, 122.3864
1113.328, 123.9919
1113.811, 125.0532
1114.293, 124.6628
1114.775, 123.2500
1115.257, 121.5083
1115.739, 119.3170
1116.221, 117.7628
1116.703, 117.2560
1117.185, 116.7012
1117.667, 115.9485
1118.150, 115.1475
1118.632, 114.1811
1119.114, 113.3783
1119.596, 113.2302
1120.078, 113.7019
1120.560, 114.2362
1121.042, 114.7767
1121.524, 115.5441
1122.007, 116.7321
1122.489, 117.7445
1122.971, 118.2527
1123.453, 118.6947
1123.935, 119.4999
1124.417, 120.5905
1124.899, 121.6928
1125.381, 122.8430
1125.864, 123.8164
1126.346, 124.5092
1126.828, 125.4454
1127.310, 126.8252
1127.792, 128.2583
1128.274, 129.4846
1128.756, 130.5182
1129.238, 131.3096
1129.720, 131.8727
1130.203, 133.0156
1130.685, 134.7881
1131.167, 136.5614
1131.649, 138.2531
1132.131, 139.6670
1132.613, 140.6689
1133.095, 141.5605
1133.577, 142.7189
1134.059, 144.0829
1134.542, 145.3645
1135.024, 146.6022
1135.506, 148.2796
1135.988, 150.3963
1136.470, 152.1297
1136.952, 153.2107
1137.434, 154.4114
1137.916, 156.4310
1138.399, 157.7930
1138.881, 160.3159
1139.363, 161.4017
1139.845, 163.0293
1140.327, 165.1640
1140.809, 167.5544
1141.291, 170.1075
1141.773, 172.6283
1142.255, 175.0402
1142.738, 177.2075
1143.220, 178.7357
1143.702, 180.0965
1144.184, 182.1899
1144.666, 184.6938
1145.148, 186.9062
1145.630, 188.8762
1146.112, 191.0578
1146.594, 193.6034
1147.077, 196.2812
1147.559, 198.8679
1148.041, 201.6293
1148.523, 205.2760
1149.005, 208.8691
1149.487, 210.7496
1149.969, 211.9679
1150.451, 214.8300
1150.934, 219.2701
1151.416, 222.9071
1151.898, 224.4529
1152.380, 226.3480
1152.862, 230.2789
1153.344, 234.6960
1153.826, 238.8797
1154.308, 242.7419
1154.791, 246.0596
1155.273, 249.0766
1155.755, 252.3020
1156.237, 255.8466
1156.719, 259.6540
1157.201, 264.1560
1157.683, 268.2778
1158.165, 271.2099
1158.647, 274.2285
1159.130, 278.2164
1159.612, 282.7316
1160.094, 287.0576
1160.576, 291.2555
1161.058, 295.9467
1161.540, 300.2104
1162.022, 304.1353
1162.504, 309.3465
1162.986, 313.6998
1163.469, 317.5926
1163.951, 323.2841
1164.433, 328.4608
1164.915, 333.3785
1165.397, 338.6578
1165.879, 344.3498
1166.361, 349.7689
1166.843, 354.9414
1167.325, 359.5453
1167.808, 363.2865
1168.290, 367.4401
1168.772, 372.6862
1169.254, 378.4922
1169.736, 384.3276
1170.218, 390.1284
1170.700, 395.5861
1171.182, 400.6972
1171.665, 405.8580
1172.147, 411.0844
1172.629, 416.9128
1173.111, 423.4882
1173.593, 429.8374
1174.075, 435.2303
1174.557, 440.5922
1175.039, 447.6867
1175.521, 455.7719
1176.004, 462.7161
1176.486, 468.8815
1176.968, 475.3470
1177.450, 482.2197
1177.932, 488.9652
1178.414, 495.4447
1178.896, 502.2330
1179.378, 509.9579
1179.860, 517.8294
1180.343, 525.1753
1180.825, 531.9994
1181.307, 537.8300
1181.789, 543.4094
1182.271, 549.9370
1182.753, 557.4583
1183.235, 565.3838
1183.717, 573.5666
1184.200, 581.4349
1184.682, 588.4140
1185.164, 595.2994
1185.646, 602.5420
1186.128, 609.8818
1186.610, 617.0219
1187.092, 624.1581
1187.574, 631.8456
1188.057, 640.1074
1188.539, 647.6252
1189.021, 653.6944
1189.503, 659.8029
1189.985, 666.3046
1190.467, 672.5753
1190.949, 678.5330
1191.431, 683.9412
1191.913, 687.8341
1192.396, 691.3163
1192.878, 697.7833
1193.360, 707.9241
1193.842, 715.1537
1194.324, 718.6422
1194.806, 722.1190
1195.288, 725.9766
1195.770, 730.7571
1196.252, 736.9515
1196.735, 743.1804
1197.217, 747.7473
1197.699, 752.6010
1198.181, 755.2601
1198.663, 759.8293
1199.145, 762.8113
1199.627, 764.3538
1200.109, 766.5240
1200.592, 769.7867
1201.074, 773.6439
1201.556, 777.8352
1202.038, 781.5010
1202.520, 783.5258
1203.002, 784.5104
1203.484, 785.0897
1203.966, 785.5677
1204.448, 786.6141
1204.931, 788.0231
1205.413, 789.0125
1205.895, 789.5008
1206.377, 790.4854
1206.859, 793.0626
1207.341, 794.4300
1207.823, 791.6335
1208.305, 788.3862
1208.787, 786.5982
1209.270, 786.2896
1209.752, 788.3536
1210.234, 791.5170
1210.716, 792.7786
1211.198, 791.5707
1211.680, 790.9251
1212.162, 792.8163
1212.644, 792.9261
1213.127, 788.9434
1213.609, 785.3492
1214.091, 783.8871
1214.573, 783.4513
1215.055, 783.2503
1215.537, 783.0948
1216.019, 782.4011
1216.501, 781.1448
1216.984, 779.4261
1217.466, 777.0646
1217.948, 775.7108
1218.430, 775.8389
1218.912, 774.9323
1219.394, 771.6490
1219.876, 768.2431
1220.358, 767.3837
1220.840, 767.8016
1221.323, 766.3142
1221.805, 763.6182
1222.287, 762.1349
1222.769, 761.6250
1223.251, 760.7875
1223.733, 759.4417
1224.215, 758.3227
1224.697, 757.7796
1225.179, 756.8828
1225.662, 754.2822
1226.144, 751.6080
1226.626, 750.4620
1227.108, 749.9393
1227.590, 749.2914
1228.072, 748.4463
1228.554, 747.5840
1229.036, 745.8414
1229.519, 744.7731
1230.001, 741.6619
1230.483, 738.7071
1230.965, 735.8386
1231.447, 733.7248
1231.929, 733.6805
1232.411, 733.1995
1232.893, 729.8943
1233.375, 725.9932
1233.858, 725.1182
1234.340, 722.8869
1234.822, 721.1704
1235.304, 721.0787
1235.786, 718.3312
1236.268, 718.1194
1236.750, 716.3474
1237.232, 711.8235
1237.714, 706.8050
1238.197, 702.6663
1238.679, 699.2013
1239.161, 696.2652
1239.643, 693.5834
1240.125, 690.0509
1240.607, 686.1861
1241.089, 683.6650
1241.571, 682.2304
1242.054, 680.6868
1242.536, 678.7004
1243.018, 676.4785
1243.500, 674.1744
1243.982, 671.2927
1244.464, 666.9245
1244.946, 662.4293
1245.428, 658.3760
1245.910, 655.1198
1246.393, 653.6525
1246.875, 652.8893
1247.357, 650.9727
1247.839, 647.8097
1248.321, 644.7558
1248.803, 642.4228
1249.285, 639.2731
1249.767, 634.2992
1250.250, 630.0224
1250.732, 627.1653
1251.214, 624.8983
1251.696, 622.8963
1252.178, 620.8539
1252.660, 618.2762
1253.142, 615.2722
1253.624, 612.4599
1254.106, 609.8240
1254.589, 606.8721
1255.071, 603.6578
1255.553, 601.6023
1256.035, 600.9197
1256.517, 599.8235
1256.999, 597.2996
1257.481, 594.2933
1257.963, 591.5419
1258.445, 589.2620
1258.928, 588.0942
1259.410, 587.3689
1259.892, 586.3935
1260.374, 585.0108
1260.856, 583.0447
1261.338, 580.5378
1261.820, 577.6464
1262.302, 574.2493
1262.785, 571.3704
1263.267, 569.4400
1263.749, 567.9044
1264.231, 566.9827
1264.713, 565.9460
1265.195, 564.0676
1265.677, 562.1837
1266.159, 561.4283
1266.641, 561.4207
1267.124, 560.6179
1267.606, 558.9277
1268.088, 557.1620
1268.570, 555.2929
1269.052, 553.7579
1269.534, 552.6426
1270.016, 550.9893
1270.498, 548.3441
1270.980, 545.9296
1271.463, 544.9426
1271.945, 544.7316
1272.427, 544.8231
1272.909, 544.5700
1273.391, 541.8428
1273.873, 538.4484
1274.355, 538.4947
1274.837, 540.9971
1275.320, 541.5908
1275.802, 539.1779
1276.284, 536.5460
1276.766, 534.7908
1277.248, 533.0653
1277.730, 530.4503
1278.212, 528.6007
1278.694, 528.7807
1279.177, 529.6075
1279.659, 530.2358
1280.141, 530.4831
1280.623, 529.9369
1281.105, 528.6302
1281.587, 527.2134
1282.069, 525.6323
1282.551, 524.5838
1283.033, 524.1516
1283.516, 523.2903
1283.998, 521.7206
1284.480, 520.4934
1284.962, 520.2809
1285.444, 520.2411
1285.926, 519.5811
##END=



