##NAMES=Marialite
##RRUFFID=R060458
##IDEAL CHEMISTRY=Na_4_Al_3_Si_9_O_24_Cl
##LOCALITY=Dading, Nepal
##OWNER=RRUFF
##SOURCE=Michael Scott
##DESCRIPTION=Colorless elongated prism
##STATUS=The identification of this mineral has been confirmed by X-ray diffraction and chemical analysis
##URL=rruff.info/R060458
##MEASURED CHEMISTRY=(Na_0.52_Ca_0.47_K_0.01_)_4_(Al_0.36_Si_0.64_)_12_O_24_(Cl_0.44_(CO_3_)_0.56_)
91.72394, 0.0000000E+00
92.20605, 323.5169
92.68817, 322.0177
93.17029, 323.5462
93.65240, 326.3396
94.13452, 329.4381
94.61664, 330.5849
95.09875, 329.3673
95.58087, 326.3094
96.06299, 321.7199
96.54510, 314.1834
97.02721, 307.1920
97.50933, 302.0499
97.99145, 297.8902
98.47356, 293.5009
98.95568, 287.8497
99.43780, 280.4962
99.91991, 273.5339
100.4020, 266.0154
100.8841, 259.6055
101.3663, 255.1787
101.8484, 252.5270
102.3305, 250.7442
102.8126, 249.0170
103.2947, 247.3446
103.7768, 245.6286
104.2590, 243.7964
104.7411, 241.9165
105.2232, 239.9625
105.7053, 237.8376
106.1874, 235.9333
106.6695, 234.8668
107.1517, 234.5493
107.6338, 234.2392
108.1159, 233.4861
108.5980, 232.3994
109.0801, 231.5624
109.5622, 231.1666
110.0444, 231.0393
110.5265, 231.0176
111.0086, 231.0858
111.4907, 231.2796
111.9728, 231.6597
112.4549, 232.2621
112.9371, 232.9234
113.4192, 233.4496
113.9013, 234.1009
114.3834, 235.1524
114.8655, 236.7032
115.3476, 238.5401
115.8298, 240.0753
116.3119, 241.1432
116.7940, 242.0826
117.2761, 242.6680
117.7582, 243.2090
118.2403, 244.1424
118.7225, 245.7602
119.2046, 247.9846
119.6867, 249.8728
120.1688, 251.3987
120.6509, 252.7020
121.1330, 253.6870
121.6152, 254.4371
122.0973, 255.2495
122.5794, 256.3846
123.0615, 257.8327
123.5436, 259.0919
124.0257, 260.0108
124.5079, 260.8258
124.9900, 261.9237
125.4721, 263.4405
125.9542, 264.5789
126.4363, 264.1129
126.9184, 262.6226
127.4006, 261.4131
127.8827, 261.3228
128.3648, 261.9327
128.8469, 261.9394
129.3290, 261.0033
129.8111, 259.7384
130.2932, 258.6574
130.7754, 257.6569
131.2575, 256.3723
131.7396, 254.3889
132.2217, 251.6162
132.7038, 248.9822
133.1859, 246.5065
133.6681, 244.1780
134.1502, 242.0168
134.6323, 240.0171
135.1144, 238.1709
135.5965, 236.5444
136.0786, 235.6003
136.5608, 233.8460
137.0429, 230.4529
137.5250, 226.8918
138.0071, 224.4648
138.4892, 223.5102
138.9713, 223.2093
139.4535, 221.8816
139.9356, 218.4716
140.4177, 215.4355
140.8998, 213.0792
141.3819, 211.1228
141.8640, 209.2267
142.3462, 207.2799
142.8283, 205.2451
143.3104, 202.9966
143.7925, 200.3095
144.2746, 197.8317
144.7567, 196.0451
145.2388, 194.7769
145.7210, 193.2491
146.2031, 190.9435
146.6852, 188.2263
147.1673, 185.8262
147.6494, 183.8269
148.1315, 182.0762
148.6137, 180.5461
149.0958, 179.2871
149.5779, 177.8708
150.0600, 175.5253
150.5421, 173.0914
151.0242, 171.5153
151.5064, 171.3796
151.9885, 171.9096
152.4706, 171.4754
152.9527, 169.5274
153.4348, 167.5925
153.9169, 165.9716
154.3991, 164.6811
154.8812, 163.7723
155.3633, 163.3298
155.8454, 163.2663
156.3275, 163.0601
156.8096, 162.6231
157.2918, 162.1138
157.7739, 161.5193
158.2560, 160.8766
158.7381, 160.2757
159.2202, 159.8137
159.7023, 159.5053
160.1845, 158.7411
160.6666, 156.9441
161.1487, 155.3063
161.6308, 154.4480
162.1129, 154.2127
162.5950, 153.9774
163.0772, 153.2123
163.5593, 151.8392
164.0414, 150.2935
164.5235, 148.5636
165.0056, 146.6986
165.4877, 144.6152
165.9698, 142.3305
166.4520, 140.1872
166.9341, 138.6195
167.4162, 137.6340
167.8983, 136.4843
168.3804, 134.9592
168.8625, 133.2762
169.3447, 131.7277
169.8268, 130.3837
170.3089, 129.0554
170.7910, 127.5160
171.2731, 125.8258
171.7552, 124.1846
172.2374, 122.7444
172.7195, 121.4209
173.2016, 119.9371
173.6837, 118.0979
174.1658, 116.3578
174.6479, 114.9567
175.1301, 113.8759
175.6122, 113.0425
176.0943, 112.5258
176.5764, 112.3067
177.0585, 111.9444
177.5406, 111.3296
178.0228, 110.6265
178.5049, 109.7949
178.9870, 108.9026
179.4691, 108.1763
179.9512, 107.8777
180.4333, 108.1043
180.9155, 108.3186
181.3976, 108.6902
181.8797, 108.9164
182.3618, 108.6403
182.8439, 107.9549
183.3260, 107.3835
183.8082, 107.6680
184.2903, 109.4160
184.7724, 110.4135
185.2545, 110.2010
185.7366, 109.7420
186.2187, 109.6265
186.7009, 109.9705
187.1830, 110.5259
187.6651, 110.9476
188.1472, 111.2160
188.6293, 111.3523
189.1114, 111.2200
189.5936, 111.0358
190.0757, 110.9533
190.5578, 111.0174
191.0399, 111.2459
191.5220, 111.7316
192.0041, 112.6847
192.4863, 113.2942
192.9684, 113.2456
193.4505, 112.8786
193.9326, 112.6436
194.4147, 112.6912
194.8968, 112.8121
195.3790, 112.5979
195.8611, 112.0115
196.3432, 111.5335
196.8253, 111.3554
197.3074, 111.3860
197.7895, 111.4241
198.2717, 111.4047
198.7538, 111.4011
199.2359, 111.4984
199.7180, 111.6918
200.2001, 111.9481
200.6822, 112.4278
201.1644, 113.0224
201.6465, 113.1685
202.1286, 112.5403
202.6107, 111.6143
203.0928, 110.6637
203.5749, 109.7065
204.0571, 109.2004
204.5392, 109.8473
205.0213, 111.6248
205.5034, 112.7581
205.9855, 112.5449
206.4676, 111.8833
206.9497, 111.1118
207.4319, 110.3199
207.9140, 109.7838
208.3961, 109.8922
208.8782, 110.7668
209.3603, 111.5171
209.8424, 111.8675
210.3246, 112.2141
210.8067, 112.7344
211.2888, 113.4513
211.7709, 114.2902
212.2530, 115.2081
212.7351, 116.2816
213.2173, 117.1637
213.6994, 117.6201
214.1815, 118.0733
214.6636, 118.8031
215.1457, 119.8182
215.6278, 120.9069
216.1100, 121.8128
216.5921, 122.5565
217.0742, 123.0248
217.5563, 123.2918
218.0384, 123.3016
218.5205, 122.8680
219.0027, 122.0386
219.4848, 121.1654
219.9669, 120.7397
220.4490, 121.0115
220.9311, 121.1421
221.4132, 121.1916
221.8954, 121.0819
222.3775, 120.6384
222.8596, 119.8747
223.3417, 119.1096
223.8238, 118.7769
224.3059, 119.1387
224.7881, 119.2257
225.2702, 118.7222
225.7523, 118.1360
226.2344, 117.9602
226.7165, 118.2745
227.1986, 118.7254
227.6807, 118.9187
228.1629, 118.8255
228.6450, 118.5129
229.1271, 117.7270
229.6092, 116.8505
230.0913, 116.4036
230.5734, 116.4965
231.0556, 116.5450
231.5377, 115.7590
232.0198, 114.1501
232.5019, 112.8249
232.9840, 112.0078
233.4661, 111.5451
233.9483, 111.3372
234.4304, 111.4113
234.9125, 111.4904
235.3946, 111.2826
235.8767, 110.8424
236.3588, 110.3462
236.8410, 109.7228
237.3231, 109.1081
237.8052, 108.6826
238.2873, 108.4522
238.7694, 108.4363
239.2515, 108.8825
239.7337, 109.5744
240.2158, 110.0115
240.6979, 109.7519
241.1800, 109.1932
241.6621, 109.0587
242.1442, 109.3961
242.6264, 110.0686
243.1085, 111.2750
243.5906, 112.7128
244.0727, 113.8607
244.5548, 114.3291
245.0369, 114.4487
245.5191, 114.9462
246.0012, 115.9488
246.4833, 117.0359
246.9654, 117.9855
247.4475, 118.8879
247.9296, 119.8688
248.4117, 120.9976
248.8939, 122.2180
249.3760, 123.3936
249.8581, 124.4079
250.3402, 125.6370
250.8223, 127.1529
251.3044, 128.9352
251.7866, 131.0260
252.2687, 133.5007
252.7508, 136.1585
253.2329, 138.5201
253.7150, 140.2859
254.1971, 142.3577
254.6793, 144.9836
255.1614, 147.9486
255.6435, 151.1299
256.1256, 154.4810
256.6077, 157.8935
257.0898, 161.2335
257.5720, 164.7670
258.0541, 167.6138
258.5362, 169.0924
259.0183, 170.2612
259.5004, 172.2737
259.9825, 175.4828
260.4647, 178.9358
260.9468, 180.8013
261.4289, 180.3886
261.9110, 179.6112
262.3931, 178.8293
262.8752, 177.7008
263.3574, 175.9801
263.8395, 173.5912
264.3216, 170.6285
264.8037, 167.1790
265.2858, 163.0269
265.7679, 158.7728
266.2501, 154.3363
266.7322, 149.8949
267.2143, 145.5844
267.6964, 141.4373
268.1785, 137.3869
268.6606, 133.3115
269.1428, 129.0266
269.6249, 125.2867
270.1070, 122.1811
270.5891, 119.4276
271.0712, 117.0786
271.5533, 115.0170
272.0355, 112.8187
272.5176, 109.8802
272.9997, 105.7339
273.4818, 103.0386
273.9639, 102.7512
274.4460, 102.7733
274.9282, 102.0260
275.4103, 100.5247
275.8924, 98.87820
276.3745, 97.63486
276.8566, 96.84166
277.3387, 96.00677
277.8208, 94.99221
278.3029, 94.07430
278.7851, 93.42747
279.2672, 92.98890
279.7493, 92.53793
280.2314, 91.88051
280.7135, 91.03582
281.1956, 90.60310
281.6778, 90.85566
282.1599, 91.14031
282.6420, 91.22150
283.1241, 91.16311
283.6062, 91.11824
284.0883, 91.16734
284.5705, 91.31605
285.0526, 91.60625
285.5347, 91.99946
286.0168, 92.54990
286.4989, 93.39697
286.9810, 94.39297
287.4632, 95.28416
287.9453, 95.94715
288.4274, 96.45540
288.9095, 97.01138
289.3916, 97.31313
289.8737, 98.08531
290.3559, 99.81263
290.8380, 101.9655
291.3201, 103.6835
291.8022, 104.6375
292.2843, 105.4498
292.7664, 107.3568
293.2486, 110.9755
293.7307, 114.1830
294.2128, 116.7655
294.6949, 118.8433
295.1770, 120.6559
295.6591, 122.2611
296.1413, 123.2686
296.6234, 123.1767
297.1055, 121.8048
297.5876, 119.6829
298.0697, 116.4842
298.5518, 112.7554
299.0340, 108.6657
299.5161, 104.3349
299.9982, 100.3854
300.4803, 97.49438
300.9624, 95.79800
301.4445, 93.86034
301.9267, 91.31469
302.4088, 88.84417
302.8909, 86.84294
303.3730, 85.32388
303.8551, 84.12661
304.3372, 83.17061
304.8194, 82.45370
305.3015, 81.82171
305.7836, 81.36561
306.2657, 80.89182
306.7478, 80.34193
307.2299, 79.70486
307.7121, 78.88817
308.1942, 77.74831
308.6763, 76.50357
309.1584, 75.96904
309.6405, 76.66965
310.1227, 77.13956
310.6048, 76.66228
311.0869, 75.65990
311.5690, 74.93607
312.0511, 74.80759
312.5332, 75.02878
313.0154, 75.18090
313.4975, 75.34127
313.9796, 75.24415
314.4617, 74.59340
314.9438, 73.74650
315.4259, 73.17712
315.9081, 73.00723
316.3902, 73.00645
316.8723, 72.87899
317.3544, 72.58215
317.8365, 72.45606
318.3186, 72.69193
318.8007, 73.00870
319.2828, 73.13834
319.7650, 73.05956
320.2471, 72.94612
320.7292, 72.96487
321.2113, 73.11369
321.6934, 73.12424
322.1755, 72.76403
322.6577, 72.46993
323.1398, 72.57054
323.6219, 73.00365
324.1040, 73.47429
324.5861, 73.83332
325.0682, 74.06451
325.5504, 74.09927
326.0325, 73.74438
326.5146, 73.43956
326.9967, 73.27140
327.4788, 73.26620
327.9609, 73.52641
328.4431, 74.13815
328.9252, 74.92444
329.4073, 75.47417
329.8894, 75.76023
330.3715, 75.92017
330.8536, 75.83039
331.3358, 75.68153
331.8179, 75.70979
332.3000, 75.97752
332.7821, 76.41601
333.2642, 76.97551
333.7463, 77.73108
334.2285, 78.30524
334.7106, 78.55218
335.1927, 78.70131
335.6748, 78.86782
336.1569, 79.08895
336.6390, 79.49324
337.1212, 80.26803
337.6033, 81.43483
338.0854, 82.10110
338.5675, 81.91531
339.0496, 81.63839
339.5317, 81.52998
340.0139, 81.62910
340.4960, 82.03304
340.9781, 82.86266
341.4602, 83.96941
341.9423, 84.57612
342.4244, 84.08440
342.9066, 83.88775
343.3887, 84.50808
343.8708, 85.53188
344.3529, 86.32173
344.8350, 86.62578
345.3171, 86.74065
345.7993, 87.23909
346.2814, 88.54623
346.7635, 89.51089
347.2456, 89.76697
347.7277, 89.89107
348.2098, 90.39095
348.6920, 91.33549
349.1741, 92.45921
349.6562, 93.45788
350.1383, 94.29922
350.6204, 95.19427
351.1025, 96.23230
351.5847, 97.23320
352.0668, 98.03997
352.5489, 98.71272
353.0310, 99.43916
353.5131, 100.3512
353.9952, 101.4326
354.4774, 102.5430
354.9595, 103.6641
355.4416, 104.8310
355.9237, 106.1101
356.4058, 107.4197
356.8879, 108.6300
357.3701, 109.6796
357.8522, 110.6717
358.3343, 111.8920
358.8164, 113.9138
359.2985, 115.2330
359.7806, 115.7283
360.2627, 115.6441
360.7448, 115.0746
361.2270, 114.0847
361.7091, 112.8131
362.1912, 111.3860
362.6733, 109.7516
363.1554, 108.1893
363.6375, 106.8194
364.1197, 105.4061
364.6018, 103.8443
365.0839, 102.1498
365.5660, 100.3670
366.0481, 98.46043
366.5302, 96.51468
367.0124, 95.21066
367.4945, 95.06560
367.9766, 94.93951
368.4587, 94.66088
368.9408, 94.25738
369.4229, 93.74058
369.9051, 93.11573
370.3872, 92.46777
370.8693, 91.94510
371.3514, 91.54869
371.8335, 91.29007
372.3156, 91.16689
372.7978, 91.17165
373.2799, 91.32285
373.7620, 91.61231
374.2441, 91.99255
374.7262, 92.45511
375.2083, 93.00669
375.6905, 93.46753
376.1726, 93.85213
376.6547, 94.11262
377.1368, 94.23045
377.6189, 94.21813
378.1010, 94.07151
378.5832, 93.68764
379.0653, 93.24566
379.5474, 93.28860
380.0295, 94.02703
380.5116, 94.69538
380.9937, 95.05252
381.4759, 95.18041
381.9580, 95.10754
382.4401, 94.82444
382.9222, 94.44543
383.4043, 94.08476
383.8864, 93.74139
384.3686, 93.37916
384.8507, 92.98293
385.3328, 92.57114
385.8149, 92.17702
386.2970, 91.79527
386.7791, 91.35714
387.2613, 90.77710
387.7434, 90.12290
388.2255, 89.60419
388.7076, 89.31269
389.1897, 88.89083
389.6718, 87.83107
390.1540, 86.47170
390.6361, 85.52076
391.1182, 85.35803
391.6003, 85.40147
392.0824, 85.22148
392.5645, 84.81456
393.0467, 84.09962
393.5288, 82.87211
394.0109, 81.48959
394.4930, 80.61877
394.9751, 80.34915
395.4572, 80.16248
395.9394, 79.88596
396.4215, 79.55562
396.9036, 79.16128
397.3857, 78.67239
397.8678, 78.37708
398.3499, 78.74287
398.8321, 79.82054
399.3142, 80.25572
399.7963, 79.40475
400.2784, 78.37418
400.7605, 77.94576
401.2426, 78.05075
401.7247, 78.22935
402.2068, 78.21928
402.6890, 78.06043
403.1711, 77.92889
403.6532, 77.72998
404.1353, 77.66911
404.6174, 77.83767
405.0995, 78.14214
405.5817, 78.43582
406.0638, 78.68139
406.5459, 79.02214
407.0280, 79.69607
407.5101, 80.90162
407.9922, 81.78967
408.4744, 82.08272
408.9565, 82.34566
409.4386, 82.96193
409.9207, 83.83921
410.4028, 84.61278
410.8849, 85.01048
411.3671, 85.09325
411.8492, 85.33553
412.3313, 85.55077
412.8134, 86.19984
413.2955, 87.55510
413.7776, 89.26528
414.2598, 91.00478
414.7419, 92.65662
415.2240, 94.23878
415.7061, 95.77215
416.1882, 97.25887
416.6703, 98.71259
417.1525, 99.87611
417.6346, 101.2282
418.1167, 103.1685
418.5988, 105.5377
419.0809, 107.7958
419.5630, 109.6595
420.0452, 111.1019
420.5273, 112.0478
421.0094, 112.5167
421.4915, 112.4096
421.9736, 111.5302
422.4557, 110.1724
422.9379, 108.5954
423.4200, 106.8541
423.9021, 105.0020
424.3842, 103.1362
424.8663, 101.2511
425.3484, 99.06111
425.8306, 96.14781
426.3127, 93.38963
426.7948, 91.63303
427.2769, 90.75340
427.7590, 89.94493
428.2411, 88.79617
428.7233, 87.54430
429.2054, 86.53972
429.6875, 85.79323
430.1696, 85.24509
430.6517, 84.83340
431.1339, 84.62949
431.6160, 84.76188
432.0981, 85.44505
432.5802, 86.12605
433.0623, 86.34098
433.5444, 86.37305
434.0266, 86.90031
434.5087, 88.16660
434.9908, 89.66917
435.4729, 90.68810
435.9550, 91.03842
436.4371, 91.75053
436.9193, 92.79579
437.4014, 94.26327
437.8835, 96.55204
438.3656, 99.40289
438.8477, 101.8441
439.3298, 103.1436
439.8120, 103.6284
440.2941, 105.0382
440.7762, 108.5746
441.2583, 111.5585
441.7404, 113.1778
442.2225, 114.3909
442.7046, 116.1290
443.1867, 118.6275
443.6689, 121.5689
444.1510, 124.5495
444.6331, 127.5647
445.1152, 130.6826
445.5973, 133.9225
446.0794, 137.2404
446.5616, 140.4834
447.0437, 143.7884
447.5258, 147.4263
448.0079, 151.5064
448.4900, 156.0337
448.9721, 161.1198
449.4543, 167.0083
449.9364, 172.7452
450.4185, 178.0545
450.9006, 183.2001
451.3827, 188.4698
451.8648, 193.8576
452.3470, 198.9304
452.8291, 203.6115
453.3112, 207.7537
453.7933, 210.4540
454.2754, 211.3497
454.7575, 211.5293
455.2397, 211.5800
455.7218, 211.4203
456.2039, 210.7985
456.6860, 209.3270
457.1681, 207.8584
457.6502, 207.3370
458.1324, 207.5145
458.6145, 207.1663
459.0966, 205.7391
459.5787, 203.9342
460.0608, 202.9474
460.5429, 202.8953
461.0251, 202.2504
461.5072, 200.6547
461.9893, 198.4174
462.4714, 195.8260
462.9535, 192.8768
463.4356, 189.3331
463.9178, 184.9077
464.3999, 179.8196
464.8820, 175.1355
465.3641, 171.4606
465.8462, 167.3885
466.3283, 162.1850
466.8105, 156.7210
467.2926, 152.1064
467.7747, 148.4972
468.2568, 145.0304
468.7389, 140.5691
469.2210, 134.7704
469.7032, 130.0285
470.1853, 127.3157
470.6674, 124.6656
471.1495, 121.4603
471.6316, 117.9457
472.1137, 114.5647
472.5959, 111.5104
473.0780, 108.7732
473.5601, 106.4401
474.0422, 104.6676
474.5243, 102.6359
475.0064, 99.77041
475.4886, 96.96903
475.9707, 94.86028
476.4528, 93.38140
476.9349, 91.95435
477.4170, 90.08469
477.8991, 88.06191
478.3813, 86.59166
478.8634, 85.76203
479.3455, 84.99895
479.8276, 84.01974
480.3097, 82.92229
480.7918, 81.88918
481.2740, 80.93909
481.7561, 80.02684
482.2382, 79.20067
482.7203, 78.38132
483.2024, 77.36451
483.6845, 76.09950
484.1666, 74.85542
484.6487, 73.88864
485.1309, 73.21644
485.6130, 72.53928
486.0951, 71.85088
486.5772, 71.16577
487.0593, 70.42083
487.5414, 69.69261
488.0236, 69.14216
488.5057, 68.83074
488.9878, 68.63673
489.4699, 68.35501
489.9520, 67.97622
490.4341, 67.51737
490.9163, 66.77897
491.3984, 66.15907
491.8805, 65.95126
492.3626, 66.03428
492.8447, 66.08775
493.3268, 65.90433
493.8090, 65.57058
494.2911, 65.36440
494.7732, 65.38558
495.2553, 65.26527
495.7374, 64.81070
496.2195, 64.25887
496.7017, 63.68453
497.1838, 63.12775
497.6659, 62.77217
498.1480, 62.88186
498.6301, 63.28452
499.1122, 63.52066
499.5944, 63.57112
500.0765, 63.46387
500.5586, 63.10830
501.0407, 62.63439
501.5228, 62.28968
502.0049, 62.03614
502.4871, 62.01972
502.9692, 62.68267
503.4513, 63.53960
503.9334, 63.56490
504.4155, 62.52456
504.8976, 61.32264
505.3798, 60.84707
505.8619, 61.14492
506.3440, 61.44153
506.8261, 61.81870
507.3082, 62.10626
507.7903, 62.25999
508.2725, 62.27960
508.7546, 62.05997
509.2367, 61.58194
509.7188, 61.17329
510.2009, 61.43895
510.6830, 62.71434
511.1652, 63.52858
511.6473, 63.25887
512.1294, 63.14248
512.6115, 63.84541
513.0936, 65.04495
513.5757, 66.02895
514.0579, 66.39375
514.5400, 66.49169
515.0221, 66.92168
515.5042, 67.69060
515.9863, 68.78233
516.4684, 70.50965
516.9506, 72.25451
517.4327, 73.42654
517.9148, 74.09502
518.3969, 74.80895
518.8790, 75.85606
519.3611, 77.04553
519.8433, 78.02763
520.3254, 78.83550
520.8075, 80.00314
521.2896, 81.86352
521.7717, 84.15101
522.2538, 86.18896
522.7360, 87.80063
523.2181, 89.72117
523.7002, 92.23281
524.1823, 94.98362
524.6644, 97.58485
525.1465, 100.0643
525.6287, 102.7546
526.1108, 105.8595
526.5929, 109.3854
527.0750, 113.4927
527.5571, 118.5872
528.0392, 123.6721
528.5214, 128.3680
529.0035, 133.2365
529.4856, 138.7825
529.9677, 145.0184
530.4498, 151.5397
530.9319, 158.1149
531.4141, 164.6742
531.8962, 170.9243
532.3783, 176.9423
532.8604, 182.4210
533.3425, 187.6704
533.8246, 192.0711
534.3068, 195.0190
534.7889, 196.4346
535.2710, 196.2234
535.7531, 194.1823
536.2352, 190.5089
536.7173, 185.3306
537.1995, 178.5871
537.6816, 171.3175
538.1637, 164.1270
538.6458, 157.0753
539.1279, 150.5787
539.6100, 145.0508
540.0922, 139.4949
540.5743, 133.3906
541.0564, 127.1898
541.5385, 121.3362
542.0206, 115.9743
542.5027, 111.1688
542.9849, 107.0728
543.4670, 103.7017
543.9491, 100.3293
544.4312, 96.51323
544.9133, 93.28221
545.3954, 91.30029
545.8775, 89.78384
546.3596, 87.75524
546.8417, 84.99443
547.3239, 82.29480
547.8060, 80.62775
548.2881, 79.90225
548.7702, 79.16883
549.2523, 78.46327
549.7344, 77.58259
550.2166, 76.07726
550.6987, 74.39469
551.1808, 73.28428
551.6629, 73.07951
552.1450, 72.97926
552.6271, 72.45909
553.1093, 71.68777
553.5914, 71.03585
554.0735, 70.58073
554.5556, 70.10495
555.0377, 69.39820
555.5198, 68.46196
556.0020, 67.59245
556.4841, 66.47224
556.9662, 65.78536
557.4483, 66.09338
557.9304, 66.75072
558.4125, 66.94011
558.8947, 66.48811
559.3768, 65.86125
559.8589, 65.58110
560.3410, 65.65690
560.8231, 65.69909
561.3052, 65.70110
561.7874, 65.67497
562.2695, 65.68530
562.7516, 65.64574
563.2337, 65.42632
563.7158, 64.98745
564.1979, 64.51443
564.6801, 64.14079
565.1622, 63.86020
565.6443, 63.63815
566.1264, 63.45811
566.6085, 63.40984
567.0906, 63.61802
567.5728, 64.00529
568.0549, 64.26537
568.5370, 64.39678
569.0191, 64.40628
569.5012, 64.13593
569.9833, 63.82335
570.4655, 63.87398
570.9476, 64.28834
571.4297, 64.58395
571.9118, 64.30346
572.3939, 63.49620
572.8760, 62.80321
573.3582, 62.03457
573.8403, 61.66607
574.3224, 61.92314
574.8045, 62.47924
575.2866, 63.17738
575.7687, 63.92733
576.2509, 64.48544
576.7330, 64.62843
577.2151, 64.41385
577.6972, 63.99297
578.1793, 63.28767
578.6614, 62.71884
579.1436, 62.52204
579.6257, 62.54641
580.1078, 62.57336
580.5899, 62.60502
581.0720, 62.60726
581.5541, 62.49762
582.0363, 62.39516
582.5184, 62.53161
583.0005, 62.85190
583.4826, 62.95601
583.9647, 62.56852
584.4468, 61.89144
584.9290, 61.51033
585.4111, 61.49607
585.8932, 61.69484
586.3753, 62.50552
586.8574, 63.17109
587.3395, 63.06774
587.8217, 62.39289
588.3038, 61.77007
588.7859, 61.55488
589.2680, 61.64528
589.7501, 61.93657
590.2322, 62.50657
590.7144, 62.68288
591.1965, 62.01326
591.6786, 61.26952
592.1607, 61.24828
592.6428, 61.76830
593.1249, 61.98840
593.6071, 61.45195
594.0892, 60.69522
594.5713, 60.02176
595.0534, 59.48539
595.5355, 59.27992
596.0176, 59.48598
596.4998, 59.86249
596.9819, 60.13210
597.4640, 60.31098
597.9461, 60.26840
598.4282, 59.71322
598.9103, 59.30288
599.3925, 59.40810
599.8746, 59.71651
600.3567, 59.78999
600.8388, 59.50323
601.3209, 59.10061
601.8030, 58.84906
602.2852, 58.74253
602.7673, 58.69766
603.2494, 58.82117
603.7315, 58.76728
604.2136, 58.04155
604.6957, 57.15527
605.1779, 56.88803
605.6600, 57.48612
606.1421, 58.00503
606.6242, 57.90422
607.1063, 57.47335
607.5884, 57.07568
608.0706, 56.75887
608.5527, 56.49408
609.0348, 56.25488
609.5169, 56.06946
609.9990, 56.03906
610.4811, 56.38708
610.9633, 56.56283
611.4454, 56.52787
611.9275, 56.35729
612.4096, 56.00461
612.8917, 55.55638
613.3738, 55.22510
613.8560, 55.15834
614.3381, 55.21344
614.8202, 55.07481
615.3023, 54.71515
615.7844, 54.53501
616.2665, 54.77963
616.7487, 54.98861
617.2308, 54.61001
617.7129, 53.81569
618.1950, 53.28789
618.6771, 53.42523
619.1592, 53.59950
619.6414, 53.37626
620.1235, 52.93543
620.6056, 52.61364
621.0877, 52.49742
621.5698, 52.47854
622.0519, 52.45543
622.5341, 52.42846
623.0162, 52.34977
623.4983, 52.13814
623.9804, 51.97916
624.4625, 51.94569
624.9446, 51.95110
625.4268, 51.88995
625.9089, 51.76241
626.3910, 51.69239
626.8730, 51.89929
627.3552, 52.20439
627.8373, 52.06221
628.3194, 51.43050
628.8015, 50.91726
629.2836, 50.79950
629.7657, 50.87360
630.2479, 50.81659
630.7300, 50.61596
631.2121, 50.45935
631.6942, 50.34934
632.1763, 50.31394
632.6584, 50.48044
633.1406, 50.71928
633.6227, 50.74087
634.1048, 50.43441
634.5869, 49.98660
635.0690, 49.63813
635.5511, 49.36933
636.0333, 49.35180
636.5154, 49.84994
636.9975, 50.23322
637.4796, 50.24938
637.9617, 50.04116
638.4438, 49.74311
638.9260, 49.36934
639.4081, 49.07472
639.8902, 49.00441
640.3723, 49.07362
640.8544, 49.19014
641.3365, 49.33433
641.8187, 49.30179
642.3008, 48.93837
642.7829, 48.38459
643.2650, 47.97872
643.7471, 47.71045
644.2292, 47.63972
644.7114, 47.93397
645.1935, 48.26600
645.6756, 48.48216
646.1577, 48.58548
646.6398, 48.62173
647.1219, 48.61116
647.6041, 48.54781
648.0862, 48.36742
648.5683, 48.07463
649.0504, 47.99932
649.5325, 48.29361
650.0146, 48.53076
650.4968, 48.26379
650.9789, 47.77720
651.4610, 47.73492
651.9431, 48.42324
652.4252, 49.01554
652.9073, 49.09862
653.3895, 48.97430
653.8716, 48.98474
654.3537, 49.13856
654.8358, 49.25408
655.3179, 49.21271
655.8000, 49.06470
656.2822, 48.94935
656.7643, 48.88554
657.2464, 48.80817
657.7285, 48.72014
658.2106, 48.60984
658.6927, 48.36580
659.1749, 48.10731
659.6570, 48.11170
660.1391, 48.54416
660.6212, 49.06838
661.1033, 49.42904
661.5854, 49.63812
662.0676, 49.68608
662.5497, 49.56702
663.0318, 49.48124
663.5139, 49.61005
663.9960, 49.87955
664.4781, 49.92461
664.9603, 49.60009
665.4424, 49.24556
665.9245, 48.73560
666.4066, 48.31303
666.8887, 48.21983
667.3708, 48.36507
667.8530, 48.45097
668.3351, 48.29504
668.8172, 48.08050
669.2993, 48.20210
669.7814, 48.63453
670.2635, 48.65844
670.7457, 47.96539
671.2278, 47.36715
671.7099, 47.68351
672.1920, 48.63179
672.6741, 48.97814
673.1563, 48.18489
673.6384, 47.60261
674.1205, 47.82222
674.6026, 48.30847
675.0847, 48.54241
675.5668, 48.50521
676.0490, 48.45738
676.5311, 48.57616
677.0132, 48.76390
677.4953, 48.75042
677.9774, 48.48127
678.4595, 48.27308
678.9417, 48.19267
679.4238, 48.14390
679.9059, 48.02527
680.3880, 47.89476
680.8701, 47.90910
681.3522, 48.21589
681.8344, 48.43120
682.3165, 48.20816
682.7986, 47.81393
683.2807, 47.66735
683.7628, 47.79166
684.2449, 47.92036
684.7271, 47.87053
685.2092, 47.69971
685.6913, 47.58656
686.1734, 47.53615
686.6555, 47.53189
687.1376, 47.61115
687.6198, 47.69975
688.1019, 47.74545
688.5840, 47.77821
689.0661, 47.86044
689.5482, 48.01476
690.0303, 48.21478
690.5125, 48.54070
690.9946, 48.87173
691.4767, 48.86678
691.9588, 48.49971
692.4409, 48.17010
692.9230, 48.12322
693.4052, 48.30908
693.8873, 48.59624
694.3694, 49.19460
694.8515, 49.50245
695.3336, 49.19471
695.8157, 48.94523
696.2979, 49.19746
696.7800, 49.72979
697.2621, 50.08373
697.7442, 50.07813
698.2263, 49.99559
698.7084, 50.18151
699.1906, 50.52693
699.6727, 50.60051
700.1548, 50.34039
700.6369, 50.25366
701.1190, 50.70009
701.6011, 51.41423
702.0833, 51.76358
702.5654, 51.58573
703.0475, 51.40409
703.5296, 51.06822
704.0117, 50.88852
704.4938, 51.15826
704.9760, 51.65467
705.4581, 51.99574
705.9402, 52.05244
706.4223, 52.03063
706.9044, 52.18163
707.3865, 52.45067
707.8687, 52.54050
708.3508, 52.40162
708.8329, 52.41678
709.3149, 52.85035
709.7971, 53.43174
710.2792, 53.68180
710.7613, 53.54132
711.2434, 53.41903
711.7255, 53.29412
712.2076, 53.24331
712.6898, 53.39310
713.1719, 53.60521
713.6540, 53.68934
714.1361, 53.59296
714.6182, 53.37479
715.1003, 53.02348
715.5825, 52.60596
716.0646, 52.42793
716.5467, 52.51753
717.0288, 52.66210
717.5109, 52.83669
717.9930, 52.97581
718.4752, 52.97834
718.9573, 52.84874
719.4394, 52.73405
719.9215, 52.54360
720.4036, 52.48973
720.8857, 52.82984
721.3679, 53.26412
721.8500, 53.37998
722.3321, 53.15392
722.8142, 52.92436
723.2963, 52.98091
723.7784, 53.20441
724.2606, 53.22135
724.7427, 53.00122
725.2248, 52.88026
725.7069, 52.95506
726.1890, 53.10487
726.6711, 53.24543
727.1533, 53.37544
727.6354, 53.48372
728.1175, 53.62738
728.5996, 53.67191
729.0817, 53.35532
729.5638, 53.07742
730.0460, 53.35804
730.5281, 54.07987
731.0102, 54.70686
731.4923, 54.93457
731.9744, 54.84248
732.4565, 54.44643
732.9387, 53.73567
733.4208, 53.39449
733.9029, 53.56636
734.3850, 53.92761
734.8671, 54.38549
735.3492, 54.85862
735.8314, 55.10542
736.3135, 54.93013
736.7956, 55.08126
737.2777, 56.13408
737.7598, 57.18117
738.2419, 57.48346
738.7241, 57.28952
739.2062, 57.19604
739.6883, 57.43032
740.1704, 57.79441
740.6525, 58.02308
741.1346, 58.14588
741.6168, 58.41425
742.0989, 58.83707
742.5810, 59.37852
743.0631, 60.10712
743.5452, 60.85680
744.0273, 61.35631
744.5095, 61.59003
744.9916, 61.87742
745.4737, 62.18314
745.9558, 62.61702
746.4379, 63.36077
746.9200, 64.18802
747.4022, 64.75302
747.8843, 65.04873
748.3664, 65.42387
748.8485, 66.13209
749.3306, 67.12544
749.8127, 68.42155
750.2949, 70.02450
750.7770, 71.23608
751.2591, 71.79110
751.7412, 72.23383
752.2233, 73.01309
752.7054, 74.09654
753.1876, 75.24672
753.6697, 76.52608
754.1518, 77.77534
754.6339, 79.04527
755.1160, 80.22385
755.5981, 81.12499
756.0803, 81.87324
756.5624, 82.75236
757.0445, 83.88363
757.5266, 85.26911
758.0087, 87.12859
758.4908, 89.26213
758.9730, 90.63772
759.4551, 91.11832
759.9372, 92.14149
760.4193, 94.66370
760.9014, 97.80639
761.3835, 99.82273
761.8657, 100.1790
762.3478, 101.2145
762.8299, 103.5056
763.3120, 105.7427
763.7941, 107.4971
764.2762, 108.9437
764.7584, 110.2156
765.2405, 111.3824
765.7226, 112.7113
766.2047, 114.7342
766.6868, 116.7812
767.1689, 117.7572
767.6511, 117.8643
768.1332, 117.9282
768.6153, 118.1674
769.0974, 118.4576
769.5795, 118.7559
770.0616, 118.9856
770.5438, 118.5031
771.0259, 117.0358
771.5080, 115.3205
771.9901, 113.2770
772.4722, 111.1557
772.9543, 109.1776
773.4365, 107.2375
773.9186, 105.0963
774.4007, 102.7134
774.8828, 100.0373
775.3649, 96.86619
775.8470, 93.48826
776.3292, 90.22076
776.8113, 87.12536
777.2934, 84.36036
777.7755, 82.00546
778.2576, 79.69638
778.7397, 76.75022
779.2219, 73.06541
779.7040, 69.96249
780.1861, 67.56417
780.6682, 65.49628
781.1503, 63.72765
781.6324, 62.17233
782.1146, 60.80060
782.5967, 59.59319
783.0788, 58.37172
783.5609, 57.02578
784.0430, 55.73180
784.5251, 54.54240
785.0073, 53.47573
785.4894, 52.60846
785.9715, 51.91037
786.4536, 51.19949
786.9357, 50.32756
787.4178, 49.42252
787.9000, 48.82124
788.3821, 48.52285
788.8642, 48.07277
789.3463, 47.35500
789.8284, 46.67200
790.3105, 46.21136
790.7927, 45.93601
791.2747, 45.77184
791.7568, 45.81356
792.2390, 45.72272
792.7211, 45.38795
793.2032, 45.01560
793.6853, 44.69527
794.1674, 44.40778
794.6495, 44.11278
795.1317, 43.80161
795.6138, 43.49165
796.0959, 43.13293
796.5780, 42.81783
797.0601, 42.73951
797.5422, 42.86184
798.0244, 43.00011
798.5065, 43.10342
798.9886, 43.25018
799.4707, 43.57194
799.9528, 43.98628
800.4349, 43.83236
800.9171, 42.55557
801.3992, 41.81967
801.8813, 42.39103
802.3634, 42.97368
802.8455, 42.79844
803.3276, 42.17536
803.8098, 41.80162
804.2919, 41.90099
804.7740, 41.95495
805.2561, 41.58953
805.7382, 41.14049
806.2203, 40.97049
806.7025, 41.01427
807.1846, 41.06842
807.6667, 41.05084
808.1488, 40.93089
808.6309, 40.60427
809.1130, 40.14218
809.5952, 40.09852
810.0773, 40.59201
810.5594, 40.75414
811.0415, 40.19685
811.5236, 39.49538
812.0057, 39.21671
812.4879, 39.32085
812.9700, 39.32891
813.4521, 39.17985
813.9342, 39.02240
814.4163, 38.85164
814.8984, 38.70491
815.3806, 38.61299
815.8627, 38.56797
816.3448, 38.52580
816.8269, 38.46201
817.3090, 38.50019
817.7911, 38.93940
818.2733, 39.48986
818.7554, 39.44222
819.2375, 38.87885
819.7196, 38.59619
820.2017, 38.92108
820.6838, 39.32357
821.1660, 39.09188
821.6481, 38.25261
822.1302, 37.84299
822.6123, 38.08149
823.0944, 38.28164
823.5765, 38.39160
824.0587, 38.33459
824.5408, 37.88825
825.0229, 37.22779
825.5050, 36.92537
825.9871, 37.26750
826.4692, 37.60068
826.9514, 37.75008
827.4335, 37.72054
827.9156, 37.34991
828.3977, 36.82799
828.8798, 36.59814
829.3619, 36.82365
829.8441, 37.21165
830.3262, 37.47221
830.8083, 37.61921
831.2904, 37.71601
831.7725, 37.76171
832.2546, 37.64055
832.7368, 37.26786
833.2189, 36.91659
833.7010, 36.90747
834.1831, 37.19442
834.6652, 37.23959
835.1473, 36.75566
835.6295, 36.49292
836.1116, 36.69205
836.5937, 36.92805
837.0758, 36.91890
837.5579, 36.78369
838.0400, 36.80713
838.5222, 37.09399
839.0043, 37.32283
839.4864, 37.32176
839.9685, 37.18822
840.4506, 36.97065
840.9327, 36.70973
841.4149, 36.48116
841.8970, 36.30563
842.3791, 36.12717
842.8612, 35.84694
843.3433, 35.56468
843.8254, 35.73882
844.3076, 36.39589
844.7897, 36.61754
845.2718, 36.09544
845.7539, 35.55117
846.2360, 35.56639
846.7181, 35.95762
847.2003, 36.08973
847.6824, 35.77127
848.1645, 35.56532
848.6466, 35.49977
849.1287, 35.50956
849.6108, 35.53941
850.0930, 35.64309
850.5751, 35.98151
851.0572, 36.54929
851.5393, 36.91524
852.0214, 36.70357
852.5035, 36.34933
852.9857, 36.27082
853.4678, 36.30507
853.9499, 36.05843
854.4320, 35.54979
854.9141, 35.27309
855.3962, 35.59677
855.8784, 36.19022
856.3605, 36.38151
856.8426, 36.18210
857.3247, 35.94885
857.8068, 35.67300
858.2889, 35.55878
858.7711, 35.79205
859.2532, 36.10223
859.7353, 36.02918
860.2174, 35.48519
860.6995, 35.20554
861.1816, 35.47588
861.6638, 35.62056
862.1459, 35.49940
862.6280, 35.21932
863.1101, 34.67619
863.5922, 34.04618
864.0743, 33.88765
864.5565, 34.57454
865.0386, 35.23708
865.5207, 35.29008
866.0028, 35.04762
866.4849, 34.73809
866.9670, 34.46899
867.4492, 34.50417
867.9313, 34.91618
868.4134, 35.32470
868.8955, 35.30552
869.3776, 34.93782
869.8597, 34.35635
870.3419, 33.55858
870.8240, 33.42284
871.3061, 34.30660
871.7882, 35.19269
872.2703, 35.18549
872.7524, 34.54235
873.2346, 34.27925
873.7166, 34.63988
874.1987, 34.89535
874.6808, 34.97221
875.1630, 35.02217
875.6451, 35.14130
876.1272, 35.24013
876.6093, 35.17303
877.0914, 34.92966
877.5735, 34.74000
878.0557, 34.80166
878.5378, 34.80431
879.0199, 34.37059
879.5020, 33.89457
879.9841, 34.01069
880.4662, 34.60459
880.9484, 34.96763
881.4305, 34.69336
881.9126, 34.22283
882.3947, 34.17121
882.8768, 34.38338
883.3589, 34.37509
883.8411, 34.13344
884.3232, 33.80536
884.8053, 33.43269
885.2874, 33.13814
885.7695, 33.08043
886.2516, 33.24049
886.7338, 33.44043
887.2159, 33.80346
887.6980, 33.82044
888.1801, 33.07752
888.6622, 32.43123
889.1443, 32.62153
889.6265, 33.29462
890.1086, 33.61494
890.5907, 33.46986
891.0728, 33.28093
891.5549, 32.91127
892.0370, 32.73204
892.5192, 33.11603
893.0013, 33.67775
893.4834, 33.91006
893.9655, 33.79993
894.4476, 33.75139
894.9297, 34.09499
895.4119, 34.37519
895.8940, 34.05720
896.3761, 33.43887
896.8582, 32.92584
897.3403, 32.60425
897.8224, 32.58833
898.3046, 32.93114
898.7867, 33.39373
899.2688, 33.70961
899.7509, 33.86570
900.2330, 33.73632
900.7151, 33.30423
901.1973, 32.87496
901.6794, 32.50620
902.1615, 32.23460
902.6436, 32.08464
903.1257, 32.06075
903.6078, 32.20012
904.0900, 32.68408
904.5721, 32.94700
905.0542, 32.79847
905.5363, 32.65100
906.0184, 32.73054
906.5005, 32.85759
906.9827, 32.75149
907.4648, 32.40483
907.9469, 32.26754
908.4290, 32.65516
908.9111, 33.01378
909.3932, 33.21067
909.8754, 33.18882
910.3575, 32.69400
910.8396, 31.95337
911.3217, 31.55645
911.8038, 31.75551
912.2859, 32.16186
912.7681, 32.53288
913.2502, 32.83344
913.7323, 33.06752
914.2144, 33.17942
914.6965, 32.92008
915.1786, 32.26135
915.6608, 31.59970
916.1429, 31.25340
916.6250, 31.17303
917.1071, 31.30561
917.5892, 31.65193
918.0714, 31.70153
918.5535, 31.32631
919.0356, 31.14264
919.5177, 31.51430
919.9998, 32.11138
920.4819, 32.43351
920.9641, 32.46304
921.4462, 32.50097
921.9283, 32.57386
922.4104, 32.60953
922.8925, 32.57624
923.3746, 32.51981
923.8568, 32.40677
924.3389, 32.30194
924.8210, 32.38217
925.3031, 32.74136
925.7852, 33.01744
926.2673, 33.08851
926.7495, 33.08895
927.2316, 33.14008
927.7137, 33.13677
928.1958, 32.85860
928.6779, 32.35695
929.1600, 31.98576
929.6422, 31.91260
930.1243, 32.06624
930.6064, 32.54852
931.0885, 33.12474
931.5706, 33.42606
932.0527, 33.48434
932.5349, 33.52037
933.0170, 33.61530
933.4991, 33.66695
933.9812, 33.54403
934.4633, 33.31184
934.9454, 33.14427
935.4276, 33.04135
935.9097, 33.01610
936.3918, 33.07452
936.8739, 33.15144
937.3560, 33.21473
937.8381, 33.23904
938.3203, 33.12941
938.8024, 32.83009
939.2845, 32.92619
939.7666, 33.68794
940.2487, 34.11934
940.7308, 33.73747
941.2130, 33.19656
941.6951, 33.11791
942.1772, 33.40811
942.6593, 33.53828
943.1414, 33.30691
943.6235, 33.28002
944.1057, 33.64220
944.5878, 34.02676
945.0699, 34.36376
945.5520, 34.57957
946.0341, 34.53700
946.5162, 34.25280
946.9984, 34.01405
947.4805, 33.86572
947.9626, 33.85012
948.4447, 34.16851
948.9268, 34.48403
949.4089, 34.34753
949.8911, 33.95922
950.3732, 33.83049
950.8553, 34.12452
951.3374, 34.55811
951.8195, 35.01037
952.3016, 35.39180
952.7838, 35.58264
953.2659, 35.61337
953.7480, 35.47844
954.2301, 35.23190
954.7122, 35.15052
955.1943, 35.40805
955.6764, 35.74806
956.1585, 35.70178
956.6406, 35.89289
957.1227, 35.99696
957.6049, 35.85892
958.0870, 36.01273
958.5691, 35.68783
959.0512, 35.34312
959.5333, 35.39175
960.0154, 35.71260
960.4976, 35.90250
960.9797, 35.94847
961.4618, 35.92162
961.9439, 35.78320
962.4260, 35.69208
962.9081, 35.75271
963.3903, 35.83270
963.8724, 35.72683
964.3545, 35.87422
964.8366, 35.43803
965.3187, 35.99522
965.8008, 36.31076
966.2830, 36.24817
966.7651, 36.04388
967.2472, 35.69486
967.7293, 35.32711
968.2114, 35.11587
968.6935, 35.07611
969.1757, 35.13080
969.6578, 35.24551
970.1399, 35.47670
970.6220, 36.08596
971.1041, 36.61125
971.5862, 36.43124
972.0684, 35.89930
972.5505, 35.94334
973.0326, 36.86578
973.5147, 37.59733
973.9968, 37.33931
974.4789, 36.82444
974.9611, 36.58367
975.4432, 36.53423
975.9253, 36.56639
976.4074, 36.63880
976.8895, 36.71259
977.3716, 36.77065
977.8538, 36.80002
978.3359, 36.74679
978.8180, 36.67793
979.3001, 36.65491
979.7822, 36.72456
980.2643, 37.07596
980.7465, 37.72153
981.2286, 38.39935
981.7107, 38.93742
982.1928, 39.30052
982.6749, 39.30257
983.1570, 39.03605
983.6392, 39.11243
984.1213, 39.54540
984.6034, 39.78518
985.0855, 39.62115
985.5676, 39.47228
986.0497, 39.79493
986.5319, 40.39752
987.0140, 40.49227
987.4961, 39.98043
987.9782, 39.74473
988.4603, 39.87226
988.9424, 40.20042
989.4246, 40.74767
989.9067, 41.28991
990.3888, 41.54480
990.8709, 41.52526
991.3530, 41.42551
991.8351, 41.09423
992.3173, 41.03194
992.7994, 41.34793
993.2815, 41.84818
993.7636, 42.58466
994.2457, 43.35700
994.7278, 43.88747
995.2100, 44.17732
995.6921, 44.20278
996.1742, 43.75443
996.6563, 43.34179
997.1384, 42.87357
997.6205, 42.63468
998.1027, 42.94381
998.5848, 43.53928
999.0669, 43.94215
999.5490, 44.07295
1000.031, 44.36811
1000.513, 45.29866
1000.995, 45.94217
1001.477, 45.68040
1001.960, 45.19670
1002.442, 45.06061
1002.924, 45.19441
1003.406, 45.33148
1003.888, 45.40825
1004.370, 45.37600
1004.852, 44.97810
1005.334, 44.71960
1005.817, 45.18588
1006.299, 45.83607
1006.781, 45.95808
1007.263, 45.62323
1007.745, 45.30750
1008.227, 45.19371
1008.709, 45.15511
1009.191, 45.15456
1009.673, 45.12073
1010.156, 44.92684
1010.638, 44.65867
1011.120, 44.42810
1011.602, 44.28623
1012.084, 44.34922
1012.566, 44.69159
1013.048, 45.05423
1013.530, 45.05228
1014.013, 45.35538
1014.495, 45.55937
1014.977, 45.64636
1015.459, 45.95388
1015.941, 46.01723
1016.423, 46.09758
1016.905, 46.36531
1017.387, 46.68326
1017.869, 46.90593
1018.352, 46.99791
1018.834, 46.65695
1019.316, 45.98925
1019.798, 45.85725
1020.280, 46.45427
1020.762, 47.06976
1021.244, 47.17762
1021.726, 47.02233
1022.208, 47.08631
1022.691, 47.35247
1023.173, 47.63297
1023.655, 47.92716
1024.137, 48.05871
1024.619, 47.93639
1025.101, 48.11118
1025.583, 49.13517
1026.065, 49.03794
1026.547, 49.29914
1027.030, 49.76428
1027.512, 49.50867
1027.994, 50.17567
1028.476, 50.64193
1028.958, 50.51299
1029.440, 50.30478
1029.922, 50.49907
1030.404, 50.34990
1030.887, 50.28105
1031.369, 50.42342
1031.851, 50.46713
1032.333, 50.50613
1032.815, 50.84419
1033.297, 51.19226
1033.779, 51.50609
1034.261, 51.79816
1034.744, 52.00084
1035.226, 51.81070
1035.708, 50.89946
1036.190, 50.60035
1036.672, 51.20106
1037.154, 51.88872
1037.636, 52.55981
1038.118, 53.04884
1038.600, 53.08169
1039.083, 52.81491
1039.565, 52.91502
1040.047, 53.68768
1040.529, 54.07923
1041.011, 54.00061
1041.493, 53.66175
1041.975, 52.67542
1042.457, 51.83649
1042.939, 52.16046
1043.422, 53.22800
1043.904, 53.39192
1044.386, 51.94561
1044.868, 51.27343
1045.350, 52.12307
1045.832, 52.91707
1046.314, 53.08293
1046.796, 53.07766
1047.279, 53.34632
1047.761, 53.78538
1048.243, 53.98779
1048.725, 53.82692
1049.207, 53.69573
1049.689, 53.56310
1050.171, 53.57139
1050.653, 53.93630
1051.135, 54.32348
1051.618, 54.41752
1052.100, 54.28680
1052.582, 54.16515
1053.064, 54.03788
1053.546, 54.10138
1054.028, 54.53179
1054.510, 54.99242
1054.992, 55.41499
1055.474, 55.74978
1055.957, 55.88985
1056.439, 55.91840
1056.921, 56.04678
1057.403, 56.31262
1057.885, 56.68572
1058.367, 57.28741
1058.849, 57.83163
1059.331, 58.29607
1059.814, 58.55448
1060.296, 58.23506
1060.778, 57.67436
1061.260, 57.73605
1061.742, 58.68511
1062.224, 59.57915
1062.706, 60.23565
1063.188, 60.59160
1063.671, 60.25627
1064.153, 59.92125
1064.635, 60.29069
1065.117, 61.15347
1065.599, 61.97971
1066.081, 62.66413
1066.563, 63.15192
1067.045, 63.25326
1067.527, 63.36716
1068.010, 63.57411
1068.492, 63.97850
1068.974, 64.89516
1069.456, 66.00169
1069.938, 66.57103
1070.420, 66.46542
1070.902, 66.59278
1071.384, 67.68711
1071.866, 68.64541
1072.349, 68.73387
1072.831, 68.64466
1073.313, 68.97532
1073.795, 69.58066
1074.277, 70.16008
1074.759, 70.63949
1075.241, 70.95211
1075.723, 70.74587
1076.206, 70.82446
1076.688, 71.88171
1077.170, 73.08375
1077.652, 73.77859
1078.134, 74.12999
1078.616, 74.47297
1079.098, 74.85805
1079.580, 75.13536
1080.062, 75.06767
1080.545, 75.21753
1081.027, 76.08086
1081.509, 77.03311
1081.991, 77.48525
1082.473, 77.79350
1082.955, 78.58981
1083.437, 79.83393
1083.919, 80.85781
1084.401, 81.37865
1084.884, 81.79134
1085.366, 82.02073
1085.848, 82.48043
1086.330, 83.73400
1086.812, 85.18800
1087.294, 86.08659
1087.776, 86.47518
1088.258, 86.85760
1088.740, 87.33293
1089.223, 88.02697
1089.705, 89.23219
1090.187, 90.39964
1090.669, 91.10405
1091.151, 91.68149
1091.633, 92.72025
1092.115, 93.91983
1092.597, 94.24172
1093.080, 93.29552
1093.562, 92.63237
1094.044, 92.96765
1094.526, 93.54197
1095.008, 94.48604
1095.490, 95.07185
1095.972, 94.35972
1096.454, 92.90166
1096.937, 91.91716
1097.419, 91.64669
1097.901, 91.20724
1098.383, 90.23397
1098.865, 89.17018
1099.347, 88.08701
1099.829, 87.04687
1100.311, 86.01375
1100.793, 85.09205
1101.276, 84.53307
1101.758, 84.32195
1102.240, 83.86085
1102.722, 82.70911
1103.204, 81.73866
1103.686, 81.31416
1104.168, 80.93776
1104.650, 80.24890
1105.132, 79.50948
1105.615, 79.08127
1106.097, 78.93324
1106.579, 78.74400
1107.061, 78.45885
1107.543, 78.14417
1108.025, 77.82071
1108.507, 77.45623
1108.989, 77.24801
1109.472, 76.81693
1109.954, 75.50671
1110.436, 73.69288
1110.918, 72.70287
1111.400, 73.02444
1111.882, 72.81794
1112.364, 71.49220
1112.846, 70.26743
1113.328, 69.53974
1113.811, 68.89043
1114.293, 67.87565
1114.775, 66.79401
1115.257, 66.26266
1115.739, 66.34307
1116.221, 66.52383
1116.703, 67.07701
1117.185, 67.25275
1117.667, 66.59207
1118.150, 66.05761
1118.632, 66.18879
1119.114, 66.65913
1119.596, 67.02248
1120.078, 67.29430
1120.560, 67.77457
1121.042, 68.55777
1121.524, 69.33141
1122.007, 70.15627
1122.489, 70.79301
1122.971, 71.02456
1123.453, 71.26689
1123.935, 71.97631
1124.417, 73.00338
1124.899, 73.77383
1125.381, 74.21839
1125.864, 74.73184
1126.346, 75.31080
1126.828, 75.99870
1127.310, 76.86358
1127.792, 77.61788
1128.274, 77.98465
1128.756, 78.26062
1129.238, 79.11532
1129.720, 80.51782
1130.203, 81.35513
1130.685, 81.58038
1131.167, 81.59751
1131.649, 81.40028
1132.131, 81.74126
1132.613, 83.05037
1133.095, 84.77060
1133.577, 86.26106
1134.059, 87.48759
1134.542, 88.22704
1135.024, 88.52930
1135.506, 88.87903
1135.988, 89.33216
1136.470, 90.16290
1136.952, 91.45715
1137.434, 92.77431
1137.916, 93.74789
1138.399, 94.50296
1138.881, 95.22487
1139.363, 95.93497
1139.845, 96.66109
1140.327, 97.44144
1140.809, 98.48647
1141.291, 99.78970
1141.773, 100.9887
1142.255, 101.8931
1142.738, 102.7014
1143.220, 103.6217
1143.702, 104.6203
1144.184, 105.6745
1144.666, 106.7464
1145.148, 107.6199
1145.630, 108.4430
1146.112, 109.8734
1146.594, 112.0473
1147.077, 113.9758
1147.559, 114.8810
1148.041, 115.3730
1148.523, 115.6311
1149.005, 116.1494
1149.487, 117.7312
1149.969, 119.9306
1150.451, 122.0465
1150.934, 123.8648
1151.416, 125.1471
1151.898, 125.6232
1152.380, 126.2946
1152.862, 128.0531
1153.344, 129.8332
1153.826, 130.8759
1154.308, 131.5951
1154.791, 132.2469
1155.273, 133.0337
1155.755, 134.4219
1156.237, 136.5509
1156.719, 138.2756
1157.201, 138.7050
1157.683, 139.4846
1158.165, 141.6207
1158.647, 143.6953
1159.130, 144.5645
1159.612, 145.0283
1160.094, 146.3665
1160.576, 148.4870
1161.058, 149.9045
1161.540, 149.9712
1162.022, 150.4110
1162.504, 151.3967
1162.986, 152.5281
1163.469, 153.7476
1163.951, 155.0114
1164.433, 156.3646
1164.915, 157.6816
1165.397, 158.6513
1165.879, 159.2428
1166.361, 159.7336
1166.843, 159.9632
1167.325, 160.7350
1167.808, 162.3254
1168.290, 163.8823
1168.772, 164.9603
1169.254, 165.9543
1169.736, 167.4063
1170.218, 169.0962
1170.700, 170.1219
1171.182, 170.4950
1171.665, 170.6400
1172.147, 170.5966
1172.629, 171.0666
1173.111, 172.2391
1173.593, 173.6121
1174.075, 174.8719
1174.557, 175.8855
1175.039, 176.3251
1175.521, 176.4077
1176.004, 176.6281
1176.486, 177.0423
1176.968, 178.0465
1177.450, 179.4608
1177.932, 180.2649
1178.414, 180.1417
1178.896, 179.9931
1179.378, 180.5672
1179.860, 181.3603
1180.343, 181.8180
1180.825, 182.1667
1181.307, 182.7579
1181.789, 183.4342
1182.271, 183.8627
1182.753, 184.0377
1183.235, 184.1495
1183.717, 184.2348
1184.200, 184.4986
1184.682, 185.2148
1185.164, 185.9344
1185.646, 186.5813
1186.128, 186.9576
1186.610, 186.5423
1187.092, 185.8930
1187.574, 186.1944
1188.057, 187.5214
1188.539, 188.3008
1189.021, 187.8379
1189.503, 187.5200
1189.985, 187.5628
1190.467, 187.6797
1190.949, 187.7666
1191.431, 187.8864
1191.913, 188.1333
1192.396, 188.4329
1192.878, 188.5821
1193.360, 188.5603
1193.842, 188.5305
1194.324, 188.4587
1194.806, 188.4973
1195.288, 188.6564
1195.770, 189.0586
1196.252, 189.8703
1196.735, 190.5056
1197.217, 190.2624
1197.699, 189.3381
1198.181, 188.1519
1198.663, 186.8030
1199.145, 186.1519
1199.627, 186.2016
1200.109, 186.7517
1200.592, 187.6825
1201.074, 188.4303
1201.556, 188.6654
1202.038, 188.5462
1202.520, 188.1009
1203.002, 187.5556
1203.484, 187.2658
1203.966, 187.1528
1204.448, 187.0629
1204.931, 187.0243
1205.413, 187.2577
1205.895, 187.7315
1206.377, 187.9402
1206.859, 187.6188
1207.341, 186.9962
1207.823, 185.7836
1208.305, 184.8134
1208.787, 184.7583
1209.270, 185.1714
1209.752, 185.9039
1210.234, 186.5957
1210.716, 186.4362
1211.198, 185.2459
1211.680, 184.3504
1212.162, 184.2752
1212.644, 183.9857
1213.127, 182.9970
1213.609, 182.2273
1214.091, 182.0412
1214.573, 182.2048
1215.055, 182.6066
1215.537, 183.1141
1216.019, 183.2561
1216.501, 182.9362
1216.984, 183.2806
1217.466, 184.5093
1217.948, 184.8549
1218.430, 183.9450
1218.912, 182.7380
1219.394, 181.6316
1219.876, 181.1050
1220.358, 181.8446
1220.840, 183.1806
1221.323, 183.4887
1221.805, 183.0778
1222.287, 182.8318
1222.769, 182.8428
1223.251, 183.4701
1223.733, 184.5494
1224.215, 184.9047
1224.697, 183.9758
1225.179, 183.0736
1225.662, 183.6497
1226.144, 184.3577
1226.626, 183.7390
1227.108, 182.8156
1227.590, 182.5376
1228.072, 182.8291
1228.554, 183.6470
1229.036, 184.7823
1229.519, 185.3781
1230.001, 184.9212
1230.483, 184.8818
1230.965, 185.9029
1231.447, 186.9655
1231.929, 187.9481
1232.411, 188.6579
1232.893, 188.9620
1233.375, 188.9454
1233.858, 188.5993
1234.340, 188.0134
1234.822, 188.0206
1235.304, 188.7339
1235.786, 189.5656
1236.268, 190.5571
1236.750, 191.3005
1237.232, 191.6889
1237.714, 191.7822
1238.197, 191.5694
1238.679, 191.4719
1239.161, 192.1996
1239.643, 193.3691
1240.125, 193.9453
1240.607, 194.1033
1241.089, 194.2276
1241.571, 194.4523
1242.054, 195.2428
1242.536, 196.5208
1243.018, 197.1523
1243.500, 196.3931
1243.982, 196.0117
1244.464, 197.9133
1244.946, 200.0340
1245.428, 200.9252
1245.910, 201.1559
1246.393, 200.9993
1246.875, 200.7834
1247.357, 200.9758
1247.839, 201.5926
1248.321, 202.2271
1248.803, 202.6640
1249.285, 203.4696
1249.767, 205.2090
1250.250, 206.4135
1250.732, 206.4128
1251.214, 206.4581
1251.696, 207.5616
1252.178, 208.6832
1252.660, 208.0740
1253.142, 206.2327
1253.624, 206.0835
1254.106, 207.5859
1254.589, 208.7121
1255.071, 209.3621
1255.553, 209.6746
1256.035, 209.7397
1256.517, 210.2155
1256.999, 211.4903
1257.481, 212.6105
1257.963, 212.2736
1258.445, 211.4887
1258.928, 211.5523
1259.410, 212.0860
1259.892, 212.7576
1260.374, 213.3943
1260.856, 213.7368
1261.338, 213.8170
1261.820, 213.9709
1262.302, 214.3501
1262.785, 214.5406
1263.267, 214.3198
1263.749, 214.0253
1264.231, 213.6210
1264.713, 213.3406
1265.195, 213.3862
1265.677, 213.5532
1266.159, 213.5671
1266.641, 213.5277
1267.124, 213.9219
1267.606, 214.8936
1268.088, 215.0532
1268.570, 214.3137
1269.052, 213.6851
1269.534, 213.3373
1270.016, 213.3084
1270.498, 213.6182
1270.980, 213.8791
1271.463, 213.6479
1271.945, 213.3908
1272.427, 214.2021
1272.909, 213.7598
1273.391, 214.8575
1273.873, 213.7198
1274.355, 213.3377
1274.837, 213.5443
1275.320, 213.0839
1275.802, 211.6769
1276.284, 210.7235
1276.766, 211.0096
1277.248, 211.4665
1277.730, 211.9983
1278.212, 212.3004
1278.694, 212.2249
1279.177, 211.8540
1279.659, 211.1076
1280.141, 210.2424
1280.623, 209.7617
1281.105, 209.2645
1281.587, 209.3235
1282.069, 208.7562
1282.551, 208.5141
1283.033, 208.6699
1283.516, 208.2536
1283.998, 207.0094
1284.480, 206.1003
1284.962, 206.2813
1285.444, 206.5371
1285.926, 205.8721
##END=



