##NAMES=Marthozite
##RRUFFID=R090052
##IDEAL CHEMISTRY=Cu^2+^(U^6+^O_2_)_3_(Se^4+^O_3_)_2_O_2_&#183;8H_2_O
##LOCALITY=Musonoi mine, Kolwezi, Katanga, Congo
##OWNER=RRUFF
##SOURCE=William W. Pinch
##DESCRIPTION=Yellowish green triangular shaped flattened and striated crystals, associated with guilleminite and green brochantite.  Sample is from the same specimen used in the Cooper and Hawthorne (2001) study
##STATUS=The identification of this mineral has been confirmed only by single crystal X-ray diffraction.
##URL=rruff.info/R090052
89.78156, 0.0000000E+00
90.26367, 76.98341
90.74579, 80.62344
91.22791, 78.80070
91.71002, 72.17131
92.19214, 66.52625
92.67426, 67.61167
93.15638, 73.50172
93.63850, 79.12638
94.12061, 83.23991
94.60273, 85.90674
95.08485, 87.26337
95.56696, 87.29604
96.04908, 86.03329
96.53120, 81.93925
97.01331, 75.33649
97.49543, 71.34069
97.97755, 73.95191
98.45966, 82.64790
98.94178, 87.91371
99.42390, 89.24076
99.90602, 87.75601
100.3881, 84.53074
100.8703, 78.42461
101.3524, 74.64130
101.8345, 77.05746
102.3166, 87.87256
102.7987, 95.23019
103.2808, 97.50557
103.7630, 95.75932
104.2451, 94.52007
104.7272, 94.04795
105.2093, 93.72343
105.6914, 93.08595
106.1735, 91.77500
106.6557, 90.71004
107.1378, 89.21924
107.6199, 87.18172
108.1020, 88.78460
108.5841, 97.83357
109.0662, 108.5420
109.5484, 115.8329
110.0305, 114.9000
110.5126, 115.4053
110.9947, 118.8138
111.4768, 125.2885
111.9590, 134.1746
112.4411, 146.5253
112.9232, 161.0756
113.4053, 175.8297
113.8874, 191.0515
114.3695, 206.0656
114.8517, 219.7643
115.3338, 230.1283
115.8159, 244.0053
116.2980, 262.1580
116.7801, 285.3614
117.2622, 314.9450
117.7444, 354.3058
118.2265, 398.7004
118.7086, 444.3366
119.1907, 487.9845
119.6728, 537.3090
120.1549, 597.0148
120.6371, 666.2394
121.1192, 741.8144
121.6013, 823.5550
122.0834, 909.4373
122.5655, 996.9971
123.0476, 1087.052
123.5298, 1177.122
124.0119, 1265.467
124.4940, 1352.054
124.9761, 1436.794
125.4582, 1516.517
125.9404, 1593.788
126.4225, 1672.970
126.9046, 1757.301
127.3867, 1844.111
127.8688, 1928.453
128.3509, 2010.001
128.8331, 2092.265
129.3152, 2176.213
129.7973, 2263.368
130.2794, 2358.967
130.7615, 2467.554
131.2436, 2586.934
131.7258, 2707.283
132.2079, 2827.142
132.6900, 2951.180
133.1721, 3090.055
133.6542, 3243.363
134.1364, 3396.551
134.6185, 3544.980
135.1006, 3689.112
135.5827, 3823.612
136.0648, 3947.255
136.5469, 4063.433
137.0291, 4181.762
137.5112, 4303.207
137.9933, 4419.594
138.4754, 4528.343
138.9575, 4629.171
139.4396, 4717.735
139.9218, 4790.585
140.4039, 4850.438
140.8860, 4910.042
141.3681, 4972.297
141.8502, 5028.382
142.3323, 5067.756
142.8145, 5082.819
143.2966, 5102.249
143.7787, 5131.001
144.2608, 5169.174
144.7429, 5206.284
145.2250, 5239.774
145.7072, 5274.962
146.1893, 5317.258
146.6714, 5370.005
147.1535, 5424.705
147.6356, 5478.614
148.1178, 5530.478
148.5999, 5588.669
149.0820, 5655.903
149.5641, 5728.139
150.0462, 5800.054
150.5283, 5875.492
151.0105, 5902.925
151.4926, 5953.912
151.9747, 5942.146
152.4568, 5935.582
152.9389, 5938.176
153.4210, 5945.521
153.9032, 5951.492
154.3853, 5953.397
154.8674, 5955.720
155.3495, 5960.362
155.8316, 5969.610
156.3137, 5976.109
156.7959, 5976.080
157.2780, 5972.685
157.7601, 5971.910
158.2422, 5979.173
158.7243, 5986.127
159.2065, 5988.062
159.6886, 5979.414
160.1707, 5974.039
160.6528, 5976.443
161.1349, 5984.992
161.6170, 5995.575
162.0992, 6008.955
162.5813, 6022.424
163.0634, 6034.013
163.5455, 6041.387
164.0276, 6049.353
164.5097, 6060.164
164.9919, 6073.384
165.4740, 6087.375
165.9561, 6104.754
166.4382, 6121.041
166.9203, 6132.190
167.4024, 6132.846
167.8846, 6132.501
168.3667, 6135.941
168.8488, 6143.140
169.3309, 6154.047
169.8130, 6173.672
170.2952, 6195.593
170.7773, 6211.544
171.2594, 6214.950
171.7415, 6214.344
172.2236, 6216.306
172.7057, 6220.682
173.1879, 6226.148
173.6700, 6230.464
174.1521, 6235.231
174.6342, 6243.185
175.1163, 6258.803
175.5984, 6276.393
176.0806, 6288.283
176.5627, 6294.460
177.0448, 6300.134
177.5269, 6313.032
178.0090, 6329.190
178.4911, 6339.509
178.9733, 6338.403
179.4554, 6329.642
179.9375, 6316.351
180.4196, 6297.987
180.9017, 6282.721
181.3838, 6283.596
181.8660, 6296.212
182.3481, 6304.776
182.8302, 6296.664
183.3123, 6279.969
183.7944, 6274.068
184.2766, 6280.530
184.7587, 6292.137
185.2408, 6301.653
185.7229, 6309.120
186.2050, 6315.093
186.6871, 6316.427
187.1693, 6315.841
187.6514, 6324.704
188.1335, 6345.249
188.6156, 6369.299
189.0977, 6385.569
189.5798, 6394.182
190.0620, 6400.515
190.5441, 6408.098
191.0262, 6416.117
191.5083, 6419.112
191.9904, 6415.867
192.4725, 6409.619
192.9547, 6404.617
193.4368, 6400.754
193.9189, 6400.442
194.4010, 6406.083
194.8831, 6417.364
195.3652, 6429.513
195.8474, 6443.190
196.3295, 6456.198
196.8116, 6463.579
197.2937, 6464.930
197.7758, 6464.557
198.2579, 6463.400
198.7401, 6461.315
199.2222, 6464.059
199.7043, 6472.829
200.1864, 6485.498
200.6685, 6498.324
201.1507, 6511.678
201.6328, 6522.780
202.1149, 6529.297
202.5970, 6530.758
203.0791, 6532.089
203.5612, 6533.475
204.0434, 6535.130
204.5255, 6538.096
205.0076, 6543.038
205.4897, 6547.181
205.9718, 6548.458
206.4539, 6546.354
206.9361, 6544.888
207.4182, 6544.700
207.9003, 6545.331
208.3824, 6545.463
208.8645, 6545.393
209.3466, 6544.163
209.8288, 6540.434
210.3109, 6533.054
210.7930, 6528.561
211.2751, 6528.724
211.7572, 6531.887
212.2393, 6531.563
212.7215, 6526.424
213.2036, 6520.651
213.6857, 6517.258
214.1678, 6517.467
214.6499, 6515.392
215.1320, 6509.127
215.6142, 6500.185
216.0963, 6496.009
216.5784, 6498.851
217.0605, 6502.110
217.5426, 6501.343
218.0247, 6495.163
218.5069, 6489.030
218.9890, 6483.136
219.4711, 6477.681
219.9532, 6473.562
220.4353, 6471.314
220.9175, 6469.571
221.3996, 6467.163
221.8817, 6463.034
222.3638, 6461.442
222.8459, 6464.346
223.3280, 6470.306
223.8102, 6471.181
224.2923, 6463.496
224.7744, 6455.985
225.2565, 6454.670
225.7386, 6462.740
226.2207, 6469.066
226.7029, 6472.506
227.1850, 6473.354
227.6671, 6472.822
228.1492, 6469.692
228.6313, 6466.899
229.1134, 6466.843
229.5956, 6472.616
230.0777, 6473.978
230.5598, 6468.134
231.0419, 6457.073
231.5240, 6449.937
232.0062, 6445.961
232.4883, 6447.079
232.9704, 6455.971
233.4525, 6479.716
233.9346, 6495.369
234.4167, 6497.647
234.8989, 6490.060
235.3810, 6489.322
235.8631, 6498.938
236.3452, 6510.692
236.8273, 6520.233
237.3094, 6527.592
237.7916, 6532.161
238.2737, 6532.255
238.7558, 6529.337
239.2379, 6529.964
239.7200, 6536.124
240.2021, 6543.014
240.6843, 6548.830
241.1664, 6556.276
241.6485, 6556.045
242.1306, 6542.673
242.6127, 6521.425
243.0948, 6514.069
243.5770, 6531.348
244.0591, 6547.917
244.5412, 6549.378
245.0233, 6525.127
245.5054, 6510.292
245.9876, 6509.795
246.4697, 6519.089
246.9518, 6523.386
247.4339, 6519.401
247.9160, 6515.349
248.3981, 6515.404
248.8803, 6521.690
249.3624, 6526.803
249.8445, 6530.243
250.3266, 6532.377
250.8087, 6534.760
251.2908, 6539.333
251.7730, 6540.701
252.2551, 6535.123
252.7372, 6517.015
253.2193, 6506.509
253.7014, 6507.344
254.1835, 6514.148
254.6657, 6513.624
255.1478, 6499.814
255.6299, 6489.206
256.1120, 6490.317
256.5941, 6509.464
257.0763, 6519.811
257.5584, 6518.153
258.0405, 6509.932
258.5226, 6506.233
259.0047, 6509.306
259.4868, 6512.288
259.9690, 6512.393
260.4511, 6508.875
260.9332, 6505.967
261.4153, 6503.652
261.8974, 6501.920
262.3795, 6500.608
262.8617, 6499.267
263.3438, 6499.396
263.8259, 6502.240
264.3080, 6508.554
264.7901, 6511.592
265.2722, 6510.227
265.7544, 6506.863
266.2365, 6504.987
266.7186, 6505.042
267.2007, 6505.326
267.6828, 6506.470
268.1649, 6508.865
268.6471, 6503.877
269.1292, 6487.970
269.6113, 6470.150
270.0934, 6463.392
270.5755, 6471.616
271.0576, 6475.416
271.5398, 6467.789
272.0219, 6449.123
272.5040, 6435.901
272.9861, 6429.471
273.4682, 6425.854
273.9503, 6420.851
274.4325, 6414.085
274.9146, 6408.158
275.3967, 6404.252
275.8788, 6401.839
276.3610, 6397.007
276.8431, 6389.507
277.3252, 6380.507
277.8073, 6371.349
278.2894, 6362.221
278.7715, 6350.719
279.2537, 6334.248
279.7358, 6315.544
280.2179, 6308.069
280.7000, 6314.426
281.1821, 6320.467
281.6642, 6311.914
282.1464, 6288.665
282.6285, 6271.896
283.1106, 6266.015
283.5927, 6267.884
284.0748, 6270.330
284.5569, 6273.555
285.0391, 6274.905
285.5212, 6270.835
286.0033, 6261.921
286.4854, 6256.585
286.9675, 6257.154
287.4496, 6259.615
287.9318, 6254.648
288.4139, 6242.058
288.8960, 6230.341
289.3781, 6225.204
289.8602, 6225.475
290.3423, 6225.557
290.8245, 6225.427
291.3066, 6224.032
291.7887, 6219.456
292.2708, 6211.922
292.7529, 6203.118
293.2350, 6191.882
293.7172, 6179.995
294.1993, 6173.776
294.6814, 6174.006
295.1635, 6177.349
295.6456, 6180.917
296.1277, 6184.381
296.6099, 6186.354
297.0920, 6186.253
297.5741, 6184.141
298.0562, 6179.125
298.5383, 6170.963
299.0204, 6163.213
299.5026, 6159.997
299.9847, 6160.108
300.4668, 6160.298
300.9489, 6160.639
301.4311, 6159.731
301.9132, 6153.540
302.3953, 6142.352
302.8774, 6133.762
303.3595, 6136.579
303.8416, 6145.821
304.3238, 6152.677
304.8059, 6152.501
305.2880, 6150.481
305.7701, 6153.353
306.2522, 6160.020
306.7343, 6163.671
307.2165, 6155.193
307.6986, 6142.611
308.1807, 6136.343
308.6628, 6141.284
309.1449, 6149.079
309.6270, 6153.900
310.1092, 6156.331
310.5913, 6158.202
311.0734, 6160.010
311.5555, 6161.894
312.0376, 6164.290
312.5197, 6167.950
313.0019, 6170.144
313.4840, 6166.476
313.9661, 6160.308
314.4482, 6158.469
314.9303, 6171.646
315.4124, 6184.593
315.8946, 6186.017
316.3767, 6171.993
316.8588, 6160.158
317.3409, 6162.796
317.8230, 6170.602
318.3051, 6171.299
318.7873, 6150.979
319.2694, 6131.763
319.7515, 6123.748
320.2336, 6128.195
320.7157, 6133.422
321.1978, 6136.146
321.6800, 6138.127
322.1621, 6140.935
322.6442, 6146.857
323.1263, 6151.510
323.6084, 6153.351
324.0905, 6152.529
324.5727, 6151.859
325.0548, 6152.060
325.5369, 6152.384
326.0190, 6152.404
326.5012, 6151.784
326.9833, 6151.336
327.4654, 6151.415
327.9475, 6151.852
328.4296, 6151.858
328.9117, 6150.297
329.3939, 6149.315
329.8760, 6149.984
330.3581, 6154.745
330.8402, 6156.326
331.3223, 6152.216
331.8044, 6145.451
332.2866, 6142.215
332.7687, 6143.264
333.2508, 6146.523
333.7329, 6151.910
334.2150, 6160.264
334.6971, 6166.452
335.1793, 6170.397
335.6614, 6172.335
336.1435, 6171.899
336.6256, 6167.401
337.1077, 6165.603
337.5898, 6169.795
338.0720, 6179.606
338.5541, 6183.472
339.0362, 6179.805
339.5183, 6174.330
340.0004, 6172.348
340.4825, 6174.370
340.9647, 6176.616
341.4468, 6177.865
341.9289, 6179.214
342.4110, 6184.702
342.8931, 6194.605
343.3752, 6206.072
343.8574, 6217.490
344.3395, 6228.795
344.8216, 6238.827
345.3037, 6247.093
345.7858, 6254.417
346.2679, 6261.721
346.7501, 6269.065
347.2322, 6277.476
347.7143, 6289.202
348.1964, 6302.549
348.6785, 6311.666
349.1607, 6315.971
349.6428, 6318.877
350.1249, 6324.727
350.6070, 6332.563
351.0891, 6339.390
351.5713, 6342.630
352.0534, 6344.822
352.5355, 6350.705
353.0176, 6360.078
353.4997, 6368.644
353.9818, 6371.490
354.4640, 6371.690
354.9461, 6374.470
355.4282, 6384.459
355.9103, 6393.521
356.3924, 6391.524
356.8745, 6381.429
357.3567, 6374.928
357.8388, 6384.332
358.3209, 6397.011
358.8030, 6401.008
359.2851, 6390.915
359.7672, 6380.939
360.2494, 6380.794
360.7315, 6385.908
361.2136, 6387.847
361.6957, 6382.324
362.1778, 6373.751
362.6599, 6363.741
363.1421, 6352.232
363.6242, 6340.725
364.1063, 6328.818
364.5884, 6317.344
365.0705, 6307.253
365.5526, 6300.685
366.0348, 6293.405
366.5169, 6281.626
366.9990, 6266.023
367.4811, 6258.362
367.9632, 6271.500
368.4453, 6284.773
368.9275, 6286.132
369.4096, 6261.067
369.8917, 6244.122
370.3738, 6240.845
370.8559, 6245.874
371.3380, 6243.555
371.8202, 6224.799
372.3023, 6211.120
372.7844, 6213.410
373.2665, 6238.605
373.7487, 6250.492
374.2308, 6243.080
374.7129, 6228.447
375.1950, 6223.726
375.6771, 6232.724
376.1592, 6239.500
376.6414, 6239.080
377.1235, 6232.397
377.6056, 6228.580
378.0877, 6227.896
378.5698, 6229.246
379.0519, 6232.177
379.5341, 6236.694
380.0162, 6241.292
380.4983, 6245.906
380.9804, 6250.222
381.4625, 6252.797
381.9446, 6253.702
382.4268, 6255.172
382.9089, 6260.127
383.3910, 6266.854
383.8731, 6268.630
384.3552, 6263.830
384.8373, 6259.275
385.3195, 6264.230
385.8016, 6276.161
386.2837, 6287.760
386.7658, 6295.741
387.2479, 6301.500
387.7300, 6306.101
388.2122, 6309.623
388.6943, 6314.068
389.1764, 6322.794
389.6585, 6332.671
390.1406, 6339.185
390.6227, 6338.208
391.1049, 6337.683
391.5870, 6343.514
392.0691, 6354.143
392.5512, 6364.907
393.0333, 6373.631
393.5154, 6381.839
393.9976, 6390.282
394.4797, 6398.808
394.9618, 6408.490
395.4439, 6418.871
395.9260, 6430.836
396.4081, 6445.494
396.8903, 6470.051
397.3724, 6490.662
397.8545, 6500.696
398.3366, 6499.463
398.8188, 6504.731
399.3009, 6522.673
399.7830, 6544.198
400.2651, 6563.417
400.7472, 6575.663
401.2293, 6592.810
401.7115, 6618.139
402.1936, 6648.538
402.6757, 6674.058
403.1578, 6690.900
403.6399, 6709.391
404.1220, 6733.388
404.6042, 6763.268
405.0863, 6797.906
405.5684, 6839.176
406.0505, 6881.526
406.5326, 6916.459
407.0147, 6942.956
407.4969, 6970.915
407.9790, 7003.843
408.4611, 7040.354
408.9432, 7072.832
409.4253, 7100.321
409.9074, 7132.650
410.3896, 7182.597
410.8717, 7245.610
411.3538, 7300.102
411.8359, 7340.010
412.3180, 7376.348
412.8001, 7426.589
413.2823, 7486.747
413.7644, 7544.576
414.2465, 7589.106
414.7286, 7629.178
415.2107, 7677.788
415.6928, 7735.212
416.1750, 7795.804
416.6571, 7858.943
417.1392, 7921.059
417.6213, 7979.413
418.1034, 8029.499
418.5855, 8078.542
419.0677, 8130.817
419.5498, 8185.583
420.0319, 8237.946
420.5140, 8286.740
420.9961, 8332.672
421.4782, 8377.552
421.9604, 8424.932
422.4425, 8462.072
422.9246, 8480.956
423.4067, 8489.123
423.8889, 8497.126
424.3710, 8514.524
424.8531, 8522.966
425.3352, 8519.624
425.8173, 8504.747
426.2994, 8476.087
426.7816, 8426.903
427.2637, 8370.967
427.7458, 8317.932
428.2279, 8271.651
428.7100, 8217.072
429.1921, 8152.727
429.6743, 8080.412
430.1564, 8005.884
430.6385, 7928.898
431.1206, 7850.676
431.6027, 7771.607
432.0848, 7691.116
432.5670, 7610.617
433.0491, 7529.041
433.5312, 7450.931
434.0133, 7380.655
434.4954, 7317.583
434.9775, 7257.337
435.4597, 7198.913
435.9418, 7142.807
436.4239, 7090.159
436.9060, 7041.580
437.3881, 6997.868
437.8702, 6963.968
438.3524, 6933.735
438.8345, 6896.762
439.3166, 6850.677
439.7987, 6806.187
440.2808, 6770.737
440.7629, 6742.463
441.2451, 6718.842
441.7272, 6705.810
442.2093, 6690.929
442.6914, 6664.341
443.1735, 6628.219
443.6556, 6597.294
444.1378, 6582.343
444.6199, 6570.627
445.1020, 6553.794
445.5841, 6525.841
446.0662, 6502.501
446.5483, 6488.857
447.0305, 6480.604
447.5126, 6470.396
447.9947, 6453.995
448.4768, 6440.839
448.9590, 6434.329
449.4411, 6434.662
449.9232, 6430.915
450.4053, 6419.662
450.8874, 6409.007
451.3695, 6405.658
451.8517, 6411.423
452.3338, 6416.018
452.8159, 6418.423
453.2980, 6419.119
453.7801, 6418.839
454.2622, 6417.500
454.7444, 6416.029
455.2265, 6414.149
455.7086, 6412.422
456.1907, 6413.591
456.6728, 6417.846
457.1549, 6423.287
457.6371, 6428.235
458.1192, 6433.089
458.6013, 6439.192
459.0834, 6447.595
459.5655, 6455.916
460.0476, 6461.016
460.5298, 6463.783
461.0119, 6466.572
461.4940, 6468.120
461.9761, 6471.960
462.4582, 6482.894
462.9403, 6502.092
463.4225, 6517.991
463.9046, 6522.684
464.3867, 6522.882
464.8688, 6524.833
465.3509, 6530.981
465.8330, 6537.973
466.3152, 6546.072
466.7973, 6554.709
467.2794, 6561.745
467.7615, 6566.258
468.2436, 6570.071
468.7257, 6574.200
469.2079, 6579.355
469.6900, 6580.950
470.1721, 6576.674
470.6542, 6571.275
471.1363, 6571.555
471.6184, 6581.139
472.1006, 6581.292
472.5827, 6566.430
473.0648, 6541.455
473.5469, 6521.166
474.0291, 6505.908
474.5112, 6491.430
474.9933, 6475.946
475.4754, 6459.366
475.9575, 6441.020
476.4396, 6420.792
476.9218, 6399.533
477.4039, 6376.294
477.8860, 6352.856
478.3681, 6333.958
478.8502, 6323.414
479.3323, 6315.068
479.8145, 6304.156
480.2966, 6290.436
480.7787, 6273.830
481.2608, 6250.006
481.7429, 6225.869
482.2250, 6205.979
482.7072, 6190.999
483.1893, 6179.318
483.6714, 6174.606
484.1535, 6171.083
484.6356, 6162.958
485.1177, 6146.022
485.5999, 6128.302
486.0820, 6108.263
486.5641, 6087.991
487.0462, 6075.162
487.5283, 6075.643
488.0104, 6075.857
488.4926, 6069.563
488.9747, 6055.060
489.4568, 6046.080
489.9389, 6044.382
490.4210, 6045.189
490.9031, 6043.931
491.3853, 6040.621
491.8674, 6033.890
492.3495, 6021.621
492.8316, 6007.914
493.3137, 6002.765
493.7958, 6005.474
494.2780, 6008.990
494.7601, 6008.726
495.2422, 6006.516
495.7243, 6006.614
496.2064, 6009.331
496.6885, 6010.578
497.1707, 6005.876
497.6528, 5998.045
498.1349, 5990.857
498.6170, 5985.092
499.0992, 5980.521
499.5813, 5977.955
500.0634, 5976.482
500.5455, 5973.854
501.0276, 5966.576
501.5097, 5960.484
501.9919, 5959.189
502.4740, 5964.147
502.9561, 5965.144
503.4382, 5957.436
503.9203, 5948.403
504.4024, 5943.087
504.8846, 5943.403
505.3667, 5944.012
505.8488, 5946.201
506.3309, 5947.581
506.8130, 5941.198
507.2951, 5924.572
507.7773, 5911.646
508.2594, 5909.565
508.7415, 5915.933
509.2236, 5916.014
509.7057, 5909.354
510.1878, 5902.307
510.6700, 5900.433
511.1521, 5902.375
511.6342, 5904.505
512.1163, 5906.704
512.5984, 5907.365
513.0806, 5902.472
513.5627, 5894.837
514.0448, 5890.335
514.5269, 5897.039
515.0090, 5903.165
515.4911, 5897.549
515.9733, 5882.346
516.4554, 5872.745
516.9375, 5881.328
517.4196, 5892.192
517.9017, 5895.530
518.3839, 5886.714
518.8660, 5878.799
519.3481, 5873.954
519.8302, 5870.303
520.3123, 5865.671
520.7944, 5857.159
521.2766, 5853.349
521.7587, 5857.897
522.2408, 5867.909
522.7229, 5872.015
523.2050, 5869.576
523.6871, 5864.009
524.1693, 5854.535
524.6514, 5842.138
525.1335, 5838.077
525.6156, 5843.229
526.0977, 5851.182
526.5798, 5857.216
527.0620, 5860.952
527.5441, 5860.733
528.0262, 5854.904
528.5083, 5847.483
528.9904, 5841.236
529.4725, 5836.624
529.9547, 5834.961
530.4368, 5839.532
530.9189, 5845.034
531.4010, 5847.937
531.8831, 5848.111
532.3652, 5847.923
532.8474, 5848.368
533.3295, 5848.524
533.8116, 5847.813
534.2937, 5845.848
534.7758, 5843.534
535.2579, 5839.211
535.7401, 5835.505
536.2222, 5837.250
536.7043, 5849.235
537.1864, 5855.604
537.6685, 5851.633
538.1506, 5839.763
538.6328, 5830.518
539.1149, 5823.806
539.5970, 5820.224
540.0791, 5822.296
540.5612, 5828.352
541.0433, 5829.625
541.5255, 5825.383
542.0076, 5820.242
542.4897, 5817.190
542.9718, 5816.650
543.4539, 5820.017
543.9360, 5829.850
544.4182, 5839.567
544.9003, 5843.930
545.3824, 5844.111
545.8645, 5842.792
546.3466, 5838.899
546.8287, 5835.583
547.3109, 5834.369
547.7930, 5835.353
548.2751, 5836.986
548.7572, 5839.826
549.2393, 5842.679
549.7214, 5844.996
550.2036, 5847.085
550.6857, 5848.019
551.1678, 5847.310
551.6499, 5846.076
552.1320, 5846.307
552.6141, 5848.549
553.0963, 5849.033
553.5784, 5846.574
554.0605, 5842.170
554.5426, 5837.460
555.0247, 5832.583
555.5068, 5829.799
555.9890, 5832.070
556.4711, 5836.815
556.9532, 5839.580
557.4353, 5840.154
557.9174, 5839.643
558.3995, 5836.516
558.8817, 5833.719
559.3638, 5835.223
559.8459, 5845.268
560.3281, 5852.784
560.8102, 5848.641
561.2923, 5840.143
561.7744, 5838.828
562.2565, 5858.638
562.7386, 5872.687
563.2208, 5872.011
563.7029, 5859.470
564.1850, 5855.674
564.6671, 5865.908
565.1492, 5875.627
565.6313, 5876.681
566.1135, 5868.127
566.5956, 5864.176
567.0777, 5865.768
567.5598, 5868.708
568.0419, 5867.666
568.5240, 5863.724
569.0062, 5862.978
569.4883, 5867.561
569.9704, 5873.439
570.4525, 5875.989
570.9346, 5875.786
571.4167, 5874.245
571.8989, 5872.075
572.3810, 5868.795
572.8631, 5864.056
573.3452, 5857.924
573.8273, 5850.523
574.3094, 5839.297
574.7916, 5828.952
575.2737, 5822.481
575.7558, 5821.821
576.2379, 5819.771
576.7200, 5815.247
577.2021, 5810.040
577.6843, 5805.551
578.1664, 5801.695
578.6485, 5798.991
579.1306, 5798.142
579.6127, 5797.573
580.0948, 5793.681
580.5770, 5786.460
581.0591, 5779.105
581.5412, 5772.664
582.0233, 5767.086
582.5054, 5763.511
582.9875, 5761.478
583.4697, 5757.033
583.9518, 5745.339
584.4339, 5731.056
584.9160, 5718.709
585.3981, 5708.759
585.8802, 5701.541
586.3624, 5700.671
586.8445, 5700.930
587.3266, 5697.447
587.8087, 5681.897
588.2908, 5672.050
588.7729, 5675.267
589.2551, 5683.979
589.7372, 5685.070
590.2193, 5674.144
590.7014, 5664.227
591.1835, 5659.188
591.6656, 5657.655
592.1478, 5651.175
592.6299, 5638.620
593.1120, 5629.504
593.5941, 5633.858
594.0762, 5646.662
594.5583, 5647.619
595.0405, 5635.671
595.5226, 5622.836
596.0047, 5620.838
596.4868, 5624.346
596.9689, 5625.655
597.4510, 5622.815
597.9332, 5618.399
598.4153, 5611.803
598.8974, 5605.266
599.3795, 5601.865
599.8616, 5607.845
600.3438, 5611.217
600.8259, 5606.836
601.3080, 5597.093
601.7901, 5591.510
602.2722, 5592.175
602.7543, 5593.577
603.2365, 5594.221
603.7186, 5594.010
604.2007, 5589.968
604.6828, 5581.010
605.1649, 5572.935
605.6470, 5570.757
606.1292, 5573.502
606.6113, 5578.586
607.0934, 5586.416
607.5755, 5591.613
608.0576, 5584.877
608.5398, 5572.409
609.0219, 5565.263
609.5040, 5571.976
609.9861, 5577.905
610.4683, 5573.299
610.9504, 5562.282
611.4325, 5553.549
611.9146, 5553.051
612.3967, 5551.678
612.8788, 5545.653
613.3610, 5535.694
613.8431, 5528.940
614.3252, 5526.210
614.8073, 5525.567
615.2894, 5526.677
615.7715, 5529.701
616.2537, 5530.180
616.7358, 5527.432
617.2179, 5524.942
617.7000, 5526.745
618.1821, 5531.711
618.6642, 5536.257
619.1464, 5539.982
619.6285, 5542.189
620.1106, 5540.874
620.5927, 5537.721
621.0748, 5535.700
621.5569, 5538.116
622.0391, 5539.679
622.5212, 5536.464
623.0033, 5530.416
623.4854, 5527.437
623.9675, 5533.146
624.4496, 5537.503
624.9318, 5537.436
625.4139, 5533.099
625.8960, 5528.888
626.3781, 5524.602
626.8602, 5521.196
627.3423, 5519.126
627.8245, 5518.406
628.3066, 5520.141
628.7887, 5524.795
629.2708, 5528.816
629.7529, 5527.196
630.2350, 5522.154
630.7172, 5518.671
631.1993, 5517.682
631.6814, 5518.578
632.1635, 5522.376
632.6456, 5527.317
633.1277, 5530.700
633.6099, 5531.304
634.0920, 5530.509
634.5741, 5527.871
635.0562, 5524.063
635.5383, 5521.622
636.0204, 5522.762
636.5026, 5522.302
636.9847, 5518.032
637.4668, 5510.388
637.9489, 5505.632
638.4310, 5504.583
638.9131, 5502.929
639.3953, 5495.760
639.8774, 5485.086
640.3595, 5480.966
640.8416, 5484.109
641.3237, 5489.048
641.8058, 5491.986
642.2880, 5492.971
642.7701, 5491.487
643.2522, 5486.151
643.7343, 5481.720
644.2164, 5481.672
644.6985, 5483.545
645.1807, 5484.080
645.6628, 5480.376
646.1449, 5478.069
646.6270, 5479.639
647.1091, 5482.733
647.5912, 5480.638
648.0734, 5470.761
648.5555, 5463.071
649.0376, 5461.266
649.5197, 5464.057
650.0018, 5465.933
650.4839, 5466.936
650.9661, 5467.196
651.4482, 5465.530
651.9303, 5463.655
652.4124, 5465.331
652.8945, 5470.637
653.3766, 5475.427
653.8588, 5478.442
654.3409, 5478.892
654.8230, 5475.041
655.3051, 5463.714
655.7872, 5456.581
656.2693, 5459.306
656.7515, 5465.641
657.2336, 5469.602
657.7158, 5470.216
658.1979, 5470.269
658.6800, 5469.582
659.1621, 5468.650
659.6442, 5468.526
660.1263, 5469.156
660.6085, 5469.332
661.0906, 5468.484
661.5727, 5467.086
662.0548, 5465.886
662.5369, 5464.852
663.0190, 5463.912
663.5012, 5463.689
663.9833, 5463.131
664.4654, 5461.660
664.9475, 5459.308
665.4296, 5455.915
665.9117, 5447.302
666.3939, 5441.377
666.8760, 5444.099
667.3581, 5457.721
667.8402, 5464.620
668.3223, 5461.938
668.8044, 5457.280
669.2866, 5456.627
669.7687, 5460.193
670.2508, 5460.979
670.7329, 5457.820
671.2150, 5455.091
671.6971, 5458.886
672.1793, 5466.888
672.6614, 5473.686
673.1435, 5478.980
673.6256, 5480.108
674.1077, 5469.606
674.5898, 5454.813
675.0720, 5447.232
675.5541, 5460.026
676.0362, 5469.675
676.5183, 5468.044
677.0004, 5458.675
677.4825, 5451.087
677.9647, 5444.795
678.4468, 5441.814
678.9289, 5443.990
679.4110, 5449.912
679.8931, 5452.643
680.3752, 5452.094
680.8574, 5450.217
681.3395, 5446.667
681.8216, 5442.954
682.3037, 5441.964
682.7858, 5443.710
683.2679, 5448.271
683.7501, 5461.817
684.2322, 5474.070
684.7143, 5474.242
685.1964, 5458.307
685.6785, 5447.463
686.1606, 5450.671
686.6428, 5458.620
687.1249, 5464.669
687.6070, 5468.028
688.0891, 5471.240
688.5712, 5474.400
689.0533, 5477.408
689.5355, 5481.140
690.0176, 5485.486
690.4997, 5484.924
690.9818, 5476.940
691.4639, 5468.303
691.9460, 5469.102
692.4282, 5476.320
692.9103, 5483.278
693.3924, 5485.993
693.8745, 5489.395
694.3566, 5496.771
694.8387, 5506.854
695.3209, 5516.716
695.8030, 5526.740
696.2851, 5535.062
696.7672, 5541.045
697.2493, 5544.976
697.7314, 5547.510
698.2136, 5547.320
698.6957, 5550.242
699.1778, 5561.107
699.6599, 5577.112
700.1420, 5584.029
700.6241, 5582.394
701.1063, 5581.299
701.5884, 5588.157
702.0705, 5598.669
702.5526, 5607.899
703.0347, 5615.487
703.5168, 5622.433
703.9990, 5630.051
704.4811, 5636.573
704.9632, 5639.775
705.4453, 5636.151
705.9274, 5639.148
706.4095, 5652.034
706.8917, 5667.902
707.3738, 5681.751
707.8560, 5693.527
708.3381, 5700.665
708.8202, 5701.608
709.3023, 5702.667
709.7844, 5713.224
710.2665, 5730.349
710.7487, 5746.525
711.2308, 5760.509
711.7129, 5771.169
712.1950, 5773.313
712.6771, 5772.785
713.1592, 5778.439
713.6414, 5799.489
714.1235, 5819.365
714.6056, 5832.511
715.0877, 5842.341
715.5698, 5855.839
716.0519, 5875.667
716.5341, 5891.537
717.0162, 5899.094
717.4983, 5902.225
717.9804, 5912.319
718.4625, 5929.008
718.9446, 5946.131
719.4268, 5961.813
719.9089, 5975.438
720.3910, 5985.078
720.8731, 5991.632
721.3552, 5999.330
721.8373, 6009.355
722.3195, 6021.878
722.8016, 6038.151
723.2837, 6058.044
723.7658, 6076.209
724.2479, 6093.292
724.7300, 6107.291
725.2122, 6115.718
725.6943, 6118.446
726.1764, 6126.574
726.6585, 6140.561
727.1406, 6157.821
727.6227, 6179.617
728.1049, 6202.810
728.5870, 6218.958
729.0691, 6227.292
729.5512, 6232.971
730.0333, 6235.433
730.5154, 6239.468
730.9976, 6250.577
731.4797, 6273.115
731.9618, 6292.022
732.4439, 6302.974
732.9260, 6310.491
733.4081, 6317.432
733.8903, 6322.826
734.3724, 6332.196
734.8545, 6348.006
735.3366, 6362.445
735.8187, 6362.824
736.3008, 6352.281
736.7830, 6345.417
737.2651, 6345.734
737.7472, 6348.783
738.2293, 6351.756
738.7114, 6354.109
739.1935, 6355.074
739.6757, 6356.828
740.1578, 6353.954
740.6399, 6339.005
741.1220, 6320.079
741.6041, 6311.515
742.0862, 6319.515
742.5684, 6324.303
743.0505, 6323.526
743.5326, 6316.925
744.0147, 6301.748
744.4968, 6278.776
744.9789, 6256.532
745.4611, 6237.714
745.9432, 6221.704
746.4253, 6208.542
746.9074, 6197.513
747.3895, 6186.848
747.8716, 6177.442
748.3538, 6166.758
748.8359, 6152.101
749.3180, 6134.769
749.8001, 6121.177
750.2822, 6112.322
750.7643, 6106.014
751.2465, 6102.093
751.7286, 6100.239
752.2107, 6097.906
752.6928, 6094.977
753.1749, 6096.487
753.6570, 6107.533
754.1392, 6123.721
754.6213, 6138.377
755.1034, 6151.672
755.5855, 6164.220
756.0676, 6175.387
756.5498, 6186.739
757.0319, 6199.049
757.5140, 6212.263
757.9962, 6226.750
758.4783, 6241.225
758.9604, 6258.464
759.4425, 6280.972
759.9246, 6308.325
760.4067, 6330.955
760.8889, 6347.929
761.3710, 6367.779
761.8531, 6399.416
762.3352, 6437.542
762.8173, 6472.318
763.2994, 6503.184
763.7816, 6533.397
764.2637, 6559.493
764.7458, 6589.542
765.2279, 6631.168
765.7100, 6689.205
766.1921, 6740.844
766.6743, 6780.193
767.1564, 6818.745
767.6385, 6862.049
768.1206, 6909.977
768.6027, 6968.734
769.0848, 7039.505
769.5670, 7115.396
770.0491, 7191.051
770.5312, 7267.763
771.0133, 7348.054
771.4954, 7432.201
771.9775, 7519.679
772.4597, 7611.252
772.9418, 7705.105
773.4239, 7801.276
773.9060, 7902.085
774.3881, 7998.526
774.8702, 8086.738
775.3524, 8174.614
775.8345, 8269.369
776.3166, 8371.706
776.7987, 8475.240
777.2808, 8579.971
777.7629, 8679.620
778.2451, 8766.613
778.7272, 8843.330
779.2093, 8915.601
779.6914, 8985.116
780.1735, 9044.500
780.6556, 9090.077
781.1378, 9122.119
781.6199, 9140.801
782.1020, 9147.160
782.5841, 9136.403
783.0662, 9107.646
783.5483, 9062.313
784.0305, 8999.321
784.5126, 8917.545
784.9947, 8836.651
785.4768, 8760.725
785.9589, 8679.316
786.4410, 8574.308
786.9232, 8457.238
787.4053, 8347.508
787.8874, 8251.395
788.3695, 8157.697
788.8516, 8058.391
789.3337, 7958.030
789.8159, 7859.715
790.2980, 7756.853
790.7801, 7670.241
791.2622, 7605.788
791.7443, 7551.375
792.2264, 7492.526
792.7086, 7429.155
793.1907, 7372.999
793.6728, 7325.948
794.1549, 7284.503
794.6370, 7240.073
795.1191, 7199.214
795.6013, 7172.802
796.0834, 7167.941
796.5655, 7169.572
797.0476, 7173.389
797.5297, 7180.564
798.0118, 7191.810
798.4940, 7205.163
798.9761, 7227.136
799.4582, 7257.982
799.9403, 7297.856
800.4224, 7350.365
800.9045, 7413.782
801.3867, 7478.169
801.8688, 7540.024
802.3509, 7607.149
802.8330, 7686.244
803.3151, 7775.237
803.7972, 7870.089
804.2794, 7969.545
804.7615, 8075.807
805.2436, 8193.441
805.7258, 8316.957
806.2079, 8440.424
806.6900, 8561.800
807.1721, 8692.486
807.6542, 8833.857
808.1364, 8980.614
808.6185, 9124.909
809.1006, 9268.201
809.5827, 9414.713
810.0648, 9565.288
810.5469, 9719.495
811.0291, 9880.618
811.5112, 10043.19
811.9933, 10203.08
812.4754, 10360.44
812.9575, 10513.15
813.4396, 10662.95
813.9218, 10807.04
814.4039, 10942.69
814.8860, 11071.70
815.3681, 11182.55
815.8502, 11275.40
816.3323, 11347.49
816.8145, 11398.02
817.2966, 11424.74
817.7787, 11425.13
818.2608, 11399.44
818.7429, 11344.04
819.2250, 11254.50
819.7072, 11136.35
820.1893, 10993.09
820.6714, 10827.97
821.1535, 10637.50
821.6356, 10417.74
822.1177, 10178.49
822.5999, 9926.956
823.0820, 9665.218
823.5641, 9407.256
824.0462, 9152.901
824.5283, 8905.088
825.0104, 8667.943
825.4926, 8440.088
825.9747, 8222.667
826.4568, 8014.810
826.9389, 7821.175
827.4210, 7642.890
827.9031, 7478.109
828.3853, 7324.608
828.8674, 7184.509
829.3495, 7051.246
829.8316, 6925.567
830.3137, 6807.672
830.7958, 6702.336
831.2780, 6606.953
831.7601, 6515.235
832.2422, 6427.329
832.7243, 6344.741
833.2064, 6268.390
833.6885, 6198.972
834.1707, 6137.479
834.6528, 6085.349
835.1349, 6038.062
835.6170, 5999.325
836.0991, 5959.408
836.5812, 5909.463
837.0634, 5850.756
837.5455, 5803.461
838.0276, 5767.190
838.5097, 5736.824
838.9918, 5710.345
839.4739, 5685.709
839.9561, 5660.726
840.4382, 5635.000
840.9203, 5610.081
841.4024, 5589.043
841.8845, 5566.151
842.3666, 5537.191
842.8488, 5502.414
843.3309, 5475.479
843.8130, 5457.692
844.2951, 5440.727
844.7772, 5419.514
845.2593, 5395.714
845.7415, 5371.986
846.2236, 5348.886
846.7057, 5329.792
847.1878, 5321.035
847.6699, 5312.770
848.1520, 5297.417
848.6342, 5276.321
849.1163, 5262.195
849.5984, 5257.890
850.0805, 5255.628
850.5626, 5253.395
851.0447, 5251.105
851.5269, 5248.982
852.0090, 5246.828
852.4911, 5243.128
852.9732, 5234.024
853.4553, 5226.044
853.9374, 5227.856
854.4196, 5235.361
854.9017, 5238.487
855.3839, 5225.146
855.8660, 5218.790
856.3481, 5227.770
856.8302, 5244.385
857.3123, 5250.050
857.7944, 5243.651
858.2766, 5242.731
858.7587, 5253.486
859.2408, 5267.913
859.7229, 5271.760
860.2050, 5270.900
860.6871, 5277.657
861.1693, 5302.714
861.6514, 5325.667
862.1335, 5334.607
862.6156, 5339.108
863.0977, 5352.043
863.5798, 5376.948
864.0620, 5400.483
864.5441, 5421.726
865.0262, 5441.476
865.5083, 5460.866
865.9904, 5480.067
866.4725, 5500.249
866.9547, 5522.110
867.4368, 5542.749
867.9189, 5558.853
868.4010, 5573.705
868.8831, 5591.289
869.3652, 5616.112
869.8474, 5632.824
870.3295, 5637.986
870.8116, 5640.541
871.2937, 5649.023
871.7758, 5662.361
872.2579, 5667.034
872.7401, 5662.714
873.2222, 5654.407
873.7043, 5644.798
874.1864, 5634.069
874.6685, 5623.523
875.1506, 5613.171
875.6328, 5597.547
876.1149, 5572.084
876.5970, 5544.578
877.0791, 5518.022
877.5612, 5492.062
878.0433, 5462.036
878.5255, 5427.841
879.0076, 5395.136
879.4897, 5369.945
879.9718, 5347.190
880.4539, 5318.631
880.9360, 5286.226
881.4182, 5256.711
881.9003, 5235.586
882.3824, 5214.827
882.8645, 5190.688
883.3466, 5164.993
883.8287, 5142.587
884.3109, 5123.950
884.7930, 5104.799
885.2751, 5083.260
885.7572, 5061.923
886.2393, 5047.499
886.7214, 5036.537
887.2036, 5020.562
887.6857, 4993.474
888.1678, 4966.238
888.6499, 4943.986
889.1320, 4924.282
889.6141, 4903.015
890.0963, 4876.481
890.5784, 4860.164
891.0605, 4858.085
891.5426, 4858.836
892.0247, 4847.868
892.5068, 4828.840
892.9890, 4811.687
893.4711, 4797.792
893.9532, 4787.849
894.4353, 4786.013
894.9174, 4785.992
895.3995, 4782.266
895.8817, 4773.058
896.3638, 4765.948
896.8459, 4761.471
897.3280, 4758.011
897.8101, 4755.023
898.2922, 4752.228
898.7744, 4747.695
899.2565, 4741.645
899.7386, 4736.974
900.2207, 4737.724
900.7028, 4738.565
901.1849, 4733.866
901.6671, 4724.729
902.1492, 4720.572
902.6313, 4728.103
903.1134, 4730.560
903.5955, 4722.214
904.0776, 4706.931
904.5598, 4694.562
905.0419, 4685.022
905.5240, 4676.742
906.0062, 4668.544
906.4883, 4662.501
906.9704, 4662.638
907.4525, 4665.651
907.9346, 4666.186
908.4167, 4661.581
908.8989, 4656.033
909.3810, 4648.968
909.8631, 4642.042
910.3452, 4637.311
910.8273, 4634.678
911.3094, 4633.857
911.7916, 4635.197
912.2737, 4634.927
912.7558, 4627.790
913.2379, 4618.144
913.7200, 4610.667
914.2021, 4606.368
914.6843, 4602.482
915.1664, 4597.917
915.6485, 4594.529
916.1306, 4593.872
916.6127, 4595.713
917.0948, 4595.864
917.5770, 4594.328
918.0591, 4591.554
918.5412, 4587.476
919.0233, 4582.545
919.5054, 4576.091
919.9875, 4568.939
920.4697, 4564.231
920.9518, 4566.219
921.4339, 4566.530
921.9160, 4562.958
922.3981, 4556.709
922.8802, 4550.062
923.3624, 4543.115
923.8445, 4538.514
924.3266, 4537.809
924.8087, 4537.802
925.2908, 4535.336
925.7729, 4531.141
926.2551, 4526.136
926.7372, 4519.327
927.2193, 4514.052
927.7014, 4510.492
928.1835, 4508.731
928.6656, 4510.463
929.1478, 4515.745
929.6299, 4513.766
930.1120, 4503.663
930.5941, 4493.456
931.0762, 4491.324
931.5583, 4491.955
932.0405, 4489.000
932.5226, 4481.995
933.0047, 4476.875
933.4868, 4476.407
933.9689, 4476.150
934.4510, 4474.030
934.9332, 4470.834
935.4153, 4470.977
935.8974, 4474.320
936.3795, 4479.193
936.8616, 4486.919
937.3438, 4493.266
937.8259, 4492.635
938.3080, 4487.600
938.7901, 4483.359
939.2722, 4482.592
939.7543, 4480.687
940.2365, 4476.423
940.7186, 4471.765
941.2007, 4470.546
941.6828, 4472.255
942.1649, 4469.439
942.6470, 4460.400
943.1292, 4452.477
943.6113, 4454.797
944.0934, 4460.055
944.5755, 4460.937
945.0576, 4455.776
945.5397, 4450.017
946.0219, 4443.261
946.5040, 4437.599
946.9861, 4434.827
947.4682, 4434.123
947.9503, 4430.334
948.4324, 4423.802
948.9146, 4417.548
949.3967, 4412.314
949.8788, 4408.940
950.3609, 4409.118
950.8430, 4411.687
951.3251, 4413.306
951.8073, 4414.424
952.2894, 4412.885
952.7715, 4407.358
953.2536, 4400.627
953.7357, 4397.785
954.2179, 4397.844
954.7000, 4396.317
955.1821, 4391.667
955.6642, 4388.580
956.1464, 4393.601
956.6285, 4399.588
957.1106, 4399.429
957.5927, 4390.876
958.0748, 4384.238
958.5569, 4379.595
959.0391, 4376.477
959.5212, 4374.498
960.0033, 4373.731
960.4854, 4376.249
960.9675, 4380.979
961.4496, 4382.030
961.9318, 4372.612
962.4139, 4362.448
962.8960, 4355.697
963.3781, 4352.108
963.8602, 4350.760
964.3423, 4352.143
964.8245, 4354.438
965.3066, 4358.159
965.7887, 4360.638
966.2708, 4356.951
966.7529, 4349.549
967.2350, 4342.665
967.7172, 4336.540
968.1993, 4333.510
968.6814, 4338.485
969.1635, 4343.428
969.6456, 4341.984
970.1277, 4333.296
970.6099, 4329.468
971.0920, 4330.788
971.5741, 4332.358
972.0562, 4331.533
972.5383, 4328.454
973.0204, 4320.882
973.5026, 4310.641
973.9847, 4304.913
974.4668, 4311.907
974.9489, 4316.029
975.4310, 4312.467
975.9131, 4305.466
976.3953, 4305.053
976.8774, 4310.542
977.3595, 4309.918
977.8416, 4299.022
978.3237, 4288.356
978.8058, 4288.275
979.2880, 4293.227
979.7701, 4297.893
980.2522, 4302.576
980.7343, 4302.018
981.2164, 4293.124
981.6985, 4284.608
982.1807, 4282.431
982.6628, 4285.003
983.1449, 4285.970
983.6270, 4285.281
984.1091, 4282.816
984.5912, 4275.854
985.0734, 4269.719
985.5555, 4268.581
986.0376, 4264.104
986.5197, 4268.791
987.0018, 4261.935
987.4839, 4258.990
987.9661, 4262.366
988.4482, 4267.318
988.9303, 4267.750
989.4124, 4265.028
989.8945, 4261.444
990.3766, 4257.339
990.8588, 4253.261
991.3409, 4248.995
991.8230, 4245.376
992.3051, 4242.985
992.7872, 4241.820
993.2693, 4240.569
993.7515, 4239.220
994.2336, 4237.732
994.7157, 4236.748
995.1978, 4234.911
995.6799, 4230.037
996.1620, 4223.019
996.6442, 4216.096
997.1263, 4207.198
997.6084, 4202.607
998.0905, 4204.993
998.5726, 4209.018
999.0547, 4206.601
999.5369, 4199.167
1000.019, 4197.020
1000.501, 4201.733
1000.983, 4204.628
1001.465, 4195.082
1001.947, 4184.683
1002.430, 4184.016
1002.912, 4193.762
1003.394, 4198.131
1003.876, 4196.419
1004.358, 4191.288
1004.840, 4181.204
1005.322, 4171.382
1005.804, 4175.241
1006.287, 4187.342
1006.769, 4194.329
1007.251, 4188.804
1007.733, 4181.219
1008.215, 4170.611
1008.697, 4162.358
1009.179, 4163.109
1009.661, 4174.192
1010.143, 4177.849
1010.626, 4173.135
1011.108, 4166.435
1011.590, 4162.463
1012.072, 4159.399
1012.554, 4154.597
1013.036, 4152.776
1013.518, 4145.490
1014.000, 4148.792
1014.483, 4150.646
1014.965, 4149.020
1015.447, 4145.300
1015.929, 4142.845
1016.411, 4140.808
1016.893, 4134.694
1017.375, 4120.759
1017.857, 4111.861
1018.339, 4121.466
1018.822, 4135.656
1019.304, 4142.489
1019.786, 4141.161
1020.268, 4136.704
1020.750, 4128.672
1021.232, 4120.084
1021.714, 4110.300
1022.196, 4102.576
1022.679, 4104.623
1023.161, 4113.150
1023.643, 4118.768
1024.125, 4116.172
1024.607, 4113.010
1025.089, 4110.104
1025.571, 4107.830
1026.053, 4107.082
1026.535, 4107.676
1027.018, 4108.114
1027.500, 4108.333
1027.982, 4106.982
1028.464, 4101.543
1028.946, 4095.302
1029.428, 4090.749
1029.910, 4088.034
1030.392, 4086.171
1030.875, 4085.606
1031.357, 4084.021
1031.839, 4080.117
1032.321, 4075.340
1032.803, 4071.600
1033.285, 4069.084
1033.767, 4068.507
1034.249, 4071.596
1034.731, 4073.552
1035.214, 4073.254
1035.696, 4071.398
1036.178, 4068.569
1036.660, 4064.798
1037.142, 4056.991
1037.624, 4045.581
1038.106, 4038.179
1038.588, 4044.481
1039.071, 4052.689
1039.553, 4052.156
1040.035, 4046.090
1040.517, 4046.867
1040.999, 4060.120
1041.481, 4065.331
1041.963, 4057.608
1042.445, 4046.336
1042.927, 4044.601
1043.410, 4048.072
1043.892, 4048.053
1044.374, 4042.897
1044.856, 4038.092
1045.338, 4035.258
1045.820, 4033.692
1046.302, 4033.561
1046.784, 4034.359
1047.266, 4032.930
1047.749, 4029.554
1048.231, 4028.409
1048.713, 4033.995
1049.195, 4037.363
1049.677, 4027.823
1050.159, 4013.406
1050.641, 4005.518
1051.123, 4008.247
1051.606, 4008.071
1052.088, 4004.166
1052.570, 4000.599
1053.052, 4002.853
1053.534, 4006.577
1054.016, 4001.540
1054.498, 3989.771
1054.980, 3981.512
1055.463, 3983.239
1055.945, 3986.103
1056.427, 3989.140
1056.909, 3990.933
1057.391, 3987.831
1057.873, 3980.658
1058.355, 3976.799
1058.837, 3977.641
1059.319, 3978.682
1059.802, 3976.555
1060.284, 3973.215
1060.766, 3969.648
1061.248, 3966.042
1061.730, 3964.005
1062.212, 3963.810
1062.694, 3964.023
1063.176, 3964.399
1063.658, 3964.484
1064.141, 3962.853
1064.623, 3960.662
1065.105, 3960.106
1065.587, 3963.626
1066.069, 3964.103
1066.551, 3958.402
1067.033, 3953.318
1067.515, 3954.938
1067.998, 3961.441
1068.480, 3963.668
1068.962, 3961.898
1069.444, 3957.740
1069.926, 3948.898
1070.408, 3941.366
1070.890, 3939.400
1071.372, 3940.041
1071.854, 3938.755
1072.337, 3935.274
1072.819, 3933.974
1073.301, 3935.765
1073.783, 3935.991
1074.265, 3929.147
1074.747, 3919.478
1075.229, 3909.571
1075.711, 3900.174
1076.193, 3896.945
1076.676, 3904.301
1077.158, 3906.634
1077.640, 3897.594
1078.122, 3885.551
1078.604, 3886.526
1079.086, 3895.250
1079.568, 3900.743
1080.051, 3900.179
1080.533, 3898.147
1081.015, 3895.549
1081.497, 3892.473
1081.979, 3888.742
1082.461, 3884.609
1082.943, 3880.982
1083.425, 3878.003
1083.907, 3876.900
1084.390, 3880.108
1084.872, 3882.775
1085.354, 3882.339
1085.836, 3879.219
1086.318, 3873.527
1086.800, 3863.731
1087.282, 3857.940
1087.764, 3856.402
1088.246, 3857.620
1088.729, 3862.789
1089.211, 3868.290
1089.693, 3868.977
1090.175, 3866.119
1090.657, 3865.278
1091.139, 3869.945
1091.621, 3871.677
1092.103, 3868.552
1092.586, 3863.907
1093.068, 3863.026
1093.550, 3863.923
1094.032, 3861.692
1094.514, 3855.763
1094.996, 3849.299
1095.478, 3840.234
1095.960, 3835.386
1096.443, 3838.995
1096.925, 3847.530
1097.407, 3850.942
1097.889, 3849.634
1098.371, 3845.836
1098.853, 3838.948
1099.335, 3834.063
1099.817, 3837.821
1100.299, 3842.939
1100.781, 3842.990
1101.264, 3837.834
1101.746, 3829.982
1102.228, 3818.996
1102.710, 3810.568
1103.192, 3808.230
1103.674, 3809.020
1104.156, 3810.625
1104.638, 3812.750
1105.121, 3815.123
1105.603, 3820.711
1106.085, 3819.640
1106.567, 3809.893
1107.049, 3799.327
1107.531, 3794.414
1108.013, 3792.996
1108.495, 3790.862
1108.978, 3788.128
1109.460, 3785.576
1109.942, 3781.437
1110.424, 3780.677
1110.906, 3785.898
1111.388, 3792.149
1111.870, 3791.677
1112.352, 3786.394
1112.834, 3785.379
1113.317, 3789.224
1113.799, 3792.005
1114.281, 3789.478
1114.763, 3785.804
1115.245, 3782.915
1115.727, 3780.504
1116.209, 3778.366
1116.691, 3776.434
1117.173, 3770.929
1117.656, 3760.211
1118.138, 3750.858
1118.620, 3749.230
1119.102, 3750.938
1119.584, 3753.240
1120.066, 3755.802
1120.548, 3754.589
1121.030, 3748.724
1121.513, 3745.743
1121.995, 3750.759
1122.477, 3755.085
1122.959, 3744.086
1123.441, 3727.233
1123.923, 3718.125
1124.405, 3722.362
1124.887, 3726.039
1125.370, 3728.956
1125.852, 3731.269
1126.334, 3732.971
1126.816, 3734.229
1127.298, 3735.668
1127.780, 3736.946
1128.262, 3737.186
1128.744, 3736.661
1129.226, 3734.067
1129.709, 3729.053
1130.191, 3722.572
1130.673, 3714.525
1131.155, 3705.672
1131.637, 3697.907
1132.119, 3691.638
1132.601, 3688.920
1133.083, 3694.831
1133.566, 3699.410
1134.048, 3698.025
1134.530, 3694.729
1135.012, 3695.467
1135.494, 3699.718
1135.976, 3702.031
1136.458, 3701.962
1136.940, 3699.696
1137.422, 3693.422
1137.905, 3687.008
1138.387, 3682.812
1138.869, 3680.231
1139.351, 3677.641
1139.833, 3674.965
1140.315, 3674.282
1140.797, 3676.138
1141.279, 3678.825
1141.761, 3681.831
1142.244, 3684.200
1142.726, 3685.005
1143.208, 3684.214
1143.690, 3683.069
1144.172, 3681.783
1144.654, 3678.268
1145.136, 3670.874
1145.618, 3664.030
1146.101, 3664.802
1146.583, 3668.495
1147.065, 3669.251
1147.547, 3665.397
1148.029, 3662.217
1148.511, 3659.982
1148.993, 3657.664
1149.475, 3654.435
1149.958, 3651.438
1150.440, 3650.887
1150.922, 3651.869
1151.404, 3652.933
1151.886, 3654.853
1152.368, 3653.992
1152.850, 3650.158
1153.332, 3643.822
1153.814, 3632.995
1154.297, 3621.161
1154.779, 3619.452
1155.261, 3624.167
1155.743, 3624.986
1156.225, 3612.522
1156.707, 3604.187
1157.189, 3603.240
1157.671, 3604.763
1158.153, 3604.610
1158.636, 3603.378
1159.118, 3604.183
1159.600, 3606.484
1160.082, 3607.480
1160.564, 3604.462
1161.046, 3601.688
1161.528, 3600.126
1162.010, 3599.557
1162.493, 3600.236
1162.975, 3601.860
1163.457, 3602.233
1163.939, 3601.315
1164.421, 3600.093
1164.903, 3599.974
1165.385, 3598.599
1165.867, 3592.564
1166.349, 3586.139
1166.832, 3588.564
1167.314, 3598.733
1167.796, 3601.023
1168.278, 3593.646
1168.760, 3585.282
1169.242, 3580.187
1169.724, 3577.784
1170.206, 3580.103
1170.688, 3584.212
1171.171, 3582.030
1171.653, 3573.681
1172.135, 3567.535
1172.617, 3565.301
1173.099, 3564.440
1173.581, 3562.470
1174.063, 3561.456
1174.545, 3564.734
1175.028, 3562.991
1175.510, 3562.303
1175.992, 3563.906
1176.474, 3559.851
1176.956, 3561.604
1177.438, 3562.328
1177.920, 3552.315
1178.402, 3540.717
1178.885, 3537.753
1179.367, 3531.714
1179.849, 3526.765
1180.331, 3529.767
1180.813, 3523.724
1181.295, 3529.719
1181.777, 3537.293
1182.259, 3535.876
1182.741, 3529.848
1183.224, 3522.996
1183.706, 3515.364
1184.188, 3513.058
1184.670, 3517.142
1185.152, 3518.366
1185.634, 3510.331
1186.116, 3501.516
1186.598, 3502.677
1187.081, 3508.568
1187.563, 3512.514
1188.045, 3513.981
1188.527, 3510.633
1189.009, 3501.135
1189.491, 3494.823
1189.973, 3498.729
1190.455, 3506.171
1190.938, 3511.043
1191.420, 3512.990
1191.902, 3510.638
1192.384, 3500.107
1192.866, 3497.733
1193.348, 3505.601
1193.830, 3511.715
1194.312, 3506.212
1194.794, 3496.298
1195.276, 3489.314
1195.759, 3485.421
1196.241, 3485.494
1196.723, 3493.344
1197.205, 3495.450
1197.687, 3490.318
1198.169, 3485.298
1198.651, 3488.448
1199.133, 3493.333
1199.616, 3490.240
1200.098, 3482.029
1200.580, 3476.204
1201.062, 3475.634
1201.544, 3473.106
1202.026, 3467.718
1202.508, 3462.725
1202.990, 3460.576
1203.473, 3460.795
1203.955, 3465.152
1204.437, 3471.399
1204.919, 3471.889
1205.401, 3461.626
1205.883, 3455.790
1206.365, 3456.100
1206.847, 3458.482
1207.329, 3459.971
1207.812, 3460.587
1208.294, 3460.387
1208.776, 3459.374
1209.258, 3457.453
1209.740, 3454.731
1210.222, 3450.872
1210.704, 3445.478
1211.186, 3440.363
1211.668, 3436.883
1212.151, 3435.006
1212.633, 3436.331
1213.115, 3439.762
1213.597, 3438.658
1214.079, 3430.308
1214.561, 3424.152
1215.043, 3421.367
1215.525, 3421.502
1216.008, 3427.390
1216.490, 3433.625
1216.972, 3432.462
1217.454, 3424.660
1217.936, 3419.301
1218.418, 3417.160
1218.900, 3416.685
1219.382, 3417.868
1219.865, 3419.437
1220.347, 3422.271
1220.829, 3423.123
1221.311, 3415.827
1221.793, 3401.713
1222.275, 3394.516
1222.757, 3396.192
1223.239, 3399.529
1223.721, 3404.006
1224.203, 3405.851
1224.686, 3397.178
1225.168, 3386.490
1225.650, 3382.908
1226.132, 3386.712
1226.614, 3390.125
1227.096, 3393.170
1227.578, 3395.820
1228.061, 3398.587
1228.543, 3398.294
1229.025, 3386.167
1229.507, 3373.443
1229.989, 3373.973
1230.471, 3386.222
1230.953, 3387.827
1231.435, 3377.301
1231.917, 3369.160
1232.400, 3366.866
1232.882, 3366.887
1233.364, 3366.409
1233.846, 3366.165
1234.328, 3368.608
1234.810, 3372.388
1235.292, 3366.912
1235.774, 3351.540
1236.256, 3344.952
1236.739, 3353.898
1237.221, 3360.969
1237.703, 3346.076
1238.185, 3327.704
1238.667, 3321.396
1239.149, 3324.941
1239.631, 3330.599
1240.113, 3338.032
1240.596, 3338.205
1241.078, 3327.185
1241.560, 3318.495
1242.042, 3326.524
1242.524, 3336.325
1243.006, 3337.260
1243.488, 3331.669
1243.970, 3328.418
1244.453, 3327.214
1244.935, 3326.281
1245.417, 3325.281
1245.899, 3323.782
1246.381, 3320.956
1246.863, 3318.149
1247.345, 3316.532
1247.827, 3315.333
1248.309, 3310.554
1248.792, 3303.753
1249.274, 3302.643
1249.756, 3310.229
1250.238, 3315.971
1250.720, 3313.464
1251.202, 3309.368
1251.684, 3306.212
1252.166, 3303.645
1252.648, 3300.262
1253.131, 3296.683
1253.613, 3294.812
1254.095, 3295.181
1254.577, 3296.225
1255.059, 3298.305
1255.541, 3299.723
1256.023, 3300.220
1256.505, 3299.196
1256.988, 3293.651
1257.470, 3286.132
1257.952, 3282.924
1258.434, 3286.059
1258.916, 3285.713
1259.398, 3278.675
1259.880, 3272.390
1260.362, 3269.345
1260.844, 3268.366
1261.327, 3267.759
1261.809, 3267.802
1262.291, 3269.512
1262.773, 3273.324
1263.255, 3274.410
1263.737, 3272.331
1264.219, 3267.508
1264.701, 3258.179
1265.183, 3251.315
1265.666, 3260.928
1266.148, 3274.656
1266.630, 3275.297
1267.112, 3279.991
1267.594, 3285.120
1268.076, 3277.050
1268.558, 3285.865
1269.040, 3278.490
1269.523, 3267.451
1270.005, 3263.391
1270.487, 3262.568
1270.969, 3262.383
1271.451, 3262.426
1271.933, 3260.857
1272.415, 3257.766
1272.897, 3257.266
1273.380, 3261.184
1273.862, 3263.070
1274.344, 3256.078
1274.826, 3247.460
1275.308, 3241.207
1275.790, 3237.254
1276.272, 3235.642
1276.754, 3236.082
1277.236, 3237.806
1277.719, 3241.096
1278.201, 3241.316
1278.683, 3231.713
1279.165, 3223.887
1279.647, 3223.448
1280.129, 3226.367
1280.611, 3223.491
1281.093, 3216.875
1281.576, 3212.359
1282.058, 3210.964
1282.540, 3208.539
1283.022, 3201.954
1283.504, 3197.395
1283.986, 3196.504
1284.468, 3198.186
1284.950, 3202.375
1285.432, 3207.168
1285.915, 3209.487
1286.397, 3208.977
1286.879, 3206.968
1287.361, 3203.361
1287.843, 3199.215
1288.325, 3194.251
1288.807, 3190.979
1289.289, 3194.542
1289.771, 3199.641
1290.254, 3200.045
1290.736, 3200.746
1291.218, 3200.438
1291.700, 3196.842
1292.182, 3195.636
1292.664, 3189.938
1293.146, 3184.858
1293.628, 3184.720
1294.111, 3186.691
1294.593, 3191.233
1295.075, 3195.416
1295.557, 3191.740
1296.039, 3181.114
1296.521, 3172.897
1297.003, 3168.445
1297.485, 3167.898
1297.968, 3176.398
1298.450, 3181.278
1298.932, 3176.986
1299.414, 3168.907
1299.896, 3165.189
1300.378, 3164.469
1300.860, 3162.060
1301.342, 3157.860
1301.824, 3154.151
##END=



