##NAMES=Masutomilite
##RRUFFID=R061008
##IDEAL CHEMISTRY=KLiAlMn^2+^(Si_3_Al)O_10_(F,OH)_2_
##LOCALITY=Tanokamiyama, Shiga Prefecture, Japan
##OWNER=RRUFF
##SOURCE=Michael Scott
##DESCRIPTION=Brownish purple mica fragment
##STATUS=The identification of this mineral has been made only by X-ray diffraction.
##URL=rruff.info/R061008
187.5780, 4832.947
188.0601, 4831.433
188.5422, 4831.809
189.0244, 4831.705
189.5065, 4829.823
189.9886, 4826.543
190.4707, 4822.840
190.9528, 4815.375
191.4349, 4811.483
191.9170, 4820.099
192.3992, 4839.747
192.8813, 4855.135
193.3634, 4854.899
193.8455, 4847.468
194.3276, 4852.547
194.8097, 4881.466
195.2919, 4907.177
195.7740, 4903.387
196.2561, 4873.946
196.7382, 4854.439
197.2203, 4866.651
197.7024, 4894.787
198.1846, 4906.388
198.6667, 4892.807
199.1488, 4878.177
199.6309, 4883.953
200.1130, 4906.688
200.5951, 4918.290
201.0773, 4899.937
201.5594, 4870.383
202.0415, 4862.662
202.5236, 4884.637
203.0057, 4908.279
203.4878, 4912.197
203.9700, 4900.041
204.4521, 4894.887
204.9342, 4909.959
205.4163, 4930.474
205.8984, 4933.534
206.3805, 4915.139
206.8627, 4894.603
207.3448, 4883.142
207.8269, 4879.260
208.3090, 4876.080
208.7911, 4870.635
209.2732, 4866.441
209.7554, 4870.248
210.2375, 4884.098
210.7196, 4891.879
211.2017, 4878.154
211.6838, 4850.015
212.1659, 4832.242
212.6480, 4833.262
213.1302, 4843.524
213.6123, 4851.955
214.0944, 4858.629
214.5765, 4864.835
215.0586, 4874.089
215.5407, 4883.499
216.0229, 4882.771
216.5050, 4864.293
216.9871, 4846.576
217.4692, 4854.686
217.9513, 4886.243
218.4334, 4912.241
218.9156, 4919.696
219.3977, 4913.950
219.8798, 4903.825
220.3619, 4888.418
220.8440, 4874.864
221.3261, 4870.274
221.8083, 4873.395
222.2904, 4881.726
222.7725, 4900.104
223.2546, 4921.490
223.7367, 4933.837
224.2188, 4934.782
224.7010, 4932.108
225.1831, 4933.170
225.6652, 4936.557
226.1473, 4936.365
226.6294, 4926.874
227.1115, 4915.105
227.5937, 4910.371
228.0758, 4913.664
228.5579, 4918.548
229.0400, 4919.553
229.5221, 4918.139
230.0042, 4919.797
230.4864, 4930.306
230.9685, 4940.887
231.4506, 4940.637
231.9327, 4929.651
232.4148, 4921.764
232.8969, 4927.023
233.3791, 4942.545
233.8612, 4956.040
234.3433, 4969.084
234.8254, 4978.198
235.3075, 4979.097
235.7896, 4972.771
236.2717, 4965.354
236.7539, 4957.143
237.2360, 4951.998
237.7181, 4959.620
238.2002, 4992.562
238.6823, 5020.622
239.1644, 5023.069
239.6466, 5006.724
240.1287, 4993.711
240.6108, 4993.462
241.0929, 5001.838
241.5750, 5010.236
242.0571, 5022.063
242.5393, 5027.369
243.0214, 5012.607
243.5035, 4989.654
243.9856, 4986.304
244.4677, 5015.814
244.9498, 5056.534
245.4320, 5066.563
245.9141, 5038.002
246.3962, 5013.592
246.8783, 4999.576
247.3604, 4995.720
247.8425, 5007.184
248.3247, 5036.445
248.8068, 5065.158
249.2889, 5066.789
249.7710, 5032.455
250.2531, 5006.924
250.7352, 4995.624
251.2174, 4992.909
251.6995, 4994.636
252.1816, 4999.912
252.6637, 5008.454
253.1458, 5020.828
253.6279, 5038.205
254.1101, 5050.732
254.5922, 5058.097
255.0743, 5061.110
255.5564, 5056.842
256.0385, 5047.343
256.5206, 5041.664
257.0027, 5048.716
257.4849, 5068.464
257.9670, 5073.179
258.4491, 5050.399
258.9312, 5028.516
259.4133, 5017.101
259.8954, 5015.374
260.3776, 5020.979
260.8597, 5033.482
261.3418, 5050.870
261.8239, 5061.778
262.3060, 5068.338
262.7881, 5066.253
263.2703, 5044.115
263.7524, 5015.743
264.2345, 5002.036
264.7166, 5012.607
265.1987, 5036.355
265.6808, 5045.060
266.1630, 5015.718
266.6451, 5002.060
267.1272, 5021.063
267.6093, 5047.343
268.0914, 5056.354
268.5735, 5041.812
269.0557, 5016.828
269.5378, 5001.813
270.0199, 5004.696
270.5020, 4999.825
270.9841, 4973.269
271.4662, 4951.203
271.9484, 4954.996
272.4305, 4982.774
272.9126, 5012.648
273.3947, 5019.850
273.8768, 4999.165
274.3589, 4991.190
274.8411, 5013.375
275.3232, 5032.213
275.8053, 5031.240
276.2874, 5016.581
276.7695, 5005.753
277.2516, 5013.133
277.7338, 5035.841
278.2159, 5047.389
278.6980, 5035.451
279.1801, 5028.391
279.6622, 5043.064
280.1443, 5065.142
280.6265, 5071.821
281.1086, 5048.597
281.5907, 5011.253
282.0728, 4999.358
282.5549, 5024.160
283.0370, 5046.508
283.5192, 5053.119
284.0013, 5053.684
284.4834, 5057.324
284.9655, 5066.917
285.4476, 5076.099
285.9297, 5076.410
286.4119, 5067.055
286.8940, 5057.018
287.3761, 5045.604
287.8582, 5036.499
288.3403, 5034.140
288.8224, 5038.581
289.3046, 5041.822
289.7867, 5035.684
290.2688, 5022.606
290.7509, 5015.749
291.2330, 5020.597
291.7151, 5025.611
292.1972, 5018.491
292.6794, 5002.536
293.1615, 4991.712
293.6436, 4994.206
294.1257, 5004.344
294.6078, 5014.303
295.0899, 5024.274
295.5721, 5030.231
296.0542, 5026.328
296.5363, 5015.960
297.0184, 5009.427
297.5005, 5007.181
297.9826, 5009.703
298.4648, 5020.945
298.9469, 5039.049
299.4290, 5052.177
299.9111, 5052.637
300.3932, 5045.504
300.8753, 5045.081
301.3575, 5053.874
301.8396, 5063.918
302.3217, 5075.271
302.8038, 5085.436
303.2859, 5087.983
303.7680, 5079.948
304.2502, 5069.286
304.7323, 5069.468
305.2144, 5086.072
305.6965, 5098.786
306.1786, 5106.261
306.6607, 5109.428
307.1429, 5107.504
307.6250, 5101.094
308.1071, 5094.226
308.5892, 5091.252
309.0713, 5093.130
309.5534, 5091.616
310.0356, 5086.389
310.5177, 5078.813
310.9998, 5066.746
311.4819, 5052.708
311.9640, 5042.217
312.4461, 5038.996
312.9283, 5041.937
313.4104, 5044.118
313.8925, 5048.053
314.3746, 5047.995
314.8567, 5036.635
315.3388, 5023.774
315.8210, 5021.624
316.3031, 5034.659
316.7852, 5055.105
317.2673, 5070.525
317.7494, 5083.648
318.2315, 5084.300
318.7137, 5060.738
319.1958, 5033.634
319.6779, 5013.118
320.1600, 5001.175
320.6421, 4996.699
321.1242, 5001.289
321.6064, 5014.970
322.0885, 5024.408
322.5706, 5022.637
323.0527, 5025.262
323.5348, 5044.949
324.0169, 5074.437
324.4991, 5097.077
324.9812, 5103.324
325.4633, 5098.086
325.9454, 5088.267
326.4275, 5070.871
326.9096, 5061.462
327.3918, 5076.966
327.8739, 5101.373
328.3560, 5113.419
328.8381, 5105.753
329.3202, 5094.401
329.8023, 5091.416
330.2845, 5095.898
330.7666, 5103.917
331.2487, 5117.012
331.7308, 5129.308
332.2129, 5131.470
332.6950, 5122.980
333.1772, 5114.087
333.6593, 5112.644
334.1414, 5110.602
334.6235, 5091.194
335.1056, 5051.858
335.5877, 5018.935
336.0698, 5019.361
336.5519, 5055.992
337.0341, 5079.672
337.5162, 5077.752
337.9983, 5075.124
338.4804, 5090.516
338.9625, 5116.886
339.4446, 5131.956
339.9268, 5121.581
340.4089, 5093.708
340.8910, 5079.702
341.3731, 5097.501
341.8552, 5107.520
342.3373, 5096.028
342.8195, 5080.510
343.3016, 5083.398
343.7837, 5109.188
344.2658, 5138.772
344.7479, 5141.759
345.2300, 5102.867
345.7122, 5084.429
346.1943, 5100.391
346.6764, 5123.127
347.1585, 5145.053
347.6406, 5163.125
348.1227, 5173.304
348.6049, 5169.925
349.0870, 5156.365
349.5691, 5152.121
350.0512, 5159.199
350.5333, 5172.902
351.0154, 5198.212
351.4976, 5225.877
351.9797, 5244.223
352.4618, 5248.207
352.9439, 5245.728
353.4260, 5246.294
353.9081, 5249.997
354.3903, 5252.344
354.8724, 5251.468
355.3545, 5249.416
355.8366, 5247.416
356.3187, 5245.404
356.8008, 5246.709
357.2830, 5259.059
357.7651, 5274.215
358.2472, 5276.616
358.7293, 5263.739
359.2114, 5243.200
359.6935, 5216.065
360.1757, 5184.633
360.6578, 5168.306
361.1399, 5185.125
361.6220, 5201.165
362.1041, 5191.395
362.5862, 5164.273
363.0684, 5144.144
363.5505, 5143.080
364.0326, 5155.428
364.5147, 5166.715
364.9968, 5180.081
365.4789, 5187.654
365.9611, 5188.759
366.4432, 5183.956
366.9253, 5169.083
367.4074, 5145.863
367.8895, 5126.067
368.3716, 5123.324
368.8538, 5139.951
369.3359, 5157.180
369.8180, 5178.418
370.3001, 5196.678
370.7822, 5211.684
371.2643, 5221.759
371.7465, 5223.489
372.2286, 5213.782
372.7107, 5197.590
373.1928, 5186.468
373.6749, 5180.128
374.1570, 5179.673
374.6392, 5195.108
375.1213, 5210.536
375.6034, 5211.015
376.0855, 5194.225
376.5676, 5177.220
377.0497, 5176.598
377.5319, 5188.372
378.0140, 5193.962
378.4961, 5189.927
378.9782, 5182.109
379.4603, 5172.174
379.9424, 5161.739
380.4246, 5157.010
380.9066, 5165.215
381.3888, 5175.374
381.8709, 5179.743
382.3530, 5177.998
382.8351, 5168.411
383.3172, 5148.305
383.7993, 5121.933
384.2815, 5101.447
384.7636, 5088.994
385.2457, 5077.487
385.7278, 5059.005
386.2099, 5044.352
386.6920, 5050.170
387.1742, 5077.477
387.6563, 5107.031
388.1384, 5117.145
388.6205, 5104.421
389.1026, 5096.900
389.5847, 5098.515
390.0669, 5100.796
390.5490, 5099.351
391.0311, 5096.829
391.5132, 5099.375
391.9953, 5110.983
392.4774, 5125.533
392.9596, 5126.735
393.4417, 5107.294
393.9238, 5094.862
394.4059, 5099.431
394.8880, 5109.425
395.3701, 5118.294
395.8523, 5125.151
396.3344, 5131.396
396.8165, 5138.548
397.2986, 5145.986
397.7807, 5151.005
398.2628, 5152.708
398.7450, 5154.206
399.2271, 5162.468
399.7092, 5171.795
400.1913, 5167.161
400.6734, 5127.621
401.1555, 5094.062
401.6377, 5104.971
402.1198, 5146.188
402.6019, 5174.445
403.0840, 5172.919
403.5661, 5154.029
404.0482, 5137.744
404.5304, 5124.496
405.0125, 5113.038
405.4946, 5101.466
405.9767, 5093.245
406.4588, 5093.434
406.9409, 5100.372
407.4231, 5106.974
407.9052, 5108.113
408.3873, 5104.052
408.8694, 5096.533
409.3515, 5076.034
409.8336, 5064.953
410.3158, 5068.537
410.7979, 5081.922
411.2800, 5103.944
411.7621, 5133.495
412.2442, 5159.855
412.7263, 5168.271
413.2085, 5157.718
413.6906, 5148.043
414.1727, 5137.423
414.6548, 5132.574
415.1369, 5138.882
415.6190, 5153.606
416.1012, 5169.064
416.5833, 5183.191
417.0654, 5195.819
417.5475, 5208.112
418.0296, 5219.759
418.5117, 5224.342
418.9939, 5216.360
419.4760, 5202.760
419.9581, 5199.067
420.4402, 5209.659
420.9223, 5214.852
421.4044, 5201.942
421.8866, 5185.999
422.3687, 5185.921
422.8508, 5202.144
423.3329, 5218.609
423.8150, 5220.719
424.2971, 5208.909
424.7793, 5202.549
425.2614, 5205.798
425.7435, 5209.671
426.2256, 5210.705
426.7077, 5212.128
427.1898, 5219.955
427.6719, 5235.819
428.1541, 5251.789
428.6362, 5255.907
429.1183, 5246.585
429.6004, 5235.753
430.0825, 5217.820
430.5646, 5205.859
431.0468, 5212.451
431.5289, 5230.815
432.0110, 5241.330
432.4931, 5229.424
432.9752, 5209.879
433.4573, 5203.935
433.9395, 5211.318
434.4216, 5219.322
434.9037, 5221.779
435.3858, 5223.415
435.8679, 5234.371
436.3500, 5257.982
436.8322, 5276.312
437.3143, 5281.710
437.7964, 5281.540
438.2785, 5283.709
438.7606, 5288.673
439.2427, 5291.428
439.7249, 5286.990
440.2070, 5276.582
440.6891, 5274.733
441.1712, 5292.145
441.6533, 5305.503
442.1354, 5305.330
442.6176, 5302.558
443.0997, 5310.031
443.5818, 5330.632
444.0639, 5355.250
444.5460, 5374.009
445.0281, 5386.795
445.5103, 5394.878
445.9924, 5396.673
446.4745, 5395.635
446.9566, 5387.897
447.4387, 5379.533
447.9208, 5384.767
448.4030, 5418.624
448.8851, 5452.182
449.3672, 5450.051
449.8493, 5418.405
450.3314, 5391.343
450.8135, 5378.388
451.2957, 5376.457
451.7778, 5385.231
452.2599, 5407.854
452.7420, 5420.043
453.2241, 5412.547
453.7062, 5399.647
454.1884, 5389.490
454.6705, 5382.586
455.1526, 5377.216
455.6347, 5372.256
456.1168, 5368.497
456.5989, 5369.291
457.0811, 5382.932
457.5632, 5386.137
458.0453, 5368.124
458.5274, 5347.389
459.0095, 5335.226
459.4916, 5332.924
459.9738, 5337.140
460.4559, 5348.228
460.9380, 5363.532
461.4201, 5373.179
461.9022, 5376.840
462.3843, 5375.898
462.8665, 5366.405
463.3486, 5354.757
463.8307, 5351.096
464.3128, 5358.829
464.7949, 5365.716
465.2770, 5365.347
465.7592, 5360.264
466.2413, 5352.512
466.7234, 5342.700
467.2055, 5337.143
467.6876, 5342.653
468.1697, 5358.996
468.6519, 5368.483
469.1340, 5373.530
469.6161, 5369.925
470.0982, 5347.086
470.5803, 5319.131
471.0624, 5304.723
471.5445, 5308.533
472.0266, 5317.519
472.5088, 5313.558
472.9909, 5294.449
473.4730, 5283.315
473.9551, 5283.719
474.4372, 5287.706
474.9193, 5298.399
475.4015, 5308.431
475.8836, 5301.612
476.3657, 5262.990
476.8478, 5226.679
477.3299, 5237.293
477.8120, 5281.525
478.2942, 5299.502
478.7763, 5272.236
479.2584, 5228.452
479.7405, 5198.234
480.2226, 5183.039
480.7047, 5172.688
481.1869, 5169.973
481.6690, 5169.269
482.1511, 5168.948
482.6332, 5168.321
483.1153, 5165.414
483.5974, 5159.332
484.0796, 5153.710
484.5617, 5157.354
485.0438, 5177.421
485.5259, 5185.369
486.0080, 5159.919
486.4901, 5140.653
486.9723, 5149.930
487.4544, 5179.390
487.9365, 5207.713
488.4186, 5228.510
488.9007, 5237.376
489.3828, 5219.870
489.8650, 5177.705
490.3471, 5149.261
490.8292, 5150.131
491.3113, 5163.201
491.7934, 5165.508
492.2755, 5156.666
492.7577, 5149.828
493.2398, 5152.534
493.7219, 5153.100
494.2040, 5137.901
494.6861, 5113.107
495.1682, 5097.366
495.6504, 5100.488
496.1325, 5115.081
496.6146, 5123.487
497.0967, 5120.086
497.5788, 5122.873
498.0609, 5146.115
498.5431, 5163.128
499.0252, 5155.684
499.5073, 5129.109
499.9894, 5100.742
500.4715, 5075.847
500.9536, 5059.721
501.4358, 5068.614
501.9179, 5103.252
502.4000, 5123.802
502.8821, 5110.865
503.3642, 5086.827
503.8463, 5085.119
504.3285, 5107.238
504.8106, 5118.844
505.2927, 5102.398
505.7748, 5082.125
506.2569, 5078.677
506.7390, 5087.956
507.2212, 5093.946
507.7033, 5088.191
508.1854, 5076.121
508.6675, 5070.207
509.1496, 5072.538
509.6317, 5076.652
510.1139, 5087.064
510.5960, 5094.811
511.0781, 5092.593
511.5602, 5083.537
512.0423, 5076.966
512.5244, 5078.257
513.0065, 5083.975
513.4886, 5089.305
513.9708, 5094.248
514.4529, 5099.145
514.9350, 5105.516
515.4171, 5109.595
515.8992, 5104.953
516.3813, 5091.375
516.8635, 5078.978
517.3456, 5064.950
517.8277, 5056.216
518.3098, 5061.742
518.7919, 5075.874
519.2740, 5084.728
519.7562, 5081.938
520.2383, 5073.762
520.7204, 5073.285
521.2025, 5086.294
521.6846, 5089.184
522.1667, 5068.307
522.6489, 5049.556
523.1310, 5045.584
523.6131, 5051.544
524.0952, 5056.695
524.5773, 5057.628
525.0594, 5054.122
525.5416, 5039.917
526.0237, 5018.918
526.5058, 5015.712
526.9879, 5040.744
527.4700, 5069.499
527.9521, 5071.766
528.4343, 5044.529
528.9164, 5024.764
529.3985, 5046.279
529.8806, 5058.232
530.3627, 5061.137
530.8448, 5027.896
531.3270, 5041.330
531.8091, 5036.059
532.2912, 5049.639
532.7733, 5052.032
533.2554, 5050.795
533.7375, 5044.580
534.2197, 5026.851
534.7018, 5014.180
535.1839, 5016.261
535.6660, 5026.646
536.1481, 5036.970
536.6302, 5046.036
537.1124, 5052.453
537.5945, 5051.399
538.0766, 5047.831
538.5587, 5053.245
539.0408, 5069.142
539.5229, 5086.290
540.0051, 5098.467
540.4872, 5105.282
540.9693, 5102.949
541.4514, 5094.795
541.9335, 5073.083
542.4156, 5011.176
542.8978, 4952.601
543.3799, 4946.792
543.8620, 4990.778
544.3441, 5031.104
544.8262, 5019.011
545.3083, 4970.790
545.7905, 4941.718
546.2726, 4933.499
546.7547, 4936.711
547.2368, 4955.849
547.7189, 4978.451
548.2010, 4985.997
548.6832, 4976.571
549.1653, 4967.975
549.6474, 4965.042
550.1295, 4964.692
550.6116, 4964.576
551.0938, 4964.641
551.5759, 4964.706
552.0580, 4964.427
552.5401, 4966.217
553.0222, 4978.283
553.5043, 5012.663
553.9865, 5024.881
554.4686, 4987.480
554.9507, 4951.686
555.4328, 4939.430
555.9149, 4945.438
556.3970, 4956.983
556.8792, 4971.992
557.3613, 4984.853
557.8434, 4988.808
558.3255, 4985.475
558.8076, 4980.271
559.2897, 4974.079
559.7719, 4967.891
560.2540, 4961.996
560.7361, 4956.413
561.2182, 4955.369
561.7003, 4962.278
562.1824, 4968.768
562.6646, 4976.744
563.1467, 4981.076
563.6288, 4973.939
564.1109, 4955.257
564.5930, 4935.096
565.0751, 4920.983
565.5573, 4913.206
566.0394, 4916.295
566.5215, 4934.713
567.0036, 4946.255
567.4857, 4939.474
567.9678, 4922.406
568.4500, 4904.433
568.9321, 4882.945
569.4142, 4876.397
569.8963, 4905.005
570.3784, 4939.027
570.8605, 4953.321
571.3427, 4949.795
571.8248, 4938.886
572.3069, 4925.312
572.7890, 4913.182
573.2711, 4911.645
573.7532, 4923.874
574.2354, 4936.316
574.7175, 4951.342
575.1996, 4963.341
575.6817, 4967.912
576.1638, 4967.840
576.6459, 4968.232
577.1281, 4969.223
577.6102, 4974.396
578.0923, 4994.052
578.5744, 5019.099
579.0565, 5023.841
579.5386, 5003.712
580.0208, 4983.953
580.5029, 4986.624
580.9850, 5008.955
581.4671, 5023.510
581.9492, 5030.681
582.4313, 5028.665
582.9134, 5007.669
583.3955, 4984.237
583.8776, 4972.774
584.3597, 4973.239
584.8419, 4975.449
585.3240, 4970.677
585.8061, 4964.553
586.2882, 4971.710
586.7703, 4991.901
587.2524, 5005.061
587.7346, 5004.604
588.2167, 4994.800
588.6988, 4977.392
589.1809, 4949.527
589.6630, 4937.833
590.1451, 4956.905
590.6273, 4977.276
591.1094, 4989.183
591.5915, 4992.641
592.0736, 4985.007
592.5557, 4966.792
593.0378, 4950.758
593.5200, 4953.640
594.0021, 4973.963
594.4842, 4992.014
594.9663, 5010.222
595.4484, 5018.352
595.9305, 5006.323
596.4127, 4983.724
596.8948, 4965.992
597.3769, 4953.002
597.8590, 4946.209
598.3411, 4945.678
598.8232, 4951.833
599.3054, 4969.939
599.7875, 4995.387
600.2696, 5014.993
600.7517, 5021.914
601.2338, 5021.974
601.7159, 5027.532
602.1981, 5041.495
602.6802, 5045.804
603.1623, 5031.286
603.6444, 5017.972
604.1265, 5017.839
604.6086, 5025.835
605.0908, 5032.825
605.5729, 5036.751
606.0550, 5040.004
606.5371, 5044.598
607.0192, 5049.014
607.5013, 5051.560
607.9835, 5051.776
608.4656, 5048.466
608.9477, 5040.161
609.4298, 5028.817
609.9119, 5021.958
610.3940, 5021.899
610.8762, 5021.102
611.3583, 5026.204
611.8404, 5023.622
612.3225, 4998.121
612.8046, 4958.189
613.2867, 4928.395
613.7689, 4918.940
614.2510, 4921.681
614.7331, 4934.370
615.2152, 4953.085
615.6973, 4971.131
616.1794, 4986.997
616.6616, 4991.226
617.1437, 4972.058
617.6258, 4933.580
618.1079, 4916.332
618.5900, 4940.452
619.0721, 4955.948
619.5543, 4947.697
620.0364, 4936.435
620.5185, 4938.124
621.0006, 4952.137
621.4827, 4967.857
621.9648, 4983.683
622.4470, 4994.205
622.9291, 4990.429
623.4112, 4974.980
623.8933, 4956.717
624.3754, 4937.391
624.8575, 4923.878
625.3397, 4926.154
625.8218, 4944.881
626.3039, 4948.372
626.7860, 4914.915
627.2681, 4893.134
627.7502, 4900.986
628.2324, 4916.804
628.7145, 4919.337
629.1966, 4907.612
629.6787, 4897.411
630.1608, 4897.428
630.6429, 4906.354
631.1251, 4931.753
631.6072, 4968.701
632.0893, 4977.706
632.5714, 4941.661
633.0535, 4892.292
633.5356, 4867.757
634.0178, 4870.271
634.4999, 4876.386
634.9820, 4889.223
635.4641, 4901.565
635.9462, 4914.065
636.4283, 4923.904
636.9105, 4929.303
637.3926, 4929.487
637.8747, 4922.333
638.3568, 4895.706
638.8389, 4865.180
639.3210, 4863.841
639.8032, 4888.882
640.2853, 4913.350
640.7674, 4929.169
641.2495, 4934.654
641.7316, 4924.869
642.2137, 4895.766
642.6959, 4879.170
643.1780, 4883.402
643.6601, 4889.288
644.1422, 4898.831
644.6243, 4903.623
645.1064, 4890.692
645.5886, 4859.891
646.0707, 4830.847
646.5528, 4815.531
647.0349, 4812.860
647.5170, 4826.533
647.9991, 4854.311
648.4813, 4873.961
648.9634, 4876.592
649.4455, 4872.405
649.9276, 4876.347
650.4097, 4891.421
650.8918, 4894.384
651.3740, 4876.264
651.8561, 4857.149
652.3382, 4838.947
652.8203, 4823.783
653.3024, 4812.187
653.7845, 4804.700
654.2667, 4805.485
654.7488, 4821.598
655.2309, 4845.417
655.7130, 4869.674
656.1951, 4892.169
656.6772, 4898.511
657.1594, 4881.729
657.6415, 4858.608
658.1236, 4851.534
658.6057, 4862.736
659.0878, 4868.218
659.5699, 4862.276
660.0521, 4857.533
660.5342, 4858.886
661.0163, 4861.112
661.4984, 4860.364
661.9805, 4855.720
662.4626, 4845.533
662.9448, 4820.381
663.4269, 4795.271
663.9090, 4792.400
664.3911, 4805.931
664.8732, 4814.450
665.3553, 4811.279
665.8375, 4800.458
666.3196, 4784.403
666.8017, 4762.922
667.2838, 4757.311
667.7659, 4781.691
668.2480, 4799.486
668.7302, 4799.556
669.2123, 4792.671
669.6944, 4784.970
670.1765, 4777.870
670.6586, 4775.861
671.1407, 4782.418
671.6229, 4793.398
672.1050, 4808.968
672.5870, 4825.550
673.0692, 4834.928
673.5513, 4835.339
674.0334, 4831.397
674.5155, 4827.393
674.9976, 4823.104
675.4797, 4815.982
675.9619, 4802.873
676.4440, 4795.504
676.9261, 4802.527
677.4082, 4810.712
677.8903, 4808.677
678.3724, 4798.101
678.8546, 4788.479
679.3367, 4786.458
679.8188, 4781.044
680.3009, 4753.715
680.7830, 4725.908
681.2651, 4736.417
681.7473, 4783.161
682.2294, 4819.545
682.7115, 4807.938
683.1936, 4766.593
683.6757, 4745.102
684.1578, 4744.866
684.6400, 4755.102
685.1221, 4782.797
685.6042, 4804.264
686.0863, 4792.134
686.5684, 4756.139
687.0505, 4744.052
687.5327, 4782.690
688.0148, 4808.472
688.4969, 4796.567
688.9790, 4774.170
689.4611, 4762.601
689.9432, 4762.003
690.4254, 4764.612
690.9075, 4767.126
691.3896, 4767.240
691.8717, 4759.954
692.3538, 4746.645
692.8359, 4735.055
693.3181, 4725.736
693.8002, 4720.560
694.2823, 4720.875
694.7644, 4725.921
695.2465, 4733.815
695.7286, 4747.755
696.2108, 4758.329
696.6929, 4767.018
697.1750, 4771.010
697.6571, 4763.782
698.1392, 4752.538
698.6213, 4750.924
699.1035, 4763.975
699.5856, 4775.536
700.0677, 4770.778
700.5498, 4757.230
701.0319, 4744.624
701.5140, 4734.658
701.9962, 4733.827
702.4783, 4745.765
702.9604, 4762.927
703.4425, 4775.029
703.9246, 4783.413
704.4067, 4775.842
704.8889, 4735.317
705.3710, 4705.415
705.8531, 4709.947
706.3352, 4725.897
706.8173, 4728.760
707.2994, 4716.640
707.7816, 4709.417
708.2637, 4716.042
708.7458, 4727.793
709.2279, 4741.327
709.7100, 4754.529
710.1921, 4766.057
710.6743, 4774.648
711.1564, 4774.542
711.6385, 4756.706
712.1206, 4728.199
712.6027, 4717.847
713.0848, 4727.360
713.5670, 4740.848
714.0491, 4758.683
714.5312, 4771.306
715.0133, 4766.296
715.4954, 4745.546
715.9775, 4735.126
716.4597, 4738.844
716.9418, 4747.333
717.4239, 4769.877
717.9060, 4787.752
718.3881, 4781.628
718.8702, 4756.780
719.3524, 4732.287
719.8345, 4716.162
720.3166, 4707.706
720.7987, 4707.804
721.2808, 4714.718
721.7629, 4726.904
722.2451, 4743.381
722.7272, 4751.256
723.2093, 4741.105
723.6914, 4721.903
724.1735, 4716.350
724.6556, 4733.114
725.1378, 4737.840
725.6199, 4721.234
726.1020, 4704.282
726.5841, 4695.254
727.0662, 4690.941
727.5483, 4686.518
728.0305, 4681.080
728.5126, 4678.791
728.9947, 4683.781
729.4768, 4690.322
729.9589, 4694.788
730.4410, 4697.021
730.9232, 4695.899
731.4053, 4691.641
731.8874, 4689.361
732.3695, 4696.527
732.8516, 4709.352
733.3337, 4711.307
733.8159, 4701.430
734.2980, 4692.131
734.7801, 4685.174
735.2622, 4684.152
735.7443, 4695.008
736.2264, 4717.391
736.7086, 4731.818
737.1907, 4739.045
737.6728, 4737.817
738.1549, 4714.731
738.6370, 4694.279
739.1191, 4698.221
739.6013, 4721.274
740.0834, 4743.701
740.5655, 4760.250
741.0476, 4766.994
741.5297, 4753.934
742.0118, 4731.482
742.4940, 4719.671
742.9761, 4718.327
743.4582, 4711.610
743.9403, 4689.921
744.4224, 4663.742
744.9045, 4652.314
745.3867, 4656.458
745.8688, 4669.396
746.3509, 4697.027
746.8330, 4719.058
747.3151, 4724.025
747.7972, 4719.713
748.2794, 4718.025
748.7615, 4719.204
749.2436, 4720.806
749.7257, 4726.892
750.2078, 4728.417
750.6899, 4716.814
751.1721, 4701.003
751.6542, 4690.556
752.1363, 4687.605
752.6184, 4691.194
753.1005, 4704.042
753.5826, 4719.361
754.0648, 4727.967
754.5469, 4730.725
755.0290, 4731.321
755.5111, 4730.406
755.9932, 4722.662
756.4753, 4701.956
756.9575, 4674.437
757.4396, 4663.988
757.9217, 4677.542
758.4038, 4684.984
758.8859, 4679.666
759.3680, 4673.846
759.8502, 4677.125
760.3323, 4683.941
760.8144, 4684.661
761.2965, 4678.498
761.7786, 4666.705
762.2607, 4637.145
762.7428, 4614.240
763.2249, 4619.676
763.7070, 4640.806
764.1891, 4656.078
764.6713, 4659.430
765.1534, 4658.435
765.6355, 4661.224
766.1176, 4663.414
766.5997, 4649.198
767.0818, 4623.943
767.5640, 4622.551
768.0461, 4655.657
768.5282, 4691.001
769.0103, 4697.178
769.4924, 4678.633
769.9745, 4664.148
770.4567, 4656.343
770.9388, 4645.281
771.4209, 4617.983
771.9030, 4601.004
772.3851, 4623.396
772.8672, 4667.291
773.3494, 4689.161
773.8315, 4674.842
774.3136, 4661.738
774.7957, 4666.823
775.2778, 4670.284
775.7599, 4651.593
776.2421, 4622.141
776.7242, 4604.145
777.2063, 4604.687
777.6884, 4616.572
778.1705, 4644.973
778.6526, 4675.132
779.1348, 4670.981
779.6169, 4639.467
780.0990, 4619.039
780.5811, 4621.363
781.0632, 4637.684
781.5453, 4662.711
782.0275, 4692.302
782.5096, 4693.148
782.9917, 4650.260
783.4738, 4626.210
783.9559, 4642.668
784.4380, 4664.931
784.9202, 4665.231
785.4023, 4651.734
785.8844, 4649.021
786.3665, 4665.871
786.8486, 4677.189
787.3307, 4674.948
787.8129, 4669.102
788.2950, 4664.495
788.7771, 4661.298
789.2592, 4660.819
789.7413, 4663.187
790.2234, 4659.672
790.7056, 4633.393
791.1877, 4604.029
791.6698, 4604.072
792.1519, 4625.375
792.6340, 4639.834
793.1161, 4640.271
793.5983, 4642.223
794.0804, 4662.827
794.5625, 4693.378
795.0446, 4696.262
795.5267, 4666.774
796.0089, 4644.583
796.4910, 4637.532
796.9731, 4635.160
797.4552, 4632.681
797.9373, 4628.571
798.4194, 4617.475
798.9016, 4590.611
799.3837, 4574.241
799.8658, 4572.898
800.3479, 4577.040
800.8300, 4582.875
801.3121, 4591.533
801.7943, 4609.228
802.2764, 4636.200
802.7585, 4651.107
803.2406, 4634.422
803.7227, 4610.036
804.2048, 4590.545
804.6870, 4579.765
805.1691, 4589.753
805.6512, 4617.585
806.1333, 4637.262
806.6154, 4628.222
807.0975, 4605.959
807.5797, 4599.615
808.0618, 4606.974
808.5439, 4613.733
809.0260, 4618.174
809.5081, 4622.296
809.9902, 4627.354
810.4724, 4632.270
810.9545, 4634.429
811.4366, 4632.673
811.9187, 4634.938
812.4008, 4649.899
812.8829, 4654.040
813.3651, 4626.948
813.8472, 4594.657
814.3293, 4586.326
814.8114, 4600.379
815.2935, 4606.963
815.7756, 4591.688
816.2578, 4581.425
816.7399, 4588.917
817.2220, 4601.815
817.7041, 4612.405
818.1862, 4618.304
818.6683, 4616.044
819.1505, 4602.811
819.6326, 4588.899
820.1147, 4582.411
820.5968, 4581.262
821.0789, 4585.030
821.5610, 4591.374
822.0432, 4592.475
822.5253, 4585.661
823.0074, 4576.758
823.4895, 4572.002
823.9716, 4570.906
824.4537, 4572.049
824.9359, 4575.620
825.4180, 4578.410
825.9001, 4580.848
826.3822, 4577.148
826.8643, 4559.903
827.3464, 4534.045
827.8286, 4520.867
828.3107, 4525.430
828.7928, 4532.250
829.2749, 4545.927
829.7570, 4556.083
830.2391, 4556.961
830.7213, 4552.455
831.2034, 4547.473
831.6855, 4542.399
832.1676, 4537.394
832.6497, 4524.735
833.1318, 4521.179
833.6140, 4553.069
834.0961, 4586.807
834.5782, 4576.621
835.0603, 4527.381
835.5424, 4486.532
836.0245, 4481.719
836.5067, 4486.723
836.9888, 4473.932
837.4709, 4453.956
837.9530, 4446.348
838.4351, 4450.791
838.9172, 4455.692
839.3994, 4455.883
839.8815, 4458.934
840.3636, 4481.979
840.8457, 4517.857
841.3278, 4514.740
841.8099, 4470.305
842.2921, 4449.563
842.7742, 4475.422
843.2563, 4508.632
843.7384, 4511.993
844.2205, 4491.888
844.7026, 4484.684
845.1848, 4498.664
845.6669, 4505.268
846.1490, 4495.744
846.6311, 4487.425
847.1132, 4492.114
847.5953, 4502.567
848.0775, 4508.237
848.5596, 4509.012
849.0417, 4503.453
849.5238, 4479.583
850.0059, 4463.352
850.4880, 4473.148
850.9702, 4490.321
851.4523, 4496.650
851.9343, 4490.806
852.4164, 4478.446
852.8986, 4455.169
853.3807, 4440.166
853.8628, 4456.964
854.3449, 4483.682
854.8270, 4491.193
855.3091, 4483.309
855.7913, 4480.447
856.2734, 4490.383
856.7555, 4500.599
857.2376, 4492.500
857.7197, 4475.912
858.2018, 4481.201
858.6840, 4503.213
859.1661, 4511.220
859.6482, 4497.583
860.1303, 4473.076
860.6124, 4444.498
861.0945, 4416.452
861.5767, 4404.591
862.0588, 4411.193
862.5409, 4414.879
863.0230, 4412.127
863.5051, 4413.983
863.9872, 4429.919
864.4694, 4447.906
864.9515, 4446.996
865.4336, 4423.562
865.9157, 4412.120
866.3978, 4422.341
866.8799, 4430.505
867.3621, 4432.926
867.8442, 4431.599
868.3263, 4426.507
868.8084, 4418.859
869.2905, 4412.428
869.7726, 4409.113
870.2548, 4403.955
870.7369, 4392.914
871.2190, 4382.459
871.7011, 4375.635
872.1832, 4372.570
872.6653, 4374.507
873.1475, 4380.947
873.6296, 4385.794
874.1117, 4379.414
874.5938, 4376.072
875.0759, 4395.873
875.5580, 4422.335
876.0402, 4428.288
876.5223, 4415.093
877.0044, 4404.053
877.4865, 4406.291
877.9686, 4411.126
878.4507, 4403.547
878.9329, 4388.961
879.4150, 4378.217
879.8971, 4373.036
880.3792, 4386.000
880.8613, 4420.420
881.3434, 4445.663
881.8256, 4428.075
882.3077, 4384.333
882.7898, 4377.382
883.2719, 4410.081
883.7540, 4419.926
884.2361, 4395.200
884.7183, 4370.152
885.2004, 4365.190
885.6825, 4366.965
886.1646, 4347.391
886.6467, 4299.081
887.1288, 4292.269
887.6110, 4352.828
888.0931, 4402.344
888.5752, 4421.866
889.0573, 4424.055
889.5394, 4416.783
890.0215, 4400.636
890.5037, 4378.601
890.9858, 4340.357
891.4679, 4314.828
891.9500, 4307.752
892.4321, 4309.599
892.9142, 4321.891
893.3964, 4337.229
893.8785, 4346.627
894.3606, 4349.169
894.8427, 4349.199
895.3248, 4349.226
895.8069, 4345.715
896.2891, 4331.929
896.7712, 4317.862
897.2533, 4312.437
897.7354, 4315.475
898.2175, 4325.968
898.6996, 4344.698
899.1818, 4357.875
899.6639, 4355.001
900.1460, 4341.877
900.6281, 4313.457
901.1102, 4283.470
901.5923, 4284.974
902.0745, 4318.187
902.5566, 4344.747
903.0387, 4335.828
903.5208, 4315.016
904.0029, 4318.146
904.4850, 4335.861
904.9672, 4345.225
905.4493, 4344.463
905.9314, 4333.389
906.4135, 4312.040
906.8956, 4295.985
907.3777, 4305.576
907.8599, 4333.401
908.3420, 4350.793
908.8241, 4357.969
909.3062, 4362.700
909.7883, 4366.516
910.2704, 4363.973
910.7526, 4349.680
911.2347, 4332.497
911.7168, 4332.793
912.1989, 4353.311
912.6810, 4360.240
913.1631, 4349.410
913.6453, 4340.308
914.1274, 4340.356
914.6095, 4339.869
915.0916, 4326.943
915.5737, 4305.956
916.0558, 4302.189
916.5380, 4332.111
917.0201, 4342.324
917.5022, 4314.481
917.9843, 4290.695
918.4664, 4293.820
918.9485, 4307.498
919.4307, 4309.203
919.9128, 4298.505
920.3949, 4292.812
920.8770, 4303.801
921.3591, 4304.332
921.8412, 4276.155
922.3234, 4249.614
922.8055, 4244.283
923.2876, 4255.084
923.7697, 4274.291
924.2518, 4304.835
924.7339, 4317.272
925.2161, 4281.987
925.6982, 4252.391
926.1803, 4261.822
926.6624, 4284.038
927.1445, 4289.136
927.6266, 4279.934
928.1088, 4279.526
928.5909, 4298.860
929.0730, 4318.483
929.5551, 4332.071
930.0372, 4336.812
930.5193, 4321.875
931.0015, 4299.842
931.4836, 4291.943
931.9657, 4300.890
932.4478, 4312.301
932.9299, 4317.877
933.4120, 4322.083
933.8942, 4333.731
934.3763, 4344.031
934.8584, 4335.150
935.3405, 4313.432
935.8226, 4301.563
936.3047, 4306.754
936.7869, 4313.318
937.2690, 4303.501
937.7511, 4289.297
938.2332, 4294.331
938.7153, 4310.064
939.1974, 4311.678
939.6796, 4298.890
940.1617, 4294.213
940.6438, 4309.885
941.1259, 4327.834
941.6080, 4315.757
942.0901, 4287.662
942.5722, 4298.049
943.0543, 4339.107
943.5364, 4359.142
944.0186, 4346.727
944.5007, 4322.056
944.9828, 4297.832
945.4649, 4279.722
945.9470, 4282.739
946.4291, 4304.868
946.9113, 4323.100
947.3934, 4336.581
947.8755, 4345.177
948.3576, 4348.409
948.8397, 4350.563
949.3218, 4356.284
949.8040, 4363.539
950.2861, 4365.583
950.7682, 4362.516
951.2503, 4348.956
951.7324, 4320.286
952.2145, 4304.867
952.6967, 4317.084
953.1788, 4342.274
953.6609, 4363.141
954.1430, 4379.497
954.6251, 4390.042
955.1072, 4394.704
955.5894, 4391.774
956.0715, 4374.426
956.5536, 4367.952
957.0357, 4393.081
957.5178, 4428.278
957.9999, 4434.261
958.4821, 4407.595
958.9642, 4396.566
959.4463, 4410.898
959.9284, 4418.015
960.4105, 4405.730
960.8926, 4394.671
961.3748, 4400.636
961.8569, 4416.642
962.3390, 4426.021
962.8211, 4426.565
963.3032, 4429.302
963.7853, 4441.253
964.2675, 4444.003
964.7496, 4421.370
965.2317, 4399.808
965.7138, 4406.799
966.1959, 4432.368
966.6780, 4439.584
967.1602, 4417.042
967.6423, 4402.261
968.1244, 4393.095
968.6065, 4395.134
969.0886, 4427.044
969.5707, 4457.788
970.0529, 4451.635
970.5350, 4415.954
971.0171, 4396.004
971.4992, 4404.424
971.9813, 4412.081
972.4634, 4417.022
972.9456, 4419.485
973.4277, 4419.278
973.9098, 4416.820
974.3919, 4411.449
974.8740, 4403.666
975.3561, 4398.100
975.8383, 4402.224
976.3204, 4398.539
976.8025, 4375.942
977.2846, 4353.095
977.7667, 4338.070
978.2488, 4330.611
978.7310, 4330.067
979.2131, 4336.188
979.6952, 4346.493
980.1773, 4372.808
980.6594, 4385.959
981.1415, 4362.300
981.6237, 4337.912
982.1058, 4346.370
982.5879, 4367.767
983.0700, 4361.239
983.5521, 4320.731
984.0342, 4296.960
984.5164, 4323.023
984.9985, 4345.656
985.4806, 4341.762
985.9627, 4328.404
986.4448, 4316.284
986.9269, 4306.410
987.4091, 4298.243
987.8912, 4291.687
988.3733, 4286.300
988.8554, 4280.020
989.3375, 4277.229
989.8196, 4290.975
990.3018, 4299.822
990.7839, 4277.498
991.2660, 4235.753
991.7481, 4201.996
992.2302, 4182.116
992.7123, 4178.590
993.1945, 4203.882
993.6766, 4232.129
994.1587, 4253.556
994.6408, 4267.704
995.1229, 4269.132
995.6050, 4264.052
996.0872, 4269.763
996.5693, 4293.469
997.0514, 4309.865
997.5335, 4306.892
998.0156, 4294.219
998.4977, 4267.632
998.9799, 4241.704
999.4620, 4233.296
999.9441, 4239.396
1000.426, 4246.777
1000.908, 4252.294
1001.390, 4254.479
1001.873, 4254.329
1002.355, 4248.725
1002.837, 4226.645
1003.319, 4204.538
1003.801, 4207.695
1004.283, 4228.343
1004.765, 4232.944
1005.247, 4207.171
1005.729, 4183.334
1006.212, 4172.941
1006.694, 4173.199
1007.176, 4190.476
1007.658, 4211.714
1008.140, 4226.718
1008.622, 4231.500
1009.104, 4216.798
1009.586, 4172.994
1010.069, 4136.717
1010.551, 4121.937
1011.033, 4122.854
1011.515, 4146.871
1011.997, 4176.754
1012.479, 4192.116
1012.961, 4194.472
1013.443, 4199.681
1013.925, 4214.898
1014.408, 4224.925
1014.890, 4223.618
1015.372, 4214.944
1015.854, 4197.961
1016.336, 4177.298
1016.818, 4153.768
1017.300, 4131.112
1017.782, 4122.667
1018.265, 4138.932
1018.747, 4147.514
1019.229, 4121.607
1019.711, 4101.744
1020.193, 4119.778
1020.675, 4149.673
1021.157, 4163.685
1021.639, 4161.654
1022.121, 4156.173
1022.604, 4152.412
1023.086, 4138.797
1023.568, 4092.452
1024.050, 4058.398
1024.532, 4071.787
1025.014, 4099.210
1025.496, 4101.584
1025.978, 4084.994
1026.460, 4084.989
1026.943, 4117.014
1027.425, 4140.274
1027.907, 4135.558
1028.389, 4131.863
1028.871, 4144.436
1029.353, 4161.853
1029.835, 4174.633
1030.317, 4182.075
1030.800, 4185.843
1031.282, 4190.593
1031.764, 4178.522
1032.246, 4119.775
1032.728, 4078.309
1033.210, 4087.775
1033.692, 4114.875
1034.174, 4133.357
1034.656, 4144.209
1035.139, 4154.914
1035.621, 4166.805
1036.103, 4176.179
1036.585, 4185.275
1037.067, 4188.461
1037.549, 4174.855
1038.031, 4163.265
1038.513, 4175.073
1038.995, 4199.905
1039.478, 4205.437
1039.960, 4181.762
1040.442, 4171.395
1040.924, 4184.770
1041.406, 4195.220
1041.888, 4196.883
1042.370, 4194.060
1042.852, 4189.511
1043.335, 4182.650
1043.817, 4169.933
1044.299, 4146.594
1044.781, 4144.756
1045.263, 4180.499
1045.745, 4201.792
1046.227, 4188.697
1046.709, 4177.242
1047.192, 4195.552
1047.674, 4226.013
1048.156, 4231.708
1048.638, 4210.065
1049.120, 4199.142
1049.602, 4202.401
1050.084, 4204.750
1050.566, 4204.483
1051.048, 4199.696
1051.531, 4187.365
1052.013, 4173.907
1052.495, 4170.381
1052.977, 4176.240
1053.459, 4181.994
1053.941, 4188.802
1054.423, 4183.218
1054.905, 4161.232
1055.387, 4140.629
1055.870, 4129.693
1056.352, 4128.926
1056.834, 4139.852
1057.316, 4161.076
1057.798, 4191.426
1058.280, 4229.722
1058.762, 4240.116
1059.244, 4218.924
1059.727, 4193.251
1060.209, 4173.939
1060.691, 4168.155
1061.173, 4188.976
1061.655, 4220.288
1062.137, 4214.195
1062.619, 4180.201
1063.101, 4164.580
1063.583, 4167.962
1064.066, 4164.321
1064.548, 4145.501
1065.030, 4127.771
1065.512, 4124.098
1065.994, 4131.552
1066.476, 4151.699
1066.958, 4176.609
1067.440, 4184.464
1067.922, 4180.610
1068.405, 4189.973
1068.887, 4215.056
1069.369, 4227.181
1069.851, 4204.781
1070.333, 4174.319
1070.815, 4157.845
1071.297, 4155.434
1071.779, 4178.821
1072.262, 4211.546
1072.744, 4219.961
1073.226, 4204.209
1073.708, 4193.566
1074.190, 4203.823
1074.672, 4207.997
1075.154, 4175.818
1075.636, 4141.803
1076.118, 4133.893
1076.601, 4141.154
1077.083, 4154.460
1077.565, 4168.091
1078.047, 4170.811
1078.529, 4157.883
1079.011, 4147.734
1079.493, 4151.354
1079.975, 4155.078
1080.458, 4149.087
1080.940, 4143.631
1081.422, 4150.977
1081.904, 4164.406
1082.386, 4170.517
1082.868, 4167.637
1083.350, 4156.805
1083.832, 4124.907
1084.314, 4104.566
1084.797, 4105.783
1085.279, 4116.045
1085.761, 4141.597
1086.243, 4164.248
1086.725, 4152.305
1087.207, 4107.683
1087.689, 4086.235
1088.171, 4098.062
1088.653, 4112.065
1089.136, 4134.361
1089.618, 4141.383
1090.100, 4113.484
1090.582, 4085.532
1091.064, 4098.083
1091.546, 4137.719
1092.028, 4147.513
1092.510, 4121.358
1092.993, 4104.794
1093.475, 4099.424
1093.957, 4100.808
1094.439, 4108.825
1094.921, 4115.448
1095.403, 4114.209
1095.885, 4108.642
1096.367, 4106.550
1096.849, 4106.944
1097.332, 4099.045
1097.814, 4084.852
1098.296, 4085.554
1098.778, 4102.896
1099.260, 4110.294
1099.742, 4093.392
1100.224, 4070.984
1100.706, 4064.814
1101.188, 4069.428
1101.671, 4078.390
1102.153, 4088.177
1102.635, 4090.219
1103.117, 4085.316
1103.599, 4079.613
1104.081, 4075.059
1104.563, 4068.307
1105.045, 4051.604
1105.528, 4040.927
1106.010, 4060.535
1106.492, 4085.484
1106.974, 4086.588
1107.456, 4072.876
1107.938, 4062.456
1108.420, 4058.094
1108.902, 4052.316
1109.385, 4036.878
1109.867, 4033.877
1110.349, 4069.561
1110.831, 4099.569
1111.313, 4092.410
1111.795, 4072.998
1112.277, 4064.102
1112.759, 4066.233
1113.241, 4077.662
1113.724, 4106.069
1114.206, 4113.650
1114.688, 4076.035
1115.170, 4049.681
1115.652, 4047.530
1116.134, 4054.523
1116.616, 4066.505
1117.098, 4077.892
1117.580, 4079.139
1118.063, 4070.527
1118.545, 4059.565
1119.027, 4045.454
1119.509, 4031.220
1119.991, 4014.689
1120.473, 4013.252
1120.955, 4036.717
1121.437, 4062.680
1121.920, 4066.482
1122.402, 4060.357
1122.884, 4087.210
1123.366, 4137.647
1123.848, 4138.582
1124.330, 4095.485
1124.812, 4070.470
1125.294, 4076.021
1125.776, 4077.708
1126.259, 4053.620
1126.741, 4023.815
1127.223, 4008.081
1127.705, 4005.842
1128.187, 4024.781
1128.669, 4052.064
1129.151, 4064.267
1129.633, 4062.377
1130.115, 4059.114
1130.598, 4058.680
1131.080, 4057.018
1131.562, 4049.263
1132.044, 4042.750
1132.526, 4042.999
1133.008, 4045.230
1133.490, 4051.180
1133.972, 4053.282
1134.455, 4034.687
1134.937, 3998.703
1135.419, 3980.261
1135.901, 3994.989
1136.383, 4007.655
1136.865, 4011.751
1137.347, 4016.647
1137.829, 4032.091
1138.312, 4040.541
1138.794, 4018.790
1139.276, 3987.119
1139.758, 3998.352
1140.240, 4058.481
1140.722, 4081.813
1141.204, 4059.086
1141.686, 4048.462
1142.168, 4061.679
1142.651, 4069.579
1143.133, 4058.089
1143.615, 4034.454
1144.097, 4002.666
1144.579, 3972.214
1145.061, 3973.229
1145.543, 3999.296
1146.025, 4030.578
1146.507, 4060.779
1146.990, 4065.169
1147.472, 4041.611
1147.954, 4020.347
1148.436, 4020.058
1148.918, 4028.293
1149.400, 4035.139
1149.882, 4041.088
1150.364, 4050.630
1150.847, 4057.039
1151.329, 4045.917
1151.811, 4024.195
1152.293, 4011.694
1152.775, 4013.380
1153.257, 4022.771
1153.739, 4043.351
1154.221, 4062.699
1154.703, 4086.412
1155.186, 4096.974
1155.668, 4070.220
1156.150, 4033.676
1156.632, 4028.058
1157.114, 4045.259
1157.596, 4038.979
1158.078, 3991.153
1158.560, 3976.715
1159.042, 4008.872
1159.525, 4035.255
1160.007, 4044.181
1160.489, 4041.646
1160.971, 4029.866
1161.453, 4014.550
1161.935, 4003.806
1162.417, 3998.204
1162.899, 4005.181
1163.382, 4021.139
1163.864, 4022.132
1164.346, 4007.953
1164.828, 3991.533
1165.310, 3978.017
1165.792, 3970.904
1166.274, 3973.518
1166.756, 3981.033
1167.238, 3992.595
1167.721, 4001.946
1168.203, 3992.579
1168.685, 3981.257
1169.167, 4004.484
1169.649, 4049.385
1170.131, 4061.381
1170.613, 4021.909
1171.095, 3990.147
1171.578, 3989.834
1172.060, 3994.649
1172.542, 3999.672
1173.024, 4003.611
1173.506, 4005.582
1173.988, 4006.208
1174.470, 4005.700
1174.952, 4004.476
1175.434, 4003.777
1175.917, 3999.558
1176.399, 4016.250
1176.881, 4062.391
1177.363, 4085.634
1177.845, 4071.198
1178.327, 4044.358
1178.809, 4019.529
1179.291, 4002.564
1179.773, 4005.984
1180.256, 4020.993
1180.738, 4022.074
1181.220, 4013.291
1181.702, 4006.366
1182.184, 4001.473
1182.666, 3992.447
1183.148, 3978.924
1183.630, 3971.010
1184.113, 3976.345
1184.595, 3983.250
1185.077, 3985.873
1185.559, 3983.794
1186.041, 3967.889
1186.523, 3954.262
1187.005, 3964.761
1187.487, 3990.935
1187.969, 4010.230
1188.452, 4020.181
1188.934, 4019.846
1189.416, 4000.524
1189.898, 3985.931
1190.380, 3974.221
1190.862, 3977.023
1191.344, 4007.702
1191.826, 4034.179
1192.308, 4023.206
1192.791, 3989.990
1193.273, 3975.059
1193.755, 3977.152
1194.237, 3981.305
1194.719, 3986.686
1195.201, 3983.471
1195.683, 3972.914
1196.165, 3977.784
1196.648, 4007.109
1197.130, 4034.493
1197.612, 4036.270
1198.094, 4026.247
1198.576, 4012.250
1199.058, 4000.453
1199.540, 3997.492
1200.022, 4001.846
1200.505, 4020.869
1200.987, 4044.678
1201.469, 4032.152
1201.951, 3959.381
1202.433, 3916.129
1202.915, 3937.923
1203.397, 3963.034
1203.879, 3988.785
1204.361, 4000.905
1204.844, 3986.405
1205.326, 3964.068
1205.808, 3957.465
1206.290, 3961.595
1206.772, 3950.257
1207.254, 3923.748
1207.736, 3933.624
1208.218, 3977.805
1208.700, 4001.567
1209.183, 3995.193
1209.665, 3987.796
1210.147, 3994.456
1210.629, 4004.061
1211.111, 4005.016
1211.593, 4003.389
1212.075, 4004.383
1212.557, 4008.417
1213.040, 4019.286
1213.522, 4031.813
1214.004, 4034.729
1214.486, 4029.837
1214.968, 4034.088
1215.450, 4056.449
1215.932, 4071.446
1216.414, 4077.533
1216.896, 4070.477
1217.379, 4034.580
1217.861, 4010.447
1218.343, 4025.363
1218.825, 4053.687
1219.307, 4064.142
1219.789, 4058.969
1220.271, 4042.481
1220.753, 4016.543
1221.235, 4014.732
1221.718, 4033.851
1222.200, 4037.408
1222.682, 4020.281
1223.164, 4006.403
1223.646, 4007.619
1224.128, 4015.025
1224.610, 4021.250
1225.092, 4029.178
1225.575, 4042.912
1226.057, 4058.300
1226.539, 4079.187
1227.021, 4094.130
1227.503, 4079.171
1227.985, 4041.103
1228.467, 4020.794
1228.949, 4028.497
1229.432, 4038.916
1229.914, 4052.779
1230.396, 4067.353
1230.878, 4087.858
1231.360, 4092.127
1231.842, 4065.646
1232.324, 4032.336
1232.806, 4018.553
1233.288, 4016.893
1233.771, 4009.635
1234.253, 3997.603
1234.735, 3976.925
1235.217, 3955.511
1235.699, 3963.938
1236.181, 3998.365
1236.663, 4026.582
1237.145, 4036.252
1237.627, 4031.598
1238.110, 3998.523
1238.592, 3976.864
1239.074, 4002.675
1239.556, 4028.547
1240.038, 4012.031
1240.520, 3989.933
1241.002, 4012.073
1241.484, 4059.115
1241.967, 4079.967
1242.449, 4072.615
1242.931, 4073.386
1243.413, 4084.280
1243.895, 4089.047
1244.377, 4085.714
1244.859, 4081.897
1245.341, 4080.300
1245.823, 4080.327
1246.306, 4082.153
1246.788, 4081.673
1247.270, 4067.875
1247.752, 4053.342
1248.234, 4057.039
1248.716, 4070.562
1249.198, 4089.021
1249.680, 4104.019
1250.162, 4095.185
1250.645, 4062.982
1251.127, 4048.085
1251.609, 4074.520
1252.091, 4087.280
1252.573, 4069.656
1253.055, 4058.913
1253.537, 4066.670
1254.019, 4075.402
1254.502, 4074.809
1254.984, 4069.135
1255.466, 4062.697
1255.948, 4058.049
1256.430, 4066.986
1256.912, 4084.305
1257.394, 4090.363
1257.876, 4086.514
##END=



