##NAMES=Mattheddleite
##RRUFFID=R070490
##IDEAL CHEMISTRY=Pb^2+^_5_(SiO_4_)_1.5_(S^6+^O_4_)_1.5_Cl
##LOCALITY=Dry Smale Gill, Roughton Gill, Caldbeck Fells, Cumbria (Cumberland), England, United Kingdom
##OWNER=RRUFF
##SOURCE=Bob Jenkins
##DESCRIPTION=Radial aggregates of colorless hexagonal prisms associated with elongated bladed striated blue-green caledonite and creamy yellow barite
##STATUS=The identification of this mineral has been confirmed only by single crystal X-ray diffraction.
##URL=rruff.info/R070490
146.9515, 4118.564
147.4337, 4246.720
147.9158, 4364.574
148.3979, 4472.287
148.8800, 4570.077
149.3621, 4661.223
149.8442, 4738.124
150.3264, 4786.970
150.8085, 4802.988
151.2906, 4807.077
151.7727, 4806.912
152.2548, 4801.849
152.7369, 4789.452
153.2191, 4766.265
153.7012, 4737.918
154.1833, 4715.640
154.6654, 4701.928
155.1475, 4687.952
155.6296, 4670.108
156.1118, 4649.884
156.5939, 4627.800
157.0760, 4601.676
157.5581, 4576.347
158.0402, 4562.987
158.5223, 4562.162
159.0045, 4573.861
159.4866, 4597.485
159.9687, 4631.466
160.4508, 4674.284
160.9329, 4715.713
161.4150, 4744.378
161.8972, 4754.173
162.3793, 4730.847
162.8614, 4713.104
163.3435, 4716.053
163.8256, 4728.108
164.3077, 4735.624
164.7899, 4731.948
165.2720, 4719.833
165.7541, 4707.861
166.2362, 4697.651
166.7183, 4686.102
167.2004, 4678.729
167.6826, 4668.769
168.1647, 4647.113
168.6468, 4608.395
169.1289, 4557.378
169.6110, 4510.434
170.0931, 4460.006
170.5753, 4425.527
171.0574, 4420.300
171.5395, 4428.552
172.0216, 4432.134
172.5037, 4421.848
172.9858, 4399.297
173.4680, 4369.266
173.9501, 4312.688
174.4322, 4272.833
174.9143, 4262.009
175.3964, 4268.177
175.8785, 4277.437
176.3607, 4282.662
176.8428, 4284.354
177.3249, 4284.796
177.8070, 4286.352
178.2891, 4282.978
178.7712, 4270.524
179.2534, 4253.742
179.7355, 4238.206
180.2176, 4226.771
180.6997, 4218.506
181.1818, 4210.189
181.6639, 4195.874
182.1461, 4188.669
182.6282, 4196.812
183.1103, 4210.460
183.5924, 4216.137
184.0745, 4207.310
184.5566, 4190.070
185.0388, 4184.053
185.5209, 4210.987
186.0030, 4224.209
186.4851, 4209.735
186.9672, 4183.695
187.4493, 4165.731
187.9315, 4164.617
188.4136, 4174.203
188.8957, 4177.944
189.3778, 4169.290
189.8599, 4162.177
190.3420, 4158.592
190.8242, 4156.315
191.3063, 4150.814
191.7884, 4140.236
192.2705, 4130.083
192.7526, 4133.144
193.2347, 4178.500
193.7169, 4200.183
194.1990, 4174.617
194.6811, 4133.714
195.1632, 4116.226
195.6453, 4135.433
196.1274, 4168.721
196.6096, 4172.323
197.0917, 4110.940
197.5738, 4071.986
198.0559, 4073.217
198.5380, 4089.822
199.0201, 4097.747
199.5023, 4089.777
199.9844, 4072.905
200.4665, 4058.193
200.9486, 4047.443
201.4307, 4035.816
201.9128, 4021.517
202.3950, 4007.275
202.8771, 3997.927
203.3592, 3994.113
203.8413, 3988.034
204.3234, 3967.290
204.8055, 3918.646
205.2877, 3888.479
205.7698, 3891.320
206.2519, 3903.074
206.7340, 3903.061
207.2161, 3887.759
207.6982, 3867.859
208.1804, 3856.840
208.6625, 3860.764
209.1446, 3849.947
209.6267, 3813.517
210.1088, 3770.484
210.5909, 3732.857
211.0731, 3702.554
211.5552, 3678.191
212.0373, 3659.313
212.5194, 3647.434
213.0015, 3631.940
213.4836, 3608.704
213.9658, 3585.477
214.4479, 3567.189
214.9300, 3553.884
215.4121, 3543.523
215.8942, 3535.140
216.3763, 3529.026
216.8584, 3518.052
217.3406, 3500.784
217.8227, 3480.811
218.3048, 3457.616
218.7869, 3432.740
219.2690, 3411.224
219.7511, 3397.589
220.2333, 3391.305
220.7154, 3377.432
221.1975, 3349.013
221.6796, 3321.810
222.1617, 3303.442
222.6438, 3291.397
223.1260, 3278.089
223.6081, 3258.561
224.0902, 3234.330
224.5723, 3214.711
225.0544, 3203.315
225.5365, 3191.465
226.0187, 3175.814
226.5008, 3158.214
226.9829, 3141.784
227.4650, 3127.859
227.9471, 3116.726
228.4292, 3109.776
228.9114, 3120.124
229.3935, 3118.461
229.8756, 3089.912
230.3577, 3050.001
230.8398, 3022.199
231.3219, 3016.110
231.8041, 3018.942
232.2862, 3002.667
232.7683, 2944.775
233.2504, 2900.776
233.7325, 2881.373
234.2146, 2873.240
234.6968, 2863.666
235.1789, 2848.957
235.6610, 2832.205
236.1431, 2818.091
236.6252, 2808.867
237.1073, 2797.798
237.5895, 2781.252
238.0716, 2765.349
238.5537, 2756.224
239.0358, 2754.232
239.5179, 2753.520
240.0000, 2747.007
240.4822, 2732.190
240.9643, 2721.340
241.4464, 2722.156
241.9285, 2720.039
242.4106, 2704.723
242.8927, 2677.487
243.3749, 2647.360
243.8570, 2622.250
244.3391, 2602.635
244.8212, 2582.585
245.3033, 2557.274
245.7854, 2536.295
246.2676, 2527.789
246.7497, 2526.917
247.2318, 2521.392
247.7139, 2501.849
248.1960, 2470.140
248.6781, 2446.699
249.1603, 2437.725
249.6424, 2430.102
250.1245, 2421.286
250.6066, 2412.206
251.0887, 2405.248
251.5708, 2401.914
252.0530, 2400.141
252.5351, 2392.635
253.0172, 2372.233
253.4993, 2355.052
253.9814, 2346.618
254.4635, 2340.000
254.9457, 2325.951
255.4278, 2301.515
255.9099, 2274.705
256.3920, 2261.841
256.8741, 2273.997
257.3563, 2279.725
257.8384, 2277.854
258.3205, 2270.323
258.8026, 2256.431
259.2847, 2237.112
259.7668, 2216.617
260.2490, 2199.897
260.7311, 2187.396
261.2132, 2177.737
261.6953, 2175.977
262.1774, 2172.615
262.6595, 2162.655
263.1417, 2146.636
263.6238, 2128.150
264.1059, 2108.926
264.5880, 2088.845
265.0701, 2075.587
265.5522, 2076.601
266.0344, 2077.064
266.5165, 2075.055
266.9986, 2068.958
267.4807, 2055.477
267.9628, 2030.346
268.4449, 1997.685
268.9271, 1975.690
269.4092, 1967.946
269.8913, 1965.914
270.3734, 1971.183
270.8555, 1978.211
271.3376, 1980.665
271.8198, 1975.930
272.3019, 1965.542
272.7840, 1951.134
273.2661, 1930.782
273.7482, 1912.558
274.2303, 1897.797
274.7125, 1886.436
275.1946, 1880.036
275.6767, 1878.988
276.1588, 1878.337
276.6409, 1870.514
277.1230, 1855.043
277.6052, 1847.633
278.0873, 1862.249
278.5694, 1874.990
279.0515, 1866.252
279.5336, 1837.373
280.0157, 1807.790
280.4979, 1792.125
280.9800, 1786.895
281.4621, 1777.070
281.9442, 1757.822
282.4263, 1740.636
282.9084, 1736.817
283.3906, 1741.777
283.8727, 1743.474
284.3548, 1737.573
284.8369, 1725.536
285.3190, 1705.829
285.8011, 1675.907
286.2833, 1654.558
286.7654, 1664.275
287.2475, 1688.055
287.7296, 1690.480
288.2117, 1652.630
288.6938, 1609.591
289.1760, 1589.328
289.6581, 1589.555
290.1402, 1594.389
290.6223, 1598.783
291.1044, 1602.653
291.5865, 1607.097
292.0687, 1615.162
292.5508, 1615.995
293.0329, 1599.519
293.5150, 1573.459
293.9971, 1552.614
294.4792, 1541.102
294.9614, 1535.041
295.4435, 1529.504
295.9256, 1524.072
296.4077, 1521.410
296.8898, 1527.773
297.3719, 1533.492
297.8541, 1526.701
298.3362, 1507.072
298.8183, 1487.059
299.3004, 1477.882
299.7825, 1480.305
300.2646, 1479.462
300.7468, 1472.810
301.2289, 1465.737
301.7110, 1460.370
302.1931, 1456.611
302.6752, 1454.091
303.1573, 1452.768
303.6395, 1452.167
304.1216, 1450.059
304.6037, 1445.554
305.0858, 1440.650
305.5679, 1434.462
306.0500, 1428.423
306.5322, 1424.638
307.0143, 1423.716
307.4964, 1423.859
307.9785, 1421.562
308.4606, 1412.978
308.9427, 1409.912
309.4249, 1418.034
309.9070, 1426.288
310.3891, 1426.249
310.8712, 1418.494
311.3533, 1410.584
311.8354, 1410.942
312.3176, 1420.515
312.7997, 1422.696
313.2818, 1404.796
313.7639, 1392.352
314.2460, 1397.798
314.7281, 1413.559
315.2103, 1425.833
315.6924, 1426.805
316.1745, 1419.121
316.6566, 1408.976
317.1387, 1392.468
317.6208, 1382.563
318.1030, 1385.906
318.5851, 1395.354
319.0672, 1404.782
319.5493, 1412.543
320.0314, 1420.616
320.5135, 1433.428
320.9957, 1451.244
321.4778, 1461.884
321.9599, 1457.803
322.4420, 1450.803
322.9241, 1451.060
323.4063, 1458.028
323.8884, 1464.376
324.3705, 1464.072
324.8526, 1460.329
325.3347, 1461.899
325.8168, 1470.826
326.2990, 1480.133
326.7811, 1484.013
327.2632, 1484.229
327.7453, 1485.116
328.2274, 1486.741
328.7095, 1489.909
329.1917, 1497.515
329.6738, 1508.507
330.1559, 1514.664
330.6380, 1510.000
331.1201, 1499.840
331.6022, 1498.088
332.0844, 1508.230
332.5665, 1518.240
333.0486, 1523.619
333.5307, 1526.801
334.0128, 1530.920
334.4949, 1536.770
334.9771, 1544.747
335.4592, 1556.354
335.9413, 1574.826
336.4234, 1583.906
336.9055, 1577.128
337.3876, 1566.753
337.8698, 1559.471
338.3518, 1555.699
338.8340, 1553.167
339.3161, 1549.818
339.7982, 1546.197
340.2803, 1548.596
340.7624, 1567.087
341.2445, 1580.134
341.7267, 1580.576
342.2088, 1574.890
342.6909, 1570.735
343.1730, 1571.193
343.6551, 1574.727
344.1372, 1578.713
344.6194, 1583.232
345.1015, 1587.927
345.5836, 1591.476
346.0657, 1596.197
346.5478, 1606.217
347.0299, 1619.954
347.5121, 1629.680
347.9942, 1626.828
348.4763, 1612.825
348.9584, 1602.526
349.4405, 1596.231
349.9226, 1593.627
350.4048, 1595.382
350.8869, 1600.069
351.3690, 1605.588
351.8511, 1611.406
352.3332, 1617.341
352.8153, 1623.797
353.2975, 1630.885
353.7796, 1636.038
354.2617, 1640.500
354.7438, 1640.322
355.2259, 1628.221
355.7080, 1600.978
356.1902, 1581.016
356.6723, 1585.342
357.1544, 1603.149
357.6365, 1614.061
358.1186, 1614.287
358.6007, 1609.561
359.0829, 1603.927
359.5650, 1597.441
360.0471, 1593.440
360.5292, 1596.173
361.0113, 1597.781
361.4934, 1591.265
361.9756, 1579.065
362.4577, 1569.146
362.9398, 1565.787
363.4219, 1567.749
363.9040, 1571.047
364.3861, 1581.683
364.8683, 1585.872
365.3504, 1581.674
365.8325, 1571.271
366.3146, 1552.168
366.7967, 1526.038
367.2788, 1504.637
367.7610, 1504.813
368.2431, 1533.383
368.7252, 1545.073
369.2073, 1522.524
369.6894, 1500.149
370.1715, 1490.163
370.6537, 1489.221
371.1358, 1489.386
371.6179, 1486.660
372.1000, 1481.242
372.5821, 1473.378
373.0642, 1462.345
373.5464, 1450.867
374.0285, 1439.223
374.5106, 1427.716
374.9927, 1416.796
375.4748, 1406.586
375.9569, 1396.278
376.4391, 1385.059
376.9212, 1373.144
377.4033, 1360.972
377.8854, 1347.351
378.3675, 1336.165
378.8496, 1333.661
379.3318, 1336.811
379.8139, 1336.430
380.2960, 1327.143
380.7781, 1315.902
381.2602, 1310.258
381.7423, 1308.943
382.2245, 1303.620
382.7066, 1288.559
383.1887, 1269.130
383.6708, 1260.650
384.1529, 1271.932
384.6350, 1274.824
385.1172, 1257.825
385.5993, 1233.495
386.0814, 1212.577
386.5635, 1197.902
387.0456, 1191.392
387.5277, 1196.614
388.0099, 1215.778
388.4920, 1224.352
388.9741, 1216.517
389.4562, 1205.181
389.9383, 1189.062
390.4204, 1173.174
390.9026, 1165.982
391.3847, 1171.975
391.8668, 1184.254
392.3489, 1188.213
392.8310, 1181.841
393.3131, 1172.867
393.7953, 1156.993
394.2774, 1143.017
394.7595, 1138.575
395.2416, 1142.631
395.7237, 1145.423
396.2058, 1138.841
396.6880, 1125.194
397.1701, 1111.866
397.6522, 1097.928
398.1343, 1087.546
398.6164, 1085.845
399.0985, 1088.815
399.5807, 1089.883
400.0628, 1087.883
400.5449, 1084.202
401.0270, 1078.472
401.5091, 1071.709
401.9912, 1067.295
402.4734, 1066.630
402.9555, 1067.101
403.4376, 1065.171
403.9197, 1060.244
404.4018, 1055.562
404.8839, 1051.835
405.3661, 1047.946
405.8482, 1040.758
406.3303, 1032.227
406.8124, 1029.386
407.2945, 1037.411
407.7766, 1053.167
408.2588, 1063.132
408.7409, 1066.967
409.2230, 1064.632
409.7051, 1048.714
410.1872, 1031.530
410.6693, 1024.170
411.1515, 1028.260
411.6336, 1037.035
412.1157, 1043.942
412.5978, 1048.957
413.0799, 1054.031
413.5620, 1059.838
414.0442, 1064.712
414.5263, 1065.543
415.0084, 1065.551
415.4905, 1070.487
415.9726, 1083.438
416.4547, 1099.750
416.9369, 1114.304
417.4190, 1127.265
417.9011, 1141.528
418.3832, 1159.573
418.8653, 1176.767
419.3474, 1183.409
419.8296, 1178.770
420.3117, 1184.745
420.7938, 1216.068
421.2759, 1253.705
421.7580, 1278.689
422.2401, 1291.655
422.7223, 1305.212
423.2044, 1327.277
423.6865, 1356.499
424.1686, 1387.119
424.6507, 1423.778
425.1328, 1455.918
425.6150, 1476.114
426.0971, 1495.049
426.5792, 1523.424
427.0613, 1563.016
427.5434, 1608.017
428.0255, 1654.695
428.5077, 1703.610
428.9898, 1739.972
429.4719, 1750.192
429.9540, 1764.890
430.4361, 1802.025
430.9182, 1847.528
431.4004, 1879.279
431.8825, 1886.983
432.3646, 1887.207
432.8467, 1902.993
433.3288, 1933.105
433.8109, 1953.723
434.2931, 1957.993
434.7752, 1953.432
435.2573, 1944.634
435.7394, 1932.417
436.2215, 1924.821
436.7036, 1932.499
437.1858, 1939.378
437.6679, 1927.209
438.1500, 1899.374
438.6321, 1875.937
439.1142, 1868.798
439.5963, 1869.647
440.0785, 1855.895
440.5606, 1810.682
441.0427, 1775.956
441.5248, 1756.569
442.0069, 1745.308
442.4890, 1737.583
442.9712, 1732.356
443.4533, 1730.252
443.9354, 1732.537
444.4175, 1738.398
444.8996, 1740.733
445.3817, 1739.751
445.8639, 1734.494
446.3460, 1718.956
446.8281, 1702.615
447.3102, 1697.871
447.7923, 1707.790
448.2744, 1716.157
448.7566, 1706.755
449.2387, 1682.895
449.7208, 1658.123
450.2029, 1632.201
450.6850, 1611.182
451.1671, 1604.079
451.6493, 1606.445
452.1314, 1601.752
452.6135, 1584.277
453.0956, 1563.517
453.5777, 1543.552
454.0598, 1524.291
454.5420, 1506.028
455.0241, 1488.920
455.5062, 1471.212
455.9883, 1449.636
456.4704, 1421.586
456.9525, 1399.940
457.4347, 1390.540
457.9168, 1380.641
458.3989, 1365.189
458.8810, 1344.904
459.3631, 1321.473
459.8452, 1295.573
460.3274, 1268.775
460.8095, 1244.157
461.2916, 1221.218
461.7737, 1201.812
462.2558, 1187.801
462.7379, 1176.201
463.2201, 1165.007
463.7022, 1154.347
464.1843, 1145.487
464.6664, 1141.334
465.1485, 1138.093
465.6306, 1128.850
466.1128, 1114.126
466.5949, 1103.240
467.0770, 1102.246
467.5591, 1105.639
468.0412, 1100.356
468.5233, 1081.555
469.0055, 1068.650
469.4876, 1068.540
469.9697, 1072.665
470.4518, 1075.060
470.9339, 1074.845
471.4160, 1072.714
471.8982, 1069.052
472.3803, 1064.011
472.8624, 1058.164
473.3445, 1048.784
473.8266, 1043.307
474.3087, 1045.676
474.7909, 1049.760
475.2730, 1049.484
475.7551, 1044.774
476.2372, 1042.003
476.7193, 1050.820
477.2014, 1065.804
477.6836, 1066.156
478.1657, 1048.477
478.6478, 1030.070
479.1299, 1018.139
479.6120, 1012.435
480.0941, 1012.487
480.5763, 1021.891
481.0584, 1028.277
481.5405, 1023.176
482.0226, 1013.846
482.5047, 1011.657
482.9868, 1017.457
483.4690, 1020.602
483.9511, 1010.523
484.4332, 988.7813
484.9153, 978.7120
485.3974, 993.3470
485.8795, 1004.530
486.3617, 1008.415
486.8438, 1007.352
487.3259, 1001.577
487.8080, 992.1771
488.2901, 984.9660
488.7722, 988.3313
489.2544, 1000.796
489.7365, 1006.683
490.2186, 1004.544
490.7007, 998.9893
491.1828, 988.9876
491.6649, 978.1772
492.1471, 972.2966
492.6292, 973.8953
493.1113, 975.8384
493.5934, 973.7592
494.0755, 969.4097
494.5576, 965.6402
495.0398, 962.9669
495.5219, 961.0912
496.0040, 959.6036
496.4861, 958.5571
496.9682, 959.7531
497.4503, 965.2384
497.9325, 970.2838
498.4146, 975.6425
498.8967, 979.2455
499.3788, 977.9033
499.8609, 971.4232
500.3430, 963.9931
500.8252, 960.3110
501.3073, 960.1587
501.7894, 958.8759
502.2715, 955.7258
502.7536, 952.9245
503.2357, 952.4283
503.7179, 952.5735
504.2000, 950.5704
504.6821, 944.7566
505.1642, 941.0811
505.6463, 945.7414
506.1284, 954.2366
506.6106, 957.9463
507.0927, 955.6161
507.5748, 952.1688
508.0569, 951.6039
508.5390, 953.5561
509.0211, 953.9712
509.5033, 948.7067
509.9854, 947.2983
510.4675, 955.7481
510.9496, 966.0500
511.4317, 967.8708
511.9138, 961.1146
512.3960, 957.2791
512.8781, 970.7352
513.3602, 997.8098
513.8423, 1008.041
514.3245, 995.2667
514.8066, 981.0057
515.2887, 971.3076
515.7708, 966.2728
516.2529, 967.9069
516.7350, 977.7560
517.2172, 985.7272
517.6993, 983.1595
518.1814, 977.2691
518.6635, 979.7368
519.1456, 990.8604
519.6277, 1001.763
520.1099, 1006.632
520.5920, 1006.579
521.0741, 1006.132
521.5562, 1007.236
522.0383, 1005.160
522.5204, 997.2186
523.0026, 987.9862
523.4847, 980.0570
523.9668, 974.0698
524.4489, 970.4548
524.9310, 971.0110
525.4131, 972.8453
525.8953, 965.8508
526.3774, 947.5757
526.8595, 933.6571
527.3416, 932.0794
527.8237, 934.2906
528.3058, 929.7316
528.7880, 918.2592
529.2701, 908.2716
529.7522, 902.6220
530.2343, 899.4496
530.7164, 899.0888
531.1985, 900.0154
531.6807, 896.9485
532.1628, 887.0658
532.6449, 873.9299
533.1270, 864.6913
533.6091, 860.5671
534.0912, 857.4392
534.5734, 857.0863
535.0555, 855.8770
535.5376, 853.7700
536.0197, 849.3160
536.5018, 839.2590
536.9839, 820.9536
537.4661, 800.3580
537.9482, 784.1935
538.4303, 772.4977
538.9124, 766.3746
539.3945, 767.3667
539.8766, 770.8530
540.3588, 774.5166
540.8409, 777.6898
541.3230, 775.0660
541.8051, 760.1685
542.2872, 746.3202
542.7693, 737.6325
543.2515, 734.0399
543.7336, 737.7950
544.2157, 748.4210
544.6978, 758.1736
545.1799, 757.8333
545.6620, 747.4360
546.1442, 739.7421
546.6263, 734.4656
547.1084, 732.4916
547.5905, 738.3022
548.0726, 744.9352
548.5547, 743.6494
549.0369, 732.6659
549.5190, 722.5704
550.0011, 720.9136
550.4832, 724.3307
550.9653, 728.0580
551.4474, 731.5618
551.9296, 732.5181
552.4117, 728.6354
552.8938, 722.5060
553.3759, 721.3531
553.8580, 729.0079
554.3401, 735.8118
554.8223, 745.6700
555.3044, 751.2454
555.7865, 746.3871
556.2686, 733.1178
556.7507, 716.3438
557.2328, 697.5632
557.7150, 681.0866
558.1971, 676.1919
558.6792, 683.4673
559.1613, 693.0975
559.6434, 705.9938
560.1255, 716.7026
560.6077, 719.4473
561.0898, 715.6143
561.5719, 710.1448
562.0540, 701.9113
562.5361, 694.2245
563.0182, 688.1470
563.5004, 684.0411
563.9825, 682.8173
564.4646, 684.5777
564.9467, 688.1967
565.4288, 692.6483
565.9109, 697.9246
566.3931, 703.1190
566.8752, 712.3798
567.3573, 714.7594
567.8394, 700.1191
568.3215, 682.4639
568.8036, 677.3736
569.2858, 686.7232
569.7679, 694.9783
570.2500, 689.3092
570.7321, 677.7399
571.2142, 673.2935
571.6964, 676.0225
572.1785, 680.1353
572.6606, 683.1761
573.1427, 685.3542
573.6248, 687.2100
574.1069, 689.3264
574.5891, 689.5859
575.0712, 684.4869
575.5533, 681.0735
576.0354, 685.8966
576.5175, 694.4857
576.9996, 697.6104
577.4818, 690.8945
577.9639, 680.9821
578.4460, 675.7762
578.9281, 675.1945
579.4102, 679.2497
579.8923, 689.6935
580.3745, 699.7753
580.8566, 704.7545
581.3387, 705.3879
581.8208, 705.4579
582.3029, 703.8330
582.7850, 703.3675
583.2672, 706.6886
583.7493, 710.4200
584.2314, 710.2841
584.7135, 706.6276
585.1956, 703.3755
585.6777, 703.3627
586.1598, 705.9122
586.6419, 708.8304
587.1240, 711.9919
587.6061, 715.9258
588.0883, 720.5976
588.5704, 726.2850
589.0525, 733.5781
589.5346, 742.1210
590.0167, 750.3245
590.4988, 757.8106
590.9810, 764.6642
591.4631, 769.3146
591.9452, 773.6676
592.4273, 782.9688
592.9094, 798.3704
593.3915, 813.6326
593.8737, 821.3318
594.3558, 821.5960
594.8379, 827.3377
595.3200, 844.1516
595.8021, 858.2176
596.2842, 861.4639
596.7664, 864.4675
597.2485, 878.8355
597.7306, 904.8443
598.2127, 929.3583
598.6948, 943.9314
599.1769, 952.8289
599.6591, 960.3374
600.1412, 967.1128
600.6233, 976.9904
601.1054, 991.7639
601.5875, 1008.896
602.0696, 1025.126
602.5518, 1041.064
603.0339, 1052.840
603.5160, 1054.239
603.9981, 1058.970
604.4802, 1076.762
604.9623, 1098.008
605.4445, 1110.154
605.9266, 1109.867
606.4087, 1104.832
606.8908, 1099.965
607.3729, 1095.931
607.8550, 1096.353
608.3372, 1101.729
608.8193, 1102.970
609.3014, 1094.467
609.7835, 1080.725
610.2656, 1071.100
610.7477, 1068.825
611.2299, 1061.891
611.7120, 1044.985
612.1941, 1028.268
612.6762, 1016.644
613.1583, 1009.393
613.6404, 1005.398
614.1226, 1004.250
614.6047, 1003.296
615.0868, 999.4953
615.5689, 992.9810
616.0510, 984.1526
616.5331, 972.3215
617.0153, 961.5152
617.4974, 955.3248
617.9795, 951.1169
618.4616, 942.3196
618.9437, 928.9432
619.4258, 911.5452
619.9080, 886.2144
620.3901, 860.2946
620.8722, 839.9883
621.3543, 823.8100
621.8364, 806.6403
622.3185, 785.8767
622.8007, 764.6746
623.2828, 748.2314
623.7649, 736.5840
624.2470, 725.0631
624.7291, 713.4921
625.2112, 701.4910
625.6934, 688.0737
626.1755, 674.2397
626.6576, 662.3483
627.1397, 651.9358
627.6218, 644.5487
628.1039, 642.6376
628.5861, 642.2958
629.0682, 640.2731
629.5503, 636.5961
630.0324, 632.7494
630.5145, 629.5842
630.9966, 626.2540
631.4788, 620.6358
631.9609, 612.4451
632.4430, 605.6788
632.9251, 599.5248
633.4072, 597.1718
633.8893, 603.9663
634.3715, 615.6224
634.8536, 622.2428
635.3357, 621.5501
635.8178, 619.2468
636.2999, 616.4616
636.7820, 613.4522
637.2642, 610.2219
637.7463, 606.9796
638.2284, 603.6881
638.7105, 600.0742
639.1926, 598.1121
639.6747, 603.6788
640.1569, 618.1993
640.6390, 626.3009
641.1211, 625.3851
641.6032, 619.8671
642.0853, 608.2396
642.5674, 594.7499
643.0496, 589.6774
643.5317, 598.7048
644.0138, 605.6320
644.4959, 600.7278
644.9780, 594.1893
645.4601, 598.9742
645.9423, 611.9280
646.4244, 618.4573
646.9065, 609.8494
647.3886, 594.4851
647.8707, 589.3391
648.3528, 595.6014
648.8350, 596.6713
649.3171, 587.3514
649.7992, 580.1197
650.2813, 585.7200
650.7634, 598.3077
651.2455, 604.8566
651.7277, 602.9553
652.2098, 599.1469
652.6919, 594.4686
653.1740, 589.3939
653.6561, 582.6221
654.1382, 575.8092
654.6204, 574.5265
655.1025, 581.9916
655.5846, 591.1920
656.0667, 587.8578
656.5488, 571.6226
657.0309, 565.9548
657.5131, 576.1876
657.9952, 587.5182
658.4773, 592.1725
658.9594, 591.8873
659.4415, 590.9634
659.9236, 588.9691
660.4058, 587.5427
660.8879, 588.2531
661.3700, 588.5649
661.8521, 586.3018
662.3342, 582.1653
662.8163, 577.8843
663.2985, 574.1776
663.7806, 570.8936
664.2627, 566.9025
664.7448, 562.6701
665.2269, 563.5706
665.7090, 571.0594
666.1912, 577.9402
666.6733, 580.3073
667.1554, 580.0807
667.6375, 581.6622
668.1196, 586.8552
668.6017, 587.4229
669.0839, 575.9281
669.5660, 566.5063
670.0481, 570.6286
670.5302, 580.6682
671.0123, 582.4629
671.4944, 572.0336
671.9766, 561.4449
672.4587, 565.7740
672.9408, 579.6729
673.4229, 583.8741
673.9050, 577.6733
674.3871, 573.9316
674.8693, 578.6540
675.3514, 586.8608
675.8335, 591.6122
676.3156, 592.8960
676.7977, 590.4947
677.2798, 578.8728
677.7620, 570.4550
678.2441, 572.8720
678.7262, 578.4478
679.2083, 578.5197
679.6904, 571.7726
680.1725, 562.8748
680.6547, 551.9998
681.1368, 542.8032
681.6189, 542.5830
682.1010, 549.9633
682.5831, 558.5747
683.0652, 566.9382
683.5474, 571.6234
684.0295, 567.5701
684.5116, 554.9083
684.9937, 550.4645
685.4758, 562.2399
685.9579, 570.3252
686.4401, 570.0425
686.9222, 566.5038
687.4043, 562.4461
687.8864, 558.5864
688.3685, 556.3198
688.8506, 557.2917
689.3328, 558.6972
689.8149, 557.5806
690.2970, 555.3306
690.7791, 555.2913
691.2612, 557.7178
691.7433, 559.2398
692.2255, 557.0496
692.7076, 552.3075
693.1897, 548.5847
693.6718, 544.8922
694.1539, 545.9653
694.6360, 557.1998
695.1182, 567.3997
695.6003, 567.7400
696.0824, 561.9855
696.5645, 558.5464
697.0466, 558.7493
697.5287, 561.1137
698.0109, 568.0419
698.4930, 574.6620
698.9751, 575.5358
699.4572, 571.6544
699.9393, 567.1945
700.4214, 564.1940
700.9036, 561.8470
701.3857, 558.2667
701.8678, 553.6993
702.3499, 552.7985
702.8320, 556.8414
703.3141, 560.0927
703.7963, 559.2649
704.2784, 556.3377
704.7605, 555.1043
705.2426, 555.9575
705.7247, 557.0394
706.2068, 558.0648
706.6890, 559.5451
707.1711, 563.2987
707.6532, 566.9002
708.1353, 566.8427
708.6174, 562.5129
709.0995, 556.7413
709.5817, 549.6442
710.0638, 543.5621
710.5459, 543.4783
711.0280, 548.6727
711.5101, 555.6967
711.9922, 563.8471
712.4744, 569.8962
712.9565, 569.7975
713.4386, 563.8661
713.9207, 559.8744
714.4028, 558.1677
714.8849, 557.9110
715.3671, 559.9395
715.8492, 562.4741
716.3313, 564.8458
716.8134, 566.7242
717.2955, 567.1343
717.7776, 564.4641
718.2598, 562.3171
718.7419, 561.8561
719.2240, 563.8515
719.7061, 572.5964
720.1882, 585.8986
720.6703, 592.5151
721.1525, 585.0041
721.6346, 570.3927
722.1167, 562.5120
722.5988, 561.5836
723.0809, 563.6806
723.5630, 570.4021
724.0452, 574.7426
724.5273, 571.5497
725.0094, 564.0461
725.4915, 559.4246
725.9736, 558.7153
726.4557, 557.1307
726.9379, 554.4110
727.4200, 550.5498
727.9021, 542.6327
728.3842, 534.8745
728.8663, 534.2875
729.3484, 542.1026
729.8306, 550.4564
730.3127, 552.8597
730.7948, 551.7807
731.2769, 551.4606
731.7590, 551.6392
732.2411, 550.6435
732.7233, 547.9290
733.2054, 544.5992
733.6875, 541.5540
734.1696, 538.9257
734.6517, 537.9629
735.1339, 537.9454
735.6160, 541.1395
736.0981, 554.4374
736.5802, 565.0977
737.0623, 562.3341
737.5444, 550.0096
738.0266, 540.6006
738.5087, 536.1006
738.9908, 535.9261
739.4729, 542.8720
739.9550, 551.8479
740.4371, 559.2160
740.9193, 563.7417
741.4014, 562.8126
741.8835, 554.9469
742.3656, 545.7722
742.8477, 544.8828
743.3298, 550.2827
743.8120, 547.4700
744.2941, 534.5005
744.7762, 527.6804
745.2583, 536.0970
745.7404, 550.6306
746.2225, 556.8019
746.7047, 552.3204
747.1868, 552.3787
747.6689, 561.8546
748.1510, 569.6591
748.6331, 572.9648
749.1152, 573.7910
749.5974, 573.7162
750.0795, 573.0184
750.5616, 571.8329
751.0437, 569.7619
751.5258, 567.7468
752.0079, 566.6500
752.4901, 566.0784
752.9722, 565.3891
753.4543, 564.5048
753.9364, 563.4822
754.4185, 562.2087
754.9006, 561.5170
755.3828, 564.3237
755.8649, 570.8705
756.3470, 573.1423
756.8291, 569.7827
757.3112, 563.8046
757.7933, 554.4377
758.2755, 545.3865
758.7576, 545.2514
759.2397, 558.1329
759.7218, 568.1208
760.2039, 574.3070
760.6860, 578.4219
761.1682, 579.9247
761.6503, 580.4304
762.1324, 582.7187
762.6145, 586.7517
763.0966, 588.0335
763.5787, 581.3912
764.0609, 572.9651
764.5430, 567.4993
765.0251, 565.5308
765.5072, 570.8050
765.9893, 582.6577
766.4714, 590.7985
766.9536, 586.2795
767.4357, 574.6508
767.9178, 572.8250
768.3999, 582.4550
768.8820, 584.6569
769.3641, 573.1047
769.8463, 564.8956
770.3284, 573.1354
770.8105, 590.5776
771.2926, 598.5360
771.7747, 592.1229
772.2568, 589.7965
772.7390, 596.1194
773.2211, 602.3629
773.7032, 603.1534
774.1853, 602.3911
774.6674, 606.3383
775.1495, 615.5761
775.6317, 623.1202
776.1138, 624.5647
776.5959, 622.4526
777.0780, 615.4568
777.5601, 607.8773
778.0422, 610.6210
778.5244, 624.7765
779.0065, 641.0398
779.4886, 652.9512
779.9707, 660.0345
780.4528, 659.8458
780.9349, 651.8527
781.4171, 644.4286
781.8992, 637.2522
782.3813, 634.9055
782.8634, 641.7082
783.3455, 654.1059
783.8276, 664.5174
784.3098, 675.1912
784.7919, 677.3342
785.2740, 661.3472
785.7561, 648.2832
786.2382, 646.8449
786.7203, 651.7635
787.2025, 657.5266
787.6846, 663.1152
788.1667, 668.3994
788.6488, 672.5210
789.1309, 677.0407
789.6130, 686.4045
790.0952, 695.6002
790.5773, 693.8074
791.0594, 681.8378
791.5415, 672.4304
792.0236, 674.0816
792.5057, 682.2022
792.9879, 689.6467
793.4700, 696.2536
793.9521, 699.5859
794.4342, 699.2000
794.9163, 697.3205
795.3984, 694.3506
795.8806, 692.0133
796.3627, 693.8614
796.8448, 701.2459
797.3269, 705.2850
797.8090, 701.1507
798.2911, 700.4783
798.7733, 701.9481
799.2554, 707.1280
799.7375, 718.3767
800.2196, 727.1793
800.7017, 733.6670
801.1838, 730.9063
801.6660, 740.0894
802.1481, 744.4846
802.6302, 748.6843
803.1123, 759.5466
803.5944, 758.1318
804.0765, 768.8877
804.5587, 774.7872
805.0408, 782.9081
805.5229, 786.2147
806.0050, 791.0085
806.4871, 800.6190
806.9692, 807.5617
807.4514, 810.3154
807.9335, 818.5778
808.4156, 816.9948
808.8977, 824.0518
809.3798, 834.8367
809.8619, 837.8303
810.3441, 846.1829
810.8262, 852.4932
811.3083, 849.5325
811.7904, 862.6962
812.2725, 867.7763
812.7546, 879.9073
813.2368, 890.7756
813.7189, 899.4473
814.2010, 908.6254
814.6831, 918.2420
815.1652, 928.7386
815.6473, 940.6630
816.1295, 953.4304
816.6116, 966.9385
817.0937, 981.0095
817.5758, 992.6151
818.0579, 996.9768
818.5400, 1000.992
819.0222, 1012.124
819.5043, 1026.792
819.9864, 1039.035
820.4685, 1047.691
820.9506, 1054.087
821.4327, 1058.411
821.9149, 1063.374
822.3970, 1076.031
822.8791, 1094.557
823.3612, 1105.199
823.8433, 1106.365
824.3254, 1109.016
824.8076, 1118.867
825.2897, 1132.592
825.7718, 1145.412
826.2539, 1157.821
826.7360, 1163.383
827.2181, 1158.240
827.7003, 1154.076
828.1824, 1152.500
828.6645, 1154.458
829.1466, 1163.080
829.6287, 1176.625
830.1108, 1186.136
830.5930, 1188.273
831.0751, 1190.105
831.5572, 1196.318
832.0393, 1199.349
832.5214, 1187.495
833.0035, 1170.683
833.4857, 1171.151
833.9678, 1195.529
834.4499, 1213.963
834.9320, 1198.446
835.4141, 1175.499
835.8962, 1173.671
836.3784, 1185.388
836.8605, 1194.204
837.3426, 1196.715
837.8247, 1198.938
838.3068, 1206.205
838.7889, 1213.903
839.2711, 1212.127
839.7532, 1202.272
840.2353, 1190.760
840.7174, 1178.175
841.1995, 1173.120
841.6816, 1181.123
842.1638, 1195.043
842.6459, 1202.665
843.1280, 1203.368
843.6101, 1205.764
844.0922, 1212.441
844.5743, 1214.056
845.0565, 1204.571
845.5386, 1193.082
846.0207, 1187.736
846.5028, 1188.043
846.9849, 1189.621
847.4670, 1194.194
847.9492, 1197.470
848.4313, 1199.773
848.9134, 1199.930
849.3955, 1194.447
849.8776, 1187.467
850.3597, 1186.342
850.8419, 1192.698
851.3240, 1199.082
851.8061, 1203.825
852.2882, 1205.475
852.7703, 1202.678
853.2524, 1196.212
853.7346, 1185.410
854.2167, 1171.722
854.6988, 1160.090
855.1809, 1153.123
855.6630, 1150.938
856.1451, 1158.373
856.6273, 1169.502
857.1094, 1168.258
857.5915, 1154.989
858.0736, 1139.698
858.5557, 1126.468
859.0378, 1116.667
859.5200, 1112.936
860.0021, 1114.050
860.4842, 1111.225
860.9663, 1103.784
861.4484, 1099.863
861.9305, 1102.650
862.4127, 1103.925
862.8948, 1097.081
863.3769, 1084.337
863.8590, 1072.580
864.3411, 1062.118
864.8232, 1051.637
865.3054, 1038.076
865.7875, 1028.833
866.2696, 1031.973
866.7517, 1037.446
867.2338, 1031.010
867.7159, 1013.053
868.1981, 1007.089
868.6802, 1033.308
869.1623, 1048.576
869.6444, 1030.863
870.1265, 1007.259
870.6086, 1000.428
871.0908, 1004.411
871.5729, 1001.819
872.0550, 987.1656
872.5371, 970.0541
873.0192, 949.4650
873.5013, 934.8900
873.9835, 941.2343
874.4656, 957.2252
874.9477, 961.5007
875.4298, 951.9064
875.9119, 944.2584
876.3940, 951.0152
876.8762, 960.2261
877.3583, 954.3956
877.8404, 938.3480
878.3225, 921.9429
878.8046, 907.0815
879.2867, 897.0619
879.7689, 893.4059
880.2510, 894.9075
880.7331, 901.9239
881.2152, 912.4518
881.6973, 914.4077
882.1794, 907.4285
882.6616, 903.2972
883.1437, 905.0081
883.6258, 907.4741
884.1079, 907.2629
884.5900, 904.5325
885.0721, 899.2899
885.5543, 890.3122
886.0364, 883.5021
886.5185, 879.5676
887.0006, 876.2483
887.4827, 872.8963
887.9648, 869.5432
888.4470, 865.3582
888.9291, 860.4164
889.4112, 859.8446
889.8933, 871.1849
890.3754, 875.6663
890.8575, 864.3825
891.3397, 853.1686
891.8218, 852.6373
892.3039, 857.8338
892.7860, 859.2742
893.2681, 855.1772
893.7502, 851.8225
894.2324, 852.7162
894.7145, 852.8119
895.1966, 849.1150
895.6787, 843.6303
896.1608, 836.9769
896.6429, 830.6320
897.1251, 828.8953
897.6072, 834.8558
898.0893, 841.0363
898.5714, 843.8417
899.0535, 842.6506
899.5356, 832.3884
900.0178, 818.7343
900.4999, 814.7282
900.9820, 822.7448
901.4641, 832.0122
901.9462, 834.4099
902.4283, 833.0084
902.9105, 832.9727
903.3926, 832.6129
903.8747, 826.0319
904.3568, 813.9072
904.8389, 803.2753
905.3210, 797.5325
905.8032, 796.2844
906.2853, 801.0338
906.7674, 809.6598
907.2495, 811.0786
907.7316, 805.8310
908.2137, 804.7917
908.6959, 810.8215
909.1780, 815.7517
909.6601, 813.5442
910.1422, 806.1242
910.6243, 797.3541
911.1064, 786.6303
911.5886, 779.8622
912.0707, 777.2224
912.5528, 778.7906
913.0349, 786.4143
913.5170, 794.3983
913.9991, 796.1146
914.4813, 792.4766
914.9634, 791.7480
915.4455, 797.7284
915.9276, 797.4849
916.4097, 783.8859
916.8918, 773.2268
917.3740, 776.1124
917.8561, 785.1786
918.3382, 790.0654
918.8203, 791.0365
919.3024, 785.6146
919.7845, 764.9346
920.2667, 750.1556
920.7488, 745.7617
921.2309, 747.9268
921.7130, 758.0688
922.1951, 771.8563
922.6772, 779.7227
923.1594, 778.9454
923.6415, 778.4849
924.1236, 782.9312
924.6057, 785.4633
925.0878, 781.5273
925.5699, 774.8400
926.0521, 768.4855
926.5342, 763.2964
927.0163, 759.9122
927.4984, 758.1520
927.9805, 759.4597
928.4626, 768.3094
928.9448, 777.0817
929.4269, 777.6945
929.9090, 774.2231
930.3911, 773.5032
930.8732, 777.0881
931.3553, 783.6028
931.8375, 793.9282
932.3196, 804.0629
932.8017, 811.3141
933.2838, 815.5722
933.7659, 814.2685
934.2480, 810.0367
934.7302, 811.0732
935.2123, 819.8140
935.6944, 827.4868
936.1765, 822.4576
936.6586, 815.0907
937.1407, 825.2927
937.6229, 845.2399
938.1050, 854.1068
938.5871, 851.3171
939.0692, 850.9497
939.5513, 860.2106
940.0334, 875.0754
940.5156, 892.2833
940.9977, 910.4402
941.4798, 924.8853
941.9619, 936.2540
942.4440, 947.1368
942.9261, 958.2941
943.4083, 971.7487
943.8904, 989.1330
944.3725, 1007.956
944.8546, 1021.133
945.3367, 1030.121
945.8188, 1049.894
946.3010, 1080.804
946.7831, 1110.922
947.2652, 1136.019
947.7473, 1165.096
948.2294, 1207.470
948.7115, 1257.636
949.1937, 1295.597
949.6758, 1319.592
950.1579, 1360.183
950.6400, 1421.381
951.1221, 1485.807
951.6042, 1547.579
952.0864, 1606.964
952.5685, 1662.578
953.0506, 1716.509
953.5327, 1786.315
954.0148, 1875.868
954.4969, 1966.620
954.9791, 2056.984
955.4612, 2148.416
955.9433, 2240.316
956.4254, 2336.789
956.9075, 2444.978
957.3896, 2565.486
957.8718, 2676.994
958.3539, 2769.675
958.8360, 2878.828
959.3181, 3021.802
959.8002, 3160.143
960.2823, 3265.818
960.7645, 3356.000
961.2466, 3464.453
961.7287, 3594.432
962.2108, 3721.870
962.6929, 3861.194
963.1750, 3973.574
963.6572, 4042.932
964.1393, 4093.554
964.6214, 4144.734
965.1035, 4188.806
965.5856, 4201.860
966.0677, 4167.216
966.5499, 4155.772
967.0320, 4205.762
967.5141, 4228.124
967.9962, 4193.729
968.4783, 4131.527
968.9604, 4059.228
969.4426, 3978.100
969.9247, 3890.693
970.4068, 3797.891
970.8889, 3695.948
971.3710, 3580.576
971.8531, 3460.950
972.3353, 3336.731
972.8174, 3212.215
973.2995, 3091.645
973.7816, 2975.158
974.2637, 2863.125
974.7458, 2758.268
975.2280, 2653.067
975.7101, 2544.436
976.1922, 2438.190
976.6743, 2339.463
977.1564, 2243.556
977.6385, 2143.933
978.1207, 2041.131
978.6028, 1942.168
979.0849, 1848.951
979.5670, 1759.020
980.0491, 1663.898
980.5313, 1579.987
981.0134, 1526.889
981.4955, 1484.253
981.9776, 1421.704
982.4597, 1339.915
982.9418, 1273.184
983.4240, 1241.034
983.9061, 1208.331
984.3882, 1160.425
984.8703, 1111.504
985.3524, 1066.268
985.8345, 1029.115
986.3167, 1010.975
986.7988, 1010.242
987.2809, 999.7089
987.7630, 959.3177
988.2451, 922.9687
988.7272, 903.9937
989.2094, 893.6337
989.6915, 889.5745
990.1736, 887.4147
990.6557, 881.6389
991.1378, 871.2799
991.6199, 857.8414
992.1021, 837.8589
992.5842, 820.1743
993.0663, 807.5648
993.5484, 799.7689
994.0305, 799.2251
994.5126, 802.2770
994.9948, 803.2959
995.4769, 801.1385
995.9590, 797.2704
996.4411, 789.5735
996.9232, 783.8481
997.4053, 784.7072
997.8875, 787.1369
998.3696, 787.9887
998.8517, 786.5670
999.3338, 780.7696
999.8159, 770.5483
1000.298, 764.6581
1000.780, 770.1252
1001.262, 776.8391
1001.744, 781.8761
1002.227, 783.8804
1002.709, 779.3572
1003.191, 771.6791
1003.673, 766.8458
1004.155, 766.2198
1004.637, 768.5933
1005.119, 777.8624
1005.601, 784.3832
1006.083, 779.5645
1006.566, 773.0693
1007.048, 774.6448
1007.530, 781.1836
1008.012, 785.2778
1008.494, 785.3129
1008.976, 784.0211
1009.458, 783.5698
1009.940, 780.8332
1010.422, 769.5362
1010.905, 759.4556
1011.387, 761.1290
1011.869, 770.2614
1012.351, 777.9932
1012.833, 782.3989
1013.315, 783.7913
1013.797, 774.7980
1014.279, 772.4380
1014.762, 793.0161
1015.244, 815.8665
1015.726, 823.2189
1016.208, 819.5684
1016.690, 815.9517
1017.172, 814.5222
1017.654, 812.0991
1018.136, 802.4018
1018.618, 798.2508
1019.101, 813.5195
1019.583, 828.3037
1020.065, 823.3339
1020.547, 807.5489
1021.029, 798.4924
1021.511, 799.1619
1021.993, 801.9390
1022.475, 810.1700
1022.958, 812.3984
1023.440, 797.3525
1023.922, 782.0507
1024.404, 778.2109
1024.886, 782.9477
1025.368, 792.5868
1025.850, 806.3917
1026.332, 813.7129
1026.814, 807.9384
1027.297, 801.0754
1027.779, 795.5805
1028.261, 790.7108
1028.743, 783.6120
1029.225, 777.9679
1029.707, 781.6650
1030.189, 795.0612
1030.671, 802.2473
1031.154, 798.0421
1031.636, 791.2391
1032.118, 781.4191
1032.600, 771.6306
1033.082, 760.3542
1033.564, 752.0062
1034.046, 754.7588
1034.528, 768.4743
1035.010, 777.6088
1035.493, 777.8400
1035.975, 778.0800
1036.457, 778.9456
1036.939, 780.1991
1037.421, 781.7286
1037.903, 783.5999
1038.385, 787.0623
1038.867, 791.6999
1039.349, 791.6004
1039.832, 783.0927
1040.314, 776.1898
1040.796, 770.5221
1041.278, 767.4908
1041.760, 770.7477
1042.242, 773.7070
1042.724, 767.7604
1043.206, 754.9134
1043.689, 747.6126
1044.171, 744.3478
1044.653, 751.6270
1045.135, 780.1669
1045.617, 796.5622
1046.099, 783.0059
1046.581, 764.0727
1047.063, 764.1475
1047.546, 777.6746
1048.028, 781.6281
1048.510, 770.9484
1048.992, 771.7748
1049.474, 788.5230
1049.956, 802.1670
1050.438, 806.9334
1050.920, 807.5583
1051.402, 806.7419
1051.885, 806.4144
1052.367, 813.2523
1052.849, 828.5490
1053.331, 833.9496
1053.813, 828.1179
1054.295, 823.2172
1054.777, 822.6184
1055.259, 820.0643
1055.741, 811.2112
1056.224, 797.8131
1056.706, 782.5123
1057.188, 765.5585
1057.670, 748.8609
1058.152, 732.7110
1058.634, 727.4147
1059.116, 734.7873
1059.598, 739.0421
1060.081, 730.7999
1060.563, 720.9728
1061.045, 727.1764
1061.527, 742.9608
1062.009, 745.7833
1062.491, 737.7930
1062.973, 726.7759
1063.455, 715.0768
1063.938, 711.2351
1064.420, 718.8121
1064.902, 726.1099
1065.384, 718.8879
1065.866, 706.0204
1066.348, 703.8646
1066.830, 708.7332
1067.312, 712.3781
1067.794, 714.6600
1068.276, 720.0613
1068.759, 729.1870
1069.241, 733.5933
1069.723, 725.0931
1070.205, 712.6974
1070.687, 701.6728
1071.169, 696.5605
1071.651, 710.9064
1072.133, 733.7505
1072.616, 740.8320
1073.098, 729.2625
1073.580, 716.1508
1074.062, 708.4249
1074.544, 706.6440
1075.026, 718.0341
1075.508, 728.6745
1075.990, 724.9620
1076.473, 713.8592
1076.955, 702.2793
1077.437, 693.4003
1077.919, 694.1504
1078.401, 710.0064
1078.883, 721.9878
1079.365, 717.3887
1079.847, 713.8399
1080.329, 725.2636
1080.812, 737.5251
1081.294, 732.8199
1081.776, 718.7916
1082.258, 719.1371
1082.740, 741.1549
1083.222, 751.5826
1083.704, 736.1076
1084.186, 722.6363
1084.668, 716.4278
1085.151, 715.0211
1085.633, 722.6526
1086.115, 730.8455
1086.597, 723.8039
1087.079, 700.8202
1087.561, 688.1339
1088.043, 688.4141
1088.525, 693.5927
1089.007, 707.3643
1089.490, 716.3657
1089.972, 713.2509
1090.454, 705.5634
1090.936, 701.3075
1091.418, 700.2138
1091.900, 702.1262
1092.382, 708.2422
1092.864, 705.7900
1093.347, 692.4618
1093.829, 686.5261
1094.311, 694.5493
1094.793, 704.5955
1095.275, 707.2986
1095.757, 704.7465
1096.239, 699.5240
1096.721, 692.6769
1097.203, 691.9844
1097.686, 696.4699
1098.168, 698.4949
1098.650, 696.7899
1099.132, 694.6019
1099.614, 693.6633
1100.096, 694.1182
1100.578, 697.4318
1101.060, 701.3028
1101.542, 701.9795
1102.025, 699.7308
1102.507, 693.5870
1102.989, 685.1371
1103.471, 679.6606
1103.953, 678.6084
1104.435, 676.7222
1104.917, 668.9550
1105.399, 661.2267
1105.882, 656.9037
1106.364, 656.6400
1106.846, 665.7470
1107.328, 677.0234
1107.810, 677.2830
1108.292, 666.6449
1108.774, 658.7249
1109.256, 659.5521
1109.739, 660.1012
1110.221, 657.7757
1110.703, 653.5074
1111.185, 642.8239
1111.667, 634.5363
1112.149, 641.1456
1112.631, 656.8624
1113.113, 663.1803
1113.595, 656.5729
1114.078, 649.0922
1114.560, 636.5281
1115.042, 630.8536
1115.524, 638.0936
1116.006, 646.4333
1116.488, 650.3824
1116.970, 650.2974
1117.452, 645.8575
1117.934, 637.5461
1118.417, 632.4253
1118.899, 631.1213
1119.381, 629.3553
1119.863, 626.7526
1120.345, 623.7204
1120.827, 620.2348
1121.309, 617.6243
1121.791, 617.0840
1122.274, 618.3590
1122.756, 622.5093
1123.238, 628.0365
1123.720, 626.2203
1124.202, 618.2564
1124.684, 610.9749
1125.166, 606.1817
1125.648, 605.4454
1126.130, 609.7697
1126.613, 614.6516
1127.095, 615.6975
1127.577, 614.0031
1128.059, 609.1177
1128.541, 603.7495
1129.023, 602.7591
1129.505, 605.0889
1129.987, 606.7839
1130.469, 606.8674
1130.952, 607.4800
1131.434, 611.9163
1131.916, 613.4432
1132.398, 605.8431
1132.880, 597.0551
1133.362, 592.6910
1133.844, 590.3487
1134.326, 584.9500
1134.809, 577.9985
1135.291, 578.5245
1135.773, 592.5042
1136.255, 600.4066
1136.737, 595.8294
1137.219, 592.1877
1137.701, 595.6788
1138.183, 595.4725
1138.666, 581.3619
1139.148, 562.7115
1139.630, 556.0933
1140.112, 561.0500
1140.594, 568.0534
1141.076, 578.6294
1141.558, 578.5792
1142.040, 565.2314
1142.522, 553.6818
1143.005, 549.5134
1143.487, 550.6118
1143.969, 555.9912
1144.451, 562.0873
1144.933, 559.3719
1145.415, 551.6648
1145.897, 552.9456
1146.379, 560.6953
1146.861, 565.8536
1147.344, 566.1812
1147.826, 559.6823
1148.308, 545.1512
1148.790, 533.5214
1149.272, 537.8696
1149.754, 545.3858
1150.236, 542.9491
1150.718, 537.9877
1151.201, 541.0009
1151.683, 547.4326
1152.165, 546.6434
1152.647, 537.5569
1153.129, 529.1381
1153.611, 524.2717
1154.093, 519.9818
1154.575, 513.2674
1155.057, 509.8891
1155.540, 515.6537
1156.022, 522.7527
1156.504, 523.5566
1156.986, 520.8768
1157.468, 522.4025
1157.950, 529.1475
1158.432, 530.7064
1158.914, 525.5318
1159.396, 521.1974
1159.879, 518.7933
1160.361, 517.3369
1160.843, 516.3225
1161.325, 516.6367
1161.807, 519.9543
1162.289, 523.9551
1162.771, 522.7404
1163.253, 516.7882
1163.736, 504.4683
1164.218, 489.0893
1164.700, 485.3975
1165.182, 494.6570
1165.664, 505.0316
1166.146, 510.5802
1166.628, 511.0603
1167.110, 501.5414
1167.593, 491.9719
1168.075, 491.8863
1168.557, 496.7997
1169.039, 505.0258
1169.521, 512.4479
1170.003, 511.8508
1170.485, 502.5927
1170.967, 492.2693
1171.449, 479.7466
1171.932, 471.7393
1172.414, 470.3663
1172.896, 472.5230
1173.378, 481.5438
1173.860, 488.3791
1174.342, 483.8595
1174.824, 473.6741
1175.306, 471.5054
1175.788, 477.8110
1176.271, 477.2234
1176.753, 468.3494
1177.235, 466.4369
1177.717, 473.9821
1178.199, 478.0002
1178.681, 472.9334
1179.163, 468.3656
1179.645, 474.3042
1180.128, 483.1747
1180.610, 479.0462
1181.092, 468.8646
1181.574, 468.7793
1182.056, 474.8221
1182.538, 476.2047
1183.020, 472.3380
1183.502, 468.6001
1183.984, 466.9552
1184.467, 467.0211
1184.949, 468.9545
1185.431, 472.0414
1185.913, 476.2643
1186.395, 481.1244
1186.877, 490.4626
1187.359, 497.5224
1187.841, 490.1390
1188.323, 470.5915
1188.806, 458.1346
1189.288, 453.6707
1189.770, 455.0714
1190.252, 465.4020
1190.734, 473.4638
1191.216, 477.1792
1191.698, 477.1941
1192.180, 473.4337
1192.663, 468.0126
1193.145, 463.8231
1193.627, 460.3748
1194.109, 454.6087
1194.591, 448.2326
1195.073, 450.4983
1195.555, 459.2662
1196.037, 462.8531
1196.520, 459.6333
1197.002, 459.0071
1197.484, 466.5429
1197.966, 473.0720
1198.448, 467.4106
1198.930, 461.9740
1199.412, 470.0139
1199.894, 480.0297
1200.376, 479.4433
1200.859, 472.7558
1201.341, 469.8784
1201.823, 471.5163
1202.305, 470.9623
1202.787, 464.3217
1203.269, 461.4662
1203.751, 464.4846
1204.233, 467.1486
1204.715, 467.8580
1205.198, 468.0580
1205.680, 469.1282
1206.162, 468.9161
1206.644, 462.4513
1207.126, 452.6578
1207.608, 455.6443
1208.090, 468.3221
1208.572, 472.3793
1209.055, 468.2821
1209.537, 467.4239
1210.019, 472.0954
1210.501, 474.7581
1210.983, 470.9741
1211.465, 464.2324
1211.947, 455.2142
1212.429, 447.0700
1212.911, 441.4707
1213.394, 438.8978
1213.876, 440.4723
1214.358, 445.0960
1214.840, 452.4300
1215.322, 461.9031
1215.804, 465.4883
1216.286, 456.7655
1216.768, 453.4729
1217.250, 458.2352
1217.733, 462.7913
1218.215, 465.6845
1218.697, 465.7804
1219.179, 461.7300
1219.661, 456.6111
1220.143, 455.1407
1220.625, 456.3803
1221.107, 457.9312
1221.590, 459.0858
1222.072, 455.6059
1222.554, 449.1432
1223.036, 446.4888
1223.518, 448.8690
1224.000, 453.1691
1224.482, 458.2373
1224.964, 461.8546
1225.447, 462.7261
1225.929, 461.3985
1226.411, 452.3662
1226.893, 447.1501
1227.375, 461.6293
1227.857, 482.6223
1228.339, 488.6097
1228.821, 480.3346
1229.303, 471.8056
1229.786, 462.4987
1230.268, 454.7025
1230.750, 448.2155
1231.232, 443.9747
1231.714, 442.0750
1232.196, 443.8358
1232.678, 450.2696
1233.160, 457.2109
1233.642, 460.1575
1234.125, 459.9866
1234.607, 458.1640
1235.089, 454.5796
1235.571, 447.0638
1236.053, 438.4920
1236.535, 434.6281
1237.017, 435.5857
1237.499, 438.7123
1237.982, 443.4264
1238.464, 446.4126
1238.946, 444.0352
1239.428, 443.3168
1239.910, 449.2047
1240.392, 453.5540
1240.874, 453.9677
1241.356, 449.0903
1241.839, 433.6481
1242.321, 416.0474
1242.803, 420.4081
1243.285, 445.7083
1243.767, 458.3663
1244.249, 459.0567
1244.731, 457.0904
1245.213, 453.7029
1245.695, 446.8787
1246.177, 436.5858
1246.660, 429.3003
1247.142, 430.1006
1247.624, 432.6542
1248.106, 431.0259
1248.588, 428.7005
1249.070, 427.6503
1249.552, 428.4207
1250.034, 431.9924
1250.517, 437.4749
1250.999, 445.1405
1251.481, 454.4314
1251.963, 454.3558
1252.445, 438.7943
1252.927, 429.7520
1253.409, 428.4164
1253.891, 430.3136
1254.374, 435.0204
1254.856, 438.6067
1255.338, 438.8442
1255.820, 437.0581
1256.302, 434.5181
1256.784, 431.5729
1257.266, 428.4883
1257.748, 425.6840
1258.230, 423.3965
1258.713, 422.2104
1259.195, 423.9252
1259.677, 427.6730
1260.159, 430.3080
1260.641, 430.9968
1261.123, 430.1061
1261.605, 423.8969
1262.087, 422.2348
1262.569, 431.2917
1263.052, 438.4457
1263.534, 438.2415
1264.016, 437.0782
1264.498, 440.4333
1264.980, 445.6203
1265.462, 447.7704
1265.944, 447.0251
1266.426, 442.6112
##END=



