##NAMES=Mawbyite
##RRUFFID=R080011
##IDEAL CHEMISTRY=Pb^2+^Fe^3+^_2_(As^5+^O_4_)_2_(OH)_2_
##LOCALITY=Tsumeb, Namibia
##OWNER=RRUFF
##SOURCE=William W. Pinch
##DESCRIPTION=Reddish brown wedge-shaped crystals, many V-twinned, associated with quartz and scorodite
##STATUS=The identification of this mineral has been confirmed by single-crystal X-ray diffraction.
##URL=rruff.info/R080011
93.40625, 127.9290
93.88837, 122.8711
94.37048, 126.9875
94.85260, 138.1049
95.33472, 149.9736
95.81683, 161.1738
96.29895, 172.3768
96.78107, 185.0814
97.26318, 199.3604
97.74530, 214.9654
98.22742, 231.5710
98.70953, 249.2390
99.19165, 267.8695
99.67377, 287.9727
100.1559, 309.1453
100.6380, 328.1332
101.1201, 344.1907
101.6022, 359.2087
102.0844, 375.8243
102.5665, 394.9184
103.0486, 412.9466
103.5307, 427.9705
104.0128, 439.1255
104.4949, 451.9505
104.9771, 467.3053
105.4592, 484.0409
105.9413, 499.7779
106.4234, 512.7689
106.9055, 526.9349
107.3876, 543.8574
107.8698, 565.3400
108.3519, 587.0802
108.8340, 608.2502
109.3161, 629.5307
109.7982, 653.4142
110.2803, 683.6387
110.7624, 714.2433
111.2446, 742.0674
111.7267, 763.4208
112.2088, 786.3140
112.6909, 812.7094
113.1730, 842.6136
113.6551, 870.9709
114.1373, 897.8501
114.6194, 922.4269
115.1015, 944.3372
115.5836, 962.3659
116.0657, 978.5360
116.5478, 992.7532
117.0300, 1005.096
117.5121, 1017.389
117.9942, 1030.110
118.4763, 1043.214
118.9584, 1056.584
119.4405, 1070.533
119.9227, 1084.712
120.4048, 1098.169
120.8869, 1110.240
121.3690, 1124.436
121.8511, 1144.603
122.3332, 1168.554
122.8154, 1191.680
123.2975, 1211.323
123.7796, 1228.996
124.2617, 1245.805
124.7438, 1260.354
125.2259, 1276.925
125.7081, 1300.320
126.1902, 1328.937
126.6723, 1352.542
127.1544, 1371.890
127.6365, 1390.967
128.1186, 1408.111
128.6008, 1422.359
129.0829, 1435.129
129.5650, 1448.589
130.0471, 1462.670
130.5292, 1475.925
131.0113, 1486.208
131.4935, 1494.347
131.9756, 1503.935
132.4577, 1516.352
132.9398, 1530.632
133.4219, 1543.510
133.9040, 1554.872
134.3862, 1566.205
134.8683, 1579.663
135.3504, 1595.230
135.8325, 1608.969
136.3146, 1618.431
136.7967, 1624.282
137.2789, 1634.225
137.7610, 1649.240
138.2431, 1666.098
138.7252, 1680.797
139.2073, 1693.150
139.6894, 1704.563
140.1716, 1715.035
140.6537, 1724.219
141.1358, 1736.163
141.6179, 1752.218
142.1000, 1769.971
142.5821, 1784.313
143.0643, 1793.869
143.5464, 1803.294
144.0285, 1814.860
144.5106, 1829.890
144.9927, 1843.537
145.4748, 1855.943
145.9570, 1866.886
146.4391, 1875.005
146.9212, 1879.273
147.4033, 1882.096
147.8854, 1884.585
148.3675, 1886.684
148.8497, 1888.492
149.3318, 1890.234
149.8139, 1891.732
150.2960, 1892.112
150.7781, 1891.349
151.2602, 1889.456
151.7424, 1886.309
152.2245, 1881.773
152.7066, 1876.575
153.1887, 1869.954
153.6708, 1862.228
154.1529, 1856.736
154.6351, 1855.751
155.1172, 1855.783
155.5993, 1854.495
156.0814, 1853.165
156.5635, 1848.934
157.0456, 1839.907
157.5278, 1826.184
158.0099, 1813.651
158.4920, 1803.928
158.9741, 1795.608
159.4562, 1787.401
159.9383, 1781.005
160.4205, 1772.913
160.9026, 1761.359
161.3847, 1746.110
161.8668, 1730.737
162.3489, 1714.901
162.8310, 1700.068
163.3132, 1687.942
163.7953, 1682.114
164.2774, 1676.767
164.7595, 1668.155
165.2416, 1655.284
165.7237, 1643.940
166.2059, 1637.639
166.6880, 1634.442
167.1701, 1631.407
167.6522, 1626.507
168.1343, 1621.778
168.6164, 1618.678
169.0986, 1617.466
169.5807, 1617.341
170.0628, 1619.496
170.5449, 1622.374
171.0270, 1622.885
171.5091, 1615.746
171.9913, 1607.376
172.4734, 1604.629
172.9555, 1609.640
173.4376, 1616.270
173.9197, 1619.479
174.4018, 1620.152
174.8840, 1620.628
175.3661, 1622.789
175.8482, 1625.343
176.3303, 1626.075
176.8124, 1623.686
177.2945, 1621.744
177.7767, 1625.196
178.2588, 1632.894
178.7409, 1639.968
179.2230, 1641.976
179.7051, 1641.481
180.1872, 1643.736
180.6694, 1650.915
181.1515, 1658.819
181.6336, 1660.597
182.1157, 1657.037
182.5978, 1653.740
183.0799, 1655.481
183.5621, 1660.547
184.0442, 1664.030
184.5263, 1664.336
185.0084, 1663.553
185.4905, 1665.307
185.9726, 1669.529
186.4547, 1674.588
186.9369, 1679.423
187.4190, 1684.124
187.9011, 1688.832
188.3832, 1693.707
188.8653, 1698.594
189.3474, 1702.999
189.8296, 1706.950
190.3117, 1711.122
190.7938, 1716.050
191.2759, 1721.716
191.7580, 1728.101
192.2401, 1735.981
192.7223, 1744.230
193.2044, 1748.853
193.6865, 1749.445
194.1686, 1749.869
194.6507, 1753.996
195.1328, 1761.624
195.6150, 1769.262
196.0971, 1776.910
196.5792, 1783.701
197.0613, 1785.447
197.5434, 1781.404
198.0255, 1775.786
198.5077, 1772.935
198.9898, 1772.958
199.4719, 1772.312
199.9540, 1769.920
200.4361, 1766.174
200.9182, 1763.385
201.4004, 1761.980
201.8825, 1760.324
202.3646, 1756.447
202.8467, 1750.113
203.3288, 1743.971
203.8109, 1738.608
204.2931, 1733.995
204.7752, 1730.079
205.2573, 1727.244
205.7394, 1724.207
206.2215, 1719.536
206.7036, 1713.069
207.1858, 1706.077
207.6679, 1698.907
208.1500, 1691.524
208.6321, 1683.100
209.1142, 1673.043
209.5963, 1663.051
210.0785, 1655.093
210.5606, 1649.703
211.0427, 1644.601
211.5248, 1639.523
212.0069, 1634.449
212.4890, 1627.824
212.9712, 1619.013
213.4533, 1609.621
213.9354, 1601.233
214.4175, 1593.432
214.8996, 1587.812
215.3817, 1585.516
215.8639, 1586.572
216.3460, 1585.131
216.8281, 1580.178
217.3102, 1574.036
217.7923, 1569.267
218.2744, 1566.056
218.7566, 1563.612
219.2387, 1561.867
219.7208, 1560.800
220.2029, 1560.233
220.6850, 1560.628
221.1671, 1560.965
221.6493, 1559.895
222.1314, 1556.466
222.6135, 1553.795
223.0956, 1552.743
223.5777, 1553.356
224.0598, 1553.935
224.5420, 1553.783
225.0241, 1554.373
225.5062, 1557.814
225.9883, 1566.346
226.4704, 1572.857
226.9525, 1574.991
227.4347, 1572.516
227.9168, 1572.120
228.3989, 1574.712
228.8810, 1578.404
229.3631, 1581.185
229.8452, 1582.609
230.3274, 1584.022
230.8095, 1585.322
231.2916, 1586.435
231.7737, 1589.758
232.2558, 1596.710
232.7379, 1604.405
233.2201, 1609.848
233.7022, 1612.272
234.1843, 1613.875
234.6664, 1614.462
235.1485, 1613.985
235.6306, 1616.014
236.1128, 1622.963
236.5949, 1629.971
237.0770, 1631.925
237.5591, 1624.989
238.0412, 1620.510
238.5233, 1621.428
239.0055, 1627.751
239.4876, 1631.969
239.9697, 1633.406
240.4518, 1633.537
240.9339, 1633.600
241.4160, 1633.674
241.8982, 1633.531
242.3803, 1633.048
242.8624, 1632.238
243.3445, 1631.503
243.8266, 1630.250
244.3087, 1629.715
244.7909, 1631.504
245.2730, 1638.705
245.7551, 1641.845
246.2372, 1638.264
246.7193, 1628.547
247.2014, 1620.825
247.6836, 1615.584
248.1657, 1611.793
248.6478, 1609.056
249.1299, 1608.539
249.6120, 1606.421
250.0941, 1601.697
250.5762, 1594.761
251.0584, 1588.826
251.5405, 1584.618
252.0226, 1580.543
252.5047, 1575.777
252.9868, 1570.836
253.4689, 1563.843
253.9511, 1553.478
254.4332, 1540.675
254.9153, 1531.266
255.3974, 1527.143
255.8795, 1523.557
256.3617, 1517.465
256.8438, 1507.652
257.3259, 1498.474
257.8080, 1490.342
258.2901, 1483.110
258.7722, 1476.135
259.2544, 1470.090
259.7365, 1463.070
260.2186, 1453.564
260.7007, 1440.659
261.1828, 1428.214
261.6649, 1416.509
262.1471, 1405.359
262.6292, 1393.677
263.1113, 1380.898
263.5934, 1368.830
264.0755, 1358.826
264.5576, 1351.800
265.0398, 1343.078
265.5219, 1331.843
266.0040, 1319.274
266.4861, 1308.044
266.9682, 1299.098
267.4503, 1289.376
267.9325, 1277.068
268.4146, 1260.823
268.8967, 1247.894
269.3788, 1239.522
269.8609, 1233.250
270.3430, 1224.282
270.8252, 1211.658
271.3073, 1199.615
271.7894, 1190.727
272.2715, 1185.501
272.7536, 1177.324
273.2357, 1164.986
273.7179, 1151.551
274.2000, 1142.025
274.6821, 1137.428
275.1642, 1132.315
275.6463, 1124.255
276.1284, 1113.232
276.6106, 1104.308
277.0927, 1097.927
277.5748, 1092.678
278.0569, 1086.538
278.5390, 1079.293
279.0211, 1073.205
279.5032, 1069.444
279.9854, 1067.721
280.4675, 1065.326
280.9496, 1062.416
281.4317, 1058.350
281.9138, 1051.834
282.3959, 1042.757
282.8781, 1034.333
283.3602, 1027.395
283.8423, 1021.722
284.3244, 1016.833
284.8065, 1012.861
285.2886, 1008.682
285.7708, 1003.163
286.2529, 996.3553
286.7350, 989.2358
287.2171, 981.5682
287.6992, 973.9777
288.1813, 968.3959
288.6635, 964.8265
289.1456, 962.4260
289.6277, 960.9402
290.1098, 960.2136
290.5919, 959.4707
291.0740, 958.9380
291.5562, 957.7767
292.0383, 953.8224
292.5204, 947.1670
293.0025, 940.4893
293.4846, 935.6816
293.9667, 932.2673
294.4489, 928.7479
294.9310, 925.2026
295.4131, 920.9849
295.8952, 913.9418
296.3773, 904.7331
296.8594, 897.3442
297.3416, 895.4168
297.8237, 896.7437
298.3058, 896.2896
298.7879, 893.5568
299.2700, 889.7817
299.7521, 885.8569
300.2343, 881.9745
300.7164, 878.9554
301.1985, 877.7923
301.6806, 877.4876
302.1627, 876.6577
302.6448, 875.2549
303.1270, 873.1566
303.6091, 868.7399
304.0912, 863.5690
304.5733, 860.6984
305.0554, 863.9417
305.5375, 868.7524
306.0197, 869.6029
306.5018, 866.6918
306.9839, 863.5759
307.4660, 863.0420
307.9481, 863.9399
308.4302, 864.6185
308.9124, 864.0930
309.3945, 863.6389
309.8766, 865.0747
310.3587, 867.8988
310.8408, 869.3743
311.3229, 866.1371
311.8051, 861.4884
312.2872, 858.9739
312.7693, 860.3874
313.2514, 862.4137
313.7335, 863.3156
314.2156, 863.3156
314.6978, 863.0836
315.1799, 861.8022
315.6620, 861.1027
316.1441, 862.4348
316.6262, 866.7892
317.1083, 871.0862
317.5905, 873.9917
318.0726, 875.9437
318.5547, 877.7495
319.0368, 879.5062
319.5189, 881.3038
320.0010, 882.9167
320.4832, 884.0891
320.9653, 886.3666
321.4474, 891.6128
321.9295, 897.7274
322.4116, 902.2548
322.8937, 902.0406
323.3759, 902.7164
323.8580, 906.3834
324.3401, 913.2440
324.8222, 919.7537
325.3043, 925.3659
325.7864, 930.4630
326.2686, 935.3389
326.7507, 939.3447
327.2328, 943.8798
327.7149, 949.1624
328.1970, 955.1256
328.6791, 961.5671
329.1613, 968.5412
329.6434, 975.8628
330.1255, 983.4227
330.6076, 991.1224
331.0897, 999.1807
331.5718, 1007.481
332.0540, 1016.146
332.5361, 1025.631
333.0182, 1036.497
333.5003, 1047.600
333.9824, 1058.631
334.4645, 1070.282
334.9467, 1079.843
335.4288, 1086.246
335.9109, 1091.267
336.3930, 1097.617
336.8751, 1105.650
337.3572, 1114.314
337.8394, 1123.380
338.3215, 1132.758
338.8036, 1142.784
339.2857, 1153.431
339.7678, 1164.812
340.2499, 1178.001
340.7321, 1193.423
341.2142, 1206.631
341.6963, 1215.866
342.1784, 1222.093
342.6605, 1229.583
343.1426, 1238.374
343.6248, 1247.928
344.1069, 1258.485
344.5890, 1269.795
345.0711, 1278.821
345.5532, 1284.179
346.0353, 1288.190
346.5175, 1296.392
346.9996, 1308.775
347.4817, 1320.188
347.9638, 1327.271
348.4459, 1330.814
348.9280, 1333.667
349.4102, 1336.090
349.8923, 1337.629
350.3744, 1336.984
350.8565, 1334.714
351.3386, 1332.961
351.8207, 1333.677
352.3029, 1335.260
352.7850, 1335.998
353.2671, 1335.908
353.7492, 1332.570
354.2313, 1321.139
354.7134, 1305.440
355.1956, 1292.093
355.6777, 1285.125
356.1598, 1279.879
356.6419, 1271.904
357.1240, 1261.624
357.6061, 1251.274
358.0883, 1243.101
358.5704, 1235.095
359.0525, 1225.059
359.5346, 1211.232
360.0167, 1197.852
360.4988, 1188.356
360.9810, 1181.201
361.4631, 1173.099
361.9452, 1161.409
362.4273, 1149.320
362.9094, 1138.450
363.3915, 1128.973
363.8737, 1120.670
364.3558, 1114.490
364.8379, 1109.161
365.3200, 1103.239
365.8021, 1095.413
366.2842, 1087.895
366.7664, 1081.411
367.2485, 1075.965
367.7306, 1070.891
368.2127, 1066.285
368.6948, 1061.962
369.1769, 1057.762
369.6591, 1054.359
370.1412, 1050.239
370.6233, 1044.366
371.1054, 1037.560
371.5875, 1033.013
372.0696, 1032.262
372.5518, 1031.955
373.0339, 1030.637
373.5160, 1027.730
373.9981, 1025.432
374.4802, 1023.777
374.9623, 1022.670
375.4445, 1022.038
375.9266, 1021.998
376.4087, 1022.140
376.8908, 1022.784
377.3729, 1023.853
377.8550, 1022.094
378.3372, 1016.484
378.8193, 1010.806
379.3014, 1009.024
379.7835, 1011.266
380.2656, 1014.472
380.7477, 1018.679
381.2299, 1022.914
381.7120, 1024.546
382.1941, 1023.522
382.6762, 1021.592
383.1583, 1019.774
383.6404, 1017.978
384.1226, 1015.543
384.6047, 1012.014
385.0868, 1009.262
385.5689, 1011.122
386.0510, 1016.217
386.5331, 1019.403
387.0153, 1016.937
387.4974, 1011.702
387.9795, 1007.586
388.4616, 1004.658
388.9437, 1002.367
389.4258, 1000.550
389.9080, 999.0435
390.3901, 997.6341
390.8722, 996.2249
391.3543, 994.9463
391.8364, 994.0327
392.3185, 993.3856
392.8007, 992.6001
393.2828, 992.2162
393.7649, 991.1404
394.2470, 988.2609
394.7291, 982.4886
395.2112, 977.4313
395.6934, 974.0516
396.1755, 972.2142
396.6576, 971.7251
397.1397, 974.8890
397.6218, 977.1449
398.1039, 976.4291
398.5861, 972.3249
399.0682, 969.3363
399.5503, 968.4672
400.0324, 968.5397
400.5145, 968.7444
400.9966, 970.4248
401.4788, 970.3224
401.9609, 967.2291
402.4430, 962.1071
402.9251, 958.7502
403.4072, 958.0412
403.8893, 957.7635
404.3714, 956.8001
404.8535, 954.7006
405.3357, 953.8832
405.8178, 954.8026
406.2999, 956.3945
406.7820, 957.1005
407.2641, 956.7719
407.7462, 956.3734
408.2284, 956.0796
408.7105, 955.9491
409.1926, 956.8387
409.6747, 959.0566
410.1568, 960.0626
410.6389, 956.0172
411.1211, 948.1848
411.6032, 943.9806
412.0853, 945.5067
412.5674, 949.3979
413.0495, 950.7950
413.5316, 950.0597
414.0138, 949.0005
414.4959, 947.7638
414.9780, 947.1279
415.4601, 948.9299
415.9422, 953.4469
416.4243, 957.5712
416.9065, 958.0358
417.3886, 956.6445
417.8707, 956.0785
418.3528, 958.0721
418.8349, 960.4022
419.3170, 961.4484
419.7992, 961.5300
420.2813, 962.1044
420.7634, 964.6229
421.2455, 967.3185
421.7276, 969.0093
422.2097, 969.3027
422.6919, 969.1221
423.1740, 968.3750
423.6561, 967.3696
424.1382, 966.5596
424.6203, 965.5739
425.1024, 965.2599
425.5846, 965.9603
426.0667, 967.7170
426.5488, 969.7148
427.0309, 973.1139
427.5130, 975.7531
427.9951, 975.8817
428.4773, 971.6838
428.9594, 968.9767
429.4415, 968.4938
429.9236, 969.5885
430.4057, 970.3203
430.8878, 970.0192
431.3700, 971.5065
431.8521, 977.1501
432.3342, 986.9573
432.8163, 992.9990
433.2984, 994.8045
433.7805, 994.5299
434.2627, 993.4230
434.7448, 991.7817
435.2269, 992.9009
435.7090, 998.7748
436.1911, 1006.728
436.6732, 1010.951
437.1554, 1011.883
437.6375, 1012.943
438.1196, 1016.666
438.6017, 1021.912
439.0838, 1027.052
439.5659, 1032.014
440.0481, 1036.247
440.5302, 1038.433
441.0123, 1039.741
441.4944, 1042.131
441.9765, 1046.316
442.4586, 1051.912
442.9408, 1059.707
443.4229, 1069.250
443.9050, 1077.509
444.3871, 1081.665
444.8692, 1085.068
445.3513, 1089.923
445.8335, 1097.303
446.3156, 1104.898
446.7977, 1112.731
447.2798, 1120.412
447.7619, 1127.196
448.2440, 1131.038
448.7262, 1136.119
449.2083, 1143.907
449.6904, 1154.655
450.1725, 1163.507
450.6546, 1169.189
451.1367, 1174.443
451.6189, 1181.487
452.1010, 1191.109
452.5831, 1199.881
453.0652, 1207.166
453.5473, 1213.925
454.0294, 1222.948
454.5116, 1234.631
454.9937, 1245.669
455.4758, 1254.320
455.9579, 1261.014
456.4400, 1268.339
456.9221, 1276.377
457.4043, 1284.748
457.8864, 1293.973
458.3685, 1303.334
458.8506, 1310.681
459.3327, 1314.254
459.8148, 1317.516
460.2970, 1325.613
460.7791, 1337.153
461.2612, 1347.293
461.7433, 1351.876
462.2254, 1354.833
462.7076, 1359.535
463.1897, 1366.459
463.6718, 1373.673
464.1539, 1380.395
464.6360, 1386.794
465.1181, 1392.920
465.6003, 1399.326
466.0824, 1404.907
466.5645, 1408.649
467.0466, 1411.138
467.5287, 1414.609
468.0108, 1421.354
468.4930, 1427.224
468.9751, 1430.118
469.4572, 1428.312
469.9393, 1430.025
470.4214, 1437.298
470.9035, 1446.191
471.3857, 1452.174
471.8678, 1454.023
472.3499, 1456.905
472.8320, 1462.155
473.3141, 1468.927
473.7962, 1473.863
474.2784, 1476.576
474.7605, 1480.348
475.2426, 1488.619
475.7247, 1500.255
476.2068, 1507.431
476.6889, 1509.414
477.1711, 1510.243
477.6532, 1514.689
478.1353, 1521.611
478.6174, 1527.679
479.0995, 1530.453
479.5816, 1533.460
480.0638, 1541.419
480.5459, 1553.215
481.0280, 1564.638
481.5101, 1572.609
481.9922, 1579.694
482.4743, 1587.970
482.9565, 1597.956
483.4386, 1607.705
483.9207, 1616.497
484.4028, 1624.533
484.8849, 1632.018
485.3670, 1639.542
485.8492, 1645.828
486.3313, 1648.680
486.8134, 1649.465
487.2955, 1655.227
487.7776, 1671.449
488.2597, 1685.915
488.7419, 1692.648
489.2240, 1688.853
489.7061, 1691.286
490.1882, 1702.672
490.6703, 1716.298
491.1524, 1724.783
491.6346, 1727.647
492.1167, 1729.032
492.5988, 1729.392
493.0809, 1729.107
493.5630, 1729.526
494.0451, 1730.575
494.5273, 1730.570
495.0094, 1727.743
495.4915, 1723.228
495.9736, 1719.964
496.4557, 1718.193
496.9378, 1715.772
497.4200, 1711.353
497.9021, 1704.955
498.3842, 1696.652
498.8663, 1686.008
499.3484, 1674.015
499.8305, 1660.245
500.3127, 1645.554
500.7948, 1632.144
501.2769, 1624.366
501.7590, 1614.869
502.2411, 1599.247
502.7232, 1576.004
503.2054, 1554.395
503.6875, 1537.344
504.1696, 1521.452
504.6517, 1504.543
505.1338, 1486.273
505.6159, 1467.538
506.0981, 1448.038
506.5802, 1428.345
507.0623, 1409.911
507.5444, 1392.711
508.0265, 1376.129
508.5086, 1359.997
508.9908, 1344.214
509.4729, 1327.443
509.9550, 1309.484
510.4371, 1292.564
510.9192, 1279.844
511.4013, 1270.136
511.8835, 1258.961
512.3655, 1245.229
512.8477, 1231.047
513.3298, 1219.077
513.8119, 1208.595
514.2940, 1197.861
514.7761, 1184.776
515.2582, 1172.170
515.7404, 1162.195
516.2225, 1154.661
516.7046, 1147.976
517.1867, 1142.109
517.6688, 1136.375
518.1509, 1130.317
518.6331, 1123.736
519.1152, 1117.092
519.5973, 1110.506
520.0794, 1103.872
520.5615, 1097.092
521.0436, 1089.005
521.5258, 1082.517
522.0079, 1078.635
522.4900, 1076.738
522.9721, 1073.826
523.4542, 1069.838
523.9363, 1065.177
524.4185, 1059.142
524.9006, 1051.752
525.3827, 1048.715
525.8648, 1050.789
526.3469, 1053.377
526.8290, 1051.086
527.3112, 1044.971
527.7933, 1038.915
528.2754, 1033.570
528.7575, 1029.120
529.2396, 1026.440
529.7217, 1024.876
530.2039, 1022.562
530.6860, 1017.947
531.1681, 1012.634
531.6502, 1007.366
532.1323, 1002.178
532.6144, 997.7632
533.0966, 994.2769
533.5787, 991.6595
534.0608, 989.9030
534.5429, 989.9955
535.0250, 989.3403
535.5071, 987.3451
535.9893, 984.6376
536.4714, 982.1357
536.9535, 979.9337
537.4356, 977.8387
537.9177, 976.1815
538.3998, 974.6650
538.8820, 971.4434
539.3641, 966.4287
539.8462, 960.3783
540.3283, 953.3822
540.8104, 945.6629
541.2925, 938.4408
541.7747, 931.7686
542.2568, 925.8391
542.7389, 921.0170
543.2210, 917.0947
543.7031, 913.6413
544.1852, 910.7752
544.6674, 907.9608
545.1495, 905.0463
545.6316, 901.8542
546.1137, 897.9351
546.5958, 893.6543
547.0779, 888.1173
547.5601, 880.1075
548.0422, 869.5070
548.5243, 860.1322
549.0064, 852.4487
549.4885, 846.4976
549.9706, 842.4091
550.4528, 841.4891
550.9349, 839.9324
551.4170, 837.7722
551.8991, 834.9032
552.3812, 831.2367
552.8633, 826.8629
553.3455, 821.1294
553.8276, 813.2304
554.3097, 804.2224
554.7918, 797.7825
555.2739, 794.0160
555.7560, 790.5337
556.2382, 785.7691
556.7203, 780.3074
557.2024, 775.4219
557.6845, 771.1819
558.1666, 767.2363
558.6487, 763.5392
559.1309, 759.9078
559.6130, 756.2418
560.0951, 752.7612
560.5772, 748.7018
561.0593, 742.7115
561.5414, 736.0182
562.0236, 730.8768
562.5057, 729.7677
562.9878, 728.1840
563.4699, 724.0202
563.9520, 717.7013
564.4341, 713.9263
564.9163, 714.8910
565.3984, 715.2815
565.8805, 711.8119
566.3626, 703.2918
566.8447, 698.6854
567.3268, 699.0807
567.8090, 700.1774
568.2911, 696.3120
568.7732, 688.1283
569.2553, 681.7830
569.7374, 678.7477
570.2195, 677.5151
570.7017, 676.4101
571.1838, 675.3235
571.6659, 673.9352
572.1480, 672.3986
572.6301, 670.2480
573.1122, 666.2117
573.5944, 660.6437
574.0765, 656.8027
574.5586, 658.6305
575.0407, 660.7777
575.5228, 659.7267
576.0049, 653.6288
576.4871, 648.3880
576.9692, 644.7616
577.4513, 641.9852
577.9334, 639.2434
578.4155, 636.1924
578.8976, 634.2359
579.3798, 634.0610
579.8619, 634.6708
580.3440, 633.7073
580.8261, 631.1282
581.3082, 627.6090
581.7903, 622.4279
582.2725, 616.8129
582.7546, 615.2527
583.2367, 617.4376
583.7188, 619.3931
584.2009, 617.2424
584.6830, 613.5100
585.1652, 611.7763
585.6473, 612.8055
586.1294, 613.6702
586.6115, 612.8151
587.0936, 610.8197
587.5757, 608.2984
588.0579, 605.1509
588.5400, 601.7786
589.0221, 597.4659
589.5042, 593.0406
589.9863, 590.4539
590.4684, 590.9705
590.9506, 591.3170
591.4327, 590.6362
591.9148, 589.0416
592.3969, 587.5613
592.8790, 586.2657
593.3611, 584.8058
593.8433, 582.8868
594.3254, 580.6127
594.8075, 578.1953
595.2896, 575.5983
595.7717, 573.3773
596.2538, 572.4194
596.7360, 572.1624
597.2181, 571.5671
597.7002, 570.2753
598.1823, 568.8446
598.6644, 567.8376
599.1465, 566.9186
599.6287, 565.5026
600.1108, 563.0565
600.5929, 560.4597
601.0750, 557.6733
601.5571, 554.8374
602.0392, 552.9031
602.5214, 552.7758
603.0035, 552.2892
603.4856, 550.3500
603.9677, 546.7665
604.4498, 544.2351
604.9319, 542.9066
605.4141, 542.0741
605.8962, 541.5380
606.3783, 541.1074
606.8604, 539.1920
607.3425, 535.2123
607.8246, 531.2515
608.3068, 530.8205
608.7889, 532.2506
609.2710, 531.8712
609.7531, 526.6325
610.2352, 521.2135
610.7173, 518.4689
611.1995, 517.9412
611.6816, 518.3240
612.1637, 520.8950
612.6458, 522.6833
613.1279, 522.0582
613.6100, 518.8839
614.0922, 516.9576
614.5743, 517.1301
615.0564, 517.4117
615.5385, 516.7716
616.0206, 515.1327
616.5027, 512.7067
616.9849, 509.1218
617.4670, 505.8826
617.9491, 505.5657
618.4312, 507.4494
618.9133, 507.6286
619.3954, 504.9019
619.8776, 501.3177
620.3597, 499.0341
620.8418, 497.7676
621.3239, 496.9196
621.8060, 496.6148
622.2881, 496.2678
622.7703, 495.4359
623.2524, 494.2422
623.7345, 493.2101
624.2166, 492.1705
624.6987, 491.6069
625.1808, 492.0487
625.6630, 493.6406
626.1451, 493.9103
626.6272, 492.3305
627.1093, 490.2707
627.5914, 488.5586
628.0735, 487.1887
628.5557, 486.3924
629.0378, 486.3661
629.5199, 486.2350
630.0020, 484.4853
630.4841, 481.7300
630.9662, 479.9357
631.4484, 479.8035
631.9305, 480.3769
632.4126, 481.2920
632.8947, 482.1924
633.3768, 482.3693
633.8589, 480.7762
634.3411, 479.1713
634.8232, 478.5688
635.3053, 478.7288
635.7874, 478.0951
636.2695, 474.9643
636.7516, 472.7712
637.2338, 473.1262
637.7159, 476.2042
638.1980, 477.6280
638.6801, 477.1021
639.1622, 475.7527
639.6443, 473.9833
640.1265, 471.9528
640.6086, 471.1849
641.0907, 471.9374
641.5728, 473.0768
642.0549, 473.7384
642.5370, 473.8734
643.0192, 473.3632
643.5013, 471.9948
643.9834, 470.3465
644.4655, 468.5196
644.9476, 466.7248
645.4297, 465.2419
645.9119, 464.3117
646.3940, 463.5616
646.8761, 462.8934
647.3582, 462.3380
647.8403, 462.0554
648.3224, 462.0742
648.8046, 462.3536
649.2867, 463.1923
649.7688, 464.4055
650.2509, 463.6841
650.7330, 460.7939
651.2151, 458.3769
651.6973, 459.2934
652.1794, 462.0191
652.6615, 462.6790
653.1436, 460.9194
653.6257, 458.8156
654.1078, 457.6053
654.5900, 457.1212
655.0721, 457.3120
655.5542, 458.7642
656.0363, 459.6231
656.5184, 458.7363
657.0005, 457.1556
657.4827, 456.2382
657.9648, 456.1741
658.4469, 456.6365
658.9290, 458.1880
659.4111, 459.9012
659.8932, 458.9393
660.3754, 454.8522
660.8575, 451.9194
661.3396, 452.1947
661.8217, 454.3715
662.3038, 455.3600
662.7859, 455.2751
663.2681, 454.9294
663.7502, 454.5028
664.2323, 454.2682
664.7144, 455.0825
665.1965, 456.8770
665.6786, 457.1314
666.1608, 452.5306
666.6429, 447.7061
667.1250, 445.8162
667.6071, 448.7465
668.0892, 450.2556
668.5714, 449.4891
669.0535, 448.2645
669.5356, 448.2914
670.0177, 449.7955
670.4998, 450.9583
670.9819, 451.5154
671.4641, 451.9503
671.9462, 453.3911
672.4283, 455.3956
672.9104, 456.2297
673.3925, 454.8663
673.8746, 452.9730
674.3568, 451.9649
674.8389, 451.7181
675.3210, 451.9898
675.8031, 452.8069
676.2852, 453.9872
676.7673, 455.8726
677.2495, 458.2276
677.7316, 459.6141
678.2137, 459.4961
678.6958, 459.1227
679.1779, 458.8665
679.6600, 458.7221
680.1422, 458.6819
680.6243, 458.7836
681.1064, 458.7790
681.5885, 458.1699
682.0706, 457.3181
682.5527, 457.5176
683.0349, 458.8625
683.5170, 460.5048
683.9991, 462.3284
684.4812, 463.8358
684.9633, 464.2435
685.4454, 462.8239
685.9276, 462.1887
686.4097, 464.0762
686.8918, 466.8006
687.3739, 468.5018
687.8560, 468.3074
688.3381, 468.4810
688.8203, 469.0702
689.3024, 470.1370
689.7845, 472.0357
690.2666, 474.8767
690.7487, 477.1075
691.2308, 478.1933
691.7130, 478.6370
692.1951, 479.3140
692.6772, 480.1321
693.1593, 480.7862
693.6414, 480.5748
694.1235, 480.5929
694.6057, 481.9953
695.0878, 484.4456
695.5699, 486.5498
696.0520, 487.0229
696.5341, 487.8982
697.0162, 490.4903
697.4984, 494.7538
697.9805, 497.1999
698.4626, 496.8544
698.9447, 496.7173
699.4268, 498.9045
699.9089, 503.2513
700.3911, 505.8987
700.8732, 506.7219
701.3553, 507.4485
701.8374, 509.9892
702.3195, 513.3503
702.8016, 515.4823
703.2838, 515.8710
703.7659, 516.8828
704.2480, 520.8083
704.7301, 525.6125
705.2122, 529.2845
705.6943, 529.9604
706.1765, 532.0153
706.6586, 536.8613
707.1407, 542.4557
707.6228, 546.3979
708.1049, 548.3292
708.5870, 550.0131
709.0692, 551.5544
709.5513, 553.1870
710.0334, 555.2302
710.5155, 557.7073
710.9976, 560.6763
711.4797, 564.1245
711.9618, 568.0957
712.4439, 572.8396
712.9260, 578.1171
713.4081, 583.4615
713.8903, 589.8171
714.3724, 595.0461
714.8545, 597.4438
715.3366, 597.6843
715.8187, 600.0500
716.3008, 605.6432
716.7830, 611.5568
717.2651, 616.9344
717.7472, 621.8473
718.2293, 626.5916
718.7114, 631.1566
719.1935, 635.7648
719.6757, 640.8076
720.1578, 645.9324
720.6399, 650.1898
721.1220, 653.6179
721.6041, 657.9211
722.0862, 665.2122
722.5684, 672.9513
723.0505, 679.1937
723.5326, 683.3058
724.0147, 687.5966
724.4968, 692.6002
724.9789, 697.6393
725.4611, 702.2476
725.9432, 706.1243
726.4253, 710.8039
726.9074, 716.5583
727.3895, 722.5762
727.8716, 728.2354
728.3538, 733.5077
728.8359, 737.9252
729.3180, 741.3184
729.8001, 744.4279
730.2822, 747.5237
730.7643, 750.9584
731.2465, 755.2218
731.7286, 761.2916
732.2107, 766.8889
732.6928, 771.5448
733.1749, 775.2719
733.6570, 778.0109
734.1392, 779.0538
734.6213, 780.4798
735.1034, 782.2990
735.5855, 784.9042
736.0676, 789.6282
736.5497, 796.3001
737.0319, 802.5126
737.5140, 807.7770
737.9961, 811.6342
738.4782, 812.7950
738.9603, 812.0116
739.4424, 811.2086
739.9246, 810.7653
740.4067, 811.0037
740.8888, 813.0659
741.3709, 816.2165
741.8530, 817.0250
742.3351, 814.1097
742.8173, 810.7149
743.2994, 807.0758
743.7815, 803.6670
744.2636, 803.7643
744.7457, 807.6346
745.2278, 811.2797
745.7100, 812.1445
746.1921, 811.3204
746.6742, 810.4540
747.1563, 809.6281
747.6384, 809.4233
748.1205, 811.2938
748.6027, 813.0052
749.0848, 812.7892
749.5669, 810.4697
750.0490, 808.4539
750.5311, 807.8609
751.0132, 806.6758
751.4954, 803.3315
751.9775, 797.4455
752.4596, 795.5659
752.9417, 798.4938
753.4238, 801.3823
753.9059, 799.6102
754.3881, 795.0053
754.8702, 792.3179
755.3523, 791.9460
755.8344, 791.9993
756.3165, 791.6122
756.7986, 790.7198
757.2808, 789.0750
757.7629, 786.2521
758.2450, 784.1335
758.7271, 783.1764
759.2092, 782.8868
759.6913, 782.9505
760.1735, 783.3453
760.6556, 784.2263
761.1377, 785.6650
761.6198, 787.3406
762.1019, 789.1688
762.5840, 790.9535
763.0662, 791.8556
763.5483, 791.5640
764.0304, 791.2769
764.5125, 791.3793
764.9946, 792.3170
765.4767, 794.7670
765.9589, 800.4985
766.4410, 804.9084
766.9231, 806.3766
767.4052, 806.6987
767.8873, 807.7159
768.3694, 809.6359
768.8516, 811.2664
769.3337, 812.2030
769.8158, 813.4659
770.2979, 816.9785
770.7800, 822.1672
771.2621, 826.9609
771.7443, 830.7648
772.2264, 834.1499
772.7085, 837.3698
773.1906, 840.5543
773.6727, 843.8972
774.1548, 847.8003
774.6370, 851.4420
775.1191, 854.3879
775.6012, 857.1635
776.0833, 860.4127
776.5654, 864.0114
777.0475, 868.7897
777.5297, 875.0386
778.0118, 882.3633
778.4939, 890.3939
778.9760, 898.9476
779.4581, 907.4871
779.9402, 916.4450
780.4224, 924.2360
780.9045, 928.7025
781.3866, 931.1219
781.8687, 933.8669
782.3508, 936.8177
782.8329, 941.1245
783.3151, 947.4371
783.7972, 954.9340
784.2793, 961.9540
784.7614, 968.3654
785.2435, 974.6475
785.7256, 980.8439
786.2078, 987.1315
786.6899, 994.9144
787.1720, 1003.344
787.6541, 1008.854
788.1362, 1006.988
788.6183, 1004.689
789.1005, 1006.895
789.5826, 1012.281
790.0647, 1017.451
790.5468, 1021.342
791.0289, 1025.512
791.5110, 1030.612
791.9932, 1036.054
792.4753, 1039.437
792.9574, 1040.491
793.4395, 1042.185
793.9216, 1046.133
794.4037, 1050.750
794.8859, 1052.561
795.3680, 1052.380
795.8501, 1052.733
796.3322, 1056.111
796.8143, 1059.127
797.2964, 1059.574
797.7786, 1058.059
798.2607, 1056.743
798.7428, 1055.144
799.2249, 1054.966
799.7070, 1057.329
800.1891, 1061.123
800.6713, 1062.437
801.1534, 1061.242
801.6355, 1059.778
802.1176, 1059.142
802.5997, 1058.640
803.0818, 1057.310
803.5640, 1055.257
804.0461, 1052.782
804.5282, 1048.243
805.0103, 1045.141
805.4924, 1046.404
805.9745, 1050.686
806.4567, 1051.582
806.9388, 1046.944
807.4209, 1043.577
807.9030, 1043.846
808.3851, 1046.359
808.8672, 1046.752
809.3494, 1045.259
809.8315, 1044.112
810.3136, 1045.392
810.7957, 1046.585
811.2778, 1043.956
811.7599, 1039.046
812.2421, 1036.191
812.7242, 1037.875
813.2063, 1040.822
813.6884, 1044.434
814.1705, 1048.531
814.6526, 1052.738
815.1348, 1057.387
815.6169, 1060.860
816.0990, 1062.274
816.5811, 1062.686
817.0632, 1064.076
817.5453, 1066.471
818.0275, 1069.925
818.5096, 1075.271
818.9917, 1080.903
819.4738, 1085.435
819.9559, 1089.439
820.4380, 1094.341
820.9202, 1100.146
821.4023, 1107.438
821.8844, 1116.473
822.3665, 1126.847
822.8486, 1138.076
823.3307, 1150.159
823.8129, 1159.764
824.2950, 1164.338
824.7771, 1167.994
825.2592, 1177.133
825.7413, 1190.188
826.2234, 1203.804
826.7056, 1216.539
827.1877, 1229.585
827.6698, 1243.709
828.1519, 1258.459
828.6340, 1272.989
829.1161, 1286.354
829.5983, 1301.558
830.0804, 1319.352
830.5625, 1338.897
831.0446, 1358.991
831.5267, 1379.528
832.0089, 1401.065
832.4910, 1424.144
832.9731, 1447.279
833.4552, 1468.678
833.9373, 1489.359
834.4194, 1510.869
834.9016, 1532.615
835.3837, 1557.088
835.8658, 1585.917
836.3479, 1616.562
836.8300, 1644.135
837.3121, 1667.752
837.7943, 1695.104
838.2764, 1728.735
838.7585, 1763.578
839.2406, 1792.763
839.7227, 1818.129
840.2048, 1843.271
840.6870, 1869.578
841.1691, 1895.680
841.6512, 1920.026
842.1333, 1944.517
842.6154, 1971.833
843.0975, 2005.094
843.5797, 2034.290
844.0618, 2058.513
844.5439, 2079.628
845.0260, 2099.120
845.5081, 2117.208
845.9902, 2134.972
846.4724, 2152.869
846.9545, 2168.560
847.4366, 2180.958
847.9187, 2189.618
848.4008, 2193.714
848.8829, 2192.277
849.3651, 2188.781
849.8472, 2184.633
850.3293, 2177.830
850.8114, 2165.814
851.2935, 2147.779
851.7756, 2134.001
852.2578, 2125.656
852.7399, 2115.601
853.2220, 2096.208
853.7041, 2071.166
854.1862, 2045.773
854.6683, 2020.820
855.1505, 1995.708
855.6326, 1971.077
856.1147, 1945.358
856.5968, 1917.393
857.0789, 1886.939
857.5610, 1855.332
858.0432, 1822.182
858.5253, 1789.864
859.0074, 1760.607
859.4895, 1733.496
859.9716, 1704.734
860.4537, 1674.243
860.9359, 1644.138
861.4180, 1614.032
861.9001, 1585.900
862.3822, 1561.950
862.8643, 1542.143
863.3464, 1519.804
863.8286, 1492.982
864.3107, 1466.859
864.7928, 1443.923
865.2749, 1423.159
865.7570, 1400.429
866.2391, 1375.734
866.7213, 1352.294
867.2034, 1332.256
867.6855, 1313.576
868.1676, 1293.981
868.6497, 1273.554
869.1318, 1253.145
869.6140, 1231.012
870.0961, 1211.088
870.5782, 1195.110
871.0603, 1181.489
871.5424, 1166.506
872.0245, 1150.135
872.5067, 1132.663
872.9888, 1113.954
873.4709, 1094.222
873.9530, 1071.893
874.4351, 1048.834
874.9172, 1029.657
875.3994, 1018.193
875.8815, 1006.791
876.3636, 993.5785
876.8457, 978.2748
877.3278, 960.2684
877.8099, 937.7882
878.2921, 918.3298
878.7742, 902.9554
879.2563, 889.9276
879.7384, 877.6041
880.2205, 865.6167
880.7026, 852.6237
881.1848, 838.0900
881.6669, 824.2733
882.1490, 813.2748
882.6311, 803.3179
883.1132, 792.6069
883.5953, 780.4056
884.0775, 769.1883
884.5596, 759.5314
885.0417, 749.6957
885.5238, 737.9313
886.0059, 724.7046
886.4880, 713.1981
886.9702, 703.5801
887.4523, 695.0016
887.9344, 688.5502
888.4165, 681.6193
888.8986, 671.3407
889.3807, 657.5873
889.8629, 645.3756
890.3450, 636.1151
890.8271, 627.5361
891.3092, 618.9076
891.7913, 610.3480
892.2734, 602.8893
892.7556, 596.5323
893.2377, 589.9587
893.7198, 582.0048
894.2019, 573.8992
894.6840, 566.4670
895.1661, 559.7281
895.6483, 553.8729
896.1304, 550.1817
896.6125, 545.6984
897.0946, 539.1257
897.5767, 531.7316
898.0588, 526.7476
898.5410, 524.2273
899.0231, 520.9347
899.5052, 516.0273
899.9873, 510.2054
900.4694, 503.6315
900.9515, 496.8784
901.4337, 490.8353
901.9158, 485.7125
902.3979, 481.4150
902.8800, 478.7361
903.3621, 476.3839
903.8442, 473.3100
904.3264, 469.5167
904.8085, 464.8509
905.2906, 459.0629
905.7727, 453.4128
906.2548, 449.1581
906.7369, 445.7329
907.2191, 442.2748
907.7012, 438.6952
908.1833, 435.4307
908.6654, 432.4168
909.1475, 430.1024
909.6296, 429.1290
910.1118, 429.4521
910.5939, 427.7952
911.0760, 423.8354
911.5581, 419.6258
912.0402, 415.8201
912.5223, 412.7697
913.0045, 411.8561
913.4866, 412.4857
913.9687, 412.5257
914.4508, 411.1685
914.9329, 408.7839
915.4150, 404.5694
915.8972, 399.5518
916.3793, 396.2687
916.8614, 395.0046
917.3435, 394.6511
917.8256, 395.4620
918.3077, 396.0446
918.7899, 393.2757
919.2720, 388.5842
919.7541, 385.5135
920.2362, 385.8792
920.7183, 386.0871
921.2004, 383.8339
921.6826, 380.9533
922.1647, 379.3830
922.6468, 379.8080
923.1289, 379.4727
923.6110, 378.1987
924.0931, 376.7077
924.5753, 376.1121
925.0574, 375.7355
925.5395, 373.6501
926.0216, 369.7635
926.5037, 366.4944
926.9858, 365.5253
927.4680, 365.2359
927.9501, 364.6973
928.4322, 363.9122
928.9143, 363.5781
929.3964, 363.9744
929.8785, 363.7257
930.3607, 361.9611
930.8428, 359.3605
931.3249, 357.0399
931.8070, 355.1692
932.2891, 354.3106
932.7712, 357.2601
933.2534, 358.4361
933.7355, 353.3647
934.2176, 345.5528
934.6997, 342.0688
935.1818, 344.3829
935.6639, 345.8560
936.1461, 345.5079
936.6282, 344.4796
937.1103, 344.4229
937.5924, 344.8135
938.0745, 344.2625
938.5566, 342.1820
939.0388, 340.8911
939.5209, 343.3838
940.0030, 345.6506
940.4851, 344.2524
940.9672, 338.4665
941.4493, 335.1099
941.9315, 334.5274
942.4136, 334.8183
942.8957, 335.2568
943.3778, 335.4297
943.8599, 334.2429
944.3420, 331.9433
944.8242, 329.7964
945.3063, 328.0628
945.7884, 327.0067
946.2705, 327.4585
946.7526, 328.5767
947.2347, 327.7431
947.7169, 324.4944
948.1990, 322.5222
948.6811, 323.1259
949.1632, 324.6104
949.6453, 324.6354
950.1274, 323.7272
950.6096, 322.7844
951.0917, 321.7509
951.5738, 321.3534
952.0559, 322.9615
952.5380, 324.4017
953.0201, 323.6524
953.5023, 320.2430
953.9844, 318.3805
954.4665, 318.2538
954.9486, 318.5390
955.4307, 318.2790
955.9128, 317.7202
956.3950, 317.3314
956.8771, 317.0712
957.3591, 316.1813
957.8412, 313.2432
958.3234, 311.0151
958.8055, 310.4896
959.2876, 311.2525
959.7697, 312.0608
960.2518, 312.8952
960.7339, 312.6862
961.2161, 310.6102
961.6982, 308.1125
962.1803, 306.1977
962.6624, 305.0587
963.1445, 304.9781
963.6266, 307.2095
964.1088, 308.7562
964.5909, 309.4010
965.0730, 309.4175
965.5551, 308.8419
966.0372, 307.7805
966.5193, 307.3524
967.0015, 307.6490
967.4836, 307.7294
967.9657, 306.4780
968.4478, 304.9897
968.9299, 304.2921
969.4120, 304.4462
969.8942, 304.1837
970.3763, 303.2254
970.8584, 302.3169
971.3405, 301.7222
971.8226, 301.3526
972.3047, 301.1217
972.7869, 300.9229
973.2690, 300.2958
973.7511, 298.7418
974.2332, 297.1725
974.7153, 296.0767
975.1974, 295.2738
975.6796, 294.4219
976.1617, 293.2214
976.6438, 292.9349
977.1259, 293.8508
977.6080, 294.8830
978.0901, 294.5954
978.5723, 293.6891
979.0544, 294.0192
979.5365, 295.7109
980.0186, 296.2663
980.5007, 292.8534
980.9828, 289.5975
981.4650, 288.5784
981.9471, 289.5028
982.4292, 290.6010
982.9113, 291.9314
983.3934, 292.7625
983.8755, 292.7974
984.3577, 292.2003
984.8398, 290.9291
985.3219, 289.2416
985.8040, 287.6340
986.2861, 286.0082
986.7682, 284.8560
987.2504, 284.2011
987.7325, 284.0212
988.2146, 284.6095
988.6967, 285.8869
989.1788, 285.9386
989.6609, 284.6007
990.1431, 283.4052
990.6252, 284.0228
991.1073, 284.9693
991.5894, 284.8183
992.0715, 283.5371
992.5536, 282.8049
993.0358, 283.2604
993.5179, 283.0177
994.0000, 280.9534
994.4821, 278.3565
994.9642, 279.2419
995.4464, 282.4136
995.9285, 283.5936
996.4106, 279.9446
996.8927, 276.5068
997.3748, 276.2506
997.8569, 277.4286
998.3391, 278.1047
998.8212, 278.3149
999.3033, 277.5095
999.7854, 275.4384
1000.268, 273.6861
1000.750, 274.3031
1001.232, 275.8038
1001.714, 275.6272
1002.196, 273.8803
1002.678, 272.4026
1003.160, 272.2291
1003.642, 272.0933
1004.124, 271.5317
1004.607, 270.7820
1005.089, 270.5728
1005.571, 270.8759
1006.053, 271.1706
1006.535, 271.3524
1007.017, 271.3586
1007.499, 271.0375
1007.981, 270.5510
1008.464, 270.1126
1008.946, 269.9214
1009.428, 269.2834
1009.910, 268.0222
1010.392, 266.6468
1010.874, 264.9736
1011.356, 263.5001
1011.838, 264.9028
1012.320, 268.6143
1012.803, 271.4434
1013.285, 271.0209
1013.767, 269.9197
1014.249, 269.2226
1014.731, 268.7753
1015.213, 268.1460
1015.695, 267.2263
1016.177, 266.9584
1016.659, 267.6918
1017.142, 268.3393
1017.624, 267.4146
1018.106, 265.6483
1018.588, 263.8872
1019.070, 262.1635
1019.552, 261.1812
1020.034, 261.6473
1020.516, 262.1204
1020.999, 261.8425
1021.481, 262.0478
1021.963, 260.9849
1022.445, 261.5845
1022.927, 261.8483
1023.409, 261.1013
1023.891, 260.0830
1024.373, 259.1105
1024.855, 258.2477
1025.338, 257.5473
1025.820, 256.7359
1026.302, 257.0281
1026.784, 258.8161
1027.266, 260.6261
1027.748, 260.9793
1028.230, 260.2434
1028.712, 258.8529
1029.195, 256.9122
1029.677, 255.2143
1030.159, 253.5695
1030.641, 252.9132
1031.123, 254.0232
1031.605, 256.1520
1032.087, 256.5909
1032.569, 255.4275
1033.052, 254.3570
1033.534, 254.0351
1034.016, 253.6652
1034.498, 252.2857
1034.980, 250.5544
1035.462, 249.1458
1035.944, 247.6985
1036.426, 248.3152
1036.908, 251.9454
1037.391, 255.0040
1037.873, 254.2229
1038.355, 251.1418
1038.837, 249.6941
1039.319, 249.5774
1039.801, 249.3887
1040.283, 248.1722
1040.765, 247.1203
1041.247, 246.2855
1041.730, 246.0232
1042.212, 247.3451
1042.694, 250.2833
1043.176, 252.1269
1043.658, 252.4807
1044.140, 251.9316
1044.622, 250.3171
1045.104, 248.5519
1045.587, 247.5160
1046.069, 247.3376
1046.551, 247.5088
1047.033, 248.2823
1047.515, 248.6771
1047.997, 248.2280
1048.479, 247.2717
1048.961, 246.3675
1049.443, 245.5685
1049.926, 244.9836
1050.408, 244.5640
1050.890, 244.5362
1051.372, 245.3160
1051.854, 246.2673
1052.336, 247.0164
1052.818, 247.5954
1053.300, 247.3224
1053.782, 246.1885
1054.265, 244.8578
1054.747, 243.2673
1055.229, 242.1497
1055.711, 242.5353
1056.193, 243.9554
1056.675, 244.5867
1057.157, 243.9047
1057.639, 243.6014
1058.122, 244.1358
1058.604, 244.6315
1059.086, 243.4974
1059.568, 241.5416
1060.050, 240.3293
1060.532, 240.1275
1061.014, 240.3661
1061.496, 241.0444
1061.979, 241.9363
1062.461, 243.2313
1062.943, 244.6242
1063.425, 244.6173
1063.907, 243.2843
1064.389, 241.3138
1064.871, 238.6788
1065.353, 236.0190
1065.835, 232.7886
1066.318, 230.3470
1066.800, 230.7837
1067.282, 235.7343
1067.764, 237.8040
1068.246, 236.4344
1068.728, 234.7361
1069.210, 235.5352
1069.692, 237.2587
1070.174, 237.2383
1070.657, 235.8445
1071.139, 234.7370
1071.621, 234.5797
1072.103, 234.6023
1072.585, 234.6823
1073.067, 234.8650
1073.549, 235.6184
1074.031, 236.5918
1074.514, 236.0064
1074.996, 233.5484
1075.478, 231.1899
1075.960, 230.1930
1076.442, 229.7173
1076.924, 229.1711
1077.406, 228.6478
1077.888, 229.1115
1078.370, 230.6336
1078.853, 231.6132
1079.335, 231.0105
1079.817, 230.7734
1080.299, 234.9235
1080.781, 239.9578
1081.263, 240.7569
1081.745, 233.6421
1082.227, 230.0032
1082.709, 231.0479
1083.192, 232.5979
1083.674, 231.9136
1084.156, 229.7673
1084.638, 227.5767
1085.120, 225.6008
1085.602, 224.6597
1086.084, 226.2776
1086.566, 227.3979
1087.048, 226.8438
1087.531, 225.9340
1088.013, 226.6160
1088.495, 228.6453
1088.977, 228.7937
1089.459, 226.8447
1089.941, 225.2055
1090.423, 225.7277
1090.905, 227.0005
1091.388, 228.6698
1091.870, 230.3340
1092.352, 230.3076
1092.834, 228.2627
1093.316, 226.9910
1093.798, 227.3716
1094.280, 227.8312
1094.762, 225.5827
1095.245, 222.8194
1095.727, 222.8715
1096.209, 227.0515
1096.691, 228.2014
1097.173, 224.5310
1097.655, 221.1523
1098.137, 220.5066
1098.619, 221.5087
1099.101, 221.7252
1099.583, 221.4785
1100.066, 221.6777
1100.548, 223.4762
1101.030, 224.2055
1101.512, 222.2442
1101.994, 219.9453
1102.476, 219.1008
1102.958, 219.6256
1103.440, 220.2748
1103.923, 221.0138
1104.405, 221.5660
1104.887, 222.2587
1105.369, 222.2018
1105.851, 219.8123
1106.333, 216.7038
1106.815, 216.3005
1107.297, 219.2255
1107.780, 219.9684
1108.262, 217.7645
1108.744, 215.4156
1109.226, 215.7729
1109.708, 217.0559
1110.190, 217.3883
1110.672, 216.7896
1111.154, 216.9140
1111.636, 218.1119
1112.119, 219.3352
1112.601, 220.4985
1113.083, 221.2300
1113.565, 220.5894
1114.047, 219.2638
1114.529, 218.5035
1115.011, 218.5872
1115.493, 218.8005
1115.975, 219.3620
1116.458, 219.4198
1116.940, 218.2972
1117.422, 216.5937
1117.904, 216.4538
1118.386, 217.4517
1118.868, 218.1421
1119.350, 218.0471
1119.832, 217.4642
1120.315, 215.9907
1120.797, 214.5123
1121.279, 213.7031
1121.761, 213.5563
1122.243, 213.5706
1122.725, 213.7424
1123.207, 214.0398
1123.689, 214.1309
1124.172, 214.6641
1124.654, 217.2664
1125.136, 220.1022
1125.618, 219.6601
1126.100, 214.8699
1126.582, 212.4874
1127.064, 213.0820
1127.546, 214.5306
1128.028, 215.6511
1128.510, 216.1982
1128.993, 215.5107
1129.475, 213.9072
1129.957, 213.0499
1130.439, 213.2552
1130.921, 213.6084
1131.403, 213.9777
1131.885, 214.3936
1132.367, 215.4837
1132.850, 216.3692
1133.332, 215.1824
1133.814, 211.6630
1134.296, 209.4715
1134.778, 210.0277
1135.260, 210.9123
1135.742, 211.5564
1136.224, 211.9205
1136.707, 211.8466
1137.189, 211.4418
1137.671, 210.9145
1138.153, 210.1988
1138.635, 209.8519
1139.117, 210.9266
1139.599, 211.4700
1140.081, 209.9905
1140.563, 207.2774
1141.046, 207.7538
1141.528, 210.6744
1142.010, 212.1388
1142.492, 209.5258
1142.974, 206.9650
1143.456, 206.9394
1143.938, 207.6656
1144.420, 207.4355
1144.902, 206.1826
1145.385, 205.6602
1145.867, 205.8605
1146.349, 206.6688
1146.831, 208.8694
1147.313, 210.7730
1147.795, 210.5998
1148.277, 209.5636
1148.759, 209.8645
1149.242, 211.9756
1149.724, 212.9051
1150.206, 212.4493
1150.688, 211.6022
1151.170, 211.0370
1151.652, 210.5976
1152.134, 210.3209
1152.616, 210.0562
1153.099, 209.2237
1153.581, 207.5024
1154.063, 206.2177
1154.545, 205.5196
1155.027, 205.3970
1155.509, 206.4074
1155.991, 207.6464
1156.473, 207.5219
1156.955, 206.0988
1157.438, 206.4734
1157.920, 210.4631
1158.402, 212.2985
1158.884, 210.1586
1159.366, 206.4227
1159.848, 204.1149
1160.330, 202.8963
1160.812, 202.2850
1161.294, 202.2368
1161.777, 202.4571
1162.259, 202.9850
1162.741, 203.6225
1163.223, 204.4763
1163.705, 205.1841
1164.187, 204.3557
1164.669, 202.8269
1165.151, 202.8233
1165.634, 205.6279
1166.116, 207.3533
1166.598, 206.5849
1167.080, 204.9703
1167.562, 202.7843
1168.044, 200.5846
1168.526, 200.9897
1169.008, 203.2205
1169.490, 204.4491
1169.973, 202.9385
1170.455, 201.7159
1170.937, 202.2498
1171.419, 203.0114
1171.901, 202.7970
1172.383, 201.8367
1172.865, 202.1542
1173.347, 203.5404
1173.829, 204.8383
1174.312, 205.8293
1174.794, 206.1575
1175.276, 205.0776
1175.758, 203.7005
1176.240, 203.1658
1176.722, 203.4398
1177.204, 203.0211
1177.686, 201.9792
1178.169, 201.5503
1178.651, 204.0271
1179.133, 205.6496
1179.615, 203.0101
1180.097, 199.0811
1180.579, 198.4759
1181.061, 201.2573
1181.543, 202.6501
1182.026, 202.3272
1182.508, 202.2190
1182.990, 204.7189
1183.472, 206.9228
1183.954, 206.5848
1184.436, 204.5949
1184.918, 202.6433
1185.400, 200.6754
1185.882, 200.3135
1186.365, 201.8733
1186.847, 203.6888
1187.329, 204.8385
1187.811, 205.3250
1188.293, 204.7905
1188.775, 203.5807
1189.257, 202.9929
1189.739, 203.0972
1190.221, 202.8265
1190.704, 201.9004
1191.186, 200.9680
1191.668, 200.6205
1192.150, 200.5670
1192.632, 200.7608
1193.114, 201.0843
1193.596, 200.5885
1194.078, 199.1413
1194.561, 198.0434
1195.043, 197.5331
1195.525, 197.9316
1196.007, 200.4184
1196.489, 203.3975
1196.971, 205.4130
1197.453, 206.3583
1197.935, 206.0999
1198.417, 204.4600
1198.900, 203.1663
1199.382, 202.8722
1199.864, 203.0938
1200.346, 203.8058
1200.828, 204.4598
1201.310, 204.3032
1201.792, 203.1921
1202.274, 202.4192
1202.756, 202.0751
1203.239, 201.2349
1203.721, 199.0279
1204.203, 196.9716
1204.685, 196.8758
1205.167, 197.8916
1205.649, 198.9939
1206.131, 200.1780
1206.613, 200.9259
1207.096, 201.2647
1207.578, 200.9467
1208.060, 199.1076
1208.542, 197.4872
1209.024, 198.9071
1209.506, 201.4788
1209.988, 201.9766
1210.470, 199.4441
1210.953, 198.0668
1211.435, 197.9004
1211.917, 198.3810
1212.399, 199.6587
1212.881, 200.9288
1213.363, 201.3002
1213.845, 201.0895
1214.327, 200.8333
1214.809, 200.4034
1215.292, 200.6130
1215.774, 201.5412
1216.256, 202.4222
1216.738, 202.5030
1217.220, 202.4248
1217.702, 202.9406
1218.184, 203.7262
1218.666, 204.1436
1219.148, 204.2810
1219.631, 203.3735
1220.113, 201.2460
1220.595, 199.4993
1221.077, 200.2880
1221.559, 201.2310
1222.041, 199.0347
1222.523, 200.9168
1223.005, 195.9398
1223.488, 201.5830
1223.970, 203.8431
1224.452, 201.9035
1224.934, 199.3312
1225.416, 198.5186
1225.898, 198.7478
1226.380, 200.0998
1226.862, 201.8970
1227.344, 202.3612
1227.827, 201.2574
1228.309, 200.0828
1228.791, 198.9035
1229.273, 198.5609
1229.755, 200.7567
1230.237, 203.1441
1230.719, 203.9087
1231.201, 203.3326
1231.683, 202.3857
1232.166, 201.0070
1232.648, 199.9364
1233.130, 199.2331
1233.612, 199.1536
1234.094, 201.0541
1234.576, 202.5729
1235.058, 201.0559
1235.540, 198.0350
1236.023, 197.4797
1236.505, 199.4408
1236.987, 200.7734
1237.469, 201.0519
1237.951, 201.0029
1238.433, 201.3558
1238.915, 201.3897
1239.397, 200.1224
1239.880, 198.3742
1240.362, 198.1937
1240.844, 199.4536
1241.326, 200.0477
1241.808, 199.6014
1242.290, 199.3434
1242.772, 201.0703
1243.254, 202.1111
1243.736, 200.2056
1244.219, 197.1427
1244.701, 197.7008
1245.183, 201.2137
1245.665, 203.2002
1246.147, 202.8006
1246.629, 202.1338
1247.111, 202.2207
1247.593, 202.5290
1248.075, 202.9093
1248.558, 203.2537
1249.040, 203.2436
1249.522, 202.9774
1250.004, 202.9949
1250.486, 203.4366
1250.968, 203.2807
1251.450, 201.3448
1251.932, 199.5750
1252.415, 198.5665
1252.897, 198.2124
1253.379, 198.5705
1253.861, 199.3692
1254.343, 200.0860
1254.825, 200.6806
1255.307, 200.2632
1255.789, 196.7652
1256.271, 195.0739
1256.754, 197.3164
1257.236, 201.0262
1257.718, 201.5286
1258.200, 200.1273
1258.682, 199.1787
1259.164, 199.0759
1259.646, 199.2198
1260.128, 199.5052
1260.610, 200.1201
1261.093, 201.4508
1261.575, 202.3716
1262.057, 200.1252
1262.539, 196.8732
1263.021, 195.9079
1263.503, 197.8555
1263.985, 199.9846
1264.467, 202.6415
1264.950, 203.4637
1265.432, 201.3006
1265.914, 198.4039
1266.396, 197.5483
1266.878, 197.6602
1267.360, 197.4838
1267.842, 196.9021
1268.324, 196.9939
1268.807, 197.8308
1269.289, 198.7637
1269.771, 199.6687
1270.253, 200.3821
1270.735, 200.7550
1271.217, 200.8625
1271.699, 200.6476
1272.181, 200.2008
1272.663, 199.8820
1273.146, 199.7008
1273.628, 200.2574
1274.110, 201.9411
1274.592, 203.3157
1275.074, 203.2748
1275.556, 202.5260
1276.038, 201.1172
1276.520, 199.5763
1277.002, 200.4758
1277.485, 203.2736
1277.967, 204.5729
1278.449, 203.2893
1278.931, 201.9562
1279.413, 201.9095
1279.895, 202.1762
1280.377, 202.4291
1280.859, 202.5752
1281.342, 202.2288
1281.824, 201.5886
1282.306, 201.2265
1282.788, 201.2839
1283.270, 201.4912
1283.752, 201.9447
1284.234, 202.2538
1284.716, 202.2802
1285.198, 202.1094
1285.681, 201.8380
1286.163, 201.5049
1286.645, 201.1649
1287.127, 200.8261
1287.609, 200.4518
1288.091, 199.8085
1288.573, 199.9743
1289.055, 201.6910
1289.537, 203.1777
1290.020, 201.2171
1290.502, 198.1689
1290.984, 197.0497
1291.466, 198.1373
1291.948, 197.9792
1292.430, 196.3336
1292.912, 195.1684
1293.394, 194.9502
1293.877, 195.5632
1294.359, 197.9341
1294.841, 200.2403
1295.323, 200.6482
1295.805, 199.6001
1296.287, 198.3576
1296.769, 196.9813
1297.251, 196.8903
1297.734, 198.5400
1298.216, 199.9735
1298.698, 199.4483
1299.180, 198.8906
1299.662, 199.3540
1300.144, 200.3903
1300.626, 201.1015
1301.108, 201.4609
1301.590, 201.2205
1302.073, 200.3039
1302.555, 199.7886
1303.037, 200.4933
1303.519, 201.1905
1304.001, 201.6417
1304.483, 201.7506
1304.965, 201.4091
##END=



