##NAMES=Mawbyite
##RRUFFID=R080011
##IDEAL CHEMISTRY=Pb^2+^Fe^3+^_2_(As^5+^O_4_)_2_(OH)_2_
##LOCALITY=Tsumeb, Namibia
##OWNER=RRUFF
##SOURCE=William W. Pinch
##DESCRIPTION=Reddish brown wedge-shaped crystals, many V-twinned, associated with quartz and scorodite
##STATUS=The identification of this mineral has been confirmed by single-crystal X-ray diffraction.
##URL=rruff.info/R080011
94.51007, 0.0000000E+00
94.99219, 1787.927
95.47430, 1798.156
95.95642, 1805.789
96.43854, 1810.439
96.92065, 1812.495
97.40277, 1806.599
97.88489, 1793.834
98.36700, 1781.354
98.84912, 1770.476
99.33124, 1758.914
99.81335, 1744.785
100.2955, 1727.941
100.7776, 1710.323
101.2597, 1695.176
101.7418, 1678.636
102.2239, 1663.712
102.7061, 1651.483
103.1882, 1641.499
103.6703, 1632.323
104.1524, 1622.983
104.6345, 1614.398
105.1166, 1607.742
105.5988, 1603.181
106.0809, 1599.845
106.5630, 1597.110
107.0451, 1594.935
107.5272, 1592.958
108.0093, 1590.711
108.4915, 1588.588
108.9736, 1587.005
109.4557, 1586.389
109.9378, 1585.913
110.4199, 1582.920
110.9020, 1573.305
111.3842, 1566.972
111.8663, 1568.767
112.3484, 1574.728
112.8305, 1578.991
113.3126, 1577.067
113.7947, 1568.684
114.2769, 1563.804
114.7590, 1565.021
115.2411, 1566.881
115.7232, 1567.780
116.2053, 1567.596
116.6874, 1566.912
117.1696, 1566.289
117.6517, 1565.761
118.1338, 1565.071
118.6159, 1562.349
119.0980, 1560.495
119.5801, 1562.560
120.0623, 1569.334
120.5444, 1577.933
121.0265, 1584.649
121.5086, 1589.615
121.9907, 1593.842
122.4728, 1596.843
122.9550, 1599.238
123.4371, 1602.896
123.9192, 1609.334
124.4013, 1615.799
124.8834, 1618.989
125.3655, 1618.750
125.8476, 1618.154
126.3298, 1619.513
126.8119, 1622.900
127.2940, 1627.162
127.7761, 1632.382
128.2582, 1638.217
128.7404, 1644.925
129.2225, 1652.591
129.7046, 1660.252
130.1867, 1666.363
130.6688, 1670.633
131.1509, 1673.646
131.6331, 1673.351
132.1152, 1672.998
132.5973, 1675.941
133.0794, 1683.834
133.5615, 1695.478
134.0436, 1705.742
134.5258, 1714.439
135.0079, 1721.803
135.4900, 1726.627
135.9721, 1730.198
136.4542, 1734.960
136.9363, 1742.813
137.4185, 1753.363
137.9006, 1760.206
138.3827, 1760.594
138.8648, 1760.746
139.3469, 1764.053
139.8290, 1770.188
140.3112, 1776.227
140.7933, 1779.682
141.2754, 1780.798
141.7575, 1782.664
142.2396, 1786.334
142.7217, 1790.391
143.2039, 1793.171
143.6860, 1794.372
144.1681, 1795.260
144.6502, 1797.214
145.1323, 1799.706
145.6144, 1801.480
146.0966, 1801.926
146.5787, 1801.243
147.0608, 1800.124
147.5429, 1798.948
148.0250, 1796.656
148.5071, 1791.510
148.9893, 1784.647
149.4714, 1779.181
149.9535, 1778.451
150.4356, 1782.937
150.9177, 1785.693
151.3998, 1785.912
151.8820, 1784.825
152.3641, 1782.474
152.8462, 1779.035
153.3283, 1774.938
153.8104, 1770.649
154.2925, 1766.309
154.7747, 1761.377
155.2568, 1756.341
155.7389, 1750.527
156.2210, 1742.903
156.7031, 1733.543
157.1852, 1723.948
157.6673, 1716.541
158.1495, 1713.502
158.6316, 1709.116
159.1137, 1702.351
159.5958, 1694.718
160.0779, 1687.627
160.5600, 1681.517
161.0422, 1676.178
161.5243, 1671.449
162.0064, 1668.272
162.4885, 1663.543
162.9706, 1656.237
163.4527, 1646.923
163.9349, 1635.996
164.4170, 1622.379
164.8991, 1609.199
165.3812, 1602.357
165.8633, 1603.247
166.3454, 1605.102
166.8276, 1604.428
167.3097, 1601.441
167.7918, 1597.601
168.2739, 1592.737
168.7560, 1587.813
169.2381, 1583.647
169.7203, 1580.111
170.2024, 1578.081
170.6845, 1579.222
171.1666, 1584.214
171.6487, 1588.346
172.1308, 1589.724
172.6130, 1589.660
173.0951, 1588.730
173.5772, 1586.993
174.0593, 1585.041
174.5414, 1583.875
175.0235, 1583.596
175.5057, 1583.991
175.9878, 1585.928
176.4699, 1587.969
176.9520, 1588.590
177.4341, 1587.031
177.9162, 1584.080
178.3984, 1582.155
178.8805, 1581.803
179.3626, 1581.936
179.8447, 1582.221
180.3268, 1582.926
180.8089, 1584.737
181.2911, 1588.145
181.7732, 1592.565
182.2553, 1594.576
182.7374, 1591.889
183.2195, 1589.356
183.7016, 1587.384
184.1838, 1586.235
184.6659, 1586.424
185.1480, 1588.457
185.6301, 1592.058
186.1122, 1594.315
186.5943, 1594.218
187.0765, 1594.134
187.5586, 1595.276
188.0407, 1597.279
188.5228, 1598.666
189.0049, 1597.968
189.4870, 1595.879
189.9692, 1596.501
190.4513, 1602.334
190.9334, 1608.624
191.4155, 1612.191
191.8976, 1613.111
192.3797, 1613.490
192.8619, 1614.394
193.3440, 1615.838
193.8261, 1617.789
194.3082, 1621.468
194.7903, 1624.842
195.2724, 1625.209
195.7546, 1622.120
196.2367, 1619.038
196.7188, 1618.954
197.2009, 1620.131
197.6830, 1620.228
198.1651, 1618.104
198.6473, 1614.833
199.1294, 1612.203
199.6115, 1610.363
200.0936, 1608.838
200.5757, 1607.605
201.0578, 1606.458
201.5400, 1605.270
202.0221, 1604.347
202.5042, 1603.076
202.9863, 1599.317
203.4684, 1591.028
203.9505, 1583.564
204.4327, 1578.861
204.9148, 1575.832
205.3969, 1573.106
205.8790, 1570.068
206.3611, 1566.595
206.8432, 1561.862
207.3254, 1553.544
207.8075, 1546.779
208.2896, 1544.443
208.7717, 1544.042
209.2538, 1541.835
209.7359, 1535.339
210.2181, 1525.032
210.7002, 1515.549
211.1823, 1507.607
211.6644, 1499.809
212.1465, 1491.010
212.6286, 1482.240
213.1108, 1475.594
213.5929, 1472.739
214.0750, 1473.238
214.5571, 1470.658
215.0392, 1462.153
215.5213, 1453.906
216.0035, 1447.754
216.4856, 1443.215
216.9677, 1439.297
217.4498, 1435.544
217.9319, 1431.819
218.4140, 1425.647
218.8962, 1414.153
219.3783, 1403.754
219.8604, 1397.060
220.3425, 1393.541
220.8246, 1391.276
221.3067, 1389.113
221.7889, 1387.193
222.2710, 1386.190
222.7531, 1387.951
223.2352, 1388.790
223.7173, 1386.145
224.1994, 1380.622
224.6816, 1375.149
225.1637, 1371.260
225.6458, 1368.958
226.1279, 1367.487
226.6100, 1367.742
227.0921, 1367.927
227.5743, 1366.541
228.0564, 1363.750
228.5385, 1361.186
229.0206, 1359.588
229.5027, 1358.951
229.9848, 1359.163
230.4670, 1360.899
230.9491, 1362.573
231.4312, 1362.546
231.9133, 1360.804
232.3954, 1359.289
232.8775, 1359.042
233.3597, 1359.504
233.8418, 1359.882
234.3239, 1359.936
234.8060, 1360.193
235.2881, 1361.299
235.7702, 1363.328
236.2524, 1365.532
236.7345, 1368.356
237.2166, 1370.817
237.6987, 1371.710
238.1808, 1370.545
238.6629, 1368.897
239.1451, 1368.602
239.6272, 1369.789
240.1093, 1371.640
240.5914, 1374.527
241.0735, 1377.659
241.5556, 1380.896
242.0378, 1384.255
242.5199, 1386.598
243.0020, 1385.865
243.4841, 1380.888
243.9662, 1377.166
244.4483, 1375.546
244.9305, 1375.550
245.4126, 1377.907
245.8947, 1382.536
246.3768, 1387.054
246.8589, 1387.641
247.3410, 1382.407
247.8232, 1379.156
248.3053, 1380.659
248.7874, 1382.750
249.2695, 1382.821
249.7516, 1380.475
250.2337, 1377.179
250.7159, 1374.798
251.1980, 1373.527
251.6801, 1372.742
252.1622, 1373.195
252.6443, 1373.509
253.1264, 1372.827
253.6086, 1371.088
254.0907, 1368.851
254.5728, 1366.832
255.0549, 1365.220
255.5370, 1363.192
256.0191, 1361.312
256.5013, 1358.656
256.9834, 1353.987
257.4655, 1347.672
257.9476, 1341.624
258.4297, 1338.105
258.9118, 1338.022
259.3940, 1336.712
259.8761, 1334.121
260.3582, 1330.643
260.8403, 1325.421
261.3224, 1319.144
261.8045, 1314.163
262.2867, 1313.141
262.7688, 1317.239
263.2509, 1317.146
263.7330, 1310.839
264.2151, 1303.245
264.6972, 1295.867
265.1794, 1289.135
265.6615, 1283.433
266.1436, 1279.420
266.6257, 1277.255
267.1078, 1272.323
267.5899, 1262.467
268.0721, 1252.570
268.5542, 1244.409
269.0363, 1237.956
269.5184, 1232.596
270.0005, 1228.008
270.4826, 1224.163
270.9648, 1220.858
271.4469, 1219.448
271.9290, 1217.063
272.4111, 1211.864
272.8932, 1204.802
273.3753, 1198.135
273.8575, 1193.192
274.3396, 1189.697
274.8217, 1186.270
275.3038, 1184.104
275.7859, 1180.690
276.2680, 1173.715
276.7502, 1164.973
277.2323, 1158.265
277.7144, 1155.562
278.1965, 1155.632
278.6786, 1154.920
279.1607, 1152.864
279.6429, 1151.223
280.1250, 1151.571
280.6071, 1152.519
281.0892, 1151.202
281.5713, 1146.242
282.0534, 1139.593
282.5356, 1135.275
283.0177, 1133.963
283.4998, 1132.080
283.9819, 1127.487
284.4640, 1122.119
284.9461, 1119.627
285.4283, 1121.439
285.9104, 1124.032
286.3925, 1121.654
286.8746, 1113.833
287.3567, 1107.412
287.8388, 1104.551
288.3210, 1103.510
288.8031, 1102.113
289.2852, 1099.941
289.7673, 1097.684
290.2494, 1096.274
290.7315, 1095.643
291.2137, 1094.459
291.6958, 1092.192
292.1779, 1089.451
292.6600, 1086.837
293.1421, 1084.413
293.6242, 1082.078
294.1064, 1079.604
294.5885, 1077.133
295.0706, 1075.381
295.5527, 1074.973
296.0348, 1074.925
296.5169, 1074.774
296.9991, 1074.464
297.4812, 1072.990
297.9633, 1069.005
298.4454, 1063.495
298.9275, 1059.630
299.4096, 1058.525
299.8918, 1057.936
300.3739, 1056.123
300.8560, 1053.289
301.3381, 1050.990
301.8202, 1050.287
302.3023, 1050.261
302.7845, 1049.039
303.2666, 1046.337
303.7487, 1043.197
304.2308, 1039.814
304.7129, 1036.400
305.1950, 1033.682
305.6772, 1031.924
306.1593, 1030.974
306.6414, 1030.597
307.1235, 1030.787
307.6056, 1031.311
308.0877, 1032.493
308.5699, 1033.921
309.0520, 1034.515
309.5341, 1033.828
310.0162, 1032.834
310.4983, 1032.682
310.9804, 1033.235
311.4626, 1033.755
311.9447, 1034.116
312.4268, 1034.260
312.9089, 1033.921
313.3910, 1032.932
313.8731, 1032.163
314.3553, 1032.751
314.8374, 1034.214
315.3195, 1035.005
315.8016, 1035.213
316.2837, 1034.370
316.7658, 1030.920
317.2480, 1024.721
317.7301, 1020.163
318.2122, 1020.629
318.6943, 1024.577
319.1764, 1027.959
319.6585, 1030.338
320.1407, 1032.285
320.6228, 1034.453
321.1049, 1036.717
321.5870, 1037.901
322.0691, 1036.621
322.5512, 1034.782
323.0334, 1035.929
323.5155, 1040.974
323.9976, 1045.975
324.4797, 1048.102
324.9618, 1048.435
325.4439, 1050.414
325.9261, 1055.410
326.4082, 1061.568
326.8903, 1066.533
327.3724, 1070.304
327.8545, 1074.045
328.3366, 1078.139
328.8188, 1082.435
329.3009, 1086.829
329.7830, 1091.390
330.2651, 1095.626
330.7472, 1098.656
331.2293, 1100.762
331.7115, 1103.606
332.1936, 1107.063
332.6757, 1111.652
333.1578, 1118.453
333.6399, 1127.517
334.1220, 1136.724
334.6042, 1145.268
335.0863, 1152.730
335.5684, 1158.070
336.0505, 1158.579
336.5326, 1159.695
337.0147, 1166.047
337.4969, 1176.486
337.9790, 1185.650
338.4611, 1190.759
338.9432, 1193.523
339.4253, 1197.761
339.9074, 1203.495
340.3896, 1210.236
340.8717, 1219.068
341.3538, 1228.631
341.8359, 1236.055
342.3180, 1240.367
342.8001, 1243.045
343.2823, 1245.939
343.7644, 1249.022
344.2465, 1252.359
344.7286, 1256.111
345.2107, 1260.048
345.6928, 1264.097
346.1750, 1268.251
346.6571, 1271.992
347.1392, 1274.829
347.6213, 1276.677
348.1034, 1278.154
348.5855, 1278.813
349.0677, 1279.480
349.5498, 1281.186
350.0319, 1283.585
350.5140, 1284.958
350.9961, 1284.108
351.4782, 1281.513
351.9604, 1279.512
352.4425, 1278.153
352.9246, 1277.193
353.4067, 1277.559
353.8888, 1278.127
354.3709, 1276.882
354.8531, 1273.035
355.3352, 1267.160
355.8173, 1259.976
356.2994, 1249.870
356.7815, 1242.190
357.2636, 1239.792
357.7458, 1238.698
358.2279, 1234.715
358.7100, 1227.258
359.1921, 1219.016
359.6742, 1213.045
360.1563, 1209.869
360.6385, 1205.842
361.1206, 1199.378
361.6027, 1193.570
362.0848, 1190.296
362.5669, 1189.209
363.0490, 1189.040
363.5312, 1189.164
364.0133, 1189.328
364.4954, 1187.362
364.9775, 1181.009
365.4596, 1175.336
365.9417, 1172.338
366.4239, 1170.314
366.9060, 1166.670
367.3881, 1160.342
367.8702, 1152.736
368.3523, 1146.635
368.8344, 1141.775
369.3166, 1139.206
369.7987, 1140.132
370.2808, 1142.288
370.7629, 1144.305
371.2450, 1145.834
371.7271, 1147.043
372.2093, 1148.290
372.6914, 1149.938
373.1735, 1149.245
373.6556, 1144.377
374.1377, 1139.168
374.6198, 1134.331
375.1020, 1130.229
375.5841, 1127.501
376.0662, 1126.689
376.5483, 1127.295
377.0304, 1126.840
377.5125, 1123.436
377.9947, 1121.781
378.4768, 1124.873
378.9589, 1128.829
379.4410, 1129.212
379.9231, 1124.680
380.4052, 1118.385
380.8874, 1115.512
381.3695, 1117.602
381.8516, 1118.059
382.3337, 1113.979
382.8158, 1110.130
383.2979, 1109.611
383.7801, 1111.958
384.2622, 1114.182
384.7443, 1113.707
385.2264, 1110.739
385.7085, 1107.870
386.1906, 1105.603
386.6728, 1102.653
387.1549, 1097.779
387.6370, 1092.170
388.1191, 1087.759
388.6012, 1085.588
389.0833, 1084.520
389.5655, 1082.555
390.0476, 1079.520
390.5297, 1076.378
391.0118, 1073.080
391.4939, 1070.003
391.9760, 1067.795
392.4582, 1066.563
392.9403, 1064.885
393.4224, 1061.185
393.9045, 1055.833
394.3866, 1051.249
394.8687, 1048.204
395.3509, 1045.239
395.8330, 1040.580
396.3151, 1034.889
396.7972, 1030.439
397.2793, 1029.268
397.7614, 1029.290
398.2436, 1027.405
398.7257, 1023.491
399.2078, 1019.208
399.6899, 1015.396
400.1720, 1011.906
400.6541, 1008.265
401.1363, 1004.082
401.6184, 1000.487
402.1005, 999.0249
402.5826, 998.7546
403.0647, 996.9036
403.5468, 992.4515
404.0290, 986.6522
404.5111, 980.5081
404.9932, 973.6464
405.4753, 969.4977
405.9574, 971.0532
406.4395, 974.1407
406.9217, 974.4310
407.4038, 971.7352
407.8859, 969.0088
408.3680, 968.7544
408.8501, 970.6566
409.3322, 970.6442
409.8144, 968.0984
410.2965, 964.6642
410.7786, 960.0200
411.2607, 955.0451
411.7428, 951.0900
412.2249, 948.7272
412.7071, 947.7310
413.1892, 947.7310
413.6713, 949.4412
414.1534, 950.9579
414.6355, 952.6676
415.1176, 953.9180
415.5998, 953.8525
416.0819, 952.6746
416.5640, 951.5682
417.0461, 951.6382
417.5282, 952.8997
418.0103, 953.9701
418.4925, 955.3088
418.9746, 955.9157
419.4567, 954.8905
419.9388, 953.1973
420.4209, 952.2122
420.9030, 952.5728
421.3852, 953.6097
421.8673, 953.6922
422.3494, 951.6868
422.8315, 951.6893
423.3136, 956.7136
423.7957, 961.7069
424.2779, 963.4352
424.7600, 961.9308
425.2421, 959.4043
425.7242, 957.2803
426.2063, 955.6222
426.6884, 955.2389
427.1706, 956.7640
427.6527, 958.5475
428.1348, 959.9663
428.6169, 961.1381
429.0990, 962.1978
429.5811, 963.1440
430.0633, 964.1170
430.5454, 965.6195
431.0275, 967.6862
431.5096, 968.5369
431.9917, 966.4945
432.4738, 964.2322
432.9560, 964.8477
433.4381, 968.3029
433.9202, 971.5301
434.4023, 972.4119
434.8844, 972.3055
435.3665, 973.8099
435.8487, 977.3094
436.3308, 981.0262
436.8129, 983.9456
437.2950, 985.9695
437.7771, 987.0425
438.2592, 985.3540
438.7414, 984.6691
439.2235, 988.0295
439.7056, 993.9416
440.1877, 998.8364
440.6698, 1001.416
441.1519, 1002.489
441.6341, 1003.275
442.1162, 1003.618
442.5983, 1004.130
443.0804, 1004.978
443.5625, 1005.904
444.0446, 1006.541
444.5268, 1007.007
445.0089, 1007.918
445.4910, 1009.803
445.9731, 1012.541
446.4552, 1014.948
446.9373, 1017.017
447.4195, 1018.788
447.9016, 1020.323
448.3837, 1021.537
448.8658, 1021.851
449.3479, 1021.257
449.8300, 1021.115
450.3122, 1023.604
450.7943, 1029.540
451.2764, 1035.040
451.7585, 1040.835
452.2406, 1045.467
452.7227, 1047.917
453.2049, 1048.707
453.6870, 1048.910
454.1691, 1048.923
454.6512, 1049.099
455.1333, 1050.659
455.6154, 1054.332
456.0976, 1057.191
456.5797, 1057.168
457.0618, 1056.642
457.5439, 1057.715
458.0260, 1060.656
458.5081, 1063.452
458.9903, 1064.289
459.4724, 1063.696
459.9545, 1063.545
460.4366, 1064.026
460.9187, 1064.981
461.4008, 1066.918
461.8830, 1069.259
462.3651, 1070.492
462.8472, 1070.481
463.3293, 1069.176
463.8114, 1064.991
464.2935, 1059.149
464.7756, 1056.757
465.2578, 1060.535
465.7399, 1066.377
466.2220, 1066.898
466.7041, 1060.543
467.1862, 1055.731
467.6683, 1053.956
468.1505, 1053.647
468.6326, 1054.070
469.1147, 1054.873
469.5968, 1055.252
470.0789, 1054.583
470.5610, 1053.043
471.0432, 1051.857
471.5253, 1050.827
472.0074, 1050.408
472.4895, 1051.514
472.9716, 1052.794
473.4537, 1052.684
473.9359, 1050.943
474.4180, 1048.770
474.9001, 1047.522
475.3822, 1047.240
475.8643, 1047.644
476.3464, 1050.460
476.8286, 1052.063
477.3107, 1049.927
477.7928, 1046.120
478.2749, 1044.114
478.7570, 1045.628
479.2391, 1048.897
479.7213, 1051.105
480.2034, 1052.142
480.6855, 1053.073
481.1676, 1053.741
481.6497, 1054.791
482.1318, 1057.098
482.6140, 1060.455
483.0961, 1063.188
483.5782, 1064.357
484.0603, 1064.484
484.5424, 1063.681
485.0245, 1061.876
485.5067, 1062.181
485.9888, 1067.836
486.4709, 1075.885
486.9530, 1078.429
487.4351, 1072.895
487.9172, 1067.943
488.3994, 1066.760
488.8815, 1067.762
489.3636, 1069.152
489.8457, 1070.522
490.3278, 1071.740
490.8099, 1072.740
491.2921, 1073.538
491.7742, 1073.639
492.2563, 1072.018
492.7384, 1070.989
493.2205, 1072.421
493.7026, 1074.491
494.1848, 1074.134
494.6669, 1070.316
495.1490, 1065.505
495.6311, 1064.163
496.1132, 1068.451
496.5953, 1069.182
497.0775, 1063.552
497.5596, 1056.914
498.0417, 1050.916
498.5238, 1045.569
499.0059, 1040.459
499.4880, 1035.276
499.9702, 1030.305
500.4523, 1026.511
500.9344, 1024.255
501.4165, 1020.810
501.8986, 1015.191
502.3807, 1008.219
502.8629, 1000.195
503.3450, 991.2657
503.8271, 983.2618
504.3092, 978.1613
504.7913, 974.0457
505.2734, 967.3480
505.7556, 957.9100
506.2377, 949.7272
506.7198, 945.9310
507.2019, 944.5388
507.6840, 939.1074
508.1661, 926.7228
508.6483, 916.3997
509.1304, 912.1253
509.6125, 910.2905
510.0946, 906.8384
510.5767, 901.1360
511.0588, 894.8777
511.5410, 889.6074
512.0231, 885.3158
512.5052, 880.8521
512.9873, 875.0742
513.4694, 870.4663
513.9515, 868.7594
514.4337, 867.9009
514.9158, 865.1787
515.3979, 859.9537
515.8800, 854.4591
516.3621, 851.8058
516.8442, 852.3651
517.3264, 851.9178
517.8085, 850.2560
518.2906, 847.7078
518.7727, 843.9258
519.2548, 839.5775
519.7369, 835.7948
520.2191, 833.0278
520.7012, 830.7228
521.1833, 827.8382
521.6654, 824.6224
522.1475, 823.4186
522.6296, 825.7032
523.1118, 828.2855
523.5939, 826.7736
524.0760, 821.8544
524.5581, 818.8065
525.0402, 820.7908
525.5223, 822.9039
526.0045, 820.6374
526.4866, 815.5043
526.9687, 812.2557
527.4508, 813.0626
527.9329, 816.0546
528.4150, 817.8662
528.8972, 818.4469
529.3793, 817.7314
529.8614, 813.6964
530.3435, 810.3119
530.8256, 810.9501
531.3077, 814.0925
531.7899, 815.4283
532.2720, 812.1776
532.7541, 806.5762
533.2362, 804.8771
533.7183, 809.0643
534.2004, 811.4938
534.6826, 809.0306
535.1647, 805.8885
535.6468, 804.3184
536.1289, 804.3137
536.6110, 804.9593
537.0931, 806.5127
537.5753, 807.9873
538.0574, 806.9052
538.5395, 803.1044
539.0216, 800.4865
539.5037, 801.5121
539.9858, 803.8329
540.4680, 803.3580
540.9501, 799.7007
541.4322, 796.1039
541.9143, 793.4514
542.3964, 791.3031
542.8785, 789.0538
543.3607, 786.8060
543.8428, 785.4998
544.3249, 785.9929
544.8070, 787.4349
545.2891, 786.6334
545.7712, 779.9905
546.2534, 776.0746
546.7355, 778.1431
547.2176, 780.6877
547.6997, 779.0635
548.1818, 773.6390
548.6639, 768.0896
549.1461, 765.2782
549.6282, 764.6432
550.1103, 763.9477
550.5924, 763.1066
551.0745, 762.4032
551.5566, 763.0085
552.0388, 763.0619
552.5209, 760.6275
553.0030, 755.6326
553.4851, 750.5276
553.9672, 745.9476
554.4493, 742.4261
554.9315, 741.5602
555.4136, 743.4428
555.8957, 744.8498
556.3778, 744.0618
556.8599, 741.6069
557.3420, 738.7363
557.8242, 735.0591
558.3063, 731.9580
558.7884, 729.9805
559.2705, 728.5092
559.7526, 727.1331
560.2347, 725.7501
560.7169, 724.1683
561.1990, 722.1517
561.6811, 720.0103
562.1632, 719.3895
562.6453, 722.3472
563.1274, 723.2101
563.6096, 719.4119
564.0917, 715.0848
564.5738, 713.3712
565.0559, 714.1865
565.5380, 715.2703
566.0201, 715.2947
566.5023, 714.3118
566.9844, 712.2586
567.4665, 708.9751
567.9486, 705.5427
568.4307, 701.7515
568.9128, 698.6095
569.3950, 697.5603
569.8771, 698.7510
570.3592, 700.1407
570.8413, 701.6074
571.3234, 702.5898
571.8055, 702.2886
572.2877, 700.8668
572.7698, 699.2153
573.2519, 697.7996
573.7340, 696.5494
574.2161, 695.3244
574.6982, 694.3600
575.1804, 692.9590
575.6625, 690.0093
576.1446, 687.6193
576.6267, 687.4854
577.1088, 689.0179
577.5909, 690.5905
578.0731, 691.3376
578.5552, 691.2367
579.0373, 689.8815
579.5194, 686.8739
580.0015, 684.8922
580.4836, 685.3507
580.9658, 686.0795
581.4479, 685.3917
581.9300, 683.5270
582.4121, 681.5739
582.8942, 679.1012
583.3763, 677.3831
583.8585, 678.3334
584.3406, 681.2450
584.8227, 683.5703
585.3048, 684.4889
585.7869, 684.2960
586.2690, 683.3658
586.7512, 681.6652
587.2333, 679.2079
587.7154, 674.8785
588.1975, 671.0359
588.6796, 668.7142
589.1617, 667.5209
589.6439, 666.8115
590.1260, 666.3342
590.6081, 666.0841
591.0902, 665.9756
591.5723, 665.9510
592.0544, 666.7354
592.5366, 669.4102
593.0187, 671.2704
593.5008, 670.5455
593.9829, 668.4515
594.4650, 666.9032
594.9471, 666.5913
595.4293, 665.9437
595.9114, 662.6841
596.3935, 658.3643
596.8756, 657.0375
597.3577, 659.3901
597.8398, 662.6323
598.3220, 664.9747
598.8041, 666.3768
599.2862, 666.4892
599.7683, 665.5384
600.2504, 663.2448
600.7325, 657.5037
601.2147, 651.7509
601.6968, 649.3622
602.1789, 650.4390
602.6610, 653.0277
603.1431, 655.9630
603.6252, 658.7552
604.1074, 658.8126
604.5895, 654.8047
605.0716, 651.5430
605.5537, 651.0727
606.0358, 651.1290
606.5179, 649.7523
607.0001, 647.1251
607.4822, 645.3524
607.9643, 646.5910
608.4464, 648.4703
608.9285, 647.8693
609.4106, 645.1245
609.8928, 642.2061
610.3749, 639.7040
610.8570, 637.9330
611.3391, 637.5367
611.8212, 639.0997
612.3033, 639.7406
612.7855, 638.6336
613.2676, 637.5269
613.7497, 637.4184
614.2318, 637.7722
614.7139, 637.5822
615.1960, 636.5018
615.6782, 635.1569
616.1603, 634.2872
616.6424, 633.8893
617.1245, 634.2021
617.6066, 636.0861
618.0887, 637.1579
618.5709, 635.3654
619.0530, 632.3802
619.5351, 630.5616
620.0172, 630.5217
620.4993, 630.5675
620.9814, 629.2218
621.4636, 627.5627
621.9457, 627.4313
622.4278, 628.9252
622.9099, 630.9325
623.3920, 632.9396
623.8741, 634.6320
624.3563, 634.8567
624.8384, 632.2365
625.3205, 630.1063
625.8026, 628.5615
626.2847, 627.4246
626.7668, 626.7225
627.2490, 626.3279
627.7311, 626.0775
628.2132, 625.9908
628.6953, 625.6389
629.1774, 623.6525
629.6595, 619.9128
630.1417, 618.3188
630.6238, 620.7101
631.1059, 623.5533
631.5880, 623.2628
632.0701, 620.8488
632.5522, 619.4741
633.0344, 620.5020
633.5165, 621.5960
633.9986, 621.3483
634.4807, 620.5114
634.9628, 620.2971
635.4449, 620.9166
635.9271, 621.8398
636.4092, 622.7776
636.8913, 623.5634
637.3734, 622.1009
637.8555, 615.1111
638.3376, 611.2460
638.8198, 613.9625
639.3019, 618.2867
639.7840, 620.7094
640.2661, 620.9701
640.7482, 620.4130
641.2303, 619.7420
641.7125, 618.7963
642.1946, 617.0505
642.6767, 614.6108
643.1588, 612.6337
643.6409, 611.4590
644.1230, 610.9782
644.6052, 611.2717
645.0873, 612.4993
645.5694, 613.0209
646.0515, 612.2435
646.5336, 611.4382
647.0157, 611.2078
647.4979, 611.2049
647.9800, 610.7997
648.4621, 609.9087
648.9442, 609.2412
649.4263, 609.8705
649.9084, 611.5074
650.3906, 611.1681
650.8727, 608.0527
651.3548, 605.0465
651.8369, 602.2290
652.3190, 600.6840
652.8011, 602.2140
653.2833, 606.9048
653.7654, 610.7263
654.2475, 611.5032
654.7296, 611.2766
655.2117, 612.3353
655.6938, 614.1057
656.1760, 614.2825
656.6581, 611.9142
657.1402, 608.7517
657.6223, 607.4315
658.1044, 608.3906
658.5865, 608.5626
659.0687, 607.2216
659.5508, 605.8809
660.0329, 604.2745
660.5150, 603.1886
660.9971, 603.9794
661.4792, 606.8014
661.9614, 609.3470
662.4435, 609.7360
662.9256, 608.5123
663.4077, 606.5228
663.8898, 603.8051
664.3719, 601.6200
664.8541, 600.4189
665.3362, 600.2609
665.8183, 601.5204
666.3004, 604.9730
666.7825, 607.0329
667.2646, 606.8601
667.7468, 606.0998
668.2289, 605.0486
668.7110, 604.1390
669.1931, 604.1595
669.6752, 605.3021
670.1573, 606.5134
670.6395, 606.5288
671.1216, 605.4142
671.6037, 603.7974
672.0858, 601.2900
672.5679, 599.5283
673.0500, 599.6983
673.5322, 600.7912
674.0143, 601.1055
674.4964, 600.4219
674.9785, 600.4928
675.4606, 602.9789
675.9427, 605.4290
676.4249, 605.3808
676.9070, 603.6527
677.3891, 602.5282
677.8712, 602.9166
678.3533, 604.0043
678.8354, 604.4971
679.3176, 604.2201
679.7997, 605.1757
680.2818, 608.9498
680.7639, 611.5306
681.2460, 611.1630
681.7281, 609.2076
682.2103, 606.8182
682.6924, 604.1388
683.1745, 601.9459
683.6566, 600.4488
684.1387, 599.7900
684.6208, 600.4987
685.1030, 602.3011
685.5851, 604.1198
686.0672, 605.5463
686.5493, 606.3876
687.0314, 606.2191
687.5135, 604.7162
687.9957, 603.9670
688.4778, 605.2079
688.9599, 605.7629
689.4420, 603.7959
689.9241, 601.4192
690.4063, 601.0992
690.8884, 603.2461
691.3705, 606.2650
691.8526, 609.8511
692.3347, 613.1481
692.8168, 613.9413
693.2990, 612.4200
693.7811, 612.0924
694.2632, 614.6742
694.7453, 617.8135
695.2274, 618.0496
695.7095, 614.6954
696.1917, 612.5621
696.6738, 611.6884
697.1559, 611.8716
697.6380, 613.8148
698.1201, 616.3746
698.6022, 618.1392
699.0844, 618.9608
699.5665, 619.9883
700.0486, 622.9404
700.5307, 626.4396
701.0128, 625.9196
701.4949, 621.1898
701.9771, 618.4485
702.4592, 620.3214
702.9413, 623.5645
703.4234, 624.0588
703.9055, 621.5967
704.3876, 621.2218
704.8698, 624.3634
705.3519, 627.9468
705.8340, 631.6167
706.3161, 634.7501
706.7982, 636.1960
707.2803, 636.1564
707.7625, 636.4348
708.2446, 638.6539
708.7267, 641.9890
709.2088, 644.0273
709.6909, 644.6508
710.1730, 645.2909
710.6552, 646.3087
711.1373, 647.3917
711.6194, 648.1409
712.1015, 648.6626
712.5836, 649.5760
713.0657, 650.7440
713.5479, 652.5354
714.0300, 655.7135
714.5121, 659.1725
714.9942, 661.7931
715.4763, 663.4976
715.9584, 664.6211
716.4406, 665.2726
716.9227, 665.9209
717.4048, 667.6602
717.8869, 670.5406
718.3690, 674.1958
718.8511, 679.2373
719.3333, 683.8724
719.8154, 686.4084
720.2975, 687.5816
720.7796, 689.1555
721.2617, 691.1369
721.7438, 693.7553
722.2260, 697.8544
722.7081, 702.0469
723.1902, 705.1363
723.6723, 707.0880
724.1544, 708.2317
724.6365, 708.7075
725.1187, 708.9232
725.6008, 709.3854
726.0829, 710.0298
726.5650, 711.9116
727.0471, 715.4670
727.5292, 719.4643
728.0114, 723.6759
728.4935, 727.7924
728.9756, 731.5554
729.4577, 735.1334
729.9398, 737.3859
730.4219, 737.2377
730.9041, 736.3348
731.3862, 735.5165
731.8683, 735.0543
732.3504, 735.1429
732.8325, 735.8867
733.3146, 737.6771
733.7968, 741.3428
734.2789, 746.7159
734.7610, 751.3129
735.2431, 755.4810
735.7252, 757.7082
736.2073, 756.1173
736.6895, 753.4479
737.1716, 752.8831
737.6537, 754.3414
738.1358, 755.8728
738.6179, 757.3680
739.1000, 758.5229
739.5822, 759.2177
740.0643, 759.4518
740.5464, 759.0068
741.0285, 757.9880
741.5106, 757.1508
741.9927, 757.2081
742.4749, 757.7994
742.9570, 757.7296
743.4391, 756.9288
743.9212, 755.8224
744.4033, 754.1688
744.8854, 752.7172
745.3676, 752.1414
745.8497, 752.2739
746.3318, 752.6685
746.8139, 754.0023
747.2960, 754.4396
747.7781, 752.6993
748.2603, 750.3384
748.7424, 748.5751
749.2245, 747.5695
749.7066, 747.3776
750.1887, 748.0803
750.6708, 748.9108
751.1530, 748.5946
751.6351, 747.1586
752.1172, 745.5348
752.5993, 743.6402
753.0814, 742.0375
753.5635, 741.0411
754.0457, 740.5063
754.5278, 740.2876
755.0099, 740.5862
755.4920, 740.2424
755.9741, 738.0714
756.4562, 736.3008
756.9384, 736.3770
757.4205, 737.5518
757.9026, 738.6970
758.3847, 739.5006
758.8668, 740.2546
759.3489, 741.6827
759.8311, 743.0774
760.3132, 741.5255
760.7953, 736.9354
761.2774, 734.3968
761.7595, 735.9033
762.2416, 738.6847
762.7238, 739.9552
763.2059, 739.7636
763.6880, 740.0613
764.1701, 741.0766
764.6522, 742.2235
765.1343, 743.9497
765.6165, 745.3308
766.0986, 744.8842
766.5807, 743.3937
767.0628, 743.4797
767.5449, 746.7969
768.0270, 750.7203
768.5092, 751.6368
768.9913, 750.4943
769.4734, 750.6166
769.9555, 752.3934
770.4376, 754.5334
770.9197, 756.3198
771.4019, 757.9420
771.8840, 759.8361
772.3661, 762.2150
772.8482, 764.2706
773.3303, 765.4139
773.8124, 766.9540
774.2946, 769.6755
774.7767, 772.8583
775.2588, 775.4181
775.7409, 777.2545
776.2230, 779.6061
776.7051, 783.7458
777.1873, 788.4227
777.6694, 792.0334
778.1515, 794.8929
778.6336, 798.0339
779.1157, 801.7374
779.5978, 805.7126
780.0800, 809.8115
780.5621, 813.8563
781.0442, 816.5215
781.5263, 816.3524
782.0084, 818.3155
782.4905, 825.3984
782.9727, 832.5114
783.4548, 836.0472
783.9369, 837.3099
784.4190, 839.5824
784.9011, 843.7253
785.3832, 848.3846
785.8654, 852.7726
786.3475, 857.4715
786.8296, 863.8714
787.3117, 871.1617
787.7938, 876.9176
788.2759, 880.0635
788.7581, 881.5563
789.2402, 882.0385
789.7223, 881.6517
790.2044, 883.8700
790.6865, 889.4414
791.1686, 894.5366
791.6508, 897.5492
792.1329, 899.6353
792.6150, 902.1973
793.0971, 905.2260
793.5792, 908.2626
794.0613, 911.3944
794.5435, 914.3646
795.0256, 916.5711
795.5077, 918.9545
795.9898, 922.9531
796.4719, 928.1439
796.9540, 932.5806
797.4362, 935.1657
797.9183, 936.5181
798.4004, 936.7809
798.8825, 936.4540
799.3646, 937.8621
799.8467, 941.3243
800.3289, 944.6011
800.8110, 946.3896
801.2931, 947.2648
801.7752, 948.4943
802.2573, 950.3011
802.7394, 951.6688
803.2216, 952.4033
803.7037, 952.9025
804.1858, 953.0592
804.6679, 953.1600
805.1500, 953.2645
805.6321, 953.4763
806.1143, 954.6097
806.5964, 958.3346
807.0785, 961.9121
807.5606, 962.1040
808.0427, 960.7782
808.5248, 961.6682
809.0070, 965.2850
809.4891, 969.7236
809.9712, 973.7909
810.4533, 976.9860
810.9354, 977.4250
811.4175, 974.5828
811.8997, 973.2346
812.3818, 974.1382
812.8639, 975.9043
813.3460, 977.8657
813.8281, 980.1396
814.3102, 983.2499
814.7924, 987.8362
815.2745, 990.6336
815.7566, 989.6046
816.2387, 988.4053
816.7208, 987.4664
817.2029, 988.2211
817.6851, 993.9150
818.1672, 1004.141
818.6493, 1012.494
819.1314, 1012.668
819.6135, 1010.014
820.0956, 1014.596
820.5778, 1024.487
821.0599, 1030.351
821.5420, 1030.202
822.0241, 1029.590
822.5062, 1032.601
822.9883, 1038.292
823.4705, 1043.731
823.9526, 1049.041
824.4347, 1053.684
824.9168, 1056.270
825.3989, 1059.857
825.8810, 1066.969
826.3632, 1075.110
826.8453, 1080.418
827.3274, 1082.278
827.8095, 1085.393
828.2916, 1092.682
828.7737, 1100.680
829.2559, 1106.527
829.7380, 1111.522
830.2201, 1117.911
830.7022, 1126.057
831.1843, 1134.902
831.6664, 1143.891
832.1486, 1152.491
832.6307, 1158.759
833.1128, 1162.897
833.5949, 1169.803
834.0770, 1180.624
834.5591, 1191.590
835.0413, 1199.882
835.5233, 1207.214
836.0054, 1217.687
836.4875, 1233.114
836.9697, 1246.549
837.4518, 1256.537
837.9339, 1266.399
838.4160, 1276.748
838.8981, 1287.702
839.3802, 1300.049
839.8624, 1313.465
840.3445, 1325.182
840.8266, 1332.624
841.3087, 1339.229
841.7908, 1347.163
842.2729, 1356.528
842.7551, 1368.562
843.2372, 1382.630
843.7193, 1395.040
844.2014, 1403.451
844.6835, 1409.579
845.1656, 1416.506
845.6478, 1424.276
846.1299, 1432.259
846.6120, 1440.603
847.0941, 1448.682
847.5762, 1456.757
848.0583, 1463.797
848.5405, 1468.019
849.0226, 1469.060
849.5047, 1470.420
849.9868, 1473.475
850.4689, 1474.987
850.9510, 1475.248
851.4332, 1472.854
851.9153, 1464.983
852.3974, 1453.469
852.8795, 1443.951
853.3616, 1439.472
853.8438, 1434.691
854.3259, 1425.635
854.8080, 1413.647
855.2901, 1399.705
855.7722, 1384.572
856.2543, 1370.216
856.7365, 1357.381
857.2186, 1344.391
857.7007, 1328.858
858.1828, 1311.189
858.6649, 1294.411
859.1470, 1278.319
859.6292, 1264.422
860.1113, 1254.423
860.5934, 1243.841
861.0755, 1228.315
861.5576, 1208.977
862.0397, 1191.471
862.5219, 1176.870
863.0040, 1162.308
863.4861, 1147.840
863.9682, 1133.212
864.4503, 1117.435
864.9324, 1101.818
865.4146, 1088.307
865.8967, 1077.352
866.3788, 1067.081
866.8609, 1057.093
867.3430, 1046.775
867.8251, 1035.551
868.3073, 1023.541
868.7894, 1010.378
869.2715, 996.4098
869.7536, 984.2787
870.2357, 976.0502
870.7178, 969.4850
871.2000, 959.3659
871.6821, 945.8512
872.1642, 934.1057
872.6463, 924.5882
873.1284, 916.4844
873.6105, 910.3564
874.0927, 903.7702
874.5748, 892.4495
875.0569, 875.4106
875.5390, 861.7931
876.0211, 853.4366
876.5032, 846.1414
876.9854, 840.4830
877.4675, 834.5996
877.9496, 827.4442
878.4317, 818.9155
878.9138, 808.7032
879.3959, 795.5587
879.8781, 784.1859
880.3602, 778.7885
880.8423, 774.9725
881.3244, 768.5574
881.8065, 760.2147
882.2886, 751.7360
882.7708, 743.8327
883.2529, 736.9155
883.7350, 731.8941
884.2171, 727.6508
884.6992, 721.3192
885.1813, 713.1515
885.6635, 705.2565
886.1456, 697.9718
886.6277, 691.6923
887.1098, 686.6923
887.5919, 682.9802
888.0740, 681.1115
888.5562, 682.5015
889.0383, 680.2032
889.5204, 672.1224
890.0025, 663.8525
890.4846, 656.3077
890.9667, 650.3518
891.4489, 647.5474
891.9310, 647.6105
892.4131, 646.9026
892.8952, 645.5776
893.3773, 642.5187
893.8594, 635.8138
894.3416, 628.6058
894.8237, 623.2853
895.3058, 619.6366
895.7879, 616.7061
896.2700, 614.1779
896.7521, 611.6322
897.2343, 608.3698
897.7164, 605.1199
898.1985, 603.2576
898.6806, 602.2505
899.1627, 600.2171
899.6448, 596.8464
900.1270, 593.8758
900.6091, 592.9366
901.0912, 592.9239
901.5733, 590.7085
902.0554, 586.2487
902.5375, 582.2545
903.0197, 578.7792
903.5018, 576.9175
903.9839, 577.8468
904.4660, 579.6578
904.9481, 579.4029
905.4302, 576.9767
905.9124, 573.4360
906.3945, 566.2640
906.8766, 561.6642
907.3587, 562.3522
907.8408, 564.2622
908.3229, 564.9688
908.8051, 564.5934
909.2872, 563.8348
909.7693, 562.8622
910.2514, 561.3793
910.7335, 558.6207
911.2156, 555.9686
911.6978, 554.7760
912.1799, 554.2258
912.6620, 552.7625
913.1441, 550.2507
913.6262, 548.0684
914.1083, 547.0284
914.5905, 546.9580
915.0726, 548.4850
915.5547, 550.5995
916.0368, 550.2972
916.5189, 547.6941
917.0010, 546.0021
917.4832, 546.8796
917.9653, 548.3202
918.4474, 547.2850
918.9295, 544.0308
919.4116, 541.1101
919.8937, 538.4606
920.3759, 536.8577
920.8580, 536.8550
921.3401, 536.9082
921.8222, 535.5275
922.3043, 533.2808
922.7864, 532.3400
923.2686, 533.2972
923.7507, 534.2486
924.2328, 536.1733
924.7149, 536.9004
925.1970, 534.5756
925.6791, 531.4512
926.1613, 530.2562
926.6434, 530.9057
927.1255, 530.7784
927.6076, 528.7029
928.0897, 526.4755
928.5718, 523.7583
929.0540, 522.0231
929.5361, 523.8577
930.0182, 527.4064
930.5003, 528.3336
930.9824, 525.3144
931.4645, 521.9123
931.9467, 520.7623
932.4288, 520.8648
932.9109, 521.4003
933.3930, 522.0794
933.8751, 522.2646
934.3572, 521.8827
934.8394, 521.3674
935.3215, 521.0320
935.8036, 520.4601
936.2857, 518.5143
936.7678, 515.5223
937.2499, 514.1310
937.7321, 514.4777
938.2142, 514.6768
938.6963, 514.0089
939.1784, 513.3777
939.6605, 513.8344
940.1426, 515.1268
940.6248, 515.7112
941.1069, 515.5042
941.5890, 514.8173
942.0711, 513.4526
942.5532, 511.9815
943.0353, 510.5737
943.5175, 509.2912
943.9996, 508.1169
944.4817, 506.9789
944.9638, 506.6966
945.4459, 508.7337
945.9280, 509.6701
946.4102, 507.7680
946.8923, 505.3907
947.3744, 504.0903
947.8565, 503.7386
948.3386, 503.8228
948.8207, 504.2919
949.3029, 504.7309
949.7850, 505.3785
950.2671, 505.4854
950.7492, 503.6213
951.2313, 501.3443
951.7134, 501.3279
952.1956, 503.3564
952.6777, 504.5732
953.1598, 503.1505
953.6419, 501.5050
954.1240, 502.9722
954.6061, 505.6886
955.0883, 505.9584
955.5704, 504.2505
956.0525, 503.0877
956.5346, 503.2798
957.0167, 504.1811
957.4988, 505.4435
957.9810, 506.5135
958.4631, 505.7264
958.9452, 503.2285
959.4273, 500.7776
959.9094, 498.5421
960.3915, 497.0666
960.8737, 496.7516
961.3558, 496.7376
961.8379, 495.6002
962.3200, 493.4385
962.8021, 493.4370
963.2842, 496.7045
963.7664, 498.5216
964.2485, 497.6088
964.7306, 495.9698
965.2127, 494.3329
965.6948, 493.1603
966.1769, 493.8570
966.6591, 497.4883
967.1412, 498.7775
967.6233, 496.0225
968.1054, 493.2823
968.5875, 490.8585
969.0696, 489.2718
969.5518, 489.1831
970.0339, 490.2376
970.5160, 491.4533
970.9981, 492.8018
971.4802, 493.8556
971.9623, 494.5278
972.4445, 494.8187
972.9266, 494.4084
973.4087, 493.8101
973.8908, 493.6844
974.3729, 494.0233
974.8550, 494.3014
975.3372, 494.1612
975.8193, 494.2489
976.3014, 496.2469
976.7835, 497.7708
977.2656, 495.4570
977.7477, 490.6407
978.2299, 486.0694
978.7120, 482.7220
979.1941, 481.0320
979.6762, 481.6411
980.1583, 483.4415
980.6404, 485.4963
981.1226, 487.3019
981.6047, 486.9622
982.0868, 484.9063
982.5689, 484.3438
983.0510, 486.5231
983.5331, 488.8419
984.0153, 488.1629
984.4974, 489.2676
984.9795, 488.9834
985.4616, 487.6584
985.9437, 487.1957
986.4258, 483.3936
986.9080, 480.8532
987.3901, 482.2437
987.8722, 485.1915
988.3543, 485.9515
988.8364, 484.6328
989.3185, 484.2355
989.8007, 485.1852
990.2828, 484.8192
990.7649, 481.9420
991.2470, 479.5957
991.7291, 480.1297
992.2112, 482.1390
992.6934, 482.4688
993.1755, 480.6525
993.6576, 479.7977
994.1397, 480.3439
994.6218, 481.0966
995.1039, 482.0418
995.5861, 482.8578
996.0682, 483.4888
996.5503, 483.7785
997.0324, 483.2511
997.5145, 481.6732
997.9966, 479.9706
998.4788, 476.6653
998.9609, 475.1926
999.4430, 478.6290
999.9251, 482.7442
1000.407, 483.6875
1000.889, 481.9998
1001.371, 480.2766
1001.854, 478.9206
1002.336, 477.8033
1002.818, 476.0670
1003.300, 475.4673
1003.782, 478.4208
1004.264, 482.1531
1004.746, 483.0204
1005.228, 481.2684
1005.711, 479.9618
1006.193, 480.4361
1006.675, 480.9965
1007.157, 480.4111
1007.639, 479.6654
1008.121, 479.8725
1008.603, 480.4650
1009.085, 480.1566
1009.567, 478.9898
1010.050, 478.5411
1010.532, 480.0208
1011.014, 481.5221
1011.496, 480.5966
1011.978, 478.9874
1012.460, 479.9528
1012.942, 482.2332
1013.424, 481.8119
1013.906, 478.0836
1014.389, 474.6746
1014.871, 474.3269
1015.353, 475.4730
1015.835, 476.5838
1016.317, 477.2182
1016.799, 475.5699
1017.281, 472.2658
1017.763, 470.5872
1018.246, 471.5034
1018.728, 472.9668
1019.210, 473.1652
1019.692, 472.6253
1020.174, 472.5541
1020.656, 472.7639
1021.138, 471.7847
1021.620, 469.7240
1022.102, 469.7626
1022.585, 473.1597
1023.067, 476.7782
1023.549, 477.3051
1024.031, 475.6039
1024.513, 474.5136
1024.995, 474.0071
1025.477, 472.6669
1025.959, 470.2863
1026.442, 468.1285
1026.924, 466.5921
1027.406, 466.3471
1027.888, 468.5145
1028.370, 472.3818
1028.852, 473.9484
1029.334, 472.8956
1029.816, 471.7948
1030.298, 470.7554
1030.781, 470.2650
1031.263, 470.8142
1031.745, 471.2811
1032.227, 470.0199
1032.709, 467.3974
1033.191, 466.7207
1033.673, 468.6614
1034.155, 470.2910
1034.638, 471.3787
1035.120, 472.1532
1035.602, 472.7198
1036.084, 473.0292
1036.566, 473.0107
1037.048, 472.6724
1037.530, 472.0565
1038.012, 470.6820
1038.495, 470.1824
1038.977, 471.6240
1039.459, 472.4012
1039.941, 470.8607
1040.423, 468.4994
1040.905, 467.0438
1041.387, 466.4924
1041.869, 466.7490
1042.351, 468.9315
1042.833, 470.0431
1043.316, 469.0204
1043.798, 468.0129
1044.280, 468.0612
1044.762, 468.5001
1045.244, 468.3033
1045.726, 467.5613
1046.208, 467.9286
1046.690, 471.2633
1047.173, 472.9416
1047.655, 471.4714
1048.137, 469.5956
1048.619, 468.3648
1049.101, 467.5176
1049.583, 466.5270
1050.065, 465.4817
1050.547, 465.3668
1051.030, 467.6977
1051.512, 468.7064
1051.994, 466.0639
1052.476, 464.0425
1052.958, 466.1559
1053.440, 469.1274
1053.922, 468.3603
1054.404, 464.3050
1054.886, 462.0279
1055.369, 463.6927
1055.851, 464.9383
1056.333, 464.2425
1056.815, 463.4820
1057.297, 463.8538
1057.779, 464.5702
1058.261, 464.6288
1058.743, 464.0659
1059.225, 463.5306
1059.708, 462.9343
1060.190, 462.9572
1060.672, 465.3600
1061.154, 466.6691
1061.636, 463.2306
1062.118, 458.8354
1062.600, 458.3347
1063.082, 461.1965
1063.565, 463.2607
1064.047, 463.3806
1064.529, 462.8329
1065.011, 461.2596
1065.493, 460.0912
1065.975, 460.7627
1066.457, 461.8377
1066.939, 461.1465
1067.422, 459.3299
1067.904, 459.2713
1068.386, 462.2105
1068.868, 464.9884
1069.350, 466.8175
1069.832, 467.5287
1070.314, 466.4826
1070.796, 464.6775
1071.278, 462.6683
1071.760, 460.9111
1072.243, 460.4937
1072.725, 461.9765
1073.207, 462.8721
1073.689, 461.3021
1074.171, 459.7946
1074.653, 460.1239
1075.135, 460.9686
1075.617, 460.7070
1076.100, 459.8219
1076.582, 459.9840
1077.064, 461.6917
1077.546, 462.9758
1078.028, 463.0399
1078.510, 462.3577
1078.992, 460.2101
1079.474, 458.2820
1079.957, 458.5875
1080.439, 460.2346
1080.921, 461.2380
1081.403, 461.1552
1081.885, 460.6829
1082.367, 459.7228
1082.849, 458.9670
1083.331, 459.1412
1083.813, 459.3245
1084.296, 458.5852
1084.778, 457.3358
1085.260, 456.1698
1085.742, 455.2801
1086.224, 455.1566
1086.706, 456.6761
1087.188, 457.9389
1087.670, 457.6182
1088.152, 457.1856
1088.635, 457.7081
1089.117, 458.9033
1089.599, 460.7593
1090.081, 462.9102
1090.563, 463.5861
1091.045, 461.7630
1091.527, 459.3032
1092.009, 455.6600
1092.491, 453.0755
1092.974, 453.7089
1093.456, 455.8018
1093.938, 457.5665
1094.420, 458.6374
1094.902, 458.7372
1095.384, 457.4151
1095.866, 456.3833
1096.348, 456.6720
1096.831, 456.9318
1097.313, 456.2603
1097.795, 455.3420
1098.277, 454.8416
1098.759, 454.7386
1099.241, 454.7132
1099.723, 454.6310
1100.205, 455.0587
1100.688, 457.3919
1101.170, 458.6786
1101.652, 456.3311
1102.134, 453.7278
1102.616, 454.2297
1103.098, 456.3809
1103.580, 456.7650
1104.062, 454.7977
1104.544, 453.4782
1105.026, 453.6769
1105.509, 454.3623
1105.991, 455.9295
1106.473, 457.1719
1106.955, 457.1566
1107.437, 456.4232
1107.919, 455.8388
1108.401, 455.4406
1108.883, 454.6308
1109.366, 451.5837
1109.848, 450.7817
1110.330, 455.8839
1110.812, 459.7393
1111.294, 457.8747
1111.776, 453.9750
1112.258, 451.1262
1112.740, 449.7778
1113.223, 451.7095
1113.705, 460.6161
1114.187, 464.9041
1114.669, 460.2189
1115.151, 455.8242
1115.633, 454.7697
1116.115, 454.6455
1116.597, 453.4508
1117.079, 451.7110
1117.562, 450.8958
1118.044, 451.2736
1118.526, 451.4049
1119.008, 450.7059
1119.490, 450.8479
1119.972, 453.3856
1120.454, 454.9789
1120.936, 452.7255
1121.418, 449.0585
1121.901, 448.2262
1122.383, 450.2925
1122.865, 451.5477
1123.347, 451.9233
1123.829, 451.5336
1124.311, 449.6544
1124.793, 448.6282
1125.275, 449.4242
1125.758, 451.8273
1126.240, 456.5490
1126.722, 462.3459
1127.204, 461.4974
1127.686, 451.3751
1128.168, 448.1793
1128.650, 454.5705
1129.132, 458.8902
1129.615, 457.1771
1130.097, 453.8799
1130.579, 452.4915
1131.061, 452.3411
1131.543, 451.8615
1132.025, 451.0494
1132.507, 450.2350
1132.989, 449.4149
1133.471, 448.5512
1133.953, 447.6151
1134.436, 446.8256
1134.918, 446.2597
1135.400, 446.2520
1135.882, 447.3560
1136.364, 449.3820
1136.846, 452.0915
1137.328, 455.1806
1137.810, 455.5221
1138.293, 453.0045
1138.775, 450.6411
1139.257, 449.5938
1139.739, 449.6417
1140.221, 450.8588
1140.703, 452.2078
1141.185, 451.2393
1141.667, 448.8297
1142.150, 447.2608
1142.632, 446.7424
1143.114, 448.1449
1143.596, 451.1838
1144.078, 452.7659
1144.560, 450.9314
1145.042, 448.4832
1145.524, 448.8569
1146.006, 450.6213
1146.489, 452.0380
1146.971, 452.9079
1147.453, 452.7930
1147.935, 451.8261
1148.417, 450.3908
1148.899, 448.6755
1149.381, 447.3250
1149.863, 446.6964
1150.345, 446.7912
1150.828, 448.2358
1151.310, 449.8860
1151.792, 450.6144
1152.274, 450.4363
1152.756, 449.1359
1153.238, 447.0558
1153.720, 445.9309
1154.202, 446.7975
1154.685, 447.7384
1155.167, 447.4404
1155.649, 447.2651
1156.131, 448.4648
1156.613, 449.9504
1157.095, 450.8146
1157.577, 450.8639
1158.059, 449.5980
1158.542, 446.6327
1159.024, 444.9706
1159.506, 446.4464
1159.988, 447.7230
1160.470, 447.5836
1160.952, 447.2773
1161.434, 447.7958
1161.916, 448.4977
1162.398, 448.4825
1162.880, 447.7338
1163.363, 446.5346
1163.845, 444.0252
1164.327, 442.6796
1164.809, 442.8727
1165.291, 443.6241
1165.773, 444.7949
1166.255, 446.2186
1166.737, 447.9593
1167.220, 449.6741
1167.702, 450.3336
1168.184, 449.7309
1168.666, 450.6737
1169.148, 453.9073
1169.630, 454.9469
1170.112, 452.6871
1170.594, 449.8997
1171.077, 447.8773
1171.559, 446.4641
1172.041, 445.4328
1172.523, 444.9075
1173.005, 445.7008
1173.487, 447.6468
1173.969, 448.8071
1174.451, 449.0276
1174.933, 447.4208
1175.416, 443.9159
1175.898, 442.1227
1176.380, 444.7099
1176.862, 448.9622
1177.344, 451.2975
1177.826, 452.1379
1178.308, 451.7052
1178.790, 450.7720
1179.272, 452.4083
1179.755, 455.6349
1180.237, 454.5687
1180.719, 447.5378
1181.201, 441.8520
1181.683, 443.6399
1182.165, 447.7134
1182.647, 450.1974
1183.129, 451.2213
1183.612, 449.9649
1184.094, 447.8827
1184.576, 447.5140
1185.058, 448.7602
1185.540, 449.3752
1186.022, 448.3756
1186.504, 447.8512
1186.986, 449.7586
1187.469, 451.0200
1187.951, 449.8597
1188.433, 447.7056
1188.915, 444.5551
1189.397, 441.8085
1189.879, 442.4916
1190.361, 446.7678
1190.843, 448.6785
1191.325, 445.2510
1191.807, 443.4341
1192.290, 444.2139
1192.772, 445.7111
1193.254, 448.3540
1193.736, 449.9877
1194.218, 447.5929
1194.700, 443.6886
1195.182, 445.5195
1195.664, 453.9679
1196.147, 456.6869
1196.629, 452.5830
1197.111, 448.3018
1197.593, 444.5724
1198.075, 442.8274
1198.557, 443.9822
1199.039, 445.7612
1199.521, 445.4955
1200.004, 444.2838
1200.486, 445.7375
1200.968, 449.0203
1201.450, 449.3056
1201.932, 447.0106
1202.414, 445.3935
1202.896, 445.1851
1203.378, 445.9299
1203.860, 447.4142
1204.343, 448.5685
1204.825, 448.1748
1205.307, 446.8817
1205.789, 444.9395
1206.271, 443.0818
1206.753, 442.6222
1207.235, 443.1063
1207.717, 443.1803
1208.199, 442.7258
1208.682, 443.1483
1209.164, 445.6378
1209.646, 447.3022
1210.128, 446.0912
1210.610, 444.3713
1211.092, 442.8521
1211.574, 442.0816
1212.056, 442.9799
1212.539, 444.8303
1213.021, 446.2711
1213.503, 447.2054
1213.985, 447.1334
1214.467, 444.3205
1214.949, 443.4136
1215.431, 446.1255
1215.913, 448.3131
1216.396, 448.6449
1216.878, 447.5373
1217.360, 444.7945
1217.842, 441.5133
1218.324, 440.6209
1218.806, 442.1579
1219.288, 444.5749
1219.770, 448.0418
1220.252, 448.7549
1220.734, 446.1027
1221.217, 442.7180
1221.699, 439.6993
1222.181, 438.5069
1222.663, 440.9869
1223.145, 444.9374
1223.627, 446.2920
1224.109, 445.9269
1224.591, 445.7466
1225.074, 445.6749
1225.556, 445.0302
1226.038, 443.9568
1226.520, 443.5401
1227.002, 444.1982
1227.484, 444.7340
1227.966, 443.9097
1228.448, 443.1771
1228.931, 443.7731
1229.413, 444.7035
1229.895, 445.4066
1230.377, 445.6667
1230.859, 445.0534
1231.341, 443.7818
1231.823, 442.8768
1232.305, 442.7198
1232.787, 442.1522
1233.270, 439.9070
1233.752, 438.9215
1234.234, 440.1286
1234.716, 442.1842
1235.198, 445.1589
1235.680, 447.5931
1236.162, 447.2384
1236.644, 444.9260
1237.126, 444.8570
1237.609, 447.3312
1238.091, 449.1817
1238.573, 450.3885
1239.055, 449.6907
1239.537, 446.8099
1240.019, 443.6972
1240.501, 441.3587
1240.983, 440.9586
1241.466, 444.9979
1241.948, 449.9839
1242.430, 447.7844
1242.912, 442.2616
1243.394, 441.9996
1243.876, 445.2150
1244.358, 445.9262
1244.840, 443.6917
1245.323, 442.4189
1245.805, 443.8361
1246.287, 444.9764
1246.769, 443.4624
1247.251, 441.9899
1247.733, 441.4225
1248.215, 442.1658
1248.697, 446.4884
1249.179, 451.0449
1249.661, 450.4260
1250.144, 445.3242
1250.626, 442.0811
1251.108, 441.4379
1251.590, 441.2756
1252.072, 441.3307
1252.554, 442.7134
1253.036, 446.6186
1253.518, 449.0464
1254.001, 447.5146
1254.483, 444.8726
1254.965, 444.6503
1255.447, 443.0008
1255.929, 441.9520
1256.411, 441.7000
1256.893, 440.7541
1257.375, 441.5990
1257.858, 442.3258
1258.340, 442.6175
1258.822, 443.2143
1259.304, 444.4171
1259.786, 445.2911
1260.268, 445.2444
1260.750, 444.1918
1261.232, 440.5086
1261.714, 437.2391
1262.197, 438.7458
1262.679, 441.9960
1263.161, 442.0890
1263.643, 439.7522
1264.125, 439.1806
1264.607, 441.3816
1265.089, 443.6102
1265.571, 445.8123
1266.053, 447.3124
1266.536, 448.3903
1267.018, 448.0177
1267.500, 444.2074
1267.982, 441.4771
1268.464, 445.0185
1268.946, 451.2257
1269.428, 450.7620
1269.910, 444.0159
1270.393, 440.3249
1270.875, 439.6121
1271.357, 439.9888
1271.839, 441.1146
1272.321, 442.1589
1272.803, 442.8288
1273.285, 443.1575
1273.767, 443.0829
1274.250, 443.1871
1274.732, 444.8394
1275.214, 446.3822
1275.696, 445.4769
1276.178, 443.4395
1276.660, 441.3401
1277.142, 439.9192
1277.624, 440.8918
1278.106, 444.0292
1278.589, 445.3358
1279.071, 442.7043
1279.553, 440.7547
1280.035, 440.6145
1280.517, 440.8509
1280.999, 441.0947
1281.481, 441.5781
1281.963, 442.4591
1282.445, 443.6392
1282.928, 445.0809
1283.410, 446.6407
1283.892, 447.9022
1284.374, 448.8532
1284.856, 447.3256
1285.338, 443.6151
1285.820, 442.2874
1286.302, 443.9469
1286.785, 445.7219
1287.267, 446.2830
1287.749, 446.0274
1288.231, 445.2327
##END=



