##NAMES=Meionite
##RRUFFID=R040169
##IDEAL CHEMISTRY=Ca_4_Al_6_Si_6_O_24_(CO_3_)
##LOCALITY=Black Hills, South Dakota, USA
##OWNER=RRUFF
##SOURCE=University of Arizona Mineral Museum
##DESCRIPTION=White massive
##STATUS=The identification of this mineral has been confirmed by X-ray diffraction and chemical analysis
##URL=rruff.info/R040169
##MEASURED CHEMISTRY=(Ca_0.73_Na_0.24_K_0.03_)_4_(Si_0.58_Al_0.41_)_12_O_24_((CO_3_)_0.90_Cl_0.10_)
142.2325, 1263.029
142.7147, 1283.407
143.1968, 1320.069
143.6789, 1373.636
144.1610, 1428.178
144.6431, 1480.934
145.1252, 1536.558
145.6074, 1598.035
146.0895, 1665.167
146.5716, 1735.808
147.0537, 1809.014
147.5358, 1884.812
148.0179, 1959.343
148.5001, 2032.938
148.9822, 2104.988
149.4643, 2178.531
149.9464, 2253.452
150.4285, 2319.607
150.9106, 2368.021
151.3928, 2398.568
151.8749, 2424.668
152.3570, 2450.078
152.8391, 2469.417
153.3212, 2475.969
153.8033, 2468.958
154.2855, 2457.579
154.7676, 2449.043
155.2497, 2442.062
155.7318, 2431.224
156.2139, 2409.127
156.6960, 2385.977
157.1782, 2374.672
157.6603, 2377.012
158.1424, 2383.060
158.6245, 2386.120
159.1066, 2387.130
159.5887, 2388.172
160.0709, 2385.114
160.5530, 2384.092
161.0351, 2397.863
161.5172, 2431.406
161.9993, 2461.792
162.4814, 2467.142
162.9636, 2457.686
163.4457, 2451.182
163.9278, 2457.123
164.4099, 2468.798
164.8920, 2473.435
165.3741, 2468.887
165.8563, 2463.238
166.3384, 2465.950
166.8205, 2470.838
167.3026, 2466.203
167.7847, 2440.729
168.2668, 2404.785
168.7490, 2382.602
169.2311, 2380.643
169.7132, 2377.653
170.1953, 2360.367
170.6774, 2335.044
171.1595, 2311.265
171.6417, 2294.518
172.1238, 2281.650
172.6059, 2264.983
173.0880, 2244.163
173.5701, 2219.805
174.0522, 2186.468
174.5344, 2151.019
175.0165, 2124.818
175.4986, 2116.428
175.9807, 2118.812
176.4628, 2111.731
176.9449, 2089.656
177.4271, 2067.993
177.9092, 2053.706
178.3913, 2043.163
178.8734, 2031.208
179.3555, 2014.331
179.8376, 1995.160
180.3197, 1981.336
180.8019, 1974.425
181.2840, 1970.644
181.7661, 1970.044
182.2482, 1970.870
182.7303, 1970.772
183.2124, 1968.308
183.6946, 1964.689
184.1767, 1963.421
184.6588, 1965.371
185.1409, 1968.394
185.6230, 1970.744
186.1051, 1973.988
186.5873, 1980.907
187.0694, 1993.578
187.5515, 2008.422
188.0336, 2015.249
188.5157, 2007.054
188.9978, 2002.799
189.4800, 2007.352
189.9621, 2016.876
190.4442, 2028.489
190.9263, 2041.198
191.4084, 2053.277
191.8905, 2060.005
192.3727, 2057.406
192.8548, 2056.412
193.3369, 2059.881
193.8190, 2065.097
194.3011, 2070.127
194.7832, 2074.251
195.2654, 2076.537
195.7475, 2073.907
196.2296, 2059.989
196.7117, 2053.489
197.1938, 2061.038
197.6759, 2073.361
198.1581, 2082.889
198.6402, 2087.036
199.1223, 2087.604
199.6044, 2088.132
200.0865, 2090.359
200.5686, 2088.693
201.0508, 2084.009
201.5329, 2075.321
202.0150, 2058.912
202.4971, 2034.601
202.9792, 2010.117
203.4613, 1999.057
203.9435, 2009.633
204.4256, 2015.433
204.9077, 2011.961
205.3898, 2006.351
205.8719, 2003.796
206.3540, 2005.135
206.8362, 2007.171
207.3183, 2005.064
207.8004, 1996.253
208.2825, 1989.881
208.7646, 1987.615
209.2467, 1986.220
209.7289, 1984.491
210.2110, 1981.955
210.6931, 1978.155
211.1752, 1972.263
211.6573, 1963.554
212.1395, 1955.526
212.6216, 1946.057
213.1037, 1938.999
213.5858, 1936.333
214.0679, 1938.047
214.5500, 1943.312
215.0322, 1952.760
215.5143, 1968.222
215.9964, 1975.204
216.4785, 1964.118
216.9606, 1953.596
217.4427, 1950.376
217.9249, 1953.917
218.4070, 1960.656
218.8891, 1968.391
219.3712, 1977.259
219.8533, 1982.111
220.3354, 1978.077
220.8176, 1974.563
221.2997, 1977.772
221.7818, 1983.425
222.2639, 1981.690
222.7460, 1963.816
223.2281, 1932.303
223.7103, 1915.747
224.1924, 1929.658
224.6745, 1942.729
225.1566, 1947.660
225.6387, 1947.821
226.1208, 1948.865
226.6030, 1954.111
227.0851, 1962.486
227.5672, 1969.974
228.0493, 1982.283
228.5314, 1985.042
229.0135, 1965.315
229.4957, 1939.259
229.9778, 1927.148
230.4599, 1938.545
230.9420, 1962.766
231.4241, 1972.683
231.9062, 1956.667
232.3884, 1945.874
232.8705, 1947.545
233.3526, 1953.586
233.8347, 1957.077
234.3168, 1955.721
234.7989, 1951.824
235.2811, 1949.792
235.7632, 1952.051
236.2453, 1950.188
236.7274, 1937.038
237.2095, 1924.461
237.6916, 1921.494
238.1738, 1929.338
238.6559, 1941.213
239.1380, 1949.469
239.6201, 1954.024
240.1022, 1955.091
240.5843, 1944.824
241.0665, 1937.489
241.5486, 1943.502
242.0307, 1960.990
242.5128, 1977.823
242.9949, 1979.207
243.4770, 1962.766
243.9592, 1959.795
244.4413, 1983.233
244.9234, 2008.883
245.4055, 2030.593
245.8876, 2047.418
246.3697, 2058.775
246.8519, 2062.768
247.3340, 2060.487
247.8161, 2061.361
248.2982, 2065.093
248.7803, 2072.969
249.2624, 2088.949
249.7446, 2108.369
250.2267, 2123.420
250.7088, 2129.127
251.1909, 2128.765
251.6730, 2131.034
252.1551, 2134.312
252.6373, 2144.084
253.1194, 2167.836
253.6015, 2195.818
254.0836, 2218.105
254.5657, 2231.288
255.0478, 2236.880
255.5300, 2234.027
256.0121, 2218.240
256.4942, 2211.248
256.9763, 2237.227
257.4584, 2264.034
257.9406, 2264.560
258.4227, 2232.444
258.9048, 2191.878
259.3869, 2170.239
259.8690, 2168.664
260.3511, 2157.908
260.8333, 2121.747
261.3154, 2084.059
261.7975, 2065.310
262.2796, 2064.852
262.7617, 2061.562
263.2438, 2035.744
263.7260, 1992.047
264.2081, 1959.280
264.6902, 1947.038
265.1723, 1935.832
265.6544, 1909.288
266.1365, 1871.503
266.6187, 1836.305
267.1008, 1809.964
267.5829, 1790.631
268.0650, 1776.156
268.5471, 1768.623
269.0292, 1759.023
269.5114, 1737.880
269.9935, 1710.716
270.4756, 1686.529
270.9577, 1667.954
271.4398, 1653.043
271.9219, 1640.963
272.4041, 1631.811
272.8862, 1621.095
273.3683, 1605.411
273.8504, 1587.255
274.3325, 1571.102
274.8146, 1555.989
275.2968, 1545.002
275.7789, 1541.820
276.2610, 1544.980
276.7431, 1548.666
277.2252, 1551.212
277.7073, 1552.873
278.1895, 1555.286
278.6716, 1560.092
279.1537, 1559.002
279.6358, 1540.800
280.1179, 1516.579
280.6000, 1507.405
281.0822, 1519.224
281.5643, 1537.974
282.0464, 1547.122
282.5285, 1545.730
283.0106, 1546.184
283.4927, 1553.211
283.9749, 1560.523
284.4570, 1560.182
284.9391, 1552.380
285.4212, 1546.977
285.9033, 1552.743
286.3854, 1569.599
286.8676, 1582.980
287.3497, 1593.678
287.8318, 1600.553
288.3139, 1600.241
288.7960, 1595.385
289.2781, 1592.286
289.7603, 1594.177
290.2424, 1600.868
290.7245, 1611.846
291.2066, 1635.985
291.6887, 1653.240
292.1708, 1656.531
292.6530, 1652.738
293.1351, 1650.176
293.6172, 1651.779
294.0993, 1655.462
294.5814, 1657.955
295.0635, 1662.455
295.5457, 1658.770
296.0278, 1640.909
296.5099, 1619.883
296.9920, 1603.610
297.4741, 1592.745
297.9562, 1583.002
298.4384, 1569.457
298.9205, 1550.949
299.4026, 1536.685
299.8847, 1530.813
300.3668, 1524.913
300.8489, 1516.099
301.3311, 1504.943
301.8131, 1492.854
302.2953, 1480.280
302.7774, 1468.010
303.2595, 1460.509
303.7416, 1462.617
304.2237, 1462.422
304.7058, 1458.318
305.1880, 1450.590
305.6701, 1438.849
306.1522, 1422.843
306.6343, 1404.929
307.1164, 1387.989
307.5985, 1371.002
308.0807, 1359.102
308.5628, 1355.807
309.0449, 1356.307
309.5270, 1359.839
310.0091, 1365.662
310.4912, 1369.982
310.9734, 1369.635
311.4555, 1364.817
311.9376, 1356.812
312.4197, 1341.933
312.9018, 1329.505
313.3839, 1328.486
313.8661, 1334.439
314.3482, 1335.608
314.8303, 1322.220
315.3124, 1302.775
315.7945, 1292.119
316.2766, 1291.005
316.7588, 1294.530
317.2409, 1304.333
317.7230, 1315.753
318.2051, 1321.020
318.6872, 1318.013
319.1693, 1310.812
319.6515, 1298.971
320.1336, 1284.407
320.6157, 1276.831
321.0978, 1282.446
321.5799, 1291.937
322.0620, 1287.909
322.5442, 1267.491
323.0263, 1254.030
323.5084, 1259.362
323.9905, 1273.053
324.4726, 1282.734
324.9547, 1286.333
325.4369, 1284.966
325.9190, 1278.147
326.4011, 1265.116
326.8832, 1258.584
327.3653, 1262.540
327.8474, 1269.005
328.3296, 1274.928
328.8117, 1279.770
329.2938, 1282.647
329.7759, 1282.774
330.2580, 1281.043
330.7401, 1281.505
331.2223, 1287.158
331.7044, 1291.298
332.1865, 1291.695
332.6686, 1290.955
333.1507, 1292.396
333.6328, 1296.861
334.1150, 1301.877
334.5971, 1303.379
335.0792, 1298.890
335.5613, 1297.651
336.0434, 1302.929
336.5255, 1308.171
337.0077, 1309.635
337.4898, 1307.892
337.9719, 1305.736
338.4540, 1305.064
338.9361, 1305.913
339.4182, 1309.013
339.9004, 1317.768
340.3825, 1323.556
340.8646, 1321.439
341.3467, 1316.163
341.8288, 1313.466
342.3109, 1315.447
342.7931, 1320.891
343.2752, 1329.161
343.7573, 1340.992
344.2394, 1350.304
344.7215, 1352.187
345.2036, 1353.874
345.6858, 1362.532
346.1679, 1378.257
346.6500, 1392.441
347.1321, 1398.178
347.6142, 1398.252
348.0963, 1400.137
348.5785, 1404.505
349.0606, 1410.856
349.5427, 1418.606
350.0248, 1428.030
350.5069, 1440.405
350.9890, 1461.599
351.4712, 1481.422
351.9533, 1489.047
352.4354, 1486.828
352.9175, 1487.786
353.3996, 1499.264
353.8817, 1516.286
354.3639, 1524.732
354.8460, 1518.434
355.3281, 1518.184
355.8102, 1534.032
356.2923, 1555.891
356.7744, 1571.111
357.2566, 1577.266
357.7387, 1581.078
358.2208, 1590.604
358.7029, 1608.024
359.1850, 1618.698
359.6671, 1619.197
360.1493, 1617.442
360.6314, 1617.167
361.1135, 1617.418
361.5956, 1615.451
362.0777, 1609.560
362.5598, 1600.511
363.0420, 1590.884
363.5241, 1579.230
364.0062, 1569.445
364.4883, 1563.980
364.9704, 1559.117
365.4525, 1551.159
365.9347, 1539.603
366.4168, 1527.551
366.8989, 1518.407
367.3810, 1512.197
367.8631, 1507.564
368.3452, 1506.929
368.8274, 1504.807
369.3095, 1497.464
369.7916, 1486.603
370.2737, 1476.221
370.7558, 1467.168
371.2379, 1460.481
371.7201, 1460.072
372.2022, 1467.008
372.6843, 1469.730
373.1664, 1460.562
373.6485, 1445.946
374.1306, 1434.944
374.6128, 1427.222
375.0949, 1425.277
375.5770, 1435.192
376.0591, 1451.040
376.5412, 1461.547
377.0233, 1464.504
377.5055, 1461.114
377.9876, 1450.028
378.4697, 1430.139
378.9518, 1419.493
379.4339, 1426.759
379.9160, 1435.755
380.3982, 1433.661
380.8803, 1424.981
381.3624, 1425.333
381.8445, 1444.558
382.3266, 1473.658
382.8087, 1485.290
383.2909, 1456.088
383.7730, 1439.469
384.2551, 1447.584
384.7372, 1461.401
385.2193, 1465.451
385.7014, 1457.398
386.1836, 1444.589
386.6657, 1434.059
387.1478, 1425.885
387.6299, 1419.257
388.1120, 1413.145
388.5941, 1410.053
389.0763, 1411.758
389.5584, 1416.654
390.0405, 1423.106
390.5226, 1431.490
391.0047, 1438.099
391.4868, 1434.928
391.9690, 1420.511
392.4511, 1410.619
392.9332, 1412.270
393.4153, 1417.622
393.8974, 1419.709
394.3795, 1418.406
394.8617, 1415.136
395.3438, 1409.603
395.8259, 1402.894
396.3080, 1395.560
396.7901, 1387.423
397.2722, 1383.386
397.7544, 1389.055
398.2365, 1401.878
398.7186, 1408.000
399.2007, 1401.452
399.6828, 1395.007
400.1649, 1393.194
400.6471, 1394.817
401.1292, 1399.120
401.6113, 1405.905
402.0934, 1411.539
402.5755, 1409.790
403.0576, 1395.240
403.5398, 1390.289
404.0219, 1403.727
404.5040, 1417.175
404.9861, 1420.740
405.4682, 1416.316
405.9503, 1410.054
406.4325, 1405.351
406.9146, 1402.803
407.3967, 1404.865
407.8788, 1413.169
408.3609, 1422.879
408.8430, 1435.840
409.3252, 1447.957
409.8073, 1455.588
410.2894, 1458.321
410.7715, 1459.232
411.2536, 1457.451
411.7357, 1455.048
412.2179, 1464.928
412.7000, 1492.913
413.1821, 1521.090
413.6642, 1537.306
414.1463, 1544.827
414.6284, 1548.144
415.1106, 1543.911
415.5927, 1540.851
416.0748, 1544.879
416.5569, 1555.213
417.0390, 1570.732
417.5211, 1592.076
418.0033, 1614.532
418.4854, 1630.622
418.9675, 1637.666
419.4496, 1647.187
419.9317, 1664.399
420.4138, 1680.122
420.8960, 1687.244
421.3781, 1687.168
421.8602, 1685.153
422.3423, 1684.092
422.8244, 1684.872
423.3065, 1692.061
423.7887, 1717.177
424.2708, 1730.249
424.7529, 1723.110
425.2350, 1707.374
425.7171, 1689.039
426.1992, 1670.646
426.6814, 1657.081
427.1635, 1656.220
427.6456, 1666.526
428.1277, 1669.150
428.6098, 1661.095
429.0919, 1651.026
429.5741, 1639.817
430.0562, 1630.380
430.5383, 1628.249
431.0204, 1637.172
431.5025, 1648.326
431.9846, 1652.340
432.4668, 1652.160
432.9489, 1660.215
433.4310, 1681.866
433.9131, 1704.745
434.3952, 1710.311
434.8773, 1695.397
435.3595, 1699.925
435.8416, 1742.389
436.3237, 1790.139
436.8058, 1822.335
437.2879, 1843.283
437.7701, 1866.105
438.2522, 1897.147
438.7343, 1936.500
439.2164, 1984.964
439.6985, 2051.042
440.1806, 2110.918
440.6628, 2158.400
441.1449, 2205.502
441.6270, 2261.313
442.1091, 2324.543
442.5912, 2386.957
443.0733, 2439.204
443.5555, 2486.706
444.0376, 2550.862
444.5197, 2634.456
445.0018, 2727.125
445.4839, 2833.078
445.9660, 2943.050
446.4482, 3046.629
446.9303, 3140.780
447.4124, 3239.298
447.8945, 3357.549
448.3766, 3484.899
448.8587, 3598.353
449.3409, 3695.050
449.8230, 3782.600
450.3051, 3868.711
450.7872, 3951.550
451.2693, 4017.361
451.7514, 4066.811
452.2336, 4100.068
452.7157, 4113.867
453.1978, 4112.509
453.6799, 4103.872
454.1620, 4089.580
454.6441, 4060.535
455.1263, 4002.048
455.6084, 3907.565
456.0905, 3821.286
456.5726, 3748.255
457.0547, 3679.513
457.5368, 3606.890
458.0190, 3538.272
458.5011, 3488.541
458.9832, 3466.010
459.4653, 3454.292
459.9474, 3430.896
460.4295, 3395.797
460.9117, 3357.075
461.3938, 3316.950
461.8759, 3272.409
462.3580, 3220.116
462.8401, 3161.004
463.3222, 3098.375
463.8044, 3028.596
464.2865, 2958.868
464.7686, 2898.249
465.2507, 2844.135
465.7328, 2785.251
466.2149, 2716.138
466.6971, 2641.885
467.1792, 2573.411
467.6613, 2513.053
468.1434, 2453.767
468.6255, 2393.800
469.1076, 2336.288
469.5898, 2283.685
470.0719, 2235.578
470.5540, 2191.485
471.0361, 2151.335
471.5182, 2113.578
472.0003, 2071.571
472.4825, 2021.784
472.9646, 1978.159
473.4467, 1951.009
473.9288, 1925.972
474.4109, 1892.369
474.8930, 1850.705
475.3752, 1811.164
475.8573, 1776.648
476.3394, 1749.159
476.8215, 1735.192
477.3036, 1735.016
477.7857, 1733.707
478.2679, 1723.943
478.7500, 1708.261
479.2321, 1692.374
479.7142, 1676.509
480.1963, 1660.231
480.6784, 1644.135
481.1606, 1627.144
481.6427, 1607.285
482.1248, 1585.115
482.6069, 1563.780
483.0890, 1545.434
483.5711, 1529.915
484.0533, 1515.792
484.5354, 1501.653
485.0175, 1491.509
485.4996, 1489.984
485.9817, 1489.301
486.4638, 1482.872
486.9460, 1470.277
487.4281, 1456.313
487.9102, 1443.535
488.3923, 1432.308
488.8744, 1425.199
489.3565, 1423.503
489.8387, 1418.208
490.3208, 1401.856
490.8029, 1380.536
491.2850, 1366.814
491.7671, 1362.019
492.2492, 1360.636
492.7314, 1365.156
493.2135, 1369.750
493.6956, 1367.537
494.1777, 1358.125
494.6598, 1344.654
495.1419, 1328.529
495.6241, 1311.072
496.1062, 1300.700
496.5883, 1304.970
497.0704, 1305.945
497.5525, 1296.078
498.0346, 1286.312
498.5168, 1288.741
498.9989, 1302.733
499.4810, 1314.516
499.9631, 1311.013
500.4452, 1296.285
500.9273, 1286.608
501.4095, 1283.865
501.8916, 1277.660
502.3737, 1258.073
502.8558, 1235.678
503.3379, 1228.196
503.8200, 1239.767
504.3022, 1250.094
504.7843, 1247.847
505.2664, 1242.511
505.7485, 1247.514
506.2306, 1262.126
506.7127, 1273.321
507.1949, 1272.045
507.6770, 1260.981
508.1591, 1251.707
508.6412, 1241.873
509.1233, 1237.662
509.6054, 1244.547
510.0876, 1252.903
510.5697, 1253.774
511.0518, 1248.461
511.5339, 1246.713
512.0161, 1258.432
512.4982, 1276.881
512.9803, 1279.871
513.4624, 1263.094
513.9445, 1257.457
514.4266, 1278.608
514.9088, 1312.254
515.3909, 1340.643
515.8730, 1363.809
516.3551, 1382.652
516.8372, 1395.130
517.3193, 1405.184
517.8015, 1415.248
518.2836, 1426.084
518.7657, 1438.646
519.2478, 1452.898
519.7299, 1471.458
520.2120, 1501.374
520.6942, 1552.176
521.1763, 1596.416
521.6584, 1629.107
522.1405, 1660.616
522.6226, 1695.247
523.1047, 1733.486
523.5869, 1774.665
524.0690, 1819.254
524.5511, 1865.289
525.0332, 1907.426
525.5153, 1945.742
525.9974, 1993.449
526.4796, 2058.029
526.9617, 2125.961
527.4438, 2180.775
527.9259, 2224.416
528.4080, 2272.105
528.8901, 2340.367
529.3723, 2399.068
529.8544, 2427.081
530.3365, 2433.410
530.8186, 2436.624
531.3007, 2442.989
531.7828, 2444.166
532.2650, 2430.425
532.7471, 2403.280
533.2292, 2350.792
533.7113, 2248.364
534.1934, 2147.578
534.6755, 2060.567
535.1577, 1985.895
535.6398, 1921.387
536.1219, 1866.650
536.6040, 1817.392
537.0861, 1769.564
537.5682, 1724.067
538.0504, 1685.331
538.5325, 1654.861
539.0146, 1625.247
539.4967, 1591.994
539.9788, 1555.463
540.4609, 1518.317
540.9431, 1476.844
541.4252, 1439.391
541.9073, 1407.343
542.3894, 1380.265
542.8715, 1358.388
543.3536, 1341.175
543.8358, 1327.639
544.3179, 1318.349
544.8000, 1310.729
545.2821, 1291.160
545.7642, 1252.023
546.2463, 1221.959
546.7285, 1215.515
547.2106, 1215.738
547.6927, 1209.852
548.1748, 1197.830
548.6569, 1186.539
549.1390, 1182.378
549.6211, 1178.101
550.1032, 1162.708
550.5853, 1139.218
551.0674, 1121.489
551.5496, 1115.115
552.0317, 1115.952
552.5138, 1117.669
552.9959, 1120.930
553.4780, 1122.797
553.9601, 1125.100
554.4423, 1124.302
554.9244, 1116.632
555.4065, 1105.651
555.8886, 1096.601
556.3707, 1091.357
556.8528, 1088.681
557.3350, 1089.839
557.8171, 1093.528
558.2992, 1086.827
558.7813, 1064.430
559.2634, 1044.664
559.7455, 1039.598
560.2277, 1046.807
560.7098, 1056.761
561.1919, 1071.883
561.6740, 1085.396
562.1561, 1097.548
562.6382, 1105.602
563.1204, 1105.121
563.6025, 1096.912
564.0846, 1086.598
564.5667, 1077.891
565.0488, 1070.791
565.5309, 1065.095
566.0131, 1060.619
566.4952, 1058.018
566.9773, 1057.497
567.4594, 1058.929
567.9415, 1064.288
568.4236, 1072.169
568.9058, 1076.594
569.3879, 1074.683
569.8700, 1068.560
570.3521, 1056.578
570.8342, 1041.738
571.3163, 1035.335
571.7985, 1041.299
572.2806, 1051.805
572.7627, 1057.490
573.2448, 1057.719
573.7269, 1059.300
574.2090, 1067.168
574.6912, 1070.455
575.1733, 1062.982
575.6554, 1051.334
576.1375, 1041.911
576.6196, 1036.450
577.1017, 1034.646
577.5839, 1037.011
578.0660, 1042.794
578.5481, 1051.162
579.0302, 1062.976
579.5123, 1068.987
579.9944, 1062.408
580.4766, 1049.792
580.9587, 1044.121
581.4408, 1046.807
581.9229, 1048.793
582.4050, 1048.472
582.8871, 1047.437
583.3693, 1046.983
583.8514, 1046.631
584.3335, 1045.251
584.8156, 1042.331
585.2977, 1038.040
585.7798, 1030.327
586.2620, 1018.033
586.7441, 1018.113
587.2262, 1041.716
587.7083, 1060.669
588.1904, 1054.190
588.6725, 1033.823
589.1547, 1017.499
589.6368, 1007.928
590.1189, 1001.436
590.6010, 996.0150
591.0831, 992.7920
591.5652, 995.5270
592.0474, 1002.927
592.5295, 1006.655
593.0116, 1000.550
593.4937, 988.6894
593.9758, 984.8381
594.4579, 996.5485
594.9401, 998.3333
595.4222, 973.6978
595.9043, 951.8300
596.3864, 950.8081
596.8685, 964.2018
597.3506, 973.9741
597.8328, 971.0782
598.3149, 967.1835
598.7970, 975.7521
599.2791, 991.3171
599.7612, 999.1549
600.2433, 996.4385
600.7255, 990.2900
601.2076, 986.3624
601.6897, 984.4131
602.1718, 982.3926
602.6539, 975.7418
603.1360, 975.5672
603.6182, 990.1266
604.1003, 1005.494
604.5824, 1009.655
605.0645, 1004.256
605.5466, 1000.699
606.0287, 1008.482
606.5109, 1017.626
606.9930, 1008.825
607.4751, 985.1110
607.9572, 972.2303
608.4393, 978.4402
608.9214, 989.5827
609.4036, 992.4984
609.8857, 987.1057
610.3678, 977.4874
610.8499, 952.7581
611.3320, 937.9704
611.8141, 946.9253
612.2963, 963.5459
612.7784, 971.9594
613.2605, 970.4711
613.7426, 967.2007
614.2247, 970.0997
614.7068, 974.0501
615.1890, 962.3986
615.6711, 934.0275
616.1532, 916.1129
616.6353, 919.2598
617.1174, 930.7820
617.5995, 938.3682
618.0817, 941.9296
618.5638, 940.8290
619.0459, 930.8739
619.5280, 921.0755
620.0101, 914.1109
620.4922, 909.6543
620.9744, 907.8260
621.4565, 908.2089
621.9386, 908.7425
622.4207, 907.0634
622.9028, 904.2695
623.3849, 905.0219
623.8671, 909.8626
624.3492, 915.5345
624.8313, 923.3945
625.3134, 929.0170
625.7955, 924.4044
626.2776, 910.2586
626.7598, 901.5364
627.2419, 904.4831
627.7240, 908.7944
628.2061, 910.3673
628.6882, 909.6037
629.1703, 906.2552
629.6525, 900.8724
630.1346, 896.7120
630.6167, 897.4489
631.0988, 902.0867
631.5809, 904.5842
632.0630, 903.8862
632.5452, 905.5547
633.0273, 914.5071
633.5094, 923.3918
633.9915, 922.7947
634.4736, 913.2991
634.9557, 905.8038
635.4379, 901.0825
635.9200, 900.3735
636.4021, 910.3037
636.8842, 922.5228
637.3663, 921.0782
637.8484, 903.8892
638.3306, 886.9413
638.8127, 886.9545
639.2948, 900.9472
639.7769, 911.6849
640.2590, 920.1598
640.7411, 921.3108
641.2233, 906.7183
641.7054, 890.8925
642.1875, 891.7892
642.6696, 907.6633
643.1517, 916.4255
643.6339, 907.5408
644.1160, 896.8310
644.5981, 891.6107
645.0802, 890.7200
645.5623, 893.5907
646.0444, 899.2890
646.5266, 903.8374
647.0087, 903.0197
647.4908, 898.2584
647.9729, 896.0076
648.4550, 896.2430
648.9371, 899.8094
649.4193, 912.3163
649.9014, 922.3097
650.3835, 916.1083
650.8656, 896.2148
651.3477, 879.9689
651.8298, 867.5880
652.3120, 862.4208
652.7941, 873.8898
653.2762, 889.6428
653.7583, 890.0577
654.2404, 874.4816
654.7225, 861.0275
655.2047, 865.2345
655.6868, 881.4780
656.1689, 891.8441
656.6510, 896.0789
657.1331, 895.2699
657.6152, 886.1276
658.0974, 877.0568
658.5795, 877.8660
659.0616, 885.8916
659.5437, 889.1049
660.0258, 880.6659
660.5079, 874.4435
660.9901, 874.8358
661.4722, 879.9623
661.9543, 890.3347
662.4364, 903.9528
662.9185, 914.8029
663.4006, 918.6800
663.8828, 917.9224
664.3649, 918.2196
664.8470, 919.7487
665.3291, 915.1100
665.8112, 899.4635
666.2933, 886.3461
666.7755, 887.2888
667.2576, 899.2413
667.7397, 908.1176
668.2218, 914.4808
668.7039, 916.8999
669.1860, 906.8494
669.6682, 899.5070
670.1503, 911.6190
670.6324, 936.9697
671.1145, 955.9880
671.5966, 958.6744
672.0787, 954.1063
672.5609, 955.4020
673.0430, 961.3381
673.5251, 962.4363
674.0072, 957.0154
674.4893, 950.9883
674.9714, 946.3461
675.4536, 944.6638
675.9357, 951.1734
676.4178, 975.3649
676.8999, 986.7977
677.3820, 977.8680
677.8641, 962.9633
678.3463, 946.1735
678.8284, 929.7820
679.3105, 916.5057
679.7926, 907.2288
680.2747, 899.8127
680.7568, 891.1923
681.2390, 883.2960
681.7211, 882.5922
682.2032, 888.8199
682.6853, 892.3726
683.1674, 888.6545
683.6495, 881.7975
684.1317, 878.2578
684.6138, 878.8711
685.0959, 878.4337
685.5780, 875.9272
686.0601, 873.5723
686.5422, 872.4772
687.0244, 871.4381
687.5065, 868.6696
687.9886, 864.1938
688.4707, 860.7059
688.9528, 859.5192
689.4349, 860.2568
689.9171, 863.5371
690.3992, 868.3810
690.8813, 872.1309
691.3634, 874.0424
691.8455, 874.4699
692.3276, 873.8173
692.8098, 872.0002
693.2919, 867.5993
693.7740, 857.1631
694.2561, 851.8431
694.7382, 857.0737
695.2203, 865.1057
695.7025, 873.1659
696.1846, 879.8886
696.6667, 880.3633
697.1488, 867.1459
697.6309, 856.8105
698.1130, 859.0696
698.5952, 868.7150
699.0773, 884.0233
699.5594, 901.1891
700.0415, 907.6996
700.5236, 894.6965
701.0057, 872.8894
701.4879, 865.5676
701.9700, 873.5844
702.4521, 877.4396
702.9342, 874.2314
703.4163, 869.7277
703.8984, 865.8503
704.3806, 863.6000
704.8627, 866.0103
705.3448, 876.0305
705.8269, 881.9464
706.3090, 879.0565
706.7911, 874.7618
707.2733, 873.2415
707.7554, 873.4730
708.2375, 872.6218
708.7196, 869.9863
709.2017, 868.9785
709.6838, 876.2893
710.1660, 886.8491
710.6481, 884.3959
711.1302, 869.8464
711.6123, 863.4285
712.0944, 873.6275
712.5765, 889.0862
713.0587, 895.9608
713.5408, 893.8886
714.0229, 890.8256
714.5050, 881.9587
714.9871, 878.8866
715.4692, 890.7006
715.9514, 903.1696
716.4335, 903.2726
716.9156, 892.7220
717.3977, 883.4572
717.8798, 880.3448
718.3619, 880.0137
718.8441, 881.3247
719.3262, 882.9846
719.8083, 881.6706
720.2904, 877.7272
720.7725, 876.0747
721.2546, 880.2665
721.7368, 887.8594
722.2189, 892.7953
722.7010, 894.5311
723.1831, 897.7236
723.6652, 904.4343
724.1473, 909.1964
724.6295, 907.6545
725.1116, 902.5571
725.5937, 899.5959
726.0758, 899.2936
726.5579, 899.4269
727.0400, 896.3788
727.5222, 896.9095
728.0043, 911.4577
728.4864, 929.9313
728.9685, 933.5826
729.4506, 918.7040
729.9327, 903.1064
730.4149, 903.6273
730.8970, 914.5995
731.3791, 924.0427
731.8612, 932.0798
732.3433, 940.6736
732.8254, 950.9698
733.3076, 958.2554
733.7897, 957.1415
734.2718, 948.3037
734.7539, 940.0685
735.2360, 925.3718
735.7181, 923.3577
736.2003, 949.5192
736.6824, 976.1117
737.1645, 984.2742
737.6466, 979.1052
738.1287, 975.6628
738.6108, 976.1508
739.0930, 983.4004
739.5751, 1008.440
740.0572, 1034.809
740.5393, 1039.923
741.0214, 1027.935
741.5035, 1016.587
741.9857, 1014.205
742.4678, 1019.889
742.9499, 1035.120
743.4320, 1058.940
743.9141, 1078.900
744.3962, 1095.280
744.8784, 1104.837
745.3605, 1103.600
745.8426, 1099.001
746.3247, 1099.601
746.8068, 1105.028
747.2889, 1120.789
747.7711, 1164.790
748.2532, 1195.559
748.7353, 1192.980
749.2174, 1180.948
749.6995, 1180.508
750.1816, 1191.578
750.6638, 1202.423
751.1459, 1205.642
751.6280, 1210.268
752.1101, 1228.121
752.5922, 1252.089
753.0743, 1266.030
753.5565, 1270.181
754.0386, 1280.802
754.5207, 1308.190
755.0028, 1341.357
755.4849, 1355.169
755.9670, 1345.657
756.4492, 1356.293
756.9313, 1395.971
757.4134, 1436.175
757.8955, 1471.311
758.3776, 1495.498
758.8597, 1495.617
759.3419, 1469.335
759.8240, 1448.727
760.3061, 1438.166
760.7882, 1431.464
761.2703, 1429.814
761.7524, 1428.560
762.2346, 1420.407
762.7167, 1406.914
763.1988, 1399.469
763.6809, 1408.590
764.1630, 1419.270
764.6451, 1412.724
765.1273, 1394.466
765.6094, 1377.520
766.0915, 1363.811
766.5736, 1351.543
767.0557, 1340.265
767.5378, 1326.781
768.0200, 1301.718
768.5021, 1261.496
768.9842, 1233.115
769.4663, 1223.663
769.9484, 1211.969
770.4305, 1188.412
770.9127, 1157.902
771.3948, 1125.973
771.8769, 1092.254
772.3590, 1063.081
772.8411, 1038.741
773.3232, 1019.886
773.8054, 1010.609
774.2875, 1004.409
774.7696, 994.1079
775.2517, 979.7525
775.7338, 966.7385
776.2159, 959.3921
776.6981, 951.6656
777.1802, 933.5781
777.6623, 910.7057
778.1444, 898.6987
778.6265, 897.5610
779.1086, 889.7565
779.5908, 864.4771
780.0729, 834.5844
780.5550, 826.1472
781.0371, 842.1268
781.5192, 850.3257
782.0013, 850.0420
782.4835, 843.4584
782.9656, 827.5358
783.4477, 809.3357
783.9298, 798.1697
784.4119, 794.1642
784.8940, 790.3182
785.3762, 783.0378
785.8583, 780.2121
786.3404, 790.2013
786.8225, 800.5805
787.3046, 800.4518
787.7867, 790.8262
788.2689, 777.8219
788.7510, 761.8649
789.2331, 750.1652
789.7152, 753.4156
790.1973, 762.3911
790.6794, 761.2805
791.1616, 751.2087
791.6437, 742.0582
792.1258, 738.0319
792.6079, 738.3089
793.0900, 743.3520
793.5721, 752.1938
794.0543, 752.9971
794.5364, 743.2475
795.0185, 742.9926
795.5006, 762.9785
795.9827, 783.5711
796.4648, 784.9257
796.9470, 768.7828
797.4291, 753.9196
797.9112, 736.5544
798.3933, 726.1614
798.8754, 726.2181
799.3575, 730.3206
799.8397, 738.9321
800.3218, 747.7553
800.8039, 748.6921
801.2860, 738.9150
801.7681, 728.2750
802.2502, 719.6517
802.7324, 714.1407
803.2145, 715.3552
803.6966, 719.6053
804.1787, 719.0794
804.6608, 712.4953
805.1429, 706.2554
805.6251, 705.6569
806.1072, 709.0904
806.5893, 714.8425
807.0714, 722.1401
807.5535, 723.6436
808.0356, 717.6818
808.5178, 713.6987
808.9999, 719.1085
809.4820, 728.2980
809.9641, 726.0090
810.4462, 707.1991
810.9283, 695.3982
811.4105, 692.9495
811.8926, 693.6662
812.3747, 696.9579
812.8568, 701.1052
813.3389, 704.7053
813.8210, 707.7081
814.3032, 708.2590
814.7853, 702.8641
815.2674, 699.0684
815.7495, 703.3012
816.2316, 707.2403
816.7137, 698.7343
817.1959, 683.0477
817.6780, 678.7032
818.1601, 695.7469
818.6422, 714.7580
819.1243, 718.9987
819.6064, 714.8459
820.0886, 710.8470
820.5707, 707.6089
821.0528, 705.2167
821.5349, 703.5258
822.0170, 699.5076
822.4991, 687.3343
822.9813, 671.3368
823.4634, 672.9662
823.9455, 693.3815
824.4276, 707.5410
824.9097, 709.8684
825.3918, 706.4326
825.8740, 700.1887
826.3561, 692.8736
826.8382, 690.4594
827.3203, 694.2549
827.8024, 700.0497
828.2845, 713.0602
828.7667, 721.5809
829.2488, 719.5472
829.7309, 711.9923
830.2130, 703.0021
830.6951, 692.9934
831.1772, 688.2718
831.6594, 694.2649
832.1415, 701.0446
832.6236, 707.1077
833.1057, 709.8390
833.5878, 702.8091
834.0699, 690.0488
834.5521, 685.2461
835.0342, 695.9168
835.5163, 707.8417
835.9984, 706.8248
836.4805, 699.0574
836.9626, 693.9002
837.4448, 691.4617
837.9269, 689.6271
838.4090, 687.6680
838.8911, 686.0441
839.3732, 685.2231
839.8553, 685.1557
840.3375, 686.5737
840.8196, 689.5778
841.3017, 687.5641
841.7838, 677.9004
842.2659, 670.4752
842.7480, 672.3629
843.2302, 680.5982
843.7123, 687.9963
844.1944, 694.9439
844.6765, 699.8458
845.1586, 703.5673
845.6407, 703.9474
846.1229, 695.6106
846.6050, 686.8089
847.0871, 687.4125
847.5692, 696.5073
848.0513, 701.3243
848.5334, 698.4341
849.0156, 693.3859
849.4977, 682.7065
849.9798, 674.8635
850.4619, 678.6992
850.9440, 690.0353
851.4261, 699.6055
851.9083, 704.6753
852.3904, 706.9725
852.8725, 708.5981
853.3546, 707.2584
853.8367, 696.7507
854.3188, 682.5352
854.8010, 675.4505
855.2831, 677.4842
855.7652, 684.7610
856.2473, 695.5953
856.7294, 706.6734
857.2115, 713.2837
857.6937, 715.1275
858.1758, 708.1219
858.6579, 692.4152
859.1400, 681.4277
859.6221, 681.5629
860.1042, 687.7728
860.5864, 692.8912
861.0685, 697.0623
861.5506, 706.9423
862.0327, 726.8546
862.5148, 734.0651
862.9969, 716.9256
863.4791, 699.2031
863.9612, 702.0943
864.4433, 718.5122
864.9254, 722.2111
865.4075, 702.0088
865.8896, 692.4954
866.3718, 704.4454
866.8539, 713.7101
867.3360, 708.1094
867.8181, 697.8612
868.3002, 695.2623
868.7823, 700.5349
869.2645, 703.9052
869.7466, 702.2489
870.2287, 699.0883
870.7108, 693.2911
871.1929, 688.6121
871.6750, 689.6980
872.1572, 694.4375
872.6393, 697.6421
873.1214, 697.5760
873.6035, 696.2437
874.0856, 692.5035
874.5677, 690.3965
875.0499, 698.4453
875.5320, 710.4811
876.0141, 712.6888
876.4962, 703.5292
876.9783, 691.6345
877.4604, 682.1652
877.9426, 675.7963
878.4247, 674.2944
878.9068, 676.8813
879.3889, 681.7651
879.8710, 688.4059
880.3531, 692.3008
880.8353, 691.4262
881.3174, 690.2240
881.7995, 694.8284
882.2816, 703.4615
882.7637, 704.0930
883.2458, 695.6177
883.7280, 686.1891
884.2101, 674.8846
884.6922, 671.1741
885.1743, 685.0504
885.6564, 706.0670
886.1385, 710.3354
886.6207, 692.5879
887.1028, 681.9324
887.5849, 682.2231
888.0670, 683.4491
888.5491, 682.6008
889.0313, 682.0452
889.5134, 683.7263
889.9955, 687.4279
890.4776, 692.1299
890.9597, 697.2792
891.4418, 704.2634
891.9240, 721.9761
892.4061, 732.1301
892.8882, 717.8558
893.3703, 694.0773
893.8524, 680.6160
894.3345, 679.9568
894.8167, 683.5235
895.2988, 692.1133
895.7809, 698.9564
896.2630, 699.2349
896.7451, 696.9034
897.2272, 695.2443
897.7094, 694.7595
898.1915, 695.8532
898.6736, 698.6930
899.1557, 700.4644
899.6378, 697.1682
900.1199, 692.9451
900.6021, 692.6154
901.0842, 695.4399
901.5663, 702.2017
902.0484, 711.0934
902.5305, 712.2744
903.0126, 698.2645
903.4948, 682.0741
903.9769, 686.0691
904.4590, 702.9849
904.9411, 708.7236
905.4232, 703.9295
905.9053, 703.1259
906.3875, 710.9816
906.8696, 717.1026
907.3517, 710.1470
907.8338, 696.0326
908.3159, 695.3069
908.7980, 708.0780
909.2802, 718.5483
909.7623, 725.4567
910.2444, 726.5076
910.7265, 719.2796
911.2086, 709.7585
911.6907, 707.3000
912.1729, 711.7366
912.6550, 708.8743
913.1371, 694.4165
913.6192, 686.7988
914.1013, 692.4754
914.5834, 699.2032
915.0656, 698.0422
915.5477, 692.9594
916.0298, 693.4511
916.5119, 701.7067
916.9940, 707.2856
917.4761, 706.5560
917.9583, 708.2891
918.4404, 720.9896
918.9225, 731.3528
919.4046, 724.8216
919.8867, 706.8264
920.3688, 697.8452
920.8510, 702.2758
921.3331, 709.2799
921.8152, 724.5549
922.2973, 733.7277
922.7794, 724.0425
923.2615, 708.6755
923.7437, 704.4048
924.2258, 710.8545
924.7079, 713.4085
925.1900, 702.7670
925.6721, 695.6730
926.1542, 703.1088
926.6364, 712.8556
927.1185, 713.5706
927.6006, 710.1494
928.0827, 713.4274
928.5648, 725.0588
929.0469, 734.4149
929.5291, 735.5270
930.0112, 732.2673
930.4933, 723.3026
930.9754, 714.4883
931.4575, 714.7178
931.9396, 721.6796
932.4218, 726.8477
932.9039, 727.1639
933.3860, 726.6670
933.8681, 729.0875
934.3502, 732.4382
934.8323, 732.5964
935.3145, 732.2458
935.7966, 740.7231
936.2787, 755.6514
936.7608, 759.2552
937.2429, 741.3807
937.7250, 720.5712
938.2072, 721.4534
938.6893, 735.3928
939.1714, 744.2198
939.6535, 747.9557
940.1356, 747.3503
940.6177, 743.1266
941.0999, 739.6743
941.5820, 740.2063
942.0641, 742.6288
942.5462, 743.1031
943.0283, 742.0813
943.5104, 741.7324
943.9926, 742.1678
944.4747, 743.4246
944.9568, 745.4965
945.4389, 749.3972
945.9210, 756.5262
946.4031, 764.9654
946.8853, 768.8707
947.3674, 768.2728
947.8495, 769.0004
948.3316, 771.6093
948.8137, 773.7727
949.2958, 774.9979
949.7780, 772.7629
950.2601, 762.2856
950.7422, 747.2585
951.2243, 750.1855
951.7064, 775.4164
952.1885, 789.5653
952.6707, 787.2625
953.1528, 781.6806
953.6349, 777.8671
954.1170, 775.9405
954.5991, 775.9767
955.0812, 777.9993
955.5634, 783.6783
956.0455, 797.4787
956.5276, 799.8643
957.0097, 781.5647
957.4918, 765.8994
957.9739, 765.4849
958.4561, 775.2594
958.9382, 789.5034
959.4203, 809.6094
959.9024, 813.6241
960.3845, 787.6942
960.8666, 773.7361
961.3488, 784.2365
961.8309, 799.4285
962.3130, 810.2676
962.7951, 816.1827
963.2772, 814.3546
963.7593, 801.6464
964.2415, 798.1351
964.7236, 817.8915
965.2057, 826.3715
965.6878, 801.2060
966.1699, 779.2014
966.6520, 791.3898
967.1342, 822.3068
967.6163, 835.9333
968.0984, 826.8627
968.5805, 818.9332
969.0626, 810.9334
969.5447, 807.3347
970.0269, 812.2004
970.5090, 819.1945
970.9911, 823.2835
971.4732, 825.6981
971.9553, 830.4376
972.4374, 839.1755
972.9196, 845.5497
973.4017, 846.5768
973.8838, 847.8779
974.3659, 853.7231
974.8480, 858.7410
975.3301, 856.5685
975.8123, 849.5677
976.2944, 845.4029
976.7765, 845.1226
977.2586, 848.2202
977.7407, 859.0285
978.2228, 867.7874
978.7050, 866.7980
979.1871, 864.3492
979.6692, 871.3962
980.1513, 884.5281
980.6334, 889.3150
981.1155, 879.5163
981.5977, 871.1792
982.0798, 871.1266
982.5619, 871.2780
983.0440, 864.0926
983.5261, 857.3821
984.0082, 863.5831
984.4904, 878.7056
984.9725, 883.8916
985.4546, 869.3665
985.9367, 859.1153
986.4188, 863.8420
986.9009, 872.9087
987.3831, 882.6536
987.8652, 891.5114
988.3473, 897.0303
988.8294, 900.1047
989.3115, 905.5724
989.7936, 917.3398
990.2758, 924.2930
990.7579, 918.6402
991.2400, 910.2021
991.7221, 902.5414
992.2042, 897.5731
992.6863, 897.7684
993.1685, 902.5040
993.6506, 908.7849
994.1327, 917.3770
994.6148, 922.1840
995.0969, 919.7214
995.5790, 913.3699
996.0612, 899.5873
996.5433, 887.0635
997.0254, 888.2790
997.5075, 901.6232
997.9896, 914.2480
998.4717, 922.3661
998.9539, 927.4831
999.4360, 928.2780
999.9181, 928.5103
1000.400, 929.4861
1000.882, 932.2890
1001.364, 941.0876
1001.847, 953.2808
1002.329, 956.5804
1002.811, 942.1127
1003.293, 933.0431
1003.775, 945.3969
1004.257, 961.2662
1004.739, 969.8846
1005.221, 973.6804
1005.703, 976.0284
1006.186, 977.3417
1006.668, 976.5250
1007.150, 972.1642
1007.632, 969.2142
1008.114, 971.9404
1008.596, 974.6019
1009.078, 969.6513
1009.560, 965.0911
1010.043, 972.4761
1010.525, 989.7824
1011.007, 1005.938
1011.489, 1018.984
1011.971, 1025.560
1012.453, 1018.286
1012.935, 1010.966
1013.417, 1012.229
1013.899, 1017.866
1014.382, 1024.782
1014.864, 1031.248
1015.346, 1033.036
1015.828, 1026.696
1016.310, 1025.622
1016.792, 1042.147
1017.274, 1056.782
1017.756, 1057.286
1018.239, 1051.885
1018.721, 1045.994
1019.203, 1042.371
1019.685, 1046.443
1020.167, 1060.943
1020.649, 1075.498
1021.131, 1090.853
1021.613, 1100.480
1022.095, 1096.153
1022.578, 1089.245
1023.060, 1089.971
1023.542, 1096.885
1024.024, 1104.888
1024.506, 1113.617
1024.988, 1119.541
1025.470, 1118.593
1025.952, 1118.778
1026.435, 1124.277
1026.917, 1130.935
1027.399, 1136.783
1027.881, 1140.733
1028.363, 1139.436
1028.845, 1131.084
1029.327, 1129.676
1029.809, 1144.444
1030.292, 1157.145
1030.774, 1160.656
1031.256, 1162.844
1031.738, 1171.778
1032.220, 1182.056
1032.702, 1181.219
1033.184, 1166.958
1033.666, 1162.789
1034.148, 1181.236
1034.630, 1195.033
1035.113, 1199.438
1035.595, 1198.506
1036.077, 1190.498
1036.559, 1180.609
1037.041, 1176.381
1037.523, 1178.014
1038.005, 1181.630
1038.487, 1188.577
1038.970, 1195.224
1039.452, 1201.778
1039.934, 1207.467
1040.416, 1210.750
1040.898, 1213.905
1041.380, 1218.811
1041.862, 1225.731
1042.344, 1238.745
1042.826, 1267.935
1043.309, 1279.722
1043.791, 1261.147
1044.273, 1247.210
1044.755, 1251.688
1045.237, 1264.844
1045.719, 1278.691
1046.201, 1292.344
1046.683, 1301.547
1047.166, 1305.047
1047.648, 1309.685
1048.130, 1319.564
1048.612, 1316.018
1049.094, 1285.663
1049.576, 1261.123
1050.058, 1273.644
1050.540, 1307.524
1051.022, 1318.924
1051.505, 1304.818
1051.987, 1298.246
1052.469, 1300.031
1052.951, 1304.911
1053.433, 1312.139
1053.915, 1319.811
1054.397, 1326.814
1054.879, 1333.098
1055.361, 1337.364
1055.844, 1340.444
1056.326, 1353.437
1056.808, 1376.392
1057.290, 1401.683
1057.772, 1428.182
1058.254, 1440.075
1058.736, 1428.043
1059.218, 1409.158
1059.701, 1404.267
1060.183, 1412.069
1060.665, 1433.131
1061.147, 1463.793
1061.629, 1481.224
1062.111, 1484.880
1062.593, 1492.810
1063.075, 1511.899
1063.557, 1533.304
1064.040, 1548.968
1064.522, 1560.336
1065.004, 1566.301
1065.486, 1571.221
1065.968, 1589.498
1066.450, 1616.838
1066.932, 1634.519
1067.414, 1638.752
1067.896, 1641.853
1068.379, 1651.761
1068.861, 1665.560
1069.343, 1682.715
1069.825, 1699.615
1070.307, 1709.319
1070.789, 1715.659
1071.271, 1726.172
1071.753, 1741.836
1072.236, 1759.606
1072.718, 1777.943
1073.200, 1800.171
1073.682, 1832.690
1074.164, 1866.003
1074.646, 1891.561
1075.128, 1913.894
1075.610, 1938.902
1076.093, 1965.880
1076.575, 1989.582
1077.057, 2008.371
1077.539, 2034.127
1078.021, 2074.176
1078.503, 2119.334
1078.985, 2168.440
1079.467, 2218.031
1079.949, 2265.221
1080.432, 2311.448
1080.914, 2361.670
1081.396, 2415.559
1081.878, 2460.476
1082.360, 2474.089
1082.842, 2509.801
1083.324, 2592.625
1083.806, 2678.634
1084.288, 2755.915
1084.771, 2820.411
1085.253, 2862.146
1085.735, 2886.017
1086.217, 2916.160
1086.699, 2957.334
1087.181, 2991.768
1087.663, 3017.591
1088.145, 3039.669
1088.628, 3055.771
1089.110, 3075.531
1089.592, 3109.576
1090.074, 3148.059
1090.556, 3169.716
1091.038, 3174.168
1091.520, 3168.959
1092.002, 3149.981
1092.484, 3150.900
1092.967, 3180.373
1093.449, 3207.971
1093.931, 3218.074
1094.413, 3221.529
1094.895, 3233.065
1095.377, 3248.381
1095.859, 3251.121
1096.341, 3242.409
1096.823, 3227.632
1097.306, 3208.787
1097.788, 3200.284
1098.270, 3205.962
1098.752, 3210.533
1099.234, 3202.058
1099.716, 3185.122
1100.198, 3163.792
1100.680, 3140.711
1101.163, 3125.041
1101.645, 3111.265
1102.127, 3083.909
1102.609, 3042.645
1103.091, 2999.032
1103.573, 2958.981
1104.055, 2913.787
1104.537, 2845.408
1105.020, 2780.657
1105.502, 2754.358
1105.984, 2738.380
1106.466, 2694.735
1106.948, 2633.286
1107.430, 2580.550
1107.912, 2542.843
1108.394, 2519.480
1108.876, 2522.490
1109.359, 2521.054
1109.841, 2497.511
1110.323, 2473.101
1110.805, 2462.208
1111.287, 2456.901
1111.769, 2447.214
1112.251, 2433.451
1112.733, 2420.394
1113.215, 2406.325
1113.698, 2398.522
1114.180, 2398.934
1114.662, 2402.819
1115.144, 2410.346
1115.626, 2419.654
1116.108, 2431.264
1116.590, 2441.970
1117.072, 2444.792
1117.555, 2439.671
1118.037, 2441.241
1118.519, 2451.227
1119.001, 2458.424
1119.483, 2461.618
1119.965, 2460.258
1120.447, 2453.126
1120.929, 2447.824
1121.411, 2451.823
1121.894, 2464.230
1122.376, 2490.958
1122.858, 2524.669
1123.340, 2517.095
1123.822, 2477.029
1124.304, 2468.396
1124.786, 2500.156
1125.268, 2517.310
1125.750, 2487.567
1126.233, 2449.557
1126.715, 2449.578
1127.197, 2464.877
1127.679, 2464.331
1128.161, 2456.921
1128.643, 2457.732
1129.125, 2465.122
1129.607, 2469.891
1130.090, 2469.912
1130.572, 2470.766
1131.054, 2476.021
1131.536, 2481.424
1132.018, 2487.716
1132.500, 2490.164
1132.982, 2483.298
1133.464, 2472.385
1133.947, 2462.828
1134.429, 2455.097
1134.911, 2448.271
1135.393, 2441.320
1135.875, 2438.462
1136.357, 2445.371
1136.839, 2448.596
1137.321, 2446.874
1137.803, 2438.657
1138.286, 2415.994
1138.768, 2395.261
1139.250, 2404.578
1139.732, 2438.908
1140.214, 2448.263
1140.696, 2428.329
1141.178, 2417.344
1141.660, 2418.458
1142.142, 2420.556
1142.625, 2420.102
1143.107, 2419.787
1143.589, 2421.723
1144.071, 2424.917
1144.553, 2430.266
1145.035, 2434.619
1145.517, 2421.462
1145.999, 2400.115
1146.482, 2405.838
1146.964, 2434.478
1147.446, 2447.601
1147.928, 2431.729
1148.410, 2413.188
1148.892, 2412.618
1149.374, 2415.220
1149.856, 2401.808
1150.339, 2391.018
1150.821, 2409.331
1151.303, 2438.145
1151.785, 2450.868
1152.267, 2445.375
1152.749, 2428.312
1153.231, 2393.674
1153.713, 2378.290
1154.195, 2408.192
1154.677, 2433.762
1155.160, 2438.515
1155.642, 2436.120
1156.124, 2430.878
1156.606, 2427.351
1157.088, 2433.688
1157.570, 2448.651
1158.052, 2457.393
1158.534, 2458.780
1159.017, 2457.865
1159.499, 2453.319
1159.981, 2455.883
1160.463, 2468.979
1160.945, 2490.502
1161.427, 2521.422
1161.909, 2547.444
1162.391, 2538.870
1162.874, 2507.984
1163.356, 2491.483
1163.838, 2489.263
1164.320, 2508.196
1164.802, 2541.904
1165.284, 2566.059
1165.766, 2573.222
1166.248, 2573.253
1166.730, 2570.445
1167.213, 2568.602
1167.695, 2571.402
1168.177, 2575.996
1168.659, 2574.852
1169.141, 2577.636
1169.623, 2602.743
1170.105, 2641.541
1170.587, 2667.430
1171.069, 2675.229
1171.552, 2674.550
1172.034, 2656.198
1172.516, 2646.212
1172.998, 2651.134
1173.480, 2661.547
1173.962, 2677.317
1174.444, 2691.355
1174.926, 2694.728
1175.409, 2691.603
1175.891, 2695.981
1176.373, 2708.034
1176.855, 2730.382
1177.337, 2763.848
1177.819, 2767.269
1178.301, 2733.923
1178.783, 2705.604
1179.266, 2702.604
1179.748, 2717.577
1180.230, 2750.139
1180.712, 2782.135
1181.194, 2777.777
1181.676, 2756.257
1182.158, 2744.591
1182.640, 2744.925
1183.122, 2760.566
1183.604, 2787.414
1184.087, 2811.972
1184.569, 2830.519
1185.051, 2836.705
1185.533, 2814.725
1186.015, 2797.410
1186.497, 2803.834
1186.979, 2814.073
1187.461, 2814.174
1187.944, 2809.579
1188.426, 2809.851
1188.908, 2813.436
1189.390, 2808.711
1189.872, 2787.113
1190.354, 2791.661
1190.836, 2832.730
1191.318, 2850.780
1191.801, 2829.028
1192.283, 2810.223
1192.765, 2819.454
1193.247, 2836.308
1193.729, 2834.682
1194.211, 2822.638
1194.693, 2818.733
1195.175, 2820.860
1195.657, 2824.539
1196.140, 2828.848
1196.622, 2833.187
1197.104, 2836.922
1197.586, 2839.227
1198.068, 2840.251
1198.550, 2834.295
1199.032, 2805.652
1199.514, 2784.772
1199.996, 2802.568
1200.479, 2820.905
1200.961, 2804.054
1201.443, 2771.858
1201.925, 2756.161
1202.407, 2755.881
1202.889, 2747.559
1203.371, 2723.828
1203.853, 2716.777
1204.336, 2732.148
1204.818, 2746.250
1205.300, 2755.219
1205.782, 2759.031
1206.264, 2757.880
1206.746, 2749.765
1207.228, 2730.419
1207.710, 2705.926
1208.193, 2691.296
1208.675, 2684.141
1209.157, 2677.291
1209.639, 2671.911
1210.121, 2672.181
1210.603, 2678.903
1211.085, 2695.152
1211.567, 2722.633
1212.049, 2737.216
1212.531, 2713.855
1213.014, 2687.615
1213.496, 2674.356
1213.978, 2667.669
1214.460, 2662.954
1214.942, 2662.364
1215.424, 2678.071
1215.906, 2699.712
1216.388, 2685.873
1216.871, 2625.128
1217.353, 2602.898
1217.835, 2630.917
1218.317, 2647.177
1218.799, 2642.054
1219.281, 2631.650
1219.763, 2622.145
1220.245, 2615.746
1220.728, 2614.987
1221.210, 2616.218
1221.692, 2612.660
1222.174, 2606.627
1222.656, 2601.350
1223.138, 2598.118
1223.620, 2601.716
1224.102, 2609.114
1224.584, 2610.304
1225.067, 2603.290
1225.549, 2597.586
1226.031, 2597.338
1226.513, 2598.851
1226.995, 2601.927
1227.477, 2605.181
1227.959, 2612.176
1228.441, 2614.346
1228.923, 2600.690
1229.406, 2582.807
1229.888, 2582.629
1230.370, 2597.525
1230.852, 2595.937
##END=



