##NAMES=Melanovanadite
##RRUFFID=R050555
##IDEAL CHEMISTRY=CaV^4+^_2_V^5+^_2_O_10_&#183;5H_2_O
##LOCALITY=Ragra mine, Cerro de Pasco Province, Pasco Department, Peru
##OWNER=RRUFF
##SOURCE=Dave Bunk Minerals
##DESCRIPTION=Radiating aggregates of black prismatic crystals
##STATUS=The identification of this mineral has been confirmed by X-ray diffraction and chemical analysis
##URL=rruff.info/R050555
##MEASURED CHEMISTRY=(Ca_0.87_[box]_0.13_)_Σ=1_(V^5+^_2.26_V^4+^_1.74_)_Σ=4_O_10_·5H_2_O
91.11523, 37.87882
91.59735, 38.97317
92.07947, 37.72161
92.56158, 34.96788
93.04370, 33.37721
93.52582, 35.64476
94.00793, 40.05840
94.49006, 42.85807
94.97218, 43.50983
95.45429, 42.80786
95.93641, 41.55426
96.41853, 39.77042
96.90064, 38.32937
97.38276, 38.01737
97.86488, 38.73960
98.34699, 39.48932
98.82911, 40.19840
99.31123, 40.78112
99.79334, 40.74532
100.2755, 39.87786
100.7576, 39.13268
101.2397, 39.57939
101.7218, 41.56372
102.2039, 43.08904
102.6861, 43.61175
103.1682, 43.14815
103.6503, 43.00361
104.1324, 43.39997
104.6145, 43.86915
105.0966, 43.77552
105.5788, 42.63523
106.0609, 41.76931
106.5430, 41.52985
107.0251, 42.03317
107.5072, 42.74627
107.9893, 43.70216
108.4715, 44.86533
108.9536, 46.16511
109.4357, 47.23814
109.9178, 48.78613
110.3999, 51.04576
110.8820, 54.03769
111.3642, 57.66822
111.8463, 62.04098
112.3284, 67.07638
112.8105, 72.56872
113.2926, 78.60579
113.7747, 85.10261
114.2569, 91.93665
114.7390, 98.29816
115.2211, 105.9580
115.7032, 115.3977
116.1853, 126.4920
116.6674, 138.5500
117.1496, 151.9926
117.6317, 166.1781
118.1138, 180.4528
118.5959, 191.9826
119.0780, 205.9275
119.5602, 225.6506
120.0423, 251.0817
120.5244, 277.2721
121.0065, 301.4107
121.4886, 324.6913
121.9707, 348.7931
122.4529, 375.5529
122.9350, 402.4640
123.4171, 427.4948
123.8992, 450.5395
124.3813, 471.9438
124.8634, 491.6164
125.3456, 509.8285
125.8277, 527.2686
126.3098, 543.4045
126.7919, 559.0778
127.2740, 574.9888
127.7561, 590.8844
128.2383, 608.2803
128.7204, 628.8755
129.2025, 652.5406
129.6846, 678.5950
130.1667, 707.4512
130.6488, 738.2115
131.1310, 769.6042
131.6131, 800.9997
132.0952, 833.7814
132.5773, 871.3281
133.0594, 913.8864
133.5415, 956.9333
134.0237, 997.7662
134.5058, 1036.678
134.9879, 1075.360
135.4700, 1114.802
135.9521, 1154.027
136.4343, 1191.157
136.9164, 1226.187
137.3985, 1259.601
137.8806, 1292.646
138.3627, 1325.945
138.8448, 1356.005
139.3270, 1382.375
139.8091, 1405.326
140.2912, 1425.819
140.7733, 1442.958
141.2554, 1459.549
141.7375, 1478.271
142.2197, 1499.875
142.7018, 1522.133
143.1839, 1544.569
143.6660, 1567.054
144.1481, 1590.148
144.6302, 1612.974
145.1124, 1636.992
145.5945, 1663.862
146.0766, 1696.316
146.5587, 1727.908
147.0408, 1756.582
147.5230, 1780.989
148.0051, 1806.771
148.4872, 1825.759
148.9693, 1835.320
149.4514, 1846.585
149.9335, 1862.229
150.4157, 1876.986
150.8978, 1889.172
151.3799, 1898.269
151.8620, 1906.714
152.3441, 1915.027
152.8262, 1922.804
153.3084, 1929.032
153.7905, 1933.592
154.2726, 1936.754
154.7547, 1938.764
155.2368, 1940.319
155.7189, 1939.518
156.2011, 1936.183
156.6832, 1930.358
157.1653, 1922.186
157.6474, 1909.798
158.1295, 1896.389
158.6116, 1883.699
159.0938, 1874.102
159.5759, 1862.261
160.0580, 1845.786
160.5401, 1825.733
161.0222, 1805.726
161.5044, 1787.657
161.9865, 1769.600
162.4686, 1750.223
162.9507, 1728.230
163.4328, 1705.945
163.9149, 1683.621
164.3971, 1661.276
164.8792, 1640.125
165.3613, 1621.004
165.8434, 1603.160
166.3255, 1585.826
166.8076, 1568.277
167.2898, 1551.833
167.7719, 1537.394
168.2540, 1524.815
168.7361, 1512.836
169.2182, 1500.236
169.7003, 1487.952
170.1825, 1477.107
170.6646, 1468.949
171.1467, 1461.799
171.6288, 1454.144
172.1109, 1446.060
172.5931, 1438.281
173.0752, 1431.755
173.5573, 1425.825
174.0394, 1419.408
174.5215, 1410.693
175.0036, 1401.978
175.4858, 1396.382
175.9679, 1393.931
176.4500, 1392.123
176.9321, 1388.605
177.4142, 1384.051
177.8963, 1380.068
178.3785, 1378.353
178.8606, 1377.250
179.3427, 1373.858
179.8248, 1367.940
180.3069, 1361.717
180.7890, 1358.057
181.2712, 1356.164
181.7533, 1353.519
182.2354, 1347.764
182.7175, 1340.586
183.1996, 1336.026
183.6818, 1334.408
184.1639, 1333.896
184.6460, 1332.752
185.1281, 1330.960
185.6102, 1328.342
186.0923, 1323.895
186.5745, 1318.461
187.0566, 1315.213
187.5387, 1314.618
188.0208, 1314.862
188.5029, 1313.653
188.9850, 1311.056
189.4672, 1307.695
189.9493, 1303.173
190.4314, 1297.933
190.9135, 1294.190
191.3956, 1292.317
191.8777, 1291.360
192.3599, 1289.705
192.8420, 1287.352
193.3241, 1285.293
193.8062, 1284.426
194.2883, 1284.561
194.7704, 1283.518
195.2526, 1280.785
195.7347, 1277.512
196.2168, 1275.900
196.6989, 1276.029
197.1810, 1276.516
197.6632, 1276.846
198.1453, 1277.007
198.6274, 1276.310
199.1095, 1274.438
199.5916, 1272.072
200.0737, 1270.559
200.5559, 1269.916
201.0380, 1270.000
201.5201, 1271.113
202.0022, 1273.415
202.4843, 1274.865
202.9664, 1275.196
203.4486, 1274.834
203.9307, 1274.514
204.4128, 1274.094
204.8949, 1274.367
205.3770, 1276.328
205.8591, 1280.458
206.3413, 1282.550
206.8234, 1281.629
207.3055, 1279.073
207.7876, 1278.408
208.2697, 1279.890
208.7519, 1282.417
209.2340, 1285.893
209.7161, 1290.816
210.1982, 1293.982
210.6803, 1294.835
211.1624, 1294.042
211.6446, 1293.383
212.1267, 1292.928
212.6088, 1292.487
213.0909, 1291.531
213.5730, 1289.295
214.0551, 1289.778
214.5373, 1294.033
215.0194, 1300.795
215.5015, 1306.613
215.9836, 1311.407
216.4657, 1315.506
216.9478, 1319.158
217.4300, 1322.390
217.9121, 1324.990
218.3942, 1326.616
218.8763, 1327.659
219.3584, 1329.150
219.8405, 1330.798
220.3227, 1333.332
220.8048, 1337.424
221.2869, 1344.125
221.7690, 1349.216
222.2511, 1351.609
222.7333, 1352.557
223.2154, 1355.883
223.6975, 1363.049
224.1796, 1370.224
224.6617, 1375.368
225.1438, 1377.319
225.6260, 1380.391
226.1081, 1384.832
226.5902, 1390.462
227.0723, 1396.686
227.5544, 1403.993
228.0365, 1411.280
228.5187, 1417.831
229.0008, 1422.649
229.4829, 1429.234
229.9650, 1438.521
230.4471, 1449.351
230.9292, 1458.682
231.4114, 1465.790
231.8935, 1472.593
232.3756, 1479.804
232.8577, 1487.637
233.3398, 1495.560
233.8220, 1503.626
234.3041, 1511.756
234.7862, 1519.450
235.2683, 1526.045
235.7504, 1533.218
236.2325, 1542.071
236.7147, 1553.762
237.1968, 1563.883
237.6789, 1572.158
238.1610, 1579.064
238.6431, 1585.626
239.1252, 1592.385
239.6074, 1598.194
240.0895, 1602.658
240.5716, 1605.662
241.0537, 1607.539
241.5358, 1607.831
242.0179, 1607.209
242.5001, 1606.961
242.9822, 1607.142
243.4643, 1607.527
243.9464, 1608.176
244.4285, 1609.451
244.9106, 1609.429
245.3928, 1606.983
245.8749, 1603.830
246.3570, 1603.323
246.8391, 1607.587
247.3212, 1610.750
247.8034, 1610.473
248.2855, 1605.564
248.7676, 1602.240
249.2497, 1600.860
249.7318, 1600.807
250.2139, 1601.415
250.6961, 1603.766
251.1782, 1604.859
251.6603, 1603.568
252.1424, 1599.418
252.6245, 1595.872
253.1066, 1593.368
253.5888, 1591.086
254.0709, 1587.756
254.5530, 1582.611
255.0351, 1577.996
255.5172, 1574.837
255.9993, 1573.344
256.4815, 1570.697
256.9636, 1566.326
257.4457, 1561.434
257.9278, 1557.372
258.4099, 1554.422
258.8921, 1551.634
259.3742, 1548.813
259.8563, 1545.984
260.3384, 1543.052
260.8205, 1540.135
261.3026, 1537.011
261.7848, 1533.133
262.2669, 1527.781
262.7490, 1523.814
263.2311, 1522.154
263.7132, 1522.636
264.1953, 1522.950
264.6775, 1523.383
265.1596, 1523.161
265.6417, 1521.274
266.1238, 1517.014
266.6059, 1513.580
267.0880, 1511.721
267.5702, 1511.192
268.0523, 1510.803
268.5344, 1511.270
269.0165, 1510.377
269.4986, 1505.609
269.9807, 1495.532
270.4629, 1487.850
270.9450, 1484.015
271.4271, 1483.167
271.9092, 1482.248
272.3913, 1481.406
272.8734, 1480.055
273.3556, 1477.565
273.8377, 1473.701
274.3198, 1470.351
274.8019, 1467.885
275.2840, 1465.851
275.7661, 1462.760
276.2483, 1458.310
276.7304, 1454.079
277.2125, 1451.531
277.6946, 1450.876
278.1768, 1448.527
278.6589, 1443.774
279.1410, 1437.914
279.6231, 1433.708
280.1052, 1431.339
280.5873, 1429.175
281.0695, 1426.522
281.5516, 1423.378
282.0337, 1419.854
282.5158, 1415.918
282.9979, 1411.686
283.4800, 1406.816
283.9622, 1401.203
284.4443, 1396.960
284.9264, 1395.687
285.4085, 1396.974
285.8906, 1397.161
286.3727, 1396.145
286.8549, 1394.327
287.3370, 1391.950
287.8191, 1389.042
288.3012, 1386.332
288.7833, 1384.325
289.2654, 1382.745
289.7476, 1380.383
290.2297, 1377.156
290.7118, 1373.870
291.1939, 1371.411
291.6760, 1369.705
292.1581, 1368.194
292.6403, 1367.183
293.1224, 1366.033
293.6045, 1362.787
294.0866, 1357.469
294.5687, 1351.939
295.0508, 1347.350
295.5330, 1343.773
296.0151, 1341.712
296.4972, 1341.861
296.9793, 1342.845
297.4614, 1342.097
297.9435, 1339.814
298.4257, 1337.679
298.9078, 1337.332
299.3899, 1337.995
299.8720, 1338.026
300.3541, 1337.098
300.8362, 1335.523
301.3184, 1333.246
301.8005, 1330.484
302.2826, 1328.224
302.7647, 1327.497
303.2469, 1327.483
303.7290, 1326.874
304.2111, 1325.385
304.6932, 1323.813
305.1753, 1323.156
305.6574, 1323.041
306.1396, 1322.625
306.6217, 1321.302
307.1038, 1319.543
307.5859, 1317.801
308.0680, 1316.091
308.5501, 1314.396
309.0323, 1312.514
309.5144, 1310.664
309.9965, 1309.198
310.4786, 1308.853
310.9607, 1308.515
311.4428, 1307.161
311.9250, 1304.829
312.4071, 1302.619
312.8892, 1301.406
313.3713, 1300.630
313.8534, 1299.689
314.3355, 1298.094
314.8177, 1296.569
315.2998, 1295.709
315.7819, 1295.351
316.2640, 1294.588
316.7461, 1292.397
317.2282, 1289.989
317.7104, 1288.338
318.1925, 1288.504
318.6746, 1288.172
319.1567, 1286.252
319.6388, 1283.186
320.1209, 1280.204
320.6031, 1277.570
321.0852, 1275.203
321.5673, 1273.009
322.0494, 1270.865
322.5315, 1269.177
323.0136, 1269.008
323.4958, 1269.205
323.9779, 1267.894
324.4600, 1263.441
324.9421, 1258.645
325.4242, 1254.208
325.9064, 1249.960
326.3885, 1246.952
326.8706, 1246.528
327.3527, 1246.890
327.8348, 1246.133
328.3170, 1241.923
328.7991, 1239.027
329.2812, 1238.943
329.7633, 1241.773
330.2454, 1242.806
330.7275, 1241.736
331.2097, 1239.064
331.6918, 1234.892
332.1739, 1226.924
332.6560, 1221.183
333.1381, 1219.219
333.6202, 1220.085
334.1024, 1219.307
334.5845, 1215.849
335.0666, 1212.281
335.5487, 1210.232
336.0308, 1210.899
336.5129, 1209.573
336.9951, 1205.402
337.4772, 1199.761
337.9593, 1195.365
338.4414, 1192.637
338.9235, 1190.020
339.4056, 1186.735
339.8878, 1182.729
340.3699, 1179.718
340.8520, 1178.181
341.3341, 1176.737
341.8162, 1172.615
342.2983, 1165.370
342.7805, 1160.676
343.2626, 1161.584
343.7447, 1166.568
344.2268, 1167.210
344.7089, 1162.987
345.1910, 1157.381
345.6732, 1153.331
346.1553, 1150.683
346.6374, 1148.960
347.1195, 1148.425
347.6016, 1148.281
348.0837, 1146.453
348.5659, 1143.063
349.0480, 1140.298
349.5301, 1140.707
350.0122, 1142.907
350.4944, 1143.172
350.9765, 1140.794
351.4586, 1137.383
351.9407, 1134.517
352.4228, 1132.210
352.9049, 1130.485
353.3871, 1129.874
353.8692, 1129.629
354.3513, 1128.750
354.8334, 1127.164
355.3155, 1125.291
355.7976, 1123.122
356.2798, 1120.906
356.7619, 1119.022
357.2440, 1117.276
357.7261, 1116.169
358.2082, 1116.370
358.6903, 1117.703
359.1725, 1119.042
359.6546, 1120.125
360.1367, 1120.747
360.6188, 1120.563
361.1009, 1118.470
361.5830, 1117.179
362.0652, 1119.437
362.5473, 1123.491
363.0294, 1125.014
363.5115, 1120.327
363.9936, 1114.471
364.4757, 1109.726
364.9579, 1106.115
365.4400, 1104.299
365.9221, 1106.568
366.4042, 1110.030
366.8863, 1111.020
367.3684, 1106.488
367.8506, 1102.053
368.3327, 1098.935
368.8148, 1097.264
369.2969, 1096.136
369.7790, 1095.878
370.2611, 1095.903
370.7433, 1095.824
371.2254, 1095.756
371.7075, 1095.378
372.1896, 1094.529
372.6717, 1093.318
373.1538, 1092.179
373.6360, 1090.850
374.1181, 1089.989
374.6002, 1090.080
375.0823, 1091.555
375.5645, 1092.369
376.0466, 1092.348
376.5287, 1091.849
377.0108, 1091.605
377.4929, 1091.841
377.9750, 1091.247
378.4572, 1088.794
378.9393, 1084.858
379.4214, 1083.397
379.9035, 1084.820
380.3856, 1087.094
380.8677, 1088.137
381.3499, 1088.060
381.8320, 1088.349
382.3141, 1089.542
382.7962, 1091.022
383.2783, 1091.335
383.7604, 1090.534
384.2426, 1089.744
384.7247, 1090.009
385.2068, 1090.791
385.6889, 1090.805
386.1710, 1089.805
386.6531, 1088.422
387.1353, 1086.824
387.6174, 1085.325
388.0995, 1084.711
388.5816, 1086.345
389.0637, 1088.472
389.5458, 1089.213
390.0280, 1088.577
390.5101, 1087.714
390.9922, 1087.280
391.4743, 1087.090
391.9564, 1086.948
392.4385, 1086.928
392.9207, 1086.787
393.4028, 1086.020
393.8849, 1084.957
394.3670, 1084.610
394.8491, 1085.961
395.3312, 1087.686
395.8134, 1089.188
396.2955, 1090.631
396.7776, 1091.140
397.2597, 1089.463
397.7418, 1087.055
398.2239, 1085.812
398.7061, 1086.561
399.1882, 1087.920
399.6703, 1090.042
400.1524, 1093.009
400.6346, 1094.768
401.1167, 1094.375
401.5988, 1093.583
402.0809, 1093.605
402.5630, 1095.097
403.0451, 1096.081
403.5273, 1096.214
404.0094, 1095.796
404.4915, 1095.612
404.9736, 1095.529
405.4557, 1095.970
405.9378, 1097.399
406.4200, 1099.976
406.9021, 1101.444
407.3842, 1101.492
407.8663, 1101.136
408.3484, 1101.996
408.8305, 1104.125
409.3127, 1105.161
409.7948, 1103.926
410.2769, 1101.497
410.7590, 1100.953
411.2411, 1102.321
411.7232, 1104.175
412.2054, 1105.576
412.6875, 1106.656
413.1696, 1107.593
413.6517, 1108.284
414.1338, 1109.297
414.6159, 1111.467
415.0981, 1114.495
415.5802, 1117.579
416.0623, 1120.609
416.5444, 1123.278
417.0265, 1124.961
417.5086, 1125.657
417.9908, 1126.407
418.4729, 1128.110
418.9550, 1130.092
419.4371, 1131.525
419.9192, 1130.683
420.4013, 1131.102
420.8835, 1135.793
421.3656, 1143.151
421.8477, 1148.433
422.3298, 1148.551
422.8119, 1147.591
423.2940, 1147.465
423.7762, 1148.768
424.2583, 1149.666
424.7404, 1149.682
425.2225, 1149.314
425.7047, 1149.124
426.1868, 1149.167
426.6689, 1149.352
427.1510, 1149.923
427.6331, 1150.775
428.1152, 1150.699
428.5974, 1149.444
429.0795, 1147.630
429.5616, 1145.632
430.0437, 1143.549
430.5258, 1140.713
431.0079, 1136.682
431.4901, 1132.412
431.9722, 1129.872
432.4543, 1129.249
432.9364, 1128.410
433.4185, 1126.115
433.9006, 1122.916
434.3828, 1121.964
434.8649, 1123.472
435.3470, 1124.648
435.8291, 1121.920
436.3112, 1116.657
436.7933, 1113.548
437.2755, 1114.138
437.7576, 1115.875
438.2397, 1115.771
438.7218, 1114.152
439.2039, 1112.070
439.6860, 1109.050
440.1682, 1106.432
440.6503, 1105.901
441.1324, 1107.591
441.6145, 1109.713
442.0966, 1111.921
442.5787, 1113.674
443.0609, 1114.386
443.5430, 1112.855
444.0251, 1111.285
444.5072, 1110.359
444.9893, 1109.979
445.4714, 1109.811
445.9536, 1109.638
446.4357, 1109.778
446.9178, 1110.596
447.3999, 1112.833
447.8820, 1113.801
448.3641, 1112.453
448.8463, 1110.443
449.3284, 1109.594
449.8105, 1110.800
450.2926, 1111.594
450.7747, 1111.413
451.2569, 1110.451
451.7390, 1109.833
452.2211, 1109.439
452.7032, 1109.625
453.1853, 1110.894
453.6674, 1113.343
454.1496, 1114.872
454.6317, 1115.235
455.1138, 1115.039
455.5959, 1114.858
456.0780, 1114.742
456.5602, 1115.482
457.0423, 1118.400
457.5244, 1121.694
458.0065, 1120.755
458.4886, 1116.011
458.9707, 1112.000
459.4529, 1113.305
459.9350, 1117.153
460.4171, 1119.157
460.8992, 1118.262
461.3813, 1117.019
461.8634, 1117.266
462.3456, 1118.530
462.8277, 1119.999
463.3098, 1121.428
463.7919, 1122.914
464.2740, 1124.579
464.7561, 1126.390
465.2383, 1128.018
465.7204, 1129.560
466.2025, 1130.726
466.6846, 1131.279
467.1667, 1130.710
467.6488, 1130.260
468.1310, 1128.617
468.6131, 1127.500
469.0952, 1130.082
469.5773, 1140.456
470.0594, 1147.884
470.5415, 1148.910
471.0237, 1143.804
471.5058, 1140.481
471.9879, 1139.256
472.4700, 1139.134
472.9521, 1139.487
473.4342, 1140.324
473.9164, 1141.692
474.3985, 1143.847
474.8806, 1146.050
475.3627, 1146.507
475.8448, 1145.468
476.3270, 1145.562
476.8091, 1148.998
477.2912, 1153.873
477.7733, 1156.417
478.2554, 1156.716
478.7375, 1156.073
479.2197, 1154.292
479.7018, 1152.572
480.1839, 1152.917
480.6660, 1156.510
481.1481, 1159.946
481.6302, 1160.987
482.1124, 1160.363
482.5945, 1159.309
483.0766, 1156.915
483.5587, 1155.433
484.0408, 1156.572
484.5229, 1160.236
485.0051, 1162.708
485.4872, 1162.180
485.9693, 1161.067
486.4514, 1160.790
486.9335, 1161.871
487.4156, 1162.876
487.8978, 1163.250
488.3799, 1163.852
488.8620, 1166.486
489.3441, 1172.663
489.8262, 1177.066
490.3083, 1177.849
490.7905, 1175.589
491.2726, 1174.563
491.7547, 1174.951
492.2368, 1175.669
492.7189, 1175.650
493.2010, 1175.109
493.6832, 1175.807
494.1653, 1178.166
494.6474, 1180.738
495.1295, 1181.380
495.6116, 1180.674
496.0938, 1180.500
496.5759, 1182.297
497.0580, 1184.378
497.5401, 1184.560
498.0222, 1183.216
498.5044, 1182.243
498.9865, 1183.530
499.4686, 1185.123
499.9507, 1185.153
500.4328, 1182.728
500.9149, 1181.202
501.3971, 1182.736
501.8792, 1185.379
502.3613, 1186.872
502.8434, 1185.274
503.3255, 1184.303
503.8076, 1185.004
504.2898, 1186.928
504.7719, 1188.054
505.2540, 1188.228
505.7361, 1187.781
506.2182, 1186.579
506.7003, 1184.346
507.1825, 1183.308
507.6646, 1183.794
508.1467, 1184.785
508.6288, 1185.414
509.1109, 1185.689
509.5930, 1184.974
510.0752, 1182.838
510.5573, 1180.137
511.0394, 1178.471
511.5215, 1177.742
512.0037, 1177.280
512.4858, 1176.621
512.9679, 1176.052
513.4500, 1175.997
513.9321, 1176.464
514.4142, 1177.214
514.8964, 1179.225
515.3785, 1180.912
515.8606, 1180.319
516.3427, 1175.307
516.8248, 1170.928
517.3069, 1169.799
517.7891, 1170.547
518.2712, 1170.630
518.7533, 1168.412
519.2354, 1166.565
519.7175, 1166.050
520.1996, 1166.831
520.6818, 1167.361
521.1639, 1167.701
521.6460, 1167.724
522.1281, 1167.323
522.6102, 1166.418
523.0923, 1165.335
523.5745, 1163.906
524.0566, 1162.576
524.5387, 1162.215
525.0208, 1162.818
525.5029, 1162.947
525.9850, 1161.921
526.4672, 1160.394
526.9493, 1160.073
527.4314, 1160.779
527.9135, 1160.996
528.3956, 1159.410
528.8777, 1156.920
529.3599, 1154.562
529.8420, 1152.369
530.3241, 1150.850
530.8062, 1150.834
531.2883, 1151.462
531.7704, 1151.785
532.2526, 1151.523
532.7347, 1150.974
533.2168, 1150.238
533.6989, 1149.292
534.1810, 1148.059
534.6631, 1146.279
535.1453, 1144.466
535.6274, 1142.536
536.1095, 1140.431
536.5916, 1139.686
537.0737, 1140.904
537.5558, 1142.541
538.0380, 1143.660
538.5201, 1144.271
539.0022, 1144.143
539.4843, 1143.000
539.9664, 1141.705
540.4485, 1142.000
540.9307, 1143.604
541.4128, 1144.162
541.8949, 1142.340
542.3770, 1139.555
542.8591, 1137.999
543.3412, 1137.537
543.8234, 1137.395
544.3055, 1137.522
544.7876, 1137.474
545.2697, 1136.806
545.7518, 1135.453
546.2339, 1133.719
546.7161, 1131.297
547.1982, 1128.824
547.6803, 1126.818
548.1624, 1125.912
548.6445, 1124.881
549.1266, 1123.729
549.6088, 1122.359
550.0909, 1120.578
550.5730, 1118.482
551.0551, 1115.844
551.5372, 1112.330
552.0193, 1108.120
552.5015, 1105.012
552.9836, 1103.029
553.4657, 1102.085
553.9478, 1102.798
554.4299, 1104.883
554.9120, 1105.067
555.3942, 1102.854
555.8763, 1100.344
556.3584, 1100.642
556.8405, 1102.526
557.3226, 1102.737
557.8047, 1099.356
558.2869, 1095.321
558.7690, 1093.503
559.2511, 1093.196
559.7332, 1092.645
560.2154, 1090.326
560.6975, 1088.207
561.1796, 1087.805
561.6617, 1089.245
562.1439, 1089.436
562.6260, 1086.159
563.1081, 1082.698
563.5902, 1080.935
564.0723, 1081.699
564.5544, 1082.479
565.0366, 1083.470
565.5187, 1084.284
566.0008, 1084.290
566.4829, 1083.332
566.9650, 1082.359
567.4471, 1081.575
567.9293, 1080.874
568.4114, 1080.136
568.8935, 1079.328
569.3756, 1078.122
569.8577, 1075.347
570.3398, 1072.374
570.8220, 1072.406
571.3041, 1075.340
571.7862, 1077.747
572.2683, 1076.504
572.7504, 1073.936
573.2325, 1072.457
573.7147, 1073.088
574.1968, 1073.433
574.6789, 1072.401
575.1610, 1070.671
575.6431, 1069.102
576.1252, 1067.940
576.6074, 1066.858
577.0895, 1065.900
577.5716, 1065.004
578.0537, 1063.739
578.5358, 1061.587
579.0179, 1060.313
579.5001, 1061.043
579.9822, 1063.587
580.4643, 1064.875
580.9464, 1064.880
581.4285, 1063.794
581.9106, 1060.727
582.3928, 1056.593
582.8749, 1054.724
583.3570, 1055.858
583.8391, 1057.716
584.3212, 1058.231
584.8033, 1057.902
585.2855, 1057.595
585.7676, 1057.685
586.2497, 1057.805
586.7318, 1058.078
587.2139, 1058.268
587.6960, 1057.700
588.1782, 1054.209
588.6603, 1051.865
589.1424, 1053.001
589.6245, 1057.870
590.1066, 1059.770
590.5887, 1057.145
591.0709, 1053.755
591.5530, 1051.942
592.0351, 1051.956
592.5172, 1051.524
592.9993, 1050.352
593.4814, 1049.389
593.9636, 1050.574
594.4457, 1053.316
594.9278, 1054.284
595.4099, 1051.993
595.8920, 1048.784
596.3741, 1047.624
596.8563, 1047.987
597.3384, 1048.512
597.8205, 1048.702
598.3026, 1048.720
598.7847, 1048.770
599.2668, 1048.811
599.7490, 1048.409
600.2311, 1046.534
600.7132, 1044.890
601.1953, 1044.488
601.6774, 1045.820
602.1595, 1046.654
602.6417, 1046.848
603.1238, 1046.671
603.6059, 1046.200
604.0880, 1045.259
604.5701, 1045.066
605.0522, 1045.986
605.5344, 1047.255
606.0165, 1047.505
606.4986, 1046.875
606.9807, 1046.168
607.4628, 1045.731
607.9449, 1045.367
608.4271, 1044.475
608.9092, 1043.330
609.3913, 1043.002
609.8735, 1045.381
610.3556, 1047.794
610.8377, 1048.152
611.3198, 1046.242
611.8019, 1044.679
612.2841, 1044.260
612.7662, 1044.326
613.2483, 1044.516
613.7304, 1045.115
614.2125, 1045.040
614.6946, 1043.849
615.1768, 1042.420
615.6589, 1041.646
616.1410, 1041.459
616.6231, 1042.588
617.1052, 1045.795
617.5873, 1049.377
618.0695, 1049.277
618.5516, 1046.135
619.0337, 1043.491
619.5158, 1043.477
619.9979, 1044.530
620.4800, 1044.877
620.9622, 1044.618
621.4443, 1044.218
621.9264, 1043.505
622.4085, 1043.059
622.8906, 1043.390
623.3727, 1044.678
623.8549, 1045.699
624.3370, 1046.424
624.8191, 1046.619
625.3012, 1045.947
625.7833, 1043.263
626.2654, 1042.547
626.7476, 1044.672
627.2297, 1047.604
627.7118, 1048.530
628.1939, 1047.410
628.6760, 1045.658
629.1581, 1043.144
629.6403, 1040.940
630.1224, 1041.721
630.6045, 1044.625
631.0866, 1046.355
631.5687, 1043.895
632.0508, 1040.587
632.5330, 1039.731
633.0151, 1040.915
633.4972, 1041.732
633.9793, 1040.999
634.4614, 1039.795
634.9435, 1038.377
635.4257, 1036.504
635.9078, 1036.025
636.3899, 1037.856
636.8720, 1040.159
637.3541, 1041.639
637.8362, 1042.138
638.3184, 1042.590
638.8005, 1043.091
639.2826, 1043.367
639.7647, 1042.649
640.2468, 1041.178
640.7289, 1040.747
641.2111, 1042.045
641.6932, 1044.006
642.1753, 1045.914
642.6574, 1047.481
643.1395, 1047.996
643.6216, 1045.737
644.1038, 1043.631
644.5859, 1043.349
645.0680, 1044.656
645.5501, 1046.359
646.0322, 1049.401
646.5143, 1051.570
646.9965, 1051.733
647.4786, 1049.727
647.9607, 1048.899
648.4428, 1049.838
648.9249, 1050.746
649.4070, 1049.978
649.8892, 1047.609
650.3713, 1047.170
650.8534, 1049.056
651.3355, 1051.335
651.8176, 1051.720
652.2997, 1050.985
652.7819, 1050.977
653.2640, 1052.515
653.7461, 1053.727
654.2282, 1052.749
654.7103, 1050.645
655.1924, 1048.999
655.6746, 1047.813
656.1567, 1047.663
656.6388, 1049.539
657.1209, 1052.587
657.6030, 1054.357
658.0851, 1054.111
658.5673, 1053.988
659.0494, 1054.765
659.5316, 1056.203
660.0137, 1056.516
660.4958, 1055.555
660.9779, 1055.105
661.4600, 1056.954
661.9421, 1060.033
662.4243, 1061.661
662.9064, 1061.774
663.3885, 1060.982
663.8706, 1058.256
664.3527, 1055.683
664.8348, 1055.857
665.3170, 1060.036
665.7991, 1063.224
666.2812, 1062.611
666.7633, 1060.853
667.2454, 1060.481
667.7275, 1062.285
668.2097, 1064.310
668.6918, 1066.820
669.1739, 1069.243
669.6560, 1070.599
670.1381, 1070.808
670.6202, 1070.874
671.1024, 1071.067
671.5845, 1071.194
672.0666, 1070.537
672.5487, 1069.394
673.0308, 1068.939
673.5129, 1070.239
673.9951, 1072.097
674.4772, 1073.815
674.9593, 1075.295
675.4414, 1076.113
675.9235, 1074.787
676.4056, 1073.960
676.8878, 1075.207
677.3699, 1078.746
677.8520, 1081.461
678.3341, 1083.571
678.8162, 1084.490
679.2983, 1083.326
679.7805, 1079.829
680.2626, 1078.047
680.7447, 1078.102
681.2268, 1079.272
681.7089, 1082.113
682.1910, 1085.455
682.6732, 1085.682
683.1553, 1081.714
683.6374, 1077.483
684.1195, 1076.396
684.6016, 1076.772
685.0837, 1076.446
685.5659, 1073.447
686.0480, 1071.646
686.5301, 1073.247
687.0122, 1076.270
687.4943, 1077.263
687.9764, 1074.967
688.4586, 1073.251
688.9407, 1072.943
689.4228, 1073.487
689.9049, 1073.558
690.3870, 1073.154
690.8691, 1072.028
691.3513, 1069.571
691.8334, 1066.716
692.3155, 1065.224
692.7976, 1064.872
693.2797, 1064.594
693.7618, 1063.903
694.2440, 1062.969
694.7261, 1061.874
695.2082, 1060.645
695.6903, 1059.318
696.1724, 1057.885
696.6545, 1056.404
697.1367, 1054.873
697.6188, 1053.279
698.1009, 1051.796
698.5830, 1050.203
699.0651, 1049.290
699.5472, 1050.251
700.0294, 1052.750
700.5115, 1053.733
700.9936, 1052.841
701.4757, 1051.435
701.9578, 1050.749
702.4399, 1050.475
702.9221, 1050.169
703.4042, 1049.781
703.8863, 1049.132
704.3684, 1048.006
704.8505, 1046.601
705.3326, 1045.162
705.8148, 1043.579
706.2969, 1042.166
706.7790, 1041.056
707.2611, 1040.079
707.7432, 1038.993
708.2253, 1037.822
708.7075, 1036.400
709.1896, 1034.541
709.6718, 1032.635
710.1539, 1031.621
710.6360, 1031.332
711.1181, 1031.011
711.6002, 1030.993
712.0823, 1030.245
712.5645, 1027.041
713.0466, 1022.150
713.5287, 1018.479
714.0108, 1018.243
714.4929, 1018.213
714.9750, 1016.815
715.4572, 1014.185
715.9393, 1012.517
716.4214, 1011.973
716.9035, 1012.010
717.3856, 1012.786
717.8677, 1014.108
718.3499, 1013.400
718.8320, 1010.586
719.3141, 1007.953
719.7962, 1008.055
720.2783, 1009.136
720.7604, 1008.314
721.2426, 1005.287
721.7247, 1001.966
722.2068, 998.5517
722.6889, 995.8953
723.1710, 994.8771
723.6531, 996.6963
724.1353, 997.2465
724.6174, 995.4345
725.0995, 993.2574
725.5816, 992.6556
726.0637, 994.0605
726.5458, 993.9929
727.0280, 991.9174
727.5101, 989.2538
727.9922, 987.7520
728.4743, 987.0970
728.9564, 986.3410
729.4385, 985.1740
729.9207, 984.1165
730.4028, 983.7842
730.8849, 983.7568
731.3670, 983.4590
731.8491, 982.7334
732.3312, 981.7082
732.8134, 979.9923
733.2955, 978.1317
733.7776, 977.1284
734.2597, 977.3671
734.7418, 977.2661
735.2239, 976.4178
735.7061, 975.1624
736.1882, 974.4738
736.6703, 974.2091
737.1524, 973.2283
737.6345, 970.3391
738.1166, 967.2530
738.5988, 965.9645
739.0809, 966.0597
739.5630, 966.3522
740.0451, 967.3095
740.5272, 967.3951
741.0093, 965.1082
741.4915, 961.0257
741.9736, 958.9592
742.4557, 959.9623
742.9378, 960.9201
743.4199, 960.6583
743.9020, 959.4022
744.3842, 958.3229
744.8663, 957.4079
745.3484, 957.0927
745.8305, 958.8049
746.3126, 960.7242
746.7947, 959.2357
747.2769, 954.7753
747.7590, 951.4686
748.2411, 953.0505
748.7232, 955.2474
749.2053, 955.4192
749.6874, 953.0969
750.1696, 950.9568
750.6517, 948.5749
751.1338, 947.0810
751.6159, 947.6140
752.0980, 950.3251
752.5801, 950.8157
753.0623, 948.8458
753.5444, 946.5330
754.0265, 945.6654
754.5086, 945.6891
754.9907, 945.6954
755.4728, 945.6021
755.9550, 945.1186
756.4371, 943.3969
756.9192, 941.6400
757.4013, 941.0596
757.8835, 942.8252
758.3656, 942.8586
758.8477, 939.5573
759.3298, 936.0344
759.8120, 935.1505
760.2941, 937.4036
760.7762, 938.0336
761.2583, 936.5882
761.7404, 934.5002
762.2225, 933.4736
762.7047, 933.0184
763.1868, 931.8772
763.6689, 929.6080
764.1510, 927.6130
764.6331, 927.4658
765.1152, 927.7987
765.5974, 927.0811
766.0795, 923.1856
766.5616, 921.1976
767.0437, 922.3948
767.5258, 924.6852
768.0079, 925.6834
768.4901, 925.2579
768.9722, 924.4382
769.4543, 923.2429
769.9364, 921.9457
770.4185, 920.7692
770.9006, 919.7852
771.3828, 919.3968
771.8649, 920.3730
772.3470, 920.4904
772.8291, 916.7977
773.3112, 911.8473
773.7933, 909.1685
774.2755, 911.9713
774.7576, 913.9491
775.2397, 914.6865
775.7218, 914.3160
776.2039, 912.5926
776.6860, 909.2366
777.1682, 907.3220
777.6503, 907.8770
778.1324, 909.2274
778.6145, 908.6651
779.0966, 906.7505
779.5787, 904.9730
780.0609, 903.7130
780.5430, 902.8998
781.0251, 903.2543
781.5072, 903.8763
781.9893, 903.1354
782.4714, 898.7888
782.9536, 895.5988
783.4357, 894.4261
783.9178, 894.5187
784.3999, 894.4861
784.8820, 894.3517
785.3641, 893.7241
785.8463, 892.2102
786.3284, 890.6314
786.8105, 890.7522
787.2926, 891.8942
787.7747, 892.3875
788.2568, 890.7207
788.7390, 889.0216
789.2211, 888.3156
789.7032, 888.3145
790.1853, 888.3622
790.6674, 888.8611
791.1495, 888.5172
791.6317, 886.5554
792.1138, 884.0031
792.5959, 883.9944
793.0780, 886.5194
793.5601, 887.8826
794.0422, 886.5182
794.5244, 883.8297
795.0065, 880.9019
795.4886, 878.2211
795.9707, 877.0137
796.4528, 879.6552
796.9349, 881.8751
797.4171, 881.7404
797.8992, 879.8800
798.3813, 878.1455
798.8634, 876.5078
799.3455, 875.0609
799.8276, 873.6823
800.3098, 872.6332
800.7919, 872.9012
801.2740, 874.3140
801.7561, 875.2927
802.2382, 875.0541
802.7203, 874.3115
803.2025, 873.9492
803.6846, 873.6669
804.1667, 872.7823
804.6488, 870.1939
805.1309, 867.9291
805.6130, 866.5646
806.0952, 865.9583
806.5773, 865.8779
807.0594, 866.4034
807.5416, 867.2913
808.0237, 868.7146
808.5058, 870.1711
808.9879, 870.8229
809.4700, 870.6076
809.9521, 869.2063
810.4343, 865.5938
810.9164, 861.8435
811.3985, 858.9872
811.8806, 857.2200
812.3627, 856.9539
812.8448, 861.1482
813.3270, 863.1613
813.8091, 860.8492
814.2912, 856.3139
814.7733, 854.1547
815.2554, 854.5565
815.7375, 855.5399
816.2197, 856.9290
816.7018, 858.0173
817.1839, 857.3866
817.6660, 855.5420
818.1481, 853.6614
818.6302, 852.2363
819.1124, 850.8548
819.5945, 849.4030
820.0766, 847.8499
820.5587, 846.0770
821.0408, 843.6951
821.5229, 841.8981
822.0051, 840.9322
822.4872, 840.4965
822.9693, 840.1229
823.4514, 839.7950
823.9335, 839.3368
824.4156, 838.5805
824.8978, 837.9291
825.3799, 838.3973
825.8620, 839.0921
826.3441, 838.5317
826.8262, 834.2366
827.3083, 831.2362
827.7905, 831.5619
828.2726, 833.2946
828.7547, 834.2135
829.2368, 834.2211
829.7189, 833.7010
830.2010, 832.6066
830.6832, 831.2608
831.1653, 830.1087
831.6474, 829.0744
832.1295, 827.8489
832.6116, 826.2584
833.0938, 824.8585
833.5759, 823.8840
834.0580, 823.3640
834.5401, 823.3414
835.0222, 824.9811
835.5043, 825.2623
835.9865, 823.5844
836.4686, 821.3212
836.9507, 819.8627
837.4328, 819.1973
837.9149, 819.1253
838.3970, 819.6988
838.8792, 820.3582
839.3613, 820.6578
839.8434, 820.6287
840.3255, 820.0958
840.8076, 818.6794
841.2897, 818.1644
841.7719, 820.2917
842.2540, 822.6765
842.7361, 823.4432
843.2182, 822.0184
843.7003, 821.3127
844.1824, 821.5060
844.6646, 821.7634
845.1467, 821.0364
845.6288, 819.8282
846.1109, 819.4857
846.5930, 820.1237
847.0751, 821.1348
847.5573, 822.9476
848.0394, 824.3655
848.5215, 824.2094
849.0036, 821.9615
849.4857, 820.7748
849.9678, 821.2473
850.4500, 821.9330
850.9321, 822.0194
851.4142, 821.5763
851.8963, 821.5358
852.3784, 821.8832
852.8605, 821.8046
853.3427, 819.9896
853.8248, 817.9625
854.3069, 817.4791
854.7890, 818.4634
855.2711, 819.4299
855.7532, 820.2016
856.2354, 820.4941
856.7175, 820.0891
857.1996, 819.0823
857.6818, 817.8918
858.1639, 816.3178
858.6460, 816.0322
859.1281, 818.6291
859.6102, 822.3865
860.0923, 824.0792
860.5745, 824.1339
861.0566, 823.9628
861.5387, 824.6562
862.0208, 824.8578
862.5029, 823.3135
862.9850, 820.7964
863.4672, 819.8568
863.9493, 821.1458
864.4314, 822.2757
864.9135, 822.4090
865.3956, 822.5261
865.8777, 825.5620
866.3599, 830.6442
866.8420, 833.7011
867.3241, 832.2094
867.8062, 830.4121
868.2883, 831.2973
868.7704, 833.9650
869.2526, 837.0789
869.7347, 841.6934
870.2168, 844.6718
870.6989, 844.9404
871.1810, 844.5230
871.6631, 846.4124
872.1453, 850.4296
872.6274, 853.1832
873.1095, 853.9291
873.5916, 854.7015
874.0737, 858.3654
874.5558, 862.9063
875.0380, 865.8615
875.5201, 866.5362
876.0022, 866.3583
876.4843, 865.2380
876.9664, 863.7101
877.4485, 862.0808
877.9307, 860.3567
878.4128, 858.6375
878.8949, 857.0009
879.3770, 854.7502
879.8591, 850.6740
880.3412, 845.8747
880.8234, 842.4780
881.3055, 840.5167
881.7876, 837.6797
882.2697, 831.2051
882.7518, 825.1339
883.2339, 822.2607
883.7161, 822.3119
884.1982, 819.7765
884.6803, 814.0189
885.1624, 808.2067
885.6445, 803.6746
886.1266, 800.2939
886.6088, 798.1320
887.0909, 796.8734
887.5730, 795.2598
888.0551, 793.0336
888.5372, 789.8905
889.0193, 784.6737
889.5015, 778.3940
889.9836, 774.2639
890.4657, 773.3190
890.9478, 771.9987
891.4299, 769.3595
891.9120, 766.2911
892.3942, 764.4606
892.8763, 763.6454
893.3584, 763.1011
893.8405, 762.8889
894.3226, 762.1713
894.8047, 759.9387
895.2869, 757.0139
895.7690, 754.4152
896.2511, 752.6869
896.7332, 750.5966
897.2153, 747.7092
897.6974, 745.2086
898.1796, 744.7899
898.6617, 746.0963
899.1438, 746.7595
899.6259, 746.5843
900.1080, 745.5309
900.5901, 743.1719
901.0723, 740.2060
901.5544, 736.9377
902.0365, 733.2458
902.5186, 730.9871
903.0007, 731.4962
903.4828, 731.7346
903.9650, 729.7853
904.4471, 726.0634
904.9292, 724.8532
905.4113, 726.0200
905.8935, 726.9653
906.3756, 725.8846
906.8577, 723.9388
907.3398, 721.8826
907.8220, 719.8831
908.3041, 718.5353
908.7862, 719.1380
909.2683, 718.8877
909.7504, 716.8854
910.2325, 713.8474
910.7147, 711.2990
911.1968, 709.2278
911.6789, 708.3500
912.1610, 709.2640
912.6431, 710.5215
913.1252, 710.6760
913.6074, 710.0159
914.0895, 708.9243
914.5716, 706.7006
915.0537, 705.4676
915.5358, 706.3777
916.0179, 707.5623
916.5001, 707.1136
916.9822, 704.9208
917.4643, 703.4767
917.9464, 703.0120
918.4285, 702.5036
918.9106, 700.7715
919.3928, 698.5892
919.8749, 696.8802
920.3570, 695.7597
920.8391, 694.7361
921.3212, 692.7681
921.8033, 691.9411
922.2855, 693.9787
922.7676, 698.3250
923.2497, 698.2390
923.7318, 693.6094
924.2139, 689.5580
924.6960, 689.5759
925.1782, 690.9996
925.6603, 689.9520
926.1424, 687.4639
926.6245, 686.2970
927.1066, 688.6224
927.5887, 690.9413
928.0709, 692.8195
928.5530, 694.0693
929.0351, 694.1060
929.5172, 692.8654
929.9993, 692.0612
930.4814, 692.1849
930.9636, 692.1985
931.4457, 689.9405
931.9278, 687.2448
932.4099, 686.8472
932.8920, 690.1080
933.3741, 693.2189
933.8563, 695.5427
934.3384, 697.2097
934.8205, 697.9755
935.3026, 697.7724
935.7847, 698.4592
936.2668, 700.0410
936.7490, 702.5375
937.2311, 706.4927
937.7132, 711.0320
938.1953, 715.0723
938.6774, 718.6755
939.1595, 722.2084
939.6417, 726.3307
940.1238, 729.6041
940.6059, 730.9200
941.0880, 731.4219
941.5701, 735.0674
942.0522, 741.7770
942.5344, 747.5109
943.0165, 750.3904
943.4986, 753.3970
943.9807, 760.3718
944.4628, 769.4236
944.9449, 777.7069
945.4271, 783.8635
945.9092, 790.4572
946.3913, 797.5387
946.8734, 805.3583
947.3555, 814.5739
947.8376, 825.0119
948.3198, 834.5664
948.8019, 843.0902
949.2840, 850.3632
949.7661, 855.6837
950.2482, 859.9552
950.7303, 864.3066
951.2125, 868.7731
951.6946, 871.0720
952.1767, 870.7628
952.6588, 868.8061
953.1409, 865.5880
953.6230, 860.9102
954.1052, 853.7028
954.5873, 844.1849
955.0695, 833.6746
955.5516, 822.1696
956.0337, 810.6094
956.5158, 799.5138
956.9979, 789.0251
957.4800, 779.3051
957.9622, 770.4841
958.4443, 762.0743
958.9264, 753.8226
959.4085, 746.4033
959.8906, 740.9525
960.3727, 736.8889
960.8549, 731.8640
961.3370, 725.5661
961.8191, 720.1996
962.3012, 718.0072
962.7833, 716.5333
963.2654, 714.0247
963.7476, 710.3766
964.2297, 707.0866
964.7118, 704.0325
965.1939, 702.0779
965.6760, 702.3270
966.1581, 703.2828
966.6403, 701.2412
967.1224, 697.0902
967.6045, 693.3820
968.0866, 691.5612
968.5687, 690.0847
969.0508, 687.8926
969.5330, 685.9865
970.0151, 685.9941
970.4972, 688.5889
970.9793, 689.5847
971.4614, 688.3724
971.9435, 686.5787
972.4257, 685.9830
972.9078, 685.9153
973.3899, 685.2406
973.8720, 683.7862
974.3541, 682.6707
974.8362, 682.8734
975.3184, 682.8299
975.8005, 681.6651
976.2826, 679.6169
976.7647, 678.6109
977.2468, 678.6359
977.7289, 678.4580
978.2111, 677.3090
978.6932, 675.9541
979.1753, 675.5264
979.6574, 675.4576
980.1395, 674.6610
980.6216, 671.9714
981.1038, 669.8186
981.5859, 668.4316
982.0680, 667.5509
982.5501, 666.9785
983.0322, 666.6874
983.5143, 666.5876
983.9965, 666.6818
984.4786, 666.5201
984.9607, 665.3535
985.4428, 664.1137
985.9249, 663.6152
986.4070, 663.9277
986.8892, 663.7548
987.3713, 662.6066
987.8534, 662.3687
988.3355, 664.2567
988.8176, 666.9762
989.2997, 667.3881
989.7819, 666.1418
990.2640, 665.1401
990.7461, 665.0604
991.2282, 665.4806
991.7103, 667.1954
992.1924, 668.7537
992.6746, 668.0947
993.1567, 664.3133
993.6388, 663.6517
994.1209, 666.8937
994.6030, 669.9885
995.0851, 668.0258
995.5673, 664.3834
996.0494, 663.7955
996.5315, 666.3597
997.0136, 668.8929
997.4957, 671.0663
997.9778, 672.2249
998.4600, 671.9066
998.9421, 670.5729
999.4242, 669.4886
999.9063, 668.6524
1000.388, 668.0442
1000.871, 667.7133
1001.353, 667.4498
1001.835, 667.6706
1002.317, 667.5538
1002.799, 665.9012
1003.281, 661.0872
1003.763, 658.3894
1004.245, 658.3810
1004.728, 659.0875
1005.210, 659.1875
1005.692, 658.7612
1006.174, 657.8087
1006.656, 656.4570
1007.138, 655.4830
1007.620, 656.6308
1008.102, 656.8582
1008.584, 654.0272
1009.067, 649.3563
1009.549, 645.8447
1010.031, 643.7360
1010.513, 640.1365
1010.995, 634.0635
1011.477, 627.7770
1011.959, 624.5176
1012.441, 622.6322
1012.924, 619.7166
1013.406, 614.9774
1013.888, 610.8677
1014.370, 607.7300
1014.852, 605.3700
1015.334, 604.0523
1015.816, 603.4554
1016.298, 601.3213
1016.780, 597.8737
1017.263, 594.6252
1017.745, 592.6453
1018.227, 590.8898
1018.709, 588.2637
1019.191, 587.4042
1019.673, 584.3698
1020.155, 585.5119
1020.637, 585.9513
1021.120, 585.3270
1021.602, 584.3868
1022.084, 584.0646
1022.566, 583.9753
1023.048, 583.5049
1023.530, 582.5872
1024.012, 581.0781
1024.494, 577.8698
1024.976, 575.2704
1025.458, 574.4042
1025.941, 574.8046
1026.423, 574.7704
1026.905, 574.2850
1027.387, 572.9311
1027.869, 570.2955
1028.351, 567.3318
1028.833, 564.0234
1029.316, 561.3332
1029.798, 560.6797
1030.280, 564.0209
1030.762, 565.1921
1031.244, 563.7846
1031.726, 561.1939
1032.208, 557.5176
1032.690, 553.6524
1033.172, 552.6188
1033.655, 553.9501
1034.137, 554.9962
1034.619, 554.5118
1035.101, 553.4022
1035.583, 552.0104
1036.065, 550.2561
1036.547, 547.5378
1037.029, 543.7969
1037.511, 541.7842
1037.994, 542.1693
1038.476, 543.1512
1038.958, 543.2916
1039.440, 542.8675
1039.922, 541.9933
1040.404, 540.5933
1040.886, 539.7438
1041.368, 539.8169
1041.851, 539.6999
1042.333, 538.8307
1042.815, 537.5192
1043.297, 536.4356
1043.779, 535.5956
1044.261, 535.0894
1044.743, 534.8978
1045.225, 535.1243
1045.708, 536.6760
1046.190, 538.0422
1046.672, 537.4882
1047.154, 534.7059
1047.636, 533.3931
1048.118, 533.6695
1048.600, 534.1909
1049.082, 533.8940
1049.564, 533.3517
1050.047, 532.9803
1050.529, 532.8289
1051.011, 533.1412
1051.493, 534.5225
1051.975, 535.0560
1052.457, 534.3035
1052.939, 532.7686
1053.421, 530.9828
1053.903, 529.0863
1054.386, 527.1085
1054.868, 524.9301
1055.350, 523.8823
1055.832, 525.1187
1056.314, 527.2372
1056.796, 530.0383
1057.278, 533.1677
1057.760, 533.2127
1058.243, 530.2999
1058.725, 527.3111
1059.207, 525.2471
1059.689, 523.9778
1060.171, 524.1027
1060.653, 524.6354
1061.135, 524.0219
1061.617, 520.9232
1062.099, 519.4694
1062.582, 519.9262
1063.064, 521.1785
1063.546, 523.1227
1064.028, 524.8962
1064.510, 524.2341
1064.992, 521.5673
1065.474, 519.4258
1065.956, 518.9056
1066.438, 518.9836
1066.921, 519.6588
1067.403, 520.4938
1067.885, 520.8995
1068.367, 520.8411
1068.849, 519.7972
1069.331, 517.5781
1069.813, 515.5593
1070.295, 514.3630
1070.778, 514.0674
1071.260, 515.2249
1071.742, 517.6681
1072.224, 519.0784
1072.706, 519.3988
1073.188, 518.9202
1073.670, 517.3905
1074.152, 515.7636
1074.635, 515.5143
1075.117, 516.0079
1075.599, 516.2136
1076.081, 515.6970
1076.563, 515.3338
1077.045, 515.4096
1077.527, 515.2484
1078.009, 513.9492
1078.491, 512.0589
1078.974, 512.0842
1079.456, 513.6557
1079.938, 514.8875
1080.420, 514.8521
1080.902, 514.3124
1081.384, 513.0909
1081.866, 511.8062
1082.348, 511.3266
1082.831, 511.6996
1083.313, 511.7348
1083.795, 511.3230
1084.277, 510.8737
1084.759, 510.8117
1085.241, 510.8001
1085.723, 510.5465
1086.205, 510.0590
1086.688, 509.6552
1087.170, 509.5633
1087.652, 508.6717
1088.134, 506.3492
1088.616, 504.0588
1089.098, 504.5436
1089.580, 506.3002
1090.062, 506.6759
1090.544, 504.8298
1091.026, 503.5986
1091.509, 503.8603
1091.991, 504.3369
1092.473, 504.4836
1092.955, 504.4052
1093.437, 504.5569
1093.919, 504.8437
1094.401, 504.8546
1094.883, 504.2304
1095.366, 503.6314
1095.848, 503.6857
1096.330, 503.6480
1096.812, 502.6322
1097.294, 500.4318
1097.776, 499.4064
1098.258, 499.5701
1098.740, 500.2688
1099.223, 501.6965
1099.705, 502.8967
1100.187, 502.9921
1100.669, 502.2223
1101.151, 501.2542
1101.633, 500.1169
1102.115, 498.6633
1102.597, 496.6602
1103.079, 495.1788
1103.562, 496.0361
1104.044, 497.8057
1104.526, 498.4609
1105.008, 497.8993
1105.490, 496.9322
1105.972, 495.1740
1106.454, 494.0855
1106.936, 494.3187
1107.418, 494.9965
1107.901, 494.3228
1108.383, 492.7115
1108.865, 491.1031
1109.347, 489.5025
1109.829, 489.1120
1110.311, 491.9352
1110.793, 494.6129
1111.275, 495.4085
1111.758, 494.5897
1112.240, 493.5303
1112.722, 492.2699
1113.204, 491.3766
1113.686, 491.2625
1114.168, 491.1561
1114.650, 489.8969
1115.132, 488.7859
1115.615, 489.6213
1116.097, 493.1209
1116.579, 493.3660
1117.061, 490.0959
1117.543, 487.1049
1118.025, 487.4902
1118.507, 488.8922
1118.989, 488.8024
1119.471, 487.8275
1119.953, 487.3818
1120.436, 488.2897
1120.918, 488.1751
1121.400, 486.6771
1121.882, 484.9550
1122.364, 483.7927
1122.846, 483.3122
1123.328, 484.3384
1123.810, 486.4962
1124.293, 487.4690
1124.775, 485.1294
1125.257, 483.5186
1125.739, 483.5163
1126.221, 484.2157
1126.703, 484.3012
1127.185, 483.9492
1127.667, 483.7728
1128.150, 483.8628
1128.632, 483.5659
1129.114, 482.2660
1129.596, 480.8116
1130.078, 479.3723
1130.560, 478.1326
1131.042, 477.5360
1131.524, 477.6293
1132.006, 479.0809
1132.489, 482.5599
1132.971, 485.2430
1133.453, 484.4545
1133.935, 482.6837
1134.417, 481.7903
1134.899, 481.7558
1135.381, 481.7424
1135.863, 481.7477
1136.346, 481.4716
1136.828, 480.4258
1137.310, 479.6999
1137.792, 480.7525
1138.274, 482.4933
1138.756, 483.5921
1139.238, 484.1500
1139.720, 483.1884
1140.203, 480.4772
1140.685, 477.6996
1141.167, 475.6938
1141.649, 474.3828
1142.131, 473.6371
1142.613, 473.5005
1143.095, 474.0960
1143.577, 476.4521
1144.059, 477.3323
1144.542, 476.1306
1145.024, 474.9625
1145.506, 476.3193
1145.988, 478.7084
1146.470, 479.5202
1146.952, 478.9415
1147.434, 478.2562
1147.916, 477.9019
1148.398, 477.3480
1148.881, 476.4081
1149.363, 475.4599
1149.845, 475.3438
1150.327, 475.5504
1150.809, 474.4672
1151.291, 472.0813
1151.773, 470.3197
1152.255, 470.5163
1152.738, 470.8877
1153.220, 470.9705
1153.702, 470.8578
1154.184, 470.8502
1154.666, 470.8197
1155.148, 469.9524
1155.630, 467.9904
1156.112, 466.8417
1156.594, 468.4644
1157.077, 470.1918
1157.559, 470.8252
1158.041, 470.4769
1158.523, 469.1082
1159.005, 466.9432
1159.487, 465.8573
1159.969, 466.6041
1160.451, 467.5357
1160.933, 467.5664
1161.416, 467.3259
1161.898, 467.3842
1162.380, 467.6786
1162.862, 467.2572
1163.344, 466.1517
1163.826, 464.9542
1164.308, 463.6573
1164.790, 462.8861
1165.273, 463.4863
1165.755, 464.6655
1166.237, 465.8170
1166.719, 467.0820
1167.201, 466.0866
1167.683, 462.6376
1168.165, 460.1053
1168.647, 461.0094
1169.130, 462.6543
1169.612, 462.2697
1170.094, 461.0822
1170.576, 461.1909
1171.058, 463.6281
1171.540, 463.7317
1172.022, 461.1925
1172.504, 458.6630
1172.986, 457.8650
1173.469, 458.1476
1173.951, 459.4877
1174.433, 461.2632
1174.915, 461.8774
1175.397, 460.6896
1175.879, 459.9616
1176.361, 459.9067
1176.843, 459.7888
1177.326, 458.6143
1177.808, 457.2363
1178.290, 456.6258
1178.772, 456.7607
1179.254, 457.4756
1179.736, 459.2464
1180.218, 460.3099
1180.700, 460.4455
1181.182, 459.9825
1181.665, 458.9176
1182.147, 457.6885
1182.629, 457.0842
1183.111, 457.0371
1183.593, 456.7223
1184.075, 455.6462
1184.557, 455.1320
1185.039, 455.5669
1185.521, 456.2113
1186.004, 456.3752
1186.486, 455.9266
1186.968, 453.9980
1187.450, 450.6545
1187.932, 449.3174
1188.414, 452.0126
1188.896, 454.1315
1189.378, 454.5602
1189.861, 453.9828
1190.343, 453.0963
1190.825, 452.1572
1191.307, 451.6367
1191.789, 451.6146
1192.271, 451.9293
1192.753, 453.1328
1193.235, 453.4962
1193.718, 452.0830
1194.200, 450.1729
1194.682, 450.5792
1195.164, 452.2133
1195.646, 452.7683
1196.128, 451.5833
1196.610, 450.5446
1197.092, 449.7845
1197.574, 449.7616
1198.057, 451.0766
1198.539, 452.7495
1199.021, 452.1554
1199.503, 450.2818
1199.985, 449.4743
1200.467, 450.7225
1200.949, 451.5429
1201.431, 451.2072
1201.913, 450.8099
1202.396, 450.8648
1202.878, 451.2295
1203.360, 451.9742
1203.842, 452.6842
1204.324, 452.0626
1204.806, 448.5492
1205.288, 446.9742
1205.770, 449.3778
1206.253, 451.6500
1206.735, 451.2654
1207.217, 449.1473
1207.699, 447.4061
1208.181, 446.1924
1208.663, 445.9024
1209.145, 447.5766
1209.627, 448.3698
1210.109, 447.6781
1210.592, 446.4590
1211.074, 444.8819
1211.556, 443.4530
1212.038, 444.4655
1212.520, 446.9973
1213.002, 448.3938
1213.484, 446.6119
1213.966, 445.3610
1214.448, 445.1665
1214.931, 445.3917
1215.413, 445.7487
1215.895, 446.0878
1216.377, 445.7875
1216.859, 445.0891
1217.341, 444.7571
1217.823, 445.5977
1218.305, 446.0648
1218.788, 446.0870
1219.270, 445.5670
1219.752, 443.8882
1220.234, 441.7811
1220.716, 441.0859
1221.198, 441.6382
1221.680, 442.7608
1222.162, 445.8584
1222.645, 446.7225
1223.127, 444.1358
1223.609, 441.2293
1224.091, 441.3348
1224.573, 443.1469
1225.055, 444.1396
1225.537, 444.3037
1226.019, 443.9608
1226.501, 442.8257
1226.984, 441.6655
1227.466, 440.3285
1227.948, 439.5042
1228.430, 440.6523
1228.912, 442.4073
1229.394, 441.8567
1229.876, 439.4954
1230.358, 437.9302
1230.841, 438.1442
1231.323, 438.4660
1231.805, 438.7073
1232.287, 439.1373
1232.769, 440.6216
1233.251, 442.1447
1233.733, 441.8178
1234.215, 439.9662
1234.698, 438.4045
1235.180, 437.4623
1235.662, 436.6923
1236.144, 435.9931
1236.626, 435.6622
1237.108, 436.4161
1237.590, 437.4486
1238.072, 437.6758
1238.554, 437.2086
1239.036, 436.9356
1239.519, 437.0811
1240.001, 436.8629
1240.483, 436.0858
1240.965, 435.4031
1241.447, 435.7391
1241.929, 436.3097
1242.411, 436.2368
1242.893, 435.6010
1243.376, 435.0096
1243.858, 434.3559
1244.340, 434.4906
1244.822, 435.6583
1245.304, 436.6826
1245.786, 436.1694
1246.268, 435.2642
1246.750, 435.1734
1247.233, 435.6305
1247.715, 435.1289
1248.197, 433.4407
1248.679, 433.1287
1249.161, 434.6913
1249.643, 435.9937
1250.125, 434.6152
1250.607, 432.7813
1251.089, 432.2486
1251.572, 432.6020
1252.054, 432.6179
1252.536, 432.2935
1253.018, 431.9164
1253.500, 431.4986
1253.982, 431.4765
1254.464, 433.1481
1254.946, 434.2762
1255.428, 432.8231
1255.911, 430.2292
1256.393, 429.5253
1256.875, 430.5283
1257.357, 431.5537
1257.839, 432.3771
1258.321, 432.8700
1258.803, 433.3442
1259.285, 432.8845
1259.768, 430.5145
1260.250, 427.6877
1260.732, 427.6320
1261.214, 429.5916
1261.696, 430.5634
1262.178, 430.1646
1262.660, 429.0160
1263.142, 426.0653
1263.625, 424.2300
1264.107, 424.5496
1264.589, 426.0133
1265.071, 427.5390
1265.553, 428.7628
1266.035, 428.3977
1266.517, 426.4112
1266.999, 425.0364
1267.481, 425.0946
1267.964, 425.6964
1268.446, 426.8769
1268.928, 428.0721
1269.410, 428.4777
1269.892, 428.3534
1270.374, 427.9500
1270.856, 427.3468
1271.338, 427.1381
1271.820, 427.4662
1272.303, 427.9778
1272.785, 428.6847
1273.267, 429.2909
1273.749, 429.6771
1274.231, 429.5927
1274.713, 428.2338
1275.195, 428.3370
1275.677, 428.0567
1276.160, 426.9325
1276.642, 427.3415
1277.124, 425.8558
1277.606, 423.9613
1278.088, 422.6535
1278.570, 421.9028
1279.052, 421.9511
1279.534, 422.5146
1280.016, 422.7585
1280.499, 422.6763
1280.981, 422.5411
1281.463, 422.3943
1281.945, 422.0837
1282.427, 420.9948
1282.909, 420.2690
1283.391, 420.9083
1283.873, 422.0892
1284.356, 422.1958
1284.838, 421.4423
1285.320, 421.2221
1285.802, 421.6635
1286.284, 422.1161
1286.766, 422.4424
1287.248, 422.3877
1287.730, 421.7067
1288.213, 420.9107
1288.695, 420.9022
1289.177, 421.3212
1289.659, 421.0948
1290.141, 420.2287
1290.623, 419.5806
1291.105, 419.5611
1291.587, 419.6185
1292.069, 419.7209
1292.552, 419.7674
1293.034, 419.6076
1293.516, 419.3341
1293.998, 419.0197
1294.480, 418.7072
1294.962, 418.6460
1295.444, 419.1123
1295.926, 418.8170
1296.408, 417.4974
1296.891, 416.2445
1297.373, 415.9834
1297.855, 416.3022
1298.337, 417.3556
1298.819, 418.6060
1299.301, 418.5932
1299.783, 417.1866
1300.265, 415.9068
1300.748, 414.8700
1301.230, 414.0462
1301.712, 410.8522
1302.194, 410.7210
1302.676, 416.5113
##END=



