##NAMES=Melanotekite
##RRUFFID=R090032
##IDEAL CHEMISTRY=Pb^2+^_2_Fe^3+^_2_O_2_Si_2_O_7_
##LOCALITY=Kombat, Namibia
##OWNER=RRUFF
##SOURCE=William W. Pinch
##DESCRIPTION=Black, massive exhibiting greasy luster, associated with colorless to pale brown bladed yangite (R090031). Sample is from the John Innes collection.
##STATUS=The identification of this mineral has been confirmed only by single crystal X-ray diffraction.
##URL=rruff.info/R090032
90.92609, 0.0000000E+00
91.40820, 2.968673
91.89032, 3.112823
92.37244, 3.044537
92.85455, 2.796212
93.33667, 2.561629
93.81879, 2.492436
94.30090, 2.549096
94.78302, 2.616616
95.26514, 2.687214
95.74725, 2.739867
96.22937, 2.691789
96.71149, 2.532308
97.19360, 2.397766
97.67572, 2.472853
98.15784, 2.751622
98.63995, 2.932866
99.12207, 2.897883
99.60419, 2.676543
100.0863, 2.531242
100.5684, 2.472168
101.0505, 2.468772
101.5327, 2.495090
102.0148, 2.567167
102.4969, 2.613820
102.9790, 2.604658
103.4611, 2.526867
103.9432, 2.460023
104.4253, 2.389370
104.9075, 2.338206
105.3896, 2.365543
105.8717, 2.554368
106.3538, 2.709203
106.8359, 2.746267
107.3180, 2.530688
107.8002, 2.431325
108.2823, 2.479997
108.7644, 2.650292
109.2465, 2.848920
109.7286, 3.178470
110.2107, 3.459351
110.6929, 3.619608
111.1750, 3.428077
111.6571, 3.368317
112.1392, 3.521467
112.6213, 3.864804
113.1034, 4.220303
113.5856, 4.580171
114.0677, 4.936862
114.5498, 5.281994
115.0319, 5.538579
115.5140, 5.857927
115.9961, 6.292029
116.4783, 6.840991
116.9604, 7.434719
117.4425, 7.993218
117.9246, 8.607636
118.4067, 9.371995
118.8888, 10.48644
119.3710, 11.64357
119.8531, 12.65439
120.3352, 13.48961
120.8173, 14.31664
121.2994, 15.33896
121.7815, 16.41117
122.2637, 17.28381
122.7458, 17.65534
123.2279, 17.85006
123.7100, 18.17558
124.1921, 18.67555
124.6742, 19.25911
125.1564, 19.84978
125.6385, 20.45636
126.1206, 21.10960
126.6027, 21.82177
127.0848, 22.58842
127.5669, 23.39972
128.0491, 24.25813
128.5312, 25.15258
129.0133, 26.05211
129.4954, 26.95576
129.9775, 27.92977
130.4596, 29.07681
130.9418, 30.34114
131.4239, 31.54222
131.9060, 32.62644
132.3881, 33.65041
132.8702, 34.56272
133.3523, 35.32754
133.8345, 36.48394
134.3166, 39.04039
134.7987, 42.99043
135.2808, 45.62387
135.7629, 45.98344
136.2450, 44.61142
136.7272, 44.21771
137.2093, 44.95668
137.6914, 46.18186
138.1735, 47.36338
138.6556, 48.55289
139.1377, 49.38312
139.6199, 49.74190
140.1020, 49.62803
140.5841, 49.25414
141.0662, 48.50487
141.5483, 47.65674
142.0304, 47.06930
142.5126, 46.83650
142.9947, 46.63860
143.4768, 46.24793
143.9589, 45.53136
144.4410, 44.91979
144.9231, 44.30052
145.4053, 43.84145
145.8874, 43.84608
146.3695, 44.75087
146.8516, 45.49546
147.3337, 45.69138
147.8158, 44.99794
148.2980, 44.66344
148.7801, 44.84566
149.2622, 45.34759
149.7443, 45.77037
150.2264, 46.04794
150.7085, 46.31530
151.1907, 46.60339
151.6728, 46.83920
152.1549, 47.21875
152.6370, 47.82740
153.1191, 48.58588
153.6012, 49.28481
154.0834, 49.87214
154.5655, 50.42143
155.0476, 50.97839
155.5297, 51.65717
156.0118, 52.17931
156.4939, 52.45538
156.9761, 52.53756
157.4582, 52.58673
157.9403, 52.56076
158.4224, 52.56221
158.9045, 52.65363
159.3866, 52.93751
159.8688, 53.20632
160.3509, 53.34070
160.8330, 53.38657
161.3151, 53.55872
161.7972, 54.17287
162.2793, 54.81980
162.7615, 55.18490
163.2436, 54.85421
163.7257, 54.53822
164.2078, 54.60928
164.6899, 55.00842
165.1720, 55.32146
165.6541, 55.13165
166.1363, 54.83915
166.6184, 54.83863
167.1005, 55.58445
167.5826, 56.40667
168.0647, 56.81377
168.5468, 56.84252
169.0290, 56.99166
169.5111, 57.73582
169.9932, 58.74532
170.4753, 59.58825
170.9574, 59.92863
171.4395, 60.13446
171.9217, 60.49233
172.4038, 61.00442
172.8859, 61.61489
173.3680, 62.29332
173.8501, 63.03754
174.3322, 63.85649
174.8144, 64.73202
175.2965, 65.70156
175.7786, 66.82977
176.2607, 68.13272
176.7428, 69.43395
177.2249, 70.42890
177.7071, 71.27731
178.1892, 72.39754
178.6713, 74.32474
179.1534, 76.54311
179.6355, 78.19358
180.1176, 79.24013
180.5998, 79.97120
181.0819, 80.64371
181.5640, 81.24940
182.0461, 81.78537
182.5282, 82.46292
183.0103, 83.04918
183.4925, 82.91052
183.9746, 81.95313
184.4567, 80.63518
184.9388, 79.64401
185.4209, 78.86529
185.9030, 77.66116
186.3852, 75.48853
186.8673, 72.61588
187.3494, 69.87631
187.8315, 67.31416
188.3136, 64.88958
188.7957, 62.43769
189.2779, 59.99070
189.7600, 57.68951
190.2421, 55.58584
190.7242, 53.69918
191.2063, 52.11380
191.6884, 50.86577
192.1706, 49.86022
192.6527, 48.97569
193.1348, 48.21791
193.6169, 47.43344
194.0990, 46.46059
194.5811, 45.32776
195.0633, 44.42577
195.5454, 43.80314
196.0275, 43.35112
196.5096, 42.87830
196.9917, 42.37011
197.4738, 41.97198
197.9560, 41.79988
198.4381, 41.85480
198.9202, 41.86872
199.4023, 41.81430
199.8844, 41.73916
200.3665, 41.74116
200.8487, 41.82906
201.3308, 41.94364
201.8129, 42.06999
202.2950, 42.21281
202.7771, 42.30083
203.2592, 42.30826
203.7414, 42.28619
204.2235, 42.34462
204.7056, 42.49058
205.1877, 42.68415
205.6698, 42.91311
206.1519, 43.18208
206.6341, 43.45679
207.1162, 43.74225
207.5983, 44.02302
208.0804, 44.26060
208.5625, 44.44576
209.0446, 44.60836
209.5268, 44.75146
210.0089, 44.86235
210.4910, 45.01240
210.9731, 45.19831
211.4552, 45.42947
211.9373, 45.73144
212.4195, 46.11963
212.9016, 46.53669
213.3837, 46.97965
213.8658, 47.49334
214.3479, 47.87248
214.8300, 48.10360
215.3121, 48.20726
215.7943, 48.21574
216.2764, 48.08612
216.7585, 47.94999
217.2406, 47.85553
217.7227, 47.79324
218.2048, 47.82100
218.6870, 48.01933
219.1691, 48.26637
219.6512, 48.25727
220.1333, 47.86765
220.6154, 47.44889
221.0975, 47.13271
221.5797, 46.92259
222.0618, 46.81638
222.5439, 46.83133
223.0260, 46.94299
223.5081, 47.11444
223.9902, 47.40299
224.4724, 47.65216
224.9545, 47.78357
225.4366, 47.75070
225.9187, 47.74121
226.4008, 47.74785
226.8829, 47.78213
227.3651, 47.87823
227.8472, 48.09078
228.3293, 48.27538
228.8114, 48.35986
229.2935, 48.28278
229.7757, 48.29362
230.2578, 48.41447
230.7399, 48.61073
231.2220, 48.81018
231.7041, 48.96125
232.1862, 49.19492
232.6684, 49.56568
233.1505, 50.10669
233.6326, 50.69498
234.1147, 51.43441
234.5968, 52.16615
235.0789, 52.53239
235.5611, 52.18030
236.0432, 52.03834
236.5253, 52.49623
237.0074, 53.79972
237.4895, 54.76868
237.9716, 55.25295
238.4538, 55.49528
238.9359, 55.87732
239.4180, 56.43968
239.9001, 57.08678
240.3822, 57.82664
240.8643, 58.70135
241.3465, 59.44187
241.8286, 60.02946
242.3107, 60.49613
242.7928, 60.87915
243.2749, 61.14516
243.7570, 61.38214
244.2392, 61.59591
244.7213, 61.77047
245.2034, 62.03511
245.6855, 62.45842
246.1676, 62.91726
246.6497, 63.23126
247.1319, 63.23951
247.6140, 63.40403
248.0961, 63.90261
248.5782, 64.79655
249.0603, 65.47335
249.5424, 65.89165
250.0246, 66.14062
250.5067, 66.28536
250.9888, 66.18003
251.4709, 66.26364
251.9530, 66.68344
252.4351, 67.46440
252.9173, 68.14271
253.3994, 68.71577
253.8815, 69.20010
254.3636, 69.60615
254.8457, 69.90743
255.3278, 70.17278
255.8100, 70.40057
256.2921, 70.59264
256.7742, 70.83228
257.2563, 71.20862
257.7384, 71.51240
258.2205, 71.53956
258.7026, 71.17825
259.1848, 70.82178
259.6669, 70.52364
260.1490, 70.28015
260.6311, 70.10249
261.1132, 70.07578
261.5953, 69.98018
262.0775, 69.64774
262.5596, 69.02386
263.0417, 68.31779
263.5238, 67.55022
264.0059, 66.71886
264.4880, 65.75136
264.9702, 64.58932
265.4523, 63.41405
265.9344, 62.32752
266.4165, 61.30713
266.8986, 60.43608
267.3807, 59.76699
267.8629, 59.22813
268.3450, 58.55357
268.8271, 57.66098
269.3092, 56.81932
269.7913, 56.13531
270.2734, 55.60246
270.7556, 55.30556
271.2377, 55.30369
271.7198, 55.49439
272.2019, 55.65687
272.6840, 55.79969
273.1661, 55.88987
273.6483, 55.84568
274.1304, 55.61806
274.6125, 55.71175
275.0946, 56.26999
275.5767, 56.96667
276.0588, 57.14368
276.5410, 56.68346
277.0231, 56.30613
277.5052, 56.37333
277.9873, 56.89283
278.4694, 57.23647
278.9515, 57.33904
279.4337, 57.40009
279.9158, 57.76335
280.3979, 58.46637
280.8800, 59.05169
281.3621, 59.25271
281.8442, 59.13599
282.3264, 59.36073
282.8085, 59.98723
283.2906, 60.75128
283.7727, 61.32657
284.2548, 61.71125
284.7369, 62.18480
285.2191, 62.86246
285.7012, 63.68634
286.1833, 64.40048
286.6654, 64.97604
287.1475, 65.63914
287.6296, 66.66566
288.1118, 68.02147
288.5939, 69.30887
289.0760, 70.39992
289.5581, 71.38995
290.0402, 72.55470
290.5223, 73.90275
291.0045, 75.30359
291.4866, 76.72093
291.9687, 78.13329
292.4508, 79.41105
292.9329, 80.47969
293.4150, 81.49158
293.8972, 82.80618
294.3793, 84.39881
294.8614, 85.98101
295.3435, 87.13173
295.8256, 88.10413
296.3077, 89.70971
296.7899, 92.18361
297.2720, 94.86507
297.7541, 96.81019
298.2362, 98.12781
298.7183, 99.34300
299.2004, 100.6664
299.6826, 102.0912
300.1647, 103.6853
300.6468, 105.4723
301.1289, 107.2432
301.6110, 108.7870
302.0931, 110.1462
302.5753, 111.4816
303.0574, 112.9879
303.5395, 114.4478
304.0216, 115.5116
304.5037, 116.1766
304.9858, 116.6898
305.4680, 117.2312
305.9501, 117.7701
306.4322, 118.2520
306.9143, 118.6590
307.3964, 119.0057
307.8785, 119.3754
308.3607, 119.7455
308.8428, 119.9151
309.3249, 119.6094
309.8070, 119.0789
310.2891, 118.6042
310.7712, 118.1800
311.2534, 117.9311
311.7355, 118.0970
312.2176, 118.5571
312.6997, 118.8604
313.1818, 118.5120
313.6639, 118.0450
314.1461, 117.9085
314.6282, 118.3155
315.1103, 118.7987
315.5924, 118.9980
316.0745, 119.1031
316.5566, 119.5164
317.0388, 120.6306
317.5209, 121.9290
318.0030, 123.0927
318.4851, 124.0079
318.9672, 125.1060
319.4493, 126.4788
319.9315, 128.1281
320.4136, 130.0789
320.8957, 132.6901
321.3778, 135.2695
321.8599, 137.5545
322.3420, 139.5045
322.8242, 141.4737
323.3063, 143.3414
323.7884, 145.3524
324.2705, 147.7205
324.7526, 150.7972
325.2347, 153.9206
325.7169, 156.8524
326.1990, 159.6407
326.6811, 162.6098
327.1632, 165.8611
327.6453, 169.2449
328.1274, 172.6768
328.6096, 176.0075
329.0917, 179.5985
329.5738, 183.7655
330.0559, 188.2024
330.5380, 191.9595
331.0201, 194.3946
331.5023, 196.8492
331.9844, 199.9050
332.4665, 203.8607
332.9486, 207.6380
333.4307, 211.2726
333.9128, 214.6912
334.3950, 217.6750
334.8771, 220.1304
335.3592, 222.3748
335.8413, 224.4922
336.3234, 226.5069
336.8055, 228.2742
337.2877, 229.8243
337.7698, 231.0586
338.2519, 231.9149
338.7340, 232.4261
339.2161, 232.4074
339.6982, 231.8265
340.1803, 230.6803
340.6624, 228.9446
341.1446, 226.5332
341.6267, 223.7502
342.1088, 220.8082
342.5909, 217.7445
343.0730, 214.1828
343.5551, 210.1012
344.0373, 205.4996
344.5194, 200.3758
345.0015, 194.6658
345.4836, 188.8466
345.9657, 183.2974
346.4478, 177.9133
346.9300, 172.0330
347.4121, 165.4489
347.8942, 158.7993
348.3763, 152.8262
348.8584, 147.4837
349.3405, 142.3394
349.8227, 137.2214
350.3048, 132.1655
350.7869, 127.2000
351.2690, 122.3415
351.7511, 117.6901
352.2332, 113.3215
352.7154, 109.2783
353.1975, 105.6774
353.6796, 102.7443
354.1617, 100.0711
354.6438, 97.13482
355.1259, 94.00787
355.6081, 91.09710
356.0902, 88.67571
356.5723, 86.57798
357.0544, 84.59306
357.5365, 82.68472
358.0186, 80.91768
358.5008, 79.39408
358.9829, 78.04955
359.4650, 76.74617
359.9471, 75.38174
360.4292, 74.06770
360.9113, 72.89249
361.3935, 71.89388
361.8756, 70.90478
362.3577, 69.69443
362.8398, 68.51759
363.3219, 67.66375
363.8040, 67.54945
364.2862, 67.44334
364.7683, 67.02632
365.2504, 66.31835
365.7325, 65.83410
366.2146, 65.75847
366.6967, 65.88010
367.1789, 66.06767
367.6610, 66.61954
368.1431, 66.86489
368.6252, 66.45869
369.1073, 65.67216
369.5894, 65.36855
370.0716, 65.84985
370.5537, 66.50090
371.0358, 67.12922
371.5179, 67.73606
372.0000, 68.32222
372.4821, 68.91678
372.9643, 69.46437
373.4464, 69.85191
373.9285, 69.91739
374.4106, 70.15739
374.8927, 70.69775
375.3748, 71.53519
375.8570, 72.52853
376.3391, 73.77678
376.8212, 74.98856
377.3033, 75.90303
377.7854, 76.47144
378.2675, 77.05234
378.7497, 77.67669
379.2318, 78.36277
379.7139, 79.27013
380.1960, 80.42496
380.6781, 81.41078
381.1602, 81.95216
381.6424, 82.09353
382.1245, 82.09177
382.6066, 81.94817
383.0887, 81.71301
383.5708, 81.51392
384.0529, 81.30582
384.5351, 80.85361
385.0172, 79.99452
385.4993, 78.87306
385.9814, 77.69320
386.4635, 76.46324
386.9456, 75.14526
387.4278, 73.63115
387.9099, 72.04436
388.3920, 70.55344
388.8741, 69.18697
389.3562, 67.97276
389.8383, 66.99834
390.3205, 66.18916
390.8026, 65.36379
391.2847, 64.33402
391.7668, 63.31134
392.2489, 62.45797
392.7310, 61.81946
393.2132, 61.23862
393.6953, 60.61951
394.1774, 60.02846
394.6595, 59.54205
395.1416, 59.18746
395.6237, 58.94490
396.1059, 58.80742
396.5880, 58.77533
397.0701, 58.85529
397.5522, 59.17606
398.0343, 59.52370
398.5164, 59.77119
398.9986, 59.81819
399.4807, 59.88175
399.9628, 59.96948
400.4449, 60.07845
400.9270, 60.19257
401.4091, 60.19198
401.8913, 60.35094
402.3734, 60.78112
402.8555, 61.52833
403.3376, 62.28719
403.8197, 63.04027
404.3018, 63.82485
404.7840, 64.67007
405.2661, 65.56429
405.7482, 66.57418
406.2303, 67.74724
406.7124, 69.03973
407.1945, 70.34009
407.6767, 71.66295
408.1588, 72.91603
408.6409, 73.99053
409.1230, 74.89852
409.6051, 75.90254
410.0872, 77.03772
410.5694, 78.25044
411.0515, 79.52972
411.5336, 80.84603
412.0157, 81.97592
412.4978, 82.79504
412.9799, 83.37005
413.4621, 83.89296
413.9442, 84.36448
414.4263, 84.56174
414.9084, 84.23013
415.3905, 83.52621
415.8727, 82.67138
416.3548, 81.63386
416.8369, 80.60864
417.3190, 79.66399
417.8011, 78.85088
418.2832, 78.29148
418.7654, 78.06583
419.2475, 78.10892
419.7296, 78.45032
420.2117, 79.14517
420.6938, 79.80161
421.1759, 79.96667
421.6581, 80.13009
422.1402, 80.81591
422.6223, 82.57761
423.1044, 84.41553
423.5865, 86.08821
424.0686, 87.60707
424.5508, 89.16762
425.0329, 90.85595
425.5150, 92.52048
425.9971, 94.09081
426.4792, 95.52605
426.9613, 96.95539
427.4435, 98.44614
427.9256, 99.88588
428.4077, 101.0811
428.8898, 101.9806
429.3719, 102.7868
429.8540, 103.5931
430.3362, 104.3806
430.8183, 104.8537
431.3004, 104.9198
431.7825, 104.9287
432.2646, 105.2361
432.7467, 105.8420
433.2289, 106.2070
433.7110, 106.1929
434.1931, 106.0082
434.6752, 106.0226
435.1573, 106.2228
435.6394, 106.4697
436.1216, 106.7776
436.6036, 107.0663
437.0858, 107.0910
437.5679, 106.8406
438.0500, 106.6018
438.5321, 106.7163
439.0142, 106.9975
439.4963, 107.1313
439.9785, 107.0113
440.4606, 106.7335
440.9427, 106.4132
441.4248, 106.0084
441.9069, 105.3936
442.3890, 104.4996
442.8712, 103.3844
443.3533, 102.0404
443.8354, 100.4247
444.3175, 98.79759
444.7996, 97.17114
445.2817, 95.62424
445.7639, 94.22547
446.2460, 93.07311
446.7281, 91.96916
447.2102, 90.98631
447.6923, 90.07155
448.1744, 88.89328
448.6566, 87.16147
449.1387, 85.46085
449.6208, 84.06313
450.1029, 83.06345
450.5850, 82.04099
451.0671, 80.95438
451.5493, 79.90034
452.0314, 79.08292
452.5135, 78.60876
452.9956, 77.93011
453.4777, 76.85041
453.9598, 75.47411
454.4420, 74.23215
454.9241, 73.14973
455.4062, 72.06867
455.8883, 70.78024
456.3704, 69.37429
456.8525, 68.36613
457.3347, 67.92004
457.8168, 67.52763
458.2989, 66.48365
458.7810, 64.96738
459.2631, 63.54183
459.7452, 62.45142
460.2274, 61.55688
460.7095, 60.77636
461.1916, 60.08324
461.6737, 59.35614
462.1558, 58.41765
462.6379, 57.45617
463.1201, 56.66339
463.6022, 56.14867
464.0843, 55.61094
464.5664, 54.83306
465.0485, 53.97070
465.5306, 53.27249
466.0128, 52.95309
466.4949, 52.64929
466.9770, 52.25716
467.4591, 51.77070
467.9412, 51.29173
468.4233, 50.84435
468.9055, 50.38237
469.3876, 49.85058
469.8697, 49.10196
470.3518, 48.63122
470.8339, 48.57540
471.3160, 48.70739
471.7982, 48.58949
472.2803, 48.16735
472.7624, 47.70755
473.2445, 47.27129
473.7266, 46.86954
474.2087, 46.64184
474.6909, 46.61736
475.1730, 46.52251
475.6551, 46.01646
476.1372, 45.21662
476.6193, 44.62572
477.1014, 44.34885
477.5836, 44.21766
478.0657, 44.01777
478.5478, 43.79381
479.0299, 43.67666
479.5120, 43.81565
479.9941, 44.02915
480.4763, 44.19279
480.9584, 44.29718
481.4405, 44.26881
481.9226, 43.86639
482.4047, 43.43203
482.8868, 43.26604
483.3690, 43.57658
483.8511, 43.85056
484.3332, 43.86860
484.8153, 43.77430
485.2974, 43.80227
485.7795, 44.06340
486.2617, 44.36866
486.7438, 44.70282
487.2259, 45.06536
487.7080, 45.35475
488.1901, 45.50595
488.6722, 45.67182
489.1544, 45.94970
489.6365, 46.35819
490.1186, 46.80479
490.6007, 47.30794
491.0828, 47.81841
491.5649, 48.26782
492.0471, 48.65076
492.5292, 49.00449
493.0113, 49.30292
493.4934, 49.59431
493.9755, 50.00197
494.4576, 50.52219
494.9398, 51.16452
495.4219, 51.93805
495.9040, 52.83774
496.3861, 53.85672
496.8682, 55.03275
497.3503, 56.18613
497.8325, 57.18070
498.3146, 58.06073
498.7967, 58.91573
499.2788, 59.56252
499.7609, 60.38722
500.2430, 61.72016
500.7252, 63.43628
501.2073, 65.01281
501.6894, 65.70433
502.1715, 66.67994
502.6536, 68.64009
503.1357, 72.15422
503.6179, 75.15353
504.1000, 77.23648
504.5821, 79.01313
505.0642, 81.04185
505.5463, 83.22732
506.0284, 85.88360
506.5106, 89.16056
506.9927, 92.88587
507.4748, 96.42371
507.9569, 99.67198
508.4390, 103.2198
508.9211, 107.4289
509.4033, 112.2345
509.8854, 117.0163
510.3675, 121.7263
510.8496, 126.8089
511.3317, 133.0162
511.8138, 139.9799
512.2960, 146.4826
512.7781, 152.1205
513.2602, 157.7528
513.7423, 164.3422
514.2244, 171.6555
514.7065, 179.1232
515.1887, 186.2746
515.6708, 193.6777
516.1529, 201.6420
516.6350, 210.2039
517.1171, 219.0993
517.5992, 228.4212
518.0814, 237.8264
518.5635, 247.0670
519.0456, 256.0356
519.5277, 264.9928
520.0098, 273.6231
520.4919, 282.3228
520.9741, 291.7438
521.4562, 302.2795
521.9383, 312.5865
522.4204, 322.5305
522.9025, 332.0169
523.3846, 340.4095
523.8668, 347.5577
524.3489, 354.0040
524.8310, 360.3410
525.3131, 366.4572
525.7952, 371.2758
526.2773, 374.8218
526.7595, 376.8488
527.2416, 376.9718
527.7237, 375.3424
528.2058, 372.3102
528.6879, 368.0165
529.1700, 362.3772
529.6522, 355.0677
530.1343, 346.3521
530.6164, 336.7505
531.0985, 326.1483
531.5806, 315.1281
532.0627, 304.0424
532.5449, 292.9515
533.0270, 281.9714
533.5091, 271.1913
533.9912, 260.5742
534.4733, 250.2479
534.9554, 239.9218
535.4376, 230.0638
535.9197, 220.7182
536.4018, 211.8692
536.8839, 203.7427
537.3660, 196.2357
537.8481, 189.5704
538.3303, 183.8873
538.8124, 179.0539
539.2945, 174.1420
539.7766, 169.0907
540.2587, 164.4830
540.7408, 160.7844
541.2230, 157.8494
541.7051, 155.3126
542.1872, 153.1635
542.6693, 151.3019
543.1514, 149.6417
543.6335, 148.1873
544.1157, 146.9004
544.5978, 145.7859
545.0799, 144.8176
545.5620, 144.1734
546.0441, 143.6807
546.5262, 142.9123
547.0084, 141.5482
547.4905, 140.0241
547.9726, 138.5145
548.4547, 137.0483
548.9368, 135.4085
549.4189, 133.7263
549.9011, 131.7361
550.3832, 129.2148
550.8653, 125.7487
551.3474, 122.7349
551.8295, 120.3787
552.3116, 118.2943
552.7938, 115.8947
553.2759, 113.1342
553.7580, 110.4933
554.2401, 108.0757
554.7222, 105.8787
555.2043, 103.9106
555.6865, 102.1812
556.1686, 100.6072
556.6507, 99.15784
557.1328, 97.83405
557.6149, 96.64915
558.0970, 95.60592
558.5792, 94.55994
559.0613, 93.31752
559.5434, 92.07799
560.0255, 91.05887
560.5076, 90.43645
560.9897, 89.83236
561.4719, 88.91580
561.9540, 87.97905
562.4361, 87.51932
562.9182, 88.12573
563.4003, 88.61035
563.8824, 88.67931
564.3646, 88.41148
564.8467, 88.38895
565.3288, 88.68616
565.8109, 89.07310
566.2930, 89.46491
566.7751, 89.86192
567.2573, 90.12737
567.7394, 90.22166
568.2215, 90.37190
568.7036, 90.89596
569.1857, 91.69039
569.6678, 92.38862
570.1500, 92.89676
570.6321, 93.31322
571.1142, 93.76590
571.5963, 94.20779
572.0784, 94.53114
572.5605, 94.57835
573.0427, 94.59388
573.5248, 94.80744
574.0069, 95.16494
574.4890, 95.30941
574.9711, 94.97581
575.4532, 94.52647
575.9354, 94.13020
576.4175, 93.80690
576.8996, 93.52164
577.3817, 93.44622
577.8638, 93.24471
578.3459, 92.54115
578.8281, 91.18502
579.3102, 89.97816
579.7923, 89.02573
580.2744, 88.23350
580.7565, 87.49832
581.2386, 86.81155
581.7208, 86.03550
582.2029, 85.12302
582.6850, 84.07508
583.1671, 82.82286
583.6492, 81.39230
584.1313, 79.94268
584.6134, 78.47842
585.0955, 77.08501
585.5776, 75.88494
586.0598, 74.90839
586.5419, 73.87595
587.0240, 72.58215
587.5061, 71.22183
587.9882, 69.95612
588.4703, 68.86166
588.9525, 67.79275
589.4346, 66.76407
589.9167, 65.74638
590.3988, 64.67096
590.8809, 63.48322
591.3630, 62.40301
591.8452, 61.48522
592.3273, 60.71018
592.8094, 60.03953
593.2915, 59.48083
593.7736, 58.89864
594.2557, 58.16658
594.7379, 57.35923
595.2200, 56.69214
595.7021, 56.17468
596.1842, 55.61081
596.6663, 54.70714
597.1484, 53.72818
597.6306, 53.03114
598.1127, 52.80887
598.5948, 52.54883
599.0769, 51.92157
599.5590, 51.15394
600.0411, 50.52843
600.5233, 50.24183
601.0054, 49.94847
601.4875, 49.55267
601.9696, 49.11122
602.4517, 48.81706
602.9338, 48.78293
603.4160, 48.64030
603.8981, 48.19371
604.3802, 47.49076
604.8623, 47.10337
605.3444, 47.07141
605.8265, 47.00846
606.3087, 46.49133
606.7908, 45.71810
607.2729, 45.28695
607.7550, 45.27920
608.2371, 45.33547
608.7192, 45.08672
609.2014, 44.71389
609.6835, 44.48020
610.1656, 44.59893
610.6477, 44.64225
611.1298, 44.29196
611.6119, 43.76298
612.0941, 43.43295
612.5762, 43.65565
613.0583, 43.76891
613.5404, 43.54743
614.0225, 43.08348
614.5046, 42.88044
614.9868, 43.04981
615.4689, 43.23235
615.9510, 43.29242
616.4331, 43.22842
616.9152, 42.95052
617.3973, 42.42603
617.8795, 41.98162
618.3616, 42.05970
618.8437, 42.43237
619.3258, 42.51035
619.8079, 42.16522
620.2900, 41.77787
620.7722, 41.67194
621.2543, 41.73159
621.7364, 41.79507
622.2185, 41.79785
622.7006, 41.81372
623.1827, 41.92120
623.6649, 42.05804
624.1470, 42.07589
624.6291, 41.91953
625.1112, 41.68430
625.5933, 41.33335
626.0754, 40.90118
626.5576, 40.66704
627.0397, 40.66211
627.5218, 40.75130
628.0039, 40.93897
628.4860, 41.19170
628.9681, 41.15434
629.4503, 40.80434
629.9324, 40.46203
630.4145, 40.49060
630.8966, 40.69917
631.3787, 40.73114
631.8608, 40.48190
632.3430, 40.23538
632.8251, 40.24102
633.3072, 40.33976
633.7893, 40.33561
634.2714, 40.00569
634.7535, 39.76591
635.2357, 39.77611
635.7178, 39.92433
636.1999, 39.94999
636.6820, 39.76829
637.1641, 39.62476
637.6462, 39.61937
638.1284, 39.70206
638.6105, 39.56466
639.0926, 39.17620
639.5747, 38.84722
640.0568, 38.80822
640.5389, 38.96722
641.0211, 39.08740
641.5032, 39.16365
641.9853, 39.16272
642.4674, 39.02860
642.9495, 38.81864
643.4316, 38.58294
643.9138, 38.31988
644.3959, 38.08493
644.8780, 37.94017
645.3601, 37.82125
645.8422, 37.66771
646.3243, 37.38180
646.8065, 37.18398
647.2886, 37.12952
647.7707, 37.13923
648.2528, 37.07267
648.7349, 36.92023
649.2170, 36.71648
649.6992, 36.41790
650.1813, 36.11488
650.6634, 36.10452
651.1455, 36.35480
651.6276, 36.54075
652.1097, 36.43630
652.5919, 36.19292
653.0740, 35.99609
653.5561, 35.84476
654.0382, 35.69430
654.5203, 35.48903
655.0024, 35.30137
655.4846, 35.17183
655.9667, 35.10439
656.4488, 35.10667
656.9309, 35.32411
657.4130, 35.49651
657.8951, 35.42645
658.3773, 34.99497
658.8594, 34.67315
659.3415, 34.49613
659.8236, 34.39452
660.3057, 34.27730
660.7878, 34.14899
661.2700, 34.05105
661.7521, 34.00094
662.2342, 33.96850
662.7163, 33.93540
663.1984, 33.88859
663.6805, 33.79454
664.1627, 33.54223
664.6448, 33.32902
665.1269, 33.32927
665.6090, 33.47971
666.0911, 33.53685
666.5732, 33.28110
667.0554, 33.09127
667.5375, 33.13830
668.0196, 33.41749
668.5017, 33.51051
668.9838, 33.33751
669.4659, 33.16747
669.9481, 33.19234
670.4302, 33.39487
670.9123, 33.47434
671.3944, 33.41906
671.8765, 33.33538
672.3586, 33.28127
672.8408, 33.27874
673.3229, 33.38374
673.8050, 33.62474
674.2871, 33.87963
674.7692, 34.09937
675.2513, 34.27391
675.7335, 34.39025
676.2156, 34.28884
676.6977, 34.32909
677.1798, 34.63818
677.6619, 35.08171
678.1440, 35.45469
678.6262, 35.69617
679.1083, 36.05008
679.5904, 36.63148
680.0725, 37.29958
680.5546, 37.65379
681.0367, 37.71590
681.5189, 37.90558
682.0010, 38.52196
682.4831, 39.31224
682.9652, 39.87651
683.4473, 40.25719
683.9294, 40.70646
684.4116, 41.40838
684.8937, 42.17732
685.3758, 42.92108
685.8579, 43.62594
686.3400, 44.29785
686.8221, 44.86651
687.3043, 45.46156
687.7864, 46.18061
688.2685, 47.08887
688.7506, 47.73414
689.2327, 48.05714
689.7148, 48.29031
690.1970, 48.72424
690.6791, 49.29639
691.1612, 49.59370
691.6433, 49.56628
692.1254, 49.26318
692.6075, 48.68250
693.0897, 47.86840
693.5718, 46.87014
694.0539, 45.60712
694.5360, 44.34554
695.0181, 43.20086
695.5002, 42.12743
695.9824, 41.02776
696.4645, 39.89071
696.9466, 38.71377
697.4287, 37.42451
697.9108, 36.12529
698.3929, 35.09584
698.8751, 34.35883
699.3572, 33.69167
699.8393, 33.01194
700.3214, 32.35044
700.8035, 31.75846
701.2856, 31.24317
701.7678, 30.84701
702.2499, 30.74788
702.7320, 30.66840
703.2141, 30.29278
703.6962, 29.65925
704.1783, 29.11583
704.6605, 28.83316
705.1426, 28.63568
705.6247, 28.43066
706.1068, 28.20251
706.5889, 28.08706
707.0710, 28.14890
707.5532, 28.21296
708.0353, 28.17567
708.5174, 28.03715
708.9995, 27.81909
709.4816, 27.51219
709.9637, 27.19333
710.4459, 26.89183
710.9280, 26.64049
711.4101, 26.52725
711.8922, 26.58869
712.3743, 26.66815
712.8564, 26.68666
713.3386, 26.66099
713.8207, 26.60691
714.3028, 26.47419
714.7849, 26.39689
715.2670, 26.46091
715.7491, 26.53390
716.2313, 26.41891
716.7134, 26.05212
717.1955, 25.76673
717.6776, 25.62207
718.1597, 25.57360
718.6418, 25.56541
719.1240, 25.58657
719.6061, 25.58006
720.0882, 25.47710
720.5703, 25.39668
721.0524, 25.54630
721.5345, 25.81425
722.0167, 25.93233
722.4988, 25.61009
722.9809, 25.31672
723.4630, 25.26422
723.9451, 25.40130
724.4272, 25.44263
724.9094, 25.32792
725.3915, 25.23395
725.8736, 25.22131
726.3557, 25.28164
726.8378, 25.41356
727.3199, 25.62090
727.8021, 25.71852
728.2842, 25.46831
728.7663, 25.08539
729.2484, 24.95440
729.7305, 25.06335
730.2126, 25.15880
730.6948, 25.05121
731.1769, 24.91553
731.6590, 24.85927
732.1411, 24.89533
732.6232, 25.00452
733.1053, 25.29354
733.5875, 25.52757
734.0696, 25.53988
734.5517, 25.29139
735.0338, 25.11998
735.5159, 25.02602
735.9980, 25.00274
736.4802, 25.10364
736.9623, 25.26712
737.4444, 25.30406
737.9265, 25.17791
738.4086, 25.03809
738.8907, 25.02697
739.3729, 25.04959
739.8550, 24.99451
740.3371, 24.76383
740.8192, 24.60571
741.3013, 24.59887
741.7834, 24.66243
742.2656, 24.74062
742.7477, 24.86958
743.2298, 24.86267
743.7119, 24.65071
744.1940, 24.40234
744.6761, 24.39234
745.1583, 24.57895
745.6404, 24.76284
746.1225, 24.89787
746.6046, 24.99692
747.0867, 25.07040
747.5688, 25.11677
748.0510, 25.13260
748.5331, 25.16352
749.0152, 25.11094
749.4973, 24.87240
749.9794, 24.54855
750.4615, 24.33433
750.9437, 24.24033
751.4258, 24.24527
751.9079, 24.38402
752.3900, 24.58326
752.8721, 24.65442
753.3542, 24.60775
753.8364, 24.54933
754.3185, 24.51655
754.8006, 24.50193
755.2827, 24.50101
755.7648, 24.51165
756.2469, 24.52799
756.7291, 24.59401
757.2112, 24.61781
757.6933, 24.54549
758.1754, 24.39140
758.6575, 24.23154
759.1396, 24.00087
759.6218, 23.90598
760.1039, 24.07517
760.5860, 24.42632
761.0681, 24.60424
761.5502, 24.61003
762.0323, 24.52703
762.5145, 24.29638
762.9966, 24.06532
763.4787, 24.08278
763.9608, 24.30969
764.4429, 24.48945
764.9250, 24.45922
765.4072, 24.38645
765.8893, 24.35636
766.3714, 24.37498
766.8535, 24.37157
767.3356, 24.31438
767.8177, 24.29354
768.2999, 24.38849
768.7820, 24.57653
769.2641, 24.59784
769.7462, 24.44757
770.2283, 24.28172
770.7104, 24.23659
771.1926, 24.23542
771.6747, 24.13245
772.1568, 23.92761
772.6389, 23.82505
773.1210, 24.07438
773.6031, 24.33747
774.0853, 24.39075
774.5674, 24.18306
775.0495, 23.99236
775.5316, 23.78952
776.0137, 23.65513
776.4958, 23.67671
776.9780, 23.84389
777.4601, 23.89952
777.9422, 23.83322
778.4243, 23.78189
778.9064, 23.89341
779.3885, 24.07455
779.8707, 24.21822
780.3528, 24.31426
780.8349, 24.33480
781.3170, 24.19790
781.7991, 24.02987
782.2812, 23.91434
782.7633, 23.84831
783.2454, 23.87053
783.7275, 24.04515
784.2097, 24.18394
784.6918, 24.06732
785.1739, 23.73512
785.6560, 23.59275
786.1381, 23.67672
786.6202, 23.80683
787.1024, 23.79775
787.5845, 23.74658
788.0666, 23.78937
788.5487, 23.97073
789.0308, 24.12726
789.5129, 24.20434
789.9951, 24.23108
790.4772, 24.23018
790.9593, 24.20053
791.4414, 24.14764
791.9235, 24.06823
792.4056, 23.97091
792.8878, 23.84312
793.3699, 23.69826
793.8520, 23.59664
794.3341, 23.54052
794.8162, 23.55696
795.2983, 23.77980
795.7805, 24.03039
796.2626, 24.08625
796.7447, 23.82643
797.2268, 23.62548
797.7089, 23.58627
798.1910, 23.63355
798.6732, 23.72883
799.1553, 23.91428
799.6374, 23.98114
800.1195, 23.90042
800.6016, 23.78109
801.0837, 23.72529
801.5659, 23.72451
802.0480, 23.77270
802.5301, 23.88061
803.0122, 23.93936
803.4943, 23.78301
803.9764, 23.58426
804.4586, 23.53770
804.9407, 23.80916
805.4228, 23.88739
805.9049, 23.52308
806.3870, 23.16771
806.8691, 23.24445
807.3513, 23.82664
807.8334, 24.17067
808.3155, 24.21214
808.7976, 24.15334
809.2797, 24.20861
809.7618, 24.31691
810.2440, 24.35681
810.7261, 24.30466
811.2082, 24.21878
811.6903, 24.07307
812.1724, 23.94411
812.6545, 23.90372
813.1367, 23.98782
813.6188, 24.09377
814.1009, 24.25422
814.5830, 24.38243
815.0651, 24.37152
815.5472, 24.23487
816.0294, 24.15789
816.5115, 24.15212
816.9936, 24.22396
817.4757, 24.45521
817.9578, 24.73044
818.4399, 24.89293
818.9221, 24.89495
819.4042, 24.91387
819.8863, 25.03996
820.3684, 25.18069
820.8505, 25.27738
821.3326, 25.32929
821.8148, 25.32009
822.2969, 25.21954
822.7790, 25.15488
823.2611, 25.27983
823.7432, 25.52996
824.2253, 25.67845
824.7075, 25.70501
825.1896, 25.76554
825.6717, 26.07313
826.1538, 26.39445
826.6359, 26.51283
827.1180, 26.35727
827.6002, 26.24527
828.0823, 26.22591
828.5644, 26.23440
829.0465, 26.22138
829.5286, 26.18429
830.0107, 26.28179
830.4929, 26.52781
830.9750, 26.73081
831.4571, 26.71777
831.9392, 26.57282
832.4213, 26.38606
832.9034, 26.17157
833.3856, 26.01975
833.8677, 26.02447
834.3498, 26.06359
834.8319, 26.05823
835.3140, 26.00266
835.7961, 26.01809
836.2783, 26.14461
836.7604, 26.23202
837.2425, 26.16470
837.7246, 25.98997
838.2067, 25.90357
838.6888, 25.89894
839.1710, 25.92031
839.6531, 25.94639
840.1352, 25.97080
840.6173, 25.98121
841.0994, 25.98025
841.5815, 25.99778
842.0637, 26.02711
842.5458, 26.09310
843.0279, 26.22210
843.5100, 26.39691
843.9921, 26.52353
844.4742, 26.60238
844.9564, 26.60076
845.4385, 26.43336
845.9206, 26.22534
846.4027, 26.15110
846.8848, 26.19788
847.3669, 26.32096
847.8491, 26.55215
848.3312, 26.80283
848.8133, 27.04621
849.2954, 27.28406
849.7775, 27.53164
850.2596, 27.82490
850.7418, 28.00178
851.2239, 27.95709
851.7060, 27.83974
852.1881, 28.01175
852.6702, 28.41321
853.1523, 28.80276
853.6345, 29.06985
854.1166, 29.30896
854.5987, 29.50070
855.0808, 29.72287
855.5629, 30.13581
856.0450, 31.02393
856.5272, 31.70936
857.0093, 32.02915
857.4914, 32.20464
857.9735, 32.60961
858.4556, 33.23241
858.9377, 33.92306
859.4199, 34.65546
859.9020, 35.38140
860.3841, 36.03069
860.8662, 36.63841
861.3483, 37.24751
861.8304, 37.71447
862.3126, 38.46501
862.7947, 39.79920
863.2768, 41.33155
863.7589, 42.71767
864.2410, 43.92826
864.7231, 45.19196
865.2053, 46.52115
865.6874, 47.95123
866.1695, 49.59761
866.6516, 51.37304
867.1337, 53.08786
867.6158, 54.69244
868.0980, 56.40602
868.5801, 58.46096
869.0622, 60.60809
869.5443, 62.62067
870.0264, 64.43580
870.5085, 66.55009
870.9907, 69.08389
871.4728, 71.54218
871.9549, 73.41775
872.4370, 74.88359
872.9191, 76.66531
873.4012, 78.77501
873.8834, 80.89384
874.3655, 83.01516
874.8476, 84.89433
875.3297, 86.30727
875.8118, 87.24656
876.2939, 88.14647
876.7761, 89.18361
877.2582, 89.97504
877.7403, 90.41418
878.2224, 90.48828
878.7045, 90.06546
879.1866, 89.16889
879.6688, 88.11354
880.1509, 87.10406
880.6330, 85.98509
881.1151, 84.47075
881.5972, 82.70558
882.0793, 81.13177
882.5615, 79.94788
883.0436, 78.87778
883.5257, 77.88712
884.0078, 76.95701
884.4899, 76.04765
884.9720, 75.15942
885.4542, 74.27283
885.9363, 73.33423
886.4184, 72.50587
886.9005, 72.01911
887.3826, 71.78599
887.8647, 71.67336
888.3469, 71.75878
888.8290, 71.75468
889.3111, 71.45719
889.7932, 71.10001
890.2753, 70.95097
890.7574, 71.10539
891.2396, 71.02808
891.7217, 70.67741
892.2038, 70.12984
892.6859, 69.52944
893.1680, 68.77403
893.6501, 67.60442
894.1323, 65.94720
894.6144, 64.22124
895.0965, 62.60653
895.5786, 61.01186
896.0607, 59.34294
896.5428, 57.57911
897.0250, 55.88201
897.5071, 54.27293
897.9892, 52.66815
898.4713, 50.88447
898.9534, 49.07894
899.4355, 47.70793
899.9177, 46.73708
900.3998, 45.83872
900.8819, 44.91156
901.3640, 43.94270
901.8461, 42.82363
902.3282, 41.63517
902.8104, 40.82350
903.2925, 40.61857
903.7746, 40.23002
904.2567, 39.32479
904.7388, 38.21827
905.2209, 37.71157
905.7031, 37.67537
906.1852, 37.58739
906.6673, 37.21100
907.1494, 36.77753
907.6315, 36.46537
908.1136, 36.18961
908.5958, 35.80514
909.0779, 35.13654
909.5600, 34.66991
910.0421, 34.48037
910.5242, 34.42108
911.0063, 34.32405
911.4885, 34.19652
911.9706, 34.06208
912.4527, 33.91994
912.9348, 33.81850
913.4169, 33.92555
913.8990, 34.00692
914.3812, 33.78628
914.8633, 33.09583
915.3454, 32.73622
915.8275, 32.88829
916.3096, 33.09814
916.7917, 33.08591
917.2739, 32.89302
917.7560, 32.80501
918.2381, 32.81383
918.7202, 32.82488
919.2023, 32.68244
919.6844, 32.59728
920.1666, 32.81380
920.6487, 33.26289
921.1308, 33.55923
921.6129, 33.60027
922.0950, 33.56852
922.5771, 33.47186
923.0593, 33.35765
923.5414, 33.32296
924.0235, 33.37285
924.5056, 33.57020
924.9877, 34.04638
925.4698, 34.44151
925.9520, 34.27773
926.4341, 33.89681
926.9162, 33.77782
927.3983, 34.24810
927.8804, 34.65090
928.3625, 34.91882
928.8447, 35.19963
929.3268, 35.69919
929.8089, 36.37263
930.2910, 36.89101
930.7731, 37.22619
931.2552, 37.49023
931.7374, 37.65592
932.2195, 37.88331
932.7016, 38.38151
933.1837, 39.19584
933.6658, 39.80553
934.1479, 40.03072
934.6301, 40.29773
935.1122, 40.79244
935.5943, 41.47536
936.0764, 42.19088
936.5585, 42.94366
937.0406, 43.71916
937.5228, 44.54863
938.0049, 45.37493
938.4870, 46.05182
938.9691, 46.70332
939.4512, 47.63874
939.9333, 49.13922
940.4155, 50.49281
940.8976, 51.53123
941.3797, 52.51453
941.8618, 53.81999
942.3439, 55.42107
942.8260, 57.15582
943.3082, 59.02789
943.7903, 60.97845
944.2724, 62.92656
944.7545, 64.95045
945.2366, 67.13405
945.7188, 69.48135
946.2009, 72.04817
946.6830, 74.87781
947.1651, 77.85929
947.6472, 80.94784
948.1293, 84.11736
948.6115, 87.33164
949.0936, 90.58301
949.5757, 93.91657
950.0578, 97.19254
950.5399, 100.6729
951.0220, 104.5402
951.5042, 108.7580
951.9863, 113.1465
952.4684, 117.8504
952.9505, 122.3403
953.4326, 126.5570
953.9147, 130.4149
954.3969, 133.8151
954.8790, 136.7959
955.3611, 139.4945
955.8432, 142.0004
956.3253, 144.0135
956.8074, 145.5961
957.2896, 146.4305
957.7717, 146.3143
958.2538, 145.3672
958.7359, 142.9258
959.2180, 138.7739
959.7001, 134.1020
960.1823, 130.0485
960.6644, 126.0788
961.1465, 121.0888
961.6286, 115.1191
962.1107, 109.1392
962.5928, 103.3020
963.0750, 97.88874
963.5571, 93.02654
964.0392, 88.61453
964.5213, 84.37364
965.0034, 80.28377
965.4855, 76.61563
965.9677, 73.51253
966.4498, 70.67641
966.9319, 67.68993
967.4140, 64.69397
967.8961, 62.01159
968.3782, 59.84838
968.8604, 57.73003
969.3425, 55.40705
969.8246, 53.18756
970.3067, 51.35007
970.7888, 49.92416
971.2709, 48.33351
971.7531, 46.55384
972.2352, 44.87925
972.7173, 43.55713
973.1994, 42.44823
973.6815, 41.47008
974.1636, 40.60896
974.6458, 39.76390
975.1279, 38.90609
975.6100, 38.08291
976.0921, 37.29737
976.5742, 36.56263
977.0563, 35.88651
977.5385, 35.28016
978.0206, 34.86896
978.5027, 34.79642
978.9848, 34.72542
979.4669, 34.37494
979.9490, 33.88560
980.4311, 33.43011
980.9132, 32.98981
981.3953, 32.67833
981.8774, 32.52900
982.3596, 32.42611
982.8417, 32.25972
983.3238, 32.05907
983.8059, 31.89839
984.2880, 31.78349
984.7701, 31.74494
985.2523, 31.98314
985.7344, 32.12639
986.2165, 31.81725
986.6986, 31.22014
987.1807, 31.04221
987.6628, 31.33962
988.1450, 31.75060
988.6271, 32.21809
989.1092, 32.64764
989.5913, 32.89291
990.0734, 33.00024
990.5555, 33.04485
991.0377, 32.99572
991.5198, 32.99506
992.0019, 33.00043
992.4840, 33.13928
992.9661, 33.59032
993.4482, 34.37217
993.9304, 34.83641
994.4125, 34.97223
994.8946, 35.05043
995.3767, 35.25618
995.8588, 35.51171
996.3409, 35.79703
996.8231, 36.08221
997.3052, 36.21344
997.7873, 36.05216
998.2694, 35.94992
998.7515, 35.98542
999.2336, 36.11572
999.7158, 36.33634
1000.198, 36.58662
1000.680, 36.60471
1001.162, 36.25135
1001.644, 35.89622
1002.126, 35.90456
1002.608, 35.93512
1003.091, 35.65196
1003.573, 34.98312
1004.055, 34.41561
1004.537, 33.97295
1005.019, 33.49868
1005.501, 32.83547
1005.983, 32.09390
1006.465, 31.44505
1006.948, 30.87413
1007.430, 30.29402
1007.912, 29.56937
1008.394, 28.97458
1008.876, 28.65752
1009.358, 28.45060
1009.840, 27.98433
1010.322, 27.27390
1010.804, 26.90729
1011.287, 27.03304
1011.769, 27.19311
1012.251, 26.92747
1012.733, 26.49217
1013.215, 26.11710
1013.697, 25.82829
1014.179, 25.67348
1014.661, 25.71623
1015.143, 25.74800
1015.626, 25.66212
1016.108, 25.49362
1016.590, 25.32017
1017.072, 25.15413
1017.554, 25.03539
1018.036, 24.97201
1018.518, 24.97235
1019.000, 25.08372
1019.483, 25.24187
1019.965, 25.38334
1020.447, 25.53625
1020.929, 25.46692
1021.411, 25.12568
1021.893, 24.78615
1022.375, 24.70114
1022.857, 24.77867
1023.339, 24.98710
1023.822, 25.30671
1024.304, 25.40747
1024.786, 25.00836
1025.268, 24.65530
1025.750, 24.49589
1026.232, 24.49730
1026.714, 24.58282
1027.196, 24.75240
1027.679, 25.04077
1028.161, 25.57637
1028.643, 25.94707
1029.125, 25.69629
1029.607, 25.24976
1030.089, 25.08981
1030.571, 25.33499
1031.053, 25.44545
1031.536, 25.39888
1032.018, 25.32573
1032.500, 25.29557
1032.982, 25.31387
1033.464, 25.43924
1033.946, 25.63279
1034.428, 25.73935
1034.910, 25.58725
1035.392, 25.49274
1035.875, 25.56474
1036.357, 25.69120
1036.839, 25.64915
1037.321, 25.46347
1037.803, 25.36432
1038.285, 25.39440
1038.767, 25.47212
1039.249, 25.55193
1039.731, 25.63581
1040.214, 25.72773
1040.696, 25.82753
1041.178, 25.94675
1041.660, 26.12265
1042.142, 26.16110
1042.624, 25.88980
1043.106, 25.52955
1043.588, 25.50580
1044.071, 25.69903
1044.553, 25.83661
1045.035, 25.78089
1045.517, 25.72915
1045.999, 25.73952
1046.481, 25.74723
1046.963, 25.66721
1047.445, 25.51016
1047.927, 25.47327
1048.410, 25.55988
1048.892, 25.65939
1049.374, 25.68723
1049.856, 25.70465
1050.338, 25.80255
1050.820, 25.93351
1051.302, 25.87189
1051.784, 25.52622
1052.266, 25.31579
1052.749, 25.35658
1053.231, 25.47126
1053.713, 25.40995
1054.195, 25.25471
1054.677, 25.13083
1055.159, 25.06011
1055.641, 25.03443
1056.123, 25.05144
1056.606, 25.11966
1057.088, 25.28413
1057.570, 25.50329
1058.052, 25.52781
1058.534, 25.38003
1059.016, 25.19698
1059.498, 24.96145
1059.980, 24.81755
1060.463, 24.97630
1060.945, 25.22615
1061.427, 25.24014
1061.909, 24.88865
1062.391, 24.79682
1062.873, 25.02633
1063.355, 25.26410
1063.837, 25.19877
1064.319, 24.99988
1064.802, 24.87528
1065.284, 24.83336
1065.766, 24.85064
1066.248, 24.96784
1066.730, 25.08332
1067.212, 25.18557
1067.694, 25.27020
1068.176, 25.34569
1068.658, 25.39764
1069.141, 25.34703
1069.623, 25.16159
1070.105, 25.00880
1070.587, 25.02432
1071.069, 25.07078
1071.551, 25.01039
1072.033, 24.86526
1072.515, 25.09168
1072.998, 25.70926
1073.480, 25.97901
1073.962, 25.35397
1074.444, 24.56415
1074.926, 24.43811
1075.408, 24.66430
1075.890, 24.75939
1076.372, 24.48668
1076.854, 24.36778
1077.337, 24.41884
1077.819, 24.57957
1078.301, 24.93956
1078.783, 25.32900
1079.265, 25.23434
1079.747, 24.74588
1080.229, 24.37573
1080.711, 24.40758
1081.193, 24.52353
1081.676, 24.68058
1082.158, 24.82658
1082.640, 24.87949
1083.122, 24.84060
1083.604, 24.66589
1084.086, 24.32823
1084.568, 24.13399
1085.050, 24.51950
1085.532, 24.96535
1086.015, 25.05631
1086.497, 24.82099
1086.979, 24.61089
1087.461, 24.41689
1087.943, 24.31352
1088.425, 24.33381
1088.907, 24.43743
1089.389, 24.66861
1089.872, 24.90980
1090.354, 24.97313
1090.836, 24.72475
1091.318, 24.56473
1091.800, 24.53114
1092.282, 24.54840
1092.764, 24.58716
1093.246, 24.63513
1093.729, 24.62379
1094.211, 24.58332
1094.693, 24.62464
1095.175, 24.96572
1095.657, 25.17197
1096.139, 25.01280
1096.621, 24.76314
1097.103, 24.75740
1097.585, 24.97888
1098.068, 24.97325
1098.550, 24.72095
1099.032, 24.53252
1099.514, 24.72842
1099.996, 24.97278
1100.478, 25.04288
1100.960, 24.96930
1101.442, 24.89885
1101.924, 24.83162
1102.407, 24.75567
1102.889, 24.65741
1103.371, 24.59495
1103.853, 24.70491
1104.335, 24.84516
1104.817, 24.83475
1105.299, 24.63450
1105.781, 24.43410
1106.264, 24.18963
1106.746, 24.09923
1107.228, 24.30657
1107.710, 24.62082
1108.192, 24.63044
1108.674, 24.44422
1109.156, 24.31176
1109.638, 24.33713
1110.120, 24.34821
1110.603, 24.24584
1111.085, 24.18666
1111.567, 24.31611
1112.049, 24.58725
1112.531, 24.63920
1113.013, 24.50333
1113.495, 24.38407
1113.977, 24.40176
1114.459, 24.44628
1114.942, 24.48866
1115.424, 24.51490
1115.906, 24.49939
1116.388, 24.43577
1116.870, 24.42317
1117.352, 24.47086
1117.834, 24.46264
1118.316, 24.26220
1118.799, 24.00610
1119.281, 23.76881
1119.763, 23.57322
1120.245, 23.49251
1120.727, 23.55802
1121.209, 23.63266
1121.691, 23.70527
1122.173, 23.73733
1122.656, 23.65713
1123.138, 23.52220
1123.620, 23.34713
1124.102, 23.12815
1124.584, 23.23087
1125.066, 23.96702
1125.548, 24.41252
1126.030, 24.17255
1126.512, 23.63487
1126.995, 23.62343
1127.477, 23.92061
1127.959, 24.00690
1128.441, 23.70287
1128.923, 23.38888
1129.405, 23.13931
1129.887, 22.95697
1130.369, 22.84978
1130.851, 22.81256
1131.334, 22.85393
1131.816, 22.94899
1132.298, 22.98101
1132.780, 22.87543
1133.262, 22.73451
1133.744, 22.53842
1134.226, 22.37870
1134.708, 22.37000
1135.191, 22.52947
1135.673, 22.51159
1136.155, 22.32237
1136.637, 22.16734
1137.119, 22.19197
1137.601, 22.28212
1138.083, 22.38998
1138.565, 22.49860
1139.047, 22.55124
1139.530, 22.50550
1140.012, 22.72187
1140.494, 23.27741
1140.976, 23.64202
1141.458, 23.06601
1141.940, 22.26644
1142.422, 22.03091
1142.904, 22.28045
1143.386, 22.32017
1143.869, 22.00384
1144.351, 21.81229
1144.833, 21.85797
1145.315, 21.96049
1145.797, 21.86279
1146.279, 21.68947
1146.761, 21.63324
1147.243, 21.72021
1147.726, 21.76511
1148.208, 21.75174
1148.690, 21.66329
1149.172, 21.44016
1149.654, 21.22371
1150.136, 21.41232
1150.618, 21.77992
1151.100, 21.81279
1151.583, 21.28908
1152.065, 20.92801
1152.547, 21.03976
1153.029, 21.16454
1153.511, 21.07998
1153.993, 20.86076
1154.475, 20.73855
1154.957, 20.69448
1155.439, 20.67073
1155.922, 20.67632
1156.404, 20.63908
1156.886, 20.52169
1157.368, 20.35879
1157.850, 20.15536
1158.332, 19.91888
1158.814, 19.70608
1159.296, 19.52177
1159.778, 19.39697
1160.261, 19.36569
1160.743, 19.37684
1161.225, 19.49241
1161.707, 19.57754
1162.189, 19.44373
1162.671, 19.08176
1163.153, 18.95132
1163.635, 19.05510
1164.118, 19.12827
1164.600, 18.93289
1165.082, 18.71000
1165.564, 18.62411
1166.046, 18.61231
1166.528, 18.56365
1167.010, 18.48117
1167.492, 18.30914
1167.974, 18.03522
1168.457, 17.77123
1168.939, 17.60662
1169.421, 17.48901
1169.903, 17.41607
1170.385, 17.35308
1170.867, 17.14638
1171.349, 16.73794
1171.831, 16.55138
1172.313, 16.68692
1172.796, 16.89420
1173.278, 16.98208
1173.760, 16.96799
1174.242, 16.82681
1174.724, 16.56902
1175.206, 16.40509
1175.688, 16.37357
1176.170, 16.27006
1176.653, 16.01110
1177.135, 15.76300
1177.617, 15.79421
1178.099, 15.92829
1178.581, 15.93995
1179.063, 15.78209
1179.545, 15.67115
1180.027, 15.63541
1180.510, 15.56696
1180.992, 15.41779
1181.474, 15.23383
1181.956, 15.03282
1182.438, 14.86186
1182.920, 14.81239
1183.402, 14.95076
1183.884, 15.01473
1184.366, 14.98892
1184.849, 14.90092
1185.331, 14.72765
1185.813, 14.54083
1186.295, 14.51267
1186.777, 14.55989
1187.259, 14.52210
1187.741, 14.30162
1188.223, 14.12137
1188.705, 13.99198
1189.188, 13.90756
1189.670, 13.89206
1190.152, 13.90151
1190.634, 13.82045
1191.116, 13.68899
1191.598, 13.60419
1192.080, 13.69794
1192.562, 13.66749
1193.045, 13.44701
1193.527, 13.21179
1194.009, 13.10286
1194.491, 13.08663
1194.973, 13.11561
1195.455, 13.17165
1195.937, 13.19827
1196.419, 13.10035
1196.901, 13.09761
1197.384, 13.26973
1197.866, 13.43070
1198.348, 13.35576
1198.830, 13.14912
1199.312, 13.08475
1199.794, 13.13879
1200.276, 13.14096
1200.758, 12.94777
1201.240, 12.81374
1201.723, 12.79803
1202.205, 12.81345
1202.687, 12.72507
1203.169, 12.59422
1203.651, 12.59600
1204.133, 12.72437
1204.615, 12.82201
1205.097, 12.82453
1205.580, 12.76618
1206.062, 12.54712
1206.544, 12.44930
1207.026, 13.20056
1207.508, 14.32196
1207.990, 14.40929
1208.472, 13.38767
1208.954, 12.68611
1209.437, 13.25782
1209.919, 13.63041
1210.401, 13.41847
1210.883, 12.93152
1211.365, 12.59719
1211.847, 12.42007
1212.329, 12.46454
1212.811, 12.74608
1213.293, 12.88854
1213.776, 12.60853
1214.258, 12.38748
1214.740, 12.36737
1215.222, 12.45206
1215.704, 12.47667
1216.186, 12.45390
1216.668, 12.41059
1217.150, 12.35086
1217.632, 12.27567
1218.115, 12.16670
1218.597, 12.06458
1219.079, 11.96482
1219.561, 11.90363
1220.043, 11.99925
1220.525, 12.17866
1221.007, 12.26851
1221.489, 12.21253
1221.972, 12.20462
1222.454, 12.36172
1222.936, 12.43130
1223.418, 12.27835
1223.900, 12.02885
1224.382, 11.93816
1224.864, 11.96215
1225.346, 12.02911
1225.828, 12.15740
1226.311, 12.16512
1226.793, 11.96651
1227.275, 11.78450
1227.757, 11.71618
1228.239, 11.73127
1228.721, 11.78736
1229.203, 11.87383
1229.685, 11.98767
1230.167, 12.18702
1230.650, 12.18246
1231.132, 11.85457
1231.614, 11.58566
1232.096, 11.60695
1232.578, 11.76663
1233.060, 11.76884
1233.542, 11.68981
1234.024, 11.68022
1234.507, 11.82760
1234.989, 11.90120
1235.471, 11.87165
1235.953, 11.83359
1236.435, 11.85923
1236.917, 11.88864
1237.399, 11.79384
1237.881, 11.63738
1238.364, 11.53124
1238.846, 11.49461
1239.328, 11.54758
1239.810, 11.72323
1240.292, 11.85340
1240.774, 11.80016
1241.256, 11.67716
1241.738, 11.62032
1242.220, 11.61308
1242.703, 11.62666
1243.185, 11.65721
1243.667, 11.71519
1244.149, 11.81042
1244.631, 11.86952
1245.113, 11.80645
1245.595, 11.71768
1246.077, 11.73386
1246.559, 11.79122
1247.042, 11.77347
1247.524, 11.65773
1248.006, 11.51893
1248.488, 11.35074
1248.970, 11.23974
1249.452, 11.26555
1249.934, 11.35105
1250.416, 11.48664
1250.899, 11.61136
1251.381, 11.61364
1251.863, 11.44891
1252.345, 11.44340
1252.827, 11.59911
1253.309, 11.75250
1253.791, 11.85695
1254.273, 11.85532
1254.755, 11.59619
1255.238, 11.26906
1255.720, 11.14444
1256.202, 11.22933
1256.684, 11.32850
1257.166, 11.43422
1257.648, 11.49898
1258.130, 11.44129
1258.612, 11.39545
1259.094, 11.45783
1259.577, 11.54886
1260.059, 11.58561
1260.541, 11.57200
1261.023, 11.55687
1261.505, 11.54109
1261.987, 11.51944
1262.469, 11.49278
1262.951, 11.45226
1263.434, 11.35708
1263.916, 11.28971
1264.398, 11.37486
1264.880, 11.56093
1265.362, 11.60946
1265.844, 11.53175
1266.326, 11.42746
1266.808, 11.30570
1267.291, 11.21068
1267.773, 11.13310
1268.255, 11.10839
1268.737, 11.20866
1269.219, 11.37661
1269.701, 11.48270
1270.183, 11.52707
1270.665, 11.53118
1271.147, 11.50693
1271.630, 11.41240
1272.112, 11.20565
1272.594, 11.04234
1273.076, 11.13905
1273.558, 11.32899
1274.040, 11.32242
1274.522, 11.18256
1275.004, 11.14115
1275.486, 11.29930
1275.969, 11.37402
1276.451, 11.33634
1276.933, 11.28135
1277.415, 11.28431
1277.897, 11.31688
1278.379, 11.37753
1278.861, 11.43802
1279.343, 11.42803
1279.825, 11.32772
1280.308, 11.24391
1280.790, 11.18078
1281.272, 11.15383
1281.754, 11.20360
1282.236, 11.26361
1282.718, 11.29796
1283.200, 11.30425
1283.682, 11.27225
1284.165, 11.19899
1284.647, 11.18535
1285.129, 11.23090
1285.611, 11.26618
1286.093, 11.26713
1286.575, 11.22408
1287.057, 11.06695
1287.539, 10.92098
1288.021, 10.97931
1288.504, 11.18056
1288.986, 11.10514
1289.468, 10.79744
1289.950, 10.60037
1290.432, 10.76027
1290.914, 10.94376
1291.396, 11.11911
1291.878, 11.23195
1292.360, 11.19848
1292.843, 11.07609
1293.325, 10.98952
1293.807, 10.94103
1294.289, 10.92499
1294.771, 10.95281
1295.253, 11.00331
1295.735, 11.08897
1296.217, 11.15303
1296.700, 11.14101
1297.182, 11.08285
1297.664, 10.97889
1298.146, 10.86757
1298.628, 10.86475
1299.110, 11.06147
1299.592, 11.02817
1300.074, 10.72462
1300.557, 10.48994
1301.039, 10.63617
1301.521, 10.87464
1302.003, 11.04203
1302.485, 11.10243
1302.967, 11.04280
1303.449, 10.86959
##END=



