##NAMES=Melanotekite
##RRUFFID=R090032
##IDEAL CHEMISTRY=Pb^2+^_2_Fe^3+^_2_O_2_Si_2_O_7_
##LOCALITY=Kombat, Namibia
##OWNER=RRUFF
##SOURCE=William W. Pinch
##DESCRIPTION=Black, massive exhibiting greasy luster, associated with colorless to pale brown bladed yangite (R090031). Sample is from the John Innes collection.
##STATUS=The identification of this mineral has been confirmed only by single crystal X-ray diffraction.
##URL=rruff.info/R090032
92.37695, 637.4001
92.85907, 670.5502
93.34119, 666.9721
93.82330, 619.6794
94.30542, 561.9534
94.78754, 505.7995
95.26965, 452.7761
95.75177, 407.8009
96.23389, 374.1865
96.71600, 348.2581
97.19812, 326.8908
97.68024, 309.7896
98.16235, 296.1072
98.64447, 284.9540
99.12659, 276.4437
99.60870, 269.2645
100.0908, 264.3002
100.5729, 260.5995
101.0551, 257.3246
101.5372, 254.0441
102.0193, 250.6927
102.5014, 247.1568
102.9835, 243.3371
103.4656, 239.2887
103.9478, 234.6096
104.4299, 229.6485
104.9120, 225.0721
105.3941, 221.4236
105.8762, 218.7436
106.3583, 216.2803
106.8405, 213.9406
107.3226, 211.7599
107.8047, 209.6590
108.2868, 207.6596
108.7689, 205.9872
109.2510, 204.9764
109.7332, 204.6608
110.2153, 204.5214
110.6974, 204.5356
111.1795, 204.6753
111.6616, 204.9252
112.1437, 205.3162
112.6259, 205.7390
113.1080, 206.0533
113.5901, 206.2673
114.0722, 206.5156
114.5543, 207.0829
115.0364, 207.9309
115.5185, 208.2036
116.0007, 207.3201
116.4828, 206.0528
116.9649, 204.8198
117.4470, 203.6898
117.9291, 202.5633
118.4112, 201.3198
118.8934, 199.9869
119.3755, 198.4486
119.8576, 196.8605
120.3397, 195.0131
120.8218, 192.6757
121.3039, 189.7599
121.7861, 186.4327
122.2682, 183.1479
122.7503, 179.8818
123.2324, 176.7090
123.7145, 173.5390
124.1966, 170.4751
124.6788, 167.6953
125.1609, 165.2845
125.6430, 163.2191
126.1251, 161.2945
126.6072, 159.3999
127.0893, 157.6992
127.5715, 156.2914
128.0536, 155.1514
128.5357, 154.1538
129.0178, 153.1655
129.4999, 152.2607
129.9821, 151.6901
130.4642, 151.5291
130.9463, 151.6683
131.4284, 152.0503
131.9105, 152.7112
132.3926, 153.4420
132.8748, 153.8648
133.3569, 154.2290
133.8390, 155.0656
134.3211, 156.7557
134.8032, 159.1138
135.2853, 161.5166
135.7674, 163.8470
136.2496, 166.4100
136.7317, 169.1797
137.2138, 172.2365
137.6959, 175.7558
138.1780, 180.2189
138.6601, 185.8199
139.1423, 190.3043
139.6244, 193.9326
140.1065, 196.1671
140.5886, 196.6068
141.0707, 195.3186
141.5528, 192.6867
142.0350, 189.0116
142.5171, 183.6684
142.9992, 178.8468
143.4813, 174.4544
143.9634, 170.5388
144.4455, 167.0391
144.9277, 163.9812
145.4098, 161.4702
145.8919, 159.7094
146.3740, 159.0128
146.8561, 158.6017
147.3382, 158.5464
147.8204, 158.7305
148.3025, 159.0244
148.7846, 159.3894
149.2667, 159.8247
149.7488, 160.2946
150.2309, 160.6774
150.7131, 161.3817
151.1952, 162.7025
151.6773, 164.4975
152.1594, 166.3007
152.6415, 167.9533
153.1236, 169.5260
153.6058, 171.1235
154.0879, 172.7171
154.5700, 174.4012
155.0521, 176.2597
155.5342, 178.2897
156.0163, 180.3891
156.4985, 182.5644
156.9806, 184.7551
157.4627, 186.8970
157.9448, 188.9643
158.4269, 191.0199
158.9090, 193.2355
159.3912, 195.7851
159.8733, 198.0130
160.3554, 200.0468
160.8375, 201.6172
161.3196, 202.4648
161.8017, 202.4655
162.2839, 201.7015
162.7660, 200.4288
163.2481, 198.6641
163.7302, 196.2381
164.2123, 193.1384
164.6944, 189.4182
165.1766, 185.0909
165.6587, 180.1135
166.1408, 174.6028
166.6229, 169.1785
167.1050, 163.6223
167.5871, 158.3794
168.0693, 153.5975
168.5514, 149.1872
169.0335, 144.8886
169.5156, 140.4894
169.9977, 136.0334
170.4798, 132.5680
170.9620, 130.5015
171.4441, 128.7985
171.9262, 127.0381
172.4083, 125.2383
172.8904, 123.5696
173.3725, 122.1427
173.8547, 121.0015
174.3368, 120.0863
174.8189, 119.4659
175.3010, 119.0144
175.7831, 118.5440
176.2652, 118.0358
176.7474, 117.8552
177.2295, 118.4172
177.7116, 119.5325
178.1937, 120.7475
178.6758, 122.0410
179.1579, 123.3592
179.6401, 124.5998
180.1222, 125.6968
180.6043, 126.8997
181.0864, 128.4897
181.5685, 130.2733
182.0506, 131.9340
182.5328, 133.4101
183.0149, 134.6500
183.4970, 135.4914
183.9791, 135.8564
184.4612, 135.8756
184.9433, 135.8507
185.4255, 135.5800
185.9076, 134.7126
186.3897, 133.0103
186.8718, 130.4955
187.3539, 127.4595
187.8360, 123.3856
188.3182, 119.2743
188.8003, 115.4463
189.2824, 111.8111
189.7645, 108.1044
190.2466, 104.0711
190.7287, 99.65701
191.2109, 95.87687
191.6930, 92.93729
192.1751, 90.39439
192.6572, 88.18309
193.1393, 86.27759
193.6214, 84.65159
194.1036, 83.29908
194.5857, 82.22070
195.0678, 81.41124
195.5499, 81.00408
196.0320, 80.67454
196.5141, 80.28627
196.9963, 79.83358
197.4784, 79.35522
197.9605, 78.86008
198.4426, 78.32813
198.9247, 78.09416
199.4068, 78.34781
199.8890, 78.72252
200.3711, 78.97727
200.8532, 79.09543
201.3353, 79.20586
201.8174, 79.41776
202.2995, 79.74355
202.7817, 80.13858
203.2638, 80.70287
203.7459, 81.27844
204.2280, 81.69099
204.7101, 81.91723
205.1922, 82.11794
205.6744, 82.41271
206.1565, 82.80132
206.6386, 83.29819
207.1207, 83.96391
207.6028, 84.71909
208.0849, 85.46788
208.5671, 86.21428
209.0492, 86.92917
209.5313, 87.50108
210.0134, 88.01623
210.4955, 88.68352
210.9776, 89.70339
211.4598, 90.91533
211.9419, 91.96497
212.4240, 92.80196
212.9061, 93.55482
213.3882, 94.27780
213.8703, 94.98119
214.3525, 95.69224
214.8346, 96.49672
215.3167, 97.31820
215.7988, 97.84290
216.2809, 97.92396
216.7630, 97.91370
217.2451, 97.86514
217.7273, 97.85232
218.2094, 98.02087
218.6915, 98.53273
219.1736, 99.30026
219.6557, 99.77706
220.1378, 99.71790
220.6200, 99.64346
221.1021, 99.72587
221.5842, 99.90174
222.0663, 100.0344
222.5484, 99.99711
223.0305, 99.83659
223.5127, 100.0083
223.9948, 100.8622
224.4769, 101.7080
224.9590, 102.4042
225.4411, 102.9949
225.9232, 103.5581
226.4054, 104.1394
226.8875, 104.7436
227.3696, 105.4857
227.8517, 106.6114
228.3338, 107.6154
228.8159, 108.2519
229.2981, 108.6975
229.7802, 109.2550
230.2623, 110.1250
230.7444, 111.2876
231.2265, 112.5027
231.7086, 113.6968
232.1908, 115.0147
232.6729, 116.5633
233.1550, 118.2652
233.6371, 119.9558
234.1192, 121.5175
234.6013, 122.9972
235.0835, 124.7645
235.5656, 126.9265
236.0477, 129.2044
236.5298, 131.4640
237.0119, 133.7723
237.4940, 136.2986
237.9762, 139.1324
238.4583, 142.2597
238.9404, 145.6355
239.4225, 149.5174
239.9046, 153.2965
240.3867, 156.5973
240.8689, 159.6130
241.3510, 162.8114
241.8331, 166.4505
242.3152, 170.4081
242.7973, 174.3563
243.2794, 178.4343
243.7616, 182.2897
244.2437, 185.6761
244.7258, 188.6823
245.2079, 191.5579
245.6900, 194.3732
246.1721, 197.1429
246.6543, 199.9404
247.1364, 202.7972
247.6185, 205.5814
248.1006, 208.1004
248.5827, 210.4551
249.0648, 213.0876
249.5470, 216.3036
250.0291, 219.7013
250.5112, 222.6465
250.9933, 225.0884
251.4754, 227.5000
251.9576, 230.1512
252.4397, 232.9987
252.9218, 235.9467
253.4039, 239.0050
253.8860, 242.0952
254.3681, 245.1242
254.8503, 248.0976
255.3324, 251.0190
255.8145, 253.9420
256.2966, 256.8284
256.7787, 259.4742
257.2608, 261.7852
257.7430, 263.8967
258.2251, 265.8583
258.7072, 267.7031
259.1893, 269.6500
259.6714, 272.3125
260.1535, 275.3826
260.6357, 277.1156
261.1178, 277.0373
261.5999, 275.8591
262.0820, 274.6020
262.5641, 272.9163
263.0462, 269.7202
263.5284, 263.9449
264.0105, 255.9298
264.4926, 247.4441
264.9747, 238.1953
265.4568, 228.9404
265.9389, 219.8579
266.4211, 211.0295
266.9032, 202.6257
267.3853, 194.5403
267.8674, 186.9729
268.3495, 180.7741
268.8316, 176.3190
269.3138, 172.8256
269.7959, 169.8350
270.2780, 167.4676
270.7601, 165.9429
271.2422, 165.4436
271.7243, 165.7959
272.2065, 166.4644
272.6886, 167.5339
273.1707, 168.8073
273.6528, 170.2247
274.1349, 171.7791
274.6170, 173.4441
275.0992, 175.2134
275.5813, 177.1000
276.0634, 179.1434
276.5455, 181.4774
277.0276, 183.7292
277.5097, 185.4128
277.9919, 187.2003
278.4740, 189.8303
278.9561, 193.5726
279.4382, 197.8643
279.9203, 201.5982
280.4024, 204.1394
280.8846, 207.4813
281.3667, 212.0424
281.8488, 217.1806
282.3309, 222.4660
282.8130, 227.7748
283.2951, 233.1787
283.7773, 238.7649
284.2594, 244.4907
284.7415, 250.5344
285.2236, 256.9902
285.7057, 263.6496
286.1878, 270.5185
286.6700, 277.5065
287.1521, 284.4240
287.6342, 291.0671
288.1163, 297.3001
288.5984, 303.6167
289.0805, 309.6882
289.5627, 316.0898
290.0448, 323.2997
290.5269, 331.1639
291.0090, 339.0648
291.4911, 346.4498
291.9732, 353.2663
292.4554, 360.0457
292.9375, 366.6081
293.4196, 373.3308
293.9017, 380.4498
294.3838, 387.8358
294.8659, 395.2062
295.3481, 402.3445
295.8302, 409.2951
296.3123, 416.2692
296.7944, 423.3208
297.2765, 430.3624
297.7586, 437.3871
298.2408, 444.3807
298.7229, 451.3268
299.2050, 458.2074
299.6871, 464.9267
300.1692, 471.0719
300.6513, 476.6605
301.1335, 481.5051
301.6156, 485.7874
302.0977, 489.2118
302.5798, 491.4632
303.0619, 492.4080
303.5440, 492.1994
304.0262, 491.1513
304.5083, 489.3297
304.9904, 486.3813
305.4725, 482.5347
305.9546, 477.5516
306.4367, 470.9809
306.9189, 462.8294
307.4010, 453.7311
307.8831, 444.5453
308.3652, 435.3190
308.8473, 425.8672
309.3294, 416.1022
309.8116, 406.1651
310.2937, 395.9409
310.7758, 385.5536
311.2579, 375.4551
311.7400, 366.1463
312.2221, 357.5718
312.7043, 349.7455
313.1864, 342.2970
313.6685, 335.7800
314.1506, 330.5590
314.6327, 326.4512
315.1148, 322.9504
315.5970, 319.6605
316.0791, 316.6517
316.5612, 314.9338
317.0433, 315.2566
317.5254, 316.0331
318.0075, 316.7243
318.4897, 317.7183
318.9718, 319.6962
319.4539, 323.0270
319.9360, 327.3869
320.4181, 331.7878
320.9002, 335.9106
321.3824, 340.4634
321.8645, 345.4828
322.3466, 350.9210
322.8287, 356.7840
323.3108, 363.0268
323.7929, 369.6566
324.2751, 376.6332
324.7572, 384.1090
325.2393, 391.7162
325.7214, 399.6299
326.2035, 407.5746
326.6856, 415.4065
327.1678, 423.1014
327.6499, 430.7586
328.1320, 438.4946
328.6141, 446.2870
329.0962, 454.3644
329.5783, 463.3076
330.0605, 471.9581
330.5426, 479.7598
331.0247, 486.8535
331.5068, 493.6967
331.9889, 500.7201
332.4710, 507.8419
332.9532, 513.7021
333.4353, 516.9787
333.9174, 520.4084
334.3995, 525.4144
334.8816, 530.6600
335.3637, 534.1498
335.8459, 534.8383
336.3280, 533.4437
336.8101, 532.0881
337.2922, 531.3348
337.7743, 529.6990
338.2564, 527.0518
338.7386, 523.5724
339.2206, 519.5395
339.7028, 514.9754
340.1849, 509.5733
340.6670, 502.7902
341.1491, 494.2769
341.6312, 485.2212
342.1133, 476.0059
342.5955, 466.0743
343.0776, 455.0456
343.5597, 442.9575
344.0418, 430.1048
344.5239, 416.6783
345.0060, 402.6469
345.4882, 388.5922
345.9703, 375.1929
346.4524, 361.0438
346.9345, 345.0239
347.4166, 328.0373
347.8987, 311.6486
348.3809, 296.9170
348.8630, 283.4666
349.3451, 270.0219
349.8272, 255.8167
350.3093, 242.6960
350.7914, 231.0951
351.2736, 220.5306
351.7557, 210.6484
352.2378, 201.2858
352.7199, 192.4615
353.2020, 184.2704
353.6841, 176.7651
354.1663, 169.7630
354.6484, 163.2607
355.1305, 157.2138
355.6126, 151.6050
356.0947, 146.4558
356.5768, 141.8683
357.0590, 138.0272
357.5411, 134.9754
358.0232, 132.1035
358.5053, 129.4721
358.9874, 126.9865
359.4695, 124.5517
359.9517, 122.2330
360.4338, 120.1791
360.9159, 118.4983
361.3980, 117.1303
361.8801, 115.8471
362.3622, 114.5730
362.8444, 113.5806
363.3265, 112.9658
363.8086, 112.6511
364.2907, 112.6017
364.7728, 112.8237
365.2549, 113.2110
365.7371, 113.6510
366.2192, 114.1502
366.7013, 114.6536
367.1834, 115.1080
367.6655, 115.5998
368.1476, 116.1876
368.6298, 116.8758
369.1119, 117.6341
369.5940, 118.4218
370.0761, 119.2547
370.5582, 120.2123
371.0403, 121.3366
371.5225, 122.5271
372.0046, 123.8148
372.4867, 125.1162
372.9688, 126.2258
373.4509, 126.8081
373.9330, 127.3072
374.4152, 128.4711
374.8973, 130.3705
375.3794, 132.2979
375.8615, 133.8720
376.3436, 135.2667
376.8257, 136.7319
377.3079, 138.2649
377.7900, 139.9381
378.2721, 141.9991
378.7542, 144.3044
379.2363, 146.1765
379.7184, 147.3026
380.2006, 148.1459
380.6827, 149.4416
381.1648, 151.1899
381.6469, 152.4765
382.1290, 152.8967
382.6111, 152.7347
383.0933, 152.3863
383.5754, 151.8991
384.0575, 151.1592
384.5396, 150.1638
385.0217, 148.8122
385.5038, 146.7379
385.9860, 143.4357
386.4681, 139.8658
386.9502, 136.4973
387.4323, 133.3386
387.9144, 130.3225
388.3965, 127.4275
388.8787, 124.6672
389.3608, 122.0886
389.8429, 119.5928
390.3250, 117.3916
390.8071, 115.2765
391.2892, 113.5870
391.7714, 112.8636
392.2535, 113.2032
392.7356, 114.0394
393.2177, 114.6961
393.6998, 115.0579
394.1819, 115.9171
394.6641, 117.3806
395.1462, 119.1988
395.6283, 121.3843
396.1104, 123.8217
396.5925, 126.2580
397.0746, 128.5706
397.5568, 130.7100
398.0389, 132.4664
398.5210, 133.4676
399.0031, 134.5072
399.4852, 135.5851
399.9673, 136.7848
400.4495, 138.2554
400.9316, 140.0222
401.4137, 141.8978
401.8958, 143.5390
402.3779, 144.6448
402.8600, 146.3596
403.3422, 148.8352
403.8243, 151.7001
404.3064, 154.9146
404.7885, 158.3748
405.2706, 161.8698
405.7527, 165.1703
406.2349, 168.3642
406.7170, 172.0120
407.1991, 176.2011
407.6812, 180.7442
408.1633, 185.6684
408.6454, 190.8433
409.1276, 196.2803
409.6097, 201.9846
410.0918, 207.5107
410.5739, 212.2400
411.0560, 216.1009
411.5381, 219.4838
412.0203, 223.3492
412.5024, 225.8628
412.9845, 226.0549
413.4666, 223.9169
413.9487, 219.8100
414.4308, 213.5338
414.9130, 205.4402
415.3951, 196.7564
415.8772, 187.3389
416.3593, 177.6796
416.8414, 167.2650
417.3235, 156.9812
417.8057, 148.1050
418.2878, 140.9717
418.7699, 135.2576
419.2520, 130.7560
419.7341, 127.4306
420.2162, 124.9948
420.6984, 123.5759
421.1805, 122.7891
421.6626, 122.0833
422.1447, 121.4286
422.6268, 121.2365
423.1089, 121.7427
423.5911, 122.7543
424.0732, 124.0689
424.5553, 125.6608
425.0374, 127.4459
425.5195, 129.4156
426.0016, 131.5329
426.4838, 133.5325
426.9659, 135.2725
427.4480, 137.0463
427.9301, 139.0227
428.4122, 141.1247
428.8943, 143.1765
429.3765, 145.1186
429.8586, 146.9946
430.3407, 148.8986
430.8228, 150.9880
431.3049, 152.7248
431.7870, 153.8433
432.2692, 154.7982
432.7513, 155.9286
433.2334, 157.2290
433.7155, 158.4904
434.1976, 159.5241
434.6797, 160.3513
435.1619, 161.3183
435.6440, 162.3884
436.1261, 163.6549
436.6082, 165.2483
437.0903, 166.9963
437.5724, 168.7138
438.0546, 170.3300
438.5367, 171.9111
439.0188, 173.5777
439.5009, 175.3865
439.9830, 177.0888
440.4651, 178.8558
440.9473, 180.3652
441.4294, 181.4588
441.9115, 182.1579
442.3936, 182.5611
442.8757, 182.7561
443.3578, 182.6885
443.8400, 182.1212
444.3221, 180.9019
444.8042, 179.5527
445.2863, 177.9752
445.7684, 176.5032
446.2505, 175.5092
446.7327, 175.0824
447.2148, 174.9118
447.6969, 174.8431
448.1790, 174.8377
448.6611, 174.5984
449.1432, 173.8756
449.6254, 173.3202
450.1075, 173.6025
450.5896, 174.5166
451.0717, 175.5133
451.5538, 176.8233
452.0359, 177.8817
452.5181, 178.0998
453.0002, 177.5360
453.4823, 176.6181
453.9644, 175.5784
454.4465, 174.2489
454.9286, 172.1985
455.4108, 169.4389
455.8929, 166.2121
456.3750, 162.6394
456.8571, 158.5937
457.3392, 153.6954
457.8214, 147.9875
458.3035, 142.1870
458.7856, 136.9288
459.2677, 132.2122
459.7498, 127.2350
460.2319, 121.5616
460.7141, 116.1638
461.1962, 111.2471
461.6783, 106.7875
462.1604, 102.8168
462.6425, 99.33427
463.1246, 96.19637
463.6068, 93.13938
464.0889, 90.07570
464.5710, 87.38744
465.0531, 85.19114
465.5352, 83.24043
466.0173, 81.50036
466.4995, 79.90671
466.9816, 78.33370
467.4637, 76.67123
467.9458, 75.00159
468.4279, 73.60648
468.9100, 72.58408
469.3922, 71.57012
469.8743, 70.39833
470.3564, 69.21993
470.8385, 68.18175
471.3206, 67.30293
471.8027, 66.44180
472.2849, 65.51105
472.7670, 64.50878
473.2491, 63.41362
473.7312, 62.17369
474.2133, 60.98479
474.6954, 60.04120
475.1776, 59.25086
475.6597, 58.41938
476.1418, 57.51839
476.6239, 56.57167
477.1060, 55.52668
477.5881, 54.44709
478.0703, 53.51825
478.5524, 52.82804
479.0345, 52.24295
479.5166, 51.58385
479.9987, 50.83255
480.4808, 50.07702
480.9630, 49.22419
481.4451, 48.45246
481.9272, 47.93383
482.4093, 47.61637
482.8914, 47.30666
483.3735, 46.88015
483.8557, 46.39528
484.3378, 46.06328
484.8199, 46.08327
485.3020, 45.97325
485.7841, 45.58364
486.2662, 45.15430
486.7484, 44.87748
487.2305, 44.76601
487.7126, 44.70681
488.1947, 44.59942
488.6768, 44.44726
489.1589, 44.30157
489.6411, 44.11477
490.1232, 44.01501
490.6053, 44.14403
491.0874, 44.32230
491.5695, 44.31614
492.0516, 44.04967
492.5338, 43.74218
493.0159, 43.63082
493.4980, 43.69455
493.9801, 43.74575
494.4622, 43.74801
494.9443, 43.75337
495.4265, 43.78321
495.9086, 43.84643
496.3907, 43.98241
496.8728, 44.21257
497.3549, 44.50894
497.8370, 44.91188
498.3192, 45.37492
498.8013, 45.68178
499.2834, 45.70116
499.7655, 45.66747
500.2476, 45.99919
500.7297, 46.84298
501.2119, 47.52477
501.6940, 47.81909
502.1761, 48.09010
502.6582, 48.59631
503.1403, 49.31360
503.6224, 50.08798
504.1045, 50.82123
504.5866, 51.55175
505.0688, 52.41532
505.5509, 53.37593
506.0330, 54.55455
506.5151, 56.14692
506.9972, 57.80209
507.4793, 59.20864
507.9615, 60.38962
508.4436, 61.62980
508.9257, 63.14978
509.4078, 64.93996
509.8899, 66.89785
510.3720, 69.09611
510.8542, 71.31568
511.3363, 73.48630
511.8184, 75.63306
512.3005, 77.76477
512.7827, 79.88171
513.2648, 82.03918
513.7469, 84.27798
514.2290, 86.59398
514.7111, 89.04402
515.1932, 91.67589
515.6754, 94.25990
516.1575, 96.55336
516.6396, 98.64742
517.1217, 100.9490
517.6038, 103.6265
518.0859, 106.3242
518.5681, 108.8046
519.0502, 111.2183
519.5323, 113.8377
520.0144, 116.7487
520.4965, 119.7834
520.9786, 122.7448
521.4608, 125.6184
521.9429, 128.5329
522.4250, 131.5054
522.9071, 134.5287
523.3892, 137.6211
523.8713, 140.7482
524.3535, 143.8993
524.8356, 147.0472
525.3177, 150.1029
525.7998, 152.8446
526.2819, 155.2129
526.7640, 157.5616
527.2462, 160.3002
527.7283, 162.5635
528.2104, 163.8873
528.6925, 164.4335
529.1746, 164.6027
529.6567, 164.5581
530.1389, 164.2263
530.6210, 163.5612
531.1031, 162.5540
531.5852, 161.0042
532.0673, 158.7361
532.5494, 156.0891
533.0316, 153.3062
533.5137, 150.4125
533.9958, 147.8068
534.4779, 145.7836
534.9600, 143.9065
535.4421, 141.5998
535.9243, 139.0946
536.4064, 137.1859
536.8885, 136.2945
537.3706, 136.0426
537.8527, 135.6283
538.3348, 134.6918
538.8170, 134.3462
539.2991, 134.9182
539.7812, 135.7385
540.2633, 136.4058
540.7454, 136.9888
541.2275, 137.7675
541.7097, 138.9088
542.1918, 140.3660
542.6739, 142.0650
543.1560, 144.1157
543.6381, 146.0857
544.1202, 147.9374
544.6024, 149.6286
545.0845, 151.1341
545.5666, 152.4566
546.0487, 153.5771
546.5308, 154.6826
547.0129, 155.4890
547.4951, 155.6061
547.9772, 155.0351
548.4593, 153.6667
548.9414, 151.3354
549.4235, 148.3315
549.9056, 145.0894
550.3878, 141.5962
550.8699, 138.0921
551.3520, 134.4534
551.8341, 130.9769
552.3162, 127.9910
552.7983, 125.4117
553.2805, 122.8151
553.7626, 119.8971
554.2447, 116.9728
554.7268, 114.9518
555.2089, 114.1621
555.6910, 113.7561
556.1732, 113.8270
556.6553, 114.1143
557.1374, 114.3860
557.6195, 114.7208
558.1016, 115.4063
558.5837, 116.6718
559.0659, 118.3365
559.5480, 119.9496
560.0301, 121.4512
560.5122, 123.2228
560.9943, 125.4034
561.4764, 127.8718
561.9586, 130.5395
562.4407, 133.3877
562.9228, 136.2229
563.4049, 138.9406
563.8870, 141.6360
564.3691, 144.2850
564.8513, 146.9508
565.3334, 149.9743
565.8155, 153.5551
566.2976, 157.4341
566.7797, 161.1491
567.2618, 164.5929
567.7440, 168.0947
568.2261, 171.7205
568.7082, 175.3166
569.1903, 178.8053
569.6724, 182.1915
570.1545, 185.5823
570.6367, 189.0224
571.1188, 192.4302
571.6009, 195.6239
572.0830, 198.6706
572.5651, 201.3408
573.0472, 203.5413
573.5294, 205.3924
574.0115, 206.9790
574.4936, 208.2854
574.9757, 209.2585
575.4578, 209.8951
575.9399, 210.1657
576.4221, 210.1124
576.9042, 209.6944
577.3863, 208.5988
577.8684, 206.6448
578.3505, 204.2671
578.8326, 202.0261
579.3148, 199.9462
579.7969, 197.3050
580.2790, 193.8344
580.7611, 190.0687
581.2432, 186.2136
581.7253, 182.2534
582.2075, 178.0263
582.6896, 173.5220
583.1717, 168.9060
583.6538, 164.4161
584.1359, 160.0468
584.6180, 155.8549
585.1002, 151.7731
585.5823, 147.9172
586.0643, 144.5324
586.5464, 141.2991
587.0286, 137.7603
587.5107, 133.7498
587.9928, 129.6902
588.4749, 125.9906
588.9570, 122.5749
589.4391, 119.1183
589.9213, 115.5245
590.4034, 112.0976
590.8855, 109.1086
591.3676, 106.4247
591.8497, 103.5342
592.3318, 100.1368
592.8140, 97.00345
593.2961, 94.47910
593.7782, 92.29156
594.2603, 90.24659
594.7424, 88.27299
595.2245, 86.20549
595.7067, 83.90743
596.1888, 81.44554
596.6709, 79.20252
597.1530, 77.21384
597.6351, 75.38331
598.1172, 73.64565
598.5994, 72.08218
599.0815, 70.80153
599.5636, 69.77187
600.0457, 68.81617
600.5278, 67.85773
601.0099, 66.88371
601.4921, 65.82500
601.9742, 64.67891
602.4563, 63.63342
602.9384, 62.77441
603.4205, 62.01395
603.9026, 61.25947
604.3848, 60.51129
604.8669, 59.71544
605.3490, 58.75552
605.8311, 57.84003
606.3132, 57.09394
606.7953, 56.49312
607.2775, 55.99495
607.7596, 55.58147
608.2417, 55.17946
608.7238, 54.68403
609.2059, 54.08596
609.6880, 53.43813
610.1702, 52.63192
610.6523, 51.90316
611.1344, 51.30965
611.6165, 50.84636
612.0986, 50.55394
612.5807, 50.45955
613.0629, 50.32845
613.5450, 49.87304
614.0271, 49.20608
614.5092, 48.71716
614.9913, 48.46925
615.4734, 48.21217
615.9556, 47.77210
616.4377, 47.20142
616.9198, 46.67464
617.4019, 46.15586
617.8840, 45.73685
618.3661, 45.46096
618.8483, 45.27224
619.3304, 45.18991
619.8125, 45.15999
620.2946, 45.01678
620.7767, 44.64082
621.2589, 44.11765
621.7410, 43.69798
622.2231, 43.39854
622.7052, 43.15458
623.1873, 43.03063
623.6694, 42.89367
624.1516, 42.65741
624.6337, 42.34604
625.1158, 42.03625
625.5979, 41.74813
626.0800, 41.48893
626.5621, 41.25018
627.0443, 41.04657
627.5264, 40.96169
628.0085, 41.02956
628.4906, 41.10090
628.9727, 41.02666
629.4548, 40.80635
629.9370, 40.58387
630.4191, 40.20033
630.9012, 40.01368
631.3833, 40.43153
631.8654, 40.88903
632.3475, 40.69111
632.8297, 39.82073
633.3118, 38.89471
633.7939, 38.43387
634.2760, 38.35368
634.7581, 38.38850
635.2402, 38.63108
635.7224, 38.60393
636.2045, 37.89459
636.6866, 37.08673
637.1687, 36.88006
637.6508, 37.23958
638.1329, 37.41195
638.6151, 36.97644
639.0972, 36.42419
639.5793, 36.15799
640.0614, 36.10943
640.5435, 36.07339
641.0256, 35.97790
641.5078, 35.87688
641.9899, 35.85448
642.4720, 35.93242
642.9541, 35.90931
643.4362, 35.67789
643.9183, 35.46685
644.4005, 35.37225
644.8826, 35.29966
645.3647, 35.12678
645.8468, 34.83598
646.3289, 34.54160
646.8110, 34.34758
647.2932, 34.21940
647.7753, 34.06071
648.2574, 33.86708
648.7395, 33.73121
649.2216, 33.73136
649.7037, 33.76381
650.1859, 33.62526
650.6680, 33.26578
651.1501, 32.97037
651.6322, 32.80163
652.1143, 32.66115
652.5964, 32.47160
653.0786, 32.27405
653.5607, 32.15954
654.0428, 32.15981
654.5249, 32.20658
655.0070, 32.22360
655.4891, 32.21235
655.9713, 32.12308
656.4534, 31.92374
656.9355, 31.70891
657.4176, 31.47807
657.8997, 31.27808
658.3818, 31.18302
658.8640, 31.21439
659.3461, 31.24295
659.8282, 31.16995
660.3103, 31.09123
660.7924, 31.15759
661.2745, 31.33212
661.7567, 31.42313
662.2388, 31.33117
662.7209, 31.14620
663.2030, 31.03635
663.6851, 31.01867
664.1672, 31.01937
664.6494, 31.03153
665.1315, 31.07039
665.6136, 31.18291
666.0957, 31.30946
666.5778, 31.33228
667.0599, 31.21218
667.5421, 31.15568
668.0242, 31.41685
668.5063, 31.86046
668.9884, 32.13218
669.4705, 32.20612
669.9526, 32.30215
670.4348, 32.52761
670.9169, 32.85773
671.3990, 33.24277
671.8811, 33.71349
672.3632, 34.16905
672.8453, 34.50199
673.3275, 34.92260
673.8096, 35.54567
674.2917, 36.33323
674.7738, 37.24112
675.2559, 38.24537
675.7380, 39.27526
676.2202, 40.21651
676.7023, 41.08651
677.1844, 42.09441
677.6665, 43.31757
678.1486, 44.44660
678.6307, 45.23719
679.1129, 45.88731
679.5950, 46.78817
680.0771, 48.01656
680.5592, 49.17048
681.0413, 50.17946
681.5234, 51.05042
682.0056, 51.67196
682.4877, 52.16871
682.9698, 52.80418
683.4519, 53.68983
683.9340, 54.76909
684.4161, 56.03425
684.8983, 57.51820
685.3804, 58.70132
685.8625, 59.30473
686.3446, 60.08970
686.8267, 61.59550
687.3088, 63.34388
687.7910, 64.81520
688.2731, 65.93812
688.7552, 66.95830
689.2373, 68.05237
689.7194, 69.04919
690.2015, 69.83094
690.6837, 70.35295
691.1658, 70.56086
691.6479, 70.43829
692.1300, 69.80973
692.6121, 68.36165
693.0942, 66.01853
693.5764, 63.44312
694.0585, 60.57866
694.5406, 57.56297
695.0227, 54.28215
695.5048, 50.97454
695.9869, 47.81848
696.4691, 44.85810
696.9512, 42.16739
697.4333, 39.82919
697.9154, 37.75043
698.3975, 35.76504
698.8796, 33.90123
699.3618, 32.33381
699.8439, 31.15483
700.3260, 30.12499
700.8081, 28.90386
701.2902, 27.42718
701.7723, 26.37008
702.2545, 26.10757
702.7366, 25.82321
703.2187, 25.28481
703.7008, 24.70921
704.1829, 24.32662
704.6650, 24.14939
705.1472, 23.99760
705.6293, 23.75673
706.1114, 23.47162
706.5935, 23.23572
707.0756, 23.03303
707.5577, 22.71769
708.0399, 22.21520
708.5220, 21.75714
709.0041, 21.63245
709.4862, 21.84270
709.9683, 21.82002
710.4504, 21.33059
710.9326, 20.92788
711.4147, 20.74366
711.8968, 20.65092
712.3789, 20.55297
712.8610, 20.43723
713.3431, 20.32817
713.8253, 20.24187
714.3074, 20.16776
714.7895, 20.11062
715.2716, 20.06003
715.7537, 19.90329
716.2358, 19.58646
716.7180, 19.32510
717.2001, 19.33288
717.6822, 19.55734
718.1643, 19.64741
718.6464, 19.42568
719.1285, 19.32913
719.6107, 19.58444
720.0928, 19.82150
720.5749, 19.71472
721.0570, 19.35845
721.5391, 19.05406
722.0212, 18.94689
722.5034, 18.95981
722.9855, 19.00003
723.4676, 19.07062
723.9497, 19.21634
724.4318, 19.46519
724.9139, 19.64136
725.3961, 19.62690
725.8782, 19.46976
726.3603, 19.29403
726.8424, 19.06451
727.3245, 18.89629
727.8066, 18.82764
728.2888, 18.78895
728.7709, 18.72083
729.2530, 18.66079
729.7351, 18.69921
730.2172, 18.86372
730.6993, 19.03641
731.1815, 19.06846
731.6636, 19.00271
732.1457, 19.02092
732.6278, 19.13775
733.1099, 19.18720
733.5920, 19.06717
734.0742, 18.89746
734.5563, 18.88346
735.0384, 19.08417
735.5205, 19.13090
736.0026, 18.86742
736.4847, 18.63528
736.9669, 18.57317
737.4490, 18.59858
737.9311, 18.59374
738.4132, 18.55056
738.8953, 18.57825
739.3774, 18.81254
739.8596, 19.12868
740.3417, 19.25775
740.8238, 19.20940
741.3059, 19.12101
741.7880, 19.01406
742.2701, 18.92765
742.7523, 18.90741
743.2344, 18.94760
743.7165, 18.96169
744.1986, 18.88652
744.6807, 18.87421
745.1628, 19.00023
745.6450, 19.14881
746.1271, 19.25054
746.6092, 19.29510
747.0913, 19.27806
747.5734, 19.18390
748.0555, 19.08116
748.5377, 19.09151
749.0198, 19.16840
749.5019, 19.09772
749.9840, 18.84482
750.4661, 18.65998
750.9482, 18.70688
751.4304, 18.90268
751.9125, 19.04834
752.3946, 19.13551
752.8767, 19.18804
753.3588, 19.19597
753.8409, 19.18357
754.3231, 19.17966
754.8052, 19.15330
755.2873, 19.03056
755.7694, 18.80019
756.2515, 18.61607
756.7336, 18.61581
757.2158, 18.72484
757.6979, 18.84439
758.1800, 18.96395
758.6621, 19.04414
759.1442, 19.07269
759.6263, 19.04270
760.1085, 18.93258
760.5906, 18.74233
761.0727, 18.61971
761.5548, 18.60989
762.0369, 18.60241
762.5190, 18.54841
763.0012, 18.51694
763.4833, 18.59222
763.9654, 18.74172
764.4475, 18.83603
764.9296, 18.81883
765.4117, 18.74058
765.8939, 18.59992
766.3760, 18.44138
766.8581, 18.35581
767.3402, 18.34865
767.8223, 18.35511
768.3044, 18.33290
768.7866, 18.30040
769.2687, 18.30190
769.7508, 18.33785
770.2329, 18.41617
770.7150, 18.65429
771.1971, 18.76932
771.6793, 18.48057
772.1614, 18.06909
772.6435, 17.94498
773.1256, 18.18360
773.6077, 18.39484
774.0898, 18.41285
774.5720, 18.35971
775.0541, 18.28779
775.5362, 18.23313
776.0183, 18.28676
776.5004, 18.46027
776.9825, 18.60972
777.4647, 18.57396
777.9468, 18.39623
778.4289, 18.29993
778.9110, 18.30280
779.3931, 18.28433
779.8752, 18.18744
780.3574, 18.10506
780.8395, 18.12670
781.3216, 18.23801
781.8037, 18.36412
782.2858, 18.60379
782.7679, 18.71059
783.2501, 18.50654
783.7322, 18.24395
784.2143, 18.13444
784.6964, 18.15058
785.1785, 18.16329
785.6606, 18.11419
786.1428, 18.04306
786.6249, 17.99508
787.1070, 17.96686
787.5891, 17.95112
788.0712, 17.94867
788.5533, 17.92303
789.0355, 17.84633
789.5176, 17.76446
789.9997, 17.75354
790.4818, 17.82905
790.9639, 17.87806
791.4460, 17.87244
791.9282, 17.87748
792.4103, 17.91213
792.8924, 17.96068
793.3745, 18.03091
793.8566, 18.10678
794.3387, 18.12295
794.8209, 18.01622
795.3030, 17.88519
795.7851, 17.80794
796.2672, 17.78272
796.7493, 17.83659
797.2314, 17.95913
797.7136, 18.02796
798.1957, 17.95545
798.6778, 17.81088
799.1599, 17.77820
799.6420, 17.90526
800.1241, 17.93671
800.6063, 17.77829
801.0884, 17.66291
801.5705, 17.77109
802.0526, 17.94604
802.5347, 17.99309
803.0168, 17.89331
803.4990, 17.77258
803.9811, 17.54953
804.4632, 17.43827
804.9453, 17.69975
805.4274, 18.10371
805.9095, 18.30818
806.3917, 18.25665
806.8738, 18.11020
807.3559, 17.97535
807.8380, 17.86312
808.3201, 17.80242
808.8022, 17.79168
809.2844, 17.80344
809.7665, 17.83419
810.2486, 17.88385
810.7307, 17.95603
811.2128, 18.04458
811.6949, 18.13180
812.1771, 18.23989
812.6592, 18.29830
813.1413, 18.21855
813.6234, 18.18748
814.1055, 18.37093
814.5876, 18.61148
815.0698, 18.65732
815.5519, 18.47272
816.0340, 18.32998
816.5161, 18.39252
816.9982, 18.59012
817.4803, 18.94503
817.9625, 19.35739
818.4446, 19.52781
818.9267, 19.40347
819.4088, 19.24447
819.8909, 19.27602
820.3730, 19.43872
820.8552, 19.50568
821.3373, 19.43242
821.8194, 19.46675
822.3015, 19.67661
822.7836, 19.93002
823.2657, 20.21259
823.7479, 20.46216
824.2300, 20.49663
824.7121, 20.18288
825.1942, 20.15889
825.6763, 20.93914
826.1584, 21.63260
826.6406, 21.61029
827.1227, 21.22752
827.6048, 21.01238
828.0869, 21.07656
828.5690, 21.22443
829.0511, 21.33883
829.5333, 21.41117
830.0154, 21.41293
830.4975, 21.35575
830.9796, 21.29436
831.4617, 21.23912
831.9438, 21.19134
832.4260, 21.15988
832.9081, 21.12299
833.3902, 21.00871
833.8723, 20.77722
834.3544, 20.57083
834.8365, 20.39646
835.3187, 20.24102
835.8008, 20.08967
836.2829, 19.95850
836.7650, 19.88433
837.2471, 19.87198
837.7292, 19.81617
838.2114, 19.60546
838.6935, 19.42345
839.1756, 19.40302
839.6577, 19.47462
840.1398, 19.57080
840.6219, 19.65875
841.1041, 19.66943
841.5862, 19.53628
842.0683, 19.37259
842.5504, 19.43139
843.0325, 19.66285
843.5146, 19.69350
843.9968, 19.46560
844.4789, 19.26196
844.9610, 19.23967
845.4431, 19.31540
845.9252, 19.33123
846.4073, 19.25521
846.8895, 19.28388
847.3716, 19.52143
847.8537, 19.72489
848.3358, 19.80988
848.8179, 19.86503
849.3000, 19.95139
849.7822, 20.07817
850.2643, 20.26287
850.7464, 20.58853
851.2285, 20.85031
851.7106, 20.84348
852.1927, 20.76843
852.6749, 20.85956
853.1570, 21.10503
853.6391, 21.38937
854.1212, 21.65826
854.6033, 21.91191
855.0854, 22.14273
855.5676, 22.35631
856.0497, 22.54487
856.5318, 22.70444
857.0139, 23.02130
857.4960, 23.57977
857.9781, 24.21941
858.4603, 24.75798
858.9424, 25.21389
859.4245, 25.82369
859.9066, 26.76653
860.3887, 27.55275
860.8708, 27.97258
861.3530, 28.41306
861.8351, 29.01499
862.3172, 29.79752
862.7993, 30.82614
863.2814, 32.16690
863.7635, 33.43804
864.2457, 34.39330
864.7278, 35.30795
865.2099, 36.34137
865.6920, 37.51103
866.1741, 38.84779
866.6563, 40.33560
867.1384, 41.82897
867.6205, 43.20442
868.1026, 44.54030
868.5847, 46.01179
869.0668, 47.58722
869.5490, 49.02303
870.0311, 50.27279
870.5132, 51.67876
870.9953, 53.46193
871.4774, 55.52009
871.9595, 57.65444
872.4417, 59.87465
872.9238, 62.14063
873.4059, 64.48951
873.8880, 66.84561
874.3701, 69.13664
874.8522, 71.45671
875.3344, 73.94857
875.8165, 76.56339
876.2986, 79.01037
876.7807, 80.98635
877.2628, 83.13893
877.7449, 85.89973
878.2271, 88.75172
878.7092, 91.33669
879.1913, 93.59095
879.6734, 95.46792
880.1555, 96.95084
880.6376, 98.21512
881.1198, 99.32320
881.6019, 100.3524
882.0840, 101.3923
882.5661, 102.4755
883.0482, 103.7510
883.5303, 105.2537
884.0125, 106.8307
884.4946, 108.3304
884.9767, 109.8519
885.4588, 111.7826
885.9409, 114.2340
886.4230, 116.4887
886.9052, 118.4777
887.3873, 120.3193
887.8694, 122.0366
888.3515, 123.6857
888.8336, 125.4491
889.3157, 127.3960
889.7979, 128.8951
890.2800, 130.1321
890.7621, 130.6648
891.2442, 130.2767
891.7263, 129.2182
892.2084, 127.7684
892.6906, 125.8353
893.1727, 123.0958
893.6548, 119.3662
894.1369, 115.0509
894.6190, 110.1922
895.1011, 105.0530
895.5833, 99.94052
896.0654, 94.86594
896.5475, 89.73855
897.0296, 84.57890
897.5117, 79.59615
897.9938, 74.92508
898.4760, 70.65591
898.9581, 67.19742
899.4402, 64.48997
899.9223, 61.70513
900.4044, 58.68031
900.8865, 55.79093
901.3687, 53.25969
901.8508, 51.03841
902.3329, 49.04590
902.8150, 47.31341
903.2971, 45.60875
903.7792, 43.83564
904.2614, 42.26040
904.7435, 41.17488
905.2256, 40.14231
905.7077, 38.64653
906.1898, 36.81738
906.6719, 35.40340
907.1541, 34.77333
907.6362, 34.13012
908.1183, 33.21026
908.6004, 32.28673
909.0825, 31.57294
909.5646, 30.99421
910.0468, 30.38073
910.5289, 29.69571
911.0110, 29.05160
911.4931, 28.54040
911.9752, 28.09598
912.4573, 27.65108
912.9395, 27.21198
913.4216, 26.77079
913.9037, 26.34079
914.3858, 25.99693
914.8679, 25.79461
915.3500, 25.61996
915.8321, 25.24993
916.3142, 24.71999
916.7963, 24.29189
917.2784, 23.97476
917.7606, 23.75681
918.2427, 23.65544
918.7248, 23.56249
919.2069, 23.35294
919.6890, 23.04809
920.1711, 22.80172
920.6533, 22.60237
921.1354, 22.49216
921.6175, 22.52254
922.0996, 22.57913
922.5817, 22.63329
923.0638, 22.66332
923.5460, 22.62147
924.0281, 22.49500
924.5102, 22.40489
924.9923, 22.36987
925.4744, 22.37033
925.9565, 22.46389
926.4387, 22.53872
926.9208, 22.45721
927.4029, 22.26663
927.8850, 22.11773
928.3671, 22.05442
928.8492, 22.08752
929.3314, 22.31453
929.8135, 22.57024
930.2956, 22.64540
930.7777, 22.60638
931.2598, 22.62931
931.7419, 22.74740
932.2241, 22.83990
932.7062, 22.79105
933.1883, 22.71350
933.6704, 22.83218
934.1525, 23.10661
934.6346, 23.36650
935.1168, 23.59326
935.5989, 23.78477
936.0810, 23.92992
936.5631, 24.11388
937.0452, 24.47822
937.5273, 25.00463
938.0095, 25.37247
938.4916, 25.53480
938.9737, 25.73482
939.4558, 26.02040
939.9379, 26.34981
940.4200, 26.69633
940.9022, 27.06693
941.3843, 27.47389
941.8664, 27.89331
942.3485, 28.42722
942.8306, 29.08612
943.3127, 29.83801
943.7949, 30.76349
944.2770, 31.70831
944.7591, 32.52509
945.2412, 33.23244
945.7233, 33.93745
946.2054, 34.64991
946.6876, 35.39214
947.1697, 36.15188
947.6518, 36.96552
948.1339, 37.85824
948.6160, 38.81866
949.0981, 39.87063
949.5803, 40.99065
950.0624, 42.03937
950.5445, 42.91427
951.0266, 43.71526
951.5087, 44.47705
951.9908, 45.27713
952.4730, 46.30108
952.9551, 47.50248
953.4372, 48.66905
953.9193, 49.70792
954.4014, 50.65215
954.8835, 51.51594
955.3657, 52.31759
955.8478, 53.15754
956.3299, 54.00368
956.8120, 54.67890
957.2941, 55.14739
957.7762, 55.21126
958.2584, 54.71316
958.7405, 53.85703
959.2226, 53.06639
959.7047, 52.36008
960.1868, 51.37035
960.6689, 50.06062
961.1511, 48.58109
961.6332, 46.90391
962.1153, 45.20086
962.5974, 43.61812
963.0795, 42.14604
963.5616, 40.74900
964.0438, 39.47601
964.5259, 38.16002
965.0080, 36.73909
965.4901, 35.35567
965.9722, 34.08472
966.4543, 32.85514
966.9365, 31.57561
967.4186, 30.25831
967.9007, 29.05585
968.3828, 27.93160
968.8649, 26.99973
969.3470, 26.46307
969.8292, 25.95514
970.3113, 25.16712
970.7934, 24.28725
971.2755, 23.64396
971.7576, 23.28662
972.2397, 22.95728
972.7219, 22.54780
973.2040, 22.11542
973.6861, 21.65279
974.1682, 21.21645
974.6503, 20.90074
975.1324, 20.66547
975.6146, 20.37633
976.0967, 19.98712
976.5788, 19.63275
977.0609, 19.44819
977.5430, 19.35328
978.0251, 19.26475
978.5073, 19.16835
978.9894, 18.97916
979.4715, 18.72574
979.9536, 18.64452
980.4357, 18.87284
980.9178, 19.16141
981.4000, 19.10905
981.8821, 18.82366
982.3642, 18.70340
982.8463, 18.74435
983.3284, 18.91395
983.8105, 19.20551
984.2927, 19.48187
984.7748, 19.63869
985.2569, 19.72049
985.7390, 19.81343
986.2211, 19.91441
986.7032, 20.09655
987.1854, 20.37032
987.6675, 20.67492
988.1496, 20.99631
988.6317, 21.33526
989.1138, 21.68869
989.5959, 22.06101
990.0781, 22.48137
990.5602, 23.01119
991.0423, 23.40185
991.5244, 23.56672
992.0065, 23.74335
992.4886, 24.03138
992.9708, 24.36085
993.4529, 24.65264
993.9350, 24.91052
994.4171, 25.18821
994.8992, 25.56558
995.3813, 25.83745
995.8635, 25.90642
996.3456, 25.97182
996.8277, 26.09432
997.3098, 26.27767
997.7919, 26.55965
998.2740, 26.92899
998.7562, 27.21948
999.2383, 27.38010
999.7204, 27.48387
1000.203, 27.58748
1000.685, 27.60306
1001.167, 27.48777
1001.649, 27.23517
1002.131, 26.80276
1002.613, 26.19528
1003.095, 25.61108
1003.577, 25.21451
1004.059, 24.76651
1004.542, 24.14590
1005.024, 23.40197
1005.506, 22.49640
1005.988, 21.53255
1006.470, 20.67643
1006.952, 19.98147
1007.434, 19.44299
1007.916, 19.12693
1008.398, 18.89991
1008.881, 18.69517
1009.363, 18.46369
1009.845, 18.08785
1010.327, 17.61592
1010.809, 17.21679
1011.291, 16.95706
1011.773, 16.74986
1012.255, 16.51856
1012.738, 16.28705
1013.220, 16.09396
1013.702, 15.92867
1014.184, 15.75665
1014.666, 15.58148
1015.148, 15.44380
1015.630, 15.36393
1016.112, 15.31807
1016.594, 15.27733
1017.077, 15.24851
1017.559, 15.27174
1018.041, 15.32790
1018.523, 15.31726
1019.005, 15.22606
1019.487, 15.10112
1019.969, 14.96498
1020.451, 14.84642
1020.934, 14.79131
1021.416, 14.79139
1021.898, 14.82063
1022.380, 14.87586
1022.862, 14.81174
1023.344, 14.58987
1023.826, 14.43018
1024.308, 14.47913
1024.791, 14.63042
1025.273, 14.69121
1025.755, 14.66509
1026.237, 14.68744
1026.719, 14.77263
1027.201, 14.78065
1027.683, 14.66235
1028.165, 14.54625
1028.647, 14.51351
1029.130, 14.55133
1029.612, 14.65627
1030.094, 14.84678
1030.576, 14.83430
1031.058, 14.52427
1031.540, 14.33903
1032.022, 14.38831
1032.504, 14.55082
1032.986, 14.80456
1033.469, 15.05093
1033.951, 15.04475
1034.433, 14.72363
1034.915, 14.53702
1035.397, 14.53935
1035.879, 14.55723
1036.361, 14.54539
1036.843, 14.55806
1037.326, 14.68736
1037.808, 14.83966
1038.290, 14.76871
1038.772, 14.38490
1039.254, 14.17941
1039.736, 14.20992
1040.218, 14.33113
1040.700, 14.62838
1041.182, 14.88822
1041.665, 14.94224
1042.147, 14.85532
1042.629, 14.76958
1043.111, 14.67967
1043.593, 14.61313
1044.075, 14.56348
1044.557, 14.54735
1045.039, 14.62440
1045.521, 14.68134
1046.004, 14.58064
1046.486, 14.42011
1046.968, 14.43125
1047.450, 14.67058
1047.932, 14.83951
1048.414, 14.88653
1048.896, 14.88792
1049.378, 14.82814
1049.861, 14.76362
1050.343, 14.76063
1050.825, 14.77338
1051.307, 14.69194
1051.789, 14.48842
1052.271, 14.33687
1052.753, 14.29666
1053.235, 14.27870
1053.718, 14.25077
1054.200, 14.23994
1054.682, 14.29408
1055.164, 14.37042
1055.646, 14.36831
1056.128, 14.26628
1056.610, 14.23709
1057.092, 14.41877
1057.574, 14.55601
1058.057, 14.51848
1058.539, 14.44233
1059.021, 14.44125
1059.503, 14.47513
1059.985, 14.44718
1060.467, 14.34263
1060.949, 14.27116
1061.431, 14.26188
1061.913, 14.30070
1062.396, 14.46763
1062.878, 14.59845
1063.360, 14.50774
1063.842, 14.31627
1064.324, 14.25204
1064.806, 14.34274
1065.288, 14.39782
1065.770, 14.29442
1066.253, 14.21371
1066.735, 14.23131
1067.217, 14.29857
1067.699, 14.43420
1068.181, 14.56633
1068.663, 14.57298
1069.145, 14.45018
1069.627, 14.33720
1070.109, 14.28516
1070.592, 14.25314
1071.074, 14.20360
1071.556, 14.18590
1072.038, 14.27059
1072.520, 14.39276
1073.002, 14.43940
1073.484, 14.41428
1073.966, 14.44929
1074.448, 14.64301
1074.931, 14.79037
1075.413, 14.72758
1075.895, 14.65249
1076.377, 14.80122
1076.859, 14.96899
1077.341, 14.76856
1077.823, 14.28235
1078.305, 14.07988
1078.788, 14.46103
1079.270, 14.79713
1079.752, 14.72129
1080.234, 14.57761
1080.716, 14.58854
1081.198, 14.67150
1081.680, 14.73091
1082.162, 14.75397
1082.644, 14.74387
1083.127, 14.68546
1083.609, 14.67667
1084.091, 14.82830
1084.573, 14.96516
1085.055, 15.00456
1085.537, 14.95522
1086.019, 14.74042
1086.501, 14.46466
1086.984, 14.39982
1087.466, 14.63305
1087.948, 14.87783
1088.430, 15.09767
1088.912, 15.19398
1089.394, 15.00250
1089.876, 14.76210
1090.358, 14.68423
1090.840, 14.73560
1091.323, 14.82585
1091.805, 14.93595
1092.287, 15.01210
1092.769, 15.00793
1093.251, 15.00161
1093.733, 15.03331
1094.215, 15.06842
1094.697, 15.09958
1095.179, 15.10543
1095.662, 15.02243
1096.144, 14.85785
1096.626, 14.78860
1097.108, 14.95251
1097.590, 15.08954
1098.072, 15.12338
1098.554, 15.09527
1099.036, 14.95166
1099.519, 14.81177
1100.001, 14.86710
1100.483, 15.08915
1100.965, 15.21438
1101.447, 15.12818
1101.929, 15.06156
1102.411, 15.11270
1102.893, 15.14946
1103.375, 15.05538
1103.858, 14.95785
1104.340, 15.01070
1104.822, 15.17699
1105.304, 15.31112
1105.786, 15.41322
1106.268, 15.41312
1106.750, 15.18289
1107.232, 15.00117
1107.714, 14.99417
1108.197, 15.03806
1108.679, 15.06887
1109.161, 15.06675
1109.643, 14.96022
1110.125, 14.70081
1110.607, 14.64213
1111.089, 15.06860
1111.571, 15.33507
1112.054, 15.21862
1112.536, 15.02228
1113.018, 14.86701
1113.500, 14.76545
1113.982, 14.74677
1114.464, 14.81256
1114.946, 14.86277
1115.428, 14.94524
1115.911, 14.92914
1116.393, 14.68702
1116.875, 14.51467
1117.357, 14.57254
1117.839, 14.71659
1118.321, 14.80797
1118.803, 14.84933
1119.285, 14.85544
1119.767, 14.82492
1120.250, 14.75745
1120.732, 14.60808
1121.214, 14.51950
1121.696, 14.57440
1122.178, 14.62972
1122.660, 14.55004
1123.142, 14.40133
1123.624, 14.35528
1124.106, 14.41991
1124.589, 14.54510
1125.071, 14.78890
1125.553, 14.86452
1126.035, 14.64482
1126.517, 14.48372
1126.999, 14.62323
1127.481, 14.86346
1127.963, 14.87490
1128.446, 14.68431
1128.928, 14.61092
1129.410, 14.66889
1129.892, 14.72996
1130.374, 14.78974
1130.856, 14.75680
1131.338, 14.57601
1131.820, 14.40228
1132.302, 14.41776
1132.785, 14.53731
1133.267, 14.44991
1133.749, 14.17988
1134.231, 14.15355
1134.713, 14.38200
1135.195, 14.60105
1135.677, 14.73628
1136.159, 14.75305
1136.641, 14.61091
1137.124, 14.43389
1137.606, 14.45789
1138.088, 14.62047
1138.570, 14.69793
1139.052, 14.69756
1139.534, 14.63823
1140.016, 14.53518
1140.498, 14.45637
1140.981, 14.43325
1141.463, 14.43145
1141.945, 14.42130
1142.427, 14.40100
1142.909, 14.34219
1143.391, 14.28147
1143.873, 14.34860
1144.355, 14.48590
1144.838, 14.46292
1145.320, 14.23984
1145.802, 14.02799
1146.284, 13.96286
1146.766, 13.98002
1147.248, 14.08947
1147.730, 14.18070
1148.212, 14.04128
1148.694, 13.82407
1149.177, 13.84950
1149.659, 14.07977
1150.141, 14.18194
1150.623, 14.01509
1151.105, 13.84736
1151.587, 13.88264
1152.069, 13.92856
1152.551, 13.83237
1153.033, 13.69754
1153.516, 13.65946
1153.998, 13.65958
1154.480, 13.53404
1154.962, 13.26471
1155.444, 13.07718
1155.926, 13.08734
1156.408, 13.13036
1156.890, 13.23061
1157.373, 13.26534
1157.855, 13.11608
1158.337, 12.89825
1158.819, 12.73945
1159.301, 12.63662
1159.783, 12.52575
1160.265, 12.34750
1160.747, 12.30391
1161.229, 12.63571
1161.712, 12.77682
1162.194, 12.44730
1162.676, 12.07512
1163.158, 11.94178
1163.640, 11.94681
1164.122, 11.92603
1164.604, 11.88082
1165.086, 11.73642
1165.568, 11.42587
1166.051, 11.22943
1166.533, 11.21454
1167.015, 11.18909
1167.497, 11.06097
1167.979, 10.92801
1168.461, 10.89050
1168.943, 10.92802
1169.425, 11.01446
1169.908, 11.15638
1170.390, 11.02061
1170.872, 10.59315
1171.354, 10.29178
1171.836, 10.21422
1172.318, 10.21448
1172.800, 10.20854
1173.282, 10.18348
1173.765, 10.12119
1174.247, 10.02573
1174.729, 9.903597
1175.211, 9.760100
1175.693, 9.588612
1176.175, 9.411328
1176.657, 9.345432
1177.139, 9.413613
1177.621, 9.450964
1178.104, 9.331455
1178.586, 9.145189
1179.068, 8.957305
1179.550, 8.803094
1180.032, 8.751507
1180.514, 8.761280
1180.996, 8.766795
1181.478, 8.754150
1181.960, 8.723342
1182.443, 8.673859
1182.925, 8.622866
1183.407, 8.586165
1183.889, 8.543835
1184.371, 8.469820
1184.853, 8.398268
1185.335, 8.387853
1185.817, 8.385419
1186.300, 8.283039
1186.782, 8.086612
1187.264, 7.947748
1187.746, 7.928182
1188.228, 7.902009
1188.710, 7.805670
1189.192, 7.755152
1189.674, 7.873342
1190.156, 7.974042
1190.639, 7.861958
1191.121, 7.650768
1191.603, 7.601031
1192.085, 7.731796
1192.567, 7.764566
1193.049, 7.654217
1193.531, 7.578868
1194.013, 7.571428
1194.495, 7.556004
1194.978, 7.495999
1195.460, 7.425388
1195.942, 7.366976
1196.424, 7.347251
1196.906, 7.500261
1197.388, 7.807718
1197.870, 7.829585
1198.352, 7.575523
1198.835, 7.341482
1199.317, 7.189951
1199.799, 7.082646
1200.281, 6.999838
1200.763, 6.938628
1201.245, 6.891366
1201.727, 6.869944
1202.209, 6.926345
1202.692, 7.009918
1203.174, 7.006740
1203.656, 6.937838
1204.138, 6.876946
1204.620, 6.842574
1205.102, 6.818997
1205.584, 6.794166
1206.066, 6.800223
1206.548, 6.895821
1207.031, 6.990934
1207.513, 7.016060
1207.995, 7.004066
1208.477, 6.978837
1208.959, 6.951753
1209.441, 6.946342
1209.923, 6.963868
1210.405, 6.944460
1210.887, 6.844161
1211.370, 6.753249
1211.852, 6.684569
1212.334, 6.629524
1212.816, 6.581090
1213.298, 6.549050
1213.780, 6.553016
1214.262, 6.573860
1214.744, 6.558420
1215.227, 6.499650
1215.709, 6.485554
1216.191, 6.531907
1216.673, 6.558503
1217.155, 6.555472
1217.637, 6.523625
1218.119, 6.457686
1218.601, 6.396539
1219.083, 6.376655
1219.566, 6.400094
1220.048, 6.507253
1220.530, 6.661824
1221.012, 6.690224
1221.494, 6.604630
1221.976, 6.442193
1222.458, 6.243530
1222.940, 6.184042
1223.422, 6.336864
1223.905, 6.482497
1224.387, 6.394327
1224.869, 6.260877
1225.351, 6.296228
1225.833, 6.393219
1226.315, 6.421055
1226.797, 6.416080
1227.279, 6.484344
1227.762, 6.600358
1228.244, 6.599678
1228.726, 6.407397
1229.208, 6.244363
1229.690, 6.172606
1230.172, 6.159746
1230.654, 6.239485
1231.136, 6.327067
1231.619, 6.412448
1232.101, 6.441546
1232.583, 6.313696
1233.065, 6.061952
1233.547, 5.899049
1234.029, 5.832819
1234.511, 5.839280
1234.993, 5.945437
1235.475, 6.026974
1235.958, 6.060029
1236.440, 6.024722
1236.922, 5.888494
1237.404, 5.800595
1237.886, 6.003746
1238.368, 6.353479
1238.850, 6.354467
1239.332, 6.109302
1239.814, 6.053346
1240.297, 6.162638
1240.779, 6.199709
1241.261, 6.120332
1241.743, 6.015168
1242.225, 5.926744
1242.707, 5.908076
1243.189, 6.094664
1243.671, 6.271577
1244.154, 6.197673
1244.636, 6.053235
1245.118, 6.028264
1245.600, 6.080549
1246.082, 6.111848
1246.564, 6.115460
1247.046, 6.146178
1247.528, 6.237803
1248.010, 6.292799
1248.493, 6.113855
1248.975, 6.166497
1249.457, 6.924131
1249.939, 7.454374
1250.421, 7.114685
1250.903, 6.415390
1251.385, 6.006670
1251.867, 5.855658
1252.349, 5.781526
1252.832, 5.786851
1253.314, 5.869626
1253.796, 6.034917
1254.278, 6.018325
1254.760, 5.766615
1255.242, 5.569730
1255.724, 5.586158
1256.206, 5.682117
1256.689, 5.709881
1257.171, 5.720845
1257.653, 5.830463
1258.135, 5.962579
1258.617, 5.958642
1259.099, 5.882005
1259.581, 5.877378
1260.063, 5.955026
1260.546, 6.054251
1261.028, 6.161969
1261.510, 6.200724
1261.992, 6.082661
1262.474, 5.963598
1262.956, 5.928009
1263.438, 5.884806
1263.920, 5.699738
1264.402, 5.535600
1264.885, 5.651207
1265.367, 5.940941
1265.849, 6.015843
1266.331, 5.834543
1266.813, 5.699218
1267.295, 5.604043
1267.777, 5.592252
1268.259, 5.678977
1268.741, 5.801505
1269.224, 5.941600
1269.706, 5.975885
1270.188, 5.761789
1270.670, 5.470557
1271.152, 5.440967
1271.634, 5.565585
1272.116, 5.621873
1272.598, 5.613472
1273.081, 5.521355
1273.563, 5.396582
1274.045, 5.389527
1274.527, 5.533390
1275.009, 5.691210
1275.491, 5.829950
1275.973, 5.888178
1276.455, 5.768807
1276.938, 5.645352
1277.420, 5.608129
1277.902, 5.614609
1278.384, 5.641932
1278.866, 5.674521
1279.348, 5.688993
1279.830, 5.685044
1280.312, 5.655918
1280.794, 5.600739
1281.276, 5.517253
1281.759, 5.394870
1282.241, 5.304555
1282.723, 5.265175
1283.205, 5.257093
1283.687, 5.268990
1284.169, 5.298524
1284.651, 5.347104
1285.133, 5.404510
1285.616, 5.452346
1286.098, 5.490208
##END=



