##NAMES=Melanophlogite
##RRUFFID=R060863
##IDEAL CHEMISTRY=C_2_H_17_O_5_&#183;Si_46_O_92_
##LOCALITY=6 miles east of Mount Hamilton, Santa Clara County, California, USA
##OWNER=RRUFF
##SOURCE=Michael Scott
##DESCRIPTION=Colorless cubes
##STATUS=The identification of this mineral has been confirmed by single-crystal X-ray diffraction.
##URL=rruff.info/R060863
155.2712, 10737.98
155.7533, 10821.33
156.2354, 10925.25
156.7175, 11025.14
157.1996, 11110.13
157.6817, 11192.28
158.1639, 11283.23
158.6460, 11390.35
159.1281, 11501.96
159.6102, 11615.06
160.0923, 11729.54
160.5744, 11840.54
161.0566, 11943.22
161.5387, 12040.87
162.0208, 12138.42
162.5029, 12246.50
162.9850, 12347.58
163.4671, 12431.55
163.9493, 12493.86
164.4314, 12545.44
164.9135, 12585.01
165.3956, 12617.28
165.8777, 12652.14
166.3598, 12710.17
166.8420, 12764.84
167.3241, 12792.52
167.8062, 12777.58
168.2883, 12756.25
168.7704, 12755.13
169.2525, 12769.13
169.7346, 12779.11
170.2168, 12774.13
170.6989, 12759.35
171.1810, 12740.15
171.6631, 12716.45
172.1452, 12690.86
172.6273, 12668.43
173.1095, 12648.01
173.5916, 12619.65
174.0737, 12565.50
174.5558, 12499.69
175.0379, 12446.62
175.5201, 12418.79
176.0022, 12404.22
176.4843, 12393.85
176.9664, 12387.56
177.4485, 12373.11
177.9306, 12332.42
178.4128, 12274.58
178.8949, 12221.04
179.3770, 12180.75
179.8591, 12150.35
180.3412, 12128.61
180.8233, 12117.19
181.3055, 12099.57
181.7876, 12048.08
182.2697, 11971.41
182.7518, 11903.07
183.2339, 11864.94
183.7160, 11847.36
184.1982, 11827.48
184.6803, 11804.37
185.1624, 11777.84
185.6445, 11748.58
186.1266, 11716.33
186.6087, 11677.15
187.0908, 11616.70
187.5730, 11543.86
188.0551, 11500.97
188.5372, 11494.70
189.0193, 11512.75
189.5014, 11545.17
189.9835, 11592.21
190.4657, 11622.81
190.9478, 11604.85
191.4299, 11545.03
191.9120, 11502.12
192.3941, 11484.03
192.8762, 11486.43
193.3584, 11505.60
193.8405, 11543.33
194.3226, 11579.13
194.8047, 11590.85
195.2868, 11579.23
195.7689, 11584.60
196.2511, 11619.72
196.7332, 11674.64
197.2153, 11712.21
197.6974, 11730.40
198.1795, 11742.89
198.6616, 11760.38
199.1438, 11783.34
199.6259, 11808.04
200.1080, 11830.89
200.5901, 11854.68
201.0722, 11895.16
201.5543, 11953.47
202.0364, 12025.17
202.5186, 12112.62
203.0007, 12220.36
203.4828, 12312.13
203.9649, 12376.27
204.4470, 12414.06
204.9291, 12443.23
205.4113, 12457.52
205.8934, 12474.90
206.3755, 12518.45
206.8576, 12592.99
207.3397, 12672.80
207.8218, 12752.27
208.3040, 12831.58
208.7861, 12906.77
209.2682, 12976.40
209.7503, 13043.55
210.2324, 13114.03
210.7145, 13191.37
211.1967, 13260.73
211.6788, 13312.94
212.1609, 13343.72
212.6430, 13395.10
213.1251, 13474.13
213.6072, 13566.71
214.0894, 13650.48
214.5715, 13721.02
215.0536, 13793.89
215.5357, 13875.20
216.0178, 13968.19
216.4999, 14054.37
216.9820, 14127.52
217.4642, 14196.20
217.9463, 14279.75
218.4284, 14383.79
218.9105, 14487.77
219.3926, 14583.45
219.8747, 14667.76
220.3569, 14750.95
220.8390, 14840.31
221.3211, 14924.90
221.8032, 14978.96
222.2853, 14981.24
222.7674, 14990.66
223.2496, 15036.75
223.7317, 15139.71
224.2138, 15229.27
224.6959, 15299.22
225.1780, 15357.41
225.6601, 15431.64
226.1423, 15534.93
226.6244, 15633.07
227.1065, 15707.38
227.5886, 15749.46
228.0707, 15787.63
228.5528, 15822.17
229.0350, 15853.19
229.5171, 15880.91
229.9992, 15902.57
230.4813, 15924.83
230.9634, 15951.77
231.4455, 15987.85
231.9276, 16018.76
232.4098, 16039.74
232.8919, 16054.93
233.3740, 16082.96
233.8561, 16136.88
234.3382, 16186.44
234.8203, 16212.89
235.3025, 16200.86
235.7846, 16197.75
236.2667, 16209.90
236.7488, 16234.42
237.2309, 16254.09
237.7130, 16261.63
238.1952, 16273.70
238.6773, 16299.67
239.1594, 16338.70
239.6415, 16395.17
240.1236, 16482.25
240.6057, 16591.36
241.0879, 16666.21
241.5700, 16679.65
242.0521, 16691.48
242.5342, 16724.90
243.0163, 16660.34
243.4984, 16871.32
243.9806, 17052.73
244.4627, 17206.08
244.9448, 17247.49
245.4269, 17433.45
245.9090, 17561.48
246.3911, 17687.14
246.8732, 17833.63
247.3554, 17956.20
247.8375, 18057.91
248.3196, 18142.39
248.8017, 18243.58
249.2838, 18366.89
249.7659, 18498.65
250.2481, 18631.22
250.7302, 18766.32
251.2123, 18900.51
251.6944, 19036.91
252.1765, 19173.71
252.6586, 19299.29
253.1408, 19406.04
253.6229, 19513.83
254.1050, 19640.47
254.5871, 19795.04
255.0692, 19946.45
255.5513, 20092.40
256.0334, 20232.07
256.5156, 20367.22
256.9977, 20497.93
257.4798, 20624.56
257.9619, 20744.88
258.4440, 20852.49
258.9261, 20971.47
259.4083, 21109.10
259.8904, 21262.61
260.3725, 21405.75
260.8546, 21535.34
261.3367, 21660.28
261.8188, 21787.72
262.3010, 21921.30
262.7831, 22048.94
263.2652, 22172.37
263.7473, 22288.79
264.2294, 22389.16
264.7115, 22472.51
265.1937, 22539.47
265.6758, 22587.52
266.1579, 22611.97
266.6400, 22631.56
267.1221, 22643.52
267.6042, 22652.50
268.0864, 22687.55
268.5685, 22761.93
269.0506, 22836.55
269.5327, 22885.86
270.0148, 22910.55
270.4969, 22906.10
270.9791, 22861.46
271.4612, 22789.09
271.9433, 22752.00
272.4254, 22765.04
272.9075, 22774.77
273.3896, 22733.65
273.8718, 22631.27
274.3539, 22548.08
274.8360, 22495.81
275.3181, 22468.57
275.8002, 22443.55
276.2823, 22419.11
276.7645, 22401.45
277.2466, 22400.81
277.7287, 22420.45
278.2108, 22420.07
278.6929, 22388.63
279.1750, 22337.48
279.6572, 22295.55
280.1393, 22260.44
280.6214, 22245.21
281.1035, 22265.75
281.5856, 22322.46
282.0677, 22380.86
282.5499, 22448.67
283.0320, 22503.54
283.5141, 22473.54
283.9962, 22349.72
284.4783, 22224.42
284.9604, 22166.80
285.4425, 22172.38
285.9247, 22162.71
286.4068, 22128.23
286.8889, 22077.64
287.3710, 22020.54
287.8531, 21956.74
288.3352, 21906.83
288.8174, 21902.65
289.2995, 21932.07
289.7816, 21912.94
290.2637, 21827.11
290.7458, 21713.15
291.2279, 21641.77
291.7101, 21609.27
292.1922, 21562.43
292.6743, 21450.81
293.1564, 21296.88
293.6385, 21184.61
294.1206, 21129.99
294.6028, 21095.08
295.0849, 21034.43
295.5670, 20949.48
296.0491, 20846.33
296.5312, 20718.95
297.0133, 20578.01
297.4955, 20446.58
297.9776, 20328.95
298.4597, 20222.38
298.9418, 20130.44
299.4239, 20050.13
299.9060, 19971.77
300.3882, 19891.08
300.8703, 19808.84
301.3524, 19728.69
301.8345, 19650.74
302.3166, 19570.08
302.7987, 19484.77
303.2809, 19392.30
303.7630, 19285.15
304.2451, 19138.08
304.7272, 18984.12
305.2093, 18873.62
305.6914, 18809.23
306.1736, 18743.17
306.6557, 18622.77
307.1378, 18474.53
307.6199, 18344.04
308.1020, 18270.50
308.5841, 18208.79
309.0663, 18119.53
309.5484, 18001.54
310.0305, 17877.71
310.5126, 17754.70
310.9947, 17635.65
311.4768, 17526.20
311.9590, 17420.95
312.4411, 17331.56
312.9232, 17275.28
313.4053, 17249.02
313.8874, 17218.94
314.3695, 17164.68
314.8517, 17099.13
315.3337, 17034.52
315.8159, 16984.90
316.2980, 16927.07
316.7801, 16837.65
317.2622, 16725.10
317.7443, 16634.36
318.2264, 16605.48
318.7086, 16593.06
319.1907, 16565.58
319.6728, 16508.99
320.1549, 16446.00
320.6370, 16317.93
321.1191, 16172.21
321.6013, 16094.60
322.0834, 16178.88
322.5655, 16218.75
323.0476, 16216.59
323.5297, 16046.51
324.0118, 16093.26
324.4940, 16053.11
324.9761, 16118.28
325.4582, 16156.62
325.9403, 16168.37
326.4224, 16167.20
326.9045, 16155.84
327.3867, 16122.51
327.8688, 16102.40
328.3509, 16106.19
328.8330, 16121.52
329.3151, 16127.75
329.7972, 16110.42
330.2794, 16100.08
330.7615, 16105.31
331.2436, 16128.70
331.7257, 16159.82
332.2078, 16207.20
332.6899, 16257.50
333.1721, 16294.00
333.6542, 16314.72
334.1363, 16324.27
334.6184, 16318.04
335.1005, 16294.31
335.5826, 16294.31
336.0648, 16331.52
336.5469, 16375.44
337.0290, 16392.55
337.5111, 16370.81
337.9932, 16359.21
338.4753, 16370.76
338.9575, 16401.14
339.4396, 16417.89
339.9217, 16413.72
340.4038, 16414.15
340.8859, 16453.68
341.3680, 16539.64
341.8502, 16578.37
342.3323, 16538.10
342.8144, 16452.48
343.2965, 16426.48
343.7786, 16466.10
344.2607, 16515.95
344.7429, 16539.14
345.2250, 16538.38
345.7071, 16537.58
346.1892, 16539.52
346.6713, 16543.45
347.1534, 16546.03
347.6355, 16547.71
348.1176, 16555.01
348.5998, 16572.42
349.0819, 16597.78
349.5640, 16628.05
350.0461, 16664.69
350.5282, 16697.37
351.0103, 16704.23
351.4925, 16694.74
351.9746, 16700.26
352.4567, 16749.82
352.9388, 16817.33
353.4209, 16868.88
353.9030, 16903.41
354.3852, 16924.05
354.8673, 16913.48
355.3494, 16894.01
355.8315, 16902.75
356.3136, 16991.95
356.7957, 17089.37
357.2779, 17131.84
357.7600, 17123.60
358.2421, 17108.16
358.7242, 17108.09
359.2063, 17114.90
359.6884, 17119.43
360.1706, 17108.11
360.6527, 17106.93
361.1348, 17137.61
361.6169, 17191.31
362.0990, 17233.72
362.5811, 17245.76
363.0633, 17246.63
363.5454, 17249.47
364.0275, 17268.00
364.5096, 17266.89
364.9917, 17223.33
365.4738, 17154.94
365.9560, 17098.07
366.4381, 17066.84
366.9202, 17042.81
367.4023, 17021.60
367.8844, 17007.56
368.3665, 16984.29
368.8487, 16948.94
369.3308, 16904.92
369.8129, 16856.39
370.2950, 16800.40
370.7771, 16744.47
371.2592, 16694.88
371.7414, 16653.82
372.2235, 16585.94
372.7056, 16471.20
373.1877, 16349.18
373.6698, 16258.17
374.1519, 16212.05
374.6341, 16160.33
375.1162, 16095.95
375.5983, 16019.83
376.0804, 15938.79
376.5625, 15853.93
377.0446, 15762.57
377.5267, 15661.81
378.0089, 15549.61
378.4910, 15442.81
378.9731, 15345.25
379.4552, 15251.43
379.9373, 15146.43
380.4194, 15028.46
380.9016, 14927.03
381.3837, 14867.57
381.8658, 14841.28
382.3479, 14795.54
382.8300, 14726.25
383.3121, 14651.38
383.7943, 14594.82
384.2764, 14553.20
384.7585, 14511.39
385.2406, 14462.02
385.7227, 14408.46
386.2048, 14359.99
386.6870, 14315.99
387.1691, 14267.93
387.6512, 14190.01
388.1333, 14107.20
388.6154, 14001.19
389.0975, 14034.34
389.5797, 14037.88
390.0618, 14013.40
390.5439, 13876.98
391.0260, 13885.11
391.5081, 13835.31
391.9902, 13783.14
392.4724, 13811.61
392.9545, 13691.47
393.4366, 13718.67
393.9187, 13687.05
394.4008, 13682.36
394.8829, 13619.37
395.3651, 13574.38
395.8472, 13587.71
396.3293, 13448.89
396.8114, 13454.80
397.2935, 13460.46
397.7756, 13448.91
398.2578, 13429.62
398.7399, 13412.06
399.2220, 13401.62
399.7041, 13387.09
400.1862, 13371.94
400.6683, 13355.08
401.1505, 13311.93
401.6326, 13207.61
402.1147, 13113.64
402.5968, 13080.13
403.0789, 13145.54
403.5610, 13178.87
404.0432, 13162.02
404.5253, 13112.70
405.0074, 13078.71
405.4895, 13064.17
405.9716, 13052.80
406.4537, 13035.01
406.9359, 13009.74
407.4180, 12999.01
407.9001, 13008.13
408.3822, 13018.62
408.8643, 12998.91
409.3464, 12950.20
409.8285, 12913.03
410.3106, 12910.83
410.7928, 12927.47
411.2749, 12914.47
411.7570, 12871.27
412.2391, 12827.88
412.7212, 12813.60
413.2033, 12818.25
413.6855, 12816.39
414.1676, 12798.71
414.6497, 12778.14
415.1318, 12772.07
415.6139, 12776.37
416.0960, 12777.09
416.5782, 12761.30
417.0603, 12740.44
417.5424, 12726.63
418.0245, 12722.95
418.5066, 12718.22
418.9887, 12705.31
419.4709, 12687.55
419.9530, 12669.46
420.4351, 12649.24
420.9172, 12632.57
421.3993, 12623.54
421.8814, 12622.42
422.3636, 12621.57
422.8457, 12612.67
423.3278, 12607.85
423.8099, 12615.53
424.2920, 12654.95
424.7741, 12685.35
425.2563, 12696.90
425.7384, 12696.92
426.2205, 12710.36
426.7026, 12761.70
427.1847, 12795.24
427.6668, 12781.79
428.1490, 12699.95
428.6311, 12650.67
429.1132, 12641.27
429.5953, 12655.61
430.0774, 12673.72
430.5595, 12696.98
431.0417, 12716.25
431.5238, 12725.56
432.0059, 12728.25
432.4880, 12745.97
432.9701, 12780.73
433.4522, 12818.00
433.9344, 12849.13
434.4165, 12873.32
434.8986, 12885.93
435.3807, 12882.40
435.8628, 12874.99
436.3449, 12889.31
436.8271, 12919.73
437.3092, 12938.20
437.7913, 12917.20
438.2734, 12879.28
438.7555, 12852.42
439.2376, 12838.29
439.7197, 12837.39
440.2018, 12876.09
440.6840, 12922.00
441.1661, 12928.72
441.6482, 12823.96
442.1303, 12723.78
442.6124, 12702.64
443.0945, 12747.41
443.5767, 12776.94
444.0588, 12752.91
444.5409, 12710.43
445.0230, 12669.21
445.5051, 12623.12
445.9872, 12594.79
446.4694, 12600.20
446.9515, 12623.86
447.4336, 12637.13
447.9157, 12637.97
448.3978, 12630.22
448.8799, 12611.66
449.3621, 12580.25
449.8442, 12558.98
450.3263, 12552.73
450.8084, 12550.22
451.2905, 12538.53
451.7726, 12511.42
452.2548, 12501.31
452.7369, 12517.41
453.2190, 12550.16
453.7011, 12575.12
454.1832, 12592.16
454.6653, 12600.21
455.1475, 12596.83
455.6296, 12583.39
456.1117, 12563.38
456.5938, 12534.82
457.0759, 12512.34
457.5580, 12513.24
458.0402, 12534.75
458.5223, 12569.43
459.0044, 12634.53
459.4865, 12696.23
459.9686, 12706.10
460.4507, 12671.09
460.9329, 12637.10
461.4150, 12640.84
461.8971, 12656.47
462.3792, 12656.48
462.8613, 12622.24
463.3434, 12603.02
463.8256, 12637.43
464.3077, 12699.63
464.7898, 12746.36
465.2719, 12747.51
465.7540, 12747.15
466.2361, 12762.23
466.7183, 12795.46
467.2004, 12823.31
467.6825, 12839.59
468.1646, 12852.87
468.6467, 12868.33
469.1288, 12881.22
469.6110, 12905.00
470.0930, 12945.92
470.5752, 12996.24
471.0573, 13035.34
471.5394, 13061.00
472.0215, 13080.07
472.5036, 13094.77
472.9857, 13104.98
473.4679, 13107.91
473.9500, 13099.40
474.4321, 13099.01
474.9142, 13144.36
475.3963, 13225.88
475.8784, 13275.31
476.3606, 13261.78
476.8427, 13222.30
477.3248, 13219.60
477.8069, 13248.75
478.2890, 13281.58
478.7711, 13301.44
479.2533, 13314.86
479.7354, 13328.19
480.2175, 13341.50
480.6996, 13359.20
481.1817, 13390.49
481.6638, 13425.85
482.1460, 13452.26
482.6281, 13457.14
483.1102, 13458.60
483.5923, 13462.39
484.0744, 13467.88
484.5565, 13472.02
485.0387, 13473.40
485.5208, 13472.79
486.0029, 13471.55
486.4850, 13479.16
486.9671, 13466.72
487.4492, 13419.99
487.9314, 13361.29
488.4135, 13327.38
488.8956, 13330.67
489.3777, 13330.48
489.8598, 13312.74
490.3419, 13281.79
490.8241, 13275.78
491.3062, 13302.31
491.7883, 13323.56
492.2704, 13302.42
492.7525, 13245.14
493.2346, 13200.67
493.7168, 13175.97
494.1989, 13164.68
494.6810, 13165.01
495.1631, 13173.15
495.6452, 13175.64
496.1273, 13155.14
496.6095, 13131.01
497.0916, 13132.38
497.5737, 13157.21
498.0558, 13175.47
498.5379, 13162.24
499.0201, 13136.70
499.5022, 13116.34
499.9843, 13104.82
500.4664, 13099.44
500.9485, 13107.97
501.4306, 13121.42
501.9127, 13122.25
502.3948, 13079.46
502.8770, 13051.35
503.3591, 13060.68
503.8412, 13110.17
504.3233, 13151.83
504.8054, 13192.09
505.2875, 13216.25
505.7697, 13207.15
506.2518, 13146.23
506.7339, 13115.92
507.2160, 13130.63
507.6981, 13170.41
508.1802, 13198.19
508.6624, 13213.96
509.1445, 13218.07
509.6266, 13206.50
510.1087, 13183.84
510.5908, 13162.92
511.0729, 13143.76
511.5551, 13132.00
512.0372, 13143.08
512.5193, 13163.42
513.0014, 13162.90
513.4835, 13122.60
513.9656, 13089.40
514.4478, 13108.48
514.9299, 13162.39
515.4120, 13214.83
515.8941, 13258.88
516.3762, 13289.99
516.8583, 13300.08
517.3405, 13288.30
517.8226, 13280.61
518.3047, 13286.64
518.7868, 13295.97
519.2689, 13301.21
519.7510, 13289.68
520.2332, 13292.87
520.7153, 13318.08
521.1974, 13355.01
521.6795, 13384.73
522.1616, 13408.49
522.6437, 13421.45
523.1259, 13418.00
523.6080, 13400.92
524.0901, 13395.37
524.5722, 13402.83
525.0543, 13414.28
525.5364, 13423.86
526.0186, 13431.53
526.5007, 13435.59
526.9828, 13433.73
527.4649, 13434.37
527.9470, 13457.06
528.4291, 13490.77
528.9113, 13508.78
529.3934, 13473.48
529.8755, 13436.34
530.3576, 13442.45
530.8397, 13487.95
531.3218, 13534.54
531.8040, 13577.77
532.2861, 13607.24
532.7682, 13612.33
533.2503, 13576.97
533.7324, 13549.70
534.2145, 13540.04
534.6967, 13541.46
535.1788, 13544.63
535.6609, 13547.82
536.1430, 13556.12
536.6251, 13570.66
537.1072, 13591.36
537.5894, 13617.37
538.0715, 13650.71
538.5536, 13682.94
539.0357, 13709.46
539.5178, 13730.11
539.9999, 13743.43
540.4821, 13747.86
540.9642, 13749.63
541.4463, 13751.73
541.9284, 13756.40
542.4105, 13771.20
542.8926, 13798.57
543.3748, 13836.55
543.8569, 13895.76
544.3390, 13966.34
544.8211, 14015.57
545.3032, 13992.09
545.7853, 13966.70
546.2675, 13999.06
546.7495, 14106.35
547.2316, 14187.05
547.7137, 14200.99
548.1959, 14182.53
548.6780, 14161.25
549.1601, 14129.93
549.6422, 14108.73
550.1243, 14093.50
550.6064, 14090.41
551.0886, 14120.29
551.5707, 14199.75
552.0528, 14269.67
552.5349, 14307.53
553.0170, 14315.77
553.4991, 14315.51
553.9813, 14306.15
554.4634, 14291.91
554.9455, 14269.55
555.4276, 14244.24
555.9097, 14237.20
556.3918, 14255.26
556.8740, 14280.28
557.3561, 14292.08
557.8382, 14296.41
558.3203, 14305.17
558.8024, 14335.55
559.2845, 14362.01
559.7667, 14362.35
560.2488, 14341.24
560.7309, 14329.90
561.2130, 14345.58
561.6951, 14368.26
562.1772, 14387.46
562.6594, 14400.08
563.1415, 14414.09
563.6236, 14427.63
564.1057, 14443.33
564.5878, 14465.65
565.0699, 14498.52
565.5521, 14524.45
566.0342, 14539.28
566.5163, 14546.13
566.9984, 14552.67
567.4805, 14558.69
567.9626, 14567.77
568.4448, 14590.18
568.9269, 14616.46
569.4090, 14611.96
569.8911, 14576.19
570.3732, 14549.04
570.8553, 14574.10
571.3375, 14625.15
571.8196, 14665.24
572.3017, 14684.46
572.7838, 14697.70
573.2659, 14714.49
573.7480, 14730.45
574.2302, 14738.87
574.7123, 14707.00
575.1944, 14699.11
575.6765, 14756.07
576.1586, 14868.37
576.6407, 14926.21
577.1229, 14892.20
577.6050, 14855.01
578.0871, 14858.49
578.5692, 14910.54
579.0513, 14959.01
579.5334, 15002.04
580.0156, 15046.72
580.4977, 15106.78
580.9798, 15179.50
581.4619, 15235.84
581.9440, 15262.40
582.4261, 15281.82
582.9083, 15324.96
583.3904, 15388.54
583.8725, 15463.07
584.3546, 15547.30
584.8367, 15636.85
585.3188, 15735.66
585.8010, 15841.85
586.2831, 15932.51
586.7652, 15972.54
587.2473, 16010.71
587.7294, 16081.61
588.2115, 16208.47
588.6937, 16330.39
589.1758, 16441.13
589.6579, 16547.69
590.1400, 16659.25
590.6221, 16779.53
591.1042, 16896.15
591.5864, 17006.89
592.0685, 17111.48
592.5506, 17213.02
593.0327, 17312.80
593.5148, 17387.05
593.9969, 17413.10
594.4791, 17405.02
594.9612, 17402.87
595.4433, 17407.08
595.9254, 17399.59
596.4075, 17355.24
596.8896, 17295.14
597.3718, 17246.56
597.8539, 17218.59
598.3360, 17192.96
598.8181, 17154.85
599.3002, 17115.31
599.7823, 17090.37
600.2645, 17128.34
600.7466, 17128.74
601.2287, 17052.75
601.7108, 16919.49
602.1929, 16818.96
602.6750, 16763.17
603.1572, 16718.49
603.6393, 16674.97
604.1214, 16632.79
604.6035, 16570.65
605.0856, 16485.40
605.5677, 16394.57
606.0499, 16313.69
606.5320, 16239.96
607.0141, 16160.20
607.4962, 16068.56
607.9783, 15983.53
608.4604, 15928.10
608.9425, 15892.79
609.4246, 15861.50
609.9067, 15836.47
610.3889, 15804.83
610.8710, 15757.46
611.3531, 15697.12
611.8352, 15637.16
612.3173, 15574.70
612.7994, 15517.97
613.2816, 15465.18
613.7637, 15413.40
614.2458, 15397.68
614.7279, 15438.52
615.2100, 15481.00
615.6921, 15471.77
616.1743, 15407.78
616.6564, 15368.50
617.1385, 15364.46
617.6206, 15379.78
618.1027, 15408.27
618.5848, 15440.26
619.0670, 15440.22
619.5491, 15365.08
620.0312, 15285.42
620.5133, 15276.06
620.9954, 15320.92
621.4775, 15365.29
621.9597, 15390.46
622.4418, 15402.50
622.9239, 15400.98
623.4060, 15384.50
623.8881, 15371.45
624.3702, 15363.92
624.8524, 15360.11
625.3345, 15360.29
625.8166, 15368.85
626.2987, 15366.53
626.7808, 15347.02
627.2629, 15327.27
627.7451, 15334.23
628.2272, 15366.78
628.7093, 15394.53
629.1914, 15410.26
629.6735, 15417.72
630.1556, 15428.51
630.6378, 15437.55
631.1199, 15426.69
631.6020, 15353.62
632.0841, 15282.11
632.5662, 15271.47
633.0483, 15317.92
633.5305, 15357.42
634.0126, 15351.22
634.4947, 15342.34
634.9768, 15358.81
635.4589, 15419.55
635.9410, 15452.27
636.4232, 15444.12
636.9053, 15421.71
637.3874, 15410.01
637.8695, 15410.89
638.3516, 15410.22
638.8337, 15405.13
639.3159, 15399.35
639.7980, 15402.05
640.2801, 15411.14
640.7622, 15413.90
641.2443, 15395.90
641.7264, 15377.76
642.2086, 15391.99
642.6907, 15430.50
643.1728, 15459.87
643.6549, 15461.55
644.1370, 15451.26
644.6191, 15432.88
645.1013, 15405.00
645.5834, 15392.25
646.0655, 15394.76
646.5476, 15416.65
647.0297, 15466.79
647.5118, 15572.57
647.9940, 15626.09
648.4761, 15609.63
648.9582, 15568.66
649.4403, 15564.28
649.9224, 15594.38
650.4045, 15617.22
650.8867, 15618.33
651.3688, 15616.75
651.8509, 15653.79
652.3330, 15714.19
652.8151, 15751.25
653.2972, 15721.42
653.7794, 15677.83
654.2615, 15658.64
654.7436, 15660.49
655.2257, 15656.52
655.7078, 15616.70
656.1899, 15588.71
656.6721, 15602.23
657.1542, 15667.36
657.6363, 15712.49
658.1184, 15734.57
658.6005, 15741.86
659.0826, 15736.26
659.5648, 15716.51
660.0469, 15704.59
660.5290, 15702.86
661.0111, 15706.79
661.4932, 15711.84
661.9753, 15718.14
662.4575, 15725.99
662.9396, 15736.92
663.4217, 15748.21
663.9038, 15759.69
664.3859, 15770.26
664.8680, 15776.74
665.3502, 15779.78
665.8323, 15777.26
666.3144, 15762.12
666.7965, 15736.52
667.2786, 15725.91
667.7607, 15729.18
668.2429, 15748.31
668.7250, 15792.88
669.2071, 15863.42
669.6892, 15890.72
670.1713, 15867.75
670.6534, 15836.60
671.1355, 15829.34
671.6176, 15843.06
672.0997, 15878.40
672.5818, 15941.75
673.0640, 15987.82
673.5461, 15953.57
674.0282, 15886.76
674.5103, 15851.35
674.9924, 15897.82
675.4745, 15936.09
675.9567, 15921.16
676.4388, 15882.34
676.9209, 15880.29
677.4030, 15958.38
677.8851, 16005.28
678.3672, 15984.19
678.8494, 15917.70
679.3315, 15901.04
679.8136, 15939.65
680.2957, 15984.05
680.7778, 16006.82
681.2599, 16015.56
681.7421, 16032.27
682.2242, 16056.03
682.7063, 16077.38
683.1884, 16091.60
683.6705, 16098.76
684.1526, 16094.17
684.6348, 16073.68
685.1169, 16067.54
685.5990, 16102.71
686.0811, 16147.48
686.5632, 16176.04
687.0453, 16180.93
687.5275, 16181.44
688.0096, 16172.03
688.4917, 16165.19
688.9738, 16180.00
689.4559, 16217.94
689.9380, 16258.35
690.4202, 16299.45
690.9023, 16335.86
691.3844, 16352.57
691.8665, 16354.76
692.3486, 16361.05
692.8307, 16389.06
693.3129, 16416.47
693.7950, 16418.82
694.2771, 16403.33
694.7592, 16401.53
695.2413, 16444.94
695.7234, 16483.79
696.2056, 16489.40
696.6877, 16461.12
697.1698, 16461.61
697.6519, 16510.72
698.1340, 16550.88
698.6161, 16535.63
699.0983, 16467.37
699.5804, 16437.23
700.0625, 16450.50
700.5446, 16476.84
701.0267, 16482.97
701.5089, 16482.81
701.9910, 16506.38
702.4731, 16567.17
702.9552, 16622.08
703.4373, 16632.71
703.9194, 16625.91
704.4016, 16634.12
704.8837, 16693.00
705.3658, 16730.64
705.8479, 16733.68
706.3300, 16713.59
706.8121, 16686.20
707.2943, 16644.17
707.7764, 16620.48
708.2585, 16625.97
708.7406, 16652.41
709.2227, 16689.25
709.7048, 16733.08
710.1870, 16754.15
710.6691, 16706.04
711.1512, 16646.71
711.6333, 16656.86
712.1154, 16723.98
712.5975, 16765.72
713.0797, 16701.69
713.5618, 16637.71
714.0439, 16635.03
714.5260, 16707.28
715.0081, 16779.26
715.4902, 16848.34
715.9724, 16916.84
716.4545, 16993.64
716.9366, 17084.16
717.4187, 17115.79
717.9008, 17077.43
718.3829, 17029.71
718.8651, 17041.28
719.3472, 17090.99
719.8293, 17128.11
720.3114, 17140.17
720.7935, 17149.66
721.2756, 17164.53
721.7578, 17190.00
722.2399, 17232.15
722.7220, 17320.92
723.2041, 17392.13
723.6862, 17423.73
724.1683, 17437.53
724.6505, 17470.12
725.1326, 17531.26
725.6147, 17579.30
726.0968, 17601.65
726.5789, 17608.03
727.0610, 17624.32
727.5432, 17648.40
728.0253, 17662.89
728.5074, 17657.07
728.9895, 17639.38
729.4716, 17615.33
729.9537, 17586.85
730.4359, 17562.20
730.9180, 17537.03
731.4001, 17523.97
731.8822, 17535.04
732.3643, 17572.25
732.8464, 17596.94
733.3285, 17610.71
733.8106, 17608.58
734.2927, 17575.75
734.7748, 17512.97
735.2570, 17509.02
735.7391, 17570.42
736.2212, 17627.88
736.7033, 17601.06
737.1854, 17534.43
737.6675, 17521.50
738.1497, 17580.01
738.6318, 17624.49
739.1139, 17572.47
739.5960, 17498.28
740.0781, 17473.63
740.5602, 17566.46
741.0424, 17604.50
741.5245, 17534.19
742.0066, 17440.83
742.4887, 17425.51
742.9708, 17504.26
743.4529, 17564.72
743.9351, 17589.02
744.4172, 17596.00
744.8993, 17606.32
745.3814, 17622.25
745.8635, 17655.48
746.3456, 17724.21
746.8278, 17786.76
747.3099, 17797.15
747.7920, 17777.91
748.2741, 17772.25
748.7562, 17812.29
749.2383, 17846.43
749.7205, 17868.92
750.2026, 17877.24
750.6847, 17860.12
751.1668, 17814.38
751.6489, 17753.30
752.1310, 17663.46
752.6132, 17571.22
753.0953, 17574.13
753.5774, 17663.29
754.0595, 17756.18
754.5416, 17801.68
755.0237, 17830.86
755.5059, 17875.62
755.9880, 17933.81
756.4701, 17987.87
756.9522, 18039.67
757.4343, 18075.88
757.9164, 18086.04
758.3986, 18069.56
758.8807, 18050.52
759.3628, 18026.82
759.8449, 18006.37
760.3270, 17999.49
760.8091, 18003.94
761.2913, 17987.92
761.7734, 17950.65
762.2555, 17925.04
762.7376, 17948.21
763.2197, 17995.09
763.7018, 18034.54
764.1840, 18061.45
764.6661, 18086.91
765.1482, 18115.60
765.6303, 18143.60
766.1124, 18166.58
766.5945, 18178.48
767.0767, 18198.98
767.5588, 18230.87
768.0409, 18264.73
768.5230, 18283.74
769.0051, 18290.19
769.4872, 18326.04
769.9694, 18403.77
770.4515, 18479.87
770.9336, 18494.51
771.4157, 18478.77
771.8978, 18485.23
772.3799, 18551.29
772.8621, 18599.74
773.3442, 18581.47
773.8263, 18536.66
774.3084, 18524.04
774.7905, 18570.12
775.2726, 18598.84
775.7548, 18596.77
776.2369, 18581.18
776.7190, 18579.84
777.2011, 18593.13
777.6832, 18624.71
778.1653, 18683.43
778.6475, 18747.58
779.1296, 18785.47
779.6117, 18808.03
780.0938, 18839.36
780.5759, 18904.19
781.0580, 18961.77
781.5402, 18981.28
782.0223, 18981.63
782.5044, 19021.93
782.9865, 19126.81
783.4686, 19218.01
783.9507, 19272.14
784.4329, 19301.56
784.9150, 19350.74
785.3971, 19417.73
785.8792, 19470.79
786.3613, 19481.36
786.8434, 19482.02
787.3256, 19501.74
787.8077, 19543.35
788.2898, 19616.89
788.7719, 19762.45
789.2540, 19905.37
789.7361, 20007.70
790.2183, 20075.96
790.7004, 20153.12
791.1825, 20238.24
791.6646, 20335.69
792.1467, 20449.70
792.6288, 20576.07
793.1110, 20693.71
793.5930, 20803.74
794.0751, 20938.56
794.5573, 21154.57
795.0394, 21381.32
795.5215, 21521.40
796.0036, 21584.27
796.4857, 21682.00
796.9678, 21896.48
797.4500, 22113.49
797.9321, 22280.20
798.4142, 22395.48
798.8963, 22531.52
799.3784, 22699.59
799.8605, 22859.69
800.3427, 22986.37
800.8248, 23086.47
801.3069, 23183.05
801.7890, 23276.57
802.2711, 23380.63
802.7532, 23516.87
803.2354, 23658.63
803.7175, 23783.52
804.1996, 23887.23
804.6817, 23996.18
805.1638, 24113.89
805.6459, 24240.78
806.1281, 24379.13
806.6102, 24530.86
807.0923, 24674.62
807.5744, 24807.64
808.0565, 24951.63
808.5386, 25137.88
809.0208, 25346.06
809.5029, 25526.24
809.9850, 25675.56
810.4671, 25800.44
810.9492, 25932.28
811.4313, 26022.64
811.9135, 26042.32
812.3956, 25994.74
812.8777, 25830.84
813.3598, 25535.95
813.8419, 25147.94
814.3240, 24668.74
814.8062, 24098.24
815.2883, 23541.47
815.7704, 23002.54
816.2525, 22497.04
816.7346, 22022.96
817.2167, 21599.86
817.6989, 21267.13
818.1810, 21037.36
818.6631, 20838.84
819.1452, 20637.29
819.6273, 20452.91
820.1094, 20306.66
820.5916, 20206.40
821.0737, 20106.92
821.5558, 20004.38
822.0379, 19912.82
822.5200, 19849.37
823.0021, 19809.92
823.4843, 19765.67
823.9664, 19713.94
824.4485, 19675.36
824.9306, 19678.60
825.4127, 19698.08
825.8948, 19708.65
826.3770, 19707.32
826.8591, 19690.35
827.3412, 19633.26
827.8233, 19578.58
828.3054, 19555.33
828.7875, 19571.64
829.2697, 19577.69
829.7518, 19572.64
830.2339, 19561.31
830.7160, 19548.23
831.1981, 19532.43
831.6802, 19507.25
832.1624, 19470.67
832.6445, 19444.97
833.1266, 19447.97
833.6087, 19465.57
834.0908, 19490.52
834.5729, 19531.83
835.0551, 19544.47
835.5372, 19503.10
836.0193, 19471.41
836.5014, 19515.52
836.9835, 19629.94
837.4656, 19676.73
837.9478, 19646.35
838.4299, 19607.12
838.9120, 19627.11
839.3941, 19667.77
839.8762, 19678.88
840.3583, 19649.75
840.8405, 19625.23
841.3226, 19620.47
841.8047, 19625.80
842.2868, 19638.44
842.7689, 19662.72
843.2510, 19664.04
843.7332, 19635.93
844.2153, 19608.41
844.6974, 19609.36
845.1795, 19629.60
845.6616, 19647.96
846.1437, 19662.88
846.6259, 19667.51
847.1080, 19645.52
847.5901, 19619.92
848.0722, 19611.45
848.5543, 19628.42
849.0364, 19625.86
849.5186, 19594.65
850.0007, 19557.41
850.4828, 19525.55
850.9649, 19499.36
851.4470, 19478.74
851.9291, 19464.06
852.4113, 19458.65
852.8934, 19478.17
853.3755, 19500.57
853.8576, 19493.59
854.3397, 19456.37
854.8218, 19436.38
855.3040, 19461.83
855.7860, 19496.98
856.2681, 19527.08
856.7502, 19551.88
857.2324, 19569.44
857.7145, 19579.30
858.1966, 19581.95
858.6787, 19567.80
859.1608, 19549.03
859.6429, 19554.21
860.1251, 19581.03
860.6072, 19613.66
861.0893, 19651.18
861.5714, 19684.33
862.0535, 19704.73
862.5356, 19712.64
863.0178, 19732.26
863.4999, 19778.28
863.9820, 19802.79
864.4641, 19775.95
864.9462, 19716.20
865.4283, 19692.76
865.9105, 19702.71
866.3926, 19723.68
866.8747, 19761.81
867.3568, 19790.39
867.8389, 19772.37
868.3210, 19722.89
868.8032, 19697.09
869.2853, 19733.46
869.7674, 19765.11
870.2495, 19772.83
870.7316, 19768.09
871.2137, 19795.37
871.6959, 19855.52
872.1780, 19901.03
872.6601, 19908.93
873.1422, 19899.57
873.6243, 19886.04
874.1064, 19876.93
874.5886, 19892.70
875.0707, 19978.80
875.5528, 20046.85
876.0349, 20050.58
876.5170, 20025.65
876.9991, 20041.77
877.4813, 20114.88
877.9634, 20150.07
878.4455, 20115.33
878.9276, 20061.61
879.4097, 20078.65
879.8918, 20142.27
880.3740, 20194.87
880.8561, 20221.30
881.3382, 20228.02
881.8203, 20196.20
882.3024, 20155.78
882.7845, 20150.02
883.2667, 20200.67
883.7488, 20238.37
884.2309, 20256.83
884.7130, 20265.10
885.1951, 20269.71
885.6772, 20273.27
886.1594, 20290.98
886.6415, 20328.95
887.1236, 20359.64
887.6057, 20348.87
888.0878, 20327.47
888.5699, 20329.61
889.0521, 20380.44
889.5342, 20402.26
890.0163, 20375.71
890.4984, 20344.91
890.9805, 20346.08
891.4626, 20376.92
891.9448, 20403.54
892.4269, 20423.88
892.9090, 20445.07
893.3911, 20473.29
893.8732, 20504.20
894.3553, 20542.14
894.8375, 20589.38
895.3196, 20597.86
895.8017, 20498.36
896.2838, 20422.72
896.7659, 20443.63
897.2480, 20552.26
897.7302, 20578.85
898.2123, 20521.27
898.6944, 20450.66
899.1765, 20395.71
899.6586, 20364.89
900.1407, 20392.06
900.6229, 20461.92
901.1050, 20498.84
901.5871, 20425.50
902.0692, 20371.74
902.5513, 20394.22
903.0334, 20467.85
903.5156, 20488.22
903.9977, 20447.52
904.4798, 20420.73
904.9619, 20441.42
905.4440, 20480.40
905.9261, 20494.37
906.4083, 20489.30
906.8904, 20479.72
907.3725, 20456.24
907.8546, 20446.61
908.3367, 20472.78
908.8188, 20513.56
909.3010, 20534.36
909.7831, 20530.18
910.2652, 20529.74
910.7473, 20537.83
911.2294, 20549.34
911.7115, 20561.60
912.1937, 20571.31
912.6758, 20569.13
913.1579, 20547.39
913.6400, 20530.67
914.1221, 20533.39
914.6042, 20544.44
915.0864, 20554.52
915.5685, 20565.62
916.0506, 20567.42
916.5327, 20557.53
917.0148, 20547.40
917.4969, 20552.72
917.9790, 20565.05
918.4611, 20560.27
918.9432, 20537.30
919.4254, 20517.66
919.9075, 20510.92
920.3896, 20514.61
920.8717, 20534.12
921.3538, 20569.38
921.8359, 20578.81
922.3181, 20551.22
922.8002, 20530.91
923.2823, 20539.70
923.7644, 20571.05
924.2465, 20609.42
924.7286, 20653.91
925.2108, 20701.62
925.6929, 20768.99
926.1750, 20820.53
926.6571, 20831.04
927.1392, 20809.98
927.6213, 20791.63
928.1035, 20774.45
928.5856, 20768.52
929.0677, 20779.28
929.5498, 20798.04
930.0319, 20795.89
930.5140, 20788.08
930.9962, 20829.44
931.4783, 20975.45
931.9604, 21089.94
932.4425, 21084.00
932.9246, 21010.67
933.4067, 20928.44
933.8889, 20816.91
934.3710, 20761.84
934.8531, 20778.49
935.3352, 20817.72
935.8173, 20828.45
936.2994, 20820.22
936.7816, 20821.51
937.2637, 20835.46
937.7458, 20845.71
938.2279, 20824.01
938.7100, 20808.74
939.1921, 20830.60
939.6743, 20891.99
940.1564, 20964.90
940.6385, 21062.39
941.1206, 21130.60
941.6027, 21132.23
942.0848, 21087.57
942.5670, 21040.80
943.0491, 20996.80
943.5312, 20974.56
944.0133, 20988.02
944.4954, 21022.45
944.9775, 21093.78
945.4597, 21180.05
945.9418, 21211.85
946.4239, 21168.65
946.9060, 21135.96
947.3881, 21130.95
947.8702, 21145.05
948.3524, 21170.16
948.8345, 21202.80
949.3166, 21232.78
949.7987, 21252.26
950.2808, 21281.97
950.7629, 21350.78
951.2451, 21422.45
951.7272, 21456.27
952.2093, 21428.00
952.6914, 21446.02
953.1735, 21519.84
953.6556, 21602.78
954.1378, 21650.78
954.6199, 21676.81
955.1020, 21699.65
955.5841, 21721.67
956.0662, 21759.81
956.5483, 21852.59
957.0305, 21933.78
957.5126, 21958.58
957.9947, 21937.33
958.4768, 21959.50
958.9589, 22030.94
959.4410, 22100.49
959.9232, 22138.50
960.4053, 22169.61
960.8874, 22242.27
961.3695, 22340.11
961.8516, 22421.45
962.3337, 22475.84
962.8159, 22502.61
963.2980, 22471.17
963.7801, 22431.21
964.2622, 22464.60
964.7443, 22580.00
965.2264, 22654.50
965.7086, 22670.31
966.1907, 22650.12
966.6728, 22588.24
967.1549, 22519.06
967.6370, 22497.29
968.1191, 22546.51
968.6013, 22565.30
969.0834, 22511.62
969.5655, 22447.43
970.0476, 22402.64
970.5297, 22376.37
971.0118, 22344.43
971.4940, 22307.63
971.9761, 22288.02
972.4582, 22318.57
972.9403, 22356.90
973.4224, 22367.41
973.9045, 22353.30
974.3867, 22329.70
974.8688, 22274.58
975.3509, 22251.07
975.8330, 22278.44
976.3151, 22333.70
976.7972, 22372.67
977.2794, 22397.30
977.7615, 22422.24
978.2436, 22454.74
978.7257, 22475.28
979.2078, 22448.07
979.6899, 22412.50
980.1720, 22413.67
980.6541, 22471.42
981.1362, 22519.51
981.6183, 22556.65
982.1005, 22587.92
982.5826, 22626.25
983.0647, 22661.03
983.5468, 22650.00
984.0289, 22597.36
984.5110, 22554.66
984.9932, 22567.87
985.4753, 22581.09
985.9574, 22556.70
986.4395, 22507.55
986.9216, 22485.69
987.4037, 22496.71
987.8859, 22502.93
988.3680, 22489.93
988.8501, 22472.38
989.3322, 22472.69
989.8143, 22484.61
990.2964, 22496.72
990.7786, 22507.52
991.2607, 22514.67
991.7428, 22527.63
992.2249, 22527.97
992.7070, 22494.30
993.1891, 22424.56
993.6713, 22361.22
994.1534, 22304.72
994.6355, 22271.03
995.1176, 22303.08
995.5997, 22343.67
996.0818, 22324.83
996.5640, 22247.53
997.0461, 22197.02
997.5282, 22217.15
998.0103, 22208.19
998.4924, 22121.67
998.9745, 22000.10
999.4567, 21983.48
999.9388, 22045.28
1000.421, 22061.17
1000.903, 21971.61
1001.385, 21850.69
1001.867, 21746.98
1002.349, 21639.75
1002.831, 21492.70
1003.314, 21248.11
1003.796, 21137.46
1004.278, 21196.11
1004.760, 21279.00
1005.242, 21242.89
1005.724, 21136.52
1006.206, 21048.96
1006.688, 20988.10
1007.171, 20944.45
1007.653, 20932.31
1008.135, 20916.63
1008.617, 20875.93
1009.099, 20820.27
1009.581, 20796.03
1010.063, 20804.01
1010.545, 20811.80
1011.027, 20810.15
1011.510, 20799.57
1011.992, 20765.05
1012.474, 20726.80
1012.956, 20716.82
1013.438, 20773.22
1013.920, 20807.36
1014.402, 20811.45
1014.884, 20798.84
1015.367, 20775.77
1015.849, 20745.41
1016.331, 20726.10
1016.813, 20718.29
1017.295, 20709.28
1017.777, 20674.34
1018.259, 20651.09
1018.741, 20675.96
1019.223, 20738.54
1019.706, 20773.35
1020.188, 20777.04
1020.670, 20762.49
1021.152, 20723.26
1021.634, 20686.68
1022.116, 20705.40
1022.598, 20757.71
1023.080, 20801.59
1023.563, 20818.66
1024.045, 20839.39
1024.527, 20880.36
1025.009, 20918.05
1025.491, 20934.80
1025.973, 20930.41
1026.455, 20910.52
1026.937, 20875.16
1027.419, 20840.53
1027.901, 20812.45
1028.384, 20795.37
1028.866, 20797.70
1029.348, 20816.38
1029.830, 20834.59
1030.312, 20852.62
1030.794, 20870.42
1031.276, 20894.76
1031.758, 20908.34
1032.241, 20858.77
1032.723, 20776.98
1033.205, 20743.32
1033.687, 20792.80
1034.169, 20836.13
1034.651, 20819.27
1035.133, 20793.43
1035.615, 20795.67
1036.098, 20827.16
1036.580, 20846.58
1037.062, 20852.95
1037.544, 20858.42
1038.026, 20867.17
1038.508, 20880.56
1038.990, 20913.65
1039.472, 20952.95
1039.954, 20957.22
1040.437, 20890.32
1040.919, 20836.66
1041.401, 20804.64
1041.883, 20792.99
1042.365, 20809.27
1042.847, 20844.47
1043.329, 20872.58
1043.811, 20891.26
1044.293, 20889.45
1044.776, 20835.79
1045.258, 20783.05
1045.740, 20767.48
1046.222, 20786.58
1046.704, 20796.85
1047.186, 20796.58
1047.668, 20728.66
1048.150, 20850.92
1048.633, 20928.80
1049.115, 20964.60
1049.597, 20832.49
1050.079, 20917.21
1050.561, 20915.04
1051.043, 20909.29
1051.525, 21024.54
1052.007, 20916.84
1052.490, 21030.21
1052.972, 21055.31
1053.454, 21120.79
1053.936, 21093.96
1054.418, 21119.02
1054.900, 21116.97
1055.382, 21117.71
1055.864, 21140.33
1056.346, 21177.53
1056.828, 21207.92
1057.311, 21232.05
1057.793, 21234.53
1058.275, 21202.86
1058.757, 21169.47
1059.239, 21183.01
1059.721, 21212.68
1060.203, 21215.43
1060.685, 21166.99
1061.168, 21138.55
1061.650, 21136.37
1062.132, 21149.49
1062.614, 21187.86
1063.096, 21233.72
1063.578, 21209.17
1064.060, 21130.03
1064.542, 21069.83
1065.025, 21077.38
1065.507, 21097.34
1065.989, 21119.49
1066.471, 21134.69
1066.953, 21122.05
1067.435, 21079.30
1067.917, 21057.82
1068.399, 21065.57
1068.881, 21083.72
1069.364, 21100.14
1069.846, 21114.42
1070.328, 21125.45
1070.810, 21132.80
1071.292, 21139.43
1071.774, 21142.15
1072.256, 21152.21
1072.738, 21178.07
1073.220, 21207.63
1073.703, 21219.26
1074.185, 21213.54
1074.667, 21189.27
1075.149, 21123.81
1075.631, 21081.50
1076.113, 21084.54
1076.595, 21113.16
1077.077, 21168.45
1077.559, 21248.50
1078.042, 21261.80
1078.524, 21211.40
1079.006, 21160.95
1079.488, 21145.54
1079.970, 21153.14
1080.452, 21191.52
1080.934, 21246.43
1081.416, 21270.67
1081.899, 21252.92
1082.381, 21253.80
1082.863, 21288.14
1083.345, 21323.40
1083.827, 21299.78
1084.309, 21261.81
1084.791, 21278.97
1085.273, 21368.04
1085.755, 21439.40
1086.238, 21481.79
1086.720, 21497.15
1087.202, 21477.42
1087.684, 21436.93
1088.166, 21418.15
1088.648, 21416.61
1089.130, 21413.14
1089.612, 21391.16
1090.094, 21383.20
1090.577, 21432.06
1091.059, 21481.85
1091.541, 21473.35
1092.023, 21399.04
1092.505, 21351.35
1092.987, 21331.43
1093.469, 21345.76
1093.951, 21441.92
1094.434, 21536.61
1094.916, 21543.66
1095.398, 21487.60
1095.880, 21465.08
1096.362, 21487.82
1096.844, 21527.61
1097.326, 21589.54
1097.808, 21637.88
1098.291, 21605.71
1098.773, 21538.25
1099.255, 21512.59
1099.737, 21540.34
1100.219, 21576.79
1100.701, 21625.11
1101.183, 21661.62
1101.665, 21678.85
1102.147, 21678.46
1102.630, 21647.91
1103.112, 21601.35
1103.594, 21596.92
1104.076, 21681.38
1104.558, 21752.69
1105.040, 21744.78
1105.522, 21712.13
1106.004, 21702.39
1106.486, 21717.45
1106.969, 21718.70
1107.451, 21706.18
1107.933, 21697.71
1108.415, 21721.11
1108.897, 21739.03
1109.379, 21707.15
1109.861, 21648.45
1110.343, 21620.34
1110.826, 21630.98
1111.308, 21657.29
1111.790, 21701.19
1112.272, 21744.61
1112.754, 21776.09
1113.236, 21791.36
1113.718, 21776.17
1114.200, 21731.50
1114.682, 21698.73
1115.165, 21690.89
1115.647, 21685.95
1116.129, 21675.82
1116.611, 21667.78
1117.093, 21684.72
1117.575, 21715.42
1118.057, 21725.59
1118.539, 21698.53
1119.021, 21684.94
1119.504, 21748.75
1119.986, 21788.43
1120.468, 21734.39
1120.950, 21601.98
1121.432, 21514.88
1121.914, 21473.47
1122.396, 21474.50
1122.878, 21555.55
1123.361, 21627.57
1123.843, 21624.13
1124.325, 21584.99
1124.807, 21570.68
1125.289, 21595.03
1125.771, 21554.14
1126.253, 21437.75
1126.735, 21352.45
1127.218, 21433.71
1127.700, 21543.73
1128.182, 21535.02
1128.664, 21433.04
1129.146, 21360.02
1129.628, 21331.94
1130.110, 21313.09
1130.592, 21299.59
1131.074, 21288.33
1131.557, 21273.41
1132.039, 21259.11
1132.521, 21259.32
1133.003, 21275.79
1133.485, 21268.42
1133.967, 21208.54
1134.449, 21160.95
1134.931, 21151.31
1135.413, 21159.22
1135.896, 21133.09
1136.378, 21087.12
1136.860, 21058.20
1137.342, 21059.99
1137.824, 21068.04
1138.306, 21075.61
1138.788, 21084.83
1139.270, 21100.32
1139.752, 21118.24
1140.235, 21106.25
1140.717, 21070.58
1141.199, 21052.07
1141.681, 21085.46
1142.163, 21119.72
1142.645, 21138.41
1143.127, 21136.40
1143.609, 21100.49
1144.092, 21023.96
1144.574, 21000.03
1145.056, 21031.57
1145.538, 21061.87
1146.020, 21047.40
1146.502, 21020.08
1146.984, 20998.17
1147.466, 20985.06
1147.948, 20987.92
1148.431, 21013.99
1148.913, 21018.73
1149.395, 20991.88
1149.877, 20970.62
1150.359, 20990.82
1150.841, 21036.97
1151.323, 21108.27
1151.805, 21198.58
1152.287, 21238.36
1152.770, 21205.18
1153.252, 21176.27
1153.734, 21170.08
1154.216, 21177.81
1154.698, 21188.04
1155.180, 21202.46
1155.662, 21229.24
1156.144, 21276.51
1156.627, 21295.31
1157.109, 21275.85
1157.591, 21241.02
1158.073, 21192.49
1158.555, 21144.24
1159.037, 21137.42
1159.519, 21154.79
1160.001, 21151.58
1160.484, 21091.02
1160.966, 21060.81
1161.448, 21101.83
1161.930, 21142.91
1162.412, 21128.41
1162.894, 21073.33
1163.376, 21058.31
1163.858, 21072.14
1164.340, 20873.78
1164.823, 20973.93
1165.305, 21029.68
1165.787, 21043.39
1166.269, 20889.18
1166.751, 20951.80
1167.233, 20927.53
1167.715, 20899.69
1168.197, 20992.83
1168.679, 20863.04
1169.162, 20954.27
1169.644, 20957.27
1170.126, 21000.65
1170.608, 20956.59
1171.090, 20939.54
1171.572, 21009.95
1172.054, 21031.93
1172.536, 21070.62
1173.019, 21089.31
1173.501, 21080.18
1173.983, 21078.10
1174.465, 21121.43
1174.947, 21192.96
1175.429, 21223.96
1175.911, 21211.86
1176.393, 21226.79
1176.875, 21290.67
1177.358, 21362.68
1177.840, 21416.64
1178.322, 21452.62
1178.804, 21463.25
1179.286, 21450.19
1179.768, 21448.95
1180.250, 21461.15
1180.732, 21468.09
1181.214, 21460.89
1181.697, 21449.05
1182.179, 21448.48
1182.661, 21445.86
1183.143, 21420.18
1183.625, 21362.40
1184.107, 21321.80
1184.589, 21301.33
1185.071, 21276.83
1185.554, 21221.36
1186.036, 21170.13
1186.518, 21184.95
1187.000, 21231.13
1187.482, 21242.91
1187.964, 21183.76
1188.446, 21162.07
1188.928, 21189.26
1189.411, 21206.15
1189.893, 21148.58
1190.375, 21067.37
1190.857, 21039.03
1191.339, 21046.84
1191.821, 21041.01
1192.303, 21005.98
1192.785, 20969.83
1193.267, 20931.70
1193.750, 20901.17
1194.232, 20891.67
1194.714, 20893.27
1195.196, 20895.39
1195.678, 20895.43
1196.160, 20883.49
1196.642, 20844.71
1197.124, 20822.17
1197.606, 20827.83
1198.089, 20834.95
1198.571, 20793.59
1199.053, 20738.68
1199.535, 20742.69
1200.017, 20807.34
1200.499, 20826.31
1200.981, 20748.50
1201.463, 20688.16
1201.945, 20677.30
1202.428, 20686.18
1202.910, 20674.71
1203.392, 20648.45
1203.874, 20607.41
1204.356, 20547.01
1204.838, 20533.00
1205.320, 20610.41
1205.802, 20663.09
1206.285, 20643.31
1206.767, 20590.84
1207.249, 20584.29
1207.731, 20601.58
1208.213, 20595.08
1208.695, 20542.73
1209.177, 20520.71
1209.659, 20554.57
1210.141, 20588.39
1210.624, 20600.98
1211.106, 20592.15
1211.588, 20540.49
1212.070, 20470.76
1212.552, 20441.61
1213.034, 20502.06
1213.516, 20517.94
1213.998, 20449.66
1214.480, 20388.85
1214.963, 20407.26
1215.445, 20461.11
1215.927, 20428.99
1216.409, 20341.99
1216.891, 20278.68
1217.373, 20285.33
1217.855, 20282.30
1218.337, 20251.78
1218.820, 20233.21
1219.302, 20267.96
1219.784, 20333.61
1220.266, 20382.08
1220.748, 20412.03
1221.230, 20417.49
1221.712, 20362.24
1222.194, 20334.21
1222.677, 20344.36
1223.159, 20373.28
1223.641, 20419.49
1224.123, 20464.12
1224.605, 20453.93
1225.087, 20402.55
1225.569, 20370.86
1226.051, 20394.06
1226.533, 20418.25
1227.016, 20439.54
1227.498, 20457.07
1227.980, 20463.56
1228.462, 20468.63
1228.944, 20498.53
1229.426, 20548.13
1229.908, 20577.71
1230.390, 20569.45
1230.872, 20549.28
1231.355, 20513.35
1231.837, 20485.97
1232.319, 20514.15
1232.801, 20563.96
1233.283, 20572.84
1233.765, 20540.55
1234.247, 20523.63
1234.729, 20537.94
1235.212, 20556.47
1235.694, 20576.64
1236.176, 20591.72
1236.658, 20592.83
1237.140, 20582.31
1237.622, 20553.41
1238.104, 20507.31
1238.586, 20501.82
1239.068, 20563.96
1239.551, 20600.10
1240.033, 20584.80
1240.515, 20542.74
1240.997, 20497.08
1241.479, 20451.41
1241.961, 20408.46
1242.443, 20369.40
1242.925, 20345.49
1243.407, 20344.33
1243.890, 20328.72
1244.372, 20279.54
1244.854, 20232.70
1245.336, 20252.13
1245.818, 20292.05
1246.300, 20290.04
1246.782, 20231.20
1247.264, 20212.48
1247.747, 20244.45
1248.229, 20251.00
1248.711, 20196.53
1249.193, 20127.11
1249.675, 20095.88
1250.157, 20077.83
1250.639, 20034.56
1251.121, 19961.33
1251.604, 19954.48
1252.086, 20023.71
1252.568, 20055.44
1253.050, 19987.39
1253.532, 19905.11
1254.014, 19890.36
1254.496, 19905.65
1254.978, 19912.65
1255.460, 19909.45
1255.943, 19889.50
1256.425, 19852.16
1256.907, 19821.67
1257.389, 19801.69
1257.871, 19802.14
1258.353, 19881.22
1258.835, 19943.26
1259.317, 19878.73
1259.799, 19688.70
1260.281, 19602.62
1260.764, 19611.16
1261.246, 19617.41
1261.728, 19564.28
1262.210, 19520.01
1262.692, 19554.21
1263.174, 19586.53
1263.656, 19540.22
1264.138, 19426.41
1264.621, 19359.03
1265.103, 19335.27
1265.585, 19338.31
1266.067, 19385.06
1266.549, 19420.49
1267.031, 19411.50
1267.513, 19397.67
1267.995, 19412.45
1268.478, 19446.63
1268.960, 19452.58
1269.442, 19435.18
1269.924, 19416.23
1270.406, 19378.69
1270.888, 19381.45
1271.370, 19449.35
1271.852, 19523.84
1272.334, 19551.33
1272.817, 19549.65
1273.299, 19571.56
1273.781, 19610.07
1274.263, 19643.83
1274.745, 19648.02
1275.227, 19677.42
1275.709, 19741.22
1276.191, 19816.35
1276.673, 19877.69
1277.156, 19943.15
1277.638, 20092.93
1278.120, 20269.58
1278.602, 20316.82
1279.084, 20153.69
1279.566, 19969.22
1280.048, 19758.73
1280.530, 19572.03
1281.013, 19448.97
1281.495, 19367.81
1281.977, 19305.34
1282.459, 19262.70
1282.941, 19248.23
1283.423, 19269.84
1283.905, 19277.19
1284.387, 19267.32
1284.870, 19252.12
1285.352, 19232.31
1285.834, 19218.79
1286.316, 19229.09
1286.798, 19247.01
1287.280, 19243.47
1287.762, 19217.47
1288.244, 19185.56
1288.726, 19149.81
1289.208, 19129.29
1289.691, 19159.14
1290.173, 19182.45
1290.655, 19155.00
1291.137, 19117.52
1291.619, 19122.68
1292.101, 19161.26
1292.583, 19164.26
1293.065, 19139.22
##END=



