##NAMES=Meliphanite
##RRUFFID=R060786
##IDEAL CHEMISTRY=Ca_4_(Na,Ca)_4_Be_4_AlSi_7_O_24_(F,O)_4_
##LOCALITY=Brevig, Norway
##OWNER=RRUFF
##SOURCE=Michael Scott
##DESCRIPTION=Greenish-yellow tabular crystal
##STATUS=The identification of this mineral has been confirmed by X-ray diffraction.
##URL=rruff.info/R060786
153.8248, 3914.679
154.3069, 3924.493
154.7890, 3928.576
155.2712, 3936.906
155.7533, 3953.500
156.2354, 3977.423
156.7175, 3999.256
157.1996, 4015.216
157.6817, 4029.520
158.1639, 4045.477
158.6460, 4065.317
159.1281, 4085.247
159.6102, 4103.890
160.0923, 4120.954
160.5744, 4137.410
161.0566, 4151.890
161.5387, 4165.998
162.0208, 4181.662
162.5029, 4199.654
162.9850, 4218.927
163.4671, 4238.305
163.9493, 4256.776
164.4314, 4278.507
164.9135, 4317.197
165.3956, 4359.863
165.8777, 4383.739
166.3598, 4357.100
166.8420, 4320.506
167.3241, 4306.206
167.8062, 4326.289
168.2883, 4352.289
168.7704, 4364.747
169.2525, 4368.232
169.7346, 4375.440
170.2168, 4402.399
170.6989, 4433.337
171.1810, 4450.318
171.6631, 4443.203
172.1452, 4430.204
172.6273, 4425.487
173.1095, 4428.418
173.5916, 4435.292
174.0737, 4450.451
174.5558, 4466.836
175.0379, 4472.441
175.5201, 4456.019
176.0022, 4433.266
176.4843, 4419.655
176.9664, 4415.300
177.4485, 4423.380
177.9306, 4461.109
178.4128, 4514.108
178.8949, 4549.918
179.3770, 4544.165
179.8591, 4517.807
180.3412, 4505.587
180.8233, 4507.899
181.3055, 4518.003
181.7876, 4532.427
182.2697, 4549.798
182.7518, 4565.495
183.2339, 4579.612
183.7160, 4590.382
184.1981, 4589.366
184.6803, 4573.636
185.1624, 4558.084
185.6445, 4570.899
186.1266, 4607.091
186.6087, 4628.843
187.0908, 4599.227
187.5730, 4533.984
188.0551, 4501.922
188.5372, 4511.933
189.0193, 4546.142
189.5014, 4581.134
189.9835, 4617.130
190.4657, 4647.257
190.9478, 4666.184
191.4299, 4674.982
191.9120, 4680.996
192.3941, 4685.389
192.8762, 4687.042
193.3584, 4680.494
193.8405, 4664.856
194.3226, 4652.417
194.8047, 4652.286
195.2868, 4664.336
195.7689, 4682.768
196.2511, 4710.989
196.7332, 4743.135
197.2153, 4756.895
197.6974, 4749.432
198.1795, 4738.874
198.6616, 4741.804
199.1437, 4759.512
199.6259, 4772.987
200.1080, 4777.489
200.5901, 4774.828
201.0722, 4773.866
201.5543, 4774.152
202.0364, 4777.226
202.5186, 4785.012
203.0007, 4797.886
203.4828, 4812.337
203.9649, 4827.907
204.4470, 4844.400
204.9291, 4860.131
205.4113, 4875.681
205.8934, 4889.005
206.3755, 4896.067
206.8576, 4894.408
207.3397, 4897.042
207.8218, 4912.836
208.3040, 4942.875
208.7861, 4946.234
209.2682, 4913.056
209.7503, 4867.668
210.2324, 4842.686
210.7145, 4841.919
211.1967, 4851.481
211.6788, 4873.681
212.1609, 4913.632
212.6430, 4924.220
213.1251, 4895.374
213.6072, 4847.619
214.0894, 4811.924
214.5715, 4789.699
215.0536, 4776.146
215.5357, 4772.575
216.0178, 4783.447
216.4999, 4782.690
216.9820, 4765.395
217.4642, 4739.508
217.9463, 4718.857
218.4284, 4701.355
218.9105, 4693.272
219.3926, 4699.195
219.8747, 4725.000
220.3569, 4747.333
220.8390, 4769.350
221.3211, 4786.447
221.8032, 4787.105
222.2853, 4764.289
222.7674, 4737.679
223.2496, 4715.186
223.7317, 4694.400
224.2138, 4683.757
224.6959, 4683.519
225.1780, 4693.557
225.6601, 4716.600
226.1423, 4765.090
226.6244, 4807.076
227.1065, 4822.508
227.5886, 4792.006
228.0707, 4780.583
228.5528, 4800.195
229.0350, 4840.583
229.5171, 4860.906
229.9992, 4849.755
230.4813, 4834.714
230.9634, 4831.172
231.4455, 4843.504
231.9276, 4858.573
232.4098, 4879.074
232.8919, 4902.473
233.3740, 4912.891
233.8561, 4900.619
234.3382, 4888.329
234.8203, 4891.589
235.3025, 4923.977
235.7846, 4943.862
236.2667, 4942.214
236.7488, 4923.376
237.2309, 4917.042
237.7130, 4929.119
238.1952, 4946.640
238.6773, 4960.903
239.1594, 4968.556
239.6415, 4980.050
240.1236, 4998.935
240.6057, 5023.778
241.0879, 5042.074
241.5700, 5049.057
242.0521, 5054.907
242.5342, 5066.959
243.0163, 5088.441
243.4984, 5109.801
243.9806, 5130.906
244.4627, 5151.325
244.9448, 5165.671
245.4269, 5165.714
245.9090, 5168.653
246.3911, 5189.494
246.8732, 5242.292
247.3554, 5284.217
247.8375, 5307.861
248.3196, 5314.183
248.8017, 5317.007
249.2838, 5311.610
249.7659, 5308.260
250.2481, 5315.563
250.7302, 5338.063
251.2123, 5362.808
251.6944, 5392.646
252.1765, 5426.246
252.6586, 5440.981
253.1408, 5426.891
253.6229, 5406.648
254.1050, 5398.546
254.5871, 5406.836
255.0692, 5418.582
255.5513, 5433.888
256.0334, 5452.179
256.5156, 5465.536
256.9977, 5475.280
257.4798, 5478.265
257.9619, 5470.199
258.4440, 5444.900
258.9261, 5422.606
259.4083, 5404.786
259.8904, 5391.554
260.3725, 5388.871
260.8546, 5401.167
261.3367, 5417.396
261.8188, 5428.162
262.3010, 5432.301
262.7831, 5434.141
263.2652, 5435.234
263.7473, 5435.091
264.2294, 5426.895
264.7115, 5406.979
265.1937, 5384.926
265.6758, 5368.681
266.1579, 5358.460
266.6400, 5354.434
267.1221, 5358.892
267.6042, 5370.681
268.0864, 5378.369
268.5685, 5382.838
269.0506, 5381.952
269.5327, 5371.153
270.0148, 5346.366
270.4969, 5329.294
270.9791, 5325.153
271.4612, 5332.281
271.9433, 5341.604
272.4254, 5356.967
272.9075, 5365.631
273.3896, 5349.336
273.8718, 5300.699
274.3539, 5273.442
274.8360, 5285.368
275.3181, 5326.115
275.8002, 5336.789
276.2823, 5308.463
276.7645, 5277.291
277.2466, 5277.093
277.7287, 5312.376
278.2108, 5340.501
278.6929, 5354.551
279.1750, 5356.058
279.6572, 5346.982
280.1393, 5323.812
280.6214, 5304.990
281.1035, 5310.475
281.5856, 5341.141
282.0677, 5361.062
282.5499, 5359.372
283.0320, 5345.584
283.5141, 5353.427
283.9962, 5386.361
284.4783, 5417.375
284.9604, 5423.738
285.4425, 5406.393
285.9247, 5385.035
286.4068, 5359.127
286.8889, 5335.002
287.3710, 5331.436
287.8531, 5349.357
288.3352, 5370.563
288.8174, 5383.728
289.2995, 5389.160
289.7816, 5387.837
290.2637, 5377.752
290.7458, 5364.000
291.2279, 5356.927
291.7101, 5356.335
292.1922, 5356.621
292.6743, 5351.874
293.1564, 5344.317
293.6385, 5342.798
294.1206, 5349.548
294.6028, 5361.110
295.0849, 5378.409
295.5670, 5399.672
296.0491, 5409.023
296.5312, 5381.064
297.0133, 5333.811
297.4955, 5314.876
297.9776, 5336.492
298.4597, 5372.961
298.9418, 5394.863
299.4239, 5403.915
299.9060, 5406.759
300.3882, 5403.734
300.8703, 5397.673
301.3524, 5392.464
301.8345, 5387.438
302.3166, 5386.530
302.7987, 5395.039
303.2809, 5411.036
303.7630, 5429.483
304.2451, 5445.165
304.7272, 5462.340
305.2093, 5489.061
305.6914, 5528.768
306.1736, 5564.530
306.6557, 5585.539
307.1378, 5592.538
307.6199, 5587.595
308.1020, 5553.635
308.5841, 5518.703
309.0663, 5513.710
309.5484, 5543.983
310.0305, 5575.084
310.5126, 5580.116
310.9947, 5571.620
311.4768, 5568.864
311.9590, 5586.478
312.4411, 5607.867
312.9232, 5624.547
313.4053, 5636.284
313.8874, 5638.022
314.3695, 5607.626
314.8516, 5571.945
315.3337, 5562.802
315.8159, 5627.965
316.2980, 5690.182
316.7801, 5705.945
317.2622, 5675.248
317.7443, 5653.224
318.2264, 5670.633
318.7086, 5702.567
319.1907, 5727.161
319.6728, 5738.128
320.1549, 5741.713
320.6370, 5729.688
321.1191, 5705.339
321.6013, 5702.262
322.0834, 5749.106
322.5655, 5808.021
323.0476, 5853.679
323.5297, 5871.051
324.0118, 5886.665
324.4940, 5908.402
324.9761, 5933.352
325.4582, 5945.886
325.9403, 5924.188
326.4224, 5903.956
326.9045, 5902.767
327.3867, 5940.705
327.8688, 5973.433
328.3509, 5995.971
328.8330, 6012.044
329.3151, 6033.878
329.7972, 6068.461
330.2794, 6102.108
330.7615, 6129.327
331.2436, 6145.142
331.7257, 6164.816
332.2078, 6190.636
332.6899, 6219.790
333.1721, 6245.866
333.6542, 6263.488
334.1363, 6286.304
334.6184, 6321.520
335.1005, 6373.739
335.5826, 6416.404
336.0648, 6444.583
336.5469, 6467.825
337.0290, 6501.399
337.5111, 6549.042
337.9932, 6596.473
338.4753, 6635.306
338.9575, 6664.992
339.4396, 6717.696
339.9217, 6800.032
340.4038, 6892.007
340.8859, 6972.371
341.3680, 7038.999
341.8502, 7105.858
342.3323, 7175.337
342.8144, 7247.662
343.2965, 7317.869
343.7786, 7385.947
344.2607, 7456.142
344.7429, 7537.795
345.2250, 7629.360
345.7071, 7710.170
346.1892, 7772.313
346.6713, 7825.370
347.1534, 7903.016
347.6355, 8004.536
348.1176, 8090.321
348.5998, 8119.232
349.0819, 8107.282
349.5640, 8110.324
350.0461, 8145.454
350.5282, 8181.577
351.0103, 8170.805
351.4925, 8120.526
351.9746, 8065.122
352.4567, 8028.230
352.9388, 7998.985
353.4209, 7963.541
353.9030, 7922.339
354.3852, 7866.387
354.8673, 7773.401
355.3494, 7658.971
355.8315, 7557.930
356.3136, 7501.755
356.7957, 7457.953
357.2779, 7394.792
357.7600, 7307.782
358.2421, 7227.862
358.7242, 7176.662
359.2063, 7142.667
359.6884, 7110.580
360.1706, 7073.510
360.6527, 7037.846
361.1348, 7005.010
361.6169, 6975.083
362.0990, 6952.664
362.5811, 6941.652
363.0633, 6937.299
363.5454, 6935.692
364.0275, 6934.412
364.5096, 6937.152
364.9917, 6946.540
365.4738, 6961.416
365.9560, 6975.738
366.4381, 6988.410
366.9202, 7000.249
367.4023, 7011.125
367.8844, 7005.645
368.3665, 7020.970
368.8487, 7075.391
369.3308, 7152.056
369.8129, 7209.123
370.2950, 7227.623
370.7771, 7247.616
371.2592, 7283.742
371.7414, 7341.540
372.2235, 7397.416
372.7056, 7455.227
373.1877, 7508.423
373.6698, 7544.933
374.1519, 7556.317
374.6341, 7569.846
375.1162, 7595.427
375.5983, 7633.246
376.0804, 7655.345
376.5625, 7656.421
377.0446, 7651.829
377.5267, 7659.540
378.0089, 7682.270
378.4910, 7696.296
378.9731, 7696.460
379.4552, 7684.796
379.9373, 7665.803
380.4194, 7638.600
380.9016, 7612.102
381.3837, 7596.719
381.8658, 7589.918
382.3479, 7572.034
382.8300, 7537.713
383.3121, 7497.036
383.7943, 7464.797
384.2764, 7440.815
384.7585, 7423.184
385.2406, 7418.394
385.7227, 7417.617
386.2048, 7401.981
386.6870, 7368.241
387.1691, 7330.399
387.6512, 7301.354
388.1333, 7278.492
388.6154, 7256.129
389.0975, 7222.405
389.5797, 7193.926
390.0618, 7189.888
390.5439, 7209.857
391.0260, 7232.206
391.5081, 7241.801
391.9902, 7247.931
392.4724, 7260.547
392.9545, 7291.274
393.4366, 7320.776
393.9187, 7334.174
394.4008, 7337.237
394.8829, 7354.697
395.3651, 7406.241
395.8472, 7466.691
396.3293, 7520.634
396.8114, 7556.423
397.2935, 7602.391
397.7756, 7663.496
398.2578, 7737.217
398.7399, 7819.650
399.2220, 7917.365
399.7041, 8016.948
400.1862, 8116.777
400.6683, 8219.507
401.1505, 8309.456
401.6326, 8374.412
402.1147, 8435.501
402.5968, 8517.319
403.0789, 8628.052
403.5610, 8742.556
404.0432, 8855.885
404.5253, 8968.760
405.0074, 9090.946
405.4895, 9230.431
405.9716, 9362.202
406.4537, 9468.314
406.9359, 9548.581
407.4180, 9609.339
407.9001, 9645.429
408.3822, 9669.636
408.8643, 9717.664
409.3464, 9790.433
409.8285, 9847.138
410.3106, 9865.525
410.7928, 9849.075
411.2749, 9805.415
411.7570, 9731.445
412.2391, 9647.746
412.7212, 9577.358
413.2033, 9515.661
413.6855, 9449.287
414.1676, 9374.658
414.6497, 9290.973
415.1318, 9191.071
415.6139, 9075.909
416.0960, 8971.153
416.5782, 8899.243
417.0603, 8844.655
417.5424, 8790.443
418.0245, 8737.021
418.5066, 8675.351
418.9887, 8582.819
419.4709, 8475.654
419.9530, 8396.228
420.4351, 8397.394
420.9172, 8405.706
421.3993, 8375.292
421.8814, 8284.564
422.3636, 8208.550
422.8457, 8176.810
423.3278, 8164.956
423.8099, 8142.307
424.2920, 8088.019
424.7741, 8040.670
425.2563, 8011.393
425.7384, 8000.682
426.2205, 7984.156
426.7026, 7957.966
427.1847, 7929.585
427.6668, 7903.505
428.1490, 7876.925
428.6311, 7859.679
429.1132, 7856.068
429.5953, 7860.691
430.0774, 7857.609
430.5595, 7845.801
431.0417, 7829.661
431.5238, 7808.539
432.0059, 7782.181
432.4880, 7767.962
432.9701, 7770.492
433.4522, 7771.926
433.9344, 7742.444
434.4165, 7685.875
434.8986, 7636.375
435.3807, 7606.756
435.8628, 7591.554
436.3449, 7581.913
436.8271, 7577.643
437.3092, 7573.710
437.7913, 7561.933
438.2734, 7548.836
438.7555, 7545.155
439.2376, 7553.731
439.7197, 7570.914
440.2018, 7602.536
440.6840, 7640.979
441.1661, 7667.679
441.6482, 7648.166
442.1303, 7631.729
442.6124, 7658.411
443.0945, 7738.996
443.5767, 7808.972
444.0588, 7837.025
444.5409, 7846.424
445.0230, 7860.725
445.5051, 7884.827
445.9872, 7914.589
446.4694, 7953.910
446.9515, 8001.109
447.4336, 8039.095
447.9157, 8060.256
448.3978, 8079.125
448.8799, 8102.017
449.3621, 8129.298
449.8442, 8160.526
450.3263, 8195.776
450.8084, 8234.746
451.2905, 8279.046
451.7726, 8332.214
452.2548, 8376.903
452.7369, 8403.065
453.2190, 8412.914
453.7011, 8442.852
454.1832, 8499.048
454.6653, 8547.126
455.1475, 8542.690
455.6296, 8494.536
456.1117, 8471.090
456.5938, 8493.193
457.0759, 8534.623
457.5580, 8550.300
458.0402, 8544.897
458.5223, 8542.918
459.0044, 8568.188
459.4865, 8601.513
459.9686, 8612.325
460.4507, 8595.218
460.9329, 8582.666
461.4150, 8601.236
461.8971, 8638.871
462.3792, 8679.861
462.8613, 8714.360
463.3434, 8754.383
463.8256, 8807.881
464.3077, 8872.582
464.7898, 8937.304
465.2719, 8988.814
465.7540, 9045.778
466.2361, 9121.613
466.7183, 9241.740
467.2004, 9337.048
467.6825, 9391.904
468.1646, 9422.789
468.6467, 9453.814
469.1288, 9485.765
469.6109, 9516.333
470.0930, 9547.172
470.5752, 9577.851
471.0573, 9595.842
471.5394, 9599.391
472.0215, 9592.946
472.5036, 9579.084
472.9857, 9557.504
473.4679, 9530.828
473.9500, 9498.659
474.4321, 9463.354
474.9142, 9426.280
475.3963, 9388.228
475.8784, 9358.891
476.3606, 9355.114
476.8427, 9361.861
477.3248, 9339.861
477.8069, 9287.827
478.2890, 9236.263
478.7711, 9211.228
479.2533, 9204.219
479.7354, 9202.408
480.2175, 9206.130
480.6996, 9208.470
481.1817, 9195.928
481.6638, 9176.391
482.1460, 9173.778
482.6281, 9205.217
483.1102, 9250.479
483.5923, 9304.523
484.0744, 9374.246
484.5565, 9420.403
485.0387, 9415.854
485.5208, 9391.253
486.0029, 9379.360
486.4850, 9393.686
486.9671, 9404.138
487.4492, 9408.798
487.9314, 9407.189
488.4135, 9395.015
488.8956, 9369.839
489.3777, 9339.832
489.8598, 9310.024
490.3419, 9282.125
490.8241, 9246.764
491.3062, 9204.691
491.7883, 9153.828
492.2704, 9082.694
492.7525, 8993.780
493.2346, 8918.224
493.7168, 8873.479
494.1989, 8845.077
494.6810, 8804.720
495.1631, 8753.529
495.6452, 8700.947
496.1273, 8654.010
496.6095, 8609.803
497.0916, 8564.002
497.5737, 8513.667
498.0558, 8470.009
498.5379, 8441.343
499.0201, 8424.823
499.5022, 8416.605
499.9843, 8435.388
500.4664, 8443.399
500.9485, 8413.387
501.4306, 8348.838
501.9127, 8305.908
502.3948, 8306.286
502.8770, 8323.195
503.3591, 8342.849
503.8412, 8368.768
504.3233, 8389.806
504.8054, 8404.869
505.2875, 8415.104
505.7697, 8421.665
506.2518, 8422.179
506.7339, 8425.784
507.2160, 8438.956
507.6981, 8458.106
508.1802, 8453.698
508.6624, 8421.475
509.1445, 8391.677
509.6266, 8392.874
510.1087, 8418.698
510.5908, 8437.686
511.0729, 8445.243
511.5551, 8448.205
512.0372, 8450.820
512.5193, 8455.355
513.0014, 8467.694
513.4835, 8493.408
513.9656, 8526.161
514.4478, 8563.015
514.9299, 8603.175
515.4120, 8640.622
515.8941, 8671.601
516.3762, 8698.935
516.8583, 8724.588
517.3405, 8750.317
517.8226, 8771.467
518.3047, 8777.144
518.7868, 8779.700
519.2689, 8799.467
519.7510, 8852.582
520.2332, 8903.992
520.7153, 8945.181
521.1974, 8977.247
521.6795, 9011.940
522.1616, 9051.454
522.6437, 9089.621
523.1259, 9119.387
523.6080, 9139.573
524.0901, 9172.970
524.5722, 9226.678
525.0543, 9280.821
525.5364, 9302.966
526.0186, 9297.585
526.5007, 9295.530
526.9828, 9305.628
527.4649, 9327.595
527.9470, 9370.928
528.4291, 9430.709
528.9113, 9478.680
529.3934, 9485.601
529.8755, 9476.387
530.3576, 9476.834
530.8397, 9494.696
531.3218, 9507.849
531.8040, 9502.828
532.2861, 9487.899
532.7682, 9473.908
533.2503, 9467.437
533.7324, 9457.771
534.2145, 9438.385
534.6967, 9411.982
535.1788, 9396.198
535.6609, 9398.604
536.1430, 9402.578
536.6251, 9399.726
537.1072, 9387.112
537.5894, 9385.647
538.0715, 9402.806
538.5536, 9416.808
539.0357, 9393.488
539.5178, 9333.125
539.9999, 9286.917
540.4821, 9272.737
540.9642, 9273.299
541.4463, 9254.496
541.9284, 9218.971
542.4105, 9184.887
542.8926, 9162.417
543.3748, 9147.666
543.8569, 9137.329
544.3390, 9131.311
544.8211, 9125.830
545.3032, 9123.736
545.7853, 9118.538
546.2675, 9103.236
546.7495, 9065.477
547.2316, 9031.071
547.7137, 9008.708
548.1959, 8995.000
548.6780, 8980.337
549.1601, 8954.201
549.6422, 8938.670
550.1243, 8946.571
550.6064, 8980.046
551.0886, 8985.148
551.5707, 8951.934
552.0528, 8908.490
552.5349, 8874.526
553.0170, 8849.893
553.4991, 8835.762
553.9813, 8835.141
554.4634, 8838.165
554.9455, 8827.860
555.4276, 8806.401
555.9097, 8786.864
556.3918, 8778.837
556.8740, 8772.745
557.3561, 8752.323
557.8382, 8720.306
558.3203, 8693.062
558.8024, 8678.986
559.2845, 8675.186
559.7667, 8683.189
560.2488, 8709.360
560.7309, 8723.490
561.2130, 8707.320
561.6951, 8677.252
562.1772, 8651.262
562.6594, 8623.895
563.1415, 8610.510
563.6236, 8621.431
564.1057, 8647.326
564.5878, 8655.313
565.0699, 8639.093
565.5521, 8618.763
566.0342, 8601.813
566.5163, 8588.291
566.9984, 8575.760
567.4805, 8564.091
567.9626, 8554.464
568.4448, 8546.367
568.9269, 8540.990
569.4090, 8543.230
569.8911, 8555.710
570.3732, 8571.697
570.8553, 8585.898
571.3375, 8597.797
571.8196, 8605.622
572.3017, 8605.588
572.7838, 8604.074
573.2659, 8603.906
573.7480, 8605.299
574.2302, 8609.313
574.7123, 8620.417
575.1944, 8631.086
575.6765, 8637.504
576.1586, 8640.059
576.6407, 8635.755
577.1229, 8610.625
577.6050, 8590.395
578.0871, 8612.320
578.5692, 8696.708
579.0513, 8748.201
579.5334, 8741.063
580.0156, 8698.970
580.4977, 8681.542
580.9798, 8688.567
581.4619, 8703.726
581.9440, 8724.239
582.4261, 8745.411
582.9083, 8752.263
583.3904, 8744.840
583.8725, 8743.173
584.3546, 8765.765
584.8367, 8800.293
585.3188, 8834.377
585.8010, 8866.027
586.2831, 8894.468
586.7652, 8922.931
587.2473, 8946.874
587.7294, 8960.103
588.2115, 8953.769
588.6937, 8944.970
589.1758, 8931.412
589.6579, 8916.477
590.1400, 8920.909
590.6221, 8953.851
591.1042, 8988.264
591.5864, 9012.624
592.0685, 9027.110
592.5506, 9026.679
593.0327, 9006.355
593.5148, 8995.029
593.9969, 9034.196
594.4791, 9109.007
594.9612, 9165.874
595.4433, 9190.853
595.9254, 9204.816
596.4075, 9234.050
596.8896, 9268.981
597.3718, 9288.574
597.8539, 9253.197
598.3360, 9227.925
598.8181, 9261.075
599.3002, 9344.902
599.7823, 9407.720
600.2645, 9411.930
600.7466, 9409.980
601.2287, 9425.980
601.7108, 9464.105
602.1929, 9506.032
602.6750, 9556.064
603.1572, 9603.737
603.6393, 9638.395
604.1214, 9658.722
604.6035, 9673.819
605.0856, 9682.249
605.5677, 9690.809
606.0499, 9716.803
606.5320, 9756.563
607.0141, 9789.184
607.4962, 9784.411
607.9783, 9779.563
608.4604, 9834.617
608.9425, 9939.617
609.4246, 10028.78
609.9067, 10056.28
610.3889, 10061.82
610.8710, 10071.16
611.3531, 10086.69
611.8352, 10109.69
612.3173, 10144.35
612.7994, 10184.64
613.2816, 10224.68
613.7637, 10255.64
614.2458, 10305.99
614.7279, 10389.61
615.2100, 10484.86
615.6921, 10538.39
616.1743, 10544.41
616.6564, 10568.20
617.1385, 10639.24
617.6206, 10741.08
618.1027, 10831.72
618.5848, 10911.60
619.0670, 10998.37
619.5491, 11108.71
620.0312, 11229.28
620.5133, 11352.37
620.9954, 11478.40
621.4775, 11582.16
621.9597, 11632.23
622.4418, 11662.54
622.9239, 11704.81
623.4060, 11787.64
623.8881, 11851.36
624.3702, 11886.72
624.8524, 11900.43
625.3345, 11902.53
625.8166, 11894.03
626.2987, 11870.06
626.7808, 11823.23
627.2629, 11761.84
627.7451, 11726.37
628.2272, 11719.09
628.7093, 11697.70
629.1914, 11635.07
629.6735, 11539.55
630.1556, 11421.53
630.6378, 11281.06
631.1199, 11161.02
631.6020, 11104.16
632.0841, 11080.42
632.5662, 11059.77
633.0483, 11041.20
633.5305, 11012.20
634.0126, 10951.42
634.4947, 10883.70
634.9768, 10842.78
635.4589, 10857.18
635.9410, 10864.96
636.4232, 10860.73
636.9053, 10844.61
637.3874, 10808.97
637.8695, 10742.14
638.3516, 10703.10
638.8337, 10729.33
639.3159, 10801.66
639.7980, 10836.19
640.2801, 10833.09
640.7622, 10823.27
641.2443, 10829.85
641.7264, 10844.98
642.2086, 10857.10
642.6907, 10864.91
643.1728, 10871.44
643.6549, 10872.09
644.1370, 10875.90
644.6191, 10891.97
645.1013, 10917.09
645.5834, 10961.89
646.0655, 11046.58
646.5476, 11146.91
647.0297, 11219.54
647.5118, 11252.82
647.9940, 11284.05
648.4761, 11320.36
648.9582, 11361.05
649.4403, 11400.31
649.9224, 11436.28
650.4045, 11493.20
650.8867, 11603.26
651.3688, 11740.38
651.8509, 11847.07
652.3330, 11923.34
652.8151, 11987.83
653.2972, 12047.27
653.7794, 12105.46
654.2615, 12165.71
654.7436, 12230.42
655.2257, 12292.42
655.7078, 12349.32
656.1899, 12403.34
656.6721, 12457.74
657.1542, 12520.74
657.6363, 12569.99
658.1184, 12598.22
658.6005, 12615.72
659.0826, 12647.13
659.5648, 12695.13
660.0469, 12731.55
660.5290, 12736.57
661.0111, 12730.47
661.4932, 12770.96
661.9753, 12851.70
662.4575, 12928.77
662.9396, 12972.38
663.4217, 13001.00
663.9038, 13032.22
664.3859, 13067.65
664.8680, 13101.78
665.3502, 13127.83
665.8323, 13155.37
666.3144, 13192.03
666.7965, 13248.65
667.2786, 13291.83
667.7607, 13310.15
668.2429, 13324.21
668.7250, 13358.06
669.2071, 13414.67
669.6892, 13470.31
670.1713, 13523.02
670.6534, 13569.48
671.1355, 13606.75
671.6176, 13633.73
672.0997, 13643.98
672.5818, 13619.13
673.0640, 13591.57
673.5461, 13601.96
674.0282, 13641.06
674.5103, 13675.13
674.9924, 13694.02
675.4745, 13701.12
675.9567, 13693.20
676.4388, 13669.25
676.9209, 13658.46
677.4030, 13683.59
677.8851, 13697.17
678.3672, 13658.96
678.8494, 13546.78
679.3315, 13525.63
679.8136, 13616.48
680.2957, 13730.39
680.7778, 13767.11
681.2599, 13742.36
681.7421, 13712.09
682.2242, 13680.77
682.7063, 13663.16
683.1884, 13689.23
683.6705, 13735.57
684.1526, 13763.54
684.6348, 13726.83
685.1169, 13704.27
685.5990, 13751.08
686.0811, 13835.13
686.5632, 13859.94
687.0453, 13766.14
687.5275, 13695.72
688.0096, 13698.41
688.4917, 13757.61
688.9738, 13760.23
689.4559, 13696.71
689.9380, 13635.04
690.4202, 13619.73
690.9023, 13636.81
691.3844, 13648.42
691.8665, 13653.44
692.3486, 13644.18
692.8307, 13601.72
693.3129, 13548.38
693.7950, 13503.41
694.2771, 13465.93
694.7592, 13453.23
695.2413, 13501.04
695.7234, 13559.85
696.2056, 13582.00
696.6877, 13555.02
697.1698, 13511.63
697.6519, 13442.47
698.1340, 13368.94
698.6161, 13327.52
699.0983, 13319.76
699.5804, 13312.03
700.0625, 13295.51
700.5446, 13276.29
701.0267, 13269.25
701.5089, 13268.97
701.9910, 13257.67
702.4731, 13202.66
702.9552, 13153.86
703.4373, 13156.76
703.9194, 13200.64
704.4016, 13230.03
704.8837, 13220.60
705.3658, 13201.78
705.8479, 13179.69
706.3300, 13153.79
706.8121, 13150.57
707.2943, 13182.79
707.7764, 13207.41
708.2585, 13185.10
708.7406, 13122.71
709.2227, 13102.28
709.7048, 13129.78
710.1870, 13156.27
710.6691, 13115.23
711.1512, 13050.23
711.6333, 13031.17
712.1154, 13083.59
712.5975, 13139.94
713.0797, 13175.45
713.5618, 13192.43
714.0439, 13193.18
714.5260, 13146.97
715.0081, 13126.13
715.4902, 13141.27
715.9724, 13178.70
716.4545, 13219.00
716.9366, 13265.20
717.4187, 13294.35
717.9008, 13296.12
718.3829, 13283.58
718.8651, 13289.56
719.3472, 13307.28
719.8293, 13307.76
720.3114, 13248.54
720.7935, 13187.90
721.2756, 13181.87
721.7578, 13220.64
722.2399, 13256.25
722.7220, 13261.23
723.2041, 13270.66
723.6862, 13308.88
724.1683, 13377.08
724.6505, 13404.33
725.1326, 13372.27
725.6147, 13338.84
726.0968, 13341.18
726.5789, 13376.72
727.0610, 13407.78
727.5432, 13433.47
728.0253, 13461.49
728.5074, 13509.57
728.9895, 13560.63
729.4716, 13585.14
729.9537, 13574.20
730.4359, 13560.05
730.9180, 13541.43
731.4000, 13537.26
731.8821, 13565.15
732.3643, 13673.58
732.8464, 13748.30
733.3285, 13771.90
733.8106, 13776.89
734.2927, 13807.34
734.7748, 13865.15
735.2570, 13924.93
735.7391, 13982.95
736.2212, 14038.20
736.7033, 14085.56
737.1854, 14128.47
737.6675, 14177.45
738.1497, 14238.54
738.6318, 14304.71
739.1139, 14377.34
739.5960, 14451.88
740.0781, 14516.09
740.5602, 14552.66
741.0424, 14595.49
741.5245, 14659.90
742.0066, 14739.58
742.4887, 14797.97
742.9708, 14832.66
743.4529, 14853.24
743.9351, 14854.92
744.4172, 14846.37
744.8993, 14862.68
745.3814, 14901.90
745.8635, 14944.97
746.3456, 14975.53
746.8278, 15005.72
747.3099, 15055.54
747.7920, 15125.95
748.2741, 15173.17
748.7562, 15164.21
749.2383, 15141.66
749.7205, 15135.56
750.2026, 15157.41
750.6847, 15144.93
751.1668, 15094.03
751.6489, 15019.77
752.1310, 14907.35
752.6132, 14768.08
753.0953, 14719.97
753.5774, 14777.78
754.0595, 14884.51
754.5416, 15023.63
755.0237, 15162.46
755.5059, 15255.11
755.9880, 15279.93
756.4701, 15283.29
756.9522, 15268.92
757.4343, 15248.29
757.9164, 15235.01
758.3986, 15233.15
758.8807, 15230.10
759.3628, 15221.74
759.8449, 15216.40
760.3270, 15233.32
760.8091, 15271.58
761.2913, 15298.14
761.7734, 15303.16
762.2555, 15297.64
762.7376, 15294.12
763.2197, 15291.35
763.7018, 15286.04
764.1840, 15271.45
764.6661, 15259.87
765.1482, 15257.67
765.6303, 15262.34
766.1124, 15267.01
766.5945, 15268.44
767.0767, 15273.40
767.5588, 15284.79
768.0409, 15299.16
768.5230, 15308.22
769.0051, 15311.49
769.4872, 15301.39
769.9694, 15265.31
770.4515, 15219.21
770.9336, 15189.28
771.4157, 15172.52
771.8978, 15156.60
772.3799, 15146.81
772.8621, 15125.97
773.3442, 15083.52
773.8263, 15019.64
774.3084, 14947.83
774.7905, 14860.90
775.2726, 14779.55
775.7548, 14711.29
776.2369, 14656.17
776.7190, 14617.45
777.2011, 14595.78
777.6832, 14577.63
778.1653, 14565.03
778.6475, 14544.69
779.1296, 14483.07
779.6117, 14380.84
780.0938, 14293.07
780.5759, 14277.41
781.0580, 14267.81
781.5402, 14213.83
782.0223, 14090.92
782.5044, 14011.83
782.9865, 13997.46
783.4686, 13997.77
783.9507, 13979.98
784.4329, 13944.33
784.9150, 13909.78
785.3971, 13877.29
785.8792, 13841.51
786.3613, 13795.08
786.8434, 13742.71
787.3256, 13692.09
787.8077, 13644.92
788.2898, 13598.35
788.7719, 13543.68
789.2540, 13493.92
789.7361, 13463.82
790.2183, 13475.45
790.7004, 13454.31
791.1825, 13382.02
791.6646, 13303.46
792.1467, 13269.47
792.6288, 13276.59
793.1110, 13278.41
793.5930, 13270.45
794.0751, 13249.36
794.5573, 13197.28
795.0394, 13134.08
795.5215, 13093.87
796.0036, 13096.74
796.4857, 13095.30
796.9678, 13074.53
797.4500, 13039.74
797.9321, 12995.19
798.4142, 12929.14
798.8963, 12884.36
799.3784, 12869.85
799.8605, 12867.23
800.3427, 12849.95
800.8248, 12820.23
801.3069, 12789.92
801.7890, 12761.44
802.2711, 12734.45
802.7532, 12710.38
803.2354, 12687.04
803.7175, 12660.36
804.1996, 12621.15
804.6817, 12588.76
805.1638, 12572.89
805.6459, 12563.79
806.1281, 12548.16
806.6102, 12523.63
807.0923, 12499.57
807.5744, 12474.63
808.0565, 12456.09
808.5386, 12464.03
809.0208, 12490.34
809.5029, 12504.84
809.9850, 12494.62
810.4671, 12474.43
810.9492, 12450.14
811.4313, 12424.87
811.9135, 12404.02
812.3956, 12400.70
812.8777, 12385.68
813.3598, 12348.01
813.8419, 12300.80
814.3240, 12267.33
814.8062, 12247.55
815.2883, 12248.40
815.7704, 12281.77
816.2525, 12318.10
816.7346, 12301.14
817.2167, 12248.98
817.6989, 12207.37
818.1810, 12196.88
818.6631, 12200.51
819.1452, 12223.53
819.6273, 12253.80
820.1094, 12262.17
820.5916, 12229.39
821.0737, 12209.18
821.5558, 12216.19
822.0379, 12236.02
822.5200, 12230.90
823.0021, 12203.41
823.4843, 12187.63
823.9664, 12201.03
824.4485, 12222.40
824.9306, 12228.12
825.4127, 12222.50
825.8948, 12215.15
826.3770, 12201.57
826.8591, 12195.29
827.3412, 12205.28
827.8233, 12223.99
828.3054, 12237.19
828.7875, 12244.92
829.2697, 12246.01
829.7518, 12237.68
830.2339, 12226.40
830.7160, 12226.63
831.1981, 12235.39
831.6802, 12240.74
832.1624, 12235.25
832.6445, 12228.57
833.1266, 12229.16
833.6087, 12233.52
834.0908, 12234.26
834.5729, 12218.75
835.0551, 12215.43
835.5372, 12236.35
836.0193, 12266.17
836.5014, 12266.92
836.9835, 12237.63
837.4656, 12215.17
837.9478, 12210.59
838.4299, 12217.58
838.9120, 12236.14
839.3941, 12259.19
839.8762, 12271.47
840.3583, 12254.17
840.8405, 12239.53
841.3226, 12241.07
841.8047, 12252.11
842.2868, 12260.17
842.7689, 12265.51
843.2510, 12264.51
843.7332, 12249.78
844.2153, 12238.69
844.6974, 12275.67
845.1795, 12347.99
845.6616, 12400.44
846.1437, 12411.73
846.6259, 12405.13
847.1080, 12387.50
847.5901, 12366.98
848.0722, 12356.64
848.5543, 12369.53
849.0364, 12379.46
849.5186, 12379.96
850.0007, 12380.19
850.4828, 12400.29
850.9649, 12441.34
851.4470, 12463.38
851.9291, 12454.66
852.4113, 12435.44
852.8934, 12423.36
853.3755, 12420.21
853.8576, 12430.59
854.3397, 12469.60
854.8218, 12498.84
855.3039, 12493.20
855.7860, 12476.85
856.2681, 12481.58
856.7502, 12516.28
857.2324, 12541.60
857.7145, 12550.79
858.1966, 12556.74
858.6787, 12574.40
859.1608, 12602.47
859.6429, 12641.90
860.1251, 12697.21
860.6072, 12742.54
861.0893, 12749.73
861.5714, 12742.20
862.0535, 12744.57
862.5356, 12767.09
863.0178, 12789.94
863.4999, 12816.34
863.9820, 12838.41
864.4641, 12842.28
864.9462, 12830.21
865.4283, 12836.86
865.9105, 12867.30
866.3926, 12899.02
866.8747, 12910.24
867.3568, 12910.77
867.8389, 12908.81
868.3210, 12902.01
868.8032, 12910.88
869.2853, 12961.71
869.7674, 13012.48
870.2495, 13038.16
870.7316, 13035.69
871.2137, 13026.43
871.6959, 13008.96
872.1780, 12994.55
872.6601, 12997.48
873.1422, 13008.21
873.6243, 13007.88
874.1064, 12994.85
874.5886, 12985.99
875.0707, 12982.68
875.5528, 12991.70
876.0349, 13020.10
876.5170, 13068.29
876.9991, 13122.02
877.4813, 13191.22
877.9634, 13235.99
878.4455, 13212.22
878.9276, 13145.81
879.4097, 13137.09
879.8918, 13179.12
880.3740, 13217.82
880.8561, 13211.47
881.3382, 13197.72
881.8203, 13202.43
882.3024, 13225.31
882.7845, 13244.95
883.2667, 13260.43
883.7488, 13270.70
884.2309, 13270.45
884.7130, 13266.35
885.1951, 13285.58
885.6772, 13326.33
886.1594, 13373.97
886.6415, 13431.84
887.1236, 13483.37
887.6057, 13507.50
888.0878, 13513.25
888.5699, 13524.63
889.0521, 13567.67
889.5342, 13590.39
890.0163, 13569.05
890.4984, 13530.68
890.9805, 13541.04
891.4626, 13600.35
891.9448, 13660.38
892.4269, 13707.80
892.9090, 13747.35
893.3911, 13791.00
893.8732, 13828.90
894.3553, 13843.43
894.8375, 13799.06
895.3196, 13771.03
895.8017, 13781.61
896.2838, 13812.08
896.7659, 13846.69
897.2480, 13888.22
897.7302, 13913.12
898.2123, 13917.51
898.6944, 13909.53
899.1765, 13890.81
899.6586, 13869.07
900.1407, 13856.21
900.6229, 13853.09
901.1050, 13866.96
901.5871, 13925.33
902.0692, 13984.59
902.5513, 14007.83
903.0334, 13980.65
903.5156, 13980.39
903.9977, 14011.21
904.4798, 14051.99
904.9619, 14092.99
905.4440, 14128.45
905.9261, 14135.55
906.4083, 14115.00
906.8904, 14112.39
907.3725, 14166.89
907.8546, 14236.27
908.3367, 14307.98
908.8188, 14381.48
909.3010, 14388.24
909.7831, 14299.55
910.2652, 14234.19
910.7473, 14258.68
911.2294, 14342.56
911.7115, 14412.61
912.1937, 14468.42
912.6758, 14509.79
913.1579, 14520.27
913.6400, 14531.50
914.1221, 14563.05
914.6042, 14609.89
915.0864, 14653.49
915.5685, 14696.02
916.0506, 14728.11
916.5327, 14744.63
917.0148, 14754.51
917.4969, 14780.23
917.9790, 14816.05
918.4611, 14837.41
918.9432, 14825.68
919.4254, 14819.54
919.9075, 14839.10
920.3896, 14882.57
920.8717, 14949.84
921.3538, 15074.37
921.8359, 15153.63
922.3181, 15167.43
922.8002, 15167.09
923.2823, 15222.16
923.7644, 15317.49
924.2465, 15374.46
924.7286, 15380.66
925.2108, 15390.17
925.6929, 15461.14
926.1750, 15541.10
926.6571, 15584.95
927.1392, 15579.27
927.6213, 15567.32
928.1035, 15533.26
928.5856, 15526.80
929.0677, 15601.67
929.5498, 15734.05
930.0319, 15786.96
930.5140, 15767.30
930.9962, 15746.54
931.4783, 15775.32
931.9604, 15815.62
932.4425, 15839.67
932.9246, 15849.88
933.4067, 15871.49
933.8889, 15917.82
934.3710, 15949.81
934.8531, 15949.06
935.3352, 15934.48
935.8173, 15960.02
936.2994, 16016.95
936.7816, 16062.13
937.2637, 16074.07
937.7458, 16079.07
938.2279, 16101.54
938.7100, 16127.70
939.1921, 16134.17
939.6743, 16096.77
940.1564, 16080.37
940.6385, 16090.17
941.1206, 16117.99
941.6027, 16162.11
942.0848, 16217.25
942.5670, 16265.14
943.0491, 16304.09
943.5312, 16321.39
944.0133, 16273.65
944.4954, 16223.39
944.9775, 16229.47
945.4597, 16313.77
945.9418, 16371.41
946.4239, 16395.18
946.9060, 16408.87
947.3881, 16420.49
947.8702, 16434.06
948.3524, 16467.95
948.8345, 16519.59
949.3166, 16571.70
949.7987, 16621.50
950.2808, 16662.78
950.7629, 16683.80
951.2451, 16691.47
951.7272, 16714.85
952.2093, 16759.62
952.6914, 16805.50
953.1735, 16848.38
953.6556, 16888.64
954.1378, 16928.97
954.6199, 16966.85
955.1020, 16994.97
955.5841, 17006.68
956.0662, 17018.30
956.5483, 17036.71
957.0305, 17060.67
957.5126, 17087.52
957.9947, 17111.37
958.4768, 17159.43
958.9589, 17238.94
959.4410, 17319.19
959.9232, 17364.04
960.4053, 17390.02
960.8874, 17438.72
961.3695, 17512.51
961.8516, 17571.13
962.3337, 17577.25
962.8159, 17578.09
963.2980, 17599.29
963.7801, 17638.49
964.2622, 17675.83
964.7443, 17711.83
965.2264, 17743.07
965.7086, 17766.60
966.1907, 17786.23
966.6728, 17811.17
967.1549, 17837.47
967.6370, 17854.62
968.1191, 17848.40
968.6013, 17845.75
969.0834, 17849.25
969.5655, 17862.64
970.0476, 17898.90
970.5297, 17960.71
971.0118, 17994.57
971.4940, 17988.74
971.9761, 17977.52
972.4582, 17998.79
972.9403, 18035.21
973.4224, 18065.86
973.9045, 18086.04
974.3867, 18106.62
974.8688, 18119.77
975.3509, 18146.88
975.8330, 18208.58
976.3151, 18298.97
976.7972, 18340.62
977.2794, 18335.85
977.7615, 18335.77
978.2435, 18383.41
978.7256, 18438.93
979.2078, 18473.86
979.6899, 18488.42
980.1720, 18483.34
980.6541, 18423.50
981.1362, 18411.18
981.6183, 18478.96
982.1005, 18579.37
982.5826, 18628.73
983.0647, 18637.75
983.5468, 18648.28
984.0289, 18672.61
984.5110, 18691.27
984.9932, 18673.62
985.4753, 18655.49
985.9574, 18675.69
986.4395, 18746.09
986.9216, 18809.85
987.4037, 18869.14
987.8859, 18914.81
988.3680, 18930.69
988.8501, 18930.60
989.3322, 18946.68
989.8143, 18977.02
990.2964, 19006.98
990.7786, 19008.06
991.2607, 19030.72
991.7428, 19119.01
992.2249, 19239.13
992.7070, 19295.36
993.1891, 19279.97
993.6713, 19277.01
994.1534, 19310.53
994.6355, 19355.56
995.1176, 19372.68
995.5997, 19382.83
996.0818, 19420.07
996.5640, 19505.86
997.0461, 19587.16
997.5282, 19658.53
998.0103, 19718.78
998.4924, 19759.10
998.9745, 19781.04
999.4567, 19836.23
999.9388, 19924.36
1000.421, 20006.90
1000.903, 20038.09
1001.385, 20069.58
1001.867, 20155.76
1002.349, 20285.94
1002.831, 20375.04
1003.314, 20382.34
1003.796, 20434.63
1004.278, 20581.11
1004.760, 20758.97
1005.242, 20831.91
1005.724, 20838.28
1006.206, 20897.09
1006.688, 21063.35
1007.171, 21228.46
1007.653, 21345.66
1008.135, 21433.16
1008.617, 21501.49
1009.099, 21533.10
1009.581, 21650.25
1010.063, 21868.23
1010.545, 22081.12
1011.027, 22193.19
1011.510, 22263.29
1011.992, 22374.41
1012.474, 22520.78
1012.956, 22654.76
1013.438, 22764.31
1013.920, 22854.18
1014.402, 22915.52
1014.884, 22964.98
1015.367, 23044.90
1015.849, 23151.45
1016.331, 23248.40
1016.813, 23322.04
1017.295, 23399.76
1017.777, 23508.91
1018.259, 23631.47
1018.741, 23747.48
1019.223, 23850.26
1019.706, 23966.07
1020.188, 24104.31
1020.670, 24229.24
1021.152, 24296.54
1021.634, 24336.66
1022.116, 24443.84
1022.598, 24603.69
1023.080, 24740.09
1023.563, 24780.89
1024.045, 24829.37
1024.527, 24929.13
1025.009, 25061.61
1025.491, 25196.56
1025.973, 25335.45
1026.455, 25448.74
1026.937, 25525.73
1027.419, 25595.81
1027.901, 25688.41
1028.384, 25793.41
1028.866, 25901.06
1029.348, 26015.90
1029.830, 26106.67
1030.312, 26153.22
1030.794, 26210.55
1031.276, 26317.52
1031.758, 26459.86
1032.241, 26580.23
1032.723, 26678.61
1033.205, 26755.26
1033.687, 26774.65
1034.169, 26809.95
1034.651, 26917.49
1035.133, 27057.25
1035.615, 27153.12
1036.098, 27192.90
1036.580, 27241.26
1037.062, 27303.73
1037.544, 27378.41
1038.026, 27491.03
1038.508, 27599.17
1038.990, 27632.07
1039.472, 27573.63
1039.954, 27546.54
1040.437, 27594.18
1040.919, 27656.42
1041.401, 27725.94
1041.883, 27788.34
1042.365, 27778.04
1042.847, 27707.30
1043.329, 27641.88
1043.811, 27614.14
1044.293, 27594.20
1044.776, 27572.20
1045.258, 27544.05
1045.740, 27502.47
1046.222, 27439.48
1046.704, 27392.79
1047.186, 27364.84
1047.668, 27346.64
1048.150, 27344.41
1048.633, 27338.31
1049.115, 27297.17
1049.597, 27221.44
1050.079, 27133.88
1050.561, 27009.38
1051.043, 26918.13
1051.525, 26897.54
1052.007, 26906.83
1052.490, 26840.33
1052.972, 26711.28
1053.454, 26595.52
1053.936, 26518.85
1054.418, 26439.03
1054.900, 26319.75
1055.382, 26187.78
1055.864, 26068.47
1056.346, 25963.70
1056.828, 25859.27
1057.311, 25754.34
1057.793, 25652.85
1058.275, 25552.70
1058.757, 25460.89
1059.239, 25397.48
1059.721, 25350.95
1060.203, 25286.33
1060.685, 25188.94
1061.168, 25075.43
1061.650, 24937.40
1062.132, 24802.31
1062.614, 24718.47
1063.096, 24674.39
1063.578, 24621.68
1064.060, 24555.13
1064.542, 24470.96
1065.025, 24349.17
1065.507, 24223.23
1065.989, 24121.24
1066.471, 24038.73
1066.953, 23940.46
1067.435, 23820.91
1067.917, 23736.17
1068.399, 23725.45
1068.881, 23725.43
1069.364, 23645.83
1069.846, 23524.57
1070.328, 23422.67
1070.810, 23368.63
1071.292, 23302.96
1071.774, 23209.85
1072.256, 23127.85
1072.738, 23106.57
1073.220, 23120.79
1073.703, 23067.21
1074.185, 22955.38
1074.667, 22865.64
1075.149, 22892.67
1075.631, 22889.71
1076.113, 22772.60
1076.595, 22596.42
1077.077, 22455.42
1077.559, 22350.13
1078.042, 22293.36
1078.524, 22295.92
1079.006, 22297.25
1079.488, 22223.47
1079.970, 22132.44
1080.452, 22087.27
1080.934, 22103.77
1081.416, 22072.02
1081.899, 21975.26
1082.381, 21881.28
1082.863, 21818.38
1083.345, 21775.89
1083.827, 21741.21
1084.309, 21709.62
1084.791, 21669.33
1085.273, 21605.24
1085.755, 21550.04
1086.238, 21509.03
1086.720, 21477.72
1087.202, 21457.66
1087.684, 21446.44
1088.166, 21417.93
1088.648, 21373.38
1089.130, 21330.71
1089.612, 21323.09
1090.094, 21299.45
1090.577, 21205.44
1091.059, 21077.91
1091.541, 21013.65
1092.023, 21024.29
1092.505, 21013.87
1092.987, 20961.12
1093.469, 20913.00
1093.951, 20951.90
1094.434, 21003.28
1094.916, 20966.02
1095.398, 20816.40
1095.880, 20724.18
1096.362, 20716.80
1096.844, 20723.57
1097.326, 20723.45
1097.808, 20712.62
1098.291, 20677.81
1098.773, 20625.80
1099.255, 20572.94
1099.737, 20509.09
1100.219, 20476.48
1100.701, 20527.00
1101.183, 20570.68
1101.665, 20524.12
1102.147, 20395.78
1102.630, 20344.89
1103.112, 20366.06
1103.594, 20398.98
1104.076, 20428.75
1104.558, 20435.65
1105.040, 20390.26
1105.522, 20317.52
1106.004, 20269.93
1106.486, 20249.82
1106.969, 20236.98
1107.451, 20229.65
1107.933, 20225.26
1108.415, 20226.50
1108.897, 20226.29
1109.379, 20217.86
1109.861, 20200.70
1110.343, 20176.41
1110.826, 20144.70
1111.308, 20108.42
1111.790, 20063.73
1112.272, 20024.62
1112.754, 20019.93
1113.236, 20037.48
1113.718, 20053.20
1114.200, 20061.15
1114.682, 20066.17
1115.165, 20067.43
1115.647, 20067.76
1116.129, 20068.72
1116.611, 20069.61
1117.093, 20068.46
1117.575, 20064.96
1118.057, 20058.46
1118.539, 20035.54
1119.021, 20025.01
1119.504, 20053.93
1119.986, 20092.75
1120.468, 20103.08
1120.950, 20081.54
1121.432, 20097.73
1121.914, 20155.61
1122.396, 20213.40
1122.878, 20250.47
1123.361, 20265.76
1123.843, 20241.20
1124.325, 20192.34
1124.807, 20181.67
1125.289, 20217.40
1125.771, 20259.54
1126.253, 20302.23
1126.735, 20343.98
1127.218, 20382.30
1127.700, 20418.40
1128.182, 20449.50
1128.664, 20473.13
1129.146, 20521.43
1129.628, 20615.09
1130.110, 20683.41
1130.592, 20689.73
1131.074, 20670.19
1131.557, 20698.18
1132.039, 20758.31
1132.521, 20815.66
1133.003, 20864.99
1133.485, 20902.10
1133.967, 20921.27
1134.449, 20936.46
1134.931, 20955.71
1135.413, 20979.34
1135.896, 21008.66
1136.378, 21042.11
1136.860, 21070.57
1137.342, 21083.29
1137.824, 21097.65
1138.306, 21115.22
1138.788, 21141.44
1139.270, 21189.52
1139.752, 21258.97
1140.235, 21296.68
1140.717, 21300.03
1141.199, 21301.32
1141.681, 21316.10
1142.163, 21342.79
1142.645, 21388.05
1143.127, 21443.65
1143.609, 21480.21
1144.092, 21492.39
1144.574, 21543.43
1145.056, 21653.50
1145.538, 21748.49
1146.020, 21734.01
1146.502, 21683.05
1146.984, 21663.18
1147.466, 21682.49
1147.948, 21722.94
1148.431, 21792.34
1148.913, 21851.68
1149.395, 21884.48
1149.877, 21912.46
1150.359, 21963.16
1150.841, 22030.82
1151.323, 22113.17
1151.805, 22217.84
1152.287, 22295.94
1152.770, 22339.36
1153.252, 22365.92
1153.734, 22375.67
1154.216, 22381.56
1154.698, 22412.69
1155.180, 22464.84
1155.662, 22529.31
1156.144, 22630.56
1156.627, 22695.53
1157.109, 22708.21
1157.591, 22700.50
1158.073, 22685.62
1158.555, 22672.69
1159.037, 22704.92
1159.519, 22774.73
1160.001, 22842.02
1160.484, 22891.58
1160.966, 22929.62
1161.448, 22958.44
1161.930, 22976.51
1162.412, 22976.02
1162.894, 22960.88
1163.376, 22962.53
1163.858, 22982.69
1164.340, 22999.23
1164.823, 22968.72
1165.305, 22966.29
1165.787, 23060.70
1166.269, 23195.04
1166.751, 23234.15
1167.233, 23185.11
1167.715, 23152.22
1168.197, 23152.84
1168.679, 23181.25
1169.162, 23275.36
1169.644, 23358.12
1170.126, 23347.04
1170.608, 23268.40
1171.090, 23270.63
1171.572, 23355.45
1172.054, 23418.20
1172.536, 23422.23
1173.019, 23408.18
1173.501, 23393.45
1173.983, 23391.67
1174.465, 23430.85
1174.947, 23514.40
1175.429, 23535.87
1175.911, 23488.75
1176.393, 23446.31
1176.875, 23445.35
1177.358, 23462.10
1177.840, 23485.17
1178.322, 23504.19
1178.804, 23500.84
1179.286, 23464.71
1179.768, 23439.45
1180.250, 23426.53
1180.732, 23417.70
1181.214, 23406.22
1181.697, 23396.88
1182.179, 23383.47
1182.661, 23378.27
1183.143, 23415.18
1183.625, 23549.52
1184.107, 23599.35
1184.589, 23542.27
1185.071, 23460.21
1185.554, 23421.52
1186.036, 23404.50
1186.518, 23378.38
1187.000, 23346.27
1187.482, 23327.31
1187.964, 23336.59
1188.446, 23333.17
1188.928, 23309.49
1189.411, 23281.74
1189.893, 23276.58
1190.375, 23276.39
1190.857, 23245.53
1191.339, 23185.65
1191.821, 23141.63
1192.303, 23127.68
1192.785, 23121.35
1193.267, 23121.97
1193.750, 23119.61
1194.232, 23095.04
1194.714, 23058.36
1195.196, 23023.10
1195.678, 22990.32
1196.160, 22979.90
1196.642, 23015.04
1197.124, 23036.63
1197.606, 23021.71
1198.089, 22991.72
1198.571, 22999.58
1199.053, 23021.68
1199.535, 23003.92
1200.017, 22925.95
1200.499, 22857.79
1200.981, 22807.88
1201.463, 22781.36
1201.945, 22790.67
1202.428, 22815.59
1202.910, 22806.64
1203.392, 22774.44
1203.874, 22744.53
1204.356, 22727.30
1204.838, 22701.78
1205.320, 22646.40
1205.802, 22611.97
1206.285, 22649.25
1206.767, 22717.10
1207.249, 22666.49
1207.731, 22541.76
1208.213, 22469.01
1208.695, 22541.87
1209.177, 22588.76
1209.659, 22574.16
1210.141, 22542.85
1210.624, 22523.36
1211.106, 22515.10
1211.588, 22528.66
1212.070, 22553.36
1212.552, 22551.32
1213.034, 22480.36
1213.516, 22416.37
1213.998, 22363.57
1214.480, 22332.48
1214.963, 22345.76
1215.445, 22386.82
1215.927, 22411.19
1216.409, 22414.80
1216.891, 22385.27
1217.373, 22254.90
1217.855, 22185.76
1218.337, 22231.12
1218.820, 22303.09
1219.302, 22290.79
1219.784, 22223.69
1220.266, 22185.40
1220.748, 22177.65
1221.230, 22174.13
1221.712, 22170.37
1222.194, 22159.58
1222.677, 22136.31
1223.159, 22111.93
1223.641, 22104.69
1224.123, 22108.23
1224.605, 22106.94
1225.087, 22099.33
1225.569, 22091.57
1226.051, 22087.66
1226.533, 22081.35
1227.016, 22071.98
1227.498, 22058.22
1227.980, 22025.77
1228.462, 21990.66
1228.944, 22001.15
1229.426, 22064.15
1229.908, 22093.28
1230.390, 22031.56
1230.872, 21983.36
1231.355, 21980.99
1231.837, 21999.93
1232.319, 21996.36
1232.801, 21981.20
1233.283, 21973.91
1233.765, 21977.29
1234.247, 21994.99
1234.729, 22034.35
1235.212, 22074.12
1235.694, 22113.39
1236.176, 22138.60
1236.658, 22111.80
1237.140, 22056.17
1237.622, 22011.12
1238.104, 21983.87
1238.586, 21977.93
1239.068, 22000.04
1239.551, 22024.98
1240.033, 22048.29
1240.515, 22061.29
1240.997, 22039.77
1241.479, 22001.22
1241.961, 21975.97
1242.443, 21975.77
1242.925, 21968.69
1243.407, 21950.52
1243.890, 21934.71
1244.372, 21924.79
1244.854, 21924.33
1245.336, 21941.46
1245.818, 21970.55
1246.300, 22004.79
1246.782, 22049.32
1247.264, 22071.08
1247.747, 22064.80
1248.229, 22055.85
1248.711, 22062.74
1249.193, 22067.50
1249.675, 22043.31
1250.157, 22003.13
1250.639, 21966.93
1251.121, 21937.18
1251.604, 21916.46
1252.086, 21906.24
1252.568, 21901.78
1253.050, 21899.97
1253.532, 21904.04
1254.014, 21922.79
1254.496, 21947.31
1254.978, 21963.96
1255.460, 21972.31
1255.943, 21968.24
1256.425, 21950.47
1256.907, 21929.96
1257.389, 21904.93
1257.871, 21886.88
1258.353, 21881.79
1258.835, 21891.09
1259.317, 21922.60
1259.799, 21984.95
1260.281, 21986.46
1260.764, 21928.79
1261.246, 21881.93
1261.728, 21903.78
1262.210, 21935.70
1262.692, 21954.13
1263.174, 21957.16
1263.656, 21935.96
1264.138, 21891.83
1264.621, 21880.70
1265.103, 21901.87
1265.585, 21927.78
1266.067, 21954.32
1266.549, 21966.90
1267.031, 21933.63
1267.513, 21905.16
1267.995, 21948.95
1268.478, 22049.13
1268.960, 22100.76
1269.442, 22106.29
1269.924, 22114.22
1270.406, 22142.30
1270.888, 22186.01
1271.370, 22255.34
1271.852, 22318.25
1272.334, 22331.40
1272.817, 22310.23
1273.299, 22297.06
1273.781, 22295.51
1274.263, 22312.59
1274.745, 22375.49
1275.227, 22424.88
1275.709, 22459.66
1276.191, 22468.41
1276.673, 22414.43
1277.156, 22339.12
1277.638, 22331.70
1278.120, 22378.71
1278.602, 22395.72
1279.084, 22335.91
1279.566, 22310.93
1280.048, 22335.93
1280.530, 22381.36
1281.013, 22431.17
1281.495, 22474.75
1281.977, 22497.95
1282.459, 22503.06
1282.941, 22499.26
1283.423, 22480.03
1283.905, 22483.10
1284.387, 22514.29
1284.870, 22549.79
1285.352, 22562.17
1285.834, 22574.01
1286.316, 22615.71
1286.798, 22670.05
1287.280, 22686.20
1287.762, 22660.85
1288.244, 22647.88
1288.726, 22653.07
1289.208, 22652.92
1289.691, 22610.45
1290.173, 22578.77
1290.655, 22605.63
1291.137, 22656.56
1291.619, 22673.56
1292.101, 22660.18
1292.583, 22663.04
1293.065, 22690.88
1293.548, 22732.75
1294.030, 22823.16
1294.512, 22863.32
1294.994, 22798.24
1295.476, 22707.21
1295.958, 22718.70
1296.440, 22790.69
1296.922, 22794.82
1297.405, 22772.14
1297.887, 22799.52
1298.369, 22858.47
1298.851, 22907.40
1299.333, 22930.76
1299.815, 22947.62
1300.297, 22976.47
1300.779, 23017.31
##END=



