##NAMES=Mellite
##RRUFFID=R070574
##IDEAL CHEMISTRY=Al_2_C_6_(COO)_6_&#183;16H_2_O
##LOCALITY=Tuscany, Italy
##OWNER=RRUFF
##SOURCE=James Shigley
##DESCRIPTION=Pale yellow prismatic crystal fragment
##STATUS=The identification of this mineral has been confirmed by X-ray diffraction and chemical analysis
##URL=rruff.info/R070574
##MEASURED CHEMISTRY=(Al_1.95_Fe^3+^_0.05_)_Σ=2_C_6_(COO)_6_·16H_2_O; CO_2_ and H_2_O from stoichiometry
143.2668, 6042.025
143.7490, 6236.792
144.2311, 6412.038
144.7132, 6613.584
145.1953, 6869.684
145.6774, 7184.763
146.1595, 7541.240
146.6417, 7918.929
147.1238, 8323.065
147.6059, 8731.948
148.0880, 9147.513
148.5701, 9564.478
149.0523, 9988.951
149.5344, 10420.38
150.0165, 10833.60
150.4986, 11187.40
150.9807, 11485.50
151.4628, 11704.12
151.9450, 11811.13
152.4271, 11869.07
152.9092, 11877.81
153.3913, 11838.58
153.8734, 11766.80
154.3555, 11653.24
154.8377, 11444.05
155.3198, 11279.18
155.8019, 11178.47
156.2840, 11114.11
156.7661, 11056.20
157.2482, 10992.65
157.7304, 10936.93
158.2125, 10924.45
158.6946, 10982.75
159.1767, 11054.17
159.6588, 11134.49
160.1409, 11225.25
160.6231, 11332.91
161.1052, 11460.76
161.5873, 11600.71
162.0694, 11727.25
162.5515, 11854.05
163.0336, 11948.94
163.5158, 12012.53
163.9979, 12041.49
164.4800, 12029.38
164.9621, 11971.38
165.4442, 11874.11
165.9263, 11766.00
166.4085, 11637.57
166.8906, 11507.45
167.3727, 11365.39
167.8548, 11224.68
168.3369, 11105.71
168.8190, 11019.54
169.3012, 10963.98
169.7833, 10931.33
170.2654, 10910.03
170.7475, 10921.10
171.2296, 10965.01
171.7117, 11044.79
172.1939, 11169.50
172.6760, 11347.60
173.1581, 11572.95
173.6402, 11793.73
174.1223, 11986.63
174.6044, 12202.05
175.0866, 12452.64
175.5687, 12735.69
176.0508, 13048.36
176.5329, 13397.56
177.0150, 13773.21
177.4971, 14088.28
177.9793, 14408.59
178.4614, 14615.67
178.9435, 14658.26
179.4256, 14557.69
179.9077, 14363.98
180.3898, 14107.01
180.8720, 13785.93
181.3541, 13366.49
181.8362, 12808.23
182.3183, 12221.03
182.8004, 11610.54
183.2825, 10997.13
183.7647, 10419.09
184.2468, 9899.944
184.7289, 9440.338
185.2110, 9023.194
185.6931, 8630.340
186.1752, 8283.410
186.6574, 7996.119
187.1395, 7760.323
187.6216, 7556.655
188.1037, 7371.265
188.5858, 7205.387
189.0679, 7077.310
189.5501, 6998.798
190.0322, 6937.363
190.5143, 6878.020
190.9964, 6824.752
191.4785, 6791.191
191.9606, 6788.959
192.4428, 6815.875
192.9249, 6835.298
193.4070, 6830.473
193.8891, 6836.069
194.3712, 6881.352
194.8533, 6950.758
195.3355, 7000.328
195.8176, 6998.277
196.2997, 6949.031
196.7818, 6915.759
197.2639, 6915.579
197.7460, 6910.293
198.2282, 6879.210
198.7103, 6830.377
199.1924, 6786.294
199.6745, 6762.293
200.1566, 6756.161
200.6387, 6740.293
201.1209, 6714.390
201.6030, 6681.877
202.0851, 6632.889
202.5672, 6577.319
203.0493, 6541.743
203.5314, 6546.766
204.0136, 6584.899
204.4957, 6586.365
204.9778, 6527.950
205.4599, 6466.188
205.9420, 6424.670
206.4241, 6393.647
206.9063, 6352.493
207.3884, 6289.815
207.8705, 6206.050
208.3526, 6098.410
208.8347, 5946.485
209.3168, 5797.705
209.7990, 5664.676
210.2811, 5543.636
210.7632, 5423.855
211.2453, 5298.690
211.7274, 5171.343
212.2095, 5056.951
212.6917, 4964.774
213.1738, 4873.281
213.6559, 4776.431
214.1380, 4677.848
214.6201, 4581.138
215.1022, 4487.899
215.5844, 4400.506
216.0665, 4331.698
216.5486, 4297.809
217.0307, 4262.414
217.5128, 4216.475
217.9949, 4166.423
218.4771, 4120.230
218.9592, 4081.254
219.4413, 4051.030
219.9234, 4034.928
220.4055, 4052.993
220.8876, 4062.305
221.3698, 4047.180
221.8519, 4025.551
222.3340, 4022.118
222.8161, 4047.611
223.2982, 4088.828
223.7803, 4112.023
224.2625, 4091.937
224.7446, 4084.583
225.2267, 4094.943
225.7088, 4117.229
226.1909, 4147.137
226.6730, 4182.775
227.1552, 4222.602
227.6373, 4263.431
228.1194, 4305.685
228.6015, 4348.801
229.0836, 4390.226
229.5658, 4433.962
230.0479, 4484.909
230.5300, 4544.091
231.0121, 4606.792
231.4942, 4664.270
231.9763, 4709.602
232.4585, 4763.618
232.9406, 4831.874
233.4227, 4903.919
233.9048, 4970.062
234.3869, 5029.646
234.8690, 5091.747
235.3512, 5169.275
235.8333, 5267.663
236.3154, 5369.407
236.7975, 5477.439
237.2796, 5586.842
237.7617, 5694.475
238.2439, 5800.311
238.7260, 5907.984
239.2081, 6023.901
239.6902, 6152.303
240.1723, 6272.255
240.6544, 6373.494
241.1366, 6474.688
241.6187, 6594.673
242.1008, 6727.052
242.5829, 6844.218
243.0650, 6926.477
243.5471, 6975.199
244.0293, 6971.631
244.5114, 6880.263
244.9935, 6765.133
245.4756, 6642.030
245.9577, 6514.358
246.4398, 6385.709
246.9220, 6258.822
247.4041, 6133.315
247.8862, 6003.944
248.3683, 5870.889
248.8504, 5733.207
249.3325, 5584.697
249.8147, 5431.877
250.2968, 5285.594
250.7789, 5149.749
251.2610, 5025.914
251.7431, 4918.602
252.2252, 4826.946
252.7074, 4754.501
253.1895, 4705.646
253.6716, 4673.385
254.1537, 4648.625
254.6358, 4631.482
255.1179, 4616.039
255.6001, 4586.936
256.0822, 4536.457
256.5643, 4497.060
257.0464, 4490.937
257.5285, 4502.071
258.0107, 4515.026
258.4928, 4529.169
258.9749, 4538.059
259.4570, 4532.771
259.9391, 4512.448
260.4212, 4487.453
260.9034, 4459.761
261.3855, 4430.308
261.8676, 4398.983
262.3497, 4362.843
262.8318, 4332.086
263.3139, 4318.481
263.7961, 4319.645
264.2782, 4316.739
264.7603, 4300.558
265.2424, 4280.249
265.7245, 4271.066
266.2066, 4276.534
266.6888, 4278.950
267.1709, 4263.334
267.6530, 4238.100
268.1351, 4227.674
268.6172, 4243.609
269.0993, 4264.887
269.5815, 4253.932
270.0636, 4206.559
270.5457, 4174.852
271.0278, 4194.740
271.5099, 4229.681
271.9920, 4223.390
272.4742, 4162.551
272.9563, 4091.893
273.4384, 4063.250
273.9205, 4085.601
274.4026, 4098.513
274.8847, 4097.563
275.3669, 4087.086
275.8490, 4067.658
276.3311, 4040.519
276.8132, 4011.725
277.2953, 3985.064
277.7774, 3960.478
278.2596, 3945.110
278.7417, 3948.088
279.2238, 3950.462
279.7059, 3938.351
280.1880, 3916.685
280.6701, 3903.813
281.1523, 3914.787
281.6344, 3945.327
282.1165, 3947.099
282.5986, 3879.365
283.0807, 3829.978
283.5628, 3839.368
284.0450, 3875.703
284.5271, 3885.914
285.0092, 3842.042
285.4913, 3764.603
285.9734, 3720.266
286.4555, 3739.623
286.9377, 3750.962
287.4198, 3745.076
287.9019, 3730.379
288.3840, 3715.540
288.8661, 3703.255
289.3482, 3689.238
289.8304, 3665.173
290.3125, 3626.203
290.7946, 3589.957
291.2767, 3550.442
291.7588, 3519.192
292.2409, 3509.149
292.7231, 3519.241
293.2052, 3530.774
293.6873, 3522.650
294.1694, 3492.902
294.6515, 3467.719
295.1336, 3443.134
295.6158, 3429.449
296.0979, 3436.990
296.5800, 3461.032
297.0621, 3484.500
297.5442, 3493.674
298.0263, 3492.672
298.5085, 3499.167
298.9906, 3516.416
299.4727, 3534.959
299.9548, 3547.586
300.4369, 3557.627
300.9190, 3571.195
301.4012, 3587.000
301.8833, 3609.889
302.3654, 3651.493
302.8475, 3713.820
303.3296, 3771.621
303.8117, 3807.404
304.2939, 3831.254
304.7760, 3863.079
305.2581, 3904.564
305.7402, 3953.688
306.2223, 4016.606
306.7044, 4087.818
307.1866, 4145.816
307.6687, 4179.510
308.1508, 4198.625
308.6329, 4219.734
309.1150, 4236.599
309.5971, 4269.516
310.0793, 4339.573
310.5614, 4423.619
311.0435, 4489.244
311.5256, 4528.212
312.0077, 4553.317
312.4898, 4579.538
312.9720, 4605.845
313.4541, 4637.721
313.9362, 4673.669
314.4183, 4716.242
314.9004, 4768.970
315.3825, 4830.864
315.8647, 4896.977
316.3468, 4963.769
316.8289, 5031.567
317.3110, 5094.519
317.7931, 5145.724
318.2752, 5200.063
318.7574, 5258.563
319.2395, 5323.670
319.7216, 5399.684
320.2037, 5488.859
320.6858, 5589.383
321.1679, 5693.402
321.6501, 5802.634
322.1322, 5912.410
322.6143, 6023.507
323.0964, 6133.607
323.5785, 6244.148
324.0606, 6355.213
324.5428, 6458.223
325.0249, 6544.129
325.5070, 6615.392
325.9891, 6657.891
326.4712, 6668.197
326.9533, 6646.667
327.4355, 6587.706
327.9176, 6492.637
328.3997, 6378.848
328.8818, 6251.348
329.3639, 6114.134
329.8460, 5980.227
330.3282, 5845.067
330.8103, 5725.164
331.2924, 5636.840
331.7745, 5573.796
332.2566, 5519.186
332.7387, 5463.121
333.2209, 5415.695
333.7030, 5393.252
334.1851, 5395.890
334.6672, 5405.442
335.1493, 5416.076
335.6314, 5424.047
336.1136, 5418.661
336.5957, 5403.994
337.0778, 5372.156
337.5599, 5312.860
338.0420, 5234.234
338.5241, 5153.683
339.0063, 5077.817
339.4884, 5001.959
339.9705, 4916.944
340.4526, 4817.862
340.9347, 4717.205
341.4168, 4602.588
341.8990, 4494.004
342.3811, 4410.726
342.8632, 4354.292
343.3453, 4310.180
343.8274, 4262.311
344.3095, 4208.846
344.7917, 4162.280
345.2738, 4117.752
345.7559, 4084.531
346.2380, 4071.264
346.7201, 4072.035
347.2022, 4074.229
347.6844, 4069.457
348.1665, 4060.144
348.6486, 4055.448
349.1307, 4052.139
349.6128, 4060.204
350.0949, 4093.749
350.5771, 4133.206
351.0592, 4154.226
351.5413, 4146.787
352.0234, 4138.113
352.5055, 4165.667
352.9876, 4230.297
353.4698, 4287.870
353.9519, 4333.488
354.4340, 4362.126
354.9161, 4363.079
355.3982, 4336.639
355.8803, 4321.496
356.3625, 4346.509
356.8446, 4392.063
357.3267, 4423.592
357.8088, 4436.214
358.2909, 4440.659
358.7730, 4445.138
359.2552, 4448.956
359.7373, 4447.056
360.2194, 4430.028
360.7015, 4415.499
361.1836, 4417.501
361.6657, 4431.343
362.1479, 4444.351
362.6300, 4451.508
363.1121, 4450.169
363.5942, 4431.460
364.0763, 4377.641
364.5584, 4328.803
365.0406, 4292.309
365.5227, 4258.962
366.0048, 4220.466
366.4869, 4174.473
366.9690, 4123.258
367.4511, 4067.276
367.9333, 4002.183
368.4154, 3949.913
368.8975, 3924.712
369.3796, 3899.366
369.8617, 3862.329
370.3438, 3815.952
370.8260, 3768.138
371.3081, 3720.315
371.7902, 3676.428
372.2723, 3651.522
372.7544, 3651.812
373.2365, 3655.583
373.7187, 3657.237
374.2008, 3656.241
374.6829, 3651.045
375.1650, 3640.244
375.6471, 3628.523
376.1292, 3621.514
376.6114, 3617.834
377.0935, 3608.355
377.5756, 3587.360
378.0577, 3565.661
378.5398, 3558.927
379.0219, 3566.897
379.5041, 3576.832
379.9862, 3590.042
380.4683, 3601.363
380.9504, 3603.203
381.4325, 3596.076
381.9146, 3590.583
382.3968, 3595.828
382.8789, 3611.097
383.3610, 3618.353
383.8431, 3608.401
384.3252, 3602.349
384.8073, 3610.573
385.2895, 3624.970
385.7716, 3633.469
386.2537, 3631.143
386.7358, 3622.478
387.2179, 3615.645
387.7000, 3609.979
388.1822, 3607.882
388.6643, 3616.628
389.1464, 3623.003
389.6285, 3617.834
390.1106, 3601.891
390.5927, 3561.655
391.0749, 3572.349
391.5570, 3572.245
392.0391, 3561.922
392.5212, 3510.771
393.0033, 3512.342
393.4854, 3492.783
393.9676, 3472.357
394.4497, 3481.346
394.9318, 3436.135
395.4139, 3444.658
395.8960, 3431.732
396.3781, 3428.622
396.8603, 3404.252
397.3424, 3386.450
397.8245, 3357.267
398.3066, 3342.419
398.7887, 3350.675
399.2708, 3344.993
399.7530, 3304.654
400.2351, 3257.411
400.7172, 3230.724
401.1993, 3225.267
401.6814, 3223.501
402.1635, 3210.762
402.6457, 3187.207
403.1278, 3165.396
403.6099, 3144.878
404.0920, 3126.727
404.5741, 3112.852
405.0562, 3100.970
405.5384, 3087.376
406.0205, 3070.609
406.5026, 3054.055
406.9847, 3044.688
407.4668, 3044.986
407.9489, 3040.537
408.4311, 3025.530
408.9132, 3008.560
409.3953, 2994.321
409.8774, 2982.857
410.3595, 2972.882
410.8416, 2963.472
411.3238, 2955.102
411.8059, 2948.820
412.2880, 2944.777
412.7701, 2942.070
413.2522, 2942.421
413.7343, 2943.095
414.2165, 2936.052
414.6986, 2914.444
415.1807, 2894.279
415.6628, 2883.230
416.1449, 2878.024
416.6270, 2871.538
417.1092, 2861.587
417.5913, 2855.647
418.0734, 2866.685
418.5555, 2907.917
419.0376, 2921.767
419.5197, 2880.323
420.0019, 2841.658
420.4840, 2840.770
420.9661, 2867.029
421.4482, 2888.608
421.9303, 2884.153
422.4124, 2862.808
422.8946, 2856.710
423.3767, 2875.498
423.8588, 2886.970
424.3409, 2875.157
424.8230, 2857.589
425.3051, 2849.207
425.7873, 2852.614
426.2694, 2856.941
426.7515, 2851.600
427.2336, 2840.427
427.7157, 2836.715
428.1978, 2843.747
428.6800, 2852.227
429.1621, 2855.434
429.6442, 2853.572
430.1263, 2848.868
430.6084, 2833.155
431.0905, 2822.633
431.5727, 2829.354
432.0548, 2848.145
432.5369, 2868.871
433.0190, 2887.681
433.5011, 2901.869
433.9832, 2905.014
434.4654, 2886.697
434.9475, 2877.057
435.4296, 2884.543
435.9117, 2892.596
436.3938, 2888.631
436.8759, 2874.945
437.3581, 2863.720
437.8402, 2865.313
438.3223, 2876.129
438.8044, 2880.301
439.2865, 2875.920
439.7686, 2869.061
440.2508, 2857.090
440.7329, 2846.051
441.2150, 2843.279
441.6971, 2851.239
442.1792, 2861.459
442.6613, 2868.416
443.1435, 2872.983
443.6256, 2878.481
444.1077, 2886.236
444.5898, 2890.547
445.0719, 2883.622
445.5540, 2864.717
446.0362, 2856.243
446.5183, 2867.390
447.0004, 2879.550
447.4825, 2885.083
447.9646, 2884.890
448.4467, 2881.436
448.9289, 2875.827
449.4110, 2868.142
449.8931, 2857.857
450.3752, 2841.215
450.8573, 2830.736
451.3394, 2831.598
451.8216, 2834.254
452.3037, 2833.772
452.7858, 2830.389
453.2679, 2826.993
453.7500, 2825.987
454.2321, 2826.031
454.7143, 2823.302
455.1964, 2817.178
455.6785, 2811.577
456.1606, 2806.677
456.6428, 2804.363
457.1249, 2808.502
457.6070, 2822.817
458.0891, 2832.458
458.5712, 2826.150
459.0533, 2813.675
459.5355, 2809.284
460.0176, 2814.917
460.4997, 2823.211
460.9818, 2828.601
461.4639, 2831.120
461.9460, 2825.570
462.4282, 2796.458
462.9103, 2777.625
463.3924, 2785.059
463.8745, 2804.015
464.3566, 2816.364
464.8387, 2815.881
465.3209, 2808.985
465.8030, 2804.411
466.2851, 2802.509
466.7672, 2797.023
467.2493, 2782.050
467.7314, 2770.580
468.2136, 2772.545
468.6957, 2784.239
469.1778, 2795.530
469.6599, 2808.483
470.1420, 2814.874
470.6241, 2797.371
471.1063, 2763.396
471.5884, 2749.246
472.0705, 2772.243
472.5526, 2810.489
473.0347, 2826.955
473.5168, 2811.860
473.9990, 2796.125
474.4811, 2776.346
474.9632, 2759.001
475.4453, 2749.140
475.9274, 2745.629
476.4095, 2744.392
476.8917, 2743.065
477.3738, 2741.565
477.8559, 2739.647
478.3380, 2737.541
478.8201, 2734.459
479.3022, 2728.598
479.7844, 2722.781
480.2665, 2719.265
480.7486, 2718.184
481.2307, 2717.375
481.7128, 2717.854
482.1949, 2716.988
482.6771, 2707.836
483.1592, 2689.719
483.6413, 2673.231
484.1234, 2663.806
484.6055, 2661.263
485.0876, 2665.214
485.5698, 2681.835
486.0519, 2695.444
486.5340, 2704.160
487.0161, 2707.917
487.4982, 2704.804
487.9803, 2695.598
488.4625, 2685.333
488.9446, 2679.021
489.4267, 2676.518
489.9088, 2673.645
490.3909, 2670.533
490.8730, 2666.769
491.3552, 2661.705
491.8373, 2656.240
492.3194, 2650.109
492.8015, 2642.394
493.2836, 2639.709
493.7657, 2654.841
494.2479, 2679.459
494.7300, 2686.045
495.2121, 2668.005
495.6942, 2646.693
496.1763, 2639.258
496.6584, 2645.637
497.1406, 2653.390
497.6227, 2664.772
498.1048, 2674.892
498.5869, 2681.214
499.0690, 2685.636
499.5511, 2692.407
500.0333, 2702.320
500.5154, 2709.528
500.9975, 2704.510
501.4796, 2684.806
501.9617, 2671.639
502.4438, 2667.211
502.9260, 2666.850
503.4081, 2672.172
503.8902, 2679.014
504.3723, 2679.916
504.8544, 2671.158
505.3365, 2658.999
505.8187, 2642.812
506.3008, 2627.045
506.7829, 2631.929
507.2650, 2665.731
507.7471, 2702.425
508.2292, 2713.251
508.7114, 2694.297
509.1935, 2682.282
509.6756, 2676.950
510.1577, 2678.294
510.6398, 2692.894
511.1219, 2712.267
511.6041, 2722.894
512.0862, 2719.703
512.5683, 2710.044
513.0504, 2703.750
513.5325, 2700.809
514.0146, 2701.977
514.4968, 2710.843
514.9789, 2719.225
515.4610, 2720.301
515.9431, 2717.499
516.4252, 2718.896
516.9073, 2729.102
517.3895, 2741.100
517.8716, 2750.322
518.3537, 2756.924
518.8358, 2759.454
519.3179, 2756.862
519.8000, 2757.428
520.2822, 2773.496
520.7643, 2810.746
521.2464, 2829.949
521.7285, 2820.889
522.2106, 2807.857
522.6927, 2793.024
523.1749, 2781.798
523.6570, 2783.370
524.1391, 2801.476
524.6212, 2823.993
525.1033, 2833.037
525.5854, 2829.026
526.0676, 2831.020
526.5497, 2842.902
527.0318, 2857.636
527.5139, 2872.516
527.9960, 2886.252
528.4781, 2893.889
528.9603, 2885.292
529.4424, 2880.467
529.9245, 2895.355
530.4066, 2919.781
530.8887, 2935.885
531.3708, 2938.843
531.8530, 2935.539
532.3351, 2933.635
532.8172, 2933.205
533.2993, 2933.188
533.7814, 2931.740
534.2635, 2932.960
534.7457, 2939.250
535.2278, 2948.222
535.7099, 2957.087
536.1920, 2965.103
536.6741, 2972.274
537.1563, 2980.743
537.6384, 2988.517
538.1205, 2988.364
538.6026, 2979.015
539.0847, 2963.407
539.5668, 2939.208
540.0490, 2909.646
540.5311, 2899.229
541.0132, 2932.521
541.4953, 2952.045
541.9774, 2933.039
542.4595, 2900.208
542.9417, 2879.595
543.4238, 2875.671
543.9059, 2876.708
544.3880, 2872.249
544.8701, 2862.830
545.3522, 2853.839
545.8344, 2848.185
546.3165, 2835.819
546.7986, 2805.900
547.2807, 2770.644
547.7628, 2742.380
548.2449, 2721.667
548.7271, 2710.491
549.2092, 2718.931
549.6913, 2732.317
550.1734, 2731.469
550.6555, 2716.360
551.1376, 2698.076
551.6198, 2682.856
552.1019, 2670.979
552.5840, 2663.342
553.0661, 2661.266
553.5482, 2661.415
554.0303, 2671.613
554.5125, 2677.071
554.9946, 2665.257
555.4767, 2638.985
555.9588, 2611.985
556.4409, 2589.122
556.9230, 2572.743
557.4052, 2569.957
557.8873, 2579.697
558.3694, 2586.697
558.8515, 2585.738
559.3336, 2580.058
559.8157, 2573.790
560.2979, 2566.762
560.7800, 2559.512
561.2621, 2546.601
561.7442, 2538.842
562.2263, 2546.604
562.7084, 2562.273
563.1906, 2572.438
563.6727, 2571.415
564.1548, 2563.654
564.6369, 2553.033
565.1190, 2539.279
565.6011, 2534.273
566.0833, 2543.963
566.5654, 2553.640
567.0475, 2550.440
567.5296, 2540.024
568.0117, 2535.392
568.4938, 2541.592
568.9760, 2548.893
569.4581, 2556.532
569.9402, 2560.924
570.4223, 2553.223
570.9044, 2533.783
571.3865, 2517.377
571.8687, 2518.859
572.3508, 2535.984
572.8329, 2544.167
573.3150, 2537.402
573.7971, 2532.428
574.2792, 2535.211
574.7614, 2539.984
575.2435, 2540.490
575.7256, 2536.397
576.2077, 2535.844
576.6898, 2550.560
577.1719, 2567.268
577.6541, 2564.735
578.1362, 2545.243
578.6183, 2528.086
579.1004, 2522.351
579.5825, 2524.094
580.0646, 2524.887
580.5468, 2519.380
581.0289, 2525.544
581.5110, 2564.423
581.9931, 2592.591
582.4752, 2579.632
582.9573, 2541.917
583.4395, 2513.924
583.9216, 2511.940
584.4037, 2519.361
584.8858, 2515.973
585.3679, 2504.337
585.8500, 2497.532
586.3322, 2498.491
586.8143, 2501.577
587.2964, 2502.414
587.7785, 2501.145
588.2606, 2499.886
588.7427, 2497.347
589.2249, 2496.471
589.7070, 2500.313
590.1891, 2504.644
590.6712, 2505.226
591.1533, 2501.579
591.6354, 2495.998
592.1176, 2489.359
592.5997, 2482.636
593.0818, 2479.782
593.5639, 2481.473
594.0460, 2482.165
594.5281, 2478.903
595.0103, 2474.718
595.4924, 2475.115
595.9745, 2480.945
596.4566, 2483.199
596.9387, 2474.201
597.4208, 2467.243
597.9030, 2474.372
598.3851, 2489.330
598.8672, 2498.202
599.3493, 2495.208
599.8314, 2488.045
600.3135, 2490.151
600.7957, 2502.447
601.2778, 2503.751
601.7599, 2486.943
602.2420, 2470.654
602.7241, 2466.266
603.2062, 2469.636
603.6884, 2473.693
604.1705, 2478.165
604.6526, 2482.426
605.1347, 2485.868
605.6168, 2489.147
606.0989, 2493.019
606.5811, 2497.498
607.0632, 2502.729
607.5453, 2509.242
608.0274, 2515.416
608.5095, 2515.297
608.9916, 2506.121
609.4738, 2500.116
609.9559, 2505.092
610.4380, 2507.777
610.9201, 2494.753
611.4022, 2470.300
611.8843, 2453.587
612.3665, 2455.170
612.8486, 2461.196
613.3307, 2462.845
613.8128, 2462.389
614.2949, 2465.422
614.7770, 2472.908
615.2592, 2478.224
615.7413, 2473.257
616.2234, 2458.723
616.7055, 2453.769
617.1876, 2465.476
617.6697, 2473.847
618.1519, 2467.737
618.6340, 2459.649
619.1161, 2464.346
619.5982, 2482.624
620.0803, 2491.932
620.5624, 2472.847
621.0446, 2447.114
621.5267, 2437.046
622.0088, 2439.859
622.4909, 2444.124
622.9730, 2445.271
623.4551, 2444.912
623.9373, 2445.024
624.4194, 2444.952
624.9015, 2449.132
625.3836, 2462.816
625.8657, 2473.792
626.3478, 2477.171
626.8300, 2475.729
627.3121, 2472.659
627.7942, 2468.160
628.2763, 2464.467
628.7584, 2463.820
629.2405, 2464.179
629.7227, 2459.412
630.2048, 2451.521
630.6869, 2454.832
631.1690, 2478.924
631.6511, 2511.741
632.1332, 2523.364
632.6154, 2504.361
633.0975, 2490.498
633.5796, 2485.984
634.0617, 2483.713
634.5438, 2481.229
635.0259, 2478.463
635.5081, 2473.912
635.9902, 2462.355
636.4723, 2460.798
636.9544, 2495.872
637.4365, 2542.191
637.9186, 2553.103
638.4008, 2526.734
638.8829, 2502.113
639.3650, 2508.410
639.8471, 2534.207
640.3292, 2534.626
640.8113, 2493.514
641.2935, 2467.135
641.7756, 2472.850
642.2577, 2485.213
642.7398, 2492.533
643.2219, 2494.478
643.7040, 2491.578
644.1862, 2480.525
644.6683, 2469.405
645.1504, 2465.210
645.6325, 2464.244
646.1146, 2460.001
646.5967, 2451.426
647.0789, 2440.913
647.5610, 2429.348
648.0431, 2418.465
648.5252, 2419.332
649.0073, 2438.082
649.4894, 2452.826
649.9716, 2456.167
650.4537, 2456.537
650.9358, 2460.268
651.4179, 2466.834
651.9000, 2472.282
652.3821, 2475.539
652.8643, 2477.219
653.3464, 2478.990
653.8285, 2479.046
654.3106, 2473.249
654.7927, 2461.227
655.2748, 2447.583
655.7570, 2435.907
656.2391, 2426.685
656.7212, 2423.083
657.2033, 2425.832
657.6854, 2432.315
658.1675, 2444.710
658.6497, 2457.997
659.1318, 2469.711
659.6139, 2479.372
660.0960, 2479.590
660.5781, 2458.102
661.0602, 2438.092
661.5424, 2434.836
662.0245, 2440.487
662.5066, 2442.279
662.9887, 2437.497
663.4708, 2432.918
663.9529, 2437.165
664.4351, 2446.844
664.9172, 2442.192
665.3993, 2419.172
665.8814, 2403.999
666.3635, 2408.730
666.8456, 2420.220
667.3278, 2421.247
667.8099, 2411.431
668.2920, 2406.105
668.7741, 2412.269
669.2562, 2416.742
669.7383, 2412.909
670.2205, 2404.390
670.7026, 2396.594
671.1847, 2390.471
671.6668, 2381.996
672.1489, 2364.466
672.6310, 2342.722
673.1132, 2331.887
673.5953, 2332.111
674.0774, 2336.267
674.5595, 2342.008
675.0416, 2350.983
675.5237, 2368.367
676.0059, 2398.017
676.4880, 2407.103
676.9701, 2374.434
677.4522, 2348.276
677.9343, 2348.114
678.4164, 2358.791
678.8986, 2363.322
679.3807, 2358.946
679.8628, 2353.747
680.3449, 2352.527
680.8270, 2354.650
681.3091, 2361.740
681.7913, 2372.213
682.2734, 2375.469
682.7555, 2367.112
683.2376, 2357.366
683.7197, 2359.652
684.2018, 2375.091
684.6840, 2384.010
685.1661, 2379.492
685.6482, 2378.250
686.1303, 2387.242
686.6124, 2398.695
687.0945, 2406.312
687.5767, 2409.347
688.0588, 2408.576
688.5409, 2402.496
689.0230, 2394.353
689.5051, 2388.633
689.9872, 2382.944
690.4694, 2368.591
690.9515, 2344.139
691.4336, 2323.122
691.9157, 2320.717
692.3978, 2335.024
692.8799, 2347.840
693.3621, 2358.610
693.8442, 2369.766
694.3263, 2386.745
694.8084, 2399.790
695.2905, 2394.913
695.7726, 2373.724
696.2548, 2361.061
696.7369, 2368.316
697.2190, 2376.547
697.7011, 2372.771
698.1832, 2367.090
698.6653, 2376.670
699.1475, 2401.302
699.6296, 2420.956
700.1117, 2416.874
700.5938, 2399.441
701.0759, 2396.920
701.5580, 2408.783
702.0402, 2407.098
702.5223, 2380.456
703.0044, 2353.013
703.4865, 2350.187
703.9686, 2370.768
704.4507, 2379.386
704.9329, 2359.181
705.4150, 2349.941
705.8971, 2364.482
706.3792, 2385.855
706.8613, 2402.357
707.3434, 2413.166
707.8256, 2421.880
708.3077, 2430.674
708.7898, 2437.400
709.2719, 2440.313
709.7540, 2439.411
710.2361, 2431.798
710.7183, 2418.002
711.2004, 2409.528
711.6825, 2416.293
712.1646, 2433.454
712.6467, 2441.884
713.1288, 2438.413
713.6110, 2435.866
714.0931, 2434.104
714.5752, 2435.582
715.0573, 2443.050
715.5394, 2454.785
716.0215, 2466.689
716.5037, 2479.954
716.9858, 2490.023
717.4679, 2490.896
717.9500, 2491.042
718.4321, 2502.583
718.9142, 2521.033
719.3964, 2530.087
719.8785, 2520.370
720.3606, 2503.990
720.8427, 2499.439
721.3248, 2504.817
721.8069, 2506.877
722.2891, 2503.920
722.7712, 2501.419
723.2533, 2502.359
723.7354, 2506.025
724.2175, 2511.163
724.6996, 2520.868
725.1818, 2524.801
725.6639, 2519.406
726.1460, 2512.623
726.6281, 2507.349
727.1102, 2502.890
727.5923, 2497.772
728.0745, 2491.570
728.5566, 2486.016
729.0387, 2482.472
729.5208, 2479.921
730.0029, 2477.624
730.4850, 2475.236
730.9672, 2471.631
731.4493, 2466.423
731.9314, 2461.219
732.4135, 2458.692
732.8956, 2458.609
733.3777, 2453.909
733.8599, 2441.028
734.3420, 2436.510
734.8241, 2452.181
735.3062, 2472.376
735.7883, 2474.502
736.2704, 2457.555
736.7526, 2450.385
737.2347, 2462.391
737.7168, 2475.091
738.1989, 2483.007
738.6810, 2487.835
739.1631, 2490.512
739.6453, 2491.880
740.1274, 2494.441
740.6095, 2500.844
741.0916, 2507.950
741.5737, 2508.797
742.0558, 2506.739
742.5380, 2516.853
743.0201, 2541.660
743.5022, 2559.614
743.9843, 2551.225
744.4664, 2524.189
744.9485, 2512.279
745.4307, 2519.075
745.9128, 2530.667
746.3949, 2551.908
746.8770, 2569.688
747.3591, 2570.721
747.8412, 2562.336
748.3234, 2562.951
748.8055, 2581.429
749.2876, 2594.312
749.7697, 2586.659
750.2518, 2577.694
750.7339, 2585.490
751.2161, 2604.325
751.6982, 2618.646
752.1803, 2621.978
752.6624, 2620.018
753.1445, 2615.075
753.6266, 2610.377
754.1088, 2616.065
754.5909, 2632.194
755.0730, 2652.390
755.5551, 2675.007
756.0372, 2695.050
756.5193, 2703.466
757.0015, 2698.048
757.4836, 2699.771
757.9657, 2712.280
758.4478, 2725.999
758.9299, 2734.851
759.4120, 2745.921
759.8942, 2770.105
760.3763, 2806.922
760.8584, 2833.015
761.3405, 2829.102
761.8226, 2828.773
762.3047, 2857.416
762.7869, 2894.660
763.2690, 2912.208
763.7511, 2909.536
764.2332, 2908.713
764.7153, 2925.926
765.1974, 2950.858
765.6796, 2965.816
766.1617, 2973.205
766.6438, 2985.401
767.1259, 3004.598
767.6080, 3023.552
768.0901, 3036.011
768.5723, 3046.492
769.0544, 3071.745
769.5365, 3123.055
770.0186, 3157.041
770.5007, 3159.618
770.9828, 3160.627
771.4650, 3180.280
771.9471, 3206.108
772.4292, 3217.141
772.9113, 3208.532
773.3934, 3197.661
773.8755, 3194.248
774.3577, 3185.013
774.8398, 3159.401
775.3219, 3122.458
775.8040, 3081.699
776.2861, 3039.542
776.7682, 2997.772
777.2504, 2956.935
777.7325, 2918.157
778.2146, 2881.581
778.6967, 2848.692
779.1788, 2827.860
779.6609, 2821.833
780.1431, 2819.501
780.6252, 2810.067
781.1073, 2794.811
781.5894, 2782.065
782.0715, 2773.219
782.5536, 2762.291
783.0358, 2745.442
783.5179, 2729.964
784.0000, 2715.469
784.4821, 2706.483
784.9642, 2720.481
785.4464, 2787.573
785.9285, 2825.679
786.4106, 2792.437
786.8927, 2751.326
787.3748, 2746.048
787.8569, 2765.921
788.3391, 2782.988
788.8212, 2787.959
789.3033, 2792.723
789.7854, 2807.045
790.2675, 2826.837
790.7496, 2847.458
791.2318, 2868.177
791.7139, 2888.275
792.1960, 2907.482
792.6781, 2924.755
793.1602, 2937.846
793.6423, 2948.015
794.1245, 2963.843
794.6066, 2985.817
795.0887, 3010.633
795.5708, 3038.510
796.0529, 3066.666
796.5350, 3092.028
797.0172, 3114.994
797.4993, 3139.746
797.9814, 3176.458
798.4635, 3200.211
798.9456, 3200.189
799.4277, 3195.674
799.9099, 3194.560
800.3920, 3198.787
800.8741, 3212.068
801.3562, 3238.401
801.8383, 3262.708
802.3204, 3276.946
802.8026, 3285.898
803.2847, 3294.888
803.7668, 3302.448
804.2489, 3303.708
804.7310, 3297.218
805.2131, 3287.794
805.6953, 3278.557
806.1774, 3270.705
806.6595, 3272.095
807.1416, 3280.760
807.6237, 3273.964
808.1058, 3243.831
808.5880, 3210.782
809.0701, 3195.308
809.5522, 3194.885
810.0343, 3193.015
810.5164, 3193.522
810.9985, 3180.230
811.4807, 3136.236
811.9628, 3097.268
812.4449, 3095.330
812.9270, 3116.684
813.4091, 3122.028
813.8912, 3102.511
814.3734, 3083.865
814.8555, 3071.024
815.3376, 3058.842
815.8197, 3042.419
816.3018, 3025.418
816.7839, 3014.775
817.2661, 3012.041
817.7482, 3008.982
818.2303, 2998.530
818.7124, 2986.806
819.1945, 2981.537
819.6766, 2979.627
820.1588, 2974.480
820.6409, 2964.570
821.1230, 2951.262
821.6051, 2933.951
822.0872, 2917.005
822.5693, 2913.950
823.0515, 2923.141
823.5336, 2922.515
824.0157, 2907.712
824.4978, 2892.334
824.9799, 2885.775
825.4620, 2883.883
825.9442, 2875.609
826.4263, 2858.050
826.9084, 2843.664
827.3906, 2833.742
827.8727, 2825.153
828.3548, 2822.970
828.8369, 2817.627
829.3190, 2791.740
829.8011, 2742.380
830.2833, 2709.410
830.7654, 2707.989
831.2475, 2711.224
831.7296, 2713.594
832.2117, 2713.067
832.6938, 2706.162
833.1760, 2694.416
833.6581, 2684.844
834.1402, 2681.680
834.6223, 2679.274
835.1044, 2673.758
835.5865, 2665.871
836.0687, 2655.462
836.5508, 2643.585
837.0329, 2632.646
837.5150, 2623.727
837.9971, 2618.307
838.4792, 2623.090
838.9614, 2633.055
839.4435, 2625.029
839.9256, 2599.754
840.4077, 2578.324
840.8898, 2567.541
841.3719, 2564.859
841.8541, 2567.813
842.3362, 2576.225
842.8183, 2592.645
843.3004, 2627.944
843.7825, 2633.673
844.2646, 2585.066
844.7468, 2532.183
845.2289, 2507.288
845.7110, 2505.661
846.1931, 2512.824
846.6752, 2537.711
847.1573, 2552.021
847.6395, 2546.052
848.1216, 2538.896
848.6037, 2542.922
849.0858, 2548.878
849.5679, 2541.935
850.0500, 2520.284
850.5322, 2501.769
851.0143, 2496.547
851.4964, 2493.519
851.9785, 2483.375
852.4606, 2472.462
852.9427, 2473.524
853.4249, 2483.542
853.9070, 2482.505
854.3891, 2455.095
854.8712, 2425.904
855.3533, 2430.368
855.8354, 2452.654
856.3176, 2457.065
856.7997, 2443.615
857.2818, 2431.422
857.7639, 2428.945
858.2460, 2428.586
858.7281, 2417.516
859.2103, 2398.767
859.6924, 2397.864
860.1745, 2416.634
860.6566, 2423.400
861.1387, 2406.949
861.6208, 2387.365
862.1030, 2383.768
862.5851, 2392.620
863.0672, 2394.339
863.5493, 2387.200
864.0314, 2376.884
864.5135, 2358.973
864.9957, 2344.497
865.4778, 2337.181
865.9599, 2338.098
866.4420, 2352.520
866.9241, 2387.815
867.4063, 2405.062
867.8884, 2383.480
868.3705, 2364.723
868.8526, 2369.857
869.3347, 2380.680
869.8168, 2374.988
870.2990, 2354.628
870.7811, 2342.659
871.2632, 2355.286
871.7453, 2366.146
872.2274, 2357.043
872.7095, 2342.077
873.1917, 2333.732
873.6738, 2332.714
874.1559, 2337.714
874.6380, 2348.414
875.1201, 2358.102
875.6022, 2359.165
876.0844, 2356.456
876.5665, 2357.105
877.0486, 2360.585
877.5307, 2366.624
878.0128, 2374.231
878.4949, 2375.818
878.9771, 2363.872
879.4592, 2344.061
879.9413, 2328.537
880.4234, 2317.237
880.9055, 2309.669
881.3876, 2305.714
881.8698, 2307.885
882.3519, 2319.394
882.8340, 2330.818
883.3161, 2322.719
883.7982, 2292.910
884.2803, 2278.160
884.7625, 2282.031
885.2446, 2289.977
885.7267, 2300.228
886.2088, 2309.012
886.6909, 2312.770
887.1730, 2311.682
887.6552, 2307.437
888.1373, 2297.185
888.6194, 2288.627
889.1015, 2280.468
889.5836, 2275.861
890.0657, 2276.733
890.5479, 2281.960
891.0300, 2292.788
891.5121, 2312.656
891.9942, 2317.106
892.4763, 2279.454
892.9584, 2252.729
893.4406, 2271.821
893.9227, 2302.589
894.4048, 2306.330
894.8869, 2286.424
895.3690, 2275.894
895.8511, 2293.917
896.3333, 2308.678
896.8154, 2295.296
897.2975, 2275.390
897.7796, 2271.304
898.2617, 2277.970
898.7438, 2279.567
899.2260, 2271.573
899.7081, 2265.827
900.1902, 2277.650
900.6723, 2292.552
901.1544, 2286.194
901.6365, 2269.545
902.1187, 2271.115
902.6008, 2291.769
903.0829, 2304.106
903.5650, 2289.429
904.0471, 2266.475
904.5292, 2268.209
905.0114, 2286.308
905.4935, 2288.139
905.9756, 2273.597
906.4577, 2261.548
906.9398, 2258.969
907.4219, 2263.940
907.9041, 2277.355
908.3862, 2294.651
908.8683, 2288.201
909.3504, 2255.941
909.8325, 2238.075
910.3146, 2242.991
910.7968, 2254.074
911.2789, 2262.107
911.7610, 2266.671
912.2431, 2265.882
912.7252, 2257.958
913.2073, 2255.894
913.6895, 2263.494
914.1716, 2267.519
914.6537, 2263.543
915.1358, 2254.512
915.6179, 2240.286
916.1000, 2222.469
916.5822, 2217.429
917.0643, 2235.283
917.5464, 2248.740
918.0285, 2255.666
918.5106, 2258.729
918.9927, 2260.149
919.4749, 2258.102
919.9570, 2247.542
920.4391, 2226.050
920.9212, 2212.131
921.4033, 2210.489
921.8854, 2213.378
922.3676, 2220.145
922.8497, 2229.030
923.3318, 2245.881
923.8139, 2263.628
924.2960, 2257.341
924.7781, 2204.716
925.2603, 2171.691
925.7424, 2207.438
926.2245, 2246.276
926.7066, 2237.966
927.1887, 2206.042
927.6708, 2188.156
928.1530, 2190.281
928.6351, 2193.653
929.1172, 2186.737
929.5993, 2180.372
930.0814, 2180.551
930.5635, 2186.624
931.0457, 2203.976
931.5278, 2225.884
932.0099, 2234.727
932.4920, 2223.699
932.9741, 2206.310
933.4562, 2188.217
933.9384, 2174.665
934.4205, 2174.936
934.9026, 2183.999
935.3847, 2192.562
935.8668, 2198.121
936.3489, 2199.756
936.8311, 2196.292
937.3132, 2191.261
937.7953, 2189.286
938.2774, 2189.502
938.7595, 2191.658
939.2416, 2194.370
939.7238, 2191.179
940.2059, 2180.223
940.6880, 2168.512
941.1701, 2163.592
941.6522, 2161.890
942.1343, 2153.776
942.6165, 2140.516
943.0986, 2126.591
943.5807, 2113.198
944.0628, 2111.903
944.5449, 2129.949
945.0270, 2152.656
945.5092, 2158.009
945.9913, 2147.507
946.4734, 2130.334
946.9555, 2106.048
947.4376, 2094.051
947.9197, 2099.751
948.4019, 2111.812
948.8840, 2122.997
949.3661, 2131.116
949.8482, 2128.852
950.3303, 2115.058
950.8124, 2103.181
951.2946, 2093.169
951.7767, 2087.911
952.2588, 2089.969
952.7409, 2092.887
953.2230, 2089.025
953.7051, 2079.679
954.1873, 2075.130
954.6694, 2077.758
955.1515, 2075.271
955.6336, 2062.314
956.1157, 2055.090
956.5978, 2066.033
957.0800, 2082.018
957.5621, 2080.375
958.0442, 2059.142
958.5263, 2046.418
959.0084, 2047.980
959.4905, 2044.737
959.9727, 2026.149
960.4548, 2012.766
960.9369, 2025.337
961.4190, 2051.100
961.9011, 2054.507
962.3832, 2025.575
962.8654, 2005.384
963.3475, 1998.669
963.8296, 1993.574
964.3117, 1984.758
964.7938, 1978.178
965.2759, 1980.396
965.7581, 1990.083
966.2402, 1999.156
966.7223, 2012.963
967.2044, 2017.247
967.6865, 2000.555
968.1686, 1987.322
968.6508, 1991.444
969.1329, 2001.787
969.6150, 2006.039
970.0971, 2003.748
970.5792, 1996.603
971.0613, 1978.333
971.5435, 1964.477
972.0256, 1955.396
972.5077, 1953.547
972.9898, 1970.521
973.4719, 1991.550
973.9540, 1986.810
974.4362, 1949.402
974.9183, 1930.332
975.4004, 1956.499
975.8825, 1978.465
976.3646, 1976.709
976.8467, 1968.620
977.3289, 1969.471
977.8110, 1975.136
978.2931, 1972.322
978.7752, 1956.353
979.2573, 1942.469
979.7394, 1935.713
980.2216, 1930.455
980.7037, 1922.516
981.1858, 1916.107
981.6679, 1916.517
982.1500, 1922.590
982.6321, 1928.624
983.1143, 1933.757
983.5964, 1937.327
984.0785, 1938.291
984.5606, 1938.480
985.0427, 1939.383
985.5248, 1939.882
986.0070, 1939.050
986.4891, 1936.487
986.9712, 1930.675
987.4533, 1916.062
987.9354, 1906.646
988.4175, 1914.868
988.8997, 1923.434
989.3818, 1914.776
989.8639, 1900.156
990.3460, 1901.729
990.8281, 1921.630
991.3102, 1933.387
991.7924, 1914.254
992.2745, 1900.705
992.7566, 1915.541
993.2387, 1937.379
993.7208, 1951.964
994.2029, 1957.857
994.6851, 1953.400
995.1672, 1938.031
995.6493, 1927.148
996.1314, 1934.197
996.6135, 1939.316
997.0956, 1928.567
997.5778, 1913.477
998.0599, 1904.858
998.5420, 1902.055
999.0241, 1900.179
999.5062, 1897.760
999.9883, 1897.273
1000.470, 1898.454
1000.953, 1903.498
1001.435, 1919.514
1001.917, 1935.889
1002.399, 1940.805
1002.881, 1935.207
1003.363, 1926.216
1003.845, 1915.306
1004.327, 1904.184
1004.810, 1891.312
1005.292, 1881.101
1005.774, 1876.331
1006.256, 1876.047
1006.738, 1881.398
1007.220, 1890.283
1007.702, 1895.113
1008.184, 1891.992
1008.666, 1888.369
1009.149, 1889.082
1009.631, 1888.983
1010.113, 1881.686
1010.595, 1873.106
1011.077, 1872.366
1011.559, 1879.077
1012.041, 1883.998
1012.523, 1884.013
1013.005, 1881.538
1013.488, 1877.486
1013.970, 1871.404
1014.452, 1855.710
1014.934, 1841.762
1015.416, 1848.288
1015.898, 1875.241
1016.380, 1900.841
1016.862, 1926.963
1017.345, 1935.736
1017.827, 1903.624
1018.309, 1868.671
1018.791, 1857.578
1019.273, 1862.193
1019.755, 1870.260
1020.237, 1879.154
1020.719, 1883.375
1021.201, 1880.825
1021.684, 1873.790
1022.166, 1856.441
1022.648, 1841.526
1023.130, 1838.119
1023.612, 1843.163
1024.094, 1852.419
1024.576, 1865.120
1025.058, 1874.954
1025.541, 1882.258
1026.023, 1883.836
1026.505, 1873.371
1026.987, 1862.175
1027.469, 1854.878
1027.951, 1853.582
1028.433, 1864.585
1028.915, 1889.741
1029.397, 1904.130
1029.880, 1897.917
1030.362, 1887.849
1030.844, 1870.964
1031.326, 1858.630
1031.808, 1863.848
1032.290, 1876.795
1032.772, 1877.233
1033.254, 1861.258
1033.736, 1853.473
1034.219, 1865.661
1034.701, 1873.141
1035.183, 1865.642
1035.665, 1857.438
1036.147, 1860.954
1036.629, 1869.144
1037.111, 1866.709
1037.593, 1850.476
1038.076, 1839.112
1038.558, 1835.257
1039.040, 1832.589
1039.522, 1828.815
1040.004, 1827.592
1040.486, 1834.406
1040.968, 1843.727
1041.450, 1843.020
1041.932, 1829.142
1042.415, 1824.636
1042.897, 1835.222
1043.379, 1844.370
1043.861, 1852.032
1044.343, 1852.619
1044.825, 1837.488
1045.307, 1817.145
1045.789, 1814.489
1046.271, 1832.680
1046.754, 1839.793
1047.236, 1832.445
1047.718, 1822.955
1048.200, 1811.687
1048.682, 1802.935
1049.164, 1798.258
1049.646, 1799.770
1050.128, 1813.458
1050.611, 1840.176
1051.093, 1857.030
1051.575, 1863.027
1052.057, 1863.539
1052.539, 1858.018
1053.021, 1854.970
1053.503, 1860.818
1053.985, 1868.942
1054.468, 1866.882
1054.950, 1855.362
1055.432, 1846.741
1055.914, 1841.214
1056.396, 1830.554
1056.878, 1812.449
1057.360, 1804.978
1057.842, 1820.120
1058.324, 1842.297
1058.807, 1844.454
1059.289, 1832.871
1059.771, 1845.000
1060.253, 1876.307
1060.735, 1888.666
1061.217, 1877.021
1061.699, 1862.849
1062.181, 1857.577
1062.663, 1854.285
1063.146, 1841.787
1063.628, 1825.584
1064.110, 1821.512
1064.592, 1826.257
1065.074, 1830.233
1065.556, 1831.719
1066.038, 1829.376
1066.520, 1822.628
1067.003, 1819.382
1067.485, 1833.518
1067.967, 1851.729
1068.449, 1853.664
1068.931, 1844.257
1069.413, 1826.522
1069.895, 1806.747
1070.377, 1802.009
1070.859, 1818.392
1071.342, 1841.232
1071.824, 1871.403
1072.306, 1889.630
1072.788, 1862.832
1073.270, 1823.856
1073.752, 1814.629
1074.234, 1829.366
1074.716, 1847.231
1075.199, 1861.731
1075.681, 1864.907
1076.163, 1841.886
1076.645, 1819.834
1077.127, 1816.042
1077.609, 1817.551
1078.091, 1811.260
1078.573, 1802.160
1079.056, 1801.538
1079.538, 1811.029
1080.020, 1820.889
1080.502, 1834.314
1080.984, 1839.138
1081.466, 1822.703
1081.948, 1806.578
1082.430, 1804.492
1082.912, 1810.580
1083.395, 1818.384
1083.877, 1827.191
1084.359, 1827.156
1084.841, 1804.534
1085.323, 1793.981
1085.805, 1806.607
1086.287, 1818.758
1086.769, 1821.426
1087.251, 1818.501
1087.734, 1813.690
1088.216, 1807.194
1088.698, 1799.745
1089.180, 1787.795
1089.662, 1787.093
1090.144, 1802.304
1090.626, 1816.673
1091.108, 1824.832
1091.591, 1828.668
1092.073, 1829.257
1092.555, 1827.800
1093.037, 1829.831
1093.519, 1835.774
1094.001, 1828.247
1094.483, 1805.790
1094.965, 1797.461
1095.448, 1811.926
1095.930, 1828.704
1096.412, 1832.433
1096.894, 1828.348
1097.376, 1825.360
1097.858, 1823.147
1098.340, 1821.023
1098.822, 1818.555
1099.304, 1812.487
1099.786, 1803.217
1100.269, 1798.452
1100.751, 1802.972
1101.233, 1808.967
1101.715, 1807.489
1102.197, 1801.831
1102.679, 1794.102
1103.161, 1787.279
1103.643, 1785.231
1104.126, 1789.493
1104.608, 1805.818
1105.090, 1837.032
1105.572, 1859.338
1106.054, 1850.896
1106.536, 1834.291
1107.018, 1822.918
1107.500, 1814.235
1107.983, 1805.226
1108.465, 1796.553
1108.947, 1789.821
1109.429, 1785.361
1109.911, 1784.286
1110.393, 1787.085
1110.875, 1793.109
1111.357, 1806.427
1111.839, 1818.299
1112.322, 1823.482
1112.804, 1824.076
1113.286, 1822.420
1113.768, 1818.724
1114.250, 1816.682
1114.732, 1821.745
1115.214, 1816.694
1115.696, 1789.392
1116.178, 1774.754
1116.661, 1791.748
1117.143, 1815.547
1117.625, 1821.650
1118.107, 1814.038
1118.589, 1806.208
1119.071, 1797.321
1119.553, 1797.042
1120.035, 1806.652
1120.518, 1812.590
1121.000, 1810.745
1121.482, 1811.694
1121.964, 1824.161
1122.446, 1838.728
1122.928, 1835.475
1123.410, 1820.168
1123.892, 1816.722
1124.375, 1822.103
1124.857, 1822.417
1125.339, 1816.385
1125.821, 1812.585
1126.303, 1815.134
1126.785, 1816.891
1127.267, 1807.874
1127.749, 1796.791
1128.231, 1797.548
1128.714, 1801.122
1129.196, 1789.070
1129.678, 1769.409
1130.160, 1767.320
1130.642, 1787.899
1131.124, 1805.044
1131.606, 1800.414
1132.088, 1796.675
1132.570, 1809.073
1133.053, 1820.982
1133.535, 1823.234
1134.017, 1816.177
1134.499, 1794.449
1134.981, 1761.823
1135.463, 1748.455
1135.945, 1773.466
1136.427, 1787.535
1136.910, 1778.129
1137.392, 1775.208
1137.874, 1793.750
1138.356, 1812.673
1138.838, 1813.465
1139.320, 1802.648
1139.802, 1796.902
1140.284, 1796.088
1140.766, 1804.344
1141.249, 1824.113
1141.731, 1828.745
1142.213, 1811.622
1142.695, 1797.900
1143.177, 1801.993
1143.659, 1814.065
1144.141, 1820.921
1144.623, 1825.136
1145.105, 1838.687
1145.588, 1855.324
1146.070, 1850.758
1146.552, 1828.190
1147.034, 1809.038
1147.516, 1800.831
1147.998, 1800.249
1148.480, 1806.128
1148.962, 1815.987
1149.445, 1832.732
1149.927, 1847.531
1150.409, 1849.667
1150.891, 1844.007
1151.373, 1837.316
1151.855, 1831.395
1152.337, 1827.655
1152.819, 1825.713
1153.302, 1828.445
1153.784, 1840.566
1154.266, 1852.416
1154.748, 1864.045
1155.230, 1870.301
1155.712, 1862.042
1156.194, 1847.545
1156.676, 1844.276
1157.158, 1853.695
1157.641, 1856.346
1158.123, 1846.780
1158.605, 1851.112
1159.087, 1878.808
1159.569, 1895.089
1160.051, 1881.561
1160.533, 1861.647
1161.015, 1863.505
1161.497, 1877.930
1161.980, 1875.860
1162.462, 1860.313
1162.944, 1844.142
1163.426, 1830.197
1163.908, 1831.726
1164.390, 1849.070
1164.872, 1856.790
1165.354, 1837.006
1165.837, 1815.991
1166.319, 1830.052
1166.801, 1848.911
1167.283, 1832.439
1167.765, 1802.722
1168.247, 1790.599
1168.729, 1794.700
1169.211, 1799.719
1169.693, 1801.704
1170.176, 1807.558
1170.658, 1826.836
1171.140, 1839.901
1171.622, 1838.405
1172.104, 1831.918
1172.586, 1819.019
1173.068, 1809.472
1173.550, 1818.443
1174.032, 1841.816
1174.515, 1852.209
1174.997, 1846.779
1175.479, 1837.202
1175.961, 1820.376
1176.443, 1818.458
1176.925, 1840.001
1177.407, 1857.990
1177.889, 1852.482
1178.372, 1837.334
1178.854, 1837.278
1179.336, 1846.249
1179.818, 1840.364
1180.300, 1826.552
1180.782, 1830.146
1181.264, 1848.573
1181.746, 1857.989
1182.229, 1850.771
1182.711, 1844.261
1183.193, 1854.902
1183.675, 1862.615
1184.157, 1846.146
1184.639, 1825.979
1185.121, 1818.496
1185.603, 1819.783
1186.085, 1825.738
1186.568, 1834.052
1187.050, 1837.430
1187.532, 1830.540
1188.014, 1831.377
1188.496, 1850.340
1188.978, 1861.646
1189.460, 1855.647
1189.942, 1849.580
1190.424, 1855.279
1190.907, 1863.692
1191.389, 1859.962
1191.871, 1846.628
1192.353, 1840.129
1192.835, 1840.355
1193.317, 1847.214
1193.799, 1859.425
1194.281, 1861.624
1194.764, 1850.083
1195.246, 1840.161
1195.728, 1842.163
1196.210, 1854.086
1196.692, 1887.082
1197.174, 1916.586
1197.656, 1900.777
1198.138, 1867.076
1198.620, 1855.162
1199.103, 1864.992
1199.585, 1883.859
1200.067, 1909.430
1200.549, 1922.242
1201.031, 1909.014
1201.513, 1893.002
1201.995, 1867.000
1202.477, 1855.867
1202.959, 1880.626
1203.442, 1915.396
1203.924, 1935.045
1204.406, 1941.445
1204.888, 1939.463
1205.370, 1926.735
1205.852, 1929.028
1206.334, 1947.401
1206.816, 1953.019
1207.299, 1940.499
1207.781, 1940.470
1208.263, 1969.757
1208.745, 2004.016
1209.227, 2013.766
1209.709, 2013.722
1210.191, 2022.103
1210.673, 2039.642
1211.156, 2075.850
1211.638, 2118.843
1212.120, 2140.763
1212.602, 2141.307
1213.084, 2148.451
1213.566, 2170.701
1214.048, 2204.297
1214.530, 2258.837
1215.012, 2310.147
1215.495, 2340.031
1215.977, 2372.642
1216.459, 2424.266
1216.941, 2489.499
1217.423, 2559.919
1217.905, 2635.373
1218.387, 2710.040
1218.869, 2782.670
1219.351, 2872.915
1219.834, 2982.650
1220.316, 3096.953
1220.798, 3211.459
1221.280, 3329.654
1221.762, 3452.812
1222.244, 3586.335
1222.726, 3742.453
1223.208, 3908.827
1223.691, 4075.876
1224.173, 4234.594
1224.655, 4391.167
1225.137, 4522.867
1225.619, 4578.753
1226.101, 4548.203
1226.583, 4478.907
1227.065, 4393.924
1227.547, 4258.353
1228.030, 4025.269
1228.512, 3792.773
1228.994, 3593.654
1229.476, 3407.900
1229.958, 3216.862
1230.440, 3029.979
1230.922, 2872.076
1231.404, 2742.633
1231.886, 2634.911
1232.369, 2548.025
1232.851, 2466.089
1233.333, 2388.833
1233.815, 2333.019
1234.297, 2303.137
1234.779, 2275.921
1235.261, 2232.404
1235.743, 2188.974
1236.226, 2165.401
1236.708, 2145.817
1237.190, 2109.286
1237.672, 2071.754
1238.154, 2058.262
1238.636, 2061.250
1239.118, 2054.664
1239.600, 2033.533
1240.083, 2015.286
1240.565, 2003.720
1241.047, 1988.836
1241.529, 1965.994
1242.011, 1949.973
1242.493, 1947.066
1242.975, 1950.113
1243.457, 1953.816
1243.939, 1956.157
1244.422, 1950.719
1244.904, 1940.969
1245.386, 1940.417
1245.868, 1945.646
1246.350, 1947.992
1246.832, 1945.830
1247.314, 1936.653
1247.796, 1920.817
1248.278, 1910.636
1248.761, 1915.719
1249.243, 1922.154
1249.725, 1923.412
1250.207, 1924.336
1250.689, 1932.686
1251.171, 1936.913
1251.653, 1918.547
1252.135, 1893.187
1252.618, 1895.979
1253.100, 1926.893
1253.582, 1941.584
1254.064, 1939.359
1254.546, 1926.701
1255.028, 1904.756
1255.510, 1893.678
1255.992, 1899.519
1256.474, 1909.878
1256.957, 1916.426
1257.439, 1920.811
1257.921, 1923.527
1258.403, 1926.453
1258.885, 1936.418
1259.367, 1943.986
1259.849, 1931.889
1260.331, 1910.625
1260.813, 1904.691
1261.296, 1916.703
1261.778, 1925.333
1262.260, 1926.394
1262.742, 1926.662
1263.224, 1922.667
1263.706, 1928.748
1264.188, 1952.679
1264.670, 1970.286
1265.153, 1965.358
1265.635, 1950.338
1266.117, 1939.597
1266.599, 1935.690
1267.081, 1951.486
1267.563, 1975.779
1268.045, 1982.711
1268.527, 1976.348
1269.010, 1968.752
1269.492, 1963.558
1269.974, 1963.720
1270.456, 1972.270
1270.938, 1975.699
1271.420, 1962.216
1271.902, 1953.096
##END=



