##NAMES=Meneghinite
##RRUFFID=R070093
##IDEAL CHEMISTRY=Pb^2+^_13_Cu^1+^Sb^3+^_7_S^2-^_24_
##LOCALITY=Kalkar Quarry, Santa Cruz, Santa Cruz County, California, USA
##OWNER=RRUFF
##SOURCE=James Shigley
##DESCRIPTION=Elongated silver-gray metallic crystals embedded in quartz and associated with calcite
##STATUS=The identification of this mineral has been confirmed by X-ray diffraction and chemical analysis
##URL=rruff.info/R070093
##MEASURED CHEMISTRY=(Pb_12.20_Sn_0.80_)_Σ=13_Cu_1.00_(Sb_6.97_As_0.03_)_Σ=7_S_24.00_
147.7700, 655.2188
148.2522, 653.7120
148.7343, 651.7686
149.2164, 653.1293
149.6985, 659.4933
150.1806, 675.4100
150.6627, 688.3777
151.1449, 698.1454
151.6270, 704.8168
152.1091, 708.6389
152.5912, 706.7855
153.0733, 704.1868
153.5554, 702.9397
154.0376, 699.9302
154.5197, 702.1841
155.0018, 714.9117
155.4839, 735.5405
155.9660, 750.6168
156.4481, 756.7195
156.9303, 756.8050
157.4124, 753.0362
157.8945, 736.8090
158.3766, 725.4962
158.8587, 728.6438
159.3408, 745.3711
159.8230, 755.4550
160.3051, 743.6984
160.7872, 724.7933
161.2693, 713.3871
161.7514, 720.2806
162.2335, 730.8248
162.7157, 737.8656
163.1978, 740.5803
163.6799, 744.5464
164.1620, 755.9629
164.6441, 769.8532
165.1262, 778.7097
165.6084, 775.0022
166.0905, 768.1050
166.5726, 764.3634
167.0547, 764.8084
167.5368, 766.9569
168.0189, 769.4267
168.5011, 772.4099
168.9832, 776.2986
169.4653, 782.5170
169.9474, 789.1760
170.4295, 794.8399
170.9116, 800.0070
171.3938, 802.4314
171.8759, 796.5139
172.3580, 784.9979
172.8401, 777.5414
173.3222, 786.0458
173.8043, 800.9372
174.2865, 807.7204
174.7686, 798.4830
175.2507, 786.1930
175.7328, 786.8934
176.2149, 799.2103
176.6970, 812.6226
177.1792, 819.5596
177.6613, 821.7114
178.1434, 822.3239
178.6255, 820.7369
179.1076, 819.2573
179.5897, 823.0279
180.0719, 832.0272
180.5540, 839.8345
181.0361, 838.0723
181.5182, 829.8248
182.0003, 825.1980
182.4824, 830.3336
182.9646, 840.8228
183.4467, 845.8293
183.9288, 844.8475
184.4109, 843.3309
184.8930, 848.3786
185.3751, 858.9116
185.8573, 868.2511
186.3394, 872.8182
186.8215, 873.8797
187.3036, 875.3383
187.7857, 876.8005
188.2678, 880.2195
188.7500, 891.5891
189.2321, 910.4867
189.7142, 923.5597
190.1963, 920.7177
190.6784, 904.6423
191.1605, 895.2364
191.6427, 893.7703
192.1248, 897.7100
192.6069, 904.8505
193.0890, 915.4724
193.5711, 923.7089
194.0532, 923.8707
194.5354, 916.5087
195.0175, 915.8099
195.4996, 924.6310
195.9817, 937.9965
196.4638, 944.9164
196.9459, 944.6686
197.4281, 942.6610
197.9102, 940.0715
198.3923, 936.5229
198.8744, 941.7672
199.3565, 960.7426
199.8386, 986.3796
200.3208, 996.8513
200.8029, 989.5654
201.2850, 976.8730
201.7671, 965.5273
202.2492, 954.8820
202.7313, 950.7112
203.2135, 955.2070
203.6956, 966.5184
204.1777, 977.3661
204.6598, 988.4395
205.1419, 997.2452
205.6240, 1001.320
206.1062, 999.8834
206.5883, 997.2814
207.0704, 993.8337
207.5525, 989.7166
208.0346, 986.1461
208.5167, 982.8856
208.9989, 980.6255
209.4810, 980.9252
209.9631, 985.5018
210.4452, 986.4794
210.9273, 980.9205
211.4094, 969.2175
211.8916, 962.1602
212.3737, 962.0960
212.8558, 963.2418
213.3379, 958.6250
213.8200, 945.0765
214.3021, 934.8518
214.7843, 931.9055
215.2664, 936.5382
215.7485, 938.2056
216.2306, 935.7159
216.7127, 931.6270
217.1948, 929.1753
217.6770, 929.7734
218.1591, 928.6981
218.6412, 923.6566
219.1233, 913.7958
219.6054, 908.9688
220.0875, 912.1053
220.5697, 917.5936
221.0518, 917.4492
221.5339, 908.4200
222.0160, 900.2031
222.4981, 895.3306
222.9802, 893.9341
223.4624, 895.5622
223.9445, 903.2936
224.4266, 911.7616
224.9087, 911.5192
225.3908, 895.9700
225.8729, 883.7786
226.3551, 882.2108
226.8372, 895.3505
227.3193, 901.9510
227.8014, 899.6826
228.2835, 892.3013
228.7657, 885.8025
229.2478, 879.1194
229.7299, 874.9354
230.2120, 873.9254
230.6941, 875.6977
231.1762, 882.6169
231.6584, 899.1086
232.1405, 918.6605
232.6226, 927.8151
233.1047, 921.5479
233.5868, 912.6456
234.0689, 905.3370
234.5511, 899.0547
235.0332, 895.9869
235.5153, 897.1054
235.9974, 901.0589
236.4795, 904.9076
236.9616, 908.0454
237.4438, 912.0167
237.9259, 917.8936
238.4080, 927.7568
238.8901, 934.2148
239.3722, 937.2687
239.8543, 936.8581
240.3365, 931.8320
240.8186, 916.4521
241.3007, 904.8021
241.7828, 903.7625
242.2649, 919.7853
242.7470, 931.1872
243.2292, 937.3509
243.7113, 939.0566
244.1934, 937.6555
244.6755, 930.0770
245.1576, 923.8950
245.6397, 923.1309
246.1219, 932.3546
246.6040, 936.3262
247.0861, 933.0674
247.5682, 925.0302
248.0503, 918.0952
248.5324, 909.9874
249.0146, 906.5386
249.4967, 911.9355
249.9788, 934.0426
250.4609, 946.9849
250.9430, 950.1216
251.4251, 944.2179
251.9073, 929.2414
252.3894, 896.3005
252.8715, 868.3739
253.3536, 857.0238
253.8357, 869.5474
254.3178, 881.1427
254.8000, 892.5342
255.2821, 902.5318
255.7642, 907.6201
256.2463, 907.1268
256.7284, 902.9581
257.2105, 894.9551
257.6927, 879.6801
258.1748, 870.0727
258.6569, 868.3477
259.1390, 871.5349
259.6211, 871.4935
260.1032, 866.9404
260.5854, 861.6249
261.0675, 857.3037
261.5496, 854.4578
262.0317, 851.0287
262.5138, 846.7057
262.9959, 841.9314
263.4781, 837.4750
263.9602, 832.8654
264.4423, 829.6935
264.9244, 830.2749
265.4065, 837.7012
265.8886, 836.3306
266.3708, 822.1545
266.8529, 801.4937
267.3350, 790.2309
267.8171, 791.3544
268.2992, 793.8004
268.7813, 792.5167
269.2635, 786.9933
269.7456, 779.8068
270.2277, 770.4766
270.7098, 760.0756
271.1919, 751.8199
271.6740, 746.8523
272.1562, 740.2147
272.6383, 727.7510
273.1204, 707.7152
273.6025, 695.1646
274.0846, 691.9706
274.5667, 694.4294
275.0489, 696.3804
275.5310, 698.3748
276.0131, 697.2941
276.4952, 691.0643
276.9773, 679.3778
277.4594, 666.3698
277.9416, 651.1636
278.4237, 636.0963
278.9058, 624.9161
279.3879, 617.8281
279.8700, 613.0437
280.3521, 610.7003
280.8343, 610.7626
281.3164, 609.1315
281.7985, 605.4430
282.2806, 600.7079
282.7627, 596.5515
283.2448, 592.9833
283.7270, 589.3685
284.2091, 586.8631
284.6912, 584.9578
285.1733, 576.3299
285.6554, 559.3251
286.1375, 540.8177
286.6197, 531.4525
287.1018, 530.8167
287.5839, 530.7050
288.0660, 527.9362
288.5481, 522.8527
289.0302, 516.2106
289.5124, 507.4710
289.9945, 499.9384
290.4766, 499.3380
290.9587, 504.6735
291.4408, 508.7420
291.9229, 506.9443
292.4051, 501.7531
292.8872, 501.5838
293.3693, 507.0953
293.8514, 512.2390
294.3335, 508.6402
294.8156, 498.5312
295.2978, 490.9535
295.7799, 491.1193
296.2620, 495.4652
296.7441, 497.5020
297.2262, 497.2122
297.7083, 494.5795
298.1905, 486.4312
298.6726, 475.6653
299.1547, 469.9541
299.6368, 474.4796
300.1189, 483.9997
300.6010, 492.6469
301.0832, 500.3492
301.5653, 504.0559
302.0474, 497.3644
302.5295, 485.4634
303.0116, 477.6042
303.4937, 477.6944
303.9759, 482.2133
304.4580, 488.8311
304.9401, 497.2646
305.4222, 504.8611
305.9043, 510.2099
306.3864, 513.5372
306.8686, 515.1396
307.3507, 514.2990
307.8328, 512.8283
308.3149, 511.1798
308.7970, 509.7991
309.2791, 510.5770
309.7613, 516.9515
310.2434, 524.9917
310.7255, 530.7313
311.2076, 532.3040
311.6897, 533.0454
312.1718, 535.2899
312.6540, 538.3790
313.1361, 540.3719
313.6182, 539.7525
314.1003, 538.0631
314.5824, 536.2957
315.0645, 534.3427
315.5467, 532.9814
316.0288, 531.6248
316.5109, 531.0896
316.9930, 533.0856
317.4751, 541.9373
317.9572, 550.7914
318.4394, 555.9745
318.9215, 556.6759
319.4036, 554.9225
319.8857, 548.0920
320.3678, 539.7387
320.8499, 535.2938
321.3321, 540.4418
321.8142, 546.0679
322.2963, 548.2198
322.7784, 545.4924
323.2605, 544.2338
323.7426, 546.2902
324.2248, 549.9974
324.7069, 553.4049
325.1890, 557.0027
325.6711, 559.5927
326.1532, 561.0441
326.6353, 561.4114
327.1175, 560.1167
327.5996, 554.9370
328.0817, 549.2139
328.5638, 545.8364
329.0459, 544.1196
329.5280, 545.6434
330.0102, 552.4277
330.4923, 564.3147
330.9744, 572.3172
331.4565, 575.4838
331.9386, 575.7689
332.4207, 574.5866
332.9029, 572.3023
333.3850, 567.5852
333.8671, 558.2310
334.3492, 546.0052
334.8313, 540.4803
335.3134, 545.2297
335.7956, 550.6151
336.2777, 550.5540
336.7598, 543.5306
337.2419, 536.1962
337.7240, 528.4459
338.2061, 520.8746
338.6883, 516.2978
339.1704, 515.9625
339.6525, 513.8997
340.1346, 505.9726
340.6167, 491.7704
341.0988, 479.1046
341.5810, 468.5283
342.0631, 459.2761
342.5452, 450.1840
343.0273, 441.0670
343.5094, 433.4179
343.9915, 429.0804
344.4737, 427.3518
344.9558, 422.5647
345.4379, 414.3949
345.9200, 404.5217
346.4021, 393.1271
346.8842, 380.9448
347.3664, 372.9312
347.8485, 373.8189
348.3306, 379.3277
348.8127, 379.0521
349.2948, 372.8625
349.7769, 364.8499
350.2591, 357.4149
350.7412, 351.0371
351.2233, 347.3745
351.7054, 348.5164
352.1876, 351.1255
352.6697, 351.6704
353.1518, 350.1428
353.6339, 346.4096
354.1160, 337.3499
354.5981, 327.0414
355.0803, 321.4311
355.5624, 324.4134
356.0445, 327.9563
356.5266, 323.9675
357.0087, 314.9468
357.4908, 308.5822
357.9730, 312.8312
358.4551, 319.0436
358.9372, 319.4642
359.4193, 310.2125
359.9014, 303.0701
360.3835, 306.9656
360.8657, 316.3198
361.3478, 321.5579
361.8299, 316.3963
362.3120, 300.1616
362.7941, 310.2138
363.2762, 315.5545
363.7584, 316.4368
364.2405, 299.5074
364.7226, 305.5782
365.2047, 302.4316
365.6868, 298.9070
366.1689, 308.2149
366.6511, 293.8762
367.1332, 302.9806
367.6153, 302.7270
368.0974, 306.7563
368.5795, 301.5114
369.0616, 299.1309
369.5438, 306.0276
370.0259, 307.7876
370.5080, 301.4750
370.9901, 305.7766
371.4722, 291.1140
371.9543, 293.0927
372.4365, 302.2513
372.9186, 296.4050
373.4007, 300.8762
373.8828, 301.4179
374.3649, 284.1020
374.8470, 296.4592
375.3292, 297.5920
375.8113, 293.1309
376.2934, 288.9911
376.7755, 287.9762
377.2576, 290.1912
377.7397, 291.9295
378.2219, 293.4578
378.7040, 293.7523
379.1861, 289.5531
379.6682, 280.8697
380.1503, 276.7325
380.6324, 282.2396
381.1146, 293.9485
381.5967, 301.4587
382.0788, 304.6848
382.5609, 304.1418
383.0430, 297.6480
383.5251, 287.3987
384.0073, 280.3662
384.4894, 279.1536
384.9715, 280.7686
385.4536, 281.4739
385.9357, 281.3698
386.4178, 281.0143
386.9000, 281.4763
387.3821, 281.6435
387.8642, 279.1959
388.3463, 272.5220
388.8284, 267.4485
389.3105, 270.7348
389.7927, 278.9663
390.2748, 285.0723
390.7569, 284.1189
391.2390, 281.1610
391.7211, 279.1552
392.2032, 278.3299
392.6854, 278.5415
393.1675, 281.0497
393.6496, 284.0579
394.1317, 285.6537
394.6138, 282.7501
395.0959, 280.9239
395.5781, 283.3168
396.0602, 289.4044
396.5423, 292.4454
397.0244, 289.4769
397.5065, 284.3251
397.9886, 279.2561
398.4708, 272.9806
398.9529, 268.5396
399.4350, 265.8919
399.9171, 265.0928
400.3992, 266.7073
400.8813, 274.7528
401.3635, 279.9220
401.8456, 277.2010
402.3277, 262.7568
402.8098, 256.5972
403.2919, 262.6371
403.7740, 272.8638
404.2562, 275.2890
404.7383, 267.1870
405.2204, 261.2725
405.7025, 261.7480
406.1846, 267.6645
406.6667, 271.6683
407.1489, 273.5777
407.6310, 274.3422
408.1131, 275.2096
408.5952, 276.0234
409.0773, 274.0892
409.5594, 267.4800
410.0416, 259.8595
410.5237, 259.8446
411.0058, 266.5631
411.4879, 270.8015
411.9700, 261.7677
412.4521, 247.0133
412.9343, 243.5413
413.4164, 254.5536
413.8985, 268.7418
414.3806, 276.1264
414.8627, 278.3617
415.3448, 278.7691
415.8270, 278.0158
416.3091, 276.6013
416.7912, 275.4920
417.2733, 274.6106
417.7554, 271.7822
418.2375, 262.4664
418.7197, 252.1844
419.2018, 246.0152
419.6839, 247.7236
420.1660, 251.1106
420.6481, 255.6039
421.1302, 260.4882
421.6124, 263.0852
422.0945, 261.3799
422.5766, 258.4501
423.0587, 255.1619
423.5408, 249.5106
424.0229, 248.1288
424.5051, 256.8636
424.9872, 268.0182
425.4693, 270.4048
425.9514, 255.8851
426.4335, 244.7368
426.9156, 242.3334
427.3978, 248.7500
427.8799, 254.3790
428.3620, 259.3717
428.8441, 263.2633
429.3262, 265.7649
429.8083, 266.9142
430.2905, 266.1941
430.7726, 263.0677
431.2547, 258.4292
431.7368, 254.5146
432.2189, 251.3807
432.7010, 248.3741
433.1832, 243.4188
433.6653, 237.7519
434.1474, 239.8320
434.6295, 251.5024
435.1116, 263.0415
435.5938, 259.7626
436.0759, 246.2728
436.5580, 237.2867
437.0401, 241.3364
437.5222, 251.1367
438.0043, 260.2239
438.4865, 268.1434
438.9686, 270.7905
439.4507, 258.4371
439.9328, 242.3705
440.4149, 235.7632
440.8970, 246.7456
441.3792, 257.7349
441.8613, 258.2029
442.3434, 252.0405
442.8255, 247.5493
443.3076, 248.5878
443.7897, 251.1380
444.2719, 253.9075
444.7540, 257.0495
445.2361, 258.9072
445.7182, 258.9168
446.2003, 257.6487
446.6824, 255.5740
447.1646, 250.6102
447.6467, 247.6481
448.1288, 248.2595
448.6109, 251.6706
449.0930, 253.3271
449.5751, 253.1588
450.0573, 251.3210
450.5394, 246.7968
451.0215, 237.8431
451.5036, 234.7163
451.9857, 239.4337
452.4678, 247.2396
452.9500, 251.0490
453.4321, 250.7341
453.9142, 247.8426
454.3963, 241.0045
454.8784, 232.2912
455.3605, 229.2596
455.8427, 232.0640
456.3248, 236.9535
456.8069, 241.5577
457.2890, 245.7158
457.7711, 249.3730
458.2532, 253.3741
458.7354, 255.2006
459.2175, 249.4575
459.6996, 238.9441
460.1817, 231.5453
460.6638, 236.1724
461.1459, 242.5644
461.6281, 241.1127
462.1102, 229.9944
462.5923, 221.9075
463.0744, 225.4756
463.5565, 233.9220
464.0386, 240.4380
464.5208, 242.4847
465.0029, 243.2348
465.4850, 242.2894
465.9671, 240.2057
466.4492, 240.1013
466.9313, 245.6044
467.4135, 250.0278
467.8956, 250.1926
468.3777, 243.2741
468.8598, 239.8476
469.3419, 242.1529
469.8240, 246.0336
470.3062, 245.0576
470.7883, 237.2345
471.2704, 231.2322
471.7525, 229.3065
472.2346, 231.0515
472.7167, 235.0780
473.1989, 241.8126
473.6810, 247.6891
474.1631, 248.9073
474.6452, 246.5106
475.1273, 246.4286
475.6094, 250.2665
476.0916, 254.0282
476.5737, 251.7282
477.0558, 244.7756
477.5379, 237.6678
478.0200, 230.6904
478.5021, 225.7450
478.9843, 226.6087
479.4664, 233.0251
479.9485, 237.7682
480.4306, 234.1490
480.9127, 227.7639
481.3948, 223.9314
481.8770, 224.9649
482.3591, 227.2891
482.8412, 231.5660
483.3233, 236.2951
483.8054, 238.0022
484.2875, 231.8159
484.7697, 226.3830
485.2518, 225.2457
485.7339, 229.4477
486.2160, 231.6148
486.6981, 230.5357
487.1802, 228.5034
487.6624, 227.1440
488.1445, 225.8115
488.6266, 227.3037
489.1087, 233.3008
489.5908, 241.5828
490.0729, 245.6913
490.5551, 245.1727
491.0372, 243.2850
491.5193, 241.0398
492.0014, 238.6641
492.4835, 237.6991
492.9656, 238.3050
493.4478, 239.4543
493.9299, 240.8683
494.4120, 242.0188
494.8941, 241.4393
495.3762, 238.2062
495.8583, 233.6258
496.3405, 227.1353
496.8226, 219.9853
497.3047, 216.9022
497.7868, 225.9843
498.2689, 236.3720
498.7510, 238.5922
499.2332, 229.5670
499.7153, 223.1245
500.1974, 226.5736
500.6795, 234.1804
501.1616, 239.8199
501.6437, 243.6663
502.1259, 244.0978
502.6080, 239.6101
503.0901, 231.1660
503.5722, 222.4975
504.0543, 210.8407
504.5364, 202.8527
505.0186, 201.9699
505.5007, 209.6421
505.9828, 217.7993
506.4649, 227.5043
506.9470, 235.7344
507.4291, 237.6895
507.9113, 233.2022
508.3934, 229.5160
508.8755, 229.1661
509.3576, 230.1549
509.8397, 227.1737
510.3218, 220.6606
510.8040, 215.2333
511.2861, 214.4688
511.7682, 216.5621
512.2503, 219.5073
512.7324, 223.4633
513.2145, 225.4020
513.6967, 220.1730
514.1788, 212.2948
514.6609, 208.1026
515.1430, 214.1734
515.6251, 219.9650
516.1072, 220.7397
516.5894, 217.4790
517.0715, 214.3030
517.5536, 208.5086
518.0357, 206.0044
518.5178, 211.2812
518.9999, 229.8397
519.4821, 238.6668
519.9642, 232.3382
520.4463, 220.7533
520.9284, 214.1965
521.4105, 213.9479
521.8926, 214.9116
522.3748, 216.6715
522.8569, 218.8236
523.3390, 220.2251
523.8211, 220.8765
524.3032, 220.7711
524.7853, 218.8311
525.2675, 216.0125
525.7496, 216.6286
526.2317, 221.1677
526.7138, 225.6328
527.1959, 225.2612
527.6780, 222.1189
528.1602, 220.3171
528.6423, 223.0690
529.1244, 224.7957
529.6065, 219.3906
530.0886, 209.4171
530.5707, 201.8934
531.0529, 201.9322
531.5350, 203.4766
532.0171, 202.9445
532.4992, 199.3557
532.9813, 198.4513
533.4634, 204.9207
533.9456, 211.9598
534.4277, 214.0113
534.9098, 204.9612
535.3919, 202.3341
535.8740, 211.0684
536.3561, 225.1306
536.8383, 228.7720
537.3204, 219.4424
537.8025, 210.1162
538.2846, 205.3297
538.7667, 204.8893
539.2488, 210.0248
539.7310, 221.6403
540.2131, 229.7582
540.6952, 220.9710
541.1773, 202.0852
541.6594, 191.1175
542.1415, 192.4589
542.6237, 199.0435
543.1058, 207.7036
543.5879, 216.2266
544.0700, 220.2760
544.5521, 213.3542
545.0342, 205.4444
545.5164, 201.9910
545.9985, 202.9289
546.4806, 205.1479
546.9627, 212.1608
547.4448, 216.9461
547.9269, 214.8246
548.4091, 198.5991
548.8912, 189.3221
549.3733, 189.6292
549.8554, 195.1282
550.3375, 200.4567
550.8196, 205.9470
551.3018, 210.2563
551.7839, 212.9273
552.2660, 214.2426
552.7481, 215.1879
553.2302, 215.7876
553.7123, 215.6578
554.1945, 214.0958
554.6766, 211.6145
555.1587, 209.8557
555.6408, 208.9845
556.1229, 208.1839
556.6050, 206.1970
557.0872, 203.9237
557.5693, 202.9375
558.0514, 205.0232
558.5335, 206.5851
559.0156, 203.7332
559.4977, 198.6948
559.9799, 196.6993
560.4620, 201.2193
560.9441, 207.3677
561.4262, 215.0472
561.9083, 224.9908
562.3904, 227.9579
562.8726, 218.2379
563.3547, 207.2033
563.8368, 202.3609
564.3189, 205.5015
564.8010, 209.5804
565.2831, 215.7185
565.7653, 220.6393
566.2474, 216.8843
566.7295, 204.2638
567.2116, 195.2289
567.6937, 194.9863
568.1758, 199.9734
568.6580, 203.4850
569.1401, 205.5362
569.6222, 206.5036
570.1043, 205.5719
570.5864, 204.2008
571.0685, 204.8472
571.5507, 208.3171
572.0328, 209.5842
572.5149, 201.6477
572.9970, 192.0161
573.4791, 188.3569
573.9612, 198.6104
574.4434, 208.0823
574.9255, 215.4339
575.4076, 220.1130
575.8897, 220.4152
576.3718, 213.2069
576.8539, 206.5119
577.3361, 203.3869
577.8182, 203.7201
578.3003, 201.1611
578.7824, 195.2617
579.2645, 188.2548
579.7466, 179.1755
580.2288, 169.4020
580.7109, 170.9976
581.1930, 187.6822
581.6751, 206.3290
582.1572, 210.1188
582.6393, 203.5021
583.1215, 196.9495
583.6036, 193.1140
584.0857, 192.1062
584.5678, 196.4534
585.0499, 204.3701
585.5320, 209.2003
586.0142, 205.9871
586.4963, 200.9518
586.9784, 196.2833
587.4605, 191.4668
587.9426, 190.8834
588.4247, 199.1355
588.9069, 207.7746
589.3890, 209.6979
589.8711, 201.2669
590.3532, 197.1781
590.8353, 200.0933
591.3174, 205.6511
591.7996, 205.0854
592.2817, 198.3514
592.7638, 192.6846
593.2459, 191.0906
593.7280, 192.0006
594.2101, 192.9098
594.6923, 193.6233
595.1744, 192.6716
595.6565, 185.6598
596.1386, 178.3530
596.6207, 177.6078
597.1028, 184.9160
597.5850, 192.8435
598.0671, 200.0907
598.5492, 205.1148
599.0314, 206.3835
599.5135, 199.0826
599.9956, 193.6818
600.4777, 191.6049
600.9598, 191.8562
601.4420, 192.8926
601.9241, 195.8277
602.4062, 196.8663
602.8883, 194.4541
603.3704, 189.1989
603.8525, 184.0790
604.3347, 178.9281
604.8168, 175.3039
605.2989, 174.5931
605.7810, 176.2210
606.2631, 179.2903
606.7452, 183.9839
607.2274, 187.2235
607.7095, 183.7537
608.1916, 177.8443
608.6737, 175.4407
609.1558, 178.4675
609.6379, 177.2531
610.1201, 189.1926
610.6022, 196.6970
611.0843, 200.0054
611.5664, 186.5499
612.0485, 194.7415
612.5306, 194.2576
613.0128, 203.3657
613.4949, 205.7401
613.9770, 200.8960
614.4591, 195.0734
614.9412, 191.7836
615.4233, 191.0502
615.9055, 190.1186
616.3876, 188.9078
616.8697, 187.7430
617.3518, 187.6101
617.8339, 187.8192
618.3160, 185.6286
618.7982, 178.5022
619.2803, 173.3004
619.7624, 179.4654
620.2445, 192.0213
620.7266, 201.1451
621.2087, 199.9677
621.6909, 197.2812
622.1730, 196.5679
622.6551, 197.6387
623.1372, 198.0702
623.6193, 197.6980
624.1014, 196.5140
624.5836, 194.0921
625.0657, 189.9280
625.5478, 188.1132
626.0299, 189.5490
626.5120, 191.2157
626.9941, 189.8094
627.4763, 185.5928
627.9584, 182.2236
628.4405, 180.1151
628.9226, 179.2658
629.4047, 180.5804
629.8868, 183.1794
630.3690, 184.8811
630.8511, 182.8216
631.3332, 181.4357
631.8153, 186.0356
632.2974, 194.4199
632.7795, 198.8052
633.2617, 192.3638
633.7438, 185.1781
634.2259, 180.7797
634.7080, 179.2885
635.1901, 181.8980
635.6722, 192.8532
636.1544, 202.3436
636.6365, 202.5313
637.1186, 191.6040
637.6007, 184.9448
638.0828, 183.8214
638.5649, 185.0764
639.0471, 184.9156
639.5292, 183.6721
640.0113, 182.6424
640.4934, 181.6860
640.9755, 181.9557
641.4576, 187.8943
641.9398, 196.1773
642.4219, 198.6866
642.9040, 183.4701
643.3861, 169.2582
643.8682, 168.4284
644.3503, 179.7199
644.8325, 185.3627
645.3146, 174.5668
645.7967, 165.3071
646.2788, 165.7566
646.7609, 178.3275
647.2430, 185.7773
647.7252, 187.7861
648.2073, 185.5042
648.6894, 176.6228
649.1715, 162.2706
649.6536, 157.5400
650.1357, 165.7209
650.6179, 178.9652
651.1000, 190.3185
651.5821, 199.1721
652.0642, 203.6901
652.5463, 202.1420
653.0284, 197.4146
653.5106, 187.9708
653.9927, 176.5311
654.4748, 170.5857
654.9569, 177.7834
655.4390, 185.3279
655.9211, 188.9175
656.4033, 188.6561
656.8854, 186.7366
657.3675, 180.8435
657.8496, 177.4163
658.3317, 183.0990
658.8138, 198.5551
659.2960, 200.1657
659.7781, 185.6084
660.2602, 168.7760
660.7423, 164.2022
661.2244, 168.0404
661.7065, 170.9683
662.1887, 170.7200
662.6708, 170.4121
663.1529, 173.8061
663.6350, 178.4773
664.1171, 180.7923
664.5992, 176.5051
665.0814, 173.0907
665.5635, 172.5724
666.0456, 174.6062
666.5277, 177.8945
667.0098, 184.7422
667.4919, 188.9936
667.9741, 188.4489
668.4562, 183.5429
668.9383, 177.3390
669.4204, 169.5400
669.9025, 162.6518
670.3846, 158.0596
670.8668, 155.7007
671.3489, 155.6382
671.8310, 157.8813
672.3131, 161.6599
672.7952, 168.1283
673.2773, 175.0099
673.7595, 179.5833
674.2416, 180.6214
674.7237, 181.0348
675.2058, 182.2729
675.6879, 183.1800
676.1700, 182.2123
676.6522, 178.3207
677.1343, 174.2168
677.6164, 169.5002
678.0985, 165.2165
678.5806, 164.7659
679.0627, 168.6797
679.5449, 170.7368
680.0270, 167.1288
680.5091, 161.2933
680.9912, 162.4480
681.4733, 169.3283
681.9554, 174.3067
682.4376, 169.5621
682.9197, 163.0805
683.4018, 162.5197
683.8839, 168.3373
684.3660, 173.1668
684.8481, 174.1270
685.3303, 173.4375
685.8124, 172.1596
686.2945, 169.6757
686.7766, 168.6753
687.2587, 169.3228
687.7408, 171.2477
688.2230, 174.8534
688.7051, 180.2868
689.1872, 183.3109
689.6693, 182.9740
690.1514, 181.3075
690.6335, 181.6196
691.1157, 182.9429
691.5978, 182.4840
692.0799, 176.4073
692.5620, 171.8420
693.0441, 176.7272
693.5262, 187.1497
694.0084, 193.7122
694.4905, 191.5936
694.9726, 187.1876
695.4547, 181.5499
695.9368, 175.0182
696.4189, 169.5358
696.9011, 164.7931
697.3832, 161.8401
697.8653, 162.0654
698.3474, 164.9759
698.8295, 164.5158
699.3116, 160.4933
699.7938, 157.3596
700.2759, 160.0864
700.7580, 165.6337
701.2401, 169.0471
701.7222, 169.6411
702.2043, 169.1881
702.6865, 167.0153
703.1686, 165.2602
703.6507, 166.1478
704.1328, 173.6249
704.6149, 177.8483
705.0970, 175.9824
705.5792, 171.8457
706.0613, 170.8736
706.5434, 174.5839
707.0255, 174.5476
707.5076, 167.6212
707.9897, 158.8414
708.4719, 159.9156
708.9540, 169.0597
709.4361, 175.9045
709.9182, 174.1593
710.4003, 169.8345
710.8824, 169.0948
711.3646, 171.1532
711.8467, 173.3860
712.3288, 176.0992
712.8109, 177.4256
713.2930, 176.0273
713.7751, 171.8430
714.2573, 167.8061
714.7394, 162.8687
715.2215, 159.7639
715.7036, 160.1206
716.1857, 163.9778
716.6678, 168.9075
717.1500, 175.3214
717.6321, 180.2849
718.1142, 180.7550
718.5963, 178.1767
719.0784, 175.5256
719.5605, 173.1821
720.0427, 170.7038
720.5248, 166.2619
721.0069, 162.2725
721.4890, 161.5935
721.9711, 167.8487
722.4532, 172.1070
722.9354, 172.6570
723.4175, 170.8443
723.8996, 167.7269
724.3817, 162.5309
724.8638, 158.5568
725.3459, 156.1997
725.8281, 155.5240
726.3102, 157.9886
726.7923, 162.8743
727.2744, 165.4807
727.7565, 162.7149
728.2386, 158.4704
728.7208, 156.3610
729.2029, 156.2587
729.6850, 157.7414
730.1671, 162.8881
730.6492, 167.3699
731.1313, 168.7163
731.6135, 167.2509
732.0956, 167.6994
732.5777, 172.7973
733.0598, 174.9469
733.5419, 169.4741
734.0240, 157.5946
734.5062, 152.3566
734.9883, 154.0018
735.4704, 158.0827
735.9525, 163.3917
736.4346, 168.2551
736.9167, 168.9163
737.3989, 165.1225
737.8810, 162.1112
738.3631, 164.7400
738.8452, 168.3190
739.3273, 168.7553
739.8094, 163.4404
740.2916, 161.0590
740.7737, 165.1633
741.2558, 169.3905
741.7379, 167.1632
742.2200, 156.7223
742.7021, 151.8056
743.1843, 154.5423
743.6664, 159.5794
744.1485, 158.9528
744.6306, 154.8658
745.1127, 154.4828
745.5948, 161.2905
746.0770, 168.1023
746.5591, 168.5418
747.0412, 165.4115
747.5233, 162.9099
748.0054, 162.3114
748.4875, 162.4269
748.9697, 164.2823
749.4518, 166.3465
749.9339, 164.8708
750.4160, 158.3772
750.8981, 153.6270
751.3802, 152.9457
751.8624, 154.5363
752.3445, 152.9616
752.8266, 149.0207
753.3087, 147.5589
753.7908, 153.5622
754.2729, 161.2441
754.7551, 166.2115
755.2372, 168.3446
755.7193, 167.5001
756.2014, 159.1666
756.6835, 152.1738
757.1656, 150.7466
757.6478, 154.5314
758.1299, 158.4872
758.6120, 163.5325
759.0941, 166.4431
759.5762, 164.5052
760.0583, 158.6552
760.5405, 153.9864
761.0226, 150.5375
761.5047, 149.4767
761.9868, 155.0262
762.4689, 161.6539
762.9510, 161.3598
763.4332, 152.9011
763.9153, 146.9628
764.3974, 149.8584
764.8795, 155.3062
765.3616, 159.0467
765.8438, 160.2171
766.3259, 162.7059
766.8080, 168.0624
767.2901, 171.8996
767.7722, 168.3125
768.2543, 158.4462
768.7365, 154.3192
769.2186, 157.8080
769.7007, 162.5199
770.1828, 162.2473
770.6649, 158.9399
771.1470, 154.9534
771.6292, 149.4385
772.1113, 146.8281
772.5934, 150.2994
773.0755, 156.8871
773.5576, 163.4847
774.0397, 172.1779
774.5219, 176.2339
775.0040, 174.5731
775.4861, 169.0112
775.9682, 160.4835
776.4503, 149.4662
776.9324, 142.2988
777.4146, 140.9941
777.8967, 142.6473
778.3788, 143.7791
778.8609, 145.3796
779.3430, 149.2690
779.8251, 163.1775
780.3073, 171.5635
780.7894, 164.5256
781.2715, 149.1118
781.7536, 141.2529
782.2357, 143.9667
782.7178, 148.1960
783.2000, 152.8937
783.6821, 157.4093
784.1642, 160.1385
784.6463, 161.1305
785.1284, 160.5096
785.6105, 156.3658
786.0927, 152.6439
786.5748, 156.9859
787.0569, 165.6994
787.5390, 168.5847
788.0211, 151.1520
788.5032, 137.7717
788.9854, 141.6246
789.4675, 158.2981
789.9496, 167.8756
790.4317, 169.2938
790.9138, 166.4629
791.3959, 158.7221
791.8781, 148.5903
792.3602, 145.7509
792.8423, 149.5289
793.3244, 153.3334
793.8065, 151.1883
794.2886, 148.6222
794.7708, 153.2438
795.2529, 163.4731
795.7350, 169.0518
796.2171, 160.1449
796.6992, 152.0222
797.1813, 151.8854
797.6635, 159.1398
798.1456, 162.4159
798.6277, 160.7759
799.1098, 158.4764
799.5919, 158.4866
800.0740, 159.6811
800.5562, 156.7207
801.0383, 150.0433
801.5204, 145.4282
802.0025, 149.0497
802.4846, 154.5932
802.9667, 156.6540
803.4489, 154.7678
803.9310, 153.6290
804.4131, 156.5831
804.8952, 158.2082
805.3773, 155.6974
805.8594, 148.8588
806.3416, 143.1870
806.8237, 138.5369
807.3058, 135.9659
807.7879, 136.5316
808.2700, 139.7548
808.7521, 145.4769
809.2343, 153.5572
809.7164, 160.3817
810.1985, 165.7005
810.6806, 167.3561
811.1627, 161.8101
811.6448, 146.2770
812.1270, 138.2763
812.6091, 141.5392
813.0912, 148.2178
813.5733, 154.7248
814.0554, 161.1417
814.5375, 163.3178
815.0197, 160.8802
815.5018, 158.3295
815.9839, 161.5096
816.4660, 166.1308
816.9481, 165.6107
817.4302, 159.0466
817.9124, 151.1306
818.3945, 139.2046
818.8766, 130.2136
819.3587, 131.0361
819.8408, 145.2307
820.3229, 151.4855
820.8051, 147.0866
821.2872, 140.9553
821.7693, 140.9274
822.2514, 145.6175
822.7335, 146.4026
823.2156, 142.6513
823.6978, 138.8919
824.1799, 138.8021
824.6620, 140.6597
825.1441, 143.2032
825.6262, 146.5910
826.1083, 148.5894
826.5905, 147.7565
827.0726, 146.0680
827.5547, 144.1153
828.0368, 141.3316
828.5189, 142.5837
829.0010, 148.7779
829.4832, 154.7669
829.9653, 155.5024
830.4474, 152.7414
830.9295, 149.5840
831.4116, 146.1738
831.8937, 145.3057
832.3759, 152.8850
832.8580, 160.7809
833.3401, 161.7926
833.8222, 151.5833
834.3043, 146.3123
834.7864, 147.6634
835.2686, 151.4477
835.7507, 155.4572
836.2328, 159.5804
836.7149, 161.1412
837.1970, 159.8982
837.6791, 158.9790
838.1613, 163.3694
838.6434, 168.4136
839.1255, 167.2220
839.6076, 158.1473
840.0897, 151.5179
840.5718, 152.7044
841.0540, 155.7301
841.5361, 157.2775
842.0182, 157.2066
842.5003, 156.0458
842.9824, 153.2842
843.4645, 151.4037
843.9467, 152.6910
844.4288, 156.2978
844.9109, 161.2333
845.3930, 167.3442
845.8751, 170.3925
846.3572, 164.7093
846.8394, 157.0412
847.3215, 152.7041
847.8036, 153.1697
848.2857, 150.5929
848.7678, 141.4435
849.2499, 134.5803
849.7321, 136.1657
850.2142, 145.6492
850.6963, 153.3977
851.1784, 159.4684
851.6605, 164.3548
852.1426, 169.3537
852.6248, 172.8816
853.1069, 172.5252
853.5890, 168.2152
854.0711, 163.8221
854.5532, 159.1406
855.0353, 156.2705
855.5175, 157.1741
855.9996, 161.8146
856.4817, 161.1593
856.9638, 154.0994
857.4459, 148.1402
857.9280, 149.3929
858.4102, 154.5680
858.8923, 157.3046
859.3744, 157.5449
859.8565, 155.5964
860.3386, 147.5409
860.8207, 140.9888
861.3029, 141.2069
861.7850, 148.2288
862.2671, 153.8440
862.7492, 158.6073
863.2313, 160.4292
863.7134, 156.8802
864.1956, 150.1477
864.6777, 149.6933
865.1598, 154.8103
865.6419, 159.4392
866.1240, 159.1426
866.6061, 157.7937
867.0883, 160.4611
867.5704, 165.3005
868.0525, 164.6968
868.5346, 149.1501
869.0167, 137.0641
869.4988, 132.9288
869.9810, 135.1457
870.4631, 139.2900
870.9452, 145.4529
871.4273, 149.9986
871.9094, 150.4121
872.3915, 149.7644
872.8737, 153.2502
873.3558, 158.9979
873.8379, 162.4634
874.3200, 159.4001
874.8021, 156.6166
875.2842, 156.8414
875.7664, 158.5104
876.2485, 158.7464
876.7306, 157.5030
877.2127, 154.3824
877.6948, 147.9203
878.1769, 142.2621
878.6591, 146.5627
879.1412, 157.1271
879.6233, 164.4865
880.1054, 164.3450
880.5875, 162.2299
881.0696, 159.8127
881.5518, 157.5133
882.0339, 155.8812
882.5160, 154.5865
882.9981, 155.2650
883.4802, 159.6050
883.9623, 163.0276
884.4445, 156.0952
884.9266, 142.1712
885.4087, 136.5889
885.8908, 143.6248
886.3729, 152.0012
886.8550, 151.1421
887.3372, 147.8669
887.8193, 150.1522
888.3014, 166.4360
888.7835, 171.9884
889.2656, 160.8038
889.7477, 146.4795
890.2299, 140.2853
890.7120, 141.8406
891.1941, 147.7859
891.6762, 158.3107
892.1583, 166.7499
892.6404, 164.8944
893.1226, 159.5987
893.6047, 158.7660
894.0868, 164.0721
894.5689, 166.3882
895.0510, 159.2444
895.5331, 153.5048
896.0153, 155.9500
896.4974, 166.1861
896.9795, 165.7612
897.4616, 153.9296
897.9437, 144.8595
898.4258, 152.6915
898.9080, 166.1359
899.3901, 169.9686
899.8722, 164.9020
900.3543, 158.8030
900.8364, 149.3836
901.3185, 145.3848
901.8007, 153.2000
902.2828, 169.2237
902.7649, 173.8418
903.2470, 165.6582
903.7291, 156.5978
904.2112, 150.5299
904.6934, 147.2076
905.1755, 147.7192
905.6576, 150.7693
906.1397, 152.9429
906.6218, 150.4253
907.1039, 149.3947
907.5861, 153.4135
908.0682, 159.9363
908.5503, 164.5837
909.0324, 167.5220
909.5145, 167.6626
909.9966, 164.4103
910.4788, 159.2551
910.9609, 152.7740
911.4430, 146.4490
911.9251, 144.1690
912.4072, 148.8330
912.8893, 153.1570
913.3715, 154.0511
913.8536, 152.5965
914.3357, 149.3367
914.8178, 141.4043
915.2999, 141.5567
915.7820, 152.6068
916.2642, 163.9684
916.7463, 163.9580
917.2284, 155.9346
917.7105, 146.8246
918.1926, 137.2515
918.6747, 131.8181
919.1569, 136.8067
919.6390, 144.2438
920.1211, 148.1494
920.6032, 147.7225
921.0853, 149.3727
921.5674, 153.7563
922.0496, 158.4054
922.5317, 163.3900
923.0138, 167.3140
923.4959, 163.3239
923.9780, 152.9801
924.4601, 145.7971
924.9423, 150.3458
925.4244, 156.7794
925.9065, 161.4295
926.3886, 163.2504
926.8707, 157.6975
927.3528, 139.5627
927.8350, 127.9833
928.3171, 129.6034
928.7993, 138.9780
929.2814, 146.2941
929.7635, 151.3940
930.2456, 154.0470
930.7277, 152.7881
931.2098, 151.1470
931.6920, 150.5830
932.1741, 151.1150
932.6562, 153.0031
933.1383, 157.5118
933.6204, 159.9563
934.1025, 159.4160
934.5847, 158.0853
935.0668, 159.4431
935.5489, 162.2568
936.0310, 161.9130
936.5131, 157.2348
936.9952, 153.5623
937.4774, 155.2812
937.9595, 158.7648
938.4416, 161.1146
938.9237, 161.8919
939.4058, 163.2147
939.8879, 165.9362
940.3701, 166.8797
940.8522, 162.0140
941.3343, 153.9336
941.8164, 151.4352
942.2985, 153.9194
942.7806, 157.0856
943.2628, 159.7373
943.7449, 161.1100
944.2270, 159.3843
944.7091, 155.6000
945.1912, 156.1353
945.6733, 163.9613
946.1555, 166.5892
946.6376, 158.6165
947.1197, 146.1829
947.6018, 140.6891
948.0839, 140.8952
948.5660, 143.4512
949.0482, 149.3876
949.5303, 153.8458
950.0124, 154.0272
950.4945, 151.5518
950.9766, 148.4326
951.4587, 143.8262
951.9409, 141.6384
952.4230, 142.5705
952.9051, 144.2755
953.3872, 143.5303
953.8693, 141.8094
954.3514, 142.7859
954.8336, 147.1511
955.3157, 150.3935
955.7978, 149.4961
956.2799, 147.3354
956.7620, 145.1521
957.2441, 142.9350
957.7263, 143.8038
958.2084, 148.5273
958.6905, 151.5762
959.1726, 146.5828
959.6547, 139.6907
960.1368, 143.4482
960.6190, 154.9632
961.1011, 164.0342
961.5832, 163.9407
962.0653, 163.3582
962.5474, 167.5486
963.0295, 172.0835
963.5117, 164.7235
963.9938, 143.3872
964.4759, 134.9276
964.9580, 147.9925
965.4401, 166.7297
965.9222, 172.4649
966.4044, 170.1190
966.8865, 167.0750
967.3686, 165.7674
967.8507, 161.7173
968.3328, 150.7576
968.8149, 140.1036
969.2971, 134.1204
969.7792, 132.8351
970.2613, 139.4899
970.7434, 154.3075
971.2255, 165.2555
971.7076, 158.4591
972.1898, 146.4598
972.6719, 141.0021
973.1540, 142.3229
973.6361, 144.6337
974.1182, 146.0479
974.6003, 150.0581
975.0825, 159.9165
975.5646, 171.5307
976.0467, 169.4367
976.5288, 156.2822
977.0109, 149.0015
977.4930, 159.4439
977.9752, 168.5698
978.4573, 155.8228
978.9394, 134.8939
979.4215, 126.6475
979.9036, 143.1163
980.3857, 152.3361
980.8679, 151.3850
981.3500, 147.4499
981.8321, 148.9547
982.3142, 153.6693
982.7963, 154.1224
983.2784, 149.6069
983.7606, 145.4337
984.2427, 145.9715
984.7248, 146.9511
985.2069, 144.7184
985.6890, 139.5946
986.1711, 137.8148
986.6533, 139.8820
987.1354, 142.9756
987.6175, 146.2440
988.0996, 149.3960
988.5817, 152.0029
989.0638, 154.0439
989.5460, 155.5302
990.0281, 155.6651
990.5102, 156.2430
990.9923, 158.3289
991.4744, 160.7143
991.9565, 162.3116
992.4387, 163.2501
992.9208, 160.0693
993.4029, 151.5653
993.8850, 144.8500
994.3671, 149.9796
994.8492, 159.1541
995.3314, 162.9524
995.8135, 159.5524
996.2956, 156.5288
996.7777, 154.8226
997.2598, 154.0560
997.7419, 154.4332
998.2241, 155.5820
998.7062, 155.8863
999.1883, 155.3056
999.6704, 153.5258
1000.153, 147.4680
1000.635, 143.0564
1001.117, 145.2139
1001.599, 151.7698
1002.081, 158.0722
1002.563, 164.5471
1003.045, 169.2466
1003.527, 172.2699
1004.009, 172.7812
1004.492, 169.0185
1004.974, 162.0944
1005.456, 152.8831
1005.938, 140.8188
1006.420, 134.0286
1006.902, 143.9829
1007.384, 153.7329
1007.866, 151.2212
1008.349, 136.8832
1008.831, 133.8850
1009.313, 143.1697
1009.795, 150.2856
1010.277, 144.4572
1010.759, 134.6078
1011.241, 130.9166
1011.723, 132.4250
1012.205, 136.9355
1012.688, 148.5543
1013.170, 156.6045
1013.652, 159.4950
1014.134, 158.7968
1014.616, 155.2134
1015.098, 149.4768
1015.580, 147.3055
1016.062, 149.8355
1016.544, 151.9387
1017.027, 147.4426
1017.509, 142.6155
1017.991, 144.3450
1018.473, 154.0653
1018.955, 154.6570
1019.437, 143.3773
1019.919, 132.3790
1020.401, 126.0950
1020.884, 125.0658
1021.366, 133.7980
1021.848, 149.0157
1022.330, 160.8323
1022.812, 165.3232
1023.294, 165.6395
1023.776, 159.8783
1024.258, 152.3558
1024.740, 148.3218
1025.223, 147.8676
1025.705, 148.0884
1026.187, 148.7313
1026.669, 149.6550
1027.151, 150.4361
1027.633, 151.6273
1028.115, 154.5725
1028.597, 159.5581
1029.079, 161.0751
1029.562, 156.6158
1030.044, 153.4525
1030.526, 155.4382
1031.008, 159.7868
1031.490, 157.8418
1031.972, 151.4501
1032.454, 146.9909
1032.936, 148.2591
1033.419, 150.4213
1033.901, 152.0908
1034.383, 153.1081
1034.865, 153.4998
1035.347, 153.4446
1035.829, 150.6902
1036.311, 144.5406
1036.793, 140.4274
1037.276, 145.8791
1037.758, 154.5674
1038.240, 160.0468
1038.722, 161.7228
1039.204, 159.3465
1039.686, 149.2791
1040.168, 140.6665
1040.650, 136.1431
1041.132, 134.4080
1041.615, 131.4741
1042.097, 128.1461
1042.579, 127.9895
1043.061, 133.0514
1043.543, 139.2017
1044.025, 145.5885
1044.507, 150.8682
1044.989, 153.6976
1045.471, 153.9049
1045.954, 152.3043
1046.436, 148.5389
1046.918, 145.3419
1047.400, 144.8867
1047.882, 146.1230
1048.364, 148.8143
1048.846, 152.1522
1049.328, 152.8304
1049.811, 147.4423
1050.293, 142.0495
1050.775, 136.0823
1051.257, 132.4856
1051.739, 140.0543
1052.221, 155.5129
1052.703, 163.6424
1053.185, 160.6663
1053.667, 154.4529
1054.150, 144.8821
1054.632, 138.3067
1055.114, 142.3639
1055.596, 157.7293
1056.078, 162.3793
1056.560, 155.0498
1057.042, 147.1268
1057.524, 144.0358
1058.006, 144.3113
1058.489, 147.0626
1058.971, 151.4810
1059.453, 155.6416
1059.935, 158.5930
1060.417, 162.2881
1060.899, 169.0365
1061.381, 173.4263
1061.863, 166.2881
1062.346, 150.9594
1062.828, 142.5676
1063.310, 142.3324
1063.792, 144.6843
1064.274, 148.8364
1064.756, 152.0449
1065.238, 152.6394
1065.720, 150.9017
1066.203, 146.5103
1066.685, 138.7866
1067.167, 135.3071
1067.649, 139.0669
1068.131, 146.2666
1068.613, 155.0631
1069.095, 163.2226
1069.577, 167.2896
1070.059, 164.9065
1070.542, 161.8889
1071.024, 157.4642
1071.506, 154.5692
1071.988, 157.7593
1072.470, 163.9215
1072.952, 160.6670
1073.434, 149.8012
1073.916, 141.0997
1074.398, 140.4965
1074.881, 141.8490
1075.363, 143.8461
1075.845, 145.8318
1076.327, 146.4562
1076.809, 145.6955
1077.291, 146.2372
1077.773, 148.6698
1078.255, 150.6490
1078.738, 149.7388
1079.220, 147.5925
1079.702, 144.9650
1080.184, 141.9021
1080.666, 142.4281
1081.148, 148.2736
1081.630, 152.0338
1082.112, 150.1709
1082.594, 145.5309
1083.077, 142.1947
1083.559, 140.2079
1084.041, 139.8184
1084.523, 141.9178
1085.005, 144.0142
1085.487, 144.4093
1085.969, 146.1764
1086.451, 154.4953
1086.933, 167.4781
1087.416, 167.5695
1087.898, 155.6966
1088.380, 145.2318
1088.862, 145.9880
1089.344, 149.0209
1089.826, 149.9798
1090.308, 149.4874
1090.790, 149.3574
1091.273, 149.7512
1091.755, 149.1730
1092.237, 147.2180
1092.719, 145.0232
1093.201, 142.8456
1093.683, 141.5972
1094.165, 142.4422
1094.647, 145.6621
1095.130, 150.0382
1095.612, 157.5585
1096.094, 160.9990
1096.576, 155.8533
1097.058, 146.7266
1097.540, 142.3885
1098.022, 142.0718
1098.504, 144.3596
1098.986, 152.4241
1099.469, 155.8112
1099.951, 149.4370
1100.433, 139.9277
1100.915, 130.1083
1101.397, 120.4110
1101.879, 119.3307
1102.361, 126.3479
1102.843, 135.2281
1103.326, 146.3742
1103.808, 153.5629
1104.290, 148.7834
1104.772, 138.3803
1105.254, 137.8226
1105.736, 149.8710
1106.218, 151.9591
1106.700, 139.7063
1107.182, 125.4981
1107.665, 119.3469
1108.147, 119.5630
1108.629, 127.1728
1109.111, 142.1971
1109.593, 149.9720
1110.075, 147.3409
1110.557, 143.6599
1111.039, 141.8514
1111.521, 140.9895
1112.004, 137.8865
1112.486, 134.7773
1112.968, 137.1057
1113.450, 150.0314
1113.932, 158.3911
1114.414, 157.8239
1114.896, 153.1293
1115.378, 144.5123
1115.861, 133.9164
1116.343, 135.5785
1116.825, 147.2339
1117.307, 155.5687
1117.789, 149.6096
1118.271, 143.1335
1118.753, 142.4804
1119.235, 144.8292
1119.718, 146.4917
1120.200, 147.3431
1120.682, 150.4878
1121.164, 156.4169
1121.646, 159.8926
1122.128, 146.1175
1122.610, 155.2148
1123.092, 160.1547
1123.574, 161.1608
1124.057, 146.4499
1124.539, 152.0340
1125.021, 149.4850
1125.503, 146.6025
1125.985, 155.0429
1126.467, 142.6186
1126.949, 153.3978
1127.431, 157.8115
1127.913, 162.3029
1128.396, 163.2257
1128.878, 159.1542
1129.360, 154.3266
1129.842, 150.6754
1130.324, 147.2658
1130.806, 139.9044
1131.288, 131.0893
1131.770, 127.6706
1132.253, 136.1740
1132.735, 142.0763
1133.217, 139.2299
1133.699, 136.4804
1134.181, 143.1441
1134.663, 156.8716
1135.145, 156.1983
1135.627, 143.2199
1136.109, 132.9060
1136.592, 137.1777
1137.074, 142.3627
1137.556, 141.6134
1138.038, 138.5146
1138.520, 138.4964
1139.002, 141.6252
1139.484, 141.1955
1139.966, 136.3600
1140.448, 133.3530
1140.931, 140.1302
1141.413, 148.0114
1141.895, 148.9321
1142.377, 144.5863
1142.859, 146.9587
1143.341, 157.9664
1143.823, 162.6154
1144.305, 156.1392
1144.788, 146.7363
1145.270, 141.5389
1145.752, 139.8556
1146.234, 142.3099
1146.716, 150.1831
1147.198, 152.2104
1147.680, 146.5427
1148.162, 140.7012
1148.645, 137.4004
1149.127, 136.3367
1149.609, 138.1412
1150.091, 141.4718
1150.573, 144.0694
1151.055, 147.1696
1151.537, 144.0908
1152.019, 130.3205
1152.501, 119.2546
1152.984, 123.9929
1153.466, 138.0284
1153.948, 141.9197
1154.430, 138.1514
1154.912, 135.7325
1155.394, 140.7271
1155.876, 143.9889
1156.358, 142.7976
1156.840, 140.8313
1157.323, 142.7966
1157.805, 147.6951
1158.287, 152.0193
1158.769, 155.2892
1159.251, 154.4175
1159.733, 139.6590
1160.215, 130.0481
1160.697, 135.2219
1161.180, 148.3753
1161.662, 157.3725
1162.144, 162.2402
1162.626, 162.8646
1163.108, 158.7980
1163.590, 155.3164
1164.072, 157.3816
1164.554, 160.1348
1165.036, 160.3734
1165.519, 158.5303
1166.001, 157.2971
1166.483, 156.6121
1166.965, 152.5635
1167.447, 142.1848
1167.929, 133.6913
1168.411, 134.5902
1168.893, 140.2934
1169.375, 148.2910
1169.858, 158.6791
1170.340, 157.7108
1170.822, 144.4689
1171.304, 134.4319
1171.786, 136.4104
1172.268, 142.9026
1172.750, 148.7345
1173.232, 153.1147
1173.715, 154.3957
1174.197, 151.0787
1174.679, 150.3915
1175.161, 152.9066
1175.643, 154.6824
1176.125, 152.2627
1176.607, 148.0772
1177.089, 143.9407
1177.572, 140.4310
1178.054, 139.3023
1178.536, 142.0018
1179.018, 143.3751
1179.500, 142.3748
1179.982, 142.8021
1180.464, 152.9355
1180.946, 163.9525
1181.428, 160.9622
1181.911, 146.0429
1182.393, 136.0286
1182.875, 136.2743
1183.357, 135.3620
1183.839, 129.8888
1184.321, 126.7609
1184.803, 140.7282
1185.285, 160.5900
1185.767, 164.7360
1186.250, 151.0082
1186.732, 143.5960
1187.214, 152.3387
1187.696, 158.5079
1188.178, 156.7784
1188.660, 150.2917
1189.142, 140.6566
1189.624, 131.6282
1190.107, 132.9076
1190.589, 149.1259
1191.071, 158.7851
1191.553, 154.9451
1192.035, 147.8839
1192.517, 140.2272
1192.999, 133.5527
1193.481, 132.7726
1193.964, 136.0927
1194.446, 139.0828
1194.928, 140.4779
1195.410, 141.2726
1195.892, 141.4722
1196.374, 141.4583
1196.856, 141.1341
1197.338, 140.8766
1197.820, 142.4557
1198.302, 145.3016
1198.785, 147.6235
1199.267, 149.3786
1199.749, 149.3010
1200.231, 146.4583
1200.713, 142.7302
1201.195, 139.1661
1201.677, 135.9787
1202.159, 133.6177
1202.642, 132.4916
1203.124, 134.6443
1203.606, 145.3969
1204.088, 153.7323
1204.570, 156.9190
1205.052, 156.9895
1205.534, 155.7757
1206.016, 153.3254
1206.499, 148.5030
1206.981, 141.8880
1207.463, 138.6859
1207.945, 147.4464
1208.427, 152.3965
1208.909, 146.3542
1209.391, 136.8264
1209.873, 135.3804
1210.355, 140.4930
1210.838, 146.0661
1211.320, 151.3920
1211.802, 155.6051
1212.284, 159.6228
1212.766, 160.3235
1213.248, 155.6237
1213.730, 137.7070
1214.212, 147.7656
1214.694, 153.3898
1215.177, 154.8178
1215.659, 139.4820
1216.141, 145.7933
1216.623, 143.4294
1217.105, 140.7098
1217.587, 150.0679
1218.069, 137.1703
1218.551, 146.3368
1219.034, 146.6956
1219.516, 151.0856
1219.998, 155.6991
1220.480, 159.9867
1220.962, 151.3611
1221.444, 141.7925
1221.926, 136.1805
1222.408, 134.4674
1222.891, 138.8805
1223.373, 147.3799
1223.855, 151.1977
1224.337, 146.0474
1224.819, 140.9962
1225.301, 139.6278
1225.783, 139.6373
1226.265, 139.8667
1226.747, 140.5230
1227.229, 143.8904
1227.712, 148.6664
1228.194, 149.7618
1228.676, 141.3797
1229.158, 137.0067
1229.640, 145.2878
1230.122, 153.4276
1230.604, 151.2623
1231.086, 142.0840
1231.569, 141.8623
1232.051, 148.6116
1232.533, 155.0918
1233.015, 160.8490
1233.497, 161.5538
1233.979, 152.9663
1234.461, 144.1016
1234.943, 142.8394
1235.426, 147.5049
1235.908, 145.7884
1236.390, 155.6671
1236.872, 161.1115
1237.354, 162.3597
1237.836, 146.8440
1238.318, 152.9755
1238.800, 150.4317
1239.282, 147.5323
1239.765, 156.7100
1240.247, 143.6326
1240.729, 152.6193
1241.211, 152.7983
1241.693, 157.0085
1242.175, 152.4898
1242.657, 150.6672
1243.139, 157.5761
1243.621, 159.6504
1244.104, 154.1264
1244.586, 158.5927
1245.068, 145.2104
1245.550, 147.4905
1246.032, 156.5283
1246.514, 151.4437
1246.996, 156.0697
1247.478, 149.1168
1247.961, 151.5198
1248.443, 154.2424
1248.925, 154.0338
1249.407, 151.0405
1249.889, 148.8487
1250.371, 147.4674
1250.853, 149.1718
1251.335, 156.2002
1251.818, 161.0696
1252.300, 148.9790
1252.782, 131.8399
1253.264, 127.6520
1253.746, 137.1171
1254.228, 143.5148
1254.710, 144.0761
1255.192, 146.5683
1255.674, 153.5432
1256.156, 159.8771
1256.639, 157.3995
1257.121, 152.0449
1257.603, 151.3845
1258.085, 155.9053
1258.567, 156.2828
1259.049, 151.0636
1259.531, 149.0811
1260.013, 153.5107
1260.496, 158.3631
1260.978, 157.0760
1261.460, 152.9836
1261.942, 149.5487
1262.424, 146.8089
1262.906, 140.8448
1263.388, 130.9556
1263.870, 128.4621
1264.353, 138.2966
1264.835, 149.5460
1265.317, 155.7586
1265.799, 155.9439
1266.281, 144.7495
1266.763, 125.4448
1267.245, 122.5422
1267.727, 135.1910
1268.209, 149.3077
1268.692, 162.6912
1269.174, 169.1692
1269.656, 157.0583
1270.138, 143.4195
1270.620, 141.4480
1271.102, 148.5685
1271.584, 151.0114
1272.066, 149.5089
1272.548, 148.6532
1273.031, 150.8333
1273.513, 151.0270
1273.995, 142.6976
1274.477, 136.1352
1274.959, 138.1557
1275.441, 145.7496
1275.923, 147.4732
1276.405, 144.7120
1276.888, 141.8996
1277.370, 139.9641
1277.852, 139.6391
1278.334, 143.0208
1278.816, 144.7643
1279.298, 140.5924
1279.780, 134.0921
1280.262, 135.3557
1280.745, 141.4908
1281.227, 145.7499
1281.709, 145.5815
1282.191, 145.0482
1282.673, 144.2271
1283.155, 143.8187
1283.637, 143.3602
1284.119, 144.4755
1284.601, 153.6835
1285.083, 165.2134
1285.566, 168.4447
1286.048, 156.4865
1286.530, 150.9856
1287.012, 152.8142
1287.494, 156.7259
1287.976, 162.5708
1288.458, 165.5533
1288.940, 156.2302
1289.423, 142.3645
1289.905, 135.4679
1290.387, 136.3253
1290.869, 142.8732
1291.351, 155.3905
1291.833, 162.6366
1292.315, 153.4377
1292.797, 143.9092
1293.280, 147.9795
1293.762, 156.5490
1294.244, 159.0391
1294.726, 155.4374
1295.208, 155.1182
1295.690, 157.5489
1296.172, 157.9352
1296.654, 151.2470
1297.136, 146.1160
1297.619, 146.7336
1298.101, 150.1502
1298.583, 156.7163
1299.065, 164.5991
1299.547, 159.9557
1300.029, 146.6683
1300.511, 138.7181
1300.993, 146.3033
1301.475, 152.2008
1301.958, 153.3915
1302.440, 153.5260
1302.922, 156.3950
1303.404, 159.5265
1303.886, 154.7600
1304.368, 145.9582
1304.850, 142.3719
1305.332, 153.6830
##END=



