##NAMES=Meneghinite
##RRUFFID=R050444
##IDEAL CHEMISTRY=Pb^2+^_13_Cu^1+^Sb^3+^_7_S^2-^_24_
##LOCALITY=Bottino, Tucsany, Italy
##OWNER=RRUFF
##SOURCE=Peter Megaw
##DESCRIPTION=Lead-gray metallic slender prismatic and striated crystal
##STATUS=The identification of this mineral is confirmed by single-crystal X-ray diffraction and chemical analysis.
##URL=rruff.info/R050444
##MEASURED CHEMISTRY=(Pb_12.75_Sb_0.25_)_Σ=13.00_(Cu_0.73_Sb_0.13_Fe_0.01_)_Σ=0.87_Sb_7.00_S_24.00_
91.00781, 5.490186
91.48993, 5.300265
91.97205, 5.224492
92.45416, 5.237608
92.93628, 5.364633
93.41840, 5.720222
93.90051, 6.428756
94.38263, 7.186657
94.86475, 7.340817
95.34686, 6.898822
95.82898, 6.586952
96.31110, 7.284930
96.79321, 8.859552
97.27533, 9.785185
97.75745, 9.396664
98.23956, 8.133330
98.72168, 7.932887
99.20380, 8.978109
99.68591, 10.51686
100.1680, 11.80198
100.6501, 12.79697
101.1323, 13.65563
101.6144, 14.35593
102.0965, 14.87022
102.5786, 15.55288
103.0607, 16.40369
103.5428, 17.42719
104.0250, 18.67620
104.5071, 20.23661
104.9892, 21.85790
105.4713, 23.35846
105.9534, 24.32508
106.4355, 26.11370
106.9177, 29.41994
107.3998, 33.57795
107.8819, 36.57905
108.3640, 37.32695
108.8461, 37.76311
109.3282, 38.79476
109.8104, 40.86613
110.2925, 42.99452
110.7746, 45.05970
111.2567, 47.08738
111.7388, 49.37556
112.2209, 52.15123
112.7031, 55.06546
113.1852, 57.90970
113.6673, 60.92607
114.1494, 63.57274
114.6315, 65.28020
115.1136, 65.99928
115.5958, 67.65907
116.0779, 71.81908
116.5600, 76.95670
117.0421, 81.34612
117.5242, 83.63242
118.0063, 85.63656
118.4885, 88.41695
118.9706, 92.18851
119.4527, 96.06330
119.9348, 99.77559
120.4169, 103.2340
120.8990, 106.3268
121.3812, 108.6091
121.8633, 110.6563
122.3454, 113.1580
122.8275, 116.5757
123.3096, 119.5974
123.7917, 120.5479
124.2739, 119.9383
124.7560, 119.6451
125.2381, 121.1871
125.7202, 123.8036
126.2023, 126.1493
126.6844, 127.8067
127.1666, 129.2600
127.6487, 131.1899
128.1308, 133.5865
128.6129, 136.1154
129.0950, 138.5797
129.5771, 140.9858
130.0593, 143.3751
130.5414, 145.7810
131.0235, 148.1481
131.5056, 150.1587
131.9877, 151.2384
132.4698, 151.4797
132.9520, 151.6175
133.4341, 151.6711
133.9162, 152.0513
134.3983, 152.9827
134.8804, 154.3887
135.3625, 155.7600
135.8447, 157.1148
136.3268, 158.4205
136.8089, 159.5956
137.2910, 160.6026
137.7731, 161.7416
138.2552, 163.3808
138.7374, 165.6959
139.2195, 166.9753
139.7016, 167.0793
140.1837, 166.3278
140.6658, 165.2089
141.1479, 163.3692
141.6301, 161.9268
142.1122, 161.5096
142.5943, 162.6418
143.0764, 163.3114
143.5585, 163.2855
144.0406, 162.7844
144.5228, 162.5667
145.0049, 162.6049
145.4870, 162.9503
145.9691, 163.7162
146.4512, 165.7721
146.9333, 166.8235
147.4155, 166.2484
147.8976, 164.2827
148.3797, 163.1974
148.8618, 163.6134
149.3439, 164.4458
149.8260, 164.9956
150.3082, 165.3730
150.7903, 165.3538
151.2724, 164.7893
151.7545, 163.6649
152.2366, 162.6205
152.7188, 161.2458
153.2009, 160.1582
153.6830, 159.8707
154.1651, 161.4657
154.6472, 162.8413
155.1293, 163.3365
155.6115, 162.7949
156.0936, 162.5832
156.5757, 163.3754
157.0578, 164.4639
157.5399, 165.0642
158.0220, 164.5101
158.5042, 163.8687
158.9863, 163.5179
159.4684, 163.5132
159.9505, 163.6759
160.4326, 164.0688
160.9147, 164.5803
161.3969, 165.0430
161.8790, 165.4806
162.3611, 165.7994
162.8432, 165.9085
163.3253, 165.7189
163.8074, 165.5570
164.2896, 165.4953
164.7717, 165.5613
165.2538, 165.8127
165.7359, 166.3989
166.2180, 167.1026
166.7001, 167.7918
167.1823, 168.4890
167.6644, 169.0386
168.1465, 169.2151
168.6286, 169.1376
169.1107, 169.1429
169.5928, 169.7454
170.0750, 170.3882
170.5571, 170.4369
171.0392, 169.4698
171.5213, 168.3457
172.0034, 167.6443
172.4855, 167.3573
172.9677, 167.4562
173.4498, 168.1930
173.9319, 169.2370
174.4140, 170.1146
174.8961, 170.6614
175.3782, 171.0419
175.8604, 171.4672
176.3425, 171.9237
176.8246, 172.2828
177.3067, 172.3427
177.7888, 172.2435
178.2709, 172.2920
178.7531, 172.7565
179.2352, 173.2756
179.7173, 173.1032
180.1994, 172.2721
180.6815, 171.6358
181.1636, 172.3550
181.6458, 173.9529
182.1279, 174.9567
182.6100, 174.5181
183.0921, 173.3540
183.5742, 172.8706
184.0563, 173.0868
184.5385, 173.7411
185.0206, 174.8192
185.5027, 176.2131
185.9848, 177.3539
186.4669, 178.0334
186.9490, 178.3193
187.4312, 178.3262
187.9133, 178.0077
188.3954, 177.7118
188.8775, 177.8565
189.3596, 178.4098
189.8417, 179.0997
190.3239, 179.9245
190.8060, 180.8283
191.2881, 181.4448
191.7702, 181.7236
192.2523, 181.8959
192.7344, 182.2031
193.2166, 182.6461
193.6987, 183.2753
194.1808, 184.4447
194.6629, 186.0295
195.1450, 186.3605
195.6271, 185.1052
196.1093, 183.4468
196.5914, 183.2670
197.0735, 184.6826
197.5556, 186.1038
198.0377, 186.7368
198.5198, 186.5785
199.0020, 186.8941
199.4841, 187.8554
199.9662, 188.9840
200.4483, 189.4899
200.9304, 189.3003
201.4125, 188.9288
201.8947, 188.4604
202.3768, 187.8490
202.8589, 187.7843
203.3410, 188.4280
203.8231, 189.4141
204.3052, 190.1173
204.7874, 190.5590
205.2695, 190.6646
205.7516, 190.3340
206.2337, 189.5060
206.7158, 188.6404
207.1979, 187.6839
207.6801, 186.7448
208.1622, 186.1134
208.6443, 185.8952
209.1264, 185.6472
209.6085, 185.0574
210.0906, 183.9360
210.5728, 183.4041
211.0549, 183.7063
211.5370, 184.4450
212.0191, 184.7436
212.5012, 184.5721
212.9833, 184.0499
213.4655, 183.1040
213.9476, 181.4799
214.4297, 180.4002
214.9118, 180.0712
215.3939, 180.2076
215.8760, 180.1092
216.3581, 179.7470
216.8403, 179.2104
217.3224, 178.4739
217.8045, 177.3541
218.2866, 176.6305
218.7687, 176.5791
219.2508, 176.8322
219.7330, 176.3056
220.2151, 174.5384
220.6972, 172.8353
221.1793, 171.8613
221.6614, 171.8518
222.1435, 171.9196
222.6257, 172.1051
223.1078, 172.3386
223.5899, 172.4641
224.0720, 172.5928
224.5541, 172.4357
225.0362, 171.7223
225.5184, 169.9112
226.0005, 168.9500
226.4826, 169.1797
226.9647, 170.1987
227.4468, 170.9355
227.9289, 171.4477
228.4111, 171.5886
228.8932, 171.1813
229.3753, 169.7457
229.8574, 168.9468
230.3395, 169.0964
230.8216, 169.8357
231.3038, 170.1490
231.7859, 169.7301
232.2680, 169.3296
232.7501, 169.2722
233.2322, 169.6122
233.7143, 170.1941
234.1965, 171.2041
234.6786, 172.4184
235.1607, 173.2230
235.6428, 173.5015
236.1249, 173.5339
236.6070, 173.4323
237.0892, 173.1863
237.5713, 172.7988
238.0534, 172.1180
238.5355, 171.3328
239.0176, 170.9718
239.4997, 171.3405
239.9819, 171.6868
240.4640, 171.6154
240.9461, 170.6963
241.4282, 170.4276
241.9103, 171.2063
242.3924, 172.5111
242.8746, 173.0588
243.3567, 172.4728
243.8388, 171.7054
244.3209, 171.1021
244.8030, 170.6602
245.2851, 170.4265
245.7673, 170.5090
246.2494, 170.7582
246.7315, 170.8415
247.2136, 170.6640
247.6957, 170.4749
248.1778, 170.4001
248.6600, 170.5530
249.1421, 170.4580
249.6242, 169.9780
250.1063, 169.3220
250.5884, 168.9161
251.0705, 168.9201
251.5527, 168.8982
252.0348, 168.6856
252.5169, 168.2265
252.9990, 167.7542
253.4811, 167.2081
253.9632, 166.6810
254.4454, 166.3479
254.9275, 166.2503
255.4096, 166.2628
255.8917, 166.3928
256.3738, 166.7115
256.8560, 166.8064
257.3381, 166.6226
257.8202, 166.2633
258.3023, 165.8949
258.7844, 165.5898
259.2665, 165.1225
259.7487, 164.3466
260.2308, 163.1812
260.7129, 162.3247
261.1950, 161.9060
261.6771, 161.6569
262.1592, 161.2149
262.6414, 160.5268
263.1235, 159.7846
263.6056, 159.0222
264.0877, 158.2244
264.5698, 157.5459
265.0519, 157.0267
265.5341, 156.5749
266.0162, 156.0999
266.4983, 155.6349
266.9804, 155.0568
267.4625, 154.3367
267.9446, 153.4812
268.4268, 152.3968
268.9089, 150.9418
269.3910, 149.5454
269.8731, 148.7699
270.3552, 148.8548
270.8373, 148.5948
271.3195, 147.6234
271.8016, 146.0212
272.2837, 144.5832
272.7658, 143.2695
273.2479, 142.1705
273.7300, 141.4668
274.2122, 141.2684
274.6943, 140.7770
275.1764, 139.7375
275.6585, 138.2849
276.1406, 137.1572
276.6227, 136.4294
277.1049, 135.7823
277.5870, 134.9417
278.0691, 133.8877
278.5512, 132.8941
279.0333, 132.0478
279.5154, 131.2700
279.9976, 130.2614
280.4797, 128.9768
280.9618, 127.6782
281.4439, 126.4806
281.9260, 125.3885
282.4081, 124.4622
282.8903, 123.6765
283.3724, 123.0947
283.8545, 123.1724
284.3366, 124.0227
284.8187, 124.3272
285.3008, 122.6641
285.7830, 119.2678
286.2651, 117.1979
286.7472, 116.9515
287.2293, 117.6717
287.7114, 117.8646
288.1935, 117.5339
288.6757, 117.1425
289.1578, 117.0835
289.6399, 117.2321
290.1220, 116.8493
290.6041, 115.7700
291.0862, 114.5562
291.5684, 114.2149
292.0505, 114.6305
292.5326, 114.7355
293.0147, 113.7327
293.4968, 112.0101
293.9789, 110.6819
294.4611, 109.8040
294.9432, 109.2321
295.4253, 108.8227
295.9074, 108.5859
296.3895, 108.5683
296.8716, 108.8691
297.3538, 109.3842
297.8359, 110.0281
298.3180, 110.8239
298.8001, 111.3722
299.2822, 110.9933
299.7643, 110.0475
300.2465, 109.5005
300.7286, 110.0631
301.2107, 110.9609
301.6928, 111.0264
302.1749, 110.3096
302.6570, 109.5805
303.1392, 109.5818
303.6213, 109.9697
304.1034, 110.1180
304.5855, 109.5934
305.0676, 109.0618
305.5497, 109.3290
306.0319, 110.2578
306.5140, 111.1494
306.9961, 111.5402
307.4782, 111.6286
307.9603, 111.6125
308.4424, 111.4263
308.9246, 111.3512
309.4067, 111.7864
309.8888, 112.5400
310.3709, 113.0731
310.8530, 112.7663
311.3351, 112.2868
311.8173, 112.2500
312.2994, 112.8806
312.7815, 113.5597
313.2636, 114.0845
313.7457, 114.3887
314.2278, 114.3484
314.7100, 113.4928
315.1921, 112.5799
315.6742, 112.0811
316.1563, 112.0898
316.6384, 112.2337
317.1205, 112.3792
317.6027, 112.5631
318.0848, 112.8314
318.5669, 113.4148
319.0490, 113.8921
319.5311, 114.0242
320.0132, 113.7858
320.4954, 113.6208
320.9775, 113.8262
321.4596, 114.0754
321.9417, 114.0876
322.4238, 113.3624
322.9059, 112.8538
323.3881, 112.9111
323.8702, 113.4810
324.3523, 113.8888
324.8344, 113.9538
325.3165, 113.8860
325.7986, 113.8113
326.2808, 113.7826
326.7629, 113.6986
327.2450, 113.5062
327.7271, 113.2421
328.2092, 113.0506
328.6913, 113.0776
329.1735, 113.0502
329.6556, 112.8593
330.1377, 112.4520
330.6198, 111.9735
331.1019, 111.3403
331.5840, 110.6605
332.0662, 110.1400
332.5483, 109.9157
333.0304, 109.6458
333.5125, 109.2026
333.9946, 108.5262
334.4767, 108.0037
334.9589, 107.8503
335.4410, 107.6472
335.9231, 106.7278
336.4052, 104.6593
336.8873, 103.0599
337.3694, 102.5004
337.8516, 102.9032
338.3336, 102.8255
338.8158, 102.1417
339.2979, 101.2464
339.7800, 100.4476
340.2621, 99.75282
340.7442, 99.16158
341.2263, 98.70066
341.7085, 98.34065
342.1906, 98.06248
342.6727, 97.89647
343.1548, 97.60890
343.6369, 97.00002
344.1190, 96.09032
344.6012, 95.05663
345.0833, 93.80776
345.5654, 92.66729
346.0475, 92.37068
346.5296, 92.86571
347.0117, 93.33109
347.4939, 93.21207
347.9760, 92.70558
348.4581, 92.50510
348.9402, 92.69846
349.4223, 92.87490
349.9044, 92.56001
350.3866, 91.83696
350.8687, 90.98881
351.3508, 89.92448
351.8329, 88.88860
352.3150, 88.27370
352.7971, 88.07275
353.2793, 88.08652
353.7614, 88.39725
354.2435, 88.76915
354.7256, 88.79195
355.2077, 88.11839
355.6898, 87.34370
356.1720, 87.02868
356.6541, 87.08109
357.1362, 87.10296
357.6183, 86.94314
358.1004, 86.60815
358.5826, 86.02831
359.0647, 85.01594
359.5468, 84.21033
360.0289, 84.03374
360.5110, 84.30070
360.9931, 84.65971
361.4753, 85.33877
361.9574, 85.78069
362.4395, 85.57405
362.9216, 84.56126
363.4037, 83.69569
363.8858, 83.25613
364.3680, 83.10860
364.8501, 83.11217
365.3322, 83.43331
365.8143, 83.70479
366.2964, 83.81020
366.7785, 83.75340
367.2607, 83.73569
367.7428, 83.87536
368.2249, 83.99588
368.7070, 83.98766
369.1891, 83.69026
369.6712, 83.48052
370.1534, 83.44957
370.6355, 83.51466
371.1176, 83.39474
371.5997, 82.82991
372.0818, 82.41234
372.5639, 82.42538
373.0461, 83.06922
373.5282, 83.46227
374.0103, 83.47453
374.4924, 83.36223
374.9745, 83.57733
375.4566, 84.29551
375.9388, 84.78651
376.4209, 84.77664
376.9030, 84.30064
377.3851, 83.93220
377.8672, 83.68608
378.3493, 83.49162
378.8315, 83.24101
379.3136, 82.92928
379.7957, 82.84685
380.2778, 83.15223
380.7599, 83.61518
381.2420, 83.59971
381.7242, 83.10650
382.2063, 82.63403
382.6884, 82.59761
383.1705, 82.85955
383.6526, 82.93033
384.1347, 82.73562
384.6169, 82.45274
385.0990, 82.23457
385.5811, 82.09855
386.0632, 82.11665
386.5453, 82.44334
387.0274, 82.88776
387.5096, 83.22128
387.9917, 83.43903
388.4738, 83.53879
388.9559, 83.48677
389.4380, 83.32387
389.9201, 83.08918
390.4023, 82.66394
390.8844, 82.32762
391.3665, 82.28004
391.8486, 82.48174
392.3307, 82.79008
392.8128, 83.45921
393.2950, 83.99693
393.7771, 83.98209
394.2592, 83.06342
394.7413, 82.35664
395.2234, 82.40100
395.7055, 82.84647
396.1877, 83.15242
396.6698, 83.13735
397.1519, 83.02429
397.6340, 82.85155
398.1161, 82.61111
398.5982, 82.41406
399.0804, 82.32847
399.5625, 82.25409
400.0446, 82.11983
400.5267, 81.90773
401.0088, 81.65273
401.4909, 81.22707
401.9731, 80.75029
402.4552, 80.74521
402.9373, 81.41299
403.4194, 82.22598
403.9015, 83.00946
404.3836, 83.86514
404.8658, 84.27589
405.3479, 84.19257
405.8300, 83.72298
406.3121, 82.79404
406.7942, 81.25317
407.2763, 80.34750
407.7585, 80.73720
408.2406, 82.12605
408.7227, 82.82162
409.2048, 82.77218
409.6869, 82.44846
410.1690, 82.19685
410.6512, 82.01250
411.1333, 81.86681
411.6154, 81.76525
412.0975, 81.68104
412.5796, 81.60519
413.0617, 81.52295
413.5439, 81.36018
414.0260, 80.79722
414.5081, 80.23276
414.9902, 80.38948
415.4723, 81.38789
415.9544, 82.35560
416.4366, 82.60772
416.9187, 82.36349
417.4008, 81.95263
417.8829, 81.04689
418.3650, 80.39648
418.8471, 80.72618
419.3293, 81.83983
419.8114, 82.58421
420.2935, 82.27429
420.7756, 81.54143
421.2577, 80.76373
421.7398, 79.79141
422.2220, 79.16911
422.7041, 79.30861
423.1862, 79.82700
423.6683, 80.03448
424.1504, 79.38397
424.6325, 78.87852
425.1147, 78.80400
425.5968, 79.19962
426.0789, 79.67273
426.5610, 80.38511
427.0431, 81.02911
427.5252, 81.33561
428.0074, 81.19074
428.4895, 80.94886
428.9716, 80.54842
429.4537, 80.11051
429.9358, 80.08932
430.4179, 80.60143
430.9001, 81.11407
431.3822, 81.34276
431.8643, 81.28323
432.3464, 81.24053
432.8285, 81.23372
433.3106, 81.18485
433.7928, 80.97865
434.2749, 80.62890
434.7570, 80.22792
435.2391, 79.68507
435.7212, 79.20284
436.2033, 79.32056
436.6855, 79.97809
437.1676, 80.57656
437.6497, 80.60695
438.1318, 80.32880
438.6139, 80.16100
439.0960, 80.21347
439.5782, 80.22158
440.0603, 79.82912
440.5424, 79.24699
441.0245, 78.87502
441.5066, 79.01991
441.9887, 79.30684
442.4709, 79.56703
442.9530, 79.78935
443.4351, 79.92244
443.9172, 79.81033
444.3993, 79.67982
444.8814, 79.70448
445.3636, 80.16696
445.8457, 80.44240
446.3278, 80.39497
446.8099, 80.10024
447.2920, 79.73830
447.7741, 79.07028
448.2563, 78.60974
448.7384, 78.55919
449.2205, 78.97649
449.7026, 79.34997
450.1847, 79.72869
450.6668, 79.99987
451.1490, 80.04021
451.6311, 79.80457
452.1132, 79.47687
452.5953, 78.96593
453.0774, 78.46492
453.5595, 78.65141
454.0417, 79.62292
454.5238, 80.37093
455.0059, 80.10872
455.4880, 79.07889
455.9701, 78.50822
456.4522, 78.44087
456.9344, 78.80037
457.4165, 79.92715
457.8986, 81.45821
458.3807, 82.31771
458.8628, 81.92311
459.3449, 80.98958
459.8271, 80.07768
460.3092, 79.25820
460.7913, 78.81084
461.2734, 79.49194
461.7555, 80.25908
462.2376, 80.02101
462.7198, 78.34203
463.2019, 77.03055
463.6840, 77.37893
464.1661, 78.42525
464.6482, 79.00555
465.1303, 78.21111
465.6125, 77.54863
466.0946, 77.48265
466.5767, 77.95580
467.0588, 78.38116
467.5409, 78.75173
468.0230, 79.03450
468.5052, 79.18288
468.9873, 79.04505
469.4694, 79.19663
469.9515, 79.91037
470.4336, 80.67903
470.9157, 80.70009
471.3979, 79.72331
471.8800, 78.85394
472.3621, 78.36951
472.8442, 78.21638
473.3263, 78.13198
473.8084, 78.11617
474.2906, 78.16858
474.7727, 78.34016
475.2548, 78.59399
475.7369, 78.78217
476.2190, 78.91255
476.7011, 78.88087
477.1833, 78.31437
477.6654, 77.45707
478.1475, 76.98362
478.6296, 77.51161
479.1117, 78.32411
479.5938, 78.71696
480.0760, 78.73150
480.5581, 78.63642
481.0402, 78.50133
481.5223, 78.37337
482.0044, 78.25927
482.4865, 78.08667
482.9687, 78.13368
483.4508, 78.82657
483.9329, 79.71111
484.4150, 80.13189
484.8971, 79.56947
485.3792, 78.96333
485.8614, 78.46861
486.3435, 78.08684
486.8256, 77.86279
487.3077, 77.86631
487.7898, 77.94752
488.2719, 78.01445
488.7541, 78.01135
489.2362, 78.24014
489.7183, 78.91786
490.2004, 79.54167
490.6825, 79.12410
491.1646, 77.51232
491.6468, 76.42967
492.1289, 76.56791
492.6110, 77.48799
493.0931, 77.93885
493.5752, 77.92493
494.0573, 77.74870
494.5395, 77.57494
495.0216, 77.40495
495.5037, 77.20069
495.9858, 76.93596
496.4679, 76.78453
496.9500, 77.08954
497.4322, 77.58925
497.9143, 77.84373
498.3964, 77.37182
498.8785, 76.88448
499.3606, 76.90895
499.8427, 77.31429
500.3249, 77.48446
500.8070, 76.73412
501.2891, 76.06392
501.7712, 76.09407
502.2533, 77.25719
502.7354, 78.05464
503.2176, 78.22109
503.6997, 78.04364
504.1818, 77.78511
504.6639, 77.36073
505.1460, 77.01118
505.6281, 76.78268
506.1103, 76.65006
506.5924, 76.49580
507.0745, 76.26984
507.5566, 76.19522
508.0387, 76.56520
508.5208, 77.33200
509.0030, 77.38078
509.4851, 76.59312
509.9672, 75.75417
510.4493, 75.82907
510.9314, 76.57042
511.4135, 77.13359
511.8957, 77.25991
512.3778, 77.19820
512.8599, 77.27092
513.3420, 77.40054
513.8242, 77.35809
514.3063, 76.72073
514.7884, 76.08013
515.2705, 75.99289
515.7526, 76.49895
516.2347, 76.90527
516.7169, 76.83559
517.1990, 76.61589
517.6811, 76.50227
518.1632, 76.87283
518.6453, 76.89015
519.1274, 76.17923
519.6096, 75.11149
520.0917, 74.35505
520.5738, 73.90722
521.0559, 73.79494
521.5380, 74.19380
522.0201, 75.04753
522.5023, 75.23737
522.9844, 74.50539
523.4665, 73.84630
523.9486, 74.21085
524.4307, 75.52495
524.9128, 76.08867
525.3950, 75.62811
525.8771, 74.88350
526.3592, 74.87148
526.8413, 75.41930
527.3234, 75.89360
527.8055, 75.96790
528.2877, 75.94104
528.7698, 76.23575
529.2519, 76.76106
529.7340, 77.14263
530.2161, 77.12095
530.6982, 76.90686
531.1804, 76.52741
531.6625, 75.89641
532.1446, 75.70940
532.6267, 76.82472
533.1088, 78.18427
533.5909, 78.79582
534.0731, 77.89048
534.5552, 77.02370
535.0373, 76.18419
535.5194, 75.47801
536.0015, 75.19192
536.4836, 75.58781
536.9658, 75.86281
537.4479, 75.62414
537.9300, 74.91386
538.4121, 74.77592
538.8942, 75.31948
539.3763, 75.97954
539.8585, 76.27815
540.3406, 76.26917
540.8227, 76.28867
541.3048, 76.40997
541.7869, 76.45370
542.2690, 76.11829
542.7512, 75.52625
543.2333, 74.98524
543.7154, 74.66719
544.1975, 74.41530
544.6796, 73.98299
545.1617, 73.46084
545.6439, 73.26699
546.1260, 73.97860
546.6081, 74.77950
547.0902, 75.20285
547.5723, 75.14553
548.0544, 74.91389
548.5366, 74.12572
549.0187, 73.42512
549.5008, 73.41759
549.9829, 74.73991
550.4650, 75.57109
550.9471, 75.55941
551.4293, 75.07856
551.9114, 75.08436
552.3935, 75.72153
552.8756, 76.13818
553.3577, 75.90483
553.8398, 75.18901
554.3220, 74.74754
554.8041, 74.58351
555.2862, 74.57796
555.7683, 74.71129
556.2504, 74.92015
556.7325, 75.10468
557.2147, 75.26778
557.6968, 75.31532
558.1789, 75.06849
558.6610, 74.67816
559.1431, 74.36971
559.6252, 74.09367
560.1074, 74.04599
560.5895, 74.58610
561.0716, 75.46912
561.5537, 75.86990
562.0358, 75.14725
562.5179, 74.37796
563.0001, 73.89561
563.4822, 73.70407
563.9643, 73.80890
564.4464, 74.45723
564.9285, 75.05491
565.4106, 75.09100
565.8928, 74.45181
566.3749, 74.01806
566.8570, 73.89458
567.3391, 73.90308
567.8212, 73.67229
568.3033, 73.26582
568.7855, 73.20482
569.2676, 73.92338
569.7497, 74.81960
570.2318, 74.99309
570.7139, 74.54153
571.1960, 73.90760
571.6782, 72.98367
572.1603, 72.23479
572.6424, 72.17516
573.1245, 72.89069
573.6066, 73.53059
574.0887, 73.71992
574.5709, 73.73671
575.0530, 73.80638
575.5351, 74.17437
576.0172, 74.27090
576.4993, 73.88338
576.9814, 73.31380
577.4636, 73.08678
577.9457, 73.37048
578.4278, 73.53931
578.9099, 73.38558
579.3920, 73.02440
579.8741, 72.90844
580.3563, 73.05251
580.8384, 73.25182
581.3205, 73.42329
581.8026, 73.55452
582.2847, 73.56784
582.7668, 73.45852
583.2490, 73.37608
583.7311, 73.42290
584.2132, 73.57922
584.6953, 73.86246
585.1774, 74.39369
585.6595, 74.76689
586.1416, 74.78091
586.6237, 74.50053
587.1058, 74.02565
587.5880, 72.91844
588.0701, 72.12492
588.5522, 71.97416
589.0343, 72.34302
589.5164, 72.71047
589.9985, 73.12621
590.4807, 73.45241
590.9628, 73.57730
591.4449, 73.49216
591.9270, 73.72033
592.4091, 74.35347
592.8912, 74.90458
593.3734, 74.81688
593.8555, 74.23214
594.3376, 73.83755
594.8197, 73.75726
595.3018, 73.76351
595.7839, 73.59010
596.2661, 73.32600
596.7482, 73.14165
597.2303, 73.12245
597.7124, 73.18373
598.1945, 73.29235
598.6766, 73.44442
599.1588, 73.62726
599.6409, 74.06046
600.1230, 74.31358
600.6051, 74.09786
601.0872, 73.37095
601.5693, 72.97799
602.0515, 73.13930
602.5336, 73.33839
603.0157, 73.22807
603.4978, 72.73512
603.9799, 72.31981
604.4620, 71.92778
604.9442, 71.78831
605.4263, 72.46974
605.9084, 73.78445
606.3905, 74.54633
606.8726, 74.34026
607.3547, 73.75962
607.8369, 73.43507
608.3190, 73.31947
608.8011, 73.28357
609.2832, 73.24590
609.7653, 73.28734
610.2474, 73.60557
610.7296, 74.13078
611.2117, 74.31325
611.6938, 73.44324
612.1759, 72.66689
612.6580, 72.67723
613.1401, 73.79050
613.6223, 74.27737
614.1044, 73.87096
614.5865, 73.19500
615.0686, 72.82680
615.5507, 72.82881
616.0328, 72.50055
616.5150, 71.60129
616.9971, 70.78130
617.4792, 71.36546
617.9613, 73.00998
618.4434, 74.08969
618.9255, 73.81889
619.4077, 73.02235
619.8898, 72.53728
620.3719, 72.30095
620.8540, 72.10542
621.3361, 71.65291
621.8182, 71.38137
622.3004, 71.69902
622.7825, 72.60599
623.2646, 73.20826
623.7467, 73.08846
624.2288, 72.81626
624.7109, 72.66609
625.1931, 72.66959
625.6752, 72.69237
626.1573, 72.75683
626.6394, 72.80107
627.1215, 72.72684
627.6036, 72.53050
628.0858, 72.42354
628.5679, 72.43745
629.0500, 72.55281
629.5321, 72.81747
630.0142, 73.17180
630.4963, 73.41863
630.9785, 73.48381
631.4606, 73.41000
631.9427, 73.13887
632.4248, 72.74359
632.9069, 72.45559
633.3890, 72.34866
633.8712, 72.39518
634.3533, 72.65989
634.8354, 73.16737
635.3175, 73.49500
635.7996, 73.60231
636.2817, 73.56013
636.7639, 73.39019
637.2460, 73.07308
637.7281, 72.65610
638.2102, 72.03744
638.6923, 71.59322
639.1744, 71.89952
639.6566, 72.81557
640.1387, 73.53415
640.6208, 73.89288
641.1029, 74.01609
641.5850, 73.95779
642.0671, 73.77260
642.5493, 73.56810
643.0314, 73.31639
643.5135, 73.13115
643.9956, 73.16188
644.4777, 73.32021
644.9598, 73.32866
645.4420, 72.93349
645.9241, 72.58094
646.4062, 72.42068
646.8883, 72.44447
647.3704, 72.42239
647.8525, 72.28437
648.3347, 72.25602
648.8168, 72.56407
649.2989, 73.19366
649.7810, 73.51740
650.2631, 73.51744
650.7452, 73.33449
651.2274, 72.92604
651.7095, 72.46284
652.1916, 72.34676
652.6737, 72.73409
653.1558, 73.15417
653.6379, 73.19743
654.1201, 73.08943
654.6022, 73.12804
655.0843, 73.72201
655.5664, 74.09961
656.0485, 73.88631
656.5306, 73.35462
657.0128, 73.14050
657.4949, 73.45051
657.9770, 73.68521
658.4591, 73.67120
658.9412, 73.47314
659.4233, 73.36885
659.9055, 73.36266
660.3876, 73.40496
660.8697, 73.50315
661.3518, 73.62390
661.8339, 73.62761
662.3160, 73.52900
662.7982, 73.55318
663.2803, 74.16852
663.7624, 74.80453
664.2445, 74.76744
664.7266, 73.81874
665.2087, 73.16384
665.6909, 73.63131
666.1730, 74.30904
666.6551, 74.41888
667.1372, 73.59170
667.6193, 72.76807
668.1014, 71.78757
668.5836, 70.98776
669.0657, 70.92778
669.5478, 71.66846
670.0299, 72.50597
670.5120, 73.45435
670.9941, 74.15147
671.4763, 73.54570
671.9584, 72.02077
672.4405, 71.05776
672.9226, 71.82473
673.4047, 73.01508
673.8868, 73.52603
674.3690, 73.50104
674.8511, 73.46852
675.3332, 73.58141
675.8153, 73.77461
676.2974, 74.06802
676.7795, 74.46720
677.2617, 74.74086
677.7438, 74.86345
678.2259, 74.90276
678.7080, 74.92240
679.1901, 74.93286
679.6722, 74.63454
680.1544, 73.96365
680.6365, 73.33610
681.1186, 73.29606
681.6007, 73.58377
682.0828, 73.42315
682.5649, 72.60807
683.0471, 71.92386
683.5292, 72.28464
684.0113, 73.05498
684.4934, 73.45309
684.9755, 72.94691
685.4576, 72.56035
685.9398, 72.60825
686.4219, 72.91338
686.9040, 73.18745
687.3861, 73.50074
687.8682, 73.60855
688.3503, 73.33426
688.8325, 72.93315
689.3146, 73.24293
689.7967, 74.27802
690.2788, 74.94692
690.7609, 74.60938
691.2430, 73.77650
691.7252, 73.37267
692.2073, 73.30883
692.6894, 73.19927
693.1715, 72.68068
693.6536, 72.14571
694.1357, 71.84605
694.6179, 71.79353
695.1000, 71.91319
695.5821, 72.42238
696.0642, 72.88599
696.5463, 73.08673
697.0284, 72.97960
697.5106, 72.92030
697.9927, 72.95021
698.4748, 72.93246
698.9569, 72.65379
699.4390, 72.17487
699.9211, 72.07427
700.4033, 72.43415
700.8854, 72.85247
701.3675, 72.85085
701.8496, 72.66225
702.3317, 72.64602
702.8138, 72.89107
703.2960, 73.30585
703.7781, 74.09749
704.2602, 74.93552
704.7423, 75.41519
705.2244, 75.07889
705.7065, 74.88719
706.1887, 75.00732
706.6708, 75.24578
707.1529, 75.23169
707.6350, 74.92351
708.1171, 74.60460
708.5992, 74.34989
709.0814, 74.12322
709.5635, 73.79774
710.0456, 73.40942
710.5277, 73.13481
711.0098, 73.26803
711.4919, 73.39091
711.9741, 72.98434
712.4562, 72.21246
712.9383, 71.72076
713.4204, 71.91586
713.9025, 72.27760
714.3846, 72.64098
714.8668, 73.00061
715.3489, 73.25315
715.8310, 73.30595
716.3131, 73.44722
716.7952, 73.98842
717.2773, 74.85616
717.7595, 74.94140
718.2416, 74.20631
718.7237, 73.30889
719.2058, 72.58070
719.6879, 72.10674
720.1700, 72.15296
720.6522, 72.77389
721.1343, 73.34549
721.6164, 73.57688
722.0985, 73.56306
722.5806, 73.33394
723.0627, 72.64064
723.5449, 72.35182
724.0270, 72.80721
724.5091, 73.38564
724.9912, 73.45232
725.4733, 72.87651
725.9554, 72.57558
726.4376, 72.66445
726.9197, 72.93141
727.4018, 73.17465
727.8839, 73.36501
728.3660, 73.35005
728.8481, 72.93285
729.3303, 72.68211
729.8124, 73.47507
730.2945, 74.65101
730.7766, 75.19353
731.2587, 74.06093
731.7408, 73.13744
732.2230, 72.90862
732.7051, 73.14133
733.1872, 73.48602
733.6693, 74.05251
734.1514, 74.36276
734.6335, 74.15311
735.1157, 73.75876
735.5978, 74.32326
736.0799, 75.68552
736.5620, 76.47148
737.0441, 75.58278
737.5262, 74.16133
738.0084, 73.41042
738.4905, 73.22053
738.9726, 73.21842
739.4547, 73.30846
739.9368, 73.48830
740.4189, 73.84625
740.9011, 74.35538
741.3832, 74.61027
741.8653, 74.52734
742.3474, 74.33388
742.8295, 74.05322
743.3116, 73.72244
743.7938, 73.76518
744.2759, 74.19632
744.7580, 74.49629
745.2401, 74.17919
745.7222, 73.55756
746.2043, 72.99940
746.6865, 72.53755
747.1686, 72.40213
747.6507, 72.99667
748.1328, 73.74738
748.6149, 74.29034
749.0970, 74.54616
749.5792, 74.74651
750.0613, 74.97393
750.5434, 75.05859
751.0255, 74.81433
751.5076, 74.19220
751.9897, 73.88643
752.4719, 73.94833
752.9540, 74.06285
753.4361, 73.91546
753.9182, 73.60690
754.4003, 73.26344
754.8824, 72.86903
755.3646, 72.74945
755.8467, 73.39482
756.3288, 74.26894
756.8109, 74.86604
757.2930, 75.07920
757.7751, 75.06606
758.2573, 74.73212
758.7394, 74.28952
759.2215, 73.89067
759.7036, 73.50175
760.1857, 73.41319
760.6678, 73.69698
761.1500, 74.12346
761.6321, 74.53861
762.1142, 74.85563
762.5963, 74.79243
763.0784, 74.11812
763.5605, 73.51527
764.0427, 73.45089
764.5248, 73.74541
765.0069, 74.17406
765.4890, 75.14087
765.9711, 75.61538
766.4532, 75.35300
766.9354, 74.70518
767.4175, 74.05715
767.8996, 73.31955
768.3817, 73.26921
768.8638, 74.25285
769.3459, 75.47761
769.8281, 75.64050
770.3102, 74.98778
770.7923, 74.20180
771.2744, 73.28185
771.7565, 72.67246
772.2386, 72.88968
772.7208, 73.57509
773.2029, 74.10475
773.6850, 74.22247
774.1671, 74.32635
774.6492, 74.63516
775.1313, 74.88731
775.6135, 74.26181
776.0956, 72.52042
776.5777, 71.76072
777.0598, 72.90263
777.5419, 74.77196
778.0240, 75.26956
778.5062, 74.71610
778.9883, 74.10733
779.4704, 73.74963
779.9525, 73.62477
780.4346, 73.90611
780.9167, 74.41087
781.3989, 74.69182
781.8810, 74.41899
782.3631, 74.20643
782.8452, 74.17070
783.3273, 74.26530
783.8094, 74.36591
784.2916, 74.47546
784.7737, 74.56395
785.2558, 74.60072
785.7379, 74.63440
786.2200, 74.78651
786.7021, 75.01992
787.1843, 75.20068
787.6664, 75.32090
788.1485, 75.32146
788.6306, 74.98260
789.1127, 74.46112
789.5948, 74.37993
790.0770, 75.30904
790.5591, 75.90352
791.0412, 75.71288
791.5233, 75.00355
792.0054, 74.80629
792.4875, 75.13571
792.9697, 75.30979
793.4518, 74.86134
793.9339, 74.22694
794.4160, 74.13012
794.8981, 74.45153
795.3802, 74.79462
795.8624, 75.14677
796.3445, 75.30191
796.8266, 75.01212
797.3087, 74.39465
797.7908, 74.05814
798.2729, 74.20297
798.7551, 74.25995
799.2372, 73.98513
799.7193, 73.53426
800.2014, 73.56351
800.6835, 74.03316
801.1656, 74.37799
801.6478, 74.04923
802.1299, 73.64253
802.6120, 74.08438
803.0941, 75.07173
803.5762, 75.64226
804.0583, 74.78642
804.5405, 74.07353
805.0226, 74.28365
805.5047, 75.15440
805.9868, 75.67229
806.4689, 75.75690
806.9510, 75.71600
807.4332, 75.63618
807.9153, 75.51435
808.3974, 75.38950
808.8795, 75.23687
809.3616, 74.91227
809.8438, 73.84454
810.3259, 72.99977
810.8080, 73.45346
811.2901, 74.82437
811.7722, 75.86147
812.2543, 76.18467
812.7365, 76.15975
813.2186, 75.68324
813.7007, 74.96053
814.1828, 74.82190
814.6649, 75.35123
815.1470, 75.78445
815.6292, 75.79020
816.1113, 75.57776
816.5934, 75.58168
817.0755, 75.71021
817.5576, 75.66170
818.0397, 74.98314
818.5219, 74.39955
819.0040, 74.35326
819.4861, 74.70666
819.9682, 75.01402
820.4503, 75.36082
820.9324, 75.43025
821.4146, 75.00193
821.8967, 74.37297
822.3788, 74.40859
822.8609, 75.06383
823.3430, 75.64901
823.8251, 75.90015
824.3073, 75.97087
824.7894, 76.02094
825.2715, 76.03676
825.7536, 75.99123
826.2357, 75.82567
826.7178, 75.65212
827.2000, 75.42699
827.6821, 75.23547
828.1642, 75.28886
828.6463, 75.70420
829.1284, 75.94606
829.6105, 75.89330
830.0927, 75.64078
830.5748, 75.23335
831.0569, 74.75578
831.5390, 74.51140
832.0211, 74.73226
832.5032, 74.99743
832.9854, 74.93697
833.4675, 74.74706
833.9496, 74.72672
834.4317, 75.13220
834.9138, 75.44022
835.3959, 75.58621
835.8781, 75.64835
836.3602, 75.75394
836.8423, 75.90107
837.3244, 75.99121
837.8065, 75.99831
838.2886, 75.96579
838.7708, 75.91435
839.2529, 75.86629
839.7350, 75.87295
840.2171, 76.03212
840.6992, 76.07377
841.1813, 75.89169
841.6635, 75.55519
842.1456, 75.08226
842.6277, 74.27938
843.1098, 73.99291
843.5919, 74.36172
844.0740, 75.00108
844.5562, 75.55390
845.0383, 75.99969
845.5204, 76.31047
846.0025, 76.50905
846.4846, 76.37556
846.9667, 75.12912
847.4489, 73.84181
847.9310, 73.65794
848.4131, 75.41493
848.8952, 76.38927
849.3773, 76.15492
849.8594, 75.64037
850.3416, 75.63074
850.8237, 76.10282
851.3058, 75.97746
851.7879, 75.17399
852.2700, 74.43362
852.7521, 74.45029
853.2343, 74.82504
853.7164, 75.06816
854.1985, 75.11835
854.6806, 75.32796
855.1627, 76.34877
855.6448, 77.03489
856.1270, 76.62832
856.6091, 75.08913
857.0912, 74.48104
857.5733, 74.94615
858.0554, 75.56666
858.5375, 75.70972
859.0197, 75.60979
859.5018, 75.86040
859.9839, 76.39476
860.4660, 76.78854
860.9481, 76.73509
861.4302, 76.54472
861.9124, 76.26521
862.3945, 75.95213
862.8766, 76.04857
863.3587, 76.88193
863.8408, 77.32716
864.3229, 76.81060
864.8051, 75.75725
865.2872, 75.56088
865.7693, 76.07414
866.2514, 76.44211
866.7335, 76.13126
867.2156, 75.62254
867.6978, 75.15277
868.1799, 74.77776
868.6620, 74.62023
869.1441, 74.74438
869.6262, 75.09364
870.1083, 75.87859
870.5905, 76.72186
871.0726, 76.69211
871.5547, 75.82114
872.0368, 75.38541
872.5189, 75.81454
873.0010, 76.46999
873.4832, 76.60894
873.9653, 76.47603
874.4474, 76.49284
874.9295, 77.05060
875.4116, 77.29044
875.8937, 76.71063
876.3759, 75.92175
876.8580, 75.47380
877.3401, 75.39952
877.8222, 75.52821
878.3043, 75.89596
878.7864, 76.25574
879.2686, 76.33273
879.7507, 76.22243
880.2328, 76.04955
880.7149, 75.81297
881.1970, 75.72072
881.6791, 76.18501
882.1613, 76.58938
882.6434, 76.40925
883.1255, 75.52060
883.6076, 75.05892
884.0897, 75.14992
884.5718, 75.26471
885.0540, 74.91754
885.5361, 74.32391
886.0182, 74.26396
886.5003, 74.67554
886.9824, 75.03654
887.4645, 74.85913
887.9467, 74.68325
888.4288, 74.91161
888.9109, 75.50742
889.3930, 75.91808
889.8751, 76.05482
890.3572, 76.15672
890.8394, 76.29833
891.3215, 76.45400
891.8036, 76.59694
892.2857, 76.70311
892.7678, 76.63769
893.2499, 76.17929
893.7321, 75.72678
894.2142, 75.60121
894.6963, 75.68729
895.1784, 75.76546
895.6605, 75.78514
896.1426, 75.80029
896.6248, 75.76060
897.1069, 75.78459
897.5890, 76.14396
898.0711, 76.79012
898.5532, 77.22652
899.0353, 77.36855
899.5175, 77.27628
899.9996, 76.80519
900.4817, 76.23054
900.9638, 75.87397
901.4459, 75.80632
901.9280, 75.92143
902.4102, 76.37130
902.8923, 76.78817
903.3744, 76.86637
903.8565, 76.59650
904.3386, 76.57303
904.8207, 76.81031
905.3029, 76.93361
905.7850, 76.56947
906.2671, 75.98640
906.7492, 75.32527
907.2313, 74.64142
907.7134, 74.36801
908.1956, 75.11806
908.6777, 75.76657
909.1598, 75.93870
909.6419, 75.71249
910.1240, 75.40437
910.6061, 75.01202
911.0883, 74.73809
911.5704, 74.59251
912.0525, 74.70954
912.5346, 75.67732
913.0167, 77.00007
913.4988, 77.60219
913.9810, 76.29485
914.4631, 75.25401
914.9452, 75.03504
915.4273, 75.22748
915.9094, 75.23663
916.3915, 75.03431
916.8737, 75.06629
917.3558, 75.44063
917.8379, 75.84978
918.3200, 75.89111
918.8021, 75.76263
919.2842, 75.78267
919.7664, 76.06557
920.2485, 76.23660
920.7306, 75.91316
921.2127, 75.68216
921.6948, 75.97659
922.1769, 76.85623
922.6591, 77.42114
923.1412, 77.69106
923.6233, 77.43340
924.1054, 75.72880
924.5875, 73.83223
925.0696, 73.80647
925.5518, 75.36142
926.0339, 76.66101
926.5160, 76.82758
926.9981, 76.76430
927.4802, 76.76733
927.9623, 76.77898
928.4445, 76.54773
928.9266, 76.03895
929.4087, 75.73795
929.8908, 75.86580
930.3729, 76.10262
930.8550, 75.95412
931.3372, 75.61526
931.8193, 75.44972
932.3014, 75.76433
932.7835, 75.92828
933.2656, 75.66905
933.7477, 75.29565
934.2299, 75.03442
934.7120, 74.87199
935.1941, 75.08006
935.6762, 75.72623
936.1583, 76.26710
936.6404, 75.93765
937.1226, 75.33076
937.6047, 75.31938
938.0868, 75.98035
938.5689, 76.47557
939.0510, 76.32560
939.5331, 76.18022
940.0153, 76.33553
940.4974, 76.72085
940.9795, 76.80357
941.4616, 76.57781
941.9437, 76.43383
942.4258, 76.66897
942.9080, 76.94484
943.3901, 76.79288
943.8722, 76.37570
944.3543, 76.04127
944.8364, 75.94942
945.3185, 75.89172
945.8007, 75.88718
946.2828, 75.85723
946.7649, 75.58723
947.2470, 75.09364
947.7291, 75.10219
948.2112, 75.77404
948.6934, 76.46780
949.1755, 76.48026
949.6576, 76.24038
950.1397, 76.23314
950.6218, 76.56874
951.1039, 76.86441
951.5861, 77.11758
952.0682, 77.25262
952.5503, 77.18696
953.0324, 76.96207
953.5145, 76.88382
953.9966, 76.94008
954.4788, 76.97629
954.9609, 76.84966
955.4430, 76.71764
955.9251, 76.64302
956.4072, 76.66380
956.8893, 76.90337
957.3715, 77.74310
957.8536, 78.13668
958.3357, 77.84297
958.8178, 77.20753
959.2999, 76.70118
959.7820, 76.31926
960.2642, 76.00139
960.7463, 75.68806
961.2284, 75.70113
961.7105, 76.78836
962.1926, 77.95893
962.6747, 78.27208
963.1569, 77.44883
963.6390, 76.71950
964.1211, 76.00716
964.6032, 75.58667
965.0853, 75.82594
965.5674, 76.44022
966.0496, 76.56316
966.5317, 76.28044
967.0138, 76.00520
967.4959, 75.74779
967.9780, 75.77309
968.4601, 76.59055
968.9423, 77.71095
969.4244, 77.94666
969.9065, 77.04147
970.3886, 76.31783
970.8707, 75.96253
971.3528, 75.95609
971.8350, 76.50022
972.3171, 77.30217
972.7992, 77.84392
973.2813, 78.00831
973.7634, 78.00949
974.2455, 77.78053
974.7277, 77.54390
975.2098, 77.48848
975.6919, 77.62020
976.1740, 77.36900
976.6561, 76.71626
977.1382, 76.08148
977.6204, 75.65082
978.1025, 75.42684
978.5846, 75.36740
979.0667, 75.51076
979.5488, 75.97510
980.0309, 77.48286
980.5131, 78.35112
980.9952, 78.08543
981.4773, 77.30843
981.9594, 77.09648
982.4415, 77.36458
982.9236, 77.36482
983.4058, 76.93082
983.8879, 76.44129
984.3700, 76.29137
984.8521, 76.18898
985.3342, 75.76665
985.8163, 74.82689
986.2985, 74.47561
986.7806, 74.91243
987.2627, 75.50366
987.7448, 75.96542
988.2269, 76.31731
988.7090, 76.63026
989.1912, 76.89113
989.6733, 77.04099
990.1554, 77.00984
990.6375, 76.90704
991.1196, 76.58504
991.6017, 76.30339
992.0839, 76.58804
992.5660, 77.67043
993.0481, 78.24782
993.5302, 78.10699
994.0123, 77.70641
994.4944, 77.54812
994.9766, 77.48292
995.4587, 77.22108
995.9408, 76.70546
996.4229, 76.39291
996.9050, 76.52822
997.3871, 76.81886
997.8693, 77.22060
998.3514, 77.67726
998.8335, 77.77898
999.3156, 77.54620
999.7977, 77.32600
1000.280, 77.25565
1000.762, 77.29088
1001.244, 77.39525
1001.726, 77.57912
1002.208, 77.86519
1002.690, 78.42142
1003.173, 78.81381
1003.655, 79.05527
1004.137, 79.07895
1004.619, 78.65708
1005.101, 77.95615
1005.583, 77.62192
1006.065, 77.67397
1006.547, 77.73811
1007.029, 77.62302
1007.512, 77.42085
1007.994, 77.11806
1008.476, 76.75999
1008.958, 76.50581
1009.440, 76.31469
1009.922, 76.53797
1010.404, 77.44377
1010.886, 78.45479
1011.369, 78.73869
1011.851, 78.57707
1012.333, 78.46431
1012.815, 78.63680
1013.297, 78.57751
1013.779, 77.95998
1014.261, 77.38156
1014.743, 77.27598
1015.225, 77.62098
1015.708, 78.13528
1016.190, 78.78680
1016.672, 79.03511
1017.154, 78.09211
1017.636, 77.01696
1018.118, 76.42021
1018.600, 76.32027
1019.082, 76.74891
1019.565, 78.08015
1020.047, 78.86430
1020.529, 78.76258
1021.011, 78.30553
1021.493, 78.11914
1021.975, 78.15365
1022.457, 78.37640
1022.939, 78.82156
1023.421, 79.08708
1023.904, 78.72965
1024.386, 78.41851
1024.868, 78.58247
1025.350, 79.13409
1025.832, 79.21199
1026.314, 78.82175
1026.796, 78.36062
1027.278, 77.84245
1027.760, 77.56232
1028.243, 78.22343
1028.725, 79.20529
1029.207, 79.44733
1029.689, 77.90749
1030.171, 77.05031
1030.653, 77.01326
1031.135, 77.44180
1031.617, 78.30399
1032.100, 79.30836
1032.582, 79.51450
1033.064, 78.93694
1033.546, 78.35025
1034.028, 78.11009
1034.510, 78.01741
1034.992, 78.00097
1035.474, 78.05473
1035.957, 78.27921
1036.439, 78.71163
1036.921, 78.59000
1037.403, 77.52805
1037.885, 76.58113
1038.367, 77.35820
1038.849, 78.74817
1039.331, 79.27748
1039.813, 78.41574
1040.296, 77.92046
1040.778, 77.96880
1041.260, 78.24869
1041.742, 78.70959
1042.224, 79.22890
1042.706, 79.31583
1043.188, 79.05955
1043.670, 78.81188
1044.152, 78.72427
1044.635, 78.70036
1045.117, 78.76781
1045.599, 78.84174
1046.081, 78.78946
1046.563, 78.57863
1047.045, 78.58412
1047.527, 78.86686
1048.009, 78.95580
1048.492, 78.03732
1048.974, 76.98463
1049.456, 76.80846
1049.938, 77.49026
1050.420, 78.08373
1050.902, 78.57873
1051.384, 78.76862
1051.866, 78.48833
1052.349, 78.05190
1052.831, 78.08190
1053.313, 78.44834
1053.795, 78.81733
1054.277, 79.12762
1054.759, 79.33918
1055.241, 79.35515
1055.723, 79.33109
1056.205, 79.39934
1056.688, 79.55226
1057.170, 79.46372
1057.652, 79.13275
1058.134, 78.81206
1058.616, 78.66575
1059.098, 78.55164
1059.580, 78.21441
1060.062, 77.84431
1060.544, 77.82228
1061.027, 78.44755
1061.509, 78.90657
1061.991, 79.14848
1062.473, 79.27832
1062.955, 79.47514
1063.437, 79.60830
1063.919, 79.23386
1064.401, 78.41847
1064.884, 77.87590
1065.366, 77.90208
1065.848, 78.33655
1066.330, 79.37608
1066.812, 80.57094
1067.294, 80.79662
1067.776, 80.14993
1068.258, 79.69439
1068.740, 79.69225
1069.223, 79.67381
1069.705, 79.04150
1070.187, 78.39151
1070.669, 78.29164
1071.151, 78.79145
1071.633, 79.28053
1072.115, 79.79818
1072.597, 80.12046
1073.079, 80.08257
1073.562, 79.88413
1074.044, 79.76039
1074.526, 79.71617
1075.008, 79.76660
1075.490, 80.05634
1075.972, 80.18130
1076.454, 80.06994
1076.936, 79.86623
1077.419, 79.62733
1077.901, 79.38789
1078.383, 79.31780
1078.865, 79.40427
1079.347, 79.55001
1079.829, 79.91621
1080.311, 80.09108
1080.793, 79.76893
1081.275, 79.18476
1081.758, 78.60210
1082.240, 77.99361
1082.722, 77.93960
1083.204, 78.58110
1083.686, 79.09000
1084.168, 78.31435
1084.650, 77.38337
1085.132, 77.50783
1085.615, 78.71494
1086.097, 79.42632
1086.579, 79.54509
1087.061, 79.29301
1087.543, 78.58518
1088.025, 77.86330
1088.507, 78.05074
1088.989, 78.68306
1089.471, 78.85785
1089.953, 78.17750
1090.436, 77.79378
1090.918, 78.00115
1091.400, 78.51208
1091.882, 79.38056
1092.364, 80.40557
1092.846, 80.54381
1093.328, 79.94913
1093.810, 79.35458
1094.293, 78.93800
1094.775, 78.81113
1095.257, 79.29488
1095.739, 79.92088
1096.221, 80.17262
1096.703, 80.00099
1097.185, 79.84554
1097.667, 79.71057
1098.150, 79.68595
1098.632, 79.95293
1099.114, 80.25845
1099.596, 80.41158
1100.078, 80.42121
1100.560, 80.31936
1101.042, 80.01455
1101.524, 79.92757
1102.006, 80.17614
1102.489, 80.43079
1102.971, 80.13007
1103.453, 79.68302
1103.935, 79.91451
1104.417, 80.86184
1104.899, 81.24210
1105.381, 80.30916
1105.863, 79.40073
1106.345, 78.77399
1106.828, 78.48201
1107.310, 78.82209
1107.792, 79.60128
1108.274, 80.26958
1108.756, 80.75380
1109.238, 80.89341
1109.720, 80.14723
1110.202, 79.49769
1110.685, 79.57562
1111.167, 80.25520
1111.649, 80.66827
1112.131, 80.81087
1112.613, 80.59811
1113.095, 79.68246
1113.577, 78.94566
1114.059, 79.25801
1114.542, 79.97251
1115.024, 80.28951
1115.506, 80.05977
1115.988, 80.18597
1116.470, 80.72396
1116.952, 81.05241
1117.434, 80.48739
1117.916, 79.71107
1118.398, 79.43227
1118.880, 79.53409
1119.363, 79.73540
1119.845, 80.09258
1120.327, 80.32526
1120.809, 80.39665
1121.291, 80.39607
1121.773, 80.43285
1122.255, 80.44865
1122.737, 80.25360
1123.220, 79.89735
1123.702, 79.74668
1124.184, 80.05696
1124.666, 80.44248
1125.148, 80.92467
1125.630, 81.32259
1126.112, 81.30984
1126.594, 80.97483
1127.077, 80.49008
1127.559, 79.86489
1128.041, 79.52555
1128.523, 79.88451
1129.005, 80.36576
1129.487, 80.78264
1129.969, 81.09205
1130.451, 81.08602
1130.933, 80.81606
1131.416, 80.69093
1131.898, 80.84130
1132.380, 81.04980
1132.862, 81.37757
1133.344, 81.52264
1133.826, 81.14491
1134.308, 80.29196
1134.790, 79.75730
1135.272, 79.54135
1135.755, 79.60177
1136.237, 80.09154
1136.719, 80.53887
1137.201, 80.32347
1137.683, 79.89012
1138.165, 79.86864
1138.647, 80.45302
1139.129, 80.68890
1139.612, 80.51670
1140.094, 80.39742
1140.576, 80.79752
1141.058, 81.26457
1141.540, 81.03622
1142.022, 80.46719
1142.504, 80.32848
1142.986, 81.18026
1143.469, 81.65014
1143.951, 81.63761
1144.433, 81.46190
1144.915, 81.46243
1145.397, 81.45842
1145.879, 80.92887
1146.361, 80.05353
1146.843, 79.59509
1147.325, 80.30156
1147.807, 80.68121
1148.290, 80.39061
1148.772, 80.01613
1149.254, 80.51656
1149.736, 81.44862
1150.218, 81.55373
1150.700, 80.81171
1151.182, 80.16551
1151.664, 80.06488
1152.147, 80.07805
1152.629, 80.09344
1153.111, 80.12965
1153.593, 80.22719
1154.075, 80.37566
1154.557, 80.58398
1155.039, 80.86510
1155.521, 80.97146
1156.004, 80.50697
1156.486, 80.12947
1156.968, 80.23647
1157.450, 80.61015
1157.932, 80.44395
1158.414, 79.85094
1158.896, 79.70019
1159.378, 80.29613
1159.860, 80.90511
1160.343, 81.09078
1160.825, 81.05439
1161.307, 80.85338
1161.789, 80.55069
1162.271, 80.71010
1162.753, 81.30474
1163.235, 81.71421
1163.717, 81.70204
1164.199, 81.47496
1164.682, 81.01720
1165.164, 80.55415
1165.646, 80.23980
1166.128, 80.04952
1166.610, 80.66980
1167.092, 82.14323
1167.574, 83.08071
1168.056, 82.46132
1168.539, 81.50695
1169.021, 81.37215
1169.503, 81.56683
1169.985, 81.33324
1170.467, 80.41632
1170.949, 80.20132
1171.431, 80.77880
1171.913, 81.26433
1172.396, 80.76945
1172.878, 80.18880
1173.360, 80.72011
1173.842, 81.78334
1174.324, 82.20808
1174.806, 81.56867
1175.288, 81.20412
1175.770, 81.15202
1176.252, 81.32925
1176.734, 81.99162
1177.217, 82.60526
1177.699, 82.13715
1178.181, 81.06900
1178.663, 80.94139
1179.145, 82.80742
1179.627, 83.34467
1180.109, 82.02211
1180.591, 80.54688
1181.074, 80.76587
1181.556, 81.72315
1182.038, 82.13966
1182.520, 82.06058
1183.002, 82.02763
1183.484, 82.24574
1183.966, 82.26214
1184.448, 81.97676
1184.931, 81.62247
1185.413, 81.56765
1185.895, 81.56334
1186.377, 81.02827
1186.859, 80.04121
1187.341, 79.59343
1187.823, 80.12574
1188.305, 80.71056
1188.787, 81.25877
1189.270, 81.59843
1189.752, 81.29356
1190.234, 80.70172
1190.716, 80.43655
1191.198, 80.55643
1191.680, 80.74763
1192.162, 80.94072
1192.644, 81.21284
1193.126, 81.61471
1193.609, 82.04440
1194.091, 82.48005
1194.573, 82.76860
1195.055, 82.47313
1195.537, 81.48990
1196.019, 80.89363
1196.501, 81.16998
1196.983, 81.36181
1197.466, 81.07903
1197.948, 80.73550
1198.430, 81.31042
1198.912, 82.32748
1199.394, 82.80099
1199.876, 82.47620
1200.358, 82.08782
1200.840, 81.52110
1201.323, 81.44755
1201.805, 82.39580
1202.287, 83.58495
1202.769, 83.17565
1203.251, 81.81026
1203.733, 80.81194
1204.215, 80.46037
1204.697, 80.55132
1205.179, 81.24390
1205.661, 81.95018
1206.144, 82.46975
1206.626, 82.77155
1207.108, 82.62663
1207.590, 82.23024
1208.072, 82.03331
1208.554, 82.27458
1209.036, 82.29796
1209.518, 81.87878
1210.001, 81.48463
1210.483, 81.28229
1210.965, 81.32619
1211.447, 81.95030
1211.929, 82.88705
1212.411, 83.55930
1212.893, 83.69212
1213.375, 83.84226
1213.858, 84.18618
1214.340, 84.34396
1214.822, 84.11696
1215.304, 83.54276
1215.786, 82.32362
1216.268, 80.89710
1216.750, 80.32085
1217.232, 81.38901
1217.714, 82.36552
1218.197, 83.34360
1218.679, 83.67685
1219.161, 82.50305
1219.643, 80.72768
1220.125, 80.26413
1220.607, 80.74483
1221.089, 81.32264
1221.571, 81.88752
1222.053, 82.26556
1222.536, 82.44977
1223.018, 82.45875
1223.500, 82.17223
1223.982, 81.80824
1224.464, 81.91081
1224.946, 82.26680
1225.428, 82.38772
1225.910, 81.68142
1226.393, 81.59883
1226.875, 82.39310
1227.357, 83.09173
1227.839, 82.88711
1228.321, 82.18996
1228.803, 81.46207
1229.285, 80.81826
1229.767, 80.53302
1230.250, 80.86018
1230.732, 81.20460
1231.214, 81.58315
1231.696, 81.89233
1232.178, 81.97959
1232.660, 82.00133
1233.142, 82.21889
1233.624, 82.53451
1234.106, 82.71097
1234.589, 82.70662
1235.071, 82.55454
1235.553, 82.20937
1236.035, 81.96934
1236.517, 82.18352
1236.999, 82.53148
1237.481, 82.58611
1237.963, 82.49926
1238.445, 82.67656
1238.928, 83.35342
1239.410, 83.49106
1239.892, 83.00049
1240.374, 82.45722
1240.856, 82.21730
1241.338, 82.20052
1241.820, 82.44428
1242.302, 82.82737
1242.785, 83.10270
1243.267, 83.25517
1243.749, 83.32654
1244.231, 83.31293
1244.713, 83.36507
1245.195, 83.66125
1245.677, 83.99577
1246.159, 84.40097
1246.641, 84.63998
1247.124, 84.26289
1247.606, 83.19128
1248.088, 82.46542
1248.570, 82.13256
1249.052, 81.85457
1249.534, 81.15596
1250.016, 80.71079
1250.498, 80.99007
1250.980, 81.74341
1251.463, 82.84187
1251.945, 84.26699
1252.427, 84.82879
1252.909, 84.54042
1253.391, 84.06564
1253.873, 83.54497
1254.355, 83.25330
1254.837, 83.56052
1255.320, 83.94204
1255.802, 83.72292
1256.284, 83.02766
1256.766, 82.56060
1257.248, 82.36662
1257.730, 82.51335
1258.212, 83.56369
1258.694, 84.22557
1259.177, 84.04719
1259.659, 83.55958
1260.141, 83.14029
1260.623, 82.88774
1261.105, 83.46664
1261.587, 84.62293
1262.069, 85.10571
1262.551, 83.56938
1263.033, 82.54556
1263.516, 82.44330
1263.998, 82.70621
1264.480, 82.97601
1264.962, 83.13148
1265.444, 82.64262
1265.926, 81.78392
1266.408, 81.57145
1266.890, 82.99721
1267.372, 83.69047
1267.855, 83.36940
1268.337, 82.84090
1268.819, 82.76604
1269.301, 82.93647
1269.783, 83.12150
1270.265, 83.30632
1270.747, 83.47660
1271.229, 83.64722
1271.712, 83.74031
1272.194, 83.74191
1272.676, 83.74449
1273.158, 83.84638
1273.640, 83.95702
1274.122, 83.91200
1274.604, 83.84580
1275.086, 84.04878
1275.568, 84.60402
1276.051, 84.88097
1276.533, 84.86269
1277.015, 84.75185
1277.497, 84.54497
1277.979, 84.44282
1278.461, 84.67319
1278.943, 85.01513
1279.425, 85.19949
1279.907, 85.23080
1280.390, 85.27525
1280.872, 85.32180
1281.354, 85.25484
1281.836, 85.05016
1282.318, 84.65959
1282.800, 83.85619
1283.282, 83.09479
1283.764, 82.77418
1284.247, 82.83403
1284.729, 82.99336
1285.211, 83.27224
1285.693, 83.75299
1286.175, 85.10977
1286.657, 85.63312
1287.139, 84.93990
1287.621, 83.88832
1288.104, 82.77522
1288.586, 81.96642
1289.068, 82.65111
1289.550, 84.18340
1290.032, 85.06492
1290.514, 84.47166
1290.996, 83.94634
1291.478, 83.42471
1291.960, 83.25500
1292.443, 84.02043
1292.925, 84.87264
1293.407, 84.60362
1293.889, 83.76804
1294.371, 83.24724
1294.853, 83.08467
1295.335, 83.31580
1295.817, 83.94962
1296.299, 84.64159
1296.782, 85.39175
1297.264, 85.85118
1297.746, 85.53655
1298.228, 84.96207
1298.710, 84.64971
1299.192, 84.59328
1299.674, 84.60865
1300.156, 84.67713
1300.639, 84.65088
1301.121, 84.36284
1301.603, 84.22422
1302.085, 84.72770
1302.567, 85.13997
1303.049, 85.12748
1303.531, 84.67503
##END=



