##NAMES=Merwinite
##RRUFFID=R070195
##IDEAL CHEMISTRY=Ca_3_Mg(SiO_4_)_2_
##LOCALITY=Commercial Quarry, Riverside County, California, USA
##OWNER=RRUFF
##SOURCE=California Institute of Technology
##DESCRIPTION=Light gray massive
##STATUS=The identification of this mineral has been confirmed by X-ray diffraction and chemical analysis
##URL=rruff.info/R070195
##MEASURED CHEMISTRY=Ca_3.00_(Mg_0.98_Fe^2+^_0.02_)_Î£=1_(Si_1.00_O_4_)_2_
181.5740, 39279.54
182.0561, 39356.65
182.5383, 39389.06
183.0204, 39425.94
183.5025, 39490.31
183.9846, 39575.64
184.4667, 39664.17
184.9488, 39755.84
185.4310, 39850.29
185.9131, 39947.60
186.3952, 40046.48
186.8773, 40146.44
187.3594, 40247.62
187.8415, 40348.61
188.3237, 40446.04
188.8058, 40528.28
189.2879, 40627.46
189.7700, 40770.90
190.2521, 40922.78
190.7342, 41046.85
191.2164, 41125.42
191.6985, 41171.75
192.1806, 41210.86
192.6627, 41209.91
193.1448, 41265.76
193.6269, 41429.75
194.1091, 41631.63
194.5912, 41806.48
195.0733, 41928.53
195.5554, 42014.59
196.0375, 42098.98
196.5196, 42185.30
197.0018, 42263.55
197.4839, 42328.71
197.9660, 42388.96
198.4481, 42450.46
198.9302, 42515.59
199.4123, 42582.99
199.8945, 42650.08
200.3766, 42715.75
200.8587, 42783.80
201.3408, 42867.50
201.8229, 42945.85
202.3050, 42994.93
202.7872, 43010.59
203.2693, 43016.94
203.7514, 43053.77
204.2335, 43134.32
204.7156, 43216.88
205.1977, 43314.93
205.6799, 43403.79
206.1620, 43459.20
206.6441, 43479.78
207.1262, 43491.20
207.6083, 43533.58
208.0904, 43631.14
208.5726, 43696.03
209.0547, 43712.66
209.5368, 43712.88
210.0189, 43708.33
210.5010, 43703.71
210.9831, 43703.20
211.4653, 43710.47
211.9474, 43723.34
212.4295, 43752.95
212.9116, 43808.95
213.3937, 43871.86
213.8758, 43929.43
214.3580, 43983.42
214.8401, 44046.08
215.3222, 44132.52
215.8043, 44248.05
216.2864, 44350.59
216.7685, 44448.87
217.2507, 44526.92
217.7328, 44559.30
218.2149, 44562.44
218.6970, 44579.51
219.1791, 44648.93
219.6612, 44772.25
220.1434, 44891.34
220.6255, 45014.73
221.1076, 45124.94
221.5897, 45216.93
222.0718, 45291.74
222.5539, 45349.53
223.0361, 45386.04
223.5182, 45405.62
224.0003, 45452.90
224.4824, 45588.71
224.9645, 45685.19
225.4466, 45696.39
225.9288, 45655.83
226.4109, 45609.42
226.8930, 45580.89
227.3751, 45572.64
227.8572, 45597.30
228.3393, 45694.30
228.8215, 45771.91
229.3036, 45813.96
229.7857, 45829.88
230.2678, 45820.55
230.7499, 45784.60
231.2320, 45746.57
231.7142, 45776.89
232.1963, 45955.65
232.6784, 46062.04
233.1605, 46020.37
233.6426, 45931.60
234.1247, 45871.33
234.6069, 45866.61
235.0890, 45915.64
235.5711, 46031.99
236.0532, 46278.18
236.5353, 46440.85
237.0174, 46429.73
237.4996, 46391.51
237.9817, 46438.34
238.4638, 46584.73
238.9459, 46746.84
239.4280, 46808.44
239.9101, 46729.00
240.3923, 46699.89
240.8744, 46753.54
241.3565, 46837.61
241.8386, 46948.39
242.3207, 47074.16
242.8028, 47182.50
243.2850, 47231.35
243.7671, 47213.06
244.2492, 47229.06
244.7313, 47320.83
245.2134, 47409.62
245.6955, 47465.49
246.1777, 47494.08
246.6598, 47514.36
247.1419, 47537.30
247.6240, 47563.52
248.1061, 47598.23
248.5882, 47655.07
249.0704, 47701.87
249.5525, 47721.58
250.0346, 47726.05
250.5167, 47733.18
250.9988, 47750.61
251.4809, 47779.13
251.9631, 47820.92
252.4452, 47876.79
252.9273, 47946.00
253.4094, 48038.72
253.8915, 48138.54
254.3736, 48226.75
254.8558, 48295.24
255.3379, 48354.87
255.8200, 48424.41
256.3021, 48507.33
256.7842, 48586.25
257.2664, 48665.84
257.7485, 48733.55
258.2306, 48767.32
258.7127, 48760.79
259.1948, 48764.16
259.6769, 48847.09
260.1591, 49014.67
260.6412, 49144.01
261.1233, 49180.52
261.6054, 49199.36
262.0875, 49259.04
262.5696, 49359.34
263.0518, 49458.20
263.5339, 49514.58
264.0160, 49539.25
264.4981, 49604.25
264.9802, 49759.29
265.4623, 49887.86
265.9445, 49875.27
266.4266, 49762.45
266.9087, 49685.44
267.3908, 49730.58
267.8729, 49850.84
268.3550, 49954.09
268.8372, 50041.20
269.3193, 50100.98
269.8014, 50110.82
270.2835, 50088.54
270.7656, 50059.30
271.2477, 50014.74
271.7299, 49977.95
272.2120, 49981.85
272.6941, 50027.64
273.1762, 50072.42
273.6583, 50084.96
274.1404, 50088.79
274.6226, 50132.36
275.1047, 50246.96
275.5868, 50348.58
276.0689, 50367.96
276.5510, 50323.04
277.0331, 50283.64
277.5153, 50266.53
277.9974, 50277.65
278.4795, 50334.11
278.9616, 50445.47
279.4437, 50546.53
279.9258, 50612.61
280.4080, 50653.29
280.8901, 50678.88
281.3722, 50689.06
281.8543, 50700.99
282.3364, 50737.59
282.8185, 50800.60
283.3007, 50863.21
283.7828, 50943.76
284.2649, 51009.11
284.7470, 51012.17
285.2291, 50955.36
285.7112, 50906.84
286.1934, 50925.68
286.6755, 51011.44
287.1576, 51076.34
287.6397, 51107.28
288.1218, 51132.24
288.6039, 51163.70
289.0861, 51200.20
289.5682, 51238.19
290.0503, 51277.72
290.5324, 51314.02
291.0145, 51325.23
291.4966, 51283.43
291.9788, 51252.84
292.4609, 51251.82
292.9430, 51264.07
293.4251, 51262.95
293.9072, 51239.76
294.3893, 51218.48
294.8715, 51244.12
295.3536, 51359.54
295.8357, 51441.64
296.3178, 51479.64
296.7999, 51494.59
297.2820, 51490.62
297.7642, 51474.32
298.2463, 51462.57
298.7284, 51472.07
299.2105, 51503.79
299.6926, 51552.01
300.1747, 51643.36
300.6569, 51724.18
301.1390, 51762.54
301.6211, 51776.14
302.1032, 51805.50
302.5853, 51880.32
303.0674, 51989.16
303.5495, 52071.67
304.0316, 52102.92
304.5138, 52143.96
304.9959, 52215.21
305.4780, 52298.17
305.9601, 52375.39
306.4422, 52440.68
306.9243, 52492.97
307.4065, 52525.38
307.8886, 52528.96
308.3707, 52545.67
308.8528, 52584.28
309.3349, 52637.95
309.8170, 52709.07
310.2992, 52795.92
310.7813, 52883.29
311.2634, 52967.20
311.7455, 53045.37
312.2276, 53085.92
312.7097, 53063.42
313.1919, 53035.37
313.6740, 53035.57
314.1561, 53058.39
314.6382, 53090.53
315.1203, 53139.94
315.6024, 53188.89
316.0846, 53194.73
316.5667, 53147.13
317.0488, 53117.60
317.5309, 53157.27
318.0130, 53236.36
318.4951, 53303.48
318.9773, 53340.72
319.4594, 53385.80
319.9415, 53472.71
320.4236, 53593.18
320.9057, 53717.00
321.3878, 53843.66
321.8700, 53952.59
322.3521, 53998.77
322.8342, 53970.84
323.3163, 53964.57
323.7984, 54014.67
324.2805, 54098.24
324.7627, 54187.12
325.2448, 54276.88
325.7269, 54375.82
326.2090, 54500.40
326.6911, 54654.48
327.1732, 54757.57
327.6554, 54755.31
328.1375, 54754.37
328.6196, 54825.46
329.1017, 54950.42
329.5838, 55066.57
330.0659, 55137.08
330.5481, 55171.84
331.0302, 55213.45
331.5123, 55311.44
331.9944, 55354.64
332.4765, 55283.38
332.9586, 55173.71
333.4408, 55101.54
333.9229, 55091.53
334.4050, 55127.75
334.8871, 55197.97
335.3692, 55344.11
335.8513, 55405.96
336.3335, 55308.33
336.8156, 55203.33
337.2977, 55161.74
337.7798, 55183.25
338.2619, 55238.81
338.7440, 55315.55
339.2262, 55407.30
339.7083, 55455.90
340.1904, 55431.60
340.6725, 55405.81
341.1546, 55395.00
341.6367, 55396.56
342.1189, 55408.32
342.6010, 55430.54
343.0831, 55457.63
343.5652, 55475.89
344.0473, 55480.89
344.5294, 55511.00
345.0116, 55606.45
345.4937, 55705.60
345.9758, 55750.31
346.4579, 55739.69
346.9400, 55737.03
347.4221, 55799.73
347.9043, 55900.56
348.3864, 55953.67
348.8685, 55932.53
349.3506, 55921.18
349.8327, 56019.39
350.3148, 56184.95
350.7970, 56289.08
351.2791, 56258.73
351.7612, 56199.21
352.2433, 56198.92
352.7254, 56247.89
353.2076, 56233.04
353.6897, 56285.94
354.1718, 56322.31
354.6539, 56343.04
355.1360, 56301.29
355.6181, 56340.22
356.1003, 56346.82
356.5824, 56352.10
357.0645, 56402.39
357.5466, 56369.73
358.0287, 56419.31
358.5108, 56436.06
358.9930, 56480.49
359.4751, 56509.11
359.9572, 56523.06
360.4393, 56537.42
360.9214, 56566.18
361.4035, 56600.40
361.8857, 56617.22
362.3678, 56600.98
362.8499, 56565.11
363.3320, 56560.57
363.8141, 56616.56
364.2962, 56657.43
364.7784, 56656.51
365.2605, 56649.45
365.7426, 56674.41
366.2247, 56735.92
366.7068, 56795.93
367.1889, 56802.88
367.6711, 56752.21
368.1532, 56725.16
368.6353, 56728.26
369.1174, 56753.51
369.5995, 56794.47
370.0816, 56852.16
370.5638, 56931.64
371.0459, 57054.57
371.5280, 57184.94
372.0101, 57250.32
372.4922, 57242.92
372.9743, 57245.15
373.4565, 57299.08
373.9386, 57378.07
374.4207, 57435.70
374.9028, 57459.79
375.3849, 57501.39
375.8670, 57619.25
376.3492, 57767.57
376.8313, 57842.73
377.3134, 57817.05
377.7955, 57770.05
378.2776, 57787.46
378.7597, 57878.02
379.2419, 57932.76
379.7240, 57915.38
380.2061, 57893.30
380.6882, 57910.14
381.1703, 57956.05
381.6524, 57995.99
382.1346, 58009.60
382.6167, 58009.24
383.0988, 58032.96
383.5809, 58094.84
384.0630, 58164.79
384.5451, 58264.29
385.0273, 58356.97
385.5094, 58410.50
385.9915, 58421.72
386.4736, 58412.34
386.9557, 58401.30
387.4378, 58387.95
387.9200, 58385.41
388.4021, 58379.20
388.8842, 58403.65
389.3663, 58497.98
389.8484, 58622.35
390.3305, 58714.98
390.8127, 58749.26
391.2948, 58744.07
391.7769, 58707.89
392.2590, 58630.80
392.7411, 58624.46
393.2232, 58779.14
393.7054, 58962.21
394.1875, 59035.07
394.6696, 58997.76
395.1517, 58972.11
395.6338, 59037.54
396.1159, 59145.80
396.5981, 59218.59
397.0802, 59248.32
397.5623, 59254.34
398.0444, 59235.96
398.5265, 59204.83
399.0086, 59216.20
399.4908, 59312.88
399.9729, 59402.93
400.4550, 59457.32
400.9371, 59480.16
401.4192, 59463.80
401.9013, 59405.25
402.3835, 59351.83
402.8656, 59379.30
403.3477, 59531.89
403.8298, 59630.28
404.3119, 59662.90
404.7940, 59661.28
405.2762, 59610.00
405.7583, 59537.61
406.2404, 59507.26
406.7225, 59563.82
407.2046, 59680.48
407.6867, 59760.93
408.1689, 59788.43
408.6510, 59813.15
409.1331, 59834.85
409.6152, 59864.45
410.0973, 59911.35
410.5794, 59976.79
411.0616, 60054.49
411.5437, 60141.80
412.0258, 60237.64
412.5079, 60334.98
412.9900, 60434.75
413.4721, 60531.77
413.9543, 60612.57
414.4364, 60688.68
414.9185, 60783.17
415.4006, 60910.18
415.8827, 61045.40
416.3648, 61172.54
416.8470, 61293.68
417.3291, 61419.96
417.8112, 61559.36
418.2933, 61687.51
418.7754, 61760.87
419.2575, 61752.24
419.7397, 61781.87
420.2218, 61903.79
420.7039, 62023.71
421.1860, 62073.73
421.6681, 62063.68
422.1502, 62040.18
422.6324, 62032.03
423.1145, 62036.79
423.5966, 62047.45
424.0787, 62108.77
424.5608, 62101.77
425.0429, 61963.34
425.5251, 61792.66
426.0072, 61666.14
426.4893, 61595.93
426.9714, 61552.20
427.4535, 61519.53
427.9356, 61494.54
428.4178, 61429.89
428.8999, 61286.02
429.3820, 61179.52
429.8641, 61210.45
430.3462, 61304.91
430.8283, 61351.42
431.3105, 61307.82
431.7926, 61245.96
432.2747, 61221.33
432.7568, 61227.18
433.2389, 61243.25
433.7210, 61268.13
434.2032, 61288.75
434.6853, 61284.43
435.1674, 61251.18
435.6495, 61238.18
436.1316, 61245.22
436.6137, 61275.84
437.0959, 61352.59
437.5780, 61454.98
438.0601, 61530.50
438.5422, 61550.24
439.0243, 61539.67
439.5064, 61564.41
439.9886, 61652.75
440.4707, 61726.56
440.9528, 61788.33
441.4349, 61834.36
441.9170, 61859.02
442.3991, 61865.00
442.8813, 61860.50
443.3634, 61845.12
443.8455, 61826.59
444.3276, 61835.57
444.8097, 61876.29
445.2918, 61933.16
445.7740, 62040.69
446.2561, 62140.46
446.7382, 62161.96
447.2203, 62087.17
447.7024, 62008.40
448.1845, 61984.04
448.6667, 61995.25
449.1488, 62002.32
449.6309, 61999.41
450.1130, 62003.61
450.5951, 62035.54
451.0772, 62089.22
451.5594, 62108.20
452.0415, 62034.07
452.5236, 61995.58
453.0057, 62076.03
453.4878, 62202.74
453.9699, 62268.21
454.4521, 62243.51
454.9342, 62185.48
455.4163, 62166.98
455.8984, 62195.39
456.3805, 62221.54
456.8626, 62227.23
457.3448, 62249.69
457.8269, 62314.72
458.3090, 62400.76
458.7911, 62472.97
459.2732, 62515.98
459.7553, 62544.11
460.2375, 62574.54
460.7196, 62607.06
461.2017, 62653.00
461.6838, 62738.14
462.1659, 62804.05
462.6480, 62768.20
463.1302, 62655.55
463.6123, 62602.86
464.0944, 62687.45
464.5765, 62815.64
465.0586, 62912.30
465.5407, 62981.05
466.0229, 63048.50
466.5050, 63129.78
466.9871, 63202.32
467.4692, 63217.03
467.9513, 63119.68
468.4334, 63079.91
468.9156, 63137.93
469.3977, 63217.32
469.8798, 63277.12
470.3619, 63316.45
470.8440, 63346.47
471.3261, 63372.76
471.8083, 63399.29
472.2904, 63441.27
472.7725, 63507.87
473.2546, 63564.11
473.7367, 63604.13
474.2188, 63629.38
474.7010, 63627.79
475.1831, 63604.47
475.6652, 63598.82
476.1473, 63655.65
476.6294, 63735.66
477.1115, 63763.10
477.5937, 63735.75
478.0758, 63717.18
478.5579, 63740.03
479.0400, 63790.90
479.5221, 63838.70
480.0042, 63881.59
480.4864, 63925.73
480.9685, 63976.84
481.4506, 64026.62
481.9327, 64062.68
482.4148, 64087.86
482.8969, 64120.95
483.3791, 64178.86
483.8612, 64253.65
484.3433, 64300.70
484.8254, 64297.58
485.3075, 64303.13
485.7896, 64317.49
486.2718, 64348.27
486.7539, 64402.85
487.2360, 64481.37
487.7181, 64575.89
488.2002, 64693.29
488.6823, 64821.45
489.1645, 64930.16
489.6466, 65023.37
490.1287, 65068.35
490.6108, 65016.63
491.0929, 64921.40
491.5750, 64895.10
492.0572, 64957.85
492.5393, 65029.31
493.0214, 65082.75
493.5035, 65130.41
493.9856, 65189.04
494.4677, 65258.15
494.9499, 65325.47
495.4320, 65385.18
495.9141, 65432.49
496.3962, 65435.99
496.8783, 65345.88
497.3604, 65281.15
497.8426, 65251.70
498.3247, 65251.77
498.8068, 65292.84
499.2889, 65366.23
499.7710, 65427.13
500.2531, 65429.94
500.7353, 65391.07
501.2174, 65374.37
501.6995, 65385.40
502.1816, 65394.11
502.6637, 65375.56
503.1458, 65354.83
503.6280, 65374.54
504.1101, 65446.38
504.5922, 65511.68
505.0743, 65535.77
505.5564, 65548.95
506.0385, 65591.16
506.5207, 65661.43
507.0028, 65726.20
507.4849, 65762.45
507.9670, 65776.80
508.4491, 65797.85
508.9312, 65828.50
509.4134, 65862.33
509.8955, 65902.96
510.3776, 65943.40
510.8597, 65975.42
511.3418, 66001.11
511.8239, 66031.43
512.3061, 66075.14
512.7882, 66128.51
513.2703, 66191.27
513.7524, 66271.02
514.2346, 66308.46
514.7167, 66256.95
515.1988, 66174.59
515.6809, 66136.70
516.1630, 66145.51
516.6451, 66164.91
517.1273, 66204.23
517.6094, 66234.51
518.0915, 66207.79
518.5736, 66142.10
519.0557, 66119.30
519.5378, 66188.32
520.0200, 66301.28
520.5021, 66339.91
520.9842, 66240.04
521.4663, 66188.34
521.9484, 66236.99
522.4305, 66279.39
522.9127, 66227.20
523.3948, 66121.27
523.8769, 66079.73
524.3590, 66184.58
524.8411, 66339.39
525.3232, 66365.79
525.8054, 66264.95
526.2875, 66226.57
526.7696, 66317.09
527.2517, 66448.63
527.7338, 66528.55
528.2159, 66563.67
528.6981, 66605.59
529.1802, 66689.14
529.6623, 66754.07
530.1444, 66738.87
530.6265, 66684.30
531.1086, 66672.00
531.5908, 66729.35
532.0729, 66820.91
532.5550, 66903.61
533.0371, 66982.48
533.5192, 67021.83
534.0013, 66979.67
534.4835, 66945.23
534.9656, 66945.65
535.4477, 66969.62
535.9298, 66998.80
536.4119, 67027.02
536.8940, 67070.07
537.3762, 67175.72
537.8583, 67309.20
538.3404, 67329.16
538.8225, 67201.11
539.3046, 67101.92
539.7867, 67179.02
540.2689, 67387.54
540.7510, 67500.70
541.2331, 67478.80
541.7152, 67429.38
542.1973, 67338.38
542.6794, 67252.59
543.1616, 67233.34
543.6437, 67273.40
544.1258, 67302.59
544.6079, 67261.84
545.0900, 67168.20
545.5721, 67088.40
546.0543, 67005.91
546.5364, 66983.95
547.0185, 67119.31
547.5006, 67261.34
547.9827, 67279.05
548.4648, 67178.56
548.9469, 67086.05
549.4290, 67064.64
549.9111, 67073.02
550.3932, 67065.77
550.8754, 67047.57
551.3575, 67040.31
551.8396, 67051.22
552.3217, 67086.26
552.8038, 67162.86
553.2859, 67315.74
553.7681, 67390.95
554.2502, 67305.09
554.7323, 67242.51
555.2144, 67309.95
555.6965, 67439.36
556.1786, 67513.87
556.6608, 67489.65
557.1429, 67437.59
557.6250, 67433.56
558.1071, 67475.80
558.5892, 67562.52
559.0714, 67715.19
559.5535, 67843.27
560.0356, 67873.84
560.5177, 67834.31
560.9998, 67818.80
561.4819, 67834.55
561.9641, 67862.81
562.4462, 67900.41
562.9283, 67946.08
563.4104, 67995.88
563.8925, 68051.48
564.3746, 68124.99
564.8568, 68230.33
565.3389, 68353.13
565.8210, 68442.53
566.3031, 68507.30
566.7852, 68516.05
567.2673, 68368.53
567.7495, 68240.09
568.2316, 68262.21
568.7137, 68410.83
569.1958, 68553.59
569.6779, 68640.33
570.1600, 68692.56
570.6422, 68702.99
571.1243, 68694.34
571.6064, 68762.47
572.0885, 68944.00
572.5706, 69133.98
573.0527, 69196.39
573.5349, 69111.04
574.0170, 69091.68
574.4991, 69226.73
574.9812, 69318.63
575.4633, 69258.23
575.9454, 69160.46
576.4276, 69174.64
576.9097, 69324.88
577.3918, 69478.00
577.8739, 69514.60
578.3560, 69457.61
578.8381, 69363.23
579.3203, 69222.65
579.8024, 69139.39
580.2845, 69196.26
580.7666, 69307.09
581.2487, 69288.52
581.7308, 69101.88
582.2130, 68973.49
582.6951, 68989.15
583.1772, 69023.35
583.6593, 68979.24
584.1414, 68888.98
584.6235, 68839.40
585.1057, 68870.88
585.5878, 68934.25
586.0699, 68948.17
586.5520, 68907.04
587.0341, 68881.99
587.5162, 68880.89
587.9984, 68888.45
588.4805, 68908.97
588.9626, 68928.95
589.4447, 68920.47
589.9268, 68864.03
590.4089, 68821.02
590.8911, 68846.44
591.3732, 68888.06
591.8553, 68862.73
592.3374, 68777.08
592.8195, 68712.98
593.3016, 68725.49
593.7838, 68796.28
594.2659, 68874.98
594.7480, 68981.41
595.2301, 69047.64
595.7122, 69023.33
596.1943, 68997.52
596.6765, 69020.38
597.1586, 69077.02
597.6407, 69124.88
598.1228, 69146.34
598.6049, 69157.71
599.0870, 69181.63
599.5692, 69206.38
600.0513, 69183.52
600.5334, 69103.34
601.0155, 69054.23
601.4976, 69117.70
601.9797, 69278.57
602.4619, 69413.52
602.9440, 69537.58
603.4261, 69611.41
603.9082, 69603.41
604.3903, 69567.70
604.8724, 69530.95
605.3546, 69502.66
605.8367, 69496.38
606.3188, 69525.61
606.8009, 69573.07
607.2830, 69619.09
607.7651, 69662.27
608.2473, 69688.99
608.7294, 69693.62
609.2115, 69690.97
609.6936, 69699.08
610.1757, 69717.90
610.6578, 69710.09
611.1400, 69614.60
611.6221, 69572.03
612.1042, 69674.03
612.5863, 69807.34
613.0684, 69846.37
613.5505, 69787.41
614.0327, 69726.45
614.5148, 69743.68
614.9969, 69803.73
615.4790, 69808.62
615.9611, 69754.52
616.4432, 69736.16
616.9254, 69794.30
617.4075, 69873.31
617.8896, 69907.04
618.3717, 69894.43
618.8538, 69903.16
619.3359, 69963.59
619.8181, 70013.61
620.3002, 70022.06
620.7823, 70010.13
621.2644, 69995.83
621.7465, 69987.97
622.2286, 70004.27
622.7108, 70072.14
623.1929, 70172.10
623.6750, 70223.45
624.1571, 70219.20
624.6392, 70201.87
625.1213, 70157.04
625.6035, 70135.52
626.0856, 70229.23
626.5677, 70430.28
627.0498, 70563.84
627.5319, 70544.28
628.0140, 70518.12
628.4962, 70586.29
628.9783, 70683.16
629.4604, 70693.84
629.9425, 70601.63
630.4246, 70502.83
630.9067, 70495.37
631.3889, 70561.89
631.8710, 70605.94
632.3531, 70624.70
632.8352, 70631.84
633.3173, 70625.39
633.7994, 70614.70
634.2816, 70604.11
634.7637, 70594.27
635.2458, 70607.24
635.7279, 70669.06
636.2100, 70731.95
636.6921, 70775.16
637.1743, 70799.60
637.6564, 70806.13
638.1385, 70795.98
638.6206, 70771.50
639.1027, 70723.52
639.5848, 70665.22
640.0670, 70692.27
640.5491, 70837.40
641.0312, 70950.93
641.5133, 70974.58
641.9954, 70963.37
642.4775, 70971.03
642.9597, 70996.37
643.4418, 71026.13
643.9239, 71069.19
644.4060, 71103.64
644.8881, 71105.02
645.3702, 71094.95
645.8524, 71111.42
646.3345, 71159.29
646.8166, 71206.07
647.2987, 71218.32
647.7808, 71205.99
648.2629, 71219.75
648.7451, 71268.57
649.2272, 71306.63
649.7093, 71315.23
650.1914, 71316.63
650.6735, 71334.03
651.1556, 71364.74
651.6378, 71389.83
652.1199, 71389.05
652.6020, 71401.48
653.0841, 71447.32
653.5662, 71516.52
654.0483, 71614.90
654.5305, 71730.42
655.0126, 71805.59
655.4947, 71784.99
655.9768, 71700.77
656.4589, 71662.24
656.9410, 71678.10
657.4232, 71684.41
657.9053, 71657.24
658.3874, 71632.21
658.8695, 71637.55
659.3516, 71671.57
659.8337, 71731.09
660.3159, 71879.27
660.7980, 71974.31
661.2801, 71930.27
661.7622, 71833.45
662.2443, 71773.51
662.7264, 71755.46
663.2086, 71727.27
663.6907, 71644.52
664.1728, 71559.57
664.6549, 71607.16
665.1370, 71792.70
665.6191, 71930.30
666.1013, 71981.75
666.5834, 72005.07
667.0655, 72034.98
667.5476, 72071.80
668.0297, 72117.02
668.5118, 72190.76
668.9940, 72240.09
669.4761, 72232.23
669.9582, 72214.77
670.4403, 72231.03
670.9224, 72271.01
671.4045, 72294.62
671.8867, 72280.13
672.3688, 72256.30
672.8509, 72266.45
673.3330, 72305.62
673.8151, 72332.66
674.2972, 72338.20
674.7794, 72367.59
675.2615, 72458.03
675.7436, 72582.83
676.2257, 72672.59
676.7078, 72720.69
677.1899, 72747.80
677.6721, 72743.03
678.1542, 72728.95
678.6363, 72716.73
679.1184, 72703.55
679.6005, 72678.13
680.0826, 72636.98
680.5648, 72605.68
681.0469, 72614.63
681.5290, 72649.97
682.0111, 72685.31
682.4932, 72718.31
682.9753, 72729.20
683.4575, 72704.86
683.9396, 72669.16
684.4217, 72659.22
684.9038, 72679.25
685.3859, 72702.90
685.8680, 72741.63
686.3502, 72770.34
686.8323, 72773.72
687.3144, 72769.76
687.7965, 72786.74
688.2786, 72823.71
688.7607, 72834.54
689.2429, 72753.91
689.7250, 72663.76
690.2071, 72664.68
690.6892, 72733.92
691.1713, 72810.30
691.6534, 72876.23
692.1356, 72924.65
692.6177, 72944.13
693.0998, 72940.02
693.5819, 72959.60
694.0640, 73008.47
694.5461, 73069.31
695.0283, 73162.66
695.5104, 73245.73
695.9925, 73290.82
696.4746, 73301.35
696.9567, 73289.72
697.4388, 73225.73
697.9210, 73190.20
698.4031, 73248.53
698.8852, 73347.08
699.3673, 73422.63
699.8494, 73469.38
700.3315, 73515.45
700.8137, 73582.59
701.2958, 73635.77
701.7779, 73574.35
702.2600, 73388.18
702.7421, 73308.47
703.2242, 73390.51
703.7064, 73490.41
704.1885, 73527.67
704.6706, 73523.24
705.1527, 73531.96
705.6348, 73570.51
706.1169, 73573.89
706.5991, 73478.76
707.0812, 73400.42
707.5633, 73413.14
708.0454, 73488.63
708.5275, 73588.59
709.0096, 73697.70
709.4918, 73776.65
709.9739, 73771.41
710.4560, 73712.00
710.9381, 73669.41
711.4202, 73644.59
711.9023, 73640.63
712.3845, 73665.09
712.8666, 73680.38
713.3487, 73624.95
713.8308, 73490.36
714.3129, 73467.58
714.7950, 73664.97
715.2772, 73827.61
715.7593, 73915.82
716.2414, 73955.30
716.7235, 73940.69
717.2056, 73891.07
717.6877, 73877.46
718.1699, 73956.66
718.6520, 74040.56
719.1341, 74053.38
719.6162, 74025.47
720.0983, 74003.20
720.5804, 73994.88
721.0626, 73993.70
721.5447, 73993.73
722.0268, 74003.94
722.5089, 74051.50
722.9910, 74143.52
723.4731, 74226.98
723.9553, 74309.58
724.4374, 74360.20
724.9195, 74346.91
725.4016, 74294.58
725.8837, 74248.46
726.3658, 74197.23
726.8480, 74194.31
727.3301, 74311.47
727.8122, 74416.57
728.2943, 74415.44
728.7764, 74354.76
729.2585, 74312.23
729.7407, 74309.57
730.2228, 74321.27
730.7049, 74331.70
731.1870, 74337.23
731.6691, 74318.43
732.1512, 74280.52
732.6334, 74279.94
733.1155, 74338.04
733.5976, 74405.88
734.0797, 74434.41
734.5618, 74425.83
735.0439, 74409.09
735.5261, 74364.70
736.0082, 74345.09
736.4903, 74378.39
736.9724, 74416.56
737.4545, 74431.36
737.9366, 74426.98
738.4188, 74416.18
738.9009, 74392.94
739.3830, 74386.88
739.8651, 74431.98
740.3472, 74491.60
740.8293, 74517.15
741.3115, 74516.34
741.7936, 74531.69
742.2757, 74583.14
742.7578, 74640.98
743.2399, 74661.44
743.7220, 74646.93
744.2042, 74627.26
744.6863, 74598.39
745.1684, 74587.47
745.6505, 74603.26
746.1326, 74645.62
746.6147, 74727.88
747.0969, 74861.43
747.5790, 74924.06
748.0611, 74861.48
748.5432, 74803.23
749.0253, 74764.59
749.5074, 74754.20
749.9896, 74799.51
750.4717, 74883.06
750.9538, 74936.00
751.4359, 74912.77
751.9180, 74872.37
752.4001, 74868.26
752.8823, 74886.02
753.3644, 74906.09
753.8465, 74922.24
754.3286, 74916.06
754.8107, 74874.75
755.2928, 74820.02
755.7750, 74798.00
756.2571, 74813.95
756.7392, 74807.37
757.2213, 74755.48
757.7034, 74737.80
758.1855, 74812.34
758.6677, 74922.49
759.1498, 74980.20
759.6319, 74981.13
760.1140, 74985.65
760.5961, 74999.80
761.0782, 75016.79
761.5604, 75025.31
762.0425, 75041.05
762.5246, 75104.95
763.0067, 75200.49
763.4888, 75233.66
763.9709, 75107.25
764.4531, 74974.07
764.9352, 75046.64
765.4173, 75243.60
765.8994, 75373.44
766.3815, 75407.95
766.8636, 75370.75
767.3458, 75266.73
767.8279, 75143.99
768.3100, 75113.85
768.7921, 75193.19
769.2742, 75266.79
769.7563, 75340.94
770.2385, 75392.02
770.7206, 75403.70
771.2027, 75390.30
771.6848, 75372.63
772.1669, 75351.41
772.6490, 75318.77
773.1312, 75219.31
773.6133, 75174.00
774.0954, 75272.67
774.5775, 75420.30
775.0596, 75532.95
775.5417, 75593.52
776.0239, 75602.45
776.5060, 75546.80
776.9881, 75467.84
777.4702, 75392.04
777.9523, 75332.98
778.4344, 75342.12
778.9166, 75413.66
779.3987, 75454.55
779.8808, 75409.30
780.3629, 75328.20
780.8450, 75307.63
781.3271, 75355.01
781.8093, 75387.04
782.2914, 75393.23
782.7735, 75414.62
783.2556, 75488.42
783.7377, 75564.23
784.2198, 75565.71
784.7020, 75490.78
785.1841, 75446.41
785.6662, 75431.52
786.1483, 75455.00
786.6304, 75551.10
787.1125, 75661.33
787.5947, 75750.74
788.0768, 75808.90
788.5589, 75818.38
789.0410, 75756.38
789.5231, 75695.84
790.0052, 75693.53
790.4874, 75734.74
790.9695, 75817.63
791.4516, 75924.88
791.9337, 76003.99
792.4158, 76032.84
792.8979, 76006.88
793.3801, 75896.26
793.8622, 75716.99
794.3443, 75631.68
794.8264, 75647.91
795.3085, 75721.26
795.7906, 75874.13
796.2728, 76004.78
796.7549, 76001.31
797.2370, 75877.90
797.7191, 75787.94
798.2012, 75722.06
798.6833, 75705.38
799.1655, 75779.21
799.6476, 75862.71
800.1297, 75903.52
800.6118, 75922.33
801.0939, 75974.92
801.5760, 76084.95
802.0582, 76148.25
802.5403, 76072.44
803.0224, 75962.39
803.5045, 75901.01
803.9866, 75881.16
804.4688, 75885.84
804.9509, 75906.96
805.4330, 75927.31
805.9151, 75925.69
806.3972, 75922.94
806.8793, 75978.38
807.3615, 76081.23
807.8436, 76145.68
808.3257, 76155.91
808.8078, 76146.98
809.2899, 76137.21
809.7720, 76134.61
810.2542, 76164.98
810.7363, 76248.84
811.2184, 76288.91
811.7005, 76258.92
812.1826, 76227.70
812.6647, 76203.65
813.1469, 76203.89
813.6290, 76265.06
814.1111, 76386.40
814.5932, 76466.43
815.0753, 76470.01
815.5574, 76455.73
816.0396, 76436.41
816.5217, 76413.45
817.0038, 76377.95
817.4859, 76339.66
817.9680, 76321.21
818.4501, 76329.29
818.9323, 76373.02
819.4144, 76511.82
819.8965, 76662.53
820.3786, 76662.48
820.8607, 76551.45
821.3428, 76510.76
821.8250, 76601.35
822.3071, 76699.44
822.7892, 76650.11
823.2713, 76504.52
823.7534, 76502.80
824.2355, 76654.37
824.7177, 76754.98
825.1998, 76761.64
825.6819, 76705.96
826.1640, 76580.04
826.6461, 76433.90
827.1282, 76452.05
827.6104, 76781.45
828.0925, 76933.92
828.5746, 76755.23
829.0567, 76587.44
829.5388, 76565.67
830.0209, 76613.13
830.5031, 76639.78
830.9852, 76639.92
831.4673, 76657.18
831.9494, 76703.44
832.4315, 76767.10
832.9136, 76892.74
833.3958, 76997.30
833.8779, 76951.49
834.3600, 76805.63
834.8421, 76750.49
835.3242, 76886.69
835.8063, 77043.98
836.2885, 77051.73
836.7706, 76985.17
837.2527, 76964.74
837.7348, 76985.69
838.2169, 76995.92
838.6990, 76979.13
839.1812, 76971.73
839.6633, 77016.73
840.1454, 77097.81
840.6275, 77154.59
841.1096, 77186.59
841.5917, 77216.05
842.0739, 77243.70
842.5560, 77288.45
843.0381, 77372.56
843.5202, 77470.94
844.0023, 77520.80
844.4844, 77514.47
844.9666, 77481.27
845.4487, 77367.04
845.9308, 77306.69
846.4129, 77397.75
846.8950, 77527.41
847.3771, 77587.09
847.8593, 77579.49
848.3414, 77564.70
848.8235, 77519.28
849.3056, 77510.35
849.7877, 77583.55
850.2698, 77675.40
850.7520, 77748.80
851.2341, 77798.96
851.7162, 77820.09
852.1983, 77808.46
852.6804, 77800.95
853.1625, 77804.85
853.6447, 77839.23
854.1268, 77954.59
854.6089, 78107.09
855.0910, 78201.67
855.5731, 78226.20
856.0552, 78241.51
856.5374, 78286.66
857.0195, 78363.19
857.5016, 78489.77
857.9837, 78651.88
858.4658, 78779.51
858.9479, 78867.46
859.4301, 78962.42
859.9122, 79084.87
860.3943, 79236.10
860.8764, 79426.66
861.3585, 79653.04
861.8406, 79838.38
862.3228, 79965.02
862.8049, 80125.15
863.2870, 80362.17
863.7691, 80594.24
864.2512, 80745.51
864.7333, 80844.70
865.2155, 80995.27
865.6976, 81238.65
866.1797, 81447.97
866.6618, 81605.62
867.1439, 81753.16
867.6260, 81902.35
868.1082, 82050.89
868.5903, 82219.11
869.0724, 82398.77
869.5545, 82486.09
870.0366, 82369.15
870.5187, 82265.68
871.0009, 82317.71
871.4830, 82369.38
871.9651, 82240.95
872.4472, 82003.83
872.9293, 81847.38
873.4114, 81836.21
873.8936, 81862.92
874.3757, 81819.47
874.8578, 81798.10
875.3399, 81937.79
875.8220, 82170.23
876.3041, 82331.16
876.7863, 82406.57
877.2684, 82527.19
877.7505, 82784.36
878.2326, 83118.84
878.7147, 83430.95
879.1968, 83737.38
879.6790, 84105.55
880.1611, 84536.21
880.6432, 84992.93
881.1253, 85458.67
881.6074, 85933.20
882.0895, 86420.41
882.5717, 86913.36
883.0538, 87389.64
883.5359, 87865.67
884.0180, 88203.46
884.5001, 88404.14
884.9822, 88374.28
885.4644, 88015.65
885.9465, 87428.48
886.4286, 86821.38
886.9107, 86198.73
887.3928, 85542.74
887.8749, 84809.29
888.3571, 84116.58
888.8392, 83485.88
889.3213, 82918.16
889.8034, 82420.83
890.2855, 81986.25
890.7676, 81570.79
891.2498, 81120.02
891.7319, 80785.96
892.2140, 80671.56
892.6961, 80587.38
893.1782, 80430.90
893.6603, 80243.48
894.1425, 80076.85
894.6246, 79941.41
895.1067, 79855.43
895.5888, 79854.50
896.0709, 79871.05
896.5530, 79885.08
897.0352, 79886.25
897.5173, 79837.05
897.9994, 79769.75
898.4815, 79771.40
898.9636, 79873.54
899.4457, 79990.64
899.9279, 80047.66
900.4100, 80087.04
900.8921, 80147.58
901.3742, 80235.53
901.8563, 80381.02
902.3384, 80573.33
902.8206, 80731.91
903.3027, 80800.28
903.7848, 80846.34
904.2669, 80976.38
904.7490, 81163.82
905.2311, 81320.41
905.7133, 81447.37
906.1954, 81587.27
906.6775, 81753.62
907.1596, 81915.42
907.6417, 82048.89
908.1238, 82144.36
908.6060, 82166.53
909.0881, 82115.20
909.5702, 82026.04
910.0523, 81896.92
910.5344, 81774.89
911.0165, 81685.09
911.4987, 81606.13
911.9808, 81497.18
912.4629, 81359.98
912.9450, 81324.20
913.4271, 81433.48
913.9092, 81503.26
914.3914, 81484.96
914.8735, 81455.13
915.3556, 81472.31
915.8377, 81507.44
916.3198, 81490.38
916.8019, 81403.52
917.2841, 81329.52
917.7662, 81249.10
918.2483, 81209.10
918.7304, 81279.27
919.2125, 81342.83
919.6946, 81315.79
920.1768, 81205.47
920.6589, 81035.91
921.1410, 80746.84
921.6231, 80535.89
922.1052, 80497.41
922.5873, 80466.38
923.0695, 80343.15
923.5516, 80200.63
924.0337, 80151.03
924.5158, 80182.70
924.9979, 80150.74
925.4800, 79968.96
925.9622, 79787.20
926.4443, 79659.39
926.9264, 79562.56
927.4085, 79468.33
927.8906, 79396.81
928.3727, 79394.58
928.8549, 79466.54
929.3370, 79545.29
929.8191, 79594.10
930.3012, 79634.96
930.7833, 79680.13
931.2654, 79729.88
931.7476, 79805.65
932.2297, 79884.22
932.7118, 79889.78
933.1939, 79796.91
933.6760, 79713.59
934.1581, 79757.14
934.6403, 79842.82
935.1224, 79876.07
935.6045, 79862.28
936.0866, 79789.17
936.5687, 79676.37
937.0508, 79606.81
937.5330, 79626.54
938.0151, 79675.24
938.4972, 79689.01
938.9793, 79673.10
939.4614, 79639.47
939.9435, 79587.40
940.4257, 79498.55
940.9078, 79375.38
941.3899, 79281.69
941.8720, 79264.60
942.3541, 79290.62
942.8362, 79293.93
943.3184, 79285.53
943.8005, 79337.71
944.2826, 79446.59
944.7647, 79527.07
945.2468, 79553.10
945.7289, 79535.44
946.2111, 79478.36
946.6932, 79397.38
947.1753, 79331.58
947.6574, 79280.92
948.1395, 79253.52
948.6216, 79251.09
949.1038, 79259.46
949.5859, 79275.19
950.0680, 79289.38
950.5501, 79290.52
951.0322, 79282.53
951.5143, 79282.42
951.9965, 79286.26
952.4786, 79334.06
952.9607, 79451.14
953.4428, 79525.48
953.9249, 79490.93
954.4070, 79417.23
954.8892, 79398.18
955.3713, 79431.23
955.8534, 79458.50
956.3355, 79480.63
956.8176, 79496.52
957.2997, 79514.94
957.7819, 79505.26
958.2640, 79428.02
958.7461, 79337.85
959.2282, 79327.26
959.7103, 79401.95
960.1924, 79478.39
960.6746, 79589.92
961.1567, 79632.41
961.6388, 79532.46
962.1209, 79440.76
962.6030, 79469.15
963.0851, 79557.18
963.5673, 79580.24
964.0494, 79518.52
964.5315, 79498.32
965.0136, 79546.98
965.4957, 79597.51
965.9778, 79662.35
966.4600, 79702.90
966.9421, 79661.68
967.4242, 79585.44
967.9063, 79597.79
968.3884, 79749.48
968.8705, 79795.83
969.3527, 79618.55
969.8348, 79477.55
970.3169, 79439.95
970.7990, 79459.88
971.2811, 79527.94
971.7632, 79621.40
972.2454, 79685.80
972.7275, 79712.59
973.2096, 79723.29
973.6917, 79706.27
974.1738, 79692.48
974.6559, 79697.81
975.1381, 79706.71
975.6202, 79707.11
976.1023, 79699.10
976.5844, 79680.98
977.0665, 79638.22
977.5486, 79633.27
978.0308, 79713.32
978.5129, 79793.55
978.9950, 79827.96
979.4771, 79851.56
979.9592, 79917.07
980.4413, 80004.52
980.9235, 80027.01
981.4056, 79926.41
981.8877, 79884.83
982.3698, 80008.95
982.8519, 80143.54
983.3340, 80215.47
983.8162, 80252.49
984.2983, 80286.28
984.7804, 80317.66
985.2625, 80331.39
985.7446, 80313.27
986.2267, 80307.90
986.7089, 80344.48
987.1910, 80383.55
987.6731, 80405.70
988.1552, 80415.05
988.6373, 80415.20
989.1194, 80408.09
989.6016, 80397.77
990.0837, 80385.11
990.5658, 80370.27
991.0479, 80358.03
991.5300, 80338.55
992.0121, 80273.72
992.4943, 80219.08
992.9764, 80263.06
993.4585, 80386.95
993.9406, 80474.08
994.4227, 80474.18
994.9048, 80467.74
995.3870, 80506.63
995.8691, 80533.63
996.3512, 80472.45
996.8333, 80400.23
997.3154, 80423.72
997.7975, 80536.26
998.2797, 80650.82
998.7618, 80741.50
999.2439, 80819.31
999.7260, 80906.00
1000.208, 80964.38
1000.690, 80909.37
1001.172, 80848.18
1001.654, 80936.45
1002.137, 81156.81
1002.619, 81363.64
1003.101, 81517.12
1003.583, 81620.55
1004.065, 81641.88
1004.547, 81651.03
1005.029, 81678.65
1005.511, 81733.48
1005.994, 81847.50
1006.476, 81997.74
1006.958, 82095.16
1007.440, 82097.05
1007.922, 82085.64
1008.404, 82122.01
1008.886, 82131.37
1009.368, 82032.28
1009.850, 81900.36
1010.333, 81837.75
1010.815, 81832.83
1011.297, 81800.00
1011.779, 81712.10
1012.261, 81596.98
1012.743, 81445.46
1013.225, 81293.78
1013.707, 81124.17
1014.190, 80996.06
1014.672, 81023.07
1015.154, 81152.16
1015.636, 81181.64
1016.118, 81025.34
1016.600, 80903.52
1017.082, 80951.70
1017.564, 80995.92
1018.046, 80916.14
1018.529, 80804.88
1019.011, 80753.30
1019.493, 80758.45
1019.975, 80789.41
1020.457, 80851.97
1020.939, 80873.70
1021.421, 80783.60
1021.903, 80706.42
1022.385, 80711.63
1022.868, 80745.56
1023.350, 80756.45
1023.832, 80753.73
1024.314, 80775.67
1024.796, 80834.87
1025.278, 80881.24
1025.760, 80885.99
1026.242, 80896.33
1026.725, 80945.05
1027.207, 80991.88
1027.689, 80996.76
1028.171, 80976.64
1028.653, 80976.91
1029.135, 81009.36
1029.617, 81009.25
1030.099, 80919.51
1030.582, 80858.85
1031.064, 80890.40
1031.546, 80929.48
1032.028, 80913.25
1032.510, 80866.51
1032.992, 80833.90
1033.474, 80818.70
1033.956, 80817.38
1034.438, 80824.78
1034.921, 80853.16
1035.403, 80913.60
1035.885, 80985.72
1036.367, 81076.91
1036.849, 81163.06
1037.331, 81205.13
1037.813, 81201.67
1038.295, 81193.37
1038.777, 81203.52
1039.260, 81170.91
1039.742, 81028.68
1040.224, 80925.06
1040.706, 80925.19
1041.188, 80998.31
1041.670, 81140.98
1042.152, 81338.09
1042.634, 81417.70
1043.116, 81309.63
1043.599, 81235.23
1044.081, 81193.60
1044.563, 81205.44
1045.045, 81314.00
1045.527, 81427.71
1046.009, 81441.78
1046.491, 81385.07
1046.973, 81397.71
1047.456, 81515.12
1047.938, 81577.97
1048.420, 81566.31
1048.902, 81555.16
1049.384, 81565.33
1049.866, 81587.03
1050.348, 81614.03
1050.830, 81643.84
1051.313, 81668.27
1051.795, 81685.50
1052.277, 81722.66
1052.759, 81789.13
1053.241, 81807.49
1053.723, 81750.26
1054.205, 81693.88
1054.687, 81690.21
1055.169, 81716.03
1055.651, 81733.22
1056.134, 81740.68
1056.616, 81704.14
1057.098, 81623.96
1057.580, 81671.66
1058.062, 81878.48
1058.544, 82017.25
1059.026, 81963.63
1059.508, 81848.51
1059.991, 81844.73
1060.473, 81918.23
1060.955, 81967.45
1061.437, 81989.89
1061.919, 81947.22
1062.401, 81849.79
1062.883, 81808.30
1063.365, 81864.80
1063.848, 81972.22
1064.330, 82104.05
1064.812, 82218.76
1065.294, 82211.34
1065.776, 82136.36
1066.258, 82131.64
1066.740, 82186.71
1067.222, 82228.00
1067.704, 82235.95
1068.187, 82228.55
1068.669, 82208.89
1069.151, 82213.91
1069.633, 82323.31
1070.115, 82454.39
1070.597, 82485.88
1071.079, 82450.71
1071.561, 82412.64
1072.043, 82389.01
1072.526, 82388.95
1073.008, 82421.21
1073.490, 82443.43
1073.972, 82423.80
1074.454, 82382.48
1074.936, 82293.34
1075.418, 82223.60
1075.900, 82293.35
1076.383, 82446.95
1076.865, 82507.21
1077.347, 82423.69
1077.829, 82375.80
1078.311, 82509.45
1078.793, 82605.64
1079.275, 82508.20
1079.757, 82391.71
1080.240, 82403.89
1080.722, 82485.26
1081.204, 82534.67
1081.686, 82539.39
1082.168, 82510.20
1082.650, 82399.62
1083.132, 82330.79
1083.614, 82357.58
1084.096, 82387.59
1084.578, 82376.57
1085.061, 82350.12
1085.543, 82323.51
1086.025, 82304.55
1086.507, 82338.63
1086.989, 82486.27
1087.471, 82517.57
1087.953, 82343.72
1088.435, 82237.43
1088.918, 82299.86
1089.400, 82391.77
1089.882, 82418.46
1090.364, 82396.41
1090.846, 82353.32
1091.328, 82286.71
1091.810, 82279.27
1092.292, 82343.19
1092.775, 82389.60
1093.257, 82404.41
1093.739, 82399.28
1094.221, 82378.93
1094.703, 82343.02
1095.185, 82275.04
1095.667, 82209.95
1096.149, 82321.05
1096.631, 82572.76
1097.114, 82665.53
1097.596, 82592.70
1098.078, 82550.03
1098.560, 82598.12
1099.042, 82636.08
1099.524, 82574.63
1100.006, 82499.13
1100.488, 82565.62
1100.970, 82699.86
1101.453, 82762.83
1101.935, 82759.98
1102.417, 82690.42
1102.899, 82583.71
1103.381, 82550.96
1103.863, 82648.42
1104.345, 82756.34
1104.827, 82778.83
1105.310, 82763.66
1105.792, 82726.73
1106.274, 82698.89
1106.756, 82745.34
1107.238, 82822.08
1107.720, 82813.17
1108.202, 82700.67
1108.684, 82622.15
1109.167, 82658.28
1109.649, 82700.86
1110.131, 82706.71
1110.613, 82710.16
1111.095, 82734.38
1111.577, 82766.48
1112.059, 82790.49
1112.541, 82806.60
1113.023, 82820.16
1113.505, 82820.60
1113.988, 82847.18
1114.470, 82962.98
1114.952, 83003.63
1115.434, 82879.55
1115.916, 82744.62
1116.398, 82695.57
1116.880, 82709.67
1117.362, 82750.86
1117.845, 82819.39
1118.327, 82865.61
1118.809, 82878.42
1119.291, 82948.48
1119.773, 83105.65
1120.255, 83177.59
1120.737, 83078.38
1121.219, 82960.88
1121.702, 82986.31
1122.184, 83100.41
1122.666, 83167.04
1123.148, 83194.90
1123.630, 83221.71
1124.112, 83253.53
1124.594, 83329.13
1125.076, 83445.55
1125.558, 83518.32
1126.041, 83498.69
1126.523, 83432.10
1127.005, 83321.13
1127.487, 83235.34
1127.969, 83305.45
1128.451, 83446.48
1128.933, 83543.63
1129.415, 83582.91
1129.897, 83558.62
1130.380, 83478.48
1130.862, 83423.77
1131.344, 83456.62
1131.826, 83485.94
1132.308, 83433.41
1132.790, 83395.31
1133.272, 83474.61
1133.754, 83579.11
1134.237, 83574.95
1134.719, 83490.70
1135.201, 83483.30
1135.683, 83613.76
1136.165, 83675.28
1136.647, 83556.26
1137.129, 83512.20
1137.611, 83644.88
1138.094, 83775.48
1138.576, 83796.40
1139.058, 83764.66
1139.540, 83761.92
1140.022, 83785.25
1140.504, 83805.34
1140.986, 83819.41
1141.468, 83865.41
1141.950, 83953.90
1142.432, 83966.92
1142.915, 83860.79
1143.397, 83778.68
1143.879, 83838.49
1144.361, 83953.08
1144.843, 83966.20
1145.325, 83912.28
1145.807, 83875.20
1146.289, 83865.76
1146.772, 83923.80
1147.254, 84040.99
1147.736, 84186.09
1148.218, 84339.77
1148.700, 84416.77
1149.182, 84306.68
1149.664, 84175.81
1150.146, 84184.75
1150.629, 84232.68
1151.111, 84201.09
1151.593, 84151.12
1152.075, 84195.80
1152.557, 84323.41
1153.039, 84426.41
1153.521, 84476.39
1154.003, 84509.95
1154.485, 84525.95
1154.968, 84540.45
1155.450, 84551.63
1155.932, 84569.91
1156.414, 84594.43
1156.896, 84636.34
1157.378, 84727.60
1157.860, 84857.80
1158.342, 84889.01
1158.824, 84778.08
1159.307, 84780.20
1159.789, 84932.27
1160.271, 85049.59
1160.753, 85075.62
1161.235, 85064.13
1161.717, 85048.70
1162.199, 85049.09
1162.681, 85104.10
1163.164, 85200.26
1163.646, 85315.58
1164.128, 85429.21
1164.610, 85444.58
1165.092, 85385.17
1165.574, 85386.98
1166.056, 85487.44
1166.538, 85589.30
1167.021, 85611.83
1167.503, 85656.30
1167.985, 85867.16
1168.467, 86073.81
1168.949, 86087.76
1169.431, 86031.59
1169.913, 86066.33
1170.395, 86176.35
1170.877, 86260.56
1171.359, 86294.66
1171.842, 86360.48
1172.324, 86521.03
1172.806, 86637.72
1173.288, 86643.23
1173.770, 86669.63
1174.252, 86785.31
1174.734, 86929.66
1175.216, 87046.24
1175.699, 87135.07
1176.181, 87182.84
1176.663, 87182.14
1177.145, 87262.95
1177.627, 87428.43
1178.109, 87540.31
1178.591, 87573.45
1179.073, 87564.05
1179.556, 87529.57
1180.038, 87530.56
1180.520, 87644.18
1181.002, 87806.75
1181.484, 87924.16
1181.966, 88011.72
1182.448, 88090.41
1182.930, 88160.41
1183.412, 88207.21
1183.895, 88240.20
1184.377, 88309.28
1184.859, 88442.41
1185.341, 88534.09
1185.823, 88502.96
1186.305, 88465.52
1186.787, 88424.84
1187.269, 88443.90
1187.751, 88646.26
1188.234, 88881.75
1188.716, 88911.95
1189.198, 88778.20
1189.680, 88742.86
1190.162, 88848.26
1190.644, 88895.55
1191.126, 88864.70
1191.608, 88868.30
1192.091, 88935.17
1192.573, 89017.53
1193.055, 89094.27
1193.537, 89118.89
1194.019, 89003.91
1194.501, 88839.21
1194.983, 88876.70
1195.465, 89030.66
1195.948, 89067.39
1196.430, 89013.43
1196.912, 88984.16
1197.394, 89003.70
1197.876, 89057.78
1198.358, 89147.40
1198.840, 89193.18
1199.322, 89098.80
1199.804, 89006.84
1200.286, 89004.30
1200.769, 89030.12
1201.251, 89054.42
1201.733, 89064.03
1202.215, 89027.23
1202.697, 88956.09
1203.179, 88944.95
1203.661, 89018.99
1204.143, 89079.19
1204.626, 89143.23
1205.108, 89121.95
1205.590, 88972.06
1206.072, 88853.11
1206.554, 88853.14
1207.036, 88905.61
1207.518, 88934.77
1208.000, 88951.92
1208.483, 89011.00
1208.965, 89072.89
1209.447, 88974.57
1209.929, 88787.51
1210.411, 88754.87
1210.893, 88878.16
1211.375, 88967.83
1211.857, 88948.64
1212.339, 88900.16
1212.822, 88860.73
1213.304, 88819.54
1213.786, 88748.80
1214.268, 88698.71
1214.750, 88715.45
1215.232, 88765.05
1215.714, 88806.86
1216.196, 88843.63
1216.678, 88896.98
1217.161, 88977.29
1217.643, 89008.22
1218.125, 88983.47
1218.607, 88923.27
1219.089, 88816.84
1219.571, 88783.33
1220.053, 88878.27
1220.535, 88979.26
1221.018, 88974.77
1221.500, 88910.27
1221.982, 88846.45
1222.464, 88793.21
1222.946, 88767.42
1223.428, 88770.13
1223.910, 88826.97
1224.392, 88908.84
1224.875, 88919.44
1225.357, 88843.79
1225.839, 88818.20
1226.321, 88947.61
1226.803, 89042.74
1227.285, 89013.59
1227.767, 88971.77
1228.249, 88963.70
1228.731, 88962.83
1229.214, 88930.21
1229.696, 88910.61
1230.178, 89003.97
1230.660, 89187.99
1231.142, 89187.38
1231.624, 88991.68
##END=



