##NAMES=Metauranocircite-I
##RRUFFID=R050575
##IDEAL CHEMISTRY=Ba(U^6+^O_2_)_2_(PO_4_)_2_&#183;8H_2_O
##LOCALITY=Voightland, Saxony, Germany
##OWNER=RRUFF
##SOURCE=University of Arizona Mineral Museum
##DESCRIPTION=Yellow platy crystals with minor intergrown quartz
##STATUS=The identification of this mineral is confirmed by single-crystal X-ray diffraction and chemical analysis.
##URL=rruff.info/R050575
##MEASURED CHEMISTRY=(Ba_0.98_Ca_0.02_)_Σ=1_(U_1.00_O_2_)_2_(P_1.00_O_4_)_2_·6.13H_2_O
92.96582, 384.3387
93.44794, 388.8304
93.93005, 390.3710
94.41217, 380.8098
94.89429, 371.2084
95.37640, 364.9000
95.85852, 360.3686
96.34064, 354.9071
96.82275, 347.5341
97.30487, 338.1077
97.78699, 326.7876
98.26910, 311.3875
98.75122, 296.8631
99.23334, 286.7774
99.71545, 280.7885
100.1976, 274.3535
100.6797, 265.3714
101.1618, 254.9000
101.6439, 244.2708
102.1260, 232.6945
102.6081, 221.2817
103.0903, 212.6252
103.5724, 207.3682
104.0545, 203.6337
104.5366, 200.7465
105.0187, 198.3533
105.5008, 195.7502
105.9830, 192.1194
106.4651, 187.3011
106.9472, 183.7815
107.4293, 183.3371
107.9114, 182.6423
108.3935, 180.2977
108.8757, 176.3560
109.3578, 171.8559
109.8399, 168.0544
110.3220, 165.1194
110.8041, 162.6345
111.2862, 160.8159
111.7684, 159.2391
112.2505, 157.5842
112.7326, 155.7404
113.2147, 153.8318
113.6968, 152.1320
114.1789, 150.7388
114.6611, 149.3594
115.1432, 147.7281
115.6253, 146.0773
116.1074, 144.9485
116.5895, 144.7729
117.0716, 145.0803
117.5538, 144.7456
118.0359, 143.5208
118.5180, 142.1205
119.0001, 140.9741
119.4822, 140.0828
119.9643, 139.4208
120.4465, 139.1081
120.9286, 138.9888
121.4107, 138.9301
121.8928, 138.9379
122.3749, 138.9451
122.8570, 138.8385
123.3392, 138.6509
123.8213, 138.2557
124.3034, 137.5368
124.7855, 136.6445
125.2676, 135.7570
125.7497, 134.9753
126.2319, 134.2975
126.7140, 133.7213
127.1961, 133.4553
127.6782, 133.0997
128.1603, 132.3922
128.6424, 131.4818
129.1246, 130.7678
129.6067, 130.6853
130.0888, 131.4908
130.5709, 131.5426
131.0530, 130.4798
131.5351, 129.1313
132.0173, 127.8643
132.4994, 126.7641
132.9815, 125.8450
133.4636, 125.1488
133.9457, 124.7540
134.4278, 124.3399
134.9100, 123.7694
135.3921, 123.2145
135.8742, 122.9130
136.3563, 122.9579
136.8384, 123.1590
137.3205, 123.2217
137.8027, 123.1373
138.2848, 123.0897
138.7669, 123.2315
139.2490, 123.4965
139.7311, 123.6183
140.2132, 123.4791
140.6954, 123.1891
141.1775, 122.8556
141.6596, 122.4739
142.1417, 122.1228
142.6238, 121.8887
143.1059, 121.7856
143.5881, 121.7033
144.0702, 121.6315
144.5523, 121.5612
145.0344, 121.4806
145.5165, 121.3861
145.9986, 121.2953
146.4807, 121.2437
146.9629, 121.2584
147.4450, 121.2643
147.9271, 121.1796
148.4092, 121.1082
148.8913, 121.1869
149.3734, 121.4869
149.8556, 121.9215
150.3377, 122.1443
150.8198, 121.7925
151.3019, 121.5996
151.7840, 121.6861
152.2661, 121.9830
152.7483, 122.4118
153.2304, 122.9499
153.7125, 123.5726
154.1946, 123.8542
154.6767, 123.5038
155.1588, 123.1900
155.6410, 123.2090
156.1231, 123.5058
156.6052, 123.8355
157.0873, 124.0229
157.5694, 124.0676
158.0515, 124.1249
158.5337, 124.2027
159.0158, 124.2871
159.4979, 124.3162
159.9800, 124.2808
160.4621, 124.3634
160.9442, 124.8037
161.4264, 125.4984
161.9085, 126.1435
162.3906, 126.7362
162.8727, 127.2201
163.3548, 127.4561
163.8369, 127.3338
164.3191, 127.2118
164.8012, 127.3930
165.2833, 127.7643
165.7654, 128.0833
166.2475, 128.1794
166.7296, 128.0964
167.2118, 128.0885
167.6939, 128.2112
168.1760, 128.3514
168.6581, 128.4172
169.1402, 128.4471
169.6223, 128.5458
170.1045, 128.8253
170.5866, 129.3064
171.0687, 129.7352
171.5508, 130.1516
172.0329, 130.4768
172.5150, 130.6124
172.9972, 130.6011
173.4793, 130.5896
173.9614, 130.7294
174.4435, 131.0358
174.9256, 131.4583
175.4077, 132.1933
175.8899, 132.8737
176.3720, 133.2225
176.8541, 133.2398
177.3362, 133.1753
177.8183, 133.3577
178.3004, 133.9234
178.7826, 134.4483
179.2647, 134.9928
179.7468, 135.4676
180.2289, 135.7601
180.7110, 135.8472
181.1931, 135.8695
181.6752, 136.0557
182.1574, 136.4912
182.6395, 136.8377
183.1216, 136.9393
183.6037, 136.9698
184.0858, 137.1763
184.5679, 137.6500
185.0501, 138.2459
185.5322, 138.7326
186.0143, 139.1062
186.4964, 139.4766
186.9785, 139.9799
187.4606, 140.5117
187.9428, 140.7778
188.4249, 140.5904
188.9070, 140.2547
189.3891, 140.1629
189.8712, 140.3231
190.3533, 140.5280
190.8355, 140.6949
191.3176, 140.8163
191.7997, 140.7921
192.2818, 140.3114
192.7639, 139.9499
193.2460, 140.2227
193.7282, 141.1678
194.2103, 142.3265
194.6924, 143.4852
195.1745, 144.7230
195.6566, 145.2750
196.1387, 144.2875
196.6209, 142.9782
197.1030, 141.9503
197.5851, 141.3098
198.0672, 140.8774
198.5493, 140.4131
199.0314, 139.8512
199.5136, 139.4822
199.9957, 139.4548
200.4778, 139.5333
200.9599, 139.6387
201.4420, 139.7303
201.9241, 139.7244
202.4063, 139.4619
202.8884, 138.7532
203.3705, 138.1455
203.8526, 137.8706
204.3347, 137.5627
204.8168, 136.9299
205.2990, 135.8935
205.7811, 134.5891
206.2632, 133.2463
206.7453, 131.6077
207.2274, 130.3436
207.7095, 129.6964
208.1917, 129.2692
208.6738, 128.7242
209.1559, 127.9421
209.6380, 126.9938
210.1201, 126.0162
210.6022, 124.9293
211.0844, 123.9343
211.5665, 123.0011
212.0486, 122.1788
212.5307, 121.5982
213.0128, 121.3170
213.4949, 121.1341
213.9771, 120.5857
214.4592, 119.4228
214.9413, 118.4832
215.4234, 118.0013
215.9055, 117.8178
216.3876, 117.7294
216.8698, 117.7021
217.3519, 117.6430
217.8340, 117.3145
218.3161, 116.6529
218.7982, 116.0737
219.2803, 115.7853
219.7625, 115.6779
220.2446, 115.4809
220.7267, 115.0669
221.2088, 114.6132
221.6909, 114.4347
222.1730, 114.5767
222.6552, 114.6006
223.1373, 114.1045
223.6194, 113.2737
224.1015, 112.7948
224.5836, 112.9718
225.0657, 113.4163
225.5479, 113.6815
226.0300, 113.7655
226.5121, 113.7986
226.9942, 113.8994
227.4763, 114.0421
227.9584, 114.0437
228.4406, 113.8274
228.9227, 113.4819
229.4048, 113.0277
229.8869, 112.4803
230.3690, 112.0201
230.8511, 111.8435
231.3333, 111.9432
231.8154, 111.9709
232.2975, 111.8617
232.7796, 111.6805
233.2617, 111.4006
233.7438, 111.0530
234.2260, 110.7902
234.7081, 110.7719
235.1902, 111.0130
235.6723, 111.2709
236.1544, 111.5982
236.6365, 111.8822
237.1187, 112.0851
237.6008, 112.1996
238.0829, 112.2207
238.5650, 112.0962
239.0471, 111.7875
239.5292, 111.6187
240.0114, 111.8548
240.4935, 112.0092
240.9756, 111.8115
241.4577, 111.3299
241.9398, 110.8497
242.4219, 110.6460
242.9041, 110.7596
243.3862, 110.8547
243.8683, 110.8402
244.3504, 110.8916
244.8325, 111.1127
245.3146, 111.4696
245.7968, 111.8647
246.2789, 112.2294
246.7610, 112.5853
247.2431, 112.7202
247.7252, 112.4229
248.2073, 112.1251
248.6895, 111.9980
249.1716, 112.0134
249.6537, 112.0503
250.1358, 112.0027
250.6179, 111.8601
251.1000, 111.7928
251.5822, 111.7108
252.0643, 111.7746
252.5464, 112.1831
253.0285, 112.8071
253.5106, 113.3264
253.9927, 113.4982
254.4748, 113.3229
254.9570, 113.1021
255.4391, 112.7290
255.9212, 112.4248
256.4033, 112.2727
256.8854, 112.2537
257.3676, 112.3339
257.8497, 112.5167
258.3318, 112.7790
258.8139, 112.8177
259.2960, 112.3237
259.7781, 111.9898
260.2603, 112.1931
260.7424, 112.7464
261.2245, 113.2050
261.7066, 113.3113
262.1887, 113.1223
262.6708, 112.9217
263.1530, 112.5727
263.6351, 112.3619
264.1172, 112.4962
264.5993, 112.8345
265.0814, 113.0712
265.5635, 113.0515
266.0457, 112.8419
266.5278, 112.6359
267.0099, 112.2839
267.4920, 112.1476
267.9741, 112.5430
268.4562, 113.2229
268.9384, 113.6681
269.4204, 113.6411
269.9026, 113.3345
270.3847, 113.1494
270.8668, 113.0901
271.3489, 113.0882
271.8310, 113.2067
272.3131, 113.3594
272.7953, 113.3194
273.2774, 112.9473
273.7595, 112.5470
274.2416, 112.7351
274.7237, 113.5841
275.2058, 114.2241
275.6880, 114.2935
276.1701, 114.0053
276.6522, 113.6710
277.1343, 113.3113
277.6164, 113.0691
278.0985, 113.2569
278.5807, 113.8274
279.0628, 114.2582
279.5449, 114.3161
280.0270, 114.1714
280.5091, 114.0948
280.9912, 114.1415
281.4734, 114.1837
281.9555, 114.0052
282.4376, 113.6782
282.9197, 113.5531
283.4018, 113.8465
283.8839, 114.3346
284.3661, 114.7843
284.8482, 115.2050
285.3303, 115.4278
285.8124, 115.1457
286.2945, 114.5546
286.7766, 114.1343
287.2588, 114.0872
287.7409, 114.2018
288.2230, 114.2665
288.7051, 114.2821
289.1872, 114.2344
289.6693, 114.0395
290.1515, 113.7949
290.6336, 113.6872
291.1157, 113.8149
291.5978, 113.9989
292.0799, 114.0826
292.5620, 114.0664
293.0442, 113.9773
293.5263, 113.7956
294.0084, 113.5601
294.4905, 113.3178
294.9726, 113.0574
295.4547, 112.8302
295.9369, 112.7255
296.4190, 112.7283
296.9011, 112.6311
297.3832, 112.3003
297.8653, 111.9020
298.3474, 111.6039
298.8296, 111.4103
299.3117, 111.3189
299.7938, 111.4071
300.2759, 111.6276
300.7580, 111.7107
301.2401, 111.5264
301.7223, 111.2871
302.2044, 111.2024
302.6865, 111.2553
303.1686, 111.3075
303.6507, 111.3337
304.1328, 111.3057
304.6150, 111.0942
305.0971, 110.5800
305.5792, 110.0933
306.0613, 109.9179
306.5434, 109.9665
307.0255, 110.0223
307.5077, 109.9852
307.9898, 109.8944
308.4719, 109.8315
308.9540, 109.8052
309.4361, 109.7821
309.9182, 109.7614
310.4004, 109.7276
310.8825, 109.6452
311.3646, 109.4623
311.8467, 109.2660
312.3288, 109.1878
312.8109, 109.2423
313.2931, 109.3207
313.7752, 109.4065
314.2573, 109.4738
314.7394, 109.4879
315.2215, 109.4347
315.7036, 109.3480
316.1858, 109.2316
316.6679, 109.0861
317.1500, 109.0159
317.6321, 109.0917
318.1142, 109.2326
318.5963, 109.3913
319.0785, 109.5742
319.5606, 109.6535
320.0427, 109.4753
320.5248, 109.0856
321.0069, 108.7360
321.4890, 108.3743
321.9712, 108.2194
322.4533, 108.5807
322.9354, 109.3684
323.4175, 109.9877
323.8996, 110.0306
324.3817, 109.6821
324.8639, 109.4391
325.3460, 109.3722
325.8281, 109.3275
326.3102, 109.1567
326.7923, 108.9215
327.2744, 108.7606
327.7566, 108.7590
328.2387, 108.8404
328.7208, 108.8905
329.2029, 108.9018
329.6850, 108.9254
330.1671, 109.0054
330.6493, 109.1115
331.1314, 109.2013
331.6135, 109.2671
332.0956, 109.3148
332.5777, 109.3646
333.0598, 109.4143
333.5420, 109.4039
334.0241, 109.3047
334.5062, 109.1308
334.9883, 108.8831
335.4704, 108.5348
335.9525, 108.2532
336.4347, 108.1389
336.9168, 108.1788
337.3989, 108.3732
337.8810, 108.8419
338.3631, 109.2567
338.8452, 109.1725
339.3274, 108.6449
339.8094, 108.2417
340.2916, 108.2894
340.7737, 108.5788
341.2558, 108.7439
341.7379, 108.7313
342.2200, 108.6696
342.7021, 108.6530
343.1843, 108.6707
343.6664, 108.6923
344.1485, 108.7504
344.6306, 108.7847
345.1127, 108.6983
345.5948, 108.4948
346.0770, 108.3342
346.5591, 108.2801
347.0412, 108.3532
347.5233, 108.5741
348.0054, 109.0832
348.4875, 109.5158
348.9697, 109.6526
349.4518, 109.5355
349.9339, 109.2523
350.4160, 108.7431
350.8981, 108.2315
351.3802, 108.1645
351.8624, 108.6167
352.3445, 108.9782
352.8266, 108.9403
353.3087, 108.7312
353.7908, 108.7145
354.2729, 108.9727
354.7551, 109.3311
355.2372, 109.6558
355.7193, 109.9470
356.2014, 110.0427
356.6835, 109.7561
357.1656, 109.3914
357.6478, 109.2211
358.1299, 109.2399
358.6120, 109.2192
359.0941, 108.9404
359.5762, 108.4906
360.0583, 108.4238
360.5405, 109.0682
361.0226, 109.7004
361.5047, 110.0307
361.9868, 110.1285
362.4689, 110.1591
362.9510, 110.1951
363.4332, 110.1969
363.9153, 110.0496
364.3974, 109.5971
364.8795, 109.3050
365.3616, 109.3235
365.8438, 109.4876
366.3259, 109.5871
366.8080, 109.5833
367.2901, 109.6576
367.7722, 110.0756
368.2543, 111.0045
368.7365, 111.5196
369.2186, 111.3344
369.7007, 111.0178
370.1828, 110.8878
370.6649, 110.9320
371.1470, 110.9908
371.6292, 110.9522
372.1113, 110.8220
372.5934, 110.6627
373.0755, 110.2591
373.5576, 110.0772
374.0397, 110.4160
374.5219, 110.9846
375.0040, 111.3443
375.4861, 111.3092
375.9682, 111.0821
376.4503, 111.1208
376.9324, 111.7762
377.4146, 112.1357
377.8967, 111.8017
378.3788, 111.4709
378.8609, 111.7617
379.3430, 112.6864
379.8251, 113.7050
380.3073, 114.1945
380.7894, 114.0389
381.2715, 114.1751
381.7536, 114.9308
382.2357, 115.6526
382.7178, 116.1255
383.2000, 116.3984
383.6821, 116.5930
384.1642, 116.7685
384.6463, 116.9487
385.1284, 117.2401
385.6105, 117.7499
386.0927, 118.1941
386.5748, 118.5955
387.0569, 118.8811
387.5390, 118.9093
388.0211, 118.6515
388.5032, 118.3577
388.9854, 118.4093
389.4675, 118.8853
389.9496, 119.2660
390.4317, 119.3835
390.9138, 119.4839
391.3959, 119.6523
391.8781, 119.9057
392.3602, 120.2664
392.8423, 120.8369
393.3244, 121.5426
393.8065, 122.0155
394.2886, 122.2119
394.7708, 122.2459
395.2529, 122.1228
395.7350, 121.8994
396.2171, 121.6310
396.6992, 121.2989
397.1813, 121.0039
397.6635, 120.8457
398.1456, 120.8226
398.6277, 121.0065
399.1098, 121.6801
399.5919, 122.3400
400.0740, 122.3991
400.5562, 121.8173
401.0383, 121.1994
401.5204, 120.9193
402.0025, 120.8544
402.4846, 120.7034
402.9667, 120.4275
403.4489, 120.0611
403.9310, 119.6035
404.4131, 119.0737
404.8952, 118.5327
405.3773, 117.9730
405.8594, 117.4189
406.3416, 116.8883
406.8237, 116.3832
407.3058, 115.9095
407.7879, 115.4499
408.2700, 115.0509
408.7521, 114.8329
409.2343, 114.8355
409.7164, 114.9002
410.1985, 115.1205
410.6806, 115.3271
411.1627, 115.1728
411.6448, 114.5715
412.1269, 113.9569
412.6090, 113.8646
413.0912, 114.4289
413.5733, 114.8727
414.0554, 115.2405
414.5375, 115.4556
415.0196, 115.4080
415.5017, 115.1585
415.9839, 114.8716
416.4660, 114.6393
416.9481, 114.4697
417.4302, 114.4056
417.9123, 114.5498
418.3944, 114.6767
418.8766, 114.8733
419.3587, 114.9907
419.8408, 114.7506
420.3229, 114.1343
420.8050, 113.5532
421.2871, 113.6297
421.7693, 114.6566
422.2514, 115.2551
422.7335, 115.0745
423.2156, 114.8349
423.6977, 114.8247
424.1798, 114.9976
424.6620, 115.1898
425.1441, 115.3074
425.6262, 115.3486
426.1083, 115.2872
426.5904, 115.0282
427.0725, 114.8519
427.5547, 114.9053
428.0368, 115.0122
428.5189, 114.9929
429.0010, 114.8108
429.4831, 114.6187
429.9652, 114.5782
430.4474, 114.6896
430.9295, 114.8698
431.4116, 115.2066
431.8937, 115.4827
432.3758, 115.4710
432.8579, 115.2884
433.3401, 115.2689
433.8222, 115.6855
434.3043, 116.2700
434.7864, 116.6285
435.2685, 116.7614
435.7506, 116.6689
436.2328, 116.1953
436.7149, 115.5851
437.1970, 115.2420
437.6791, 115.2324
438.1612, 115.2855
438.6433, 115.2830
439.1255, 115.2382
439.6076, 115.1756
440.0897, 115.0986
440.5718, 115.0126
441.0539, 114.9016
441.5360, 114.7697
442.0182, 114.7383
442.5003, 114.8535
442.9824, 115.0361
443.4645, 115.2650
443.9466, 115.5229
444.4287, 115.7791
444.9109, 116.0309
445.3930, 116.2397
445.8751, 116.2999
446.3572, 116.1161
446.8393, 115.9221
447.3214, 115.7289
447.8036, 115.5287
448.2857, 115.3157
448.7678, 115.0885
449.2499, 114.8396
449.7320, 114.5515
450.2141, 114.2179
450.6963, 113.9806
451.1784, 113.8722
451.6605, 113.8277
452.1426, 113.8388
452.6247, 113.9041
453.1068, 114.0347
453.5890, 114.2356
454.0711, 114.4733
454.5532, 114.7159
455.0353, 115.0188
455.5174, 115.1336
455.9995, 114.8811
456.4817, 114.5449
456.9638, 114.1703
457.4459, 113.8157
457.9280, 113.6461
458.4101, 113.8817
458.8922, 114.3631
459.3744, 114.6082
459.8565, 114.6098
460.3386, 114.3913
460.8207, 113.6795
461.3028, 112.8704
461.7849, 112.4829
462.2671, 112.6773
462.7492, 112.9659
463.2313, 113.0267
463.7134, 112.9038
464.1955, 112.6997
464.6776, 112.3977
465.1598, 112.1448
465.6419, 112.1443
466.1240, 112.3666
466.6061, 112.4901
467.0882, 112.3783
467.5703, 112.2421
468.0525, 112.2067
468.5346, 112.2701
469.0167, 112.4324
469.4988, 112.7172
469.9809, 113.0349
470.4630, 113.1866
470.9452, 113.2454
471.4273, 112.9816
471.9094, 111.9350
472.3915, 110.8775
472.8736, 110.4910
473.3557, 110.7666
473.8379, 111.2430
474.3200, 111.5665
474.8021, 111.7330
475.2842, 111.6515
475.7663, 110.8854
476.2484, 110.4161
476.7306, 110.6494
477.2127, 111.1282
477.6948, 111.3525
478.1769, 111.1797
478.6590, 110.8607
479.1411, 110.7425
479.6233, 110.8571
480.1054, 110.7871
480.5875, 110.2593
481.0696, 109.8531
481.5517, 109.9675
482.0338, 110.3961
482.5159, 110.6993
482.9980, 110.6753
483.4802, 110.4621
483.9623, 110.2148
484.4444, 109.9334
484.9265, 109.6808
485.4086, 109.4602
485.8907, 109.2986
486.3729, 109.2373
486.8550, 109.2783
487.3371, 109.3289
487.8192, 109.4423
488.3013, 109.5028
488.7834, 109.3266
489.2656, 108.9187
489.7477, 108.4767
490.2298, 108.0764
490.7119, 107.7614
491.1940, 107.7836
491.6761, 108.5877
492.1583, 109.0758
492.6404, 108.8101
493.1225, 108.2467
493.6046, 107.8637
494.0867, 107.7662
494.5688, 107.8152
495.0510, 107.8810
495.5331, 107.9701
496.0152, 107.9815
496.4973, 107.7457
496.9794, 107.6195
497.4615, 107.8223
497.9437, 108.1376
498.4258, 108.2567
498.9079, 108.0633
499.3900, 107.7423
499.8721, 107.5445
500.3542, 107.4733
500.8364, 107.5184
501.3185, 107.8654
501.8006, 108.1185
502.2827, 108.0093
502.7648, 107.6362
503.2469, 107.2552
503.7291, 106.9450
504.2112, 106.7194
504.6933, 106.6152
505.1754, 106.6300
505.6575, 106.7134
506.1396, 106.9303
506.6218, 107.1083
507.1039, 106.9203
507.5860, 106.3298
508.0681, 105.9124
508.5502, 106.0231
509.0323, 106.2459
509.5145, 106.0773
509.9966, 105.5608
510.4787, 105.1674
510.9608, 105.2091
511.4429, 105.5771
511.9250, 105.8329
512.4072, 105.8716
512.8893, 105.9347
513.3714, 106.1982
513.8535, 106.3853
514.3356, 106.0922
514.8177, 105.3872
515.2999, 104.8448
515.7820, 105.0571
516.2641, 105.9443
516.7462, 106.4339
517.2283, 106.2766
517.7104, 106.0702
518.1926, 105.9962
518.6747, 105.9323
519.1568, 105.6742
519.6389, 105.1850
520.1210, 104.8200
520.6031, 105.0768
521.0853, 105.8287
521.5674, 106.2059
522.0495, 106.0169
522.5316, 105.7490
523.0137, 105.7189
523.4958, 105.8463
523.9780, 106.0041
524.4601, 106.2597
524.9422, 106.4047
525.4243, 106.1428
525.9064, 105.6799
526.3885, 105.5696
526.8707, 105.9804
527.3528, 106.4703
527.8349, 106.5203
528.3170, 106.0604
528.7991, 105.7647
529.2813, 105.7035
529.7634, 105.7164
530.2455, 105.7451
530.7276, 105.8011
531.2097, 105.9264
531.6918, 106.1350
532.1740, 106.3680
532.6561, 106.5332
533.1382, 106.6217
533.6203, 106.6692
534.1024, 106.6255
534.5845, 106.5887
535.0667, 106.5675
535.5488, 106.5839
536.0309, 106.6995
536.5130, 106.9817
536.9951, 107.2585
537.4772, 107.1771
537.9594, 106.7240
538.4415, 106.5630
538.9236, 107.0246
539.4057, 107.5687
539.8878, 107.6434
540.3699, 107.3317
540.8521, 107.0851
541.3342, 106.9775
541.8163, 107.0272
542.2984, 107.3939
542.7805, 107.9640
543.2626, 108.2924
543.7448, 108.1739
544.2269, 107.8197
544.7090, 107.5708
545.1911, 107.4090
545.6732, 107.4364
546.1553, 107.8669
546.6375, 108.2846
547.1196, 108.4233
547.6017, 108.3588
548.0838, 108.2969
548.5659, 108.3473
549.0480, 108.4765
549.5302, 108.6213
550.0123, 108.8059
550.4944, 108.9312
550.9765, 108.9286
551.4586, 108.9114
551.9407, 108.9388
552.4229, 108.9996
552.9050, 109.0600
553.3871, 109.1534
553.8692, 109.1806
554.3513, 108.8893
554.8334, 108.2899
555.3156, 107.9125
555.7977, 108.0041
556.2798, 108.2804
556.7619, 108.4013
557.2440, 108.3812
557.7261, 108.2024
558.2083, 107.6403
558.6904, 107.1030
559.1725, 107.0056
559.6546, 107.2121
560.1367, 107.2514
560.6188, 106.8905
561.1010, 106.3411
561.5831, 106.0535
562.0652, 106.2093
562.5473, 106.2176
563.0294, 105.9664
563.5115, 105.6989
563.9937, 105.5428
564.4758, 105.4659
564.9579, 105.3561
565.4400, 105.1393
565.9221, 104.9287
566.4042, 104.9988
566.8864, 105.4069
567.3685, 105.5963
567.8506, 105.2692
568.3327, 104.9350
568.8148, 105.1168
569.2969, 105.6464
569.7791, 105.8858
570.2612, 105.3777
570.7433, 104.7180
571.2254, 104.4224
571.7075, 104.4260
572.1896, 104.5230
572.6718, 104.6594
573.1539, 104.7957
573.6360, 104.8887
574.1181, 104.9458
574.6002, 104.9022
575.0823, 104.6333
575.5645, 104.4029
576.0466, 104.3875
576.5287, 104.4708
577.0108, 104.4480
577.4929, 104.2421
577.9750, 103.9540
578.4572, 103.7397
578.9393, 103.6190
579.4214, 103.4298
579.9035, 102.9716
580.3856, 102.7130
580.8677, 103.0094
581.3499, 103.5787
581.8320, 103.9603
582.3141, 103.9867
582.7962, 103.9146
583.2783, 104.0428
583.7604, 104.2604
584.2426, 104.1372
584.7247, 103.5468
585.2068, 102.9683
585.6889, 102.8027
586.1710, 103.0194
586.6531, 103.2544
587.1352, 103.5360
587.6173, 103.7975
588.0994, 104.0249
588.5815, 104.2191
589.0637, 104.3945
589.5458, 104.5459
590.0279, 104.6312
590.5100, 104.5976
590.9921, 104.4582
591.4742, 104.3635
591.9564, 104.2931
592.4385, 104.3061
592.9206, 104.5096
593.4027, 104.7323
593.8848, 104.7835
594.3669, 104.6593
594.8491, 104.5867
595.3312, 104.8519
595.8133, 105.2379
596.2954, 105.2167
596.7775, 104.7659
597.2596, 104.4214
597.7418, 104.4943
598.2239, 104.7577
598.7060, 104.7169
599.1881, 104.2693
599.6702, 103.9858
600.1523, 104.0651
600.6345, 104.2407
601.1166, 104.3219
601.5987, 104.3271
602.0808, 104.3540
602.5629, 104.4537
603.0450, 104.6045
603.5272, 104.7951
604.0093, 105.1190
604.4914, 105.1944
604.9735, 104.6869
605.4556, 104.2291
605.9377, 104.2425
606.4199, 104.4877
606.9020, 104.4227
607.3841, 103.7353
607.8662, 102.9588
608.3483, 102.7337
608.8304, 102.9352
609.3126, 102.9354
609.7947, 102.5521
610.2768, 102.2631
610.7589, 102.5832
611.2410, 103.4341
611.7231, 103.8936
612.2053, 103.6832
612.6874, 103.4456
613.1695, 103.3590
613.6516, 103.3487
614.1337, 103.3224
614.6158, 103.2686
615.0980, 103.2502
615.5801, 103.3451
616.0622, 103.5194
616.5443, 103.5034
617.0264, 103.1450
617.5085, 102.9142
617.9907, 103.0181
618.4728, 103.2237
618.9549, 103.3676
619.4370, 103.4396
619.9191, 103.5075
620.4012, 103.6635
620.8834, 103.8027
621.3655, 103.7294
621.8476, 103.4756
622.3297, 103.2853
622.8118, 103.2495
623.2939, 103.3265
623.7761, 103.4758
624.2582, 103.7381
624.7403, 103.8854
625.2224, 103.9475
625.7045, 103.8692
626.1866, 103.4398
626.6688, 102.9162
627.1509, 102.7322
627.6330, 103.0203
628.1151, 103.4497
628.5972, 103.5866
629.0793, 103.4302
629.5615, 103.3240
630.0436, 103.2982
630.5257, 103.2648
631.0078, 103.1805
631.4899, 103.0641
631.9720, 102.9266
632.4542, 102.7619
632.9363, 102.6175
633.4184, 102.4369
633.9005, 102.3342
634.3826, 102.5717
634.8647, 103.0886
635.3469, 103.4171
635.8290, 103.2673
636.3111, 102.8442
636.7932, 102.6680
637.2753, 102.9083
637.7574, 103.0495
638.2396, 103.0594
638.7217, 103.0158
639.2038, 102.9641
639.6859, 102.8866
640.1680, 102.7021
640.6501, 102.3501
641.1323, 102.0575
641.6144, 102.2232
642.0965, 102.7663
642.5786, 103.0451
643.0607, 102.9286
643.5428, 102.7131
644.0250, 102.5733
644.5071, 102.5020
644.9892, 102.4692
645.4713, 102.5757
645.9534, 102.5427
646.4355, 102.1322
646.9177, 101.6505
647.3998, 101.3983
647.8819, 101.3831
648.3640, 101.4632
648.8461, 101.5518
649.3282, 101.6450
649.8104, 101.7512
650.2925, 101.9266
650.7746, 101.9369
651.2567, 101.6466
651.7388, 101.2868
652.2209, 100.8842
652.7031, 100.5166
653.1852, 100.3918
653.6673, 100.7109
654.1494, 101.0338
654.6315, 100.8941
655.1136, 100.4906
655.5958, 100.3159
656.0779, 100.4606
656.5600, 100.6651
657.0421, 100.7023
657.5242, 100.6118
658.0063, 100.6777
658.4885, 100.4746
658.9706, 101.4384
659.4527, 101.9565
659.9348, 102.0528
660.4169, 100.4640
660.8990, 101.0511
661.3812, 100.7663
661.8633, 100.4456
662.3454, 101.3390
662.8275, 99.99532
663.3096, 100.8695
663.7917, 100.8583
664.2739, 101.2523
664.7560, 100.7689
665.2381, 100.5565
665.7202, 101.2218
666.2023, 101.4011
666.6844, 100.8167
667.1666, 101.2364
667.6487, 99.86207
668.1308, 100.0621
668.6129, 100.9413
669.0950, 100.4011
669.5771, 99.89425
670.0593, 100.0868
670.5414, 100.4537
671.0235, 100.4765
671.5056, 100.0202
671.9877, 99.72666
672.4698, 99.89238
672.9520, 100.0526
673.4341, 99.74733
673.9162, 99.15199
674.3983, 98.86682
674.8804, 99.23841
675.3625, 99.69718
675.8447, 99.87315
676.3268, 99.87029
676.8089, 99.87430
677.2910, 99.91673
677.7731, 99.91611
678.2552, 99.80556
678.7374, 99.59469
679.2195, 99.32600
679.7016, 98.90709
680.1837, 98.60037
680.6658, 98.48031
681.1479, 98.42546
681.6301, 98.35268
682.1122, 98.28084
682.5943, 98.29282
683.0764, 98.46761
683.5585, 98.65381
684.0406, 98.61413
684.5228, 98.44502
685.0049, 98.53490
685.4870, 98.97446
685.9691, 99.35493
686.4512, 99.31158
686.9333, 98.93321
687.4155, 98.75259
687.8976, 99.03011
688.3797, 99.14685
688.8618, 98.89615
689.3439, 98.62785
689.8260, 98.60688
690.3082, 98.78395
690.7903, 98.95618
691.2724, 99.01452
691.7545, 99.04131
692.2366, 99.23647
692.7188, 99.55117
693.2009, 99.51237
693.6830, 98.96402
694.1651, 98.41161
694.6472, 98.18411
695.1293, 98.24888
695.6115, 98.47633
696.0936, 99.08163
696.5757, 99.45649
697.0578, 99.40511
697.5399, 99.17297
698.0220, 98.82803
698.5042, 98.47450
698.9863, 98.33824
699.4684, 98.54826
699.9505, 98.86367
700.4326, 98.83028
700.9147, 98.45212
701.3969, 98.34249
701.8790, 98.66408
702.3611, 98.97012
702.8432, 98.92811
703.3253, 98.71016
703.8074, 98.73231
704.2896, 99.12637
704.7717, 99.37708
705.2538, 99.26291
705.7359, 99.02148
706.2180, 98.74651
706.7001, 98.51723
707.1823, 98.51309
707.6644, 98.81217
708.1465, 99.21775
708.6286, 99.43758
709.1107, 99.46397
709.5928, 99.42761
710.0750, 99.25587
710.5571, 99.17695
711.0392, 99.39603
711.5213, 99.71095
712.0034, 99.83109
712.4855, 99.70943
712.9677, 99.68793
713.4498, 100.0847
713.9319, 100.4413
714.4140, 100.2684
714.8961, 99.77558
715.3782, 99.48148
715.8604, 99.56245
716.3425, 99.77696
716.8246, 99.83176
717.3067, 99.73170
717.7888, 99.66285
718.2709, 99.64973
718.7531, 99.61372
719.2352, 99.41178
719.7173, 99.26577
720.1994, 99.44424
720.6815, 99.92402
721.1636, 100.3064
721.6458, 100.3926
722.1279, 100.4022
722.6100, 100.5889
723.0921, 100.7865
723.5742, 100.5829
724.0563, 99.92896
724.5385, 99.29171
725.0206, 99.11156
725.5027, 99.31429
725.9848, 99.42960
726.4669, 99.35815
726.9490, 99.46565
727.4312, 100.0525
727.9132, 100.6167
728.3953, 100.8056
728.8774, 100.6942
729.3596, 100.5465
729.8417, 100.4077
730.3238, 100.2871
730.8059, 100.1998
731.2880, 100.1304
731.7701, 100.0206
732.2523, 99.88947
732.7344, 99.87971
733.2165, 100.0999
733.6986, 100.4449
734.1807, 100.6590
734.6628, 100.7511
735.1450, 100.6604
735.6271, 100.1593
736.1092, 99.76755
736.5913, 99.82487
737.0734, 100.1237
737.5555, 100.3525
738.0377, 100.4622
738.5198, 100.4982
739.0019, 100.3836
739.4840, 100.2758
739.9661, 100.4155
740.4482, 100.7158
740.9304, 100.8631
741.4125, 100.7232
741.8946, 100.4653
742.3767, 100.3182
742.8588, 100.2839
743.3409, 100.3293
743.8231, 100.5031
744.3052, 100.6585
744.7873, 100.7226
745.2694, 100.7603
745.7515, 100.8762
746.2336, 101.0633
746.7158, 101.0972
747.1979, 100.6383
747.6800, 100.2797
748.1621, 100.5906
748.6442, 101.2213
749.1263, 101.5690
749.6085, 101.5184
750.0906, 101.3514
750.5727, 101.3017
751.0548, 101.3417
751.5369, 101.3597
752.0190, 101.3460
752.5012, 101.3493
752.9833, 101.3396
753.4654, 101.4007
753.9475, 101.7061
754.4296, 102.1271
754.9117, 102.3094
755.3939, 102.0786
755.8760, 101.8613
756.3581, 101.7554
756.8402, 101.7760
757.3223, 102.0109
757.8044, 102.3869
758.2866, 102.7140
758.7687, 102.8989
759.2508, 102.9747
759.7329, 102.9415
760.2150, 102.8048
760.6971, 102.8494
761.1793, 103.1413
761.6614, 103.4166
762.1435, 103.5348
762.6256, 103.5855
763.1077, 103.7300
763.5898, 103.9859
764.0720, 104.1655
764.5541, 104.1527
765.0362, 104.1630
765.5183, 104.3574
766.0004, 104.6079
766.4825, 104.6706
766.9647, 104.5524
767.4468, 104.5875
767.9289, 105.1339
768.4110, 105.9148
768.8931, 106.2511
769.3752, 106.1565
769.8574, 106.0690
770.3395, 106.0392
770.8216, 106.2012
771.3037, 106.7366
771.7858, 107.5660
772.2679, 108.2133
772.7501, 108.6516
773.2322, 108.9654
773.7143, 109.0223
774.1964, 109.0847
774.6785, 109.4056
775.1606, 109.8425
775.6428, 110.0105
776.1249, 109.7395
776.6070, 109.5863
777.0891, 110.2251
777.5712, 111.3264
778.0533, 112.1689
778.5355, 112.7231
779.0176, 113.2129
779.4997, 113.7299
779.9818, 114.2321
780.4639, 114.6354
780.9460, 114.9102
781.4282, 115.3921
781.9103, 116.3253
782.3924, 117.1312
782.8745, 117.5401
783.3566, 117.9025
783.8387, 118.5437
784.3209, 119.4355
784.8030, 120.2908
785.2851, 120.8234
785.7672, 121.5136
786.2493, 122.9506
786.7314, 124.7344
787.2136, 126.0708
787.6957, 126.9348
788.1778, 127.9299
788.6599, 129.4447
789.1420, 131.3727
789.6241, 133.5110
790.1063, 135.9003
790.5884, 138.2713
791.0705, 140.6133
791.5526, 142.9372
792.0347, 145.1781
792.5168, 147.4521
792.9990, 149.9575
793.4811, 152.7260
793.9632, 155.4511
794.4453, 158.0936
794.9274, 160.6188
795.4095, 162.9239
795.8917, 165.1329
796.3738, 167.4480
796.8559, 169.8949
797.3380, 172.3512
797.8201, 174.7035
798.3022, 176.9891
798.7844, 179.2722
799.2665, 181.5545
799.7486, 183.9995
800.2307, 186.7631
800.7128, 189.2278
801.1949, 190.8281
801.6771, 191.8132
802.1592, 193.1256
802.6413, 194.8310
803.1234, 196.7898
803.6055, 199.1843
804.0876, 201.6451
804.5698, 204.4367
805.0519, 207.0090
805.5340, 208.1939
806.0161, 207.7583
806.4982, 207.7492
806.9803, 210.7642
807.4625, 214.3195
807.9446, 214.3690
808.4267, 211.8031
808.9088, 210.0052
809.3909, 209.9556
809.8730, 210.6006
810.3552, 210.9222
810.8373, 211.0308
811.3194, 211.5824
811.8015, 212.5611
812.2836, 214.0261
812.7657, 215.9800
813.2479, 218.4468
813.7300, 221.6001
814.2121, 225.2210
814.6942, 228.7511
815.1763, 231.9290
815.6584, 235.7052
816.1406, 240.9621
816.6227, 246.4276
817.1048, 251.5183
817.5869, 255.9160
818.0690, 258.9012
818.5511, 260.3670
819.0333, 261.4948
819.5154, 263.5276
819.9975, 266.0938
820.4796, 267.9971
820.9617, 269.2513
821.4438, 270.5555
821.9260, 272.1329
822.4081, 273.6126
822.8902, 274.6401
823.3723, 275.2808
823.8544, 275.9500
824.3365, 277.0857
824.8187, 277.5353
825.3008, 277.3885
825.7829, 276.4599
826.2650, 274.4908
826.7471, 271.7381
827.2292, 268.6437
827.7114, 265.3315
828.1935, 261.4617
828.6756, 256.9875
829.1577, 251.7492
829.6398, 245.4613
830.1219, 238.2830
830.6041, 230.5957
831.0862, 222.5262
831.5683, 213.7848
832.0504, 203.9885
832.5325, 193.4702
833.0146, 183.5246
833.4968, 174.1566
833.9789, 165.6358
834.4610, 158.1129
834.9431, 151.1987
835.4252, 144.5066
835.9073, 138.2551
836.3895, 133.1373
836.8716, 129.3868
837.3537, 125.9820
837.8358, 122.7629
838.3179, 119.9762
838.8000, 117.9679
839.2822, 116.3693
839.7643, 114.6270
840.2464, 112.6812
840.7285, 111.0075
841.2106, 110.0217
841.6927, 109.3689
842.1749, 108.7023
842.6570, 108.0018
843.1391, 107.1475
843.6212, 106.1461
844.1033, 105.2942
844.5854, 104.8164
845.0676, 104.5864
845.5497, 104.3018
846.0318, 103.9427
846.5139, 103.6617
846.9960, 103.5540
847.4781, 103.3274
847.9603, 102.7837
848.4424, 102.0934
848.9245, 101.4973
849.4066, 100.9982
849.8887, 100.5364
850.3708, 100.1037
850.8530, 99.71114
851.3351, 99.23936
851.8172, 98.89820
852.2993, 99.03938
852.7814, 99.52267
853.2635, 99.80810
853.7457, 99.62020
854.2278, 99.19022
854.7099, 98.57450
855.1920, 97.95296
855.6741, 97.82092
856.1563, 98.13133
856.6384, 98.33469
857.1205, 98.19001
857.6026, 97.87883
858.0847, 97.62959
858.5668, 97.44347
859.0490, 97.35156
859.5311, 97.39417
860.0132, 97.41885
860.4953, 97.46752
860.9774, 97.38798
861.4595, 96.90779
861.9417, 96.17787
862.4238, 95.77934
862.9059, 95.90549
863.3880, 96.03574
863.8701, 96.11703
864.3522, 96.13417
864.8344, 96.06227
865.3165, 95.92496
865.7986, 95.71485
866.2807, 95.44690
866.7628, 95.28483
867.2449, 95.47422
867.7271, 95.74636
868.2092, 95.73800
868.6913, 95.51530
869.1733, 95.19815
869.6555, 94.83610
870.1376, 94.63297
870.6197, 94.75971
871.1018, 95.05556
871.5839, 95.13032
872.0660, 94.96387
872.5482, 94.75953
873.0303, 94.51270
873.5124, 94.26076
873.9945, 93.98708
874.4766, 93.74944
874.9587, 93.63718
875.4409, 93.65966
875.9230, 93.72659
876.4051, 93.92191
876.8872, 94.04910
877.3693, 94.01807
877.8514, 93.94076
878.3336, 93.88241
878.8157, 93.85648
879.2978, 93.88756
879.7799, 94.00515
880.2620, 94.07488
880.7441, 93.97274
881.2263, 93.79240
881.7084, 93.59196
882.1905, 93.41690
882.6726, 93.37635
883.1547, 93.49529
883.6368, 93.68600
884.1190, 93.89603
884.6011, 94.07505
885.0832, 94.00645
885.5653, 93.69351
886.0474, 93.60605
886.5295, 93.88121
887.0117, 94.03039
887.4938, 93.67751
887.9759, 93.08607
888.4580, 92.85831
888.9401, 93.12448
889.4222, 93.25574
889.9044, 93.11580
890.3865, 93.02001
890.8686, 93.15017
891.3507, 93.27666
891.8328, 93.12552
892.3149, 92.76014
892.7971, 92.55906
893.2792, 92.70815
893.7613, 92.87905
894.2434, 93.03833
894.7255, 93.07153
895.2076, 92.71114
895.6898, 92.17419
896.1719, 91.97653
896.6540, 92.26830
897.1361, 92.63547
897.6182, 92.71986
898.1003, 92.61232
898.5825, 92.42314
899.0646, 92.18315
899.5467, 92.03287
900.0288, 91.99825
900.5109, 91.97565
900.9930, 91.87796
901.4752, 91.78535
901.9573, 91.94333
902.4394, 92.41057
902.9215, 92.66638
903.4036, 92.67275
903.8857, 92.52097
904.3679, 92.11440
904.8500, 91.72764
905.3321, 91.78709
905.8142, 92.29110
906.2963, 92.42744
906.7784, 91.68799
907.2606, 91.32482
907.7427, 91.89220
908.2248, 92.48840
908.7069, 92.57433
909.1890, 92.26817
909.6711, 91.77486
910.1533, 91.11058
910.6354, 90.66622
911.1175, 90.73239
911.5996, 90.99452
912.0817, 91.29623
912.5638, 91.57311
913.0460, 91.75141
913.5281, 91.81605
914.0102, 91.73985
914.4923, 91.46659
914.9744, 91.23083
915.4565, 91.50057
915.9387, 92.07180
916.4208, 92.22532
916.9029, 91.95284
917.3850, 91.72212
917.8671, 91.71062
918.3492, 91.87932
918.8314, 92.24046
919.3135, 92.72301
919.7956, 92.74316
920.2777, 92.11050
920.7598, 91.87448
921.2419, 92.38550
921.7241, 92.89944
922.2062, 92.94239
922.6883, 92.70226
923.1704, 92.57494
923.6525, 92.60172
924.1346, 92.58411
924.6168, 92.43662
925.0989, 92.35531
925.5810, 92.43488
926.0631, 92.56651
926.5452, 92.64458
927.0273, 92.68970
927.5095, 92.81103
927.9916, 93.08979
928.4737, 93.29698
928.9558, 93.10469
929.4379, 92.99134
929.9200, 93.62095
930.4022, 94.54796
930.8843, 94.86254
931.3664, 94.43505
931.8485, 94.00315
932.3306, 94.11378
932.8127, 94.47134
933.2949, 94.69419
933.7770, 94.82662
934.2591, 95.00584
934.7412, 95.22707
935.2233, 95.30975
935.7054, 95.16196
936.1876, 95.04137
936.6697, 95.34543
937.1518, 95.99278
937.6339, 96.37897
938.1160, 96.47958
938.5981, 96.55997
939.0803, 96.63950
939.5624, 96.85987
940.0445, 97.38973
940.5266, 98.06440
941.0087, 98.43090
941.4908, 98.37513
941.9730, 98.40930
942.4551, 98.46571
942.9372, 98.71565
943.4193, 99.43029
943.9014, 100.1837
944.3835, 100.6047
944.8657, 100.7428
945.3478, 100.8376
945.8299, 100.7792
946.3120, 100.9318
946.7941, 101.5090
947.2762, 102.1727
947.7584, 102.8012
948.2405, 103.3505
948.7226, 103.7138
949.2047, 103.9150
949.6868, 104.2424
950.1689, 104.8846
950.6511, 105.6414
951.1332, 106.4890
951.6153, 107.2741
952.0974, 107.6570
952.5795, 107.8065
953.0616, 108.2682
953.5438, 109.2429
954.0259, 110.3800
954.5080, 111.3177
954.9901, 112.1894
955.4722, 113.2099
955.9543, 114.4001
956.4365, 115.9444
956.9186, 117.8325
957.4007, 119.5780
957.8828, 120.8671
958.3649, 121.9913
958.8470, 123.3985
959.3292, 125.0965
959.8113, 127.2708
960.2934, 130.0022
960.7755, 132.6459
961.2576, 135.0302
961.7397, 137.3002
962.2219, 139.5306
962.7040, 141.8076
963.1861, 144.4756
963.6682, 147.8414
964.1503, 150.6375
964.6324, 152.4660
965.1146, 154.3879
965.5967, 156.8237
966.0788, 159.4635
966.5609, 162.0784
967.0430, 164.6357
967.5251, 166.9301
968.0073, 168.5404
968.4894, 170.5012
968.9715, 173.4478
969.4536, 176.1855
969.9357, 178.1146
970.4178, 179.4589
970.9000, 180.4393
971.3821, 181.1292
971.8642, 181.8186
972.3463, 182.7674
972.8284, 183.5457
973.3105, 183.8895
973.7927, 184.0213
974.2748, 184.3358
974.7569, 184.5531
975.2390, 183.9622
975.7211, 182.4030
976.2032, 180.6954
976.6854, 179.4208
977.1675, 178.2665
977.6496, 176.7518
978.1317, 175.1799
978.6138, 174.0611
979.0959, 173.4275
979.5781, 173.0974
980.0602, 172.9878
980.5423, 173.2218
981.0244, 174.1059
981.5065, 175.3685
981.9886, 176.2879
982.4708, 176.9774
982.9529, 177.9674
983.4350, 179.3630
983.9171, 181.0297
984.3992, 182.9053
984.8813, 184.9244
985.3635, 186.9485
985.8456, 188.9912
986.3277, 191.3194
986.8098, 193.9439
987.2919, 196.7124
987.7740, 199.6395
988.2562, 202.4167
988.7383, 204.7714
989.2204, 206.8477
989.7025, 209.0361
990.1846, 211.4390
990.6667, 213.4303
991.1489, 214.9085
991.6310, 216.1776
992.1131, 217.1482
992.5952, 218.1991
993.0773, 219.7838
993.5594, 221.7266
994.0416, 223.2583
994.5237, 224.1602
995.0058, 225.0929
995.4879, 226.3235
995.9700, 227.2444
996.4521, 227.6897
996.9343, 227.7357
997.4164, 227.4341
997.8985, 226.7979
998.3806, 225.8763
998.8627, 224.6102
999.3448, 223.1727
999.8270, 221.8392
1000.309, 220.0552
1000.791, 217.2290
1001.273, 213.9877
1001.755, 211.1763
1002.238, 208.7802
1002.720, 206.1504
1003.202, 202.9020
1003.684, 199.7011
1004.166, 196.6856
1004.648, 193.9888
1005.130, 191.8197
1005.612, 190.0147
1006.094, 188.4712
1006.577, 187.0660
1007.059, 185.2478
1007.541, 182.4104
1008.023, 179.6681
1008.505, 178.1609
1008.987, 176.9898
1009.469, 175.1677
1009.951, 172.7643
1010.433, 170.1738
1010.916, 167.4887
1011.398, 164.4527
1011.880, 160.7357
1012.362, 156.8831
1012.844, 153.6249
1013.326, 150.6716
1013.808, 147.4010
1014.290, 143.9343
1014.773, 140.8576
1015.255, 138.3692
1015.737, 136.1089
1016.219, 133.7430
1016.701, 131.4462
1017.183, 129.5321
1017.665, 127.9687
1018.147, 126.6949
1018.629, 125.6750
1019.112, 124.7503
1019.594, 123.8584
1020.076, 122.9176
1020.558, 121.7886
1021.040, 120.6139
1021.522, 119.8956
1022.004, 119.5597
1022.486, 118.8458
1022.969, 117.6769
1023.451, 116.5818
1023.933, 115.8041
1024.415, 115.1103
1024.897, 114.2131
1025.379, 113.1666
1025.861, 112.2921
1026.343, 111.6118
1026.825, 110.5644
1027.308, 108.9965
1027.790, 107.7416
1028.272, 107.2070
1028.754, 107.1310
1029.236, 107.2862
1029.718, 107.5765
1030.200, 107.1358
1030.682, 105.7246
1031.165, 104.7702
1031.647, 104.5617
1032.129, 104.3136
1032.611, 103.5554
1033.093, 102.7745
1033.575, 102.6656
1034.057, 103.1638
1034.539, 103.3170
1035.021, 102.9731
1035.504, 102.7026
1035.986, 102.5881
1036.468, 102.4797
1036.950, 102.3262
1037.432, 102.1203
1037.914, 101.8070
1038.396, 101.4009
1038.878, 101.2343
1039.360, 101.5202
1039.843, 101.6303
1040.325, 101.4990
1040.807, 101.2234
1041.289, 100.6093
1041.771, 100.0527
1042.253, 100.1886
1042.735, 100.9640
1043.217, 101.2867
1043.700, 100.6703
1044.182, 100.3722
1044.664, 100.8238
1045.146, 101.1324
1045.628, 100.7628
1046.110, 100.1783
1046.592, 99.90557
1047.074, 99.92519
1047.557, 99.93441
1048.039, 99.79751
1048.521, 99.83577
1049.003, 100.3168
1049.485, 100.7011
1049.967, 100.6818
1050.449, 100.4864
1050.931, 100.3314
1051.413, 100.2351
1051.896, 100.2025
1052.378, 100.2583
1052.860, 100.3299
1053.342, 100.4851
1053.824, 100.5568
1054.306, 100.3480
1054.788, 100.0989
1055.270, 100.0698
1055.752, 100.2444
1056.235, 100.4672
1056.717, 100.7684
1057.199, 100.9546
1057.681, 100.8339
1058.163, 100.7535
1058.645, 100.9544
1059.127, 101.2329
1059.609, 101.3407
1060.092, 101.3214
1060.574, 101.3935
1061.056, 101.6232
1061.538, 101.8894
1062.020, 102.2292
1062.502, 102.5057
1062.984, 102.6716
1063.466, 102.7236
1063.948, 102.6349
1064.431, 102.4353
1064.913, 102.1553
1065.395, 101.7532
1065.877, 101.5879
1066.359, 101.9571
1066.841, 102.4067
1067.323, 102.8056
1067.805, 103.0810
1068.287, 103.0757
1068.770, 102.9169
1069.252, 102.9340
1069.734, 103.2193
1070.216, 103.4406
1070.698, 103.3036
1071.180, 103.2651
1071.662, 103.8197
1072.144, 104.3558
1072.627, 104.1165
1073.109, 103.4758
1073.591, 103.2783
1074.073, 103.7034
1074.555, 104.2259
1075.037, 104.8164
1075.519, 105.2021
1076.001, 105.0515
1076.484, 104.8184
1076.966, 104.8940
1077.448, 105.1731
1077.930, 105.5149
1078.412, 105.8499
1078.894, 105.8669
1079.376, 105.0790
1079.858, 104.5235
1080.340, 104.9258
1080.823, 105.5273
1081.305, 105.7640
1081.787, 105.7812
1082.269, 105.8191
1082.751, 105.9283
1083.233, 106.1217
1083.715, 106.4538
1084.197, 106.7517
1084.679, 106.9595
1085.161, 107.0782
1085.644, 107.0649
1086.126, 106.9913
1086.608, 106.8921
1087.090, 106.8150
1087.572, 106.9195
1088.054, 107.3341
1088.536, 107.6183
1089.018, 107.4848
1089.501, 107.2796
1089.983, 107.0277
1090.465, 106.9515
1090.947, 107.4705
1091.429, 108.3337
1091.911, 108.8039
1092.393, 108.6572
1092.875, 108.5027
1093.358, 108.5734
1093.840, 108.6933
1094.322, 108.8497
1094.804, 108.9552
1095.286, 108.8098
1095.768, 108.6006
1096.250, 108.7583
1096.732, 109.3572
1097.214, 109.8239
1097.697, 109.9983
1098.179, 109.9677
1098.661, 109.6314
1099.143, 109.2380
1099.625, 108.7935
1100.107, 108.4987
1100.589, 108.7572
1101.071, 109.5265
1101.553, 110.0564
1102.036, 109.9806
1102.518, 109.9505
1103.000, 110.2236
1103.482, 110.4845
1103.964, 110.5153
1104.446, 110.4784
1104.928, 110.5288
1105.410, 110.6870
1105.893, 110.9914
1106.375, 111.5763
1106.857, 111.9493
1107.339, 111.7343
1107.821, 111.6612
1108.303, 112.2747
1108.785, 112.8969
1109.267, 112.7903
1109.750, 112.2644
1110.232, 112.1781
1110.714, 112.6966
1111.196, 113.1219
1111.678, 113.4596
1112.160, 113.5892
1112.642, 113.2200
1113.124, 112.9143
1113.606, 113.0866
1114.089, 113.5030
1114.571, 113.8421
1115.053, 114.1032
1115.535, 114.0932
1116.017, 113.5026
1116.499, 113.1482
1116.981, 113.2267
1117.463, 113.3412
1117.945, 113.3518
1118.428, 113.3044
1118.910, 113.2517
1119.392, 113.1853
1119.874, 113.0449
1120.356, 112.7092
1120.838, 112.6345
1121.320, 113.0635
1121.802, 113.2683
1122.285, 112.9861
1122.767, 112.5091
1123.249, 112.0023
1123.731, 111.5156
1124.213, 111.1890
1124.695, 111.0501
1125.177, 110.8125
1125.659, 110.4142
1126.141, 110.1268
1126.624, 110.0040
1127.106, 109.9861
1127.588, 110.0656
1128.070, 110.1757
1128.552, 110.2181
1129.034, 110.2013
1129.516, 110.1806
1129.998, 110.1367
1130.480, 110.3252
1130.963, 110.8452
1131.445, 110.9531
1131.927, 110.2885
1132.409, 109.6076
1132.891, 109.6750
1133.373, 110.1654
1133.855, 110.1268
1134.337, 109.6065
1134.820, 109.5460
1135.302, 109.9529
1135.784, 110.1605
1136.266, 110.0149
1136.748, 109.8995
1137.230, 110.0635
1137.712, 110.2884
1138.194, 110.1958
1138.677, 109.9206
1139.159, 109.9369
1139.641, 110.1992
1140.123, 110.6025
1140.605, 111.0687
1141.087, 111.1768
1141.569, 110.7854
1142.051, 110.3803
1142.533, 110.4063
1143.016, 110.6772
1143.498, 111.0007
1143.980, 111.2901
1144.462, 111.2704
1144.944, 111.0627
1145.426, 111.0799
1145.908, 111.3632
1146.390, 111.5442
1146.872, 111.3860
1147.355, 111.3008
1147.837, 111.8820
1148.319, 112.5778
1148.801, 112.7195
1149.283, 112.5430
1149.765, 112.3421
1150.247, 112.2066
1150.729, 112.2513
1151.212, 112.4993
1151.694, 112.6974
1152.176, 112.5925
1152.658, 112.5343
1153.140, 112.9117
1153.622, 113.2796
1154.104, 113.0897
1154.586, 112.6970
1155.068, 112.7113
1155.551, 113.1324
1156.033, 113.4748
1156.515, 113.5720
1156.997, 113.6480
1157.479, 113.6441
1157.961, 113.8013
1158.443, 114.6109
1158.925, 115.2897
1159.407, 114.8848
1159.890, 113.8880
1160.372, 113.5114
1160.854, 113.9232
1161.336, 114.2890
1161.818, 114.4438
1162.300, 114.6951
1162.782, 115.2147
1163.264, 115.6679
1163.747, 115.8577
1164.229, 115.9576
1164.711, 116.1627
1165.193, 116.4515
1165.675, 116.6985
1166.157, 116.8782
1166.639, 117.1161
1167.121, 117.4848
1167.604, 117.6594
1168.086, 117.4532
1168.568, 117.3590
1169.050, 117.7623
1169.532, 118.3565
1170.014, 118.5949
1170.496, 118.5170
1170.978, 118.5611
1171.460, 118.7301
1171.943, 118.8667
1172.425, 118.9519
1172.907, 119.1000
1173.389, 119.3583
1173.871, 119.5604
1174.353, 119.5334
1174.835, 119.4319
1175.317, 119.6190
1175.799, 119.9837
1176.282, 120.1009
1176.764, 120.0422
1177.246, 120.1521
1177.728, 120.4642
1178.210, 120.7994
1178.692, 121.0692
1179.174, 121.1647
1179.656, 120.8076
1180.139, 120.4175
1180.621, 120.4628
1181.103, 120.8637
1181.585, 121.8580
1182.067, 122.9889
1182.549, 123.1560
1183.031, 122.3415
1183.513, 121.7580
1183.995, 121.9585
1184.478, 122.4794
1184.960, 123.4745
1185.442, 124.2029
1185.924, 123.8442
1186.406, 123.2454
1186.888, 123.3565
1187.370, 123.9203
1187.852, 124.1542
1188.334, 123.9263
1188.817, 123.9213
1189.299, 124.4514
1189.781, 124.9465
1190.263, 125.3345
1190.745, 125.6365
1191.227, 125.8234
1191.709, 125.9592
1192.191, 126.0771
1192.674, 126.1975
1193.156, 126.3960
1193.638, 126.6931
1194.120, 126.9632
1194.602, 127.1901
1195.084, 127.4422
1195.566, 127.7354
1196.048, 128.0585
1196.531, 128.4371
1197.013, 128.7186
1197.495, 128.6618
1197.977, 128.4123
1198.459, 128.6112
1198.941, 129.2069
1199.423, 129.3833
1199.905, 129.1500
1200.387, 129.1336
1200.870, 129.4830
1201.352, 129.9621
1201.834, 130.4308
1202.316, 130.8717
1202.798, 131.3226
1203.280, 131.6783
1203.762, 131.6574
1204.244, 131.4480
1204.726, 131.3728
1205.209, 131.4525
1205.691, 131.5905
1206.173, 131.7881
1206.655, 132.2529
1207.137, 133.2237
1207.619, 134.0270
1208.101, 133.9845
1208.583, 133.8576
1209.066, 134.2908
1209.548, 134.8715
1210.030, 135.1733
1210.512, 135.2300
1210.994, 135.1604
1211.476, 134.9854
1211.958, 134.9514
1212.440, 135.1695
1212.922, 135.4343
1213.405, 135.8328
1213.887, 136.1173
1214.369, 136.0330
1214.851, 135.9890
1215.333, 136.4436
1215.815, 137.1257
1216.297, 137.2885
1216.779, 136.8648
1217.261, 136.9784
1217.744, 137.7862
1218.226, 138.2480
1218.708, 138.1740
1219.190, 138.1245
1219.672, 138.3313
1220.154, 138.6846
1220.636, 139.1047
1221.118, 139.5106
1221.600, 139.6115
1222.083, 139.5663
1222.565, 140.1299
1223.047, 141.0856
1223.529, 141.5394
1224.011, 141.4434
1224.493, 141.2932
1224.975, 141.2944
1225.457, 141.3709
1225.940, 141.4757
1226.422, 141.6085
1226.904, 141.6770
1227.386, 141.8580
1227.868, 142.4904
1228.350, 143.2578
1228.832, 143.6868
1229.314, 143.8068
1229.797, 143.9063
1230.279, 144.0437
1230.761, 144.2430
1231.243, 144.5726
1231.725, 144.8719
1232.207, 144.9324
1232.689, 145.1526
1233.171, 145.9403
1233.653, 146.8186
1234.135, 147.3020
1234.618, 147.4850
1235.100, 147.6886
1235.582, 147.9106
1236.064, 148.1700
1236.546, 148.4736
1237.028, 148.8032
1237.510, 149.1882
1237.992, 149.3008
1238.475, 148.9528
1238.957, 148.6767
1239.439, 149.0644
1239.921, 149.7595
1240.403, 149.9578
1240.885, 149.8425
1241.367, 150.0193
1241.849, 150.3816
1242.332, 150.4834
1242.814, 150.3494
1243.296, 150.4308
1243.778, 150.8761
1244.260, 151.2367
1244.742, 151.0844
1245.224, 150.9580
1245.706, 151.3560
1246.188, 151.8514
1246.671, 152.1162
1247.153, 152.2489
1247.635, 152.3300
1248.117, 152.4205
1248.599, 152.6972
1249.081, 153.2380
1249.563, 153.4751
1250.045, 152.9174
1250.527, 152.7652
1251.010, 153.4315
1251.492, 153.9494
1251.974, 153.8715
1252.456, 153.6711
1252.938, 153.7582
1253.420, 154.0234
1253.902, 154.2233
1254.384, 154.3647
1254.867, 154.5278
1255.349, 154.7174
1255.831, 155.0375
1256.313, 155.4803
1256.795, 155.8250
1257.277, 155.9973
1257.759, 156.0502
1258.241, 156.0014
1258.724, 155.9786
1259.206, 156.0990
1259.688, 156.3652
1260.170, 156.9462
1260.652, 157.5541
1261.134, 157.6420
1261.616, 157.4649
1262.098, 157.7408
1262.580, 158.5041
1263.063, 158.9381
1263.545, 158.5767
1264.027, 158.4155
1264.509, 158.8578
1264.991, 159.3409
1265.473, 159.7347
1265.955, 160.0504
1266.437, 160.3572
1266.919, 160.5281
1267.402, 160.3293
1267.884, 159.8430
1268.366, 159.5468
1268.848, 159.4308
1269.330, 159.6515
1269.812, 160.2240
1270.294, 160.8352
1270.776, 161.4153
1271.259, 161.9627
1271.741, 162.4755
1272.223, 162.7971
1272.705, 162.6904
1273.187, 162.4682
1273.669, 162.5857
1274.151, 162.9134
1274.633, 163.3667
1275.115, 163.8142
1275.598, 164.0641
1276.080, 164.1079
1276.562, 163.9025
1277.044, 163.4450
1277.526, 163.3941
1278.008, 164.5657
1278.490, 165.2901
1278.972, 164.6616
1279.454, 164.1185
1279.937, 164.3753
1280.419, 164.9057
1280.901, 165.3765
1281.383, 165.8082
1281.865, 166.2466
1282.347, 166.6836
1282.829, 166.9822
1283.311, 167.1389
1283.794, 167.2198
1284.276, 167.2292
1284.758, 167.0731
1285.240, 166.7526
1285.722, 166.6827
1286.204, 167.1088
##END=



