##NAMES=Metatorbernite
##RRUFFID=R070509
##IDEAL CHEMISTRY=Cu^2+^(U^6+^O_2_)_2_(PO_4_)_2_&#183;8H_2_O
##LOCALITY=Musonoi mine, Kolwezi, Katanga, Congo
##OWNER=RRUFF
##SOURCE=James Shigley
##DESCRIPTION=Dark green platy crystals
##STATUS=The identification of this mineral has been confirmed by single-crystal X-ray diffraction.
##URL=rruff.info/R070509
141.6489, 925.0989
142.1310, 928.9962
142.6131, 936.7786
143.0952, 952.6234
143.5774, 980.9445
144.0595, 1004.849
144.5416, 1011.086
145.0237, 1012.575
145.5058, 1023.642
145.9879, 1052.015
146.4701, 1089.923
146.9522, 1119.771
147.4343, 1138.837
147.9164, 1154.801
148.3985, 1168.149
148.8806, 1180.977
149.3627, 1197.008
149.8449, 1219.946
150.3270, 1245.008
150.8091, 1255.163
151.2912, 1236.026
151.7733, 1223.390
152.2554, 1229.301
152.7376, 1246.056
153.2197, 1264.477
153.7018, 1280.710
154.1839, 1293.490
154.6660, 1296.253
155.1481, 1278.766
155.6303, 1263.516
156.1124, 1254.932
156.5945, 1252.062
157.0766, 1253.772
157.5587, 1260.255
158.0408, 1270.369
158.5230, 1275.080
159.0051, 1261.920
159.4872, 1256.690
159.9693, 1270.701
160.4514, 1290.317
160.9335, 1301.049
161.4157, 1294.532
161.8978, 1273.093
162.3799, 1265.303
162.8620, 1284.524
163.3441, 1303.854
163.8262, 1315.651
164.3084, 1323.736
164.7905, 1336.382
165.2726, 1360.134
165.7547, 1394.151
166.2368, 1420.636
166.7189, 1432.143
167.2011, 1444.687
167.6832, 1461.580
168.1653, 1482.688
168.6474, 1505.571
169.1295, 1527.364
169.6116, 1548.177
170.0938, 1587.576
170.5759, 1654.429
171.0580, 1728.147
171.5401, 1803.370
172.0222, 1880.457
172.5043, 1961.480
172.9865, 2047.521
173.4686, 2138.526
173.9507, 2244.896
174.4328, 2375.433
174.9149, 2510.095
175.3970, 2639.164
175.8792, 2766.604
176.3613, 2903.544
176.8434, 3060.939
177.3255, 3238.638
177.8076, 3400.182
178.2897, 3529.719
178.7719, 3663.979
179.2540, 3814.546
179.7361, 3981.450
180.2182, 4162.340
180.7003, 4358.491
181.1824, 4570.690
181.6646, 4755.110
182.1467, 4888.286
182.6288, 5024.411
183.1109, 5177.576
183.5930, 5350.012
184.0751, 5544.742
184.5573, 5764.882
185.0394, 6009.114
185.5215, 6261.288
186.0036, 6518.306
186.4857, 6785.137
186.9678, 7058.375
187.4500, 7343.407
187.9321, 7652.796
188.4142, 7998.770
188.8963, 8379.516
189.3784, 8758.919
189.8605, 9144.518
190.3427, 9519.445
190.8248, 9887.846
191.3069, 10241.84
191.7890, 10570.81
192.2711, 10870.25
192.7532, 11136.39
193.2353, 11330.84
193.7175, 11536.78
194.1996, 11608.03
194.6817, 11497.98
195.1638, 11210.71
195.6459, 10746.78
196.1280, 10091.68
196.6102, 9269.176
197.0923, 8450.775
197.5744, 7582.577
198.0565, 6775.470
198.5386, 6056.902
199.0207, 5423.945
199.5029, 4875.097
199.9850, 4405.828
200.4671, 4014.770
200.9492, 3687.161
201.4313, 3441.003
201.9134, 3221.887
202.3956, 3012.651
202.8777, 2818.646
203.3598, 2651.035
203.8419, 2517.781
204.3240, 2413.806
204.8061, 2320.286
205.2883, 2232.876
205.7704, 2157.262
206.2525, 2097.852
206.7346, 2051.201
207.2167, 2011.561
207.6988, 1976.836
208.1810, 1946.459
208.6631, 1919.857
209.1452, 1895.053
209.6273, 1875.542
210.1094, 1865.693
210.5915, 1860.944
211.0737, 1853.723
211.5558, 1840.669
212.0379, 1824.403
212.5200, 1811.416
213.0021, 1798.849
213.4842, 1793.411
213.9664, 1801.860
214.4485, 1816.428
214.9306, 1825.589
215.4127, 1824.788
215.8948, 1820.109
216.3769, 1823.917
216.8590, 1840.251
217.3412, 1857.804
217.8233, 1879.848
218.3054, 1900.873
218.7875, 1913.811
219.2696, 1916.575
219.7517, 1913.483
220.2339, 1911.677
220.7160, 1914.194
221.1981, 1911.459
221.6802, 1901.076
222.1623, 1886.403
222.6444, 1871.870
223.1266, 1858.222
223.6087, 1841.113
224.0908, 1814.600
224.5729, 1775.277
225.0550, 1732.983
225.5371, 1686.714
226.0193, 1638.271
226.5014, 1586.334
226.9835, 1531.786
227.4656, 1479.727
227.9477, 1436.510
228.4298, 1405.195
228.9120, 1370.624
229.3941, 1329.779
229.8762, 1288.223
230.3583, 1247.971
230.8404, 1209.887
231.3225, 1175.791
231.8047, 1148.070
232.2868, 1127.927
232.7689, 1104.493
233.2510, 1071.808
233.7331, 1041.812
234.2152, 1020.334
234.6974, 1006.648
235.1795, 997.6919
235.6616, 991.7422
236.1437, 988.8988
236.6258, 980.9523
237.1079, 959.6110
237.5900, 942.4170
238.0722, 937.6147
238.5543, 941.5527
239.0364, 946.0148
239.5185, 945.8250
240.0006, 941.5157
240.4827, 937.2809
240.9649, 931.2784
241.4470, 927.4695
241.9291, 927.4744
242.4112, 929.9723
242.8933, 932.4148
243.3754, 933.3097
243.8576, 934.3552
244.3397, 941.7471
244.8218, 964.8332
245.3039, 982.8986
245.7860, 992.6135
246.2681, 997.3666
246.7503, 1000.690
247.2324, 1004.015
247.7145, 1006.747
248.1966, 1007.328
248.6787, 1002.918
249.1608, 1001.152
249.6430, 1003.764
250.1251, 1007.974
250.6072, 1012.720
251.0893, 1017.309
251.5714, 1019.832
252.0535, 1016.802
252.5357, 1005.097
253.0178, 995.4423
253.4999, 993.7349
253.9820, 989.5094
254.4641, 974.3670
254.9462, 948.8987
255.4284, 921.7764
255.9105, 903.0841
256.3926, 894.9606
256.8747, 883.1404
257.3568, 862.4518
257.8389, 842.5024
258.3210, 825.9294
258.8032, 813.1564
259.2853, 804.1405
259.7674, 799.5813
260.2495, 799.2634
260.7316, 798.3976
261.2137, 794.5016
261.6959, 793.2518
262.1780, 796.9941
262.6601, 804.5835
263.1422, 814.1951
263.6243, 825.7157
264.1064, 837.8907
264.5886, 845.8574
265.0707, 846.7252
265.5528, 848.8376
266.0349, 854.8170
266.5170, 863.5785
266.9991, 874.3806
267.4813, 887.4373
267.9634, 901.1711
268.4455, 911.8101
268.9276, 917.5826
269.4097, 927.4342
269.8918, 948.2662
270.3740, 972.8400
270.8561, 995.5911
271.3382, 1015.199
271.8203, 1034.163
272.3024, 1055.143
272.7845, 1078.120
273.2667, 1101.158
273.7488, 1123.160
274.2309, 1145.569
274.7130, 1169.287
275.1951, 1194.382
275.6772, 1220.825
276.1594, 1251.603
276.6415, 1284.211
277.1236, 1307.881
277.6057, 1316.735
278.0878, 1324.300
278.5699, 1345.933
279.0521, 1379.090
279.5342, 1408.454
280.0163, 1423.120
280.4984, 1432.608
280.9805, 1455.930
281.4626, 1497.516
281.9448, 1532.539
282.4269, 1534.301
282.9090, 1510.698
283.3911, 1499.956
283.8732, 1520.830
284.3553, 1545.660
284.8375, 1550.588
285.3196, 1536.951
285.8017, 1520.217
286.2838, 1508.214
286.7659, 1500.590
287.2480, 1494.721
287.7302, 1494.834
288.2123, 1491.898
288.6944, 1482.784
289.1765, 1467.905
289.6586, 1447.204
290.1407, 1419.855
290.6229, 1389.029
291.1050, 1362.326
291.5871, 1343.311
292.0692, 1321.369
292.5513, 1290.562
293.0334, 1258.166
293.5155, 1233.248
293.9977, 1217.883
294.4798, 1205.521
294.9619, 1187.001
295.4440, 1157.466
295.9261, 1135.983
296.4082, 1128.059
296.8904, 1123.110
297.3725, 1115.471
297.8546, 1104.517
298.3367, 1091.364
298.8188, 1076.347
299.3009, 1058.893
299.7831, 1048.364
300.2652, 1051.674
300.7473, 1054.339
301.2294, 1052.237
301.7115, 1046.463
302.1936, 1039.619
302.6758, 1033.325
303.1579, 1026.935
303.6400, 1017.975
304.1221, 1006.711
304.6042, 992.1670
305.0863, 969.5706
305.5685, 946.3407
306.0506, 932.1494
306.5327, 930.1318
307.0148, 929.7706
307.4969, 911.3698
307.9790, 866.7111
308.4612, 835.3641
308.9433, 838.2952
309.4254, 844.9008
309.9075, 838.1301
310.3896, 817.0871
310.8717, 792.1256
311.3539, 771.6650
311.8360, 755.2985
312.3181, 738.1516
312.8002, 719.2920
313.2823, 700.5781
313.7644, 682.9621
314.2466, 666.2894
314.7287, 650.2086
315.2108, 634.5040
315.6929, 619.2427
316.1750, 603.4850
316.6571, 586.4092
317.1393, 573.5124
317.6214, 572.1336
318.1035, 575.6504
318.5856, 571.8661
319.0677, 555.3798
319.5498, 537.3289
320.0320, 525.5759
320.5141, 519.3198
320.9962, 515.6898
321.4783, 514.8890
321.9604, 514.4752
322.4425, 508.9370
322.9247, 496.2536
323.4068, 487.0613
323.8889, 487.6340
324.3710, 492.2084
324.8531, 493.0060
325.3352, 488.4339
325.8174, 481.3820
326.2995, 474.7050
326.7816, 468.5169
327.2637, 462.2315
327.7458, 453.7909
328.2279, 447.0281
328.7101, 444.5669
329.1922, 445.9358
329.6743, 448.7696
330.1564, 451.3184
330.6385, 454.0002
331.1206, 460.2484
331.6028, 478.2890
332.0849, 490.2873
332.5670, 489.2669
333.0491, 482.0970
333.5312, 477.3344
334.0133, 478.3283
334.4955, 482.1570
334.9776, 482.8207
335.4597, 476.8474
335.9418, 475.5409
336.4239, 482.2990
336.9060, 491.0349
337.3882, 499.0078
337.8703, 505.4425
338.3524, 509.8517
338.8345, 510.2433
339.3166, 506.6643
339.7987, 508.6737
340.2808, 521.8300
340.7629, 533.3091
341.2451, 536.0524
341.7272, 533.4794
342.2093, 532.2537
342.6914, 536.2018
343.1735, 542.3846
343.6556, 543.9012
344.1378, 539.0916
344.6199, 539.8854
345.1020, 557.3916
345.5841, 579.8638
346.0662, 593.3378
346.5483, 596.0251
347.0305, 591.9775
347.5126, 583.2324
347.9947, 569.8493
348.4768, 551.1850
348.9589, 525.8415
349.4410, 498.1832
349.9232, 470.9124
350.4053, 443.5333
350.8874, 425.4533
351.3695, 426.2062
351.8516, 431.7910
352.3337, 428.9693
352.8159, 417.5196
353.2980, 404.9704
353.7801, 396.5066
354.2622, 391.8310
354.7443, 387.9141
355.2264, 384.4583
355.7086, 381.9079
356.1907, 382.2227
356.6728, 383.0471
357.1549, 380.1750
357.6370, 371.9476
358.1191, 361.5189
358.6013, 355.1523
359.0834, 355.2318
359.5655, 355.2231
360.0476, 354.8620
360.5297, 354.6236
361.0118, 354.6954
361.4940, 355.1602
361.9761, 356.0497
362.4582, 357.0423
362.9403, 358.2195
363.4224, 362.2809
363.9045, 371.7948
364.3867, 380.8348
364.8688, 388.8497
365.3509, 394.7395
365.8330, 396.3244
366.3151, 391.6123
366.7972, 384.8417
367.2794, 382.6853
367.7615, 385.5598
368.2436, 388.8887
368.7257, 393.2843
369.2078, 395.8633
369.6899, 392.2988
370.1721, 381.8900
370.6542, 374.2495
371.1363, 376.9349
371.6184, 385.5523
372.1005, 391.4637
372.5826, 393.5018
373.0648, 392.7543
373.5469, 388.3984
374.0290, 381.1104
374.5111, 378.7482
374.9932, 383.7404
375.4753, 391.7824
375.9575, 403.1100
376.4396, 415.7070
376.9217, 424.2714
377.4038, 425.9746
377.8859, 422.8407
378.3680, 419.9669
378.8502, 412.5399
379.3323, 412.3542
379.8144, 427.4753
380.2965, 444.8963
380.7786, 451.8938
381.2607, 447.8359
381.7429, 442.5203
382.2250, 446.1877
382.7071, 459.4300
383.1892, 473.6742
383.6713, 490.9027
384.1534, 507.1149
384.6355, 519.7012
385.1176, 530.7717
385.5998, 543.9013
386.0819, 561.0401
386.5640, 580.2076
387.0461, 597.0909
387.5282, 610.6595
388.0103, 627.1985
388.4925, 648.1729
388.9746, 673.1270
389.4567, 702.8813
389.9388, 737.4594
390.4209, 772.3248
390.9030, 802.4476
391.3852, 831.3524
391.8673, 868.1738
392.3494, 914.7309
392.8315, 963.7285
393.3136, 1007.029
393.7957, 1047.507
394.2779, 1099.416
394.7600, 1172.330
395.2421, 1248.546
395.7242, 1316.662
396.2063, 1380.886
396.6884, 1453.811
397.1706, 1541.505
397.6527, 1632.961
398.1348, 1706.376
398.6169, 1753.325
399.0990, 1796.331
399.5811, 1841.413
400.0633, 1878.297
400.5454, 1892.751
401.0275, 1889.775
401.5096, 1890.345
401.9917, 1912.021
402.4738, 1952.657
402.9560, 1992.430
403.4381, 2027.420
403.9202, 2067.008
404.4023, 2121.942
404.8844, 2178.268
405.3665, 2223.261
405.8487, 2253.324
406.3308, 2266.023
406.8129, 2261.711
407.2950, 2240.214
407.7771, 2187.551
408.2592, 2094.519
408.7414, 1977.999
409.2235, 1845.161
409.7056, 1700.195
410.1877, 1560.598
410.6698, 1428.040
411.1519, 1307.256
411.6341, 1202.916
412.1162, 1114.833
412.5983, 1041.042
413.0804, 982.8686
413.5625, 936.2103
414.0446, 889.2756
414.5268, 835.0762
415.0089, 792.1249
415.4910, 768.9307
415.9731, 755.5500
416.4552, 741.5431
416.9373, 725.0093
417.4195, 710.3723
417.9016, 702.9922
418.3837, 703.8130
418.8658, 698.4428
419.3479, 676.1660
419.8300, 659.2916
420.3122, 656.6961
420.7943, 661.9411
421.2764, 664.6082
421.7585, 659.9553
422.2406, 655.2877
422.7227, 665.2080
423.2049, 692.9656
423.6870, 712.8278
424.1691, 714.9563
424.6512, 713.2763
425.1333, 717.4214
425.6154, 726.8854
426.0976, 737.1744
426.5797, 742.4023
427.0618, 748.9032
427.5439, 769.7713
428.0260, 805.3398
428.5081, 836.8237
428.9902, 853.2369
429.4724, 859.3012
429.9545, 868.7388
430.4366, 880.7628
430.9187, 896.9402
431.4008, 918.3619
431.8829, 943.8929
432.3651, 973.8357
432.8472, 1007.650
433.3293, 1040.864
433.8114, 1068.698
434.2935, 1090.685
434.7756, 1115.576
435.2578, 1145.545
435.7399, 1175.883
436.2220, 1206.770
436.7041, 1236.882
437.1862, 1265.970
437.6683, 1293.964
438.1505, 1316.877
438.6326, 1326.177
439.1147, 1320.054
439.5968, 1317.162
440.0789, 1327.188
440.5610, 1332.662
441.0432, 1320.565
441.5253, 1293.972
442.0074, 1265.276
442.4895, 1242.086
442.9716, 1218.240
443.4537, 1183.668
443.9359, 1139.396
444.4180, 1097.254
444.9001, 1062.766
445.3822, 1033.734
445.8643, 1005.860
446.3464, 981.1585
446.8286, 952.4488
447.3107, 912.8871
447.7928, 872.6351
448.2749, 841.5881
448.7570, 819.9779
449.2391, 802.5583
449.7213, 785.3209
450.2034, 768.2385
450.6855, 749.5306
451.1676, 721.9176
451.6497, 703.1124
452.1318, 702.1707
452.6140, 707.3772
453.0961, 707.3733
453.5782, 699.4287
454.0603, 688.6168
454.5424, 678.5269
455.0245, 669.4456
455.5067, 665.4688
455.9888, 668.7573
456.4709, 673.3772
456.9530, 677.9206
457.4351, 680.7989
457.9172, 677.4816
458.3994, 660.7212
458.8815, 645.8602
459.3636, 645.7639
459.8457, 655.7509
460.3278, 664.0627
460.8099, 666.9965
461.2921, 667.9579
461.7742, 672.1801
462.2563, 682.2830
462.7384, 683.5722
463.2205, 669.7082
463.7026, 653.9767
464.1848, 642.4035
464.6669, 633.9029
465.1490, 625.4595
465.6311, 615.6777
466.1132, 604.5961
466.5953, 591.5157
467.0775, 574.8883
467.5596, 561.8209
468.0417, 556.1677
468.5238, 551.9229
469.0059, 545.6561
469.4880, 537.7075
469.9702, 530.3102
470.4523, 525.5341
470.9344, 521.4926
471.4165, 515.0805
471.8986, 506.3563
472.3807, 496.8015
472.8629, 486.8125
473.3449, 476.6599
473.8271, 466.3478
474.3092, 453.9386
474.7913, 447.0707
475.2734, 453.7244
475.7555, 461.8222
476.2376, 459.3973
476.7198, 447.2689
477.2019, 434.3750
477.6840, 426.9685
478.1661, 424.2000
478.6482, 421.7644
479.1303, 418.9913
479.6125, 417.7589
480.0946, 418.8924
480.5767, 421.0564
481.0588, 424.7021
481.5409, 429.1077
482.0230, 430.3073
482.5052, 421.9585
482.9873, 407.8177
483.4694, 401.3035
483.9515, 404.1537
484.4336, 407.6696
484.9157, 408.0351
485.3979, 405.7224
485.8800, 401.5677
486.3621, 393.1626
486.8442, 388.5480
487.3263, 394.6620
487.8084, 404.4137
488.2906, 408.7737
488.7727, 406.5667
489.2548, 401.8103
489.7369, 397.5891
490.2190, 393.9514
490.7011, 391.6870
491.1833, 394.6903
491.6654, 394.2107
492.1475, 383.8926
492.6296, 372.5081
493.1117, 369.7457
493.5938, 377.0589
494.0760, 386.8821
494.5581, 392.4283
495.0402, 394.0611
495.5223, 393.6249
496.0044, 390.0548
496.4865, 387.5739
496.9687, 390.6695
497.4508, 395.8636
497.9329, 396.1324
498.4150, 387.5964
498.8971, 381.1957
499.3792, 385.0702
499.8614, 393.4295
500.3435, 396.8478
500.8256, 393.8801
501.3077, 389.8887
501.7898, 389.5543
502.2719, 392.8042
502.7541, 396.8965
503.2362, 403.6421
503.7183, 409.0463
504.2004, 411.5609
504.6825, 412.9292
505.1646, 415.2945
505.6468, 418.9902
506.1289, 422.0335
506.6110, 421.2343
507.0931, 417.4543
507.5752, 418.2821
508.0573, 426.3623
508.5395, 432.0697
509.0216, 426.6776
509.5037, 416.5385
509.9858, 413.8987
510.4679, 423.8007
510.9500, 431.6722
511.4322, 429.1378
511.9143, 421.2251
512.3964, 414.1667
512.8785, 409.2138
513.3606, 406.4769
513.8427, 406.2573
514.3248, 408.3696
514.8069, 410.6962
515.2891, 415.5955
515.7712, 417.5704
516.2533, 412.9771
516.7354, 407.0729
517.2175, 405.2059
517.6996, 407.9301
518.1818, 411.0402
518.6639, 409.9989
519.1460, 406.1895
519.6281, 405.3115
520.1102, 407.8090
520.5923, 411.7021
521.0745, 418.5297
521.5566, 424.7145
522.0387, 422.6712
522.5208, 408.1073
523.0029, 398.0446
523.4850, 401.9740
523.9672, 410.6953
524.4493, 413.4896
524.9314, 410.5508
525.4135, 410.0931
525.8956, 418.4167
526.3777, 432.8687
526.8599, 442.0563
527.3420, 443.3704
527.8241, 443.8763
528.3062, 441.7875
528.7883, 441.2447
529.2704, 447.3530
529.7526, 458.6830
530.2347, 466.9758
530.7168, 464.8972
531.1989, 457.6991
531.6810, 455.0472
532.1631, 456.9095
532.6453, 460.3436
533.1274, 465.1722
533.6095, 469.6528
534.0916, 469.2437
534.5737, 461.2380
535.0558, 461.5278
535.5380, 482.9653
536.0201, 503.1963
536.5022, 503.9352
536.9843, 491.5925
537.4664, 483.7972
537.9485, 489.3319
538.4307, 501.7924
538.9128, 508.5490
539.3949, 508.4187
539.8770, 507.6675
540.3591, 504.9870
540.8412, 503.7715
541.3234, 508.8777
541.8055, 516.6962
542.2876, 517.7798
542.7697, 504.5760
543.2518, 490.5044
543.7339, 490.7821
544.2161, 499.7478
544.6982, 499.9225
545.1803, 486.5162
545.6624, 470.1416
546.1445, 461.8835
546.6266, 462.1765
547.1088, 463.2858
547.5909, 467.2064
548.0730, 469.4784
548.5551, 466.2800
549.0372, 462.1951
549.5193, 462.7524
550.0015, 469.1136
550.4836, 477.6932
550.9657, 486.8572
551.4478, 495.6953
551.9299, 497.6779
552.4120, 490.8478
552.8942, 483.7893
553.3763, 478.5249
553.8584, 476.9986
554.3405, 483.5837
554.8226, 502.7664
555.3047, 516.0250
555.7869, 515.1028
556.2690, 507.2892
556.7511, 496.4166
557.2332, 484.8716
557.7153, 479.2307
558.1974, 484.4988
558.6796, 495.1426
559.1617, 493.3130
559.6438, 471.0763
560.1259, 456.2407
560.6080, 458.7528
561.0901, 463.2915
561.5723, 463.3646
562.0544, 458.6944
562.5365, 449.9236
563.0186, 434.7968
563.5007, 418.7461
563.9828, 407.5480
564.4650, 400.5110
564.9471, 395.6504
565.4292, 392.8164
565.9113, 389.3258
566.3934, 381.3026
566.8755, 367.7826
567.3577, 360.7187
567.8398, 367.3248
568.3219, 370.9351
568.8040, 362.8542
569.2861, 351.3557
569.7682, 347.0698
570.2504, 352.0810
570.7325, 358.9057
571.2146, 359.9134
571.6967, 356.3310
572.1788, 354.5440
572.6609, 355.1374
573.1431, 354.8623
573.6252, 351.4268
574.1073, 346.6833
574.5894, 344.0206
575.0715, 343.4973
575.5536, 344.4984
576.0358, 349.8533
576.5179, 354.3120
577.0000, 350.6987
577.4821, 342.2266
577.9642, 339.7199
578.4464, 349.2927
578.9285, 363.9186
579.4106, 368.4732
579.8927, 360.6107
580.3748, 353.5378
580.8569, 348.2545
581.3391, 343.9867
581.8212, 338.5846
582.3033, 333.9236
582.7854, 334.5614
583.2675, 343.4222
583.7496, 354.4221
584.2318, 365.4795
584.7139, 375.2272
585.1959, 380.9320
585.6780, 382.1858
586.1602, 380.0754
586.6423, 374.7575
587.1244, 367.1053
587.6065, 364.0711
588.0886, 368.7314
588.5707, 373.3188
589.0529, 378.3493
589.5350, 381.8504
590.0171, 380.7798
590.4992, 376.2072
590.9813, 373.7112
591.4634, 377.6120
591.9456, 384.4808
592.4277, 391.0666
592.9098, 396.8236
593.3919, 396.9748
593.8740, 388.7884
594.3561, 379.5172
594.8383, 378.4661
595.3204, 387.0020
595.8025, 393.6072
596.2846, 398.1904
596.7667, 401.2710
597.2488, 401.7740
597.7310, 401.4890
598.2131, 402.7795
598.6952, 406.0641
599.1773, 409.3659
599.6594, 410.1142
600.1415, 409.3571
600.6237, 411.5837
601.1058, 417.2819
601.5879, 421.8597
602.0700, 422.8267
602.5521, 421.9954
603.0342, 422.6616
603.5164, 425.2135
603.9985, 427.4040
604.4806, 426.7123
604.9627, 427.7784
605.4448, 435.5484
605.9269, 446.6698
606.4091, 454.5425
606.8912, 456.4302
607.3733, 455.8916
607.8554, 457.6724
608.3375, 461.7036
608.8196, 466.3577
609.3018, 473.2388
609.7839, 476.2483
610.2660, 467.6669
610.7481, 454.5602
611.2302, 452.1685
611.7123, 465.6073
612.1945, 476.5706
612.6766, 477.7949
613.1587, 475.6048
613.6408, 474.3441
614.1229, 474.7931
614.6050, 477.5251
615.0872, 483.0089
615.5693, 489.7003
616.0514, 494.7972
616.5335, 498.2772
617.0156, 500.0673
617.4977, 499.5841
617.9799, 498.1923
618.4620, 495.2247
618.9441, 492.1899
619.4262, 492.5770
619.9083, 498.7959
620.3904, 504.5247
620.8726, 508.0118
621.3547, 508.7224
621.8368, 503.4079
622.3189, 493.6815
622.8010, 488.3887
623.2831, 494.2084
623.7653, 505.7086
624.2474, 505.5406
624.7295, 487.2301
625.2116, 480.0416
625.6937, 496.8816
626.1758, 514.8137
626.6580, 519.1440
627.1401, 513.7597
627.6222, 509.1715
628.1043, 508.6070
628.5864, 508.1004
629.0685, 505.6030
629.5507, 501.5262
630.0328, 495.8211
630.5149, 488.8359
630.9970, 482.4466
631.4791, 478.0063
631.9612, 475.3503
632.4434, 473.8701
632.9255, 473.4404
633.4076, 474.6367
633.8897, 481.4289
634.3718, 486.1004
634.8539, 482.0974
635.3361, 471.9291
635.8182, 464.0219
636.3003, 462.9889
636.7824, 461.6275
637.2645, 451.5752
637.7466, 439.1091
638.2288, 436.2906
638.7109, 444.2914
639.1930, 454.1031
639.6751, 458.9060
640.1572, 459.2446
640.6393, 457.8225
641.1215, 454.8721
641.6036, 449.4773
642.0857, 435.4644
642.5678, 424.4814
643.0499, 426.8070
643.5320, 438.6658
644.0142, 446.5262
644.4963, 444.0916
644.9784, 439.7081
645.4605, 439.9190
645.9426, 441.7806
646.4247, 439.0633
646.9069, 431.3945
647.3890, 425.0755
647.8711, 425.3547
648.3532, 430.7964
648.8353, 435.2377
649.3174, 438.8452
649.7996, 441.0571
650.2817, 441.8949
650.7638, 441.0965
651.2459, 436.8083
651.7280, 430.6234
652.2101, 427.8546
652.6923, 433.1730
653.1744, 437.5888
653.6565, 433.4810
654.1386, 425.8885
654.6207, 422.4446
655.1028, 424.0976
655.5850, 427.5332
656.0671, 430.5188
656.5492, 432.8589
657.0313, 434.3647
657.5134, 436.1044
657.9955, 432.7796
658.4777, 416.9341
658.9598, 403.6471
659.4419, 405.4997
659.9240, 417.8202
660.4061, 427.3847
660.8882, 433.7882
661.3704, 433.4942
661.8525, 417.0145
662.3346, 397.2070
662.8167, 391.8737
663.2988, 400.6078
663.7809, 410.4561
664.2631, 412.9335
664.7452, 410.5353
665.2273, 409.2378
665.7094, 409.2766
666.1915, 408.8735
666.6736, 408.0453
667.1558, 406.3589
667.6379, 402.0466
668.1200, 396.7753
668.6021, 395.1485
669.0842, 400.9273
669.5663, 403.8064
670.0485, 396.0989
670.5306, 387.3076
671.0127, 387.4521
671.4948, 394.7595
671.9769, 401.2350
672.4590, 402.5582
672.9412, 400.9010
673.4233, 400.0446
673.9054, 399.9259
674.3875, 397.0575
674.8696, 389.8576
675.3517, 383.9351
675.8338, 383.0971
676.3159, 385.7193
676.7980, 387.4806
677.2802, 388.1546
677.7623, 388.6859
678.2444, 389.4620
678.7265, 389.8851
679.2086, 388.8701
679.6907, 387.3658
680.1729, 387.7285
680.6550, 390.9143
681.1371, 393.7081
681.6192, 391.9139
682.1013, 386.7047
682.5834, 382.2207
683.0656, 378.6860
683.5477, 375.6117
684.0298, 372.3932
684.5119, 370.1945
684.9940, 371.6732
685.4761, 379.1973
685.9583, 382.4424
686.4404, 377.2033
686.9225, 372.8095
687.4046, 374.2242
687.8867, 377.5753
688.3688, 377.8194
688.8510, 373.9294
689.3331, 368.6024
689.8152, 361.7254
690.2973, 355.6798
690.7794, 354.3771
691.2615, 357.3847
691.7437, 363.7278
692.2258, 373.5782
692.7079, 380.4873
693.1900, 375.1205
693.6721, 357.0367
694.1542, 348.8442
694.6364, 357.0023
695.1185, 364.7099
695.6006, 368.6827
696.0827, 370.3876
696.5648, 370.4027
697.0469, 369.0256
697.5291, 367.6575
698.0112, 367.3070
698.4933, 366.6377
698.9754, 363.1795
699.4575, 359.2978
699.9396, 359.9501
700.4218, 365.4166
700.9039, 370.7882
701.3860, 372.0217
701.8681, 370.3284
702.3502, 369.8591
702.8323, 371.0514
703.3145, 370.8424
703.7966, 367.7610
704.2787, 364.7408
704.7608, 363.4117
705.2429, 363.9622
705.7250, 367.2340
706.2072, 377.3635
706.6893, 383.3848
707.1714, 380.1070
707.6535, 373.8093
708.1356, 367.2993
708.6177, 362.4466
709.0999, 362.9913
709.5820, 371.1494
710.0641, 380.7710
710.5462, 383.8058
711.0283, 381.4809
711.5104, 378.3014
711.9926, 374.4840
712.4747, 372.7861
712.9568, 375.2298
713.4389, 379.6231
713.9210, 381.7448
714.4031, 381.0755
714.8853, 379.7673
715.3674, 376.9269
715.8495, 374.5154
716.3316, 373.1238
716.8137, 372.5112
717.2958, 372.5588
717.7780, 373.2015
718.2601, 373.6983
718.7422, 371.7737
719.2243, 370.9522
719.7064, 378.2638
720.1885, 389.5925
720.6707, 392.5501
721.1528, 384.0974
721.6349, 373.8330
722.1170, 371.5551
722.5991, 376.0478
723.0812, 379.1822
723.5634, 380.4656
724.0455, 382.1299
724.5276, 385.1573
725.0097, 388.1179
725.4918, 388.8805
725.9739, 388.3195
726.4561, 390.2346
726.9382, 398.9587
727.4203, 404.7964
727.9024, 400.6812
728.3845, 395.8145
728.8666, 400.8356
729.3488, 412.6738
729.8309, 419.7723
730.3130, 416.0227
730.7951, 407.8529
731.2772, 402.6041
731.7593, 399.8612
732.2415, 397.7988
732.7236, 396.2442
733.2057, 396.9224
733.6878, 400.9401
734.1699, 407.3243
734.6520, 414.8561
735.1342, 425.3098
735.6163, 430.1825
736.0984, 424.0950
736.5805, 418.9192
737.0626, 418.9255
737.5447, 421.0227
738.0269, 422.1116
738.5090, 421.7880
738.9911, 420.3808
739.4732, 416.1866
739.9553, 412.7198
740.4374, 414.0642
740.9196, 417.6553
741.4017, 417.9820
741.8838, 414.5389
742.3659, 412.7337
742.8480, 417.8530
743.3301, 426.6823
743.8123, 429.4188
744.2944, 425.7292
744.7765, 422.5548
745.2586, 420.4257
745.7407, 421.2761
746.2228, 428.4328
746.7050, 439.4465
747.1871, 444.2206
747.6692, 438.7050
748.1513, 433.6180
748.6334, 424.8796
749.1155, 421.0983
749.5977, 434.0448
750.0798, 453.0189
750.5619, 457.3727
751.0440, 440.4636
751.5261, 424.0302
752.0082, 425.3508
752.4904, 434.5401
752.9725, 438.8727
753.4546, 439.1071
753.9367, 440.1171
754.4188, 443.5542
754.9009, 447.6463
755.3831, 450.3718
755.8652, 451.8666
756.3473, 453.1017
756.8294, 453.7651
757.3115, 455.7702
757.7936, 461.3941
758.2758, 465.8216
758.7579, 462.8458
759.2400, 453.7296
759.7221, 449.7396
760.2042, 454.6913
760.6863, 459.6271
761.1685, 461.0947
761.6506, 463.6946
762.1327, 472.9901
762.6148, 485.9983
763.0969, 495.0580
763.5790, 496.8905
764.0612, 496.4688
764.5433, 497.2659
765.0253, 499.1947
765.5074, 503.0948
765.9896, 508.2682
766.4717, 510.9433
766.9538, 509.4736
767.4359, 507.1799
767.9180, 509.1952
768.4001, 515.3537
768.8823, 516.0974
769.3644, 507.8972
769.8465, 505.7583
770.3286, 519.1718
770.8107, 534.1537
771.2928, 533.6966
771.7750, 519.7244
772.2571, 513.3715
772.7392, 521.5885
773.2213, 529.2632
773.7034, 531.9128
774.1855, 533.6686
774.6677, 537.7422
775.1498, 543.8257
775.6319, 550.5168
776.1140, 557.5599
776.5961, 563.4168
777.0782, 565.0019
777.5604, 565.2100
778.0425, 569.9470
778.5246, 578.5099
779.0067, 585.9230
779.4888, 590.1176
779.9709, 592.1434
780.4531, 593.0129
780.9352, 592.8539
781.4173, 594.1700
781.8994, 597.0075
782.3815, 601.2985
782.8636, 607.6675
783.3458, 614.4918
783.8279, 619.0612
784.3100, 621.8654
784.7921, 629.9305
785.2742, 649.5503
785.7563, 665.4794
786.2385, 671.1509
786.7206, 676.2526
787.2027, 688.0776
787.6848, 704.8107
788.1669, 721.9966
788.6490, 738.9165
789.1312, 751.3399
789.6133, 751.2804
790.0954, 748.0693
790.5775, 754.8992
791.0596, 769.4565
791.5417, 780.7529
792.0239, 785.3404
792.5060, 793.0230
792.9881, 817.1599
793.4702, 853.2330
793.9523, 879.0528
794.4344, 893.8421
794.9166, 906.6030
795.3987, 917.8458
795.8808, 932.7000
796.3629, 956.9363
796.8450, 988.7071
797.3271, 1017.316
797.8093, 1041.211
798.2914, 1064.176
798.7735, 1082.502
799.2556, 1104.071
799.7377, 1133.809
800.2198, 1169.162
800.7020, 1205.661
801.1841, 1242.589
801.6662, 1280.820
802.1483, 1317.396
802.6304, 1358.445
803.1125, 1409.593
803.5947, 1468.100
804.0768, 1528.933
804.5589, 1590.965
805.0410, 1655.384
805.5231, 1721.188
806.0052, 1792.610
806.4874, 1881.297
806.9695, 1983.707
807.4516, 2078.077
807.9337, 2160.805
808.4158, 2260.256
808.8979, 2395.739
809.3801, 2558.514
809.8622, 2725.101
810.3443, 2886.875
810.8264, 3085.063
811.3085, 3314.312
811.7906, 3591.146
812.2728, 3929.000
812.7549, 4311.924
813.2370, 4719.854
813.7191, 5152.481
814.2012, 5621.590
814.6833, 6149.979
815.1655, 6687.215
815.6476, 7223.579
816.1297, 7758.222
816.6118, 8275.109
817.0939, 8787.068
817.5760, 9331.417
818.0582, 9921.798
818.5403, 10551.40
819.0224, 11201.43
819.5045, 11888.57
819.9866, 12622.44
820.4688, 13411.99
820.9509, 14279.90
821.4330, 15235.79
821.9151, 16298.20
822.3972, 17485.08
822.8793, 18794.74
823.3615, 20231.83
823.8436, 21801.41
824.3257, 23365.48
824.8078, 24935.74
825.2899, 26315.01
825.7720, 27389.29
826.2542, 28101.29
826.7363, 28168.31
827.2184, 27552.12
827.7005, 26371.05
828.1826, 24397.79
828.6647, 22140.55
829.1469, 19640.69
829.6290, 17086.21
830.1111, 14715.77
830.5932, 12528.14
831.0753, 10624.44
831.5574, 9077.876
832.0396, 7765.665
832.5217, 6680.624
833.0038, 5777.599
833.4859, 5051.427
833.9680, 4480.526
834.4501, 4002.874
834.9323, 3603.398
835.4144, 3259.773
835.8965, 2963.029
836.3786, 2706.210
836.8607, 2481.929
837.3428, 2287.386
837.8250, 2120.104
838.3071, 1978.105
838.7892, 1853.107
839.2713, 1734.482
839.7534, 1623.886
840.2355, 1526.231
840.7177, 1441.050
841.1998, 1372.321
841.6819, 1322.525
842.1640, 1278.605
842.6461, 1229.260
843.1282, 1176.297
843.6104, 1128.344
844.0925, 1086.830
844.5746, 1046.352
845.0567, 1004.491
845.5388, 966.5762
846.0209, 935.8488
846.5031, 910.6688
846.9852, 889.8539
847.4673, 875.0076
847.9494, 853.5711
848.4315, 815.0766
848.9136, 781.5974
849.3958, 761.4143
849.8779, 748.8270
850.3600, 743.2090
850.8421, 740.3820
851.3242, 727.5344
851.8063, 694.7884
852.2885, 664.2522
852.7706, 653.7881
853.2527, 649.8901
853.7348, 634.6841
854.2169, 613.7848
854.6990, 605.9494
855.1811, 616.2700
855.6632, 626.1575
856.1453, 615.9943
856.6274, 594.8738
857.1096, 579.5529
857.5917, 569.6749
858.0738, 565.2356
858.5559, 565.8887
859.0380, 565.0244
859.5201, 557.8143
860.0023, 546.9519
860.4844, 538.0187
860.9665, 531.0112
861.4486, 526.8602
861.9307, 526.6875
862.4128, 524.4427
862.8950, 516.8793
863.3771, 507.6067
863.8592, 500.9613
864.3413, 496.9663
864.8234, 493.7316
865.3055, 490.0807
865.7877, 489.2131
866.2698, 496.7913
866.7519, 502.0253
867.2340, 496.6826
867.7161, 485.0544
868.1982, 476.2497
868.6804, 471.3540
869.1625, 468.4274
869.6446, 467.1591
870.1267, 467.6565
870.6088, 472.1849
871.0909, 477.1548
871.5731, 476.8260
872.0552, 471.9908
872.5373, 470.5803
873.0194, 478.4523
873.5015, 486.9677
873.9836, 488.8913
874.4658, 488.2732
874.9479, 490.6978
875.4300, 495.1993
875.9121, 497.2631
876.3942, 495.2516
876.8763, 492.5976
877.3585, 491.6714
877.8406, 493.1335
878.3227, 499.9376
878.8048, 510.5369
879.2869, 517.5981
879.7690, 520.0396
880.2512, 525.7739
880.7333, 541.3497
881.2154, 560.1337
881.6975, 565.5129
882.1796, 557.6821
882.6617, 560.1953
883.1439, 575.6434
883.6260, 589.0385
884.1081, 593.4994
884.5902, 597.2083
885.0723, 611.0071
885.5544, 633.7958
886.0366, 649.2141
886.5187, 654.2595
887.0008, 659.2201
887.4829, 662.6028
887.9650, 670.2351
888.4471, 691.2180
888.9293, 716.6522
889.4114, 724.7563
889.8935, 707.5330
890.3756, 706.7103
890.8577, 739.2933
891.3398, 768.5353
891.8220, 783.0912
892.3041, 790.7853
892.7862, 795.8963
893.2683, 800.4724
893.7504, 809.6076
894.2325, 825.9641
894.7147, 843.7770
895.1968, 864.0349
895.6789, 881.9604
896.1610, 893.7584
896.6431, 901.0070
897.1252, 905.6220
897.6074, 908.4568
898.0895, 911.6906
898.5716, 916.1458
899.0537, 922.1270
899.5358, 933.4023
900.0179, 944.4182
900.5001, 945.1688
900.9822, 937.4840
901.4643, 930.1823
901.9464, 927.1856
902.4285, 928.2312
902.9106, 939.5922
903.3928, 951.7280
903.8749, 940.2838
904.3570, 911.5614
904.8391, 890.1729
905.3212, 881.3195
905.8033, 876.3137
906.2855, 869.4256
906.7676, 860.1332
907.2497, 846.7901
907.7318, 829.7699
908.2139, 812.9921
908.6960, 796.7277
909.1782, 775.5749
909.6603, 746.2125
910.1424, 719.5689
910.6245, 709.4028
911.1066, 711.7292
911.5887, 701.5706
912.0709, 675.3160
912.5530, 654.7205
913.0351, 643.2795
913.5172, 635.1826
913.9993, 629.0581
914.4814, 622.4548
914.9636, 610.7847
915.4457, 593.2195
915.9278, 578.0923
916.4099, 564.8372
916.8920, 555.1946
917.3741, 551.0413
917.8563, 548.9771
918.3384, 547.2944
918.8205, 545.7822
919.3026, 544.3301
919.7847, 544.7708
920.2668, 540.0585
920.7490, 522.4748
921.2311, 508.6839
921.7132, 507.3655
922.1953, 510.3206
922.6774, 510.0225
923.1595, 506.4474
923.6417, 502.7004
924.1238, 500.8586
924.6059, 496.2000
925.0880, 481.8027
925.5701, 469.6941
926.0522, 470.4567
926.5344, 477.6125
927.0165, 481.4418
927.4986, 480.3719
927.9807, 478.4324
928.4628, 478.9160
928.9449, 477.2543
929.4271, 466.5841
929.9092, 455.3754
930.3913, 453.9770
930.8734, 459.7451
931.3555, 465.4367
931.8376, 468.5481
932.3198, 467.9633
932.8019, 458.6260
933.2840, 448.9573
933.7661, 449.1652
934.2482, 455.2095
934.7303, 460.7705
935.2125, 464.8878
935.6946, 469.0200
936.1767, 473.9632
936.6588, 478.1421
937.1409, 479.3679
937.6230, 478.8782
938.1052, 478.7233
938.5873, 478.9770
939.0694, 479.1435
939.5515, 479.4066
940.0336, 482.1800
940.5157, 489.5774
940.9979, 498.0241
941.4800, 500.7350
941.9621, 499.3833
942.4442, 500.4760
942.9263, 504.0945
943.4084, 508.4704
943.8906, 512.9994
944.3726, 515.8594
944.8547, 514.4692
945.3369, 512.1661
945.8190, 519.3956
946.3011, 535.5687
946.7832, 550.9352
947.2653, 564.9130
947.7474, 571.9610
948.2296, 568.5192
948.7117, 565.2305
949.1938, 575.9662
949.6759, 597.4113
950.1580, 607.9983
950.6401, 605.8641
951.1223, 610.9423
951.6044, 627.4109
952.0865, 642.2979
952.5686, 647.5405
953.0507, 650.6242
953.5328, 664.0010
954.0150, 687.5784
954.4971, 704.3561
954.9792, 712.7005
955.4613, 719.9023
955.9434, 727.1051
956.4255, 733.0723
956.9077, 734.7090
957.3898, 737.2998
957.8719, 753.6489
958.3540, 787.7815
958.8361, 806.5503
959.3182, 799.3908
959.8004, 800.1320
960.2825, 822.3787
960.7646, 844.9788
961.2467, 849.7468
961.7288, 844.3062
962.2109, 850.7228
962.6931, 875.0147
963.1752, 891.5924
963.6573, 894.2889
964.1394, 898.6306
964.6215, 906.8765
965.1036, 919.7620
965.5858, 938.4785
966.0679, 962.4451
966.5500, 988.7119
967.0321, 1017.140
967.5142, 1048.089
967.9963, 1082.753
968.4785, 1118.325
968.9606, 1151.400
969.4427, 1186.792
969.9248, 1227.669
970.4069, 1274.588
970.8890, 1330.210
971.3712, 1396.714
971.8533, 1467.956
972.3354, 1535.969
972.8175, 1617.208
973.2996, 1722.357
973.7817, 1841.942
974.2639, 1964.046
974.7460, 2089.288
975.2281, 2230.254
975.7102, 2390.499
976.1923, 2564.302
976.6744, 2741.098
977.1566, 2940.980
977.6387, 3189.312
978.1208, 3458.583
978.6029, 3699.478
979.0850, 3915.072
979.5671, 4177.038
980.0493, 4530.005
980.5314, 4890.016
981.0135, 5223.096
981.4956, 5566.240
981.9777, 5936.227
982.4598, 6335.085
982.9420, 6766.952
983.4241, 7230.743
983.9062, 7709.727
984.3883, 8189.422
984.8704, 8692.846
985.3525, 9239.657
985.8347, 9801.917
986.3168, 10390.20
986.7989, 10963.74
987.2810, 11470.37
987.7631, 11900.46
988.2452, 12227.70
988.7274, 12414.26
989.2095, 12536.66
989.6916, 12642.99
990.1737, 12682.87
990.6558, 12594.38
991.1379, 12418.10
991.6201, 12220.11
992.1022, 12014.40
992.5843, 11801.86
993.0664, 11555.08
993.5485, 11337.20
994.0306, 11211.63
994.5128, 11097.96
994.9949, 10939.17
995.4770, 10736.62
995.9591, 10508.13
996.4412, 10257.32
996.9233, 9954.820
997.4055, 9603.865
997.8876, 9177.063
998.3697, 8619.032
998.8518, 8016.480
999.3339, 7414.077
999.8160, 6836.145
1000.298, 6307.530
1000.780, 5833.929
1001.262, 5413.471
1001.745, 5047.098
1002.227, 4728.458
1002.709, 4460.351
1003.191, 4232.272
1003.673, 4051.350
1004.155, 3897.884
1004.637, 3745.173
1005.119, 3586.035
1005.601, 3414.660
1006.084, 3221.270
1006.566, 3023.202
1007.048, 2829.496
1007.530, 2634.589
1008.012, 2423.320
1008.494, 2210.844
1008.976, 2022.860
1009.458, 1865.942
1009.940, 1726.854
1010.423, 1602.565
1010.905, 1491.691
1011.387, 1393.690
1011.869, 1308.100
1012.351, 1234.495
1012.833, 1172.227
1013.315, 1122.435
1013.797, 1084.974
1014.280, 1049.238
1014.762, 1010.032
1015.244, 973.0127
1015.726, 937.1986
1016.208, 907.5626
1016.690, 894.0610
1017.172, 887.3360
1017.654, 870.1268
1018.136, 839.8300
1018.619, 810.6420
1019.101, 783.9387
1019.583, 763.9433
1020.065, 756.4670
1020.547, 752.1258
1021.029, 746.0815
1021.511, 737.3001
1021.993, 723.8615
1022.476, 705.8826
1022.958, 690.1719
1023.440, 679.7402
1023.922, 670.2373
1024.404, 662.0538
1024.886, 652.5125
1025.368, 636.9286
1025.850, 620.3901
1026.332, 611.5901
1026.815, 610.8033
1027.297, 607.3824
1027.779, 595.9922
1028.261, 586.1330
1028.743, 581.1191
1029.225, 576.8388
1029.707, 571.4216
1030.189, 565.1147
1030.672, 558.1699
1031.154, 550.7034
1031.636, 543.5784
1032.118, 537.5277
1032.600, 530.8647
1033.082, 521.5290
1033.564, 513.7645
1034.046, 509.8795
1034.528, 508.3538
1035.010, 506.6963
1035.493, 505.3604
1035.975, 508.5435
1036.457, 523.6478
1036.939, 530.7049
1037.421, 524.5087
1037.903, 515.7838
1038.385, 504.4227
1038.867, 495.4040
1039.350, 496.3036
1039.832, 504.1593
1040.314, 503.7222
1040.796, 489.2373
1041.278, 479.7623
1041.760, 477.5862
1042.242, 476.8700
1042.724, 478.4869
1043.207, 477.6999
1043.689, 468.7745
1044.171, 454.8551
1044.653, 446.2540
1045.135, 444.3191
1045.617, 442.3646
1046.099, 439.0639
1046.581, 439.4255
1047.063, 447.3688
1047.546, 453.8321
1048.028, 451.6302
1048.510, 443.7306
1048.992, 436.1529
1049.474, 428.2676
1049.956, 428.3331
1050.438, 439.5689
1050.920, 444.4789
1051.402, 437.9236
1051.885, 431.3361
1052.367, 432.6850
1052.849, 435.8977
1053.331, 429.2574
1053.813, 413.8724
1054.295, 409.7281
1054.777, 418.0998
1055.259, 419.5911
1055.742, 410.6584
1056.224, 401.4125
1056.706, 396.6476
1057.188, 396.0065
1057.670, 400.6979
1058.152, 407.6670
1058.634, 400.6897
1059.116, 381.9691
1059.599, 379.4376
1060.081, 394.6652
1060.563, 401.7433
1061.045, 390.4567
1061.527, 376.2056
1062.009, 374.7522
1062.491, 379.7227
1062.973, 376.3671
1063.455, 367.5411
1063.938, 362.6930
1064.420, 362.1751
1064.902, 364.5767
1065.384, 369.0568
1065.866, 372.7130
1066.348, 373.2238
1066.830, 372.6269
1067.312, 376.0977
1067.794, 379.0329
1068.277, 369.0506
1068.759, 352.3029
1069.241, 345.9702
1069.723, 351.2246
1070.205, 355.4240
1070.687, 351.7305
1071.169, 346.9290
1071.651, 347.2593
1072.134, 349.5318
1072.616, 350.6154
1073.098, 351.1285
1073.580, 352.5394
1074.062, 354.4333
1074.544, 355.1928
1075.026, 354.2895
1075.508, 351.9986
1075.990, 347.8062
1076.473, 343.0832
1076.955, 335.8524
1077.437, 330.9789
1077.919, 335.5933
1078.401, 345.3605
1078.883, 351.6219
1079.365, 352.8152
1079.847, 352.2818
1080.329, 350.8055
1080.812, 348.1167
1081.294, 342.7711
1081.776, 337.7040
1082.258, 334.9235
1082.740, 333.2533
1083.222, 329.7342
1083.704, 325.0233
1084.186, 326.2820
1084.668, 339.9067
1085.151, 349.2207
1085.633, 353.4864
1086.115, 353.3771
1086.597, 344.6414
1087.079, 336.4490
1087.561, 337.4687
1088.043, 345.1734
1088.525, 352.4082
1089.008, 360.8062
1089.490, 360.0114
1089.972, 345.8253
1090.454, 334.5563
1090.936, 328.6443
1091.418, 330.3890
1091.900, 344.0909
1092.382, 359.5497
1092.865, 357.1518
1093.347, 339.5329
1093.829, 339.1088
1094.311, 356.7712
1094.793, 365.3731
1095.275, 361.3029
1095.757, 355.1088
1096.239, 351.3143
1096.721, 347.6557
1097.203, 340.6902
1097.686, 334.1832
1098.168, 341.6282
1098.650, 357.1994
1099.132, 356.3847
1099.614, 341.4446
1100.096, 329.1894
1100.578, 324.6713
1101.060, 327.7750
1101.543, 339.8950
1102.025, 351.6487
1102.507, 351.3397
1102.989, 344.1637
1103.471, 334.4167
1103.953, 325.1038
1104.435, 320.8286
1104.917, 321.8337
1105.400, 327.3378
1105.882, 337.3615
1106.364, 344.3051
1106.846, 341.5874
1107.328, 336.3045
1107.810, 332.1787
1108.292, 328.5708
1108.774, 322.7354
1109.256, 317.7468
1109.739, 321.9253
1110.221, 335.4397
1110.703, 340.8211
1111.185, 327.3485
1111.667, 314.5947
1112.149, 300.8813
1112.631, 295.6978
1113.113, 313.3687
1113.595, 334.4629
1114.078, 335.3338
1114.560, 321.5635
1115.042, 316.4789
1115.524, 324.0775
1116.006, 327.2768
1116.488, 324.2153
1116.970, 321.0337
1117.452, 318.8484
1117.935, 317.2009
1118.417, 315.5395
1118.899, 314.8873
1119.381, 317.9546
1119.863, 323.8365
1120.345, 321.5364
1120.827, 310.8129
1121.309, 300.7649
1121.792, 292.4574
1122.274, 289.6199
1122.756, 293.8634
1123.238, 299.7113
1123.720, 302.2404
1124.202, 302.4482
1124.684, 301.9405
1125.166, 300.7961
1125.648, 299.4277
1126.130, 297.5948
1126.613, 293.3040
1127.095, 287.2705
1127.577, 285.2241
1128.059, 290.3674
1128.541, 296.0516
1129.023, 295.9092
1129.505, 294.0945
1129.987, 295.2249
1130.470, 296.5545
1130.952, 293.0669
1131.434, 287.3882
1131.916, 287.0503
1132.398, 293.1405
1132.880, 296.1143
1133.362, 291.4491
1133.844, 284.8801
1134.327, 273.9333
1134.809, 266.4156
1135.291, 271.4026
1135.773, 278.2920
1136.255, 272.2477
1136.737, 257.4573
1137.219, 254.7611
1137.701, 269.8147
1138.183, 276.4006
1138.666, 271.0416
1139.148, 265.0954
1139.630, 259.9643
1140.112, 256.8639
1140.594, 256.8079
1141.076, 258.4377
1141.558, 259.6961
1142.040, 260.8531
1142.522, 264.2958
1143.005, 269.7962
1143.487, 269.9720
1143.969, 264.7713
1144.451, 263.8994
1144.933, 270.0340
1145.415, 274.7277
1145.897, 271.4399
1146.379, 264.2845
1146.862, 257.3983
1147.344, 251.7854
1147.826, 249.3897
1148.308, 249.6535
1148.790, 252.6804
1149.272, 257.0806
1149.754, 258.7124
1150.236, 256.2788
1150.719, 254.3756
1151.201, 255.4962
1151.683, 258.2490
1152.165, 264.8035
1152.647, 269.6636
1153.129, 267.5806
1153.611, 261.8551
1154.093, 256.3491
1154.575, 251.6604
1155.057, 248.7657
1155.540, 248.3778
1156.022, 248.2807
1156.504, 248.4119
1156.986, 248.7122
1157.468, 248.6401
1157.950, 249.8358
1158.432, 254.2038
1158.914, 259.0339
1159.397, 259.8828
1159.879, 257.1505
1160.361, 253.7756
1160.843, 249.7061
1161.325, 247.3624
1161.807, 246.9193
1162.289, 246.9316
1162.771, 246.9427
1163.254, 247.8322
1163.736, 250.6231
1164.218, 252.3635
1164.700, 246.8696
1165.182, 238.6161
1165.664, 235.8615
1166.146, 236.6185
1166.628, 235.8616
1167.110, 234.4893
1167.593, 239.1039
1168.075, 250.8879
1168.557, 256.7016
1169.039, 243.9127
1169.521, 232.3566
1170.003, 231.5463
1170.485, 235.6970
1170.967, 246.0962
1171.449, 255.4953
1171.932, 254.0296
1172.414, 244.3417
1172.896, 238.0027
1173.378, 235.9302
1173.860, 235.7997
1174.342, 239.0883
1174.824, 240.7706
1175.306, 239.2987
1175.788, 238.5231
1176.271, 240.8955
1176.753, 242.9187
1177.235, 240.1340
1177.717, 234.4191
1178.199, 232.0857
1178.681, 232.6378
1179.163, 231.5134
1179.645, 229.3459
1180.128, 232.5726
1180.610, 241.2072
1181.092, 245.6381
1181.574, 240.8863
1182.056, 234.3566
1182.538, 232.6671
1183.020, 233.1938
1183.502, 232.5111
1183.984, 233.0578
1184.467, 239.8225
1184.949, 248.8589
1185.431, 253.3980
1185.913, 252.7703
1186.395, 249.6958
1186.877, 243.2354
1187.359, 238.9881
1187.841, 239.5590
1188.323, 240.4167
1188.806, 240.4140
1189.288, 240.2451
1189.770, 240.5354
1190.252, 240.6082
1190.734, 239.2007
1191.216, 236.6705
1191.698, 236.1336
1192.180, 237.7777
1192.663, 238.1989
1193.145, 237.2112
1193.627, 234.0799
1194.109, 228.8523
1194.591, 228.0457
1195.073, 236.1249
1195.555, 244.4995
1196.037, 240.5787
1196.520, 232.0600
1197.002, 230.6541
1197.484, 232.9720
1197.966, 234.7882
1198.448, 235.4652
1198.930, 234.4331
1199.412, 232.0439
1199.894, 230.8728
1200.376, 232.6798
1200.859, 233.2274
1201.341, 230.1122
1201.823, 226.8530
1202.305, 221.7028
1202.787, 220.4165
1203.269, 230.9269
1203.751, 244.0293
1204.233, 244.3424
1204.715, 233.8222
1205.198, 232.2254
1205.680, 241.6818
1206.162, 241.8885
1206.644, 231.3206
1207.126, 225.2603
1207.608, 227.6181
1208.090, 230.1965
1208.572, 227.9179
1209.055, 224.5699
1209.537, 224.6304
1210.019, 226.8293
1210.501, 230.0009
1210.983, 233.2737
1211.465, 235.2831
1211.947, 236.2654
1212.429, 236.7557
1212.911, 236.9885
1213.394, 237.1725
1213.876, 236.9253
1214.358, 238.4035
1214.840, 246.3691
1215.322, 250.4486
1215.804, 243.3225
1216.286, 235.9064
1216.768, 234.6148
1217.250, 236.1391
1217.733, 236.7716
1218.215, 236.3700
1218.697, 233.5164
1219.179, 227.8259
1219.661, 227.2020
1220.143, 231.6487
1220.625, 231.2497
1221.107, 224.5504
1221.590, 219.3988
1222.072, 219.6586
1222.554, 224.2715
1223.036, 235.1392
1223.518, 244.6219
1224.000, 241.6377
1224.482, 233.5213
1224.964, 227.0998
1225.447, 222.9086
1225.929, 220.9286
1226.411, 221.0085
1226.893, 222.8361
1227.375, 226.4293
1227.857, 231.1224
1228.339, 241.1275
1228.821, 244.9493
1229.303, 238.2840
1229.786, 230.8544
1230.268, 225.4956
1230.750, 222.5928
1231.232, 222.8186
1231.714, 225.0446
1232.196, 226.5932
1232.678, 227.8688
1233.160, 232.5652
1233.642, 239.3826
1234.125, 242.4833
1234.607, 241.5088
1235.089, 236.9181
1235.571, 229.8004
1236.053, 226.0810
1236.535, 229.6501
1237.017, 235.5788
1237.499, 244.7247
1237.982, 249.6725
1238.464, 241.0655
1238.946, 230.2480
1239.428, 226.4897
1239.910, 228.2046
1240.392, 232.8939
1240.874, 239.7820
1241.356, 243.3500
1241.839, 242.7703
1242.321, 241.5964
1242.803, 239.5179
1243.285, 238.8620
1243.767, 240.1430
1244.249, 242.9571
1244.731, 247.1847
1245.213, 250.1756
1245.695, 248.4289
1246.177, 245.2132
1246.660, 246.2554
1247.142, 248.9453
1247.624, 250.8962
1248.106, 250.5069
1248.588, 243.1710
1249.070, 231.7131
1249.552, 225.5771
1250.034, 227.1033
1250.517, 228.3983
1250.999, 225.7667
1251.481, 225.6222
1251.963, 230.9487
1252.445, 235.0543
1252.927, 234.6712
1253.409, 235.3527
1253.891, 242.2190
1254.374, 250.2307
1254.856, 250.4225
1255.338, 244.5712
1255.820, 239.6324
1256.302, 235.6192
1256.784, 232.4045
1257.266, 230.2468
1257.748, 231.7803
1258.230, 235.8983
1258.713, 234.1011
1259.195, 221.9962
1259.677, 212.8677
##END=



