##NAMES=Metarossite
##RRUFFID=R060598
##IDEAL CHEMISTRY=CaV^5+^_2_O_6_&#183;2H_2_O
##LOCALITY=Arrowhead Claim, Slick Rock, San Miguel County, Colorado, USA
##OWNER=RRUFF
##SOURCE=Michael Scott
##DESCRIPTION=Light yellow massive
##STATUS=The identification of this mineral has been confirmed by X-ray diffraction and chemical analysis
##URL=rruff.info/R060598
##MEASURED CHEMISTRY=(Ca_0.96_Al_0.02_[box]_0.02_)_Σ=1_V^5+^_2.00_O_6_·2H_2_O
91.53320, 1946.653
92.01532, 1897.461
92.49744, 1874.011
92.97955, 1915.800
93.46167, 1985.121
93.94379, 2034.621
94.42590, 2073.065
94.90802, 2106.781
95.39014, 2140.498
95.87225, 2177.562
96.35437, 2203.233
96.83649, 2218.616
97.31860, 2222.563
97.80072, 2211.543
98.28284, 2181.429
98.76495, 2132.488
99.24707, 2072.833
99.72919, 1994.886
100.2113, 1914.660
100.6934, 1831.939
101.1755, 1749.149
101.6577, 1671.125
102.1398, 1600.728
102.6219, 1537.662
103.1040, 1484.417
103.5861, 1439.544
104.0682, 1401.726
104.5504, 1370.722
105.0325, 1346.248
105.5146, 1327.102
105.9967, 1312.059
106.4788, 1301.774
106.9609, 1294.177
107.4431, 1288.610
107.9252, 1285.663
108.4073, 1285.979
108.8894, 1289.535
109.3715, 1297.089
109.8536, 1310.167
110.3358, 1329.200
110.8179, 1349.903
111.3000, 1368.659
111.7821, 1386.066
112.2642, 1408.198
112.7463, 1439.662
113.2285, 1476.073
113.7106, 1512.982
114.1927, 1549.343
114.6748, 1586.664
115.1569, 1626.348
115.6390, 1668.523
116.1212, 1714.025
116.6033, 1764.272
117.0854, 1817.172
117.5675, 1871.031
118.0496, 1925.316
118.5317, 1979.951
119.0139, 2033.982
119.4960, 2088.129
119.9781, 2140.562
120.4602, 2192.139
120.9423, 2241.954
121.4244, 2288.787
121.9066, 2332.196
122.3887, 2372.645
122.8708, 2402.432
123.3529, 2425.231
123.8350, 2437.602
124.3171, 2436.853
124.7993, 2423.303
125.2814, 2399.630
125.7635, 2366.858
126.2456, 2322.321
126.7277, 2280.733
127.2098, 2240.660
127.6920, 2204.382
128.1741, 2173.277
128.6562, 2147.394
129.1383, 2128.552
129.6204, 2119.872
130.1025, 2119.813
130.5847, 2128.021
131.0668, 2145.238
131.5489, 2170.784
132.0310, 2202.079
132.5131, 2238.523
132.9952, 2282.429
133.4774, 2335.392
133.9595, 2397.344
134.4416, 2463.341
134.9237, 2531.030
135.4058, 2601.752
135.8879, 2666.958
136.3701, 2730.796
136.8522, 2784.646
137.3343, 2825.134
137.8164, 2851.182
138.2985, 2858.803
138.7806, 2840.538
139.2628, 2787.973
139.7449, 2720.835
140.2270, 2635.764
140.7091, 2542.321
141.1912, 2446.717
141.6733, 2352.238
142.1555, 2260.074
142.6376, 2176.022
143.1197, 2100.214
143.6018, 2033.292
144.0839, 1976.608
144.5660, 1928.843
145.0482, 1887.796
145.5303, 1852.198
146.0124, 1822.412
146.4945, 1800.532
146.9766, 1788.274
147.4587, 1780.170
147.9409, 1774.014
148.4230, 1770.011
148.9051, 1769.492
149.3872, 1773.736
149.8693, 1782.877
150.3514, 1793.877
150.8336, 1806.176
151.3157, 1820.642
151.7978, 1838.218
152.2799, 1859.153
152.7620, 1882.386
153.2441, 1907.357
153.7263, 1934.110
154.2084, 1963.887
154.6905, 1996.958
155.1726, 2033.113
155.6547, 2073.050
156.1368, 2119.344
156.6190, 2164.412
157.1011, 2206.290
157.5832, 2244.362
158.0653, 2278.040
158.5474, 2310.467
159.0295, 2340.340
159.5117, 2350.181
159.9938, 2332.394
160.4759, 2298.730
160.9580, 2250.271
161.4401, 2189.362
161.9222, 2120.106
162.4044, 2044.418
162.8865, 1959.492
163.3686, 1882.349
163.8507, 1810.964
164.3328, 1747.682
164.8149, 1694.063
165.2971, 1649.819
165.7792, 1614.894
166.2613, 1589.022
166.7434, 1574.041
167.2255, 1565.296
167.7076, 1563.816
168.1898, 1566.741
168.6719, 1571.484
169.1540, 1577.729
169.6361, 1587.821
170.1182, 1605.324
170.6003, 1632.488
171.0825, 1662.828
171.5646, 1696.601
172.0467, 1733.180
172.5288, 1771.645
173.0109, 1811.635
173.4930, 1853.972
173.9752, 1900.573
174.4573, 1950.708
174.9394, 2005.164
175.4215, 2066.665
175.9036, 2132.909
176.3857, 2198.508
176.8679, 2263.079
177.3500, 2325.680
177.8321, 2385.618
178.3142, 2443.339
178.7963, 2498.078
179.2784, 2552.043
179.7606, 2604.548
180.2427, 2646.408
180.7248, 2674.607
181.2069, 2690.061
181.6890, 2693.127
182.1711, 2683.544
182.6533, 2667.783
183.1354, 2649.365
183.6175, 2627.230
184.0996, 2610.902
184.5817, 2601.357
185.0638, 2599.558
185.5460, 2606.300
186.0281, 2621.840
186.5102, 2647.294
186.9923, 2685.207
187.4744, 2738.534
187.9565, 2797.372
188.4387, 2858.032
188.9208, 2924.346
189.4029, 2999.064
189.8850, 3083.359
190.3671, 3175.260
190.8492, 3273.459
191.3314, 3382.618
191.8135, 3489.590
192.2956, 3591.683
192.7777, 3691.985
193.2598, 3796.259
193.7419, 3906.038
194.2241, 4014.206
194.7062, 4103.493
195.1883, 4169.230
195.6704, 4218.224
196.1525, 4250.634
196.6346, 4266.167
197.1168, 4262.177
197.5989, 4237.093
198.0810, 4196.081
198.5631, 4153.256
199.0452, 4109.119
199.5273, 4062.685
200.0095, 4009.730
200.4916, 3954.970
200.9737, 3905.271
201.4558, 3863.115
201.9379, 3828.645
202.4200, 3801.813
202.9022, 3780.749
203.3843, 3767.718
203.8664, 3762.046
204.3485, 3764.835
204.8306, 3779.029
205.3127, 3805.753
205.7949, 3846.010
206.2770, 3899.934
206.7591, 3972.735
207.2412, 4046.898
207.7233, 4116.178
208.2054, 4180.033
208.6876, 4234.437
209.1697, 4283.189
209.6518, 4314.850
210.1339, 4318.076
210.6160, 4289.994
211.0981, 4240.204
211.5803, 4173.729
212.0624, 4090.744
212.5445, 3995.936
213.0266, 3884.991
213.5087, 3766.591
213.9908, 3648.462
214.4730, 3532.418
214.9551, 3416.340
215.4372, 3298.127
215.9193, 3176.070
216.4014, 3059.764
216.8836, 2947.466
217.3657, 2844.469
217.8478, 2755.334
218.3299, 2681.672
218.8120, 2619.246
219.2941, 2562.968
219.7763, 2512.133
220.2584, 2470.448
220.7405, 2439.078
221.2226, 2415.764
221.7047, 2399.743
222.1868, 2390.735
222.6690, 2388.265
223.1511, 2391.914
223.6332, 2402.802
224.1153, 2418.012
224.5974, 2438.815
225.0795, 2461.944
225.5617, 2484.898
226.0438, 2507.038
226.5259, 2529.716
227.0080, 2555.344
227.4901, 2584.637
227.9722, 2615.864
228.4544, 2650.404
228.9365, 2685.623
229.4186, 2719.072
229.9007, 2750.082
230.3828, 2779.896
230.8649, 2810.459
231.3471, 2844.045
231.8292, 2874.719
232.3113, 2901.217
232.7934, 2925.756
233.2755, 2949.817
233.7576, 2973.813
234.2398, 2998.179
234.7219, 3023.119
235.2040, 3047.303
235.6861, 3075.136
236.1682, 3106.526
236.6503, 3141.450
237.1325, 3180.338
237.6146, 3223.041
238.0967, 3268.345
238.5788, 3314.538
239.0609, 3361.555
239.5430, 3409.357
240.0252, 3458.253
240.5073, 3507.548
240.9894, 3557.392
241.4715, 3608.031
241.9536, 3656.192
242.4357, 3698.219
242.9179, 3734.089
243.4000, 3762.109
243.8821, 3781.078
244.3642, 3792.421
244.8463, 3797.446
245.3284, 3796.409
245.8106, 3789.351
246.2927, 3774.569
246.7748, 3751.821
247.2569, 3728.965
247.7390, 3703.825
248.2211, 3680.500
248.7033, 3662.803
249.1854, 3650.987
249.6675, 3647.098
250.1496, 3654.503
250.6317, 3672.253
251.1138, 3697.349
251.5960, 3730.755
252.0781, 3770.591
252.5602, 3814.933
253.0423, 3863.335
253.5244, 3916.304
254.0065, 3976.375
254.4887, 4041.279
254.9708, 4105.496
255.4529, 4168.419
255.9350, 4229.457
256.4171, 4287.284
256.8992, 4341.771
257.3813, 4393.424
257.8635, 4440.781
258.3456, 4485.710
258.8277, 4531.710
259.3098, 4579.288
259.7919, 4628.295
260.2740, 4679.553
260.7562, 4734.169
261.2383, 4786.009
261.7204, 4832.244
262.2025, 4873.461
262.6846, 4909.789
263.1667, 4940.767
263.6489, 4967.399
264.1310, 4991.444
264.6131, 5013.161
265.0952, 5031.131
265.5773, 5039.415
266.0594, 5045.646
266.5416, 5056.300
267.0237, 5072.353
267.5058, 5095.530
267.9879, 5128.112
268.4700, 5170.098
268.9521, 5221.524
269.4343, 5288.456
269.9164, 5362.218
270.3985, 5437.684
270.8806, 5513.922
271.3627, 5589.321
271.8448, 5665.299
272.3270, 5745.458
272.8091, 5808.845
273.2912, 5846.575
273.7733, 5867.296
274.2554, 5873.595
274.7375, 5866.158
275.2197, 5847.311
275.7018, 5816.083
276.1839, 5769.993
276.6660, 5728.327
277.1481, 5692.072
277.6302, 5662.750
278.1124, 5645.938
278.5945, 5640.001
279.0766, 5634.446
279.5587, 5623.903
280.0408, 5610.531
280.5229, 5573.204
281.0051, 5507.514
281.4872, 5417.714
281.9693, 5306.069
282.4514, 5171.867
282.9335, 5010.942
283.4156, 4815.909
283.8978, 4586.118
284.3799, 4352.479
284.8620, 4107.788
285.3441, 3866.487
285.8262, 3629.060
286.3083, 3398.807
286.7905, 3180.742
287.2726, 2979.126
287.7547, 2793.452
288.2368, 2623.252
288.7189, 2471.288
289.2010, 2333.859
289.6832, 2211.176
290.1653, 2101.929
290.6474, 2004.205
291.1295, 1918.090
291.6116, 1842.156
292.0938, 1771.250
292.5759, 1704.869
293.0580, 1645.747
293.5401, 1595.671
294.0222, 1551.725
294.5043, 1511.271
294.9865, 1473.113
295.4686, 1437.460
295.9507, 1404.761
296.4328, 1374.939
296.9149, 1348.805
297.3970, 1327.469
297.8792, 1308.666
298.3613, 1290.680
298.8434, 1272.895
299.3255, 1255.767
299.8076, 1240.115
300.2897, 1226.319
300.7719, 1213.209
301.2540, 1201.084
301.7361, 1189.215
302.2182, 1176.798
302.7003, 1163.877
303.1824, 1151.201
303.6646, 1139.696
304.1467, 1129.768
304.6288, 1119.690
305.1109, 1109.048
305.5930, 1098.552
306.0751, 1088.582
306.5573, 1079.109
307.0394, 1069.926
307.5215, 1060.969
308.0036, 1052.244
308.4857, 1042.868
308.9678, 1031.830
309.4500, 1021.083
309.9321, 1011.647
310.4142, 1002.883
310.8963, 993.4547
311.3784, 982.3333
311.8605, 969.7372
312.3427, 957.6187
312.8248, 946.2000
313.3069, 934.9197
313.7890, 923.8927
314.2711, 912.8650
314.7532, 901.3585
315.2354, 889.1853
315.7175, 876.5792
316.1996, 864.3466
316.6817, 852.2648
317.1638, 840.9227
317.6459, 830.9367
318.1281, 821.3222
318.6102, 811.1678
319.0923, 800.2071
319.5744, 788.9991
320.0565, 778.3922
320.5386, 768.2933
321.0208, 759.1242
321.5029, 750.8035
321.9850, 743.3379
322.4671, 737.0031
322.9492, 731.6453
323.4313, 726.5930
323.9135, 721.0097
324.3956, 714.7345
324.8777, 708.7551
325.3598, 702.7411
325.8419, 697.3083
326.3240, 692.5001
326.8062, 688.4466
327.2883, 685.3944
327.7704, 683.6882
328.2525, 683.2385
328.7346, 682.3502
329.2167, 680.6211
329.6989, 678.8764
330.1810, 676.4383
330.6631, 674.3016
331.1452, 674.1292
331.6273, 676.9863
332.1094, 681.8029
332.5916, 685.0502
333.0737, 684.7917
333.5558, 686.3666
334.0379, 691.7882
334.5200, 698.5979
335.0021, 704.4697
335.4843, 708.6702
335.9664, 712.0741
336.4485, 715.8806
336.9306, 719.9034
337.4127, 724.9489
337.8948, 731.6723
338.3770, 738.9504
338.8591, 746.0046
339.3412, 752.8742
339.8233, 760.2098
340.3055, 768.8988
340.7876, 779.0543
341.2697, 789.0543
341.7518, 798.3677
342.2339, 808.0062
342.7160, 818.7025
343.1982, 830.0748
343.6803, 841.1250
344.1624, 850.7500
344.6445, 859.5803
345.1266, 871.1835
345.6087, 888.3134
346.0909, 903.6790
346.5730, 913.4699
347.0551, 920.9127
347.5372, 929.9683
348.0193, 942.4357
348.5014, 956.9236
348.9836, 971.5771
349.4657, 986.9568
349.9478, 1000.368
350.4299, 1009.605
350.9120, 1017.546
351.3941, 1026.056
351.8763, 1035.485
352.3584, 1045.261
352.8405, 1055.108
353.3226, 1065.102
353.8047, 1073.843
354.2868, 1081.504
354.7690, 1087.280
355.2511, 1090.312
355.7332, 1091.017
356.2153, 1091.049
356.6974, 1092.343
357.1795, 1093.976
357.6617, 1092.124
358.1438, 1085.943
358.6259, 1077.865
359.1080, 1068.840
359.5901, 1059.091
360.0722, 1048.821
360.5544, 1038.069
361.0365, 1026.892
361.5186, 1015.012
362.0007, 1002.367
362.4828, 990.0101
362.9649, 979.7628
363.4471, 969.0925
363.9292, 954.4633
364.4113, 934.6417
364.8934, 914.6857
365.3755, 898.2189
365.8576, 884.9130
366.3398, 873.3309
366.8219, 864.1376
367.3040, 855.0037
367.7861, 842.7912
368.2682, 827.8613
368.7503, 814.1236
369.2325, 803.5341
369.7146, 794.9440
370.1967, 786.5130
370.6788, 778.0534
371.1609, 769.7909
371.6430, 762.2491
372.1252, 755.0738
372.6073, 747.2424
373.0894, 736.7362
373.5715, 727.0584
374.0536, 721.9698
374.5357, 720.7452
375.0179, 718.7626
375.5000, 713.3881
375.9821, 706.3074
376.4642, 701.5779
376.9463, 700.0507
377.4284, 698.5729
377.9106, 695.4510
378.3927, 691.7499
378.8748, 689.3685
379.3569, 688.8576
379.8390, 689.3458
380.3211, 689.5176
380.8033, 689.0139
381.2854, 690.6959
381.7675, 696.5898
382.2496, 703.4267
382.7317, 708.6281
383.2138, 712.1290
383.6960, 715.2893
384.1781, 719.0499
384.6602, 723.3923
385.1423, 728.2786
385.6244, 736.0287
386.1065, 741.6702
386.5887, 742.4020
387.0708, 740.1116
387.5529, 738.1848
388.0350, 738.1374
388.5171, 738.6811
388.9992, 736.9754
389.4814, 731.5203
389.9635, 725.8978
390.4456, 719.9548
390.9277, 713.9498
391.4098, 707.7745
391.8919, 701.6097
392.3741, 696.0955
392.8562, 691.9513
393.3383, 689.2833
393.8204, 687.1297
394.3025, 684.3363
394.7846, 683.1937
395.2668, 685.1777
395.7489, 689.3248
396.2310, 693.8326
396.7131, 697.6496
397.1952, 701.1282
397.6773, 705.4456
398.1595, 710.3338
398.6416, 716.6910
399.1237, 723.6150
399.6058, 732.4208
400.0879, 744.7263
400.5700, 760.7083
401.0522, 778.3958
401.5343, 795.7288
402.0164, 812.5308
402.4985, 829.5273
402.9806, 845.4286
403.4627, 862.8973
403.9449, 883.6017
404.4270, 906.8339
404.9091, 930.6972
405.3912, 954.0369
405.8733, 977.1909
406.3554, 1001.022
406.8376, 1025.954
407.3197, 1050.964
407.8018, 1075.340
408.2839, 1099.695
408.7660, 1124.415
409.2481, 1149.809
409.7303, 1175.619
410.2124, 1201.798
410.6945, 1228.311
411.1766, 1255.142
411.6587, 1281.705
412.1408, 1309.645
412.6230, 1340.175
413.1051, 1373.133
413.5872, 1407.770
414.0693, 1444.310
414.5514, 1482.179
415.0335, 1520.082
415.5157, 1557.882
415.9978, 1596.442
416.4799, 1636.340
416.9620, 1677.513
417.4441, 1719.399
417.9262, 1762.681
418.4084, 1805.813
418.8905, 1848.273
419.3726, 1889.814
419.8547, 1930.577
420.3368, 1971.492
420.8189, 2008.806
421.3011, 2036.424
421.7832, 2054.667
422.2653, 2062.724
422.7474, 2060.461
423.2295, 2047.952
423.7116, 2024.885
424.1938, 1991.445
424.6759, 1948.238
425.1580, 1894.838
425.6401, 1831.676
426.1222, 1764.627
426.6043, 1690.531
427.0865, 1616.884
427.5686, 1543.832
428.0507, 1472.601
428.5328, 1404.287
429.0149, 1339.215
429.4970, 1277.791
429.9792, 1220.212
430.4613, 1165.797
430.9434, 1116.621
431.4255, 1071.852
431.9076, 1031.829
432.3897, 997.4177
432.8719, 967.9078
433.3540, 941.2478
433.8361, 915.8987
434.3182, 892.1400
434.8003, 871.7247
435.2824, 855.7996
435.7646, 841.9111
436.2467, 830.0377
436.7288, 819.3516
437.2109, 809.0383
437.6930, 798.8311
438.1751, 789.1931
438.6573, 780.5985
439.1394, 773.0578
439.6215, 766.4694
440.1036, 760.4599
440.5857, 755.9260
441.0678, 753.6420
441.5500, 753.2430
442.0321, 753.3455
442.5142, 753.3005
442.9963, 753.2914
443.4784, 753.9450
443.9605, 755.4432
444.4427, 756.0654
444.9248, 753.7366
445.4069, 750.6414
445.8890, 750.7110
446.3711, 755.1154
446.8532, 759.8586
447.3354, 762.9705
447.8175, 764.8021
448.2996, 765.8953
448.7817, 766.2588
449.2638, 766.6024
449.7459, 767.7740
450.2281, 769.8383
450.7102, 771.5538
451.1923, 773.3621
451.6744, 774.3759
452.1565, 773.4039
452.6386, 771.0774
453.1208, 769.3120
453.6029, 769.1388
454.0850, 770.0245
454.5671, 770.4946
455.0492, 770.1146
455.5313, 769.8932
456.0135, 770.2234
456.4956, 770.4645
456.9777, 770.1379
457.4598, 769.1680
457.9419, 767.6744
458.4240, 765.6547
458.9062, 763.1000
459.3883, 761.1113
459.8704, 759.0353
460.3525, 758.3923
460.8346, 760.1779
461.3167, 763.3311
461.7989, 766.4720
462.2810, 769.0805
462.7631, 771.7823
463.2452, 775.6664
463.7273, 780.9348
464.2094, 786.1360
464.6916, 790.3722
465.1737, 795.2252
465.6558, 802.0741
466.1379, 810.4034
466.6200, 818.3766
467.1021, 824.4135
467.5843, 829.7069
468.0664, 836.9739
468.5485, 846.5970
469.0306, 855.6320
469.5127, 862.6600
469.9948, 868.3464
470.4770, 873.7455
470.9591, 878.9453
471.4412, 883.6785
471.9233, 888.1080
472.4054, 891.9250
472.8875, 895.0289
473.3697, 897.5185
473.8518, 897.4739
474.3339, 892.6674
474.8160, 883.0145
475.2981, 873.6559
475.7802, 867.4908
476.2624, 858.6309
476.7445, 842.8383
477.2266, 822.6570
477.7087, 803.1215
478.1908, 786.0895
478.6729, 770.0246
479.1551, 752.1570
479.6372, 731.2089
480.1193, 711.2616
480.6014, 692.6316
481.0835, 674.4814
481.5656, 656.0795
482.0478, 637.7850
482.5299, 620.5968
483.0120, 605.2463
483.4941, 591.4064
483.9762, 578.2864
484.4583, 565.5605
484.9405, 554.3229
485.4226, 545.3414
485.9047, 537.3785
486.3868, 529.7755
486.8689, 522.3575
487.3510, 515.0439
487.8332, 507.6798
488.3153, 500.3695
488.7974, 493.2342
489.2795, 485.9626
489.7616, 479.6848
490.2437, 475.6217
490.7259, 472.8854
491.2080, 470.1790
491.6901, 467.2282
492.1722, 464.4207
492.6543, 461.9232
493.1364, 459.7948
493.6186, 458.2989
494.1007, 457.5648
494.5828, 457.1646
495.0649, 456.7612
495.5470, 456.3834
496.0291, 455.3091
496.5113, 452.4228
496.9934, 449.8455
497.4755, 449.1387
497.9576, 449.7352
498.4397, 450.0641
498.9218, 449.3433
499.4040, 448.2187
499.8861, 448.2196
500.3682, 450.6302
500.8503, 451.7773
501.3324, 449.9956
501.8145, 448.5190
502.2967, 450.0148
502.7788, 453.7343
503.2609, 456.6949
503.7430, 456.5564
504.2251, 454.3949
504.7072, 454.4787
505.1894, 457.6216
505.6715, 461.1800
506.1536, 465.3251
506.6357, 469.0633
507.1178, 471.2346
507.5999, 471.7960
508.0821, 472.3816
508.5642, 473.9453
509.0463, 476.4636
509.5284, 480.1179
510.0105, 485.1530
510.4926, 490.2885
510.9748, 494.9035
511.4569, 498.9739
511.9390, 502.3768
512.4211, 504.2213
512.9032, 506.9800
513.3853, 512.5319
513.8674, 519.6179
514.3495, 525.8465
514.8317, 530.7383
515.3138, 535.6630
515.7959, 542.0778
516.2780, 550.1257
516.7601, 557.9156
517.2422, 565.3490
517.7244, 572.7148
518.2065, 579.6598
518.6886, 586.7517
519.1707, 594.9269
519.6528, 604.4622
520.1349, 614.6320
520.6171, 624.0306
521.0992, 632.0303
521.5813, 641.8558
522.0634, 656.1249
522.5455, 669.6656
523.0276, 679.9233
523.5098, 688.2176
523.9919, 697.0176
524.4740, 707.4503
524.9561, 718.8611
525.4382, 730.5752
525.9203, 742.5270
526.4025, 754.6313
526.8846, 766.4888
527.3667, 778.8998
527.8488, 793.5300
528.3309, 809.8483
528.8130, 824.6411
529.2952, 835.2401
529.7773, 845.2095
530.2594, 858.6926
530.7415, 874.8045
531.2236, 889.5988
531.7057, 901.4984
532.1879, 910.6669
532.6700, 917.2050
533.1521, 919.8376
533.6342, 922.6481
534.1163, 927.2408
534.5984, 930.7092
535.0806, 931.3750
535.5627, 929.2431
536.0448, 924.7923
536.5269, 918.2594
537.0090, 909.9418
537.4911, 901.1473
537.9733, 893.2991
538.4554, 881.4952
538.9375, 861.7615
539.4196, 840.9211
539.9017, 823.0208
540.3839, 807.9075
540.8660, 793.2197
541.3481, 777.4974
541.8302, 761.1290
542.3123, 744.7712
542.7944, 728.3729
543.2766, 712.6715
543.7587, 697.9509
544.2408, 684.2169
544.7229, 671.6494
545.2050, 660.4047
545.6871, 648.8755
546.1693, 635.1464
546.6514, 621.7682
547.1335, 611.8721
547.6156, 605.3009
548.0977, 599.4267
548.5798, 592.7315
549.0620, 585.4603
549.5441, 578.5042
550.0262, 571.8301
550.5083, 565.5533
550.9904, 559.7403
551.4725, 554.2602
551.9547, 548.9661
552.4368, 543.8978
552.9189, 539.2393
553.4010, 535.2335
553.8831, 531.6710
554.3652, 527.7055
554.8474, 523.0633
555.3295, 518.7664
555.8116, 515.8766
556.2937, 512.8690
556.7758, 508.4095
557.2579, 502.5420
557.7401, 496.6985
558.2222, 491.7752
558.7043, 487.4106
559.1864, 482.8077
559.6685, 477.9701
560.1506, 473.5805
560.6328, 470.2235
561.1149, 467.3166
561.5970, 463.3432
562.0791, 457.8017
562.5612, 453.0459
563.0433, 450.3505
563.5255, 447.9886
564.0076, 444.4684
564.4897, 439.8458
564.9718, 434.8409
565.4539, 429.8451
565.9360, 425.0237
566.4182, 421.0417
566.9003, 418.4789
567.3824, 415.6256
567.8645, 412.0867
568.3466, 408.4874
568.8287, 405.3440
569.3109, 402.5226
569.7930, 399.5155
570.2751, 395.8840
570.7572, 391.9630
571.2393, 388.5384
571.7214, 385.6711
572.2036, 382.6414
572.6857, 378.9240
573.1678, 375.3286
573.6499, 372.8166
574.1320, 371.3600
574.6141, 370.1819
575.0963, 369.7210
575.5784, 368.9434
576.0605, 366.4941
576.5426, 362.8809
577.0247, 360.0230
577.5068, 358.8962
577.9890, 358.3344
578.4711, 355.9955
578.9532, 350.4038
579.4353, 346.8496
579.9174, 346.8768
580.3995, 347.1278
580.8817, 345.5931
581.3638, 343.1508
581.8459, 342.0673
582.3280, 343.5930
582.8101, 345.4083
583.2922, 342.9054
583.7744, 335.6320
584.2565, 330.8658
584.7386, 330.4422
585.2207, 331.4252
585.7029, 332.2135
586.1850, 332.7279
586.6671, 332.7328
587.1492, 332.2226
587.6313, 331.1159
588.1135, 328.8818
588.5956, 326.0502
589.0777, 323.8764
589.5598, 322.6835
590.0419, 322.0162
590.5240, 321.4233
591.0062, 320.8995
591.4883, 320.6422
591.9704, 321.2757
592.4525, 321.3932
592.9346, 320.4352
593.4167, 318.8891
593.8989, 317.0851
594.3810, 315.2194
594.8631, 313.7249
595.3452, 313.2250
595.8273, 313.6094
596.3094, 313.5471
596.7916, 312.8902
597.2737, 312.1263
597.7558, 311.1790
598.2379, 310.3742
598.7200, 310.3010
599.2021, 311.1478
599.6843, 311.4796
600.1664, 309.7669
600.6485, 307.4924
601.1306, 307.0482
601.6127, 308.4128
602.0948, 309.6427
602.5770, 309.5887
603.0591, 308.6968
603.5412, 308.2076
604.0233, 308.6734
604.5054, 308.6215
604.9875, 307.3666
605.4697, 306.2010
605.9518, 306.1846
606.4339, 306.9599
606.9160, 307.3944
607.3981, 306.7934
607.8802, 305.8124
608.3624, 305.8755
608.8445, 307.1568
609.3266, 308.1072
609.8087, 308.3538
610.2908, 308.3848
610.7729, 308.8058
611.2551, 309.3408
611.7372, 309.0828
612.2193, 306.9868
612.7014, 305.0505
613.1835, 305.0659
613.6656, 306.2439
614.1478, 306.8087
614.6299, 306.3222
615.1120, 305.5567
615.5941, 305.2248
616.0762, 305.3260
616.5583, 305.9102
617.0405, 308.1215
617.5226, 309.3763
618.0047, 308.3687
618.4868, 306.7546
618.9689, 306.2296
619.4510, 306.9769
619.9332, 307.9218
620.4153, 308.1963
620.8974, 307.9430
621.3795, 307.6356
621.8616, 307.2667
622.3438, 306.8887
622.8259, 306.4552
623.3080, 306.0889
623.7901, 305.7926
624.2722, 305.5248
624.7543, 305.9956
625.2365, 308.0468
625.7186, 310.3672
626.2007, 312.1054
626.6828, 313.1950
627.1649, 313.4629
627.6470, 312.8197
628.1292, 311.8376
628.6113, 311.3384
629.0934, 311.1748
629.5755, 312.1105
630.0576, 316.5739
630.5397, 319.5096
631.0219, 318.0366
631.5040, 314.6694
631.9861, 312.8909
632.4682, 313.7251
632.9503, 315.5717
633.4324, 317.4989
633.9146, 319.2657
634.3967, 319.9010
634.8788, 319.2267
635.3609, 318.3581
635.8430, 317.8185
636.3251, 317.6141
636.8073, 317.7828
637.2894, 318.2994
637.7715, 319.1630
638.2536, 320.5040
638.7357, 322.0858
639.2178, 324.1147
639.7000, 326.2315
640.1821, 327.4755
640.6642, 327.2794
641.1463, 326.3664
641.6284, 326.2878
642.1105, 327.2780
642.5927, 327.7862
643.0748, 327.0005
643.5569, 326.5959
644.0390, 327.8498
644.5211, 330.0557
645.0032, 331.7885
645.4854, 332.6561
645.9675, 333.1542
646.4496, 333.2160
646.9317, 333.2629
647.4138, 334.3842
647.8959, 336.6413
648.3781, 338.5231
648.8602, 338.8022
649.3423, 337.8815
649.8244, 337.6202
650.3065, 337.7895
650.7886, 339.0491
651.2708, 342.4223
651.7529, 345.9784
652.2350, 348.5799
652.7171, 350.2337
653.1992, 351.4005
653.6813, 352.3578
654.1635, 352.8700
654.6456, 352.0958
655.1277, 350.2166
655.6098, 349.5117
656.0919, 350.4131
656.5740, 352.5904
657.0562, 356.2995
657.5383, 361.2333
658.0204, 365.0838
658.5025, 367.4925
658.9846, 369.2413
659.4667, 370.0419
659.9489, 370.5797
660.4310, 371.3690
660.9131, 372.6010
661.3952, 374.6432
661.8773, 377.9917
662.3594, 381.9551
662.8416, 383.9327
663.3237, 383.0186
663.8058, 383.5050
664.2879, 386.8236
664.7700, 391.1225
665.2521, 395.3911
665.7343, 399.5271
666.2164, 403.1868
666.6985, 405.7524
667.1806, 408.5386
667.6627, 412.8067
668.1448, 417.8729
668.6270, 422.2585
669.1091, 425.7088
669.5912, 429.4401
670.0733, 434.6091
670.5554, 440.9193
671.0375, 446.3223
671.5197, 449.7814
672.0018, 454.0009
672.4839, 459.5325
672.9660, 465.5689
673.4481, 471.2730
673.9302, 476.9054
674.4124, 483.6547
674.8945, 492.4793
675.3766, 501.9937
675.8587, 510.3882
676.3408, 517.9183
676.8229, 525.5406
677.3051, 533.3708
677.7872, 542.1678
678.2693, 552.7237
678.7514, 564.9236
679.2335, 577.4476
679.7156, 590.2924
680.1978, 603.5413
680.6799, 617.0931
681.1620, 631.2201
681.6441, 645.9316
682.1262, 661.4297
682.6083, 677.7521
683.0905, 694.9164
683.5726, 713.2129
684.0547, 733.8587
684.5368, 756.7712
685.0189, 779.2192
685.5010, 800.4592
685.9832, 821.3850
686.4653, 841.9062
686.9474, 862.6077
687.4295, 885.6957
687.9116, 913.0225
688.3937, 940.2687
688.8759, 965.2629
689.3580, 990.2129
689.8401, 1016.858
690.3222, 1045.578
690.8043, 1076.436
691.2864, 1109.886
691.7686, 1144.510
692.2507, 1176.583
692.7328, 1205.580
693.2149, 1235.419
693.6970, 1266.325
694.1791, 1298.359
694.6613, 1332.275
695.1434, 1367.178
695.6255, 1401.547
696.1076, 1435.125
696.5897, 1467.912
697.0718, 1500.609
697.5540, 1532.277
698.0361, 1561.673
698.5182, 1588.744
699.0003, 1614.177
699.4824, 1638.434
699.9645, 1660.928
700.4467, 1680.346
700.9288, 1697.195
701.4109, 1708.766
701.8930, 1713.794
702.3751, 1714.618
702.8572, 1712.463
703.3394, 1707.223
703.8215, 1698.722
704.3036, 1687.053
704.7857, 1671.818
705.2678, 1652.317
705.7499, 1629.472
706.2321, 1605.060
706.7142, 1578.832
707.1963, 1548.430
707.6784, 1512.049
708.1605, 1472.510
708.6426, 1435.106
709.1248, 1400.293
709.6069, 1366.032
710.0890, 1331.785
710.5711, 1298.570
711.0532, 1267.211
711.5353, 1236.830
712.0175, 1206.008
712.4996, 1174.215
712.9817, 1143.886
713.4638, 1116.094
713.9459, 1090.645
714.4280, 1067.881
714.9102, 1047.487
715.3923, 1027.777
715.8744, 1008.080
716.3565, 989.6959
716.8386, 974.6888
717.3207, 963.6987
717.8029, 951.9681
718.2850, 938.3293
718.7671, 925.5125
719.2492, 913.7382
719.7313, 903.3344
720.2134, 895.0162
720.6956, 888.6620
721.1777, 882.4230
721.6598, 875.0689
722.1419, 867.3293
722.6240, 859.4559
723.1061, 851.9336
723.5883, 847.0220
724.0704, 845.4825
724.5525, 845.1518
725.0346, 843.7175
725.5167, 841.2283
725.9988, 839.5314
726.4810, 839.0349
726.9631, 838.7689
727.4452, 838.5275
727.9273, 838.5260
728.4094, 838.5392
728.8915, 838.8849
729.3737, 840.6284
729.8558, 844.6754
730.3379, 849.6266
730.8200, 854.2841
731.3021, 858.6426
731.7842, 862.4358
732.2664, 865.6364
732.7485, 869.3297
733.2306, 874.3768
733.7127, 880.4794
734.1948, 886.4611
734.6769, 892.2175
735.1591, 898.0467
735.6412, 904.2973
736.1233, 910.2960
736.6054, 915.4144
737.0875, 920.0849
737.5696, 924.9498
738.0518, 930.1104
738.5339, 936.1389
739.0160, 944.3458
739.4981, 953.4323
739.9802, 960.8460
740.4623, 966.5911
740.9445, 972.2911
741.4266, 978.7310
741.9087, 985.5631
742.3908, 992.1259
742.8729, 998.2866
743.3550, 1004.870
743.8372, 1013.482
744.3193, 1020.530
744.8014, 1023.573
745.2835, 1025.430
745.7656, 1029.495
746.2477, 1036.116
746.7299, 1042.331
747.2120, 1046.767
747.6941, 1049.813
748.1762, 1051.401
748.6583, 1051.939
749.1404, 1052.635
749.6226, 1053.835
750.1047, 1055.193
750.5868, 1056.682
751.0689, 1058.016
751.5510, 1055.813
752.0331, 1047.759
752.5153, 1040.630
752.9974, 1037.759
753.4795, 1034.111
753.9616, 1026.087
754.4437, 1014.558
754.9258, 1002.767
755.4080, 992.0588
755.8901, 980.4395
756.3722, 966.3024
756.8543, 950.5579
757.3364, 934.6417
757.8185, 918.6828
758.3007, 901.6253
758.7828, 882.8203
759.2649, 862.9750
759.7470, 843.5798
760.2291, 824.5793
760.7112, 805.6061
761.1934, 786.5335
761.6755, 767.5463
762.1576, 748.8563
762.6397, 730.1946
763.1218, 711.3408
763.6039, 692.1806
764.0861, 673.0357
764.5682, 652.8912
765.0503, 633.8229
765.5324, 618.4200
766.0145, 605.1992
766.4966, 590.8489
766.9788, 574.5463
767.4609, 558.2274
767.9430, 543.8142
768.4251, 531.0760
768.9072, 518.8218
769.3893, 507.0345
769.8715, 496.1081
770.3536, 486.4073
770.8357, 477.2088
771.3178, 467.8873
771.7999, 458.5283
772.2820, 449.5221
772.7642, 440.5843
773.2463, 432.3985
773.7284, 425.5139
774.2105, 419.1669
774.6926, 412.6624
775.1747, 406.0962
775.6569, 400.0718
776.1390, 394.8969
776.6211, 390.1742
777.1032, 385.2959
777.5853, 380.3488
778.0674, 375.7256
778.5496, 371.4426
779.0317, 367.6984
779.5138, 364.7715
779.9959, 362.1391
780.4780, 358.8814
780.9601, 354.8561
781.4423, 350.7223
781.9244, 345.7656
782.4065, 341.5757
782.8886, 339.0811
783.3707, 337.3543
783.8528, 335.2249
784.3350, 332.6722
784.8171, 330.7623
785.2992, 330.5372
785.7813, 330.8348
786.2634, 330.4268
786.7455, 329.2689
787.2277, 326.8704
787.7098, 323.1730
788.1919, 319.7043
788.6740, 317.7249
789.1561, 316.8602
789.6382, 315.7617
790.1204, 314.3066
790.6025, 312.9284
791.0846, 311.7351
791.5667, 310.5308
792.0488, 309.0661
792.5309, 307.5950
793.0131, 306.6641
793.4952, 306.4971
793.9773, 305.8349
794.4594, 303.4494
794.9415, 300.8511
795.4236, 299.4521
795.9058, 298.9992
796.3879, 298.9298
796.8700, 298.9921
797.3521, 298.6571
797.8342, 297.1385
798.3163, 294.8446
798.7985, 294.1158
799.2806, 295.2945
799.7627, 296.0251
800.2448, 295.6973
800.7269, 294.9088
801.2090, 294.1338
801.6912, 293.3262
802.1733, 292.2433
802.6554, 290.2696
803.1375, 288.9948
803.6196, 289.0171
804.1017, 289.5623
804.5839, 290.4879
805.0660, 291.4064
805.5481, 291.6683
806.0302, 291.0349
806.5123, 289.9012
806.9944, 288.2886
807.4766, 286.5802
807.9587, 285.7885
808.4408, 285.8864
808.9229, 286.1906
809.4050, 286.4940
809.8871, 286.6638
810.3693, 286.4992
810.8514, 286.0063
811.3335, 285.7306
811.8156, 285.8029
812.2977, 285.8756
812.7798, 285.5305
813.2620, 285.4956
813.7441, 286.6389
814.2262, 288.4750
814.7083, 289.5717
815.1904, 289.2734
815.6725, 288.8768
816.1547, 289.2286
816.6368, 289.7807
817.1189, 289.7947
817.6010, 289.4201
818.0831, 289.3060
818.5652, 289.7259
819.0474, 290.3731
819.5295, 290.9875
820.0116, 291.5101
820.4937, 291.1862
820.9758, 289.7690
821.4579, 289.0372
821.9401, 289.7748
822.4222, 291.0367
822.9043, 292.0801
823.3864, 292.8587
823.8685, 292.6030
824.3506, 289.4551
824.8328, 287.9236
825.3149, 290.0203
825.7970, 292.7705
826.2791, 294.1909
826.7612, 294.4764
827.2433, 294.5173
827.7255, 294.6035
828.2076, 294.7548
828.6897, 294.6556
829.1718, 294.8013
829.6539, 296.4579
830.1360, 299.2526
830.6182, 301.2620
831.1003, 301.7484
831.5824, 301.6517
832.0645, 302.0537
832.5466, 302.9225
833.0287, 303.8332
833.5109, 304.7046
833.9930, 305.8917
834.4751, 307.9117
834.9572, 309.7216
835.4393, 309.9251
835.9214, 309.2220
836.4036, 309.7826
836.8857, 312.6191
837.3678, 314.9844
837.8499, 315.2895
838.3320, 315.7474
838.8141, 318.5741
839.2963, 322.5534
839.7784, 325.0482
840.2605, 325.3315
840.7426, 325.6098
841.2247, 327.9446
841.7068, 331.5935
842.1890, 335.2080
842.6711, 338.8300
843.1532, 342.5737
843.6353, 346.4801
844.1174, 350.5706
844.5995, 354.9081
845.0817, 359.3655
845.5638, 363.0899
846.0459, 365.4462
846.5280, 368.8056
847.0101, 373.2648
847.4922, 378.8283
847.9744, 385.6943
848.4565, 393.5538
848.9386, 401.9760
849.4207, 410.8892
849.9028, 420.5473
850.3849, 430.7971
850.8671, 442.0104
851.3492, 454.0323
851.8313, 467.3272
852.3134, 482.4896
852.7955, 499.5939
853.2776, 518.4855
853.7598, 538.5615
854.2419, 561.4943
854.7240, 590.5547
855.2061, 624.9857
855.6882, 661.2523
856.1703, 698.8293
856.6525, 738.0085
857.1346, 778.7963
857.6167, 820.8411
858.0988, 862.9919
858.5809, 905.4811
859.0630, 946.2801
859.5452, 983.5478
860.0273, 1022.320
860.5094, 1063.620
860.9915, 1107.321
861.4736, 1152.901
861.9557, 1200.514
862.4379, 1251.712
862.9200, 1305.598
863.4021, 1364.657
863.8842, 1428.093
864.3663, 1498.003
864.8484, 1578.125
865.3306, 1666.086
865.8127, 1755.973
866.2948, 1845.004
866.7769, 1942.458
867.2590, 2059.209
867.7411, 2189.118
868.2233, 2321.997
868.7054, 2455.990
869.1875, 2585.538
869.6696, 2709.498
870.1517, 2818.994
870.6339, 2908.038
871.1160, 2972.117
871.5981, 2989.716
872.0802, 2955.901
872.5623, 2891.969
873.0444, 2792.644
873.5266, 2675.636
874.0087, 2541.380
874.4908, 2399.349
874.9729, 2266.511
875.4550, 2141.057
875.9371, 2033.733
876.4193, 1949.582
876.9014, 1880.079
877.3835, 1823.400
877.8656, 1779.393
878.3477, 1748.505
878.8298, 1730.309
879.3120, 1723.207
879.7941, 1727.650
880.2762, 1739.849
880.7583, 1756.167
881.2404, 1777.712
881.7225, 1807.441
882.2047, 1844.665
882.6868, 1886.021
883.1689, 1930.123
883.6510, 1974.072
884.1331, 2015.672
884.6152, 2054.177
885.0974, 2083.442
885.5795, 2103.757
886.0616, 2112.806
886.5437, 2111.899
887.0258, 2094.986
887.5079, 2056.612
887.9901, 1998.292
888.4722, 1925.640
888.9543, 1831.987
889.4364, 1735.917
889.9185, 1635.624
890.4006, 1535.682
890.8828, 1434.656
891.3649, 1336.557
891.8470, 1244.804
892.3291, 1160.117
892.8112, 1082.162
893.2933, 1011.271
893.7755, 946.5316
894.2576, 887.4287
894.7397, 834.1121
895.2218, 787.1915
895.7039, 746.2020
896.1860, 710.3308
896.6682, 678.8819
897.1503, 651.1434
897.6324, 626.3312
898.1145, 604.2781
898.5966, 584.3627
899.0787, 566.5676
899.5609, 550.3778
900.0430, 535.6588
900.5251, 521.9084
901.0072, 508.5782
901.4893, 495.8159
901.9714, 484.7884
902.4536, 476.1074
902.9357, 466.7104
903.4178, 454.9272
903.8999, 444.9930
904.3820, 440.3777
904.8641, 438.3454
905.3463, 433.9395
905.8284, 426.7579
906.3105, 420.8883
906.7926, 417.7540
907.2747, 414.5372
907.7568, 409.8509
908.2390, 405.1465
908.7211, 401.8749
909.2032, 399.7176
909.6853, 397.0793
910.1674, 393.0127
910.6495, 390.0320
911.1317, 390.7313
911.6138, 392.6635
912.0959, 392.4056
912.5780, 391.1892
913.0601, 392.6636
913.5422, 397.5450
914.0244, 402.6905
914.5065, 405.1572
914.9886, 406.5341
915.4707, 409.9603
915.9528, 415.3466
916.4349, 422.2415
916.9171, 430.5450
917.3992, 440.2935
917.8813, 451.4266
918.3634, 464.3915
918.8455, 480.2217
919.3276, 499.0901
919.8098, 518.4491
920.2919, 538.9831
920.7740, 558.4407
921.2561, 576.3712
921.7382, 593.0688
922.2203, 608.2263
922.7025, 622.3837
923.1846, 637.7154
923.6667, 654.3535
924.1488, 672.0063
924.6309, 690.1477
925.1130, 709.8830
925.5952, 730.9135
926.0773, 754.3981
926.5594, 781.5255
927.0415, 812.3308
927.5236, 846.3406
928.0057, 882.6785
928.4879, 923.1403
928.9700, 968.4285
929.4521, 1018.791
929.9342, 1073.987
930.4163, 1134.758
930.8984, 1205.407
931.3806, 1287.158
931.8627, 1370.258
932.3448, 1450.386
932.8269, 1522.124
933.3090, 1577.800
933.7911, 1615.592
934.2733, 1625.362
934.7554, 1605.596
935.2375, 1563.077
935.7196, 1500.454
936.2017, 1427.589
936.6838, 1362.094
937.1660, 1302.947
937.6481, 1269.462
938.1302, 1263.358
938.6123, 1275.973
939.0944, 1305.620
939.5765, 1351.259
940.0587, 1414.284
940.5408, 1492.914
941.0229, 1570.886
941.5050, 1649.420
941.9871, 1724.971
942.4692, 1795.627
942.9514, 1864.990
943.4335, 1930.927
943.9156, 1997.979
944.3977, 2069.498
944.8798, 2145.827
945.3619, 2235.831
945.8441, 2342.319
946.3262, 2461.120
946.8083, 2592.265
947.2904, 2733.525
947.7725, 2881.573
948.2546, 3040.058
948.7368, 3214.393
949.2189, 3406.820
949.7010, 3621.608
950.1831, 3864.143
950.6652, 4131.120
951.1473, 4432.777
951.6295, 4751.937
952.1116, 5079.989
952.5937, 5397.508
953.0758, 5648.723
953.5579, 5807.427
954.0400, 5848.878
954.5222, 5733.907
955.0043, 5477.013
955.4864, 5090.156
955.9685, 4590.563
956.4506, 4059.805
956.9327, 3522.801
957.4149, 3020.323
957.8970, 2583.844
958.3791, 2212.437
958.8612, 1897.760
959.3433, 1642.054
959.8254, 1429.128
960.3076, 1261.477
960.7897, 1122.031
961.2718, 1006.974
961.7539, 911.3719
962.2360, 831.0588
962.7181, 765.4859
963.2003, 708.2404
963.6824, 660.6816
964.1645, 618.7361
964.6466, 583.2545
965.1287, 551.8156
965.6108, 524.0829
966.0930, 499.3371
966.5751, 476.5612
967.0572, 455.7243
967.5393, 437.3237
968.0214, 422.3802
968.5035, 408.6755
968.9857, 395.6724
969.4678, 383.5787
969.9499, 372.2544
970.4320, 361.9536
970.9141, 353.3472
971.3962, 346.8740
971.8784, 339.9684
972.3605, 330.6770
972.8426, 321.4929
973.3247, 314.0035
973.8068, 307.7467
974.2889, 302.2139
974.7711, 297.2027
975.2532, 292.3860
975.7353, 287.6039
976.2174, 283.0498
976.6995, 279.0555
977.1816, 275.2867
977.6638, 271.1888
978.1459, 266.9297
978.6280, 262.8766
979.1101, 259.1653
979.5922, 256.1765
980.0743, 254.2895
980.5565, 252.7916
981.0386, 250.3085
981.5207, 247.2645
982.0028, 245.3874
982.4849, 244.6291
982.9670, 243.6500
983.4492, 242.0022
983.9313, 239.9216
984.4134, 237.5143
984.8955, 235.0492
985.3776, 233.5188
985.8597, 232.9616
986.3419, 232.0401
986.8240, 230.6137
987.3061, 228.9274
987.7882, 226.9044
988.2703, 225.2368
988.7524, 224.9376
989.2346, 225.7932
989.7167, 225.5196
990.1988, 223.7354
990.6809, 221.9084
991.1630, 219.8215
991.6451, 218.4287
992.1273, 218.8169
992.6094, 219.6275
993.0915, 218.6585
993.5736, 215.7853
994.0557, 213.5755
994.5378, 212.0614
995.0200, 211.2010
995.5021, 212.0279
995.9842, 212.4078
996.4663, 210.2288
996.9484, 207.2605
997.4305, 206.8651
997.9127, 209.5770
998.3948, 210.8681
998.8769, 208.8114
999.3590, 206.8294
999.8411, 205.8672
1000.323, 205.4608
1000.805, 205.3365
1001.287, 205.4443
1001.770, 206.0255
1002.252, 207.2099
1002.734, 207.3802
1003.216, 205.1980
1003.698, 202.5885
1004.180, 200.0347
1004.662, 198.1294
1005.144, 197.9841
1005.627, 198.9834
1006.109, 199.3006
1006.591, 198.2636
1007.073, 197.3334
1007.555, 197.9153
1008.037, 198.6999
1008.519, 198.0822
1009.001, 196.9792
1009.483, 197.3440
1009.966, 198.7993
1010.448, 198.8470
1010.930, 196.2359
1011.412, 193.6303
1011.894, 194.1762
1012.376, 196.1079
1012.858, 196.8222
1013.340, 196.6126
1013.823, 196.4131
1014.305, 196.3332
1014.787, 195.7147
1015.269, 194.1289
1015.751, 192.6670
1016.233, 193.3757
1016.715, 192.5017
1017.197, 192.2351
1017.679, 192.9379
1018.162, 192.1309
1018.644, 193.0180
1019.126, 193.9185
1019.608, 193.7193
1020.090, 192.8887
1020.572, 192.0690
1021.054, 191.3125
1021.536, 191.1633
1022.018, 191.5840
1022.501, 191.2008
1022.983, 189.6137
1023.465, 188.4776
1023.947, 189.1143
1024.429, 190.5489
1024.911, 190.5727
1025.393, 189.1417
1025.875, 188.4375
1026.358, 188.5485
1026.840, 188.6947
1027.322, 188.7189
1027.804, 188.4947
1028.286, 187.8303
1028.768, 187.0178
1029.250, 186.8583
1029.732, 187.4815
1030.214, 187.7325
1030.697, 187.4814
1031.179, 187.3289
1031.661, 187.5195
1032.143, 187.6264
1032.625, 187.2263
1033.107, 186.5669
1033.589, 186.4061
1034.071, 186.9590
1034.553, 187.0056
1035.036, 186.2423
1035.518, 185.6335
1036.000, 185.4904
1036.482, 185.4818
1036.964, 185.4089
1037.446, 185.2451
1037.928, 184.8571
1038.410, 184.0021
1038.893, 183.8122
1039.375, 185.2029
1039.857, 185.7929
1040.339, 184.4970
1040.821, 182.7602
1041.303, 181.3144
1041.785, 180.3200
1042.267, 180.4122
1042.750, 182.1364
1043.232, 183.1204
1043.714, 182.7506
1044.196, 182.4326
1044.678, 183.0004
1045.160, 183.2400
1045.642, 181.4269
1046.124, 178.7686
1046.606, 178.4364
1047.089, 181.3698
1047.571, 183.3791
1048.053, 183.6251
1048.535, 183.4402
1049.017, 182.9633
1049.499, 182.3902
1049.981, 181.8614
1050.463, 181.3456
1050.945, 180.6943
1051.428, 179.8172
1051.910, 179.3030
1052.392, 179.5843
1052.874, 179.8188
1053.356, 179.7745
1053.838, 179.5525
1054.320, 178.9754
1054.802, 178.3696
1055.285, 178.4700
1055.767, 179.4588
1056.249, 180.1693
1056.731, 180.1782
1057.213, 180.0146
1057.695, 179.9306
1058.177, 179.6915
1058.659, 178.8084
1059.141, 177.7471
1059.624, 177.4219
1060.106, 177.9909
1060.588, 178.6247
1061.070, 179.2908
1061.552, 179.6673
1062.034, 179.7288
1062.516, 179.3540
1062.998, 177.8842
1063.480, 176.1593
1063.963, 175.6186
1064.445, 176.4641
1064.927, 177.6351
1065.409, 179.2887
1065.891, 180.4562
1066.373, 180.5394
1066.855, 180.1785
1067.337, 179.8199
1067.820, 179.3787
1068.302, 178.4871
1068.784, 177.2000
1069.266, 176.3586
1069.748, 176.4610
1070.230, 176.7512
1070.712, 177.1968
1071.194, 177.4004
1071.677, 176.6511
1072.159, 175.7016
1072.641, 175.7739
1073.123, 176.8348
1073.605, 177.7345
1074.087, 178.1443
1074.569, 178.1236
1075.051, 177.4857
1075.533, 176.6505
1076.016, 175.5916
1076.498, 174.7266
1076.980, 174.7845
1077.462, 175.5655
1077.944, 175.9940
1078.426, 175.6319
1078.908, 175.1733
1079.390, 174.9346
1079.873, 174.7143
1080.355, 174.2919
1080.837, 173.8806
1081.319, 173.7210
1081.801, 173.8078
1082.283, 174.0299
1082.765, 174.3560
1083.247, 174.8125
1083.729, 176.3479
1084.212, 176.9004
1084.694, 173.7085
1085.176, 170.1906
1085.658, 170.4950
1086.140, 173.2901
1086.622, 174.6362
1087.104, 173.5469
1087.586, 172.2997
1088.068, 171.4135
1088.551, 171.1602
1089.033, 172.3326
1089.515, 173.5989
1089.997, 173.6536
1090.479, 172.9799
1090.961, 172.6635
1091.443, 172.8815
1091.925, 172.9497
1092.408, 172.5285
1092.890, 172.0246
1093.372, 171.0351
1093.854, 170.5994
1094.336, 172.3399
1094.818, 174.6510
1095.300, 174.8524
1095.782, 172.9502
1096.265, 171.6930
1096.747, 172.5690
1097.229, 172.8244
1097.711, 170.5068
1098.193, 168.4793
1098.675, 168.5388
1099.157, 169.7293
1099.639, 171.3849
1100.121, 173.0822
1100.604, 173.5660
1101.086, 172.0206
1101.568, 170.9945
1102.050, 171.5617
1102.532, 172.2665
1103.014, 172.6993
1103.496, 172.7954
1103.978, 172.2380
1104.460, 171.3706
1104.943, 171.1885
1105.425, 172.0630
1105.907, 172.2149
1106.389, 169.9685
1106.871, 168.8244
1107.353, 171.2778
1107.835, 173.6729
1108.317, 172.9364
1108.800, 170.6629
1109.282, 169.8040
1109.764, 170.6228
1110.246, 171.0567
1110.728, 170.7331
1111.210, 170.2834
1111.692, 169.6941
1112.174, 169.1107
1112.656, 168.2358
1113.139, 167.6415
1113.621, 168.4086
1114.103, 170.3342
1114.585, 171.1680
1115.067, 170.1079
1115.549, 169.3751
1116.031, 169.2206
1116.513, 169.0285
1116.995, 168.2663
1117.478, 167.7670
1117.960, 168.5683
1118.442, 170.1406
1118.924, 170.7721
1119.406, 170.2186
1119.888, 169.6389
1120.370, 168.6563
1120.852, 168.5302
1121.335, 170.2507
1121.817, 171.5521
1122.299, 170.5676
1122.781, 168.6817
1123.263, 168.4983
1123.745, 170.0621
1124.227, 171.1651
1124.709, 172.0017
1125.192, 171.4486
1125.674, 168.6473
1126.156, 166.7642
1126.638, 167.5839
1127.120, 169.1278
1127.602, 168.9357
1128.084, 169.6763
1128.566, 170.0360
1129.048, 169.5723
1129.531, 170.1026
1130.013, 168.8332
1130.495, 168.0456
1130.977, 168.5285
1131.459, 169.1987
1131.941, 169.1985
1132.423, 168.7233
1132.905, 167.9923
1133.387, 167.0762
1133.870, 167.2490
1134.352, 168.4616
1134.834, 169.3382
1135.316, 169.6119
1135.798, 169.5623
1136.280, 169.3279
1136.762, 169.0451
1137.244, 168.8863
1137.727, 168.8179
1138.209, 168.7504
1138.691, 168.6826
1139.173, 168.6051
1139.655, 168.5231
1140.137, 168.4020
1140.619, 168.2572
1141.101, 168.4648
1141.583, 169.4633
1142.066, 170.5424
1142.548, 170.5126
1143.030, 169.8173
1143.512, 169.3055
1143.994, 168.9300
1144.476, 168.2750
1144.958, 167.4082
1145.440, 167.0495
1145.922, 167.5840
1146.405, 168.3540
1146.887, 168.9085
1147.369, 169.2171
1147.851, 169.2478
1148.333, 169.0083
1148.815, 168.2328
1149.297, 167.2580
1149.779, 167.0644
1150.262, 167.8263
1150.744, 168.2178
1151.226, 166.9216
1151.708, 165.9825
1152.190, 167.3398
1152.672, 168.9882
1153.154, 169.0555
1153.636, 168.4022
1154.119, 168.5190
1154.601, 169.3461
1155.083, 169.6965
1155.565, 169.1658
1156.047, 168.4220
1156.529, 167.2056
1157.011, 166.4344
1157.493, 167.0210
1157.975, 167.7445
1158.458, 167.2799
1158.940, 166.2814
1159.422, 166.2416
1159.904, 167.3450
1160.386, 168.4625
1160.868, 170.0422
1161.350, 170.7884
1161.832, 170.2618
1162.314, 169.2576
1162.797, 167.5315
1163.279, 166.0341
1163.761, 165.8523
1164.243, 166.7675
1164.725, 167.8575
1165.207, 169.5494
1165.689, 169.7840
1166.171, 167.8822
1166.654, 166.5405
1167.136, 166.4066
1167.618, 167.0933
1168.100, 168.7236
1168.582, 170.0867
1169.064, 168.7974
1169.546, 165.3144
1170.028, 164.0511
1170.510, 165.0640
1170.993, 165.9312
1171.475, 166.3986
1171.957, 166.2867
1172.439, 167.1263
1172.921, 167.0789
1173.403, 168.1902
1173.885, 167.4488
1174.367, 167.8418
1174.849, 168.3280
1175.332, 167.3700
1175.814, 167.8828
1176.296, 167.9224
1176.778, 167.2060
1177.260, 166.3718
1177.742, 165.7355
1178.224, 165.7698
1178.706, 167.7113
1179.189, 169.6782
1179.671, 168.7651
1180.153, 166.6249
1180.635, 165.4947
1181.117, 165.2857
1181.599, 165.3929
1182.081, 165.6150
1182.563, 165.8013
1183.046, 165.7859
1183.528, 166.0439
1184.010, 167.3264
1184.492, 168.4327
1184.974, 168.2652
1185.456, 167.7339
1185.938, 168.0925
1186.420, 168.8265
1186.902, 168.3168
1187.385, 166.2172
1187.867, 164.9009
1188.349, 165.1217
1188.831, 165.7154
1189.313, 167.1960
1189.795, 168.1320
1190.277, 166.9802
1190.759, 165.6803
1191.241, 166.7400
1191.724, 169.2263
1192.206, 169.3095
1192.688, 166.1361
1193.170, 164.1750
1193.652, 163.6005
1194.134, 163.8350
1194.616, 165.0349
1195.098, 166.1672
1195.581, 166.7154
1196.063, 166.6749
1196.545, 165.9167
1197.027, 164.6940
1197.509, 164.2040
1197.991, 164.3795
1198.473, 164.0676
1198.955, 163.2529
1199.438, 162.6943
1199.920, 162.6109
1200.402, 162.9765
1200.884, 163.8032
1201.366, 164.7449
1201.848, 165.4462
1202.330, 165.8771
1202.812, 166.0658
1203.294, 165.8969
1203.776, 164.6109
1204.259, 162.8242
1204.741, 162.5586
1205.223, 164.1730
1205.705, 165.6667
1206.187, 165.8589
1206.669, 165.7398
1207.151, 165.8706
1207.633, 166.0974
1208.116, 166.5021
1208.598, 166.7792
1209.080, 166.3643
1209.562, 165.5786
1210.044, 165.4437
1210.526, 166.2249
1211.008, 166.4017
1211.490, 165.1881
1211.973, 164.0916
1212.455, 163.0871
1212.937, 162.6409
1213.419, 163.3400
1213.901, 164.2694
1214.383, 164.5524
1214.865, 164.3118
1215.347, 163.8975
1215.829, 163.1974
1216.312, 163.2237
1216.794, 164.2473
1217.276, 164.5918
1217.758, 163.8957
1218.240, 162.8817
1218.722, 161.8181
1219.204, 161.2002
1219.686, 161.6962
1220.168, 162.7741
1220.651, 163.0688
1221.133, 162.7538
1221.615, 162.3524
1222.097, 162.0032
1222.579, 162.2677
1223.061, 163.0994
1223.543, 163.6289
1224.025, 163.4456
1224.508, 163.1755
1224.990, 163.3611
1225.472, 163.7276
1225.954, 164.3011
1226.436, 164.6412
1226.918, 164.1230
1227.400, 163.0670
1227.882, 161.6337
1228.365, 160.2105
1228.847, 160.1599
1229.329, 162.2963
1229.811, 163.9549
1230.293, 164.1042
1230.775, 164.0834
1231.257, 164.6591
1231.739, 164.8428
1232.221, 163.5057
1232.703, 161.7563
1233.186, 160.9035
1233.668, 160.9190
1234.150, 161.7860
1234.632, 164.0883
1235.114, 164.7426
1235.596, 163.2767
1236.078, 162.3613
1236.560, 162.6798
1237.043, 163.1589
1237.525, 163.2106
1238.007, 162.8749
1238.489, 162.0636
1238.971, 161.1227
1239.453, 161.1814
1239.935, 161.8799
1240.417, 162.0986
1240.900, 161.8033
1241.382, 160.8970
1241.864, 159.6194
1242.346, 159.2497
1242.828, 160.4491
1243.310, 161.5872
1243.792, 160.9961
1244.274, 160.2591
1244.756, 160.7490
1245.239, 161.6032
1245.721, 162.1435
1246.203, 162.3735
1246.685, 162.4093
1247.167, 162.2550
1247.649, 161.8072
1248.131, 160.8782
1248.613, 160.2214
1249.095, 159.6945
1249.578, 159.8549
1250.060, 161.4418
1250.542, 162.6792
1251.024, 162.5019
1251.506, 161.8338
1251.988, 161.8510
1252.470, 162.2357
1252.952, 161.4554
1253.435, 159.4404
1253.917, 159.4175
1254.399, 161.3484
1254.881, 162.8258
1255.363, 163.3919
1255.845, 163.3136
1256.327, 162.7315
1256.809, 162.0891
1257.292, 161.7236
1257.774, 161.7238
1258.256, 162.5383
1258.738, 163.5376
1259.220, 163.7130
1259.702, 163.4746
1260.184, 163.5813
1260.666, 164.0322
1261.148, 164.5872
1261.630, 165.1864
1262.113, 165.1024
1262.595, 163.0542
1263.077, 161.8133
1263.559, 162.9733
1264.041, 164.1163
1264.523, 164.2920
1265.005, 163.6862
1265.487, 161.9932
1265.970, 159.9631
1266.452, 159.3793
1266.934, 160.2617
1267.416, 161.2282
1267.898, 162.3443
1268.380, 163.0447
1268.862, 163.2695
1269.344, 163.1839
1269.827, 162.8400
1270.309, 162.2553
1270.791, 161.4046
1271.273, 160.6569
1271.755, 160.5947
1272.237, 160.9484
1272.719, 161.1768
1273.201, 161.4874
1273.683, 162.6640
1274.166, 164.0987
1274.648, 164.0871
1275.130, 162.6441
1275.612, 161.7420
1276.094, 162.2919
1276.576, 162.6282
1277.058, 161.7917
1277.540, 161.0323
1278.022, 160.6002
1278.505, 160.6523
1278.987, 161.8420
1279.469, 163.1203
1279.951, 163.0126
1280.433, 162.0453
1280.915, 162.6623
1281.397, 162.5669
1281.879, 162.0179
1282.362, 163.0424
1282.844, 161.3432
1283.326, 161.0811
1283.808, 161.1634
1284.290, 161.1151
1284.772, 161.1649
1285.254, 161.4084
1285.736, 161.8421
##END=



