##NAMES=Metazeunerite
##RRUFFID=R110205
##IDEAL CHEMISTRY=Cu^2+^(U^6+^O_2_)_2_(As^5+^O_4_)_2_&#183;8H_2_O
##LOCALITY=Roter Berg District, Schneeberg District, Erzgebirge, Saxony, Germany
##OWNER=RRUFF
##SOURCE=Michael Scott 
##DESCRIPTION=Pale green platy crystals associated with cobaltlotharmeyerite R070400. Cell parameters indicate that this has a disordered structure.
##STATUS=The identification of this mineral has been confirmed by single-crystal X-ray diffraction.
##URL=rruff.info/R110205
178.8666, 77.35342
179.3488, 80.10660
179.8309, 82.89259
180.3130, 85.87554
180.7951, 89.06638
181.2772, 92.46951
181.7593, 96.19296
182.2415, 100.0180
182.7236, 103.8635
183.2057, 107.6816
183.6878, 111.3451
184.1699, 114.7172
184.6520, 118.1865
185.1342, 120.3232
185.6163, 121.2404
186.0984, 120.7479
186.5805, 118.4529
187.0626, 114.1974
187.5447, 108.5972
188.0269, 102.3614
188.5090, 95.24902
188.9911, 88.53224
189.4732, 82.46372
189.9553, 76.98230
190.4374, 72.07293
190.9196, 67.70743
191.4017, 63.88208
191.8838, 60.53673
192.3659, 57.64513
192.8480, 55.12067
193.3301, 52.94310
193.8123, 51.10960
194.2944, 49.62011
194.7765, 48.59109
195.2586, 47.80037
195.7407, 46.98681
196.2228, 46.15166
196.7050, 45.33714
197.1871, 44.50083
197.6692, 43.65440
198.1513, 43.07246
198.6334, 42.99173
199.1155, 43.05864
199.5977, 43.03881
200.0798, 42.91810
200.5619, 42.79629
201.0440, 42.79159
201.5261, 42.93098
202.0082, 43.00782
202.4904, 42.82725
202.9725, 42.70085
203.4546, 42.80251
203.9367, 43.14587
204.4188, 43.61677
204.9009, 44.11713
205.3831, 44.71999
205.8652, 45.11298
206.3473, 45.10603
206.8294, 45.04115
207.3115, 45.09017
207.7936, 45.29052
208.2758, 45.59461
208.7579, 45.94373
209.2400, 46.36625
209.7221, 46.77188
210.2042, 47.05460
210.6863, 47.39220
211.1685, 47.97358
211.6506, 48.80577
212.1327, 49.67968
212.6148, 50.29076
213.0969, 50.46398
213.5790, 50.70857
214.0612, 51.08892
214.5433, 51.49422
215.0254, 51.89452
215.5075, 52.26535
215.9896, 52.50843
216.4717, 52.45911
216.9539, 51.92846
217.4360, 51.54144
217.9181, 51.53703
218.4002, 51.56647
218.8823, 51.24598
219.3644, 50.48168
219.8466, 49.53701
220.3287, 48.77689
220.8108, 48.24873
221.2929, 47.60640
221.7750, 46.73335
222.2571, 45.74863
222.7393, 44.78306
223.2214, 43.86067
223.7035, 42.98454
224.1856, 42.17336
224.6677, 41.42262
225.1498, 40.71604
225.6320, 40.06878
226.1141, 39.45904
226.5962, 38.84394
227.0783, 38.20491
227.5604, 37.59412
228.0425, 37.04478
228.5247, 36.55579
229.0068, 36.14843
229.4889, 35.87426
229.9710, 35.68758
230.4531, 35.47623
230.9352, 35.20524
231.4174, 34.96523
231.8995, 34.86287
232.3816, 34.85057
232.8637, 34.79790
233.3458, 34.57351
233.8279, 34.25317
234.3101, 34.08781
234.7922, 34.13416
235.2743, 34.26294
235.7564, 34.44056
236.2385, 34.63459
236.7206, 34.77430
237.2028, 34.77041
237.6849, 34.67626
238.1670, 34.73849
238.6491, 35.08602
239.1312, 35.40083
239.6133, 35.58715
240.0955, 35.65540
240.5776, 35.61774
241.0597, 35.45205
241.5418, 35.19311
242.0239, 35.02078
242.5060, 35.03374
242.9882, 34.99715
243.4703, 34.83757
243.9524, 34.59106
244.4345, 34.29506
244.9166, 33.95452
245.3987, 33.59990
245.8809, 33.39404
246.3630, 33.53650
246.8451, 33.57057
247.3272, 33.31547
247.8093, 32.92812
248.2914, 32.62222
248.7736, 32.51885
249.2557, 32.55781
249.7378, 32.49631
250.2199, 32.27916
250.7020, 32.01602
251.1841, 31.68737
251.6663, 31.33455
252.1484, 30.99183
252.6305, 30.67257
253.1126, 30.39806
253.5947, 30.23047
254.0768, 30.27072
254.5590, 30.30957
255.0411, 30.35012
255.5232, 30.37667
256.0053, 30.35337
256.4874, 30.26601
256.9695, 30.16529
257.4517, 30.17390
257.9338, 30.47671
258.4159, 30.67002
258.8980, 30.68060
259.3801, 30.61123
259.8622, 30.53246
260.3444, 30.47272
260.8265, 30.48981
261.3086, 30.70325
261.7907, 31.38790
262.2728, 31.83071
262.7549, 31.85364
263.2371, 31.71475
263.7192, 31.65416
264.2013, 31.73811
264.6834, 31.90501
265.1655, 32.06876
265.6476, 32.22871
266.1298, 32.38509
266.6119, 32.50528
267.0940, 32.64079
267.5761, 32.84576
268.0582, 33.13040
268.5403, 33.45314
269.0225, 33.76985
269.5046, 34.07914
269.9867, 34.38652
270.4688, 34.72312
270.9509, 35.03782
271.4330, 35.29731
271.9152, 35.49529
272.3973, 35.61701
272.8794, 35.61591
273.3615, 35.48241
273.8436, 35.46096
274.3257, 35.63994
274.8079, 35.87239
275.2900, 36.09731
275.7721, 36.29814
276.2542, 36.35104
276.7363, 36.09017
277.2184, 35.56944
277.7006, 35.27870
278.1827, 35.50261
278.6648, 35.73297
279.1469, 35.60841
279.6290, 35.15172
280.1111, 34.57022
280.5933, 33.91662
281.0754, 33.25472
281.5575, 32.76489
282.0396, 32.55505
282.5217, 32.38450
283.0038, 32.08646
283.4860, 31.68916
283.9681, 31.34646
284.4502, 31.15936
284.9323, 31.04237
285.4144, 30.79745
285.8965, 30.34915
286.3787, 29.95941
286.8608, 29.81306
287.3429, 29.85383
287.8250, 29.87866
288.3071, 29.82645
288.7892, 29.72241
289.2714, 29.59947
289.7535, 29.45504
290.2356, 29.31697
290.7177, 29.19900
291.1998, 29.09707
291.6819, 28.99445
292.1641, 28.87794
292.6462, 28.77984
293.1283, 28.74677
293.6104, 28.77049
294.0925, 28.79061
294.5746, 28.82056
295.0568, 28.82466
295.5389, 28.70498
296.0210, 28.41054
296.5031, 28.11132
296.9852, 27.92474
297.4673, 27.84062
297.9495, 27.87062
298.4316, 28.06304
298.9137, 28.35452
299.3958, 28.68999
299.8779, 29.09483
300.3600, 29.41032
300.8422, 29.44010
301.3243, 29.31831
301.8064, 29.26867
302.2885, 29.35812
302.7706, 29.52122
303.2527, 29.66536
303.7349, 29.78360
304.2170, 30.00058
304.6991, 30.50495
305.1812, 31.07874
305.6633, 31.40324
306.1454, 31.36250
306.6276, 31.25947
307.1097, 31.33916
307.5918, 31.59537
308.0739, 31.93512
308.5560, 32.36147
309.0381, 32.83294
309.5203, 33.27180
310.0024, 33.66742
310.4845, 34.14291
310.9666, 34.76934
311.4487, 35.54198
311.9308, 36.43707
312.4130, 37.44711
312.8951, 38.58900
313.3772, 39.80525
313.8593, 41.11193
314.3414, 42.62757
314.8235, 44.43575
315.3057, 46.49630
315.7878, 48.75174
316.2699, 51.22179
316.7520, 53.81037
317.2341, 56.48337
317.7162, 59.20402
318.1984, 61.92483
318.6805, 64.81341
319.1626, 67.59651
319.6447, 69.98270
320.1268, 72.06314
320.6089, 73.29314
321.0911, 73.17278
321.5732, 72.01415
322.0553, 70.11415
322.5374, 67.43085
323.0195, 64.17280
323.5016, 60.42128
323.9838, 56.15065
324.4659, 51.85712
324.9480, 47.47255
325.4301, 43.38823
325.9122, 40.07124
326.3943, 37.56758
326.8765, 35.56575
327.3586, 33.95137
327.8407, 32.67806
328.3228, 31.52959
328.8049, 30.46127
329.2870, 29.51056
329.7692, 28.70577
330.2513, 28.04084
330.7334, 27.47622
331.2155, 26.99534
331.6976, 26.60353
332.1797, 26.35071
332.6619, 26.29935
333.1440, 26.22576
333.6261, 25.87245
334.1082, 25.34929
334.5903, 24.91234
335.0724, 24.66671
335.5546, 24.53683
336.0367, 24.44347
336.5188, 24.38952
337.0009, 24.34251
337.4830, 24.30240
337.9651, 24.24990
338.4473, 24.14256
338.9294, 23.93080
339.4115, 23.73485
339.8936, 23.68652
340.3757, 23.76204
340.8578, 23.77741
341.3400, 23.63460
341.8221, 23.42815
342.3042, 23.31798
342.7863, 23.32620
343.2684, 23.30121
343.7505, 23.09106
344.2327, 22.79528
344.7148, 22.68229
345.1969, 22.85399
345.6790, 23.09534
346.1611, 23.15531
346.6432, 23.06255
347.1254, 22.94881
347.6075, 22.77860
348.0896, 22.63931
348.5717, 22.69373
349.0538, 22.96404
349.5359, 23.19231
350.0181, 23.14790
350.5002, 22.89490
350.9823, 22.75119
351.4644, 22.82969
351.9465, 22.94032
352.4286, 22.91645
352.9108, 22.79664
353.3929, 22.78687
353.8750, 23.03646
354.3571, 23.40723
354.8392, 23.55244
355.3214, 23.41690
355.8035, 23.22605
356.2856, 23.02881
356.7677, 22.83583
357.2498, 22.65689
357.7319, 22.48976
358.2141, 22.36493
358.6962, 22.33916
359.1783, 22.43026
359.6604, 22.50483
360.1425, 22.56857
360.6246, 22.59704
361.1068, 22.55280
361.5889, 22.43709
362.0710, 22.30329
362.5531, 22.18967
363.0352, 22.09789
363.5173, 22.03441
363.9995, 21.94362
364.4816, 21.93121
364.9637, 22.13989
365.4458, 22.47371
365.9279, 22.67256
366.4100, 22.58316
366.8922, 22.30999
367.3743, 22.19612
367.8564, 22.36864
368.3385, 22.50793
368.8206, 22.54588
369.3027, 22.54156
369.7849, 22.57442
370.2670, 22.66380
370.7491, 22.74719
371.2312, 22.72702
371.7133, 22.53344
372.1954, 22.45601
372.6776, 22.62142
373.1597, 22.78816
373.6418, 22.78321
374.1239, 22.62904
374.6060, 22.47326
375.0881, 22.43510
375.5703, 22.51063
376.0524, 22.55000
376.5345, 22.47691
377.0166, 22.45561
377.4987, 22.55720
377.9808, 22.72519
378.4630, 22.86883
378.9451, 22.94601
379.4272, 22.99985
379.9093, 23.14892
380.3914, 23.58635
380.8735, 23.78272
381.3557, 23.48505
381.8378, 23.13150
382.3199, 23.05592
382.8020, 23.29535
383.2841, 23.65981
383.7662, 23.95593
384.2484, 24.18736
384.7305, 24.33039
385.2126, 24.24041
385.6947, 24.19991
386.1768, 24.31936
386.6589, 24.55648
387.1411, 24.82505
387.6232, 25.08544
388.1053, 25.32261
388.5874, 25.46560
389.0695, 25.42672
389.5516, 25.46107
390.0338, 25.63587
390.5159, 25.89397
390.9980, 26.21938
391.4801, 26.60542
391.9622, 26.95610
392.4443, 27.13168
392.9265, 27.11134
393.4086, 27.11735
393.8907, 27.20445
394.3728, 27.29812
394.8549, 27.33786
395.3370, 27.34088
395.8192, 27.37779
396.3013, 27.53002
396.7834, 27.75007
397.2655, 27.86234
397.7476, 27.81677
398.2297, 27.79324
398.7119, 27.88946
399.1940, 28.06294
399.6761, 28.28424
400.1582, 28.58292
400.6403, 28.84475
401.1224, 28.91878
401.6046, 28.81758
402.0867, 28.76120
402.5688, 28.88241
403.0509, 28.99549
403.5330, 28.82969
404.0151, 28.37676
404.4973, 28.02933
404.9794, 28.10174
405.4615, 28.35087
405.9436, 28.36045
406.4257, 28.07619
406.9078, 27.60411
407.3900, 26.91760
407.8721, 26.09196
408.3542, 25.49601
408.8363, 25.32365
409.3184, 25.23859
409.8005, 25.02499
410.2827, 24.71840
410.7648, 24.44876
411.2469, 24.27276
411.7290, 24.16689
412.2111, 24.09160
412.6932, 24.07364
413.1754, 24.01639
413.6575, 23.82944
414.1396, 23.63463
414.6217, 23.56272
415.1038, 23.63406
415.5859, 23.79087
416.0681, 23.99943
416.5502, 24.27672
417.0323, 24.38651
417.5144, 24.22568
417.9965, 24.03478
418.4786, 23.82627
418.9608, 23.66851
419.4429, 23.70074
419.9250, 24.00352
420.4071, 24.46497
420.8892, 24.77594
421.3713, 24.84695
421.8535, 24.88774
422.3356, 24.83051
422.8177, 24.79935
423.2998, 24.90497
423.7819, 25.15120
424.2640, 25.45120
424.7462, 25.72628
425.2283, 25.97939
425.7104, 26.17679
426.1925, 26.20600
426.6746, 26.30285
427.1567, 26.60127
427.6389, 26.99568
428.1210, 27.29940
428.6031, 27.40625
429.0852, 27.44943
429.5673, 27.73243
430.0494, 28.35025
430.5316, 28.86591
431.0137, 28.96203
431.4958, 29.06942
431.9779, 29.52865
432.4600, 30.33533
432.9421, 31.12905
433.4243, 31.58393
433.9064, 31.78717
434.3885, 32.12227
434.8706, 32.63110
435.3527, 33.21985
435.8348, 33.89114
436.3170, 34.59273
436.7991, 35.22765
437.2812, 35.68674
437.7633, 36.18869
438.2454, 36.99384
438.7275, 38.05960
439.2097, 39.06646
439.6918, 39.88899
440.1739, 40.62180
440.6560, 41.37147
441.1381, 42.12547
441.6202, 42.99502
442.1024, 44.13216
442.5845, 45.33299
443.0666, 46.36705
443.5487, 47.21505
444.0308, 47.94979
444.5129, 48.61552
444.9951, 49.21125
445.4772, 49.76748
445.9593, 50.34630
446.4414, 50.81874
446.9235, 51.12224
447.4056, 51.30131
447.8878, 51.42112
448.3699, 51.50427
448.8520, 51.53837
449.3341, 51.50696
449.8162, 51.41792
450.2983, 51.22731
450.7805, 50.98093
451.2626, 50.61013
451.7447, 50.02589
452.2268, 49.28242
452.7089, 48.49574
453.1910, 47.73397
453.6732, 47.01629
454.1553, 46.43467
454.6374, 46.03584
455.1195, 45.70369
455.6016, 45.47504
456.0837, 45.26014
456.5659, 44.97561
457.0480, 44.60839
457.5301, 44.22848
458.0122, 43.87339
458.4943, 43.54403
458.9764, 43.36120
459.4586, 43.35561
459.9407, 43.46716
460.4228, 43.69447
460.9049, 43.99647
461.3870, 44.31511
461.8691, 44.67214
462.3513, 44.96796
462.8334, 45.09604
463.3155, 45.05640
463.7976, 44.83514
464.2797, 44.37106
464.7618, 43.78472
465.2440, 43.27691
465.7261, 42.85714
466.2082, 42.24361
466.6903, 41.15935
467.1724, 39.92589
467.6545, 38.90447
468.1367, 38.12817
468.6188, 37.53003
469.1009, 37.11226
469.5830, 36.83184
470.0651, 36.45721
470.5472, 35.99389
471.0294, 35.44924
471.5115, 34.66180
471.9936, 33.86226
472.4757, 33.38461
472.9578, 33.30071
473.4399, 33.36006
473.9221, 33.26785
474.4042, 32.99856
474.8863, 32.72080
475.3684, 32.50007
475.8505, 32.20136
476.3326, 31.62461
476.8148, 30.96657
477.2969, 30.60207
477.7790, 30.72480
478.2611, 31.06671
478.7432, 31.04795
479.2253, 30.55013
479.7075, 30.02533
480.1896, 29.40033
480.6717, 28.86452
481.1538, 28.58447
481.6359, 28.51327
482.1180, 28.43119
482.6002, 28.17130
483.0823, 27.79999
483.5644, 27.52127
484.0465, 27.37923
484.5286, 27.16965
485.0107, 26.72563
485.4929, 26.20454
485.9750, 25.77493
486.4571, 25.45312
486.9392, 25.24036
487.4213, 25.23409
487.9034, 25.32412
488.3856, 25.22904
488.8677, 24.88077
489.3498, 24.53300
489.8319, 24.41928
490.3140, 24.52451
490.7961, 24.55659
491.2783, 24.44112
491.7604, 24.33224
492.2425, 24.35031
492.7246, 24.41501
493.2067, 24.35970
493.6888, 24.12631
494.1710, 23.81609
494.6531, 23.58484
495.1352, 23.45144
495.6173, 23.34465
496.0994, 23.25617
496.5815, 23.19785
497.0637, 23.21704
497.5458, 23.26823
498.0279, 23.24893
498.5100, 23.09440
498.9921, 22.87062
499.4742, 22.74436
499.9564, 22.74696
500.4385, 22.76991
500.9206, 22.82488
501.4027, 22.87398
501.8848, 22.87518
502.3669, 22.84018
502.8491, 22.83738
503.3312, 22.99923
503.8133, 23.20832
504.2954, 23.07074
504.7775, 22.49035
505.2596, 22.02823
505.7418, 22.05596
506.2239, 22.29382
506.7060, 22.32694
507.1881, 22.09005
507.6702, 21.83817
508.1523, 21.69175
508.6345, 21.61514
509.1166, 21.57316
509.5987, 21.56049
510.0808, 21.49677
510.5629, 21.28138
511.0450, 20.94229
511.5272, 20.78919
512.0093, 20.97666
512.4914, 21.13897
512.9735, 21.15753
513.4556, 21.09492
513.9377, 21.02896
514.4199, 20.98342
514.9020, 20.94499
515.3841, 20.89927
515.8662, 20.84736
516.3483, 20.78164
516.8304, 20.64901
517.3126, 20.56033
517.7947, 20.58903
518.2768, 20.66913
518.7589, 20.70281
519.2410, 20.65032
519.7231, 20.55671
520.2053, 20.49162
520.6874, 20.45965
521.1695, 20.39071
521.6516, 20.28265
522.1337, 20.12291
522.6158, 19.82361
523.0980, 19.46343
523.5801, 19.27988
524.0622, 19.49894
524.5443, 19.79032
525.0264, 19.74019
525.5085, 19.41790
525.9907, 19.26771
526.4728, 19.50071
526.9549, 19.84277
527.4370, 19.84171
527.9191, 19.41591
528.4012, 19.19272
528.8834, 19.40263
529.3655, 19.68942
529.8476, 19.80745
530.3297, 19.78967
530.8118, 19.78796
531.2939, 19.88734
531.7761, 20.03086
532.2582, 20.07393
532.7403, 19.98418
533.2224, 19.84577
533.7045, 19.60264
534.1866, 19.36837
534.6688, 19.23016
535.1509, 19.16309
535.6330, 19.06961
536.1151, 18.86817
536.5972, 18.62102
537.0793, 18.49805
537.5615, 18.52026
538.0436, 18.58508
538.5257, 18.71610
539.0078, 18.83727
539.4899, 18.86929
539.9720, 18.81504
540.4542, 18.76653
540.9363, 18.79230
541.4184, 18.83849
541.9005, 18.82826
542.3826, 18.76017
542.8647, 18.66269
543.3469, 18.53989
543.8290, 18.40734
544.3111, 18.30266
544.7932, 18.21513
545.2753, 18.17397
545.7574, 18.22567
546.2396, 18.29493
546.7217, 18.30755
547.2038, 18.27041
547.6859, 18.24640
548.1680, 18.28275
548.6501, 18.36157
549.1323, 18.40160
549.6144, 18.37029
550.0965, 18.35594
550.5786, 18.41072
551.0607, 18.45177
551.5428, 18.39511
552.0250, 18.25393
552.5071, 18.13111
552.9892, 18.11893
553.4713, 18.17443
553.9534, 18.17710
554.4355, 18.12519
554.9177, 18.01832
555.3998, 17.76502
555.8819, 17.52607
556.3640, 17.55835
556.8461, 17.91153
557.3282, 18.15270
557.8104, 17.96988
558.2925, 17.67150
558.7746, 17.68757
559.2567, 17.99714
559.7388, 18.20062
560.2209, 18.03306
560.7031, 17.62894
561.1852, 17.41745
561.6673, 17.57208
562.1494, 17.68061
562.6315, 17.73857
563.1136, 17.74839
563.5958, 17.67520
564.0779, 17.54892
564.5600, 17.46950
565.0421, 17.52230
565.5242, 17.64742
566.0063, 17.61901
566.4885, 17.35263
566.9706, 17.17997
567.4527, 17.27114
567.9348, 17.41580
568.4169, 17.48587
568.8990, 17.47583
569.3812, 17.42393
569.8633, 17.28682
570.3454, 17.15263
570.8275, 17.18649
571.3096, 17.37539
571.7917, 17.51551
572.2739, 17.51033
572.7560, 17.43003
573.2381, 17.39320
573.7202, 17.39907
574.2023, 17.44612
574.6844, 17.62432
575.1666, 17.76589
575.6487, 17.72294
576.1308, 17.54621
576.6129, 17.36896
577.0950, 17.25719
577.5771, 17.21661
578.0593, 17.28594
578.5414, 17.56151
579.0235, 17.68251
579.5056, 17.45892
579.9877, 17.23671
580.4698, 17.16440
580.9520, 17.21615
581.4341, 17.31288
581.9162, 17.43060
582.3983, 17.55456
582.8804, 17.69530
583.3625, 17.84261
583.8447, 17.86075
584.3268, 17.67413
584.8089, 17.45133
585.2910, 17.36915
585.7731, 17.41558
586.2552, 17.46846
586.7374, 17.54659
587.2195, 17.59840
587.7016, 17.55481
588.1837, 17.47751
588.6658, 17.49357
589.1479, 17.63576
589.6301, 17.79389
590.1122, 17.82486
590.5943, 17.71005
591.0764, 17.64585
591.5585, 17.68785
592.0406, 17.71652
592.5228, 17.64960
593.0049, 17.57984
593.4870, 17.63135
593.9691, 17.83350
594.4512, 18.07421
594.9333, 18.29776
595.4155, 18.47980
595.8976, 18.47830
596.3797, 18.24261
596.8618, 18.01951
597.3439, 17.98458
597.8260, 18.04844
598.3082, 17.97326
598.7903, 17.66126
599.2724, 17.45778
599.7545, 17.54189
600.2366, 17.74705
600.7188, 17.92572
601.2009, 18.05207
601.6830, 18.12369
602.1651, 18.13618
602.6472, 18.10115
603.1293, 18.05451
603.6115, 17.94098
604.0936, 17.92166
604.5757, 18.08467
605.0578, 18.26606
605.5399, 18.37822
606.0220, 18.41983
606.5042, 18.42518
606.9863, 18.41885
607.4684, 18.37750
607.9505, 18.21908
608.4326, 17.94888
608.9147, 17.79853
609.3969, 17.86239
609.8790, 18.00174
610.3611, 18.06419
610.8432, 18.05849
611.3253, 18.09278
611.8074, 18.23058
612.2896, 18.35651
612.7717, 18.42488
613.2538, 18.43604
613.7359, 18.36419
614.2180, 18.21076
614.7001, 18.07529
615.1823, 18.08970
615.6644, 18.26547
616.1465, 18.34457
616.6286, 18.19248
617.1107, 18.13090
617.5928, 18.28401
618.0750, 18.53587
618.5571, 18.81388
619.0392, 19.09375
619.5213, 19.25518
620.0034, 19.11659
620.4855, 18.81679
620.9677, 18.66406
621.4498, 18.67399
621.9319, 18.76028
622.4140, 18.90769
622.8961, 19.07706
623.3782, 19.18267
623.8604, 19.21148
624.3425, 19.22799
624.8246, 19.22249
625.3067, 19.22151
625.7888, 19.26181
626.2709, 19.32028
626.7531, 19.33720
627.2352, 19.28242
627.7173, 19.19185
628.1994, 19.11304
628.6815, 19.02860
629.1636, 19.05733
629.6458, 19.29410
630.1279, 19.53173
630.6100, 19.70484
631.0921, 19.80075
631.5742, 19.76847
632.0563, 19.53755
632.5385, 19.35379
633.0206, 19.47151
633.5027, 19.74225
633.9848, 19.85029
634.4669, 19.75292
634.9490, 19.63997
635.4312, 19.64512
635.9133, 19.74960
636.3954, 19.86577
636.8775, 20.05511
637.3596, 20.16989
637.8417, 20.11862
638.3239, 20.06172
638.8060, 20.16683
639.2881, 20.37663
639.7702, 20.46806
640.2523, 20.27564
640.7344, 19.97424
641.2166, 19.93817
641.6987, 20.18279
642.1808, 20.32823
642.6629, 20.26273
643.1450, 20.14226
643.6271, 20.09879
644.1093, 20.11521
644.5914, 20.13608
645.0735, 20.12232
645.5556, 20.14772
646.0377, 20.25518
646.5198, 20.41944
647.0020, 20.67403
647.4841, 20.98822
647.9662, 21.13431
648.4483, 20.86579
648.9304, 20.27114
649.4125, 19.98857
649.8947, 20.21870
650.3768, 20.39007
650.8589, 20.29194
651.3410, 20.19325
651.8231, 20.36312
652.3052, 20.73847
652.7874, 20.95242
653.2695, 20.72197
653.7516, 20.33479
654.2337, 20.10580
654.7158, 20.02392
655.1979, 20.06355
655.6801, 20.23403
656.1622, 20.42319
656.6443, 20.49410
657.1264, 20.43490
657.6085, 20.48740
658.0906, 20.80824
658.5728, 21.02911
659.0549, 20.99253
659.5370, 20.85699
660.0191, 20.78564
660.5012, 20.80240
660.9833, 20.83392
661.4655, 20.83120
661.9476, 20.79151
662.4297, 20.66134
662.9118, 20.40880
663.3939, 20.33595
663.8760, 20.63632
664.3582, 21.03462
664.8403, 21.20835
665.3224, 21.17517
665.8045, 21.08503
666.2866, 20.88240
666.7687, 20.71124
667.2509, 20.68079
667.7330, 20.72651
668.2151, 20.72313
668.6972, 20.64621
669.1793, 20.59716
669.6614, 20.68287
670.1436, 20.89730
670.6257, 21.17821
671.1078, 21.67412
671.5899, 21.93042
672.0720, 21.59359
672.5541, 21.12644
673.0363, 20.86686
673.5184, 20.82928
674.0005, 20.88165
674.4826, 21.05398
674.9647, 21.22142
675.4468, 21.23515
675.9290, 21.13934
676.4111, 21.06954
676.8932, 21.06807
677.3753, 21.08747
677.8574, 21.05661
678.3395, 20.96723
678.8217, 21.04598
679.3038, 21.59756
679.7859, 21.92413
680.2680, 21.72532
680.7501, 21.37671
681.2322, 21.20524
681.7144, 21.24334
682.1965, 21.34113
682.6786, 21.44957
683.1607, 21.52552
683.6428, 21.46305
684.1249, 21.28118
684.6071, 21.15632
685.0892, 21.15496
685.5713, 21.17439
686.0534, 21.08408
686.5355, 20.87311
687.0176, 20.75721
687.4998, 20.78023
687.9819, 20.83321
688.4640, 20.92311
688.9461, 21.00830
689.4282, 21.03160
689.9103, 20.99909
690.3925, 20.98408
690.8746, 21.04758
691.3567, 21.16156
691.8388, 21.25212
692.3209, 21.31697
692.8030, 21.43806
693.2852, 21.69231
693.7673, 21.90361
694.2494, 21.82433
694.7315, 21.48387
695.2136, 21.34883
695.6957, 21.66924
696.1779, 21.91459
696.6600, 21.88541
697.1421, 21.69756
697.6242, 21.41376
698.1063, 21.09077
698.5884, 20.86949
699.0706, 20.87559
699.5527, 21.02786
700.0348, 21.08435
700.5169, 21.02285
700.9990, 21.01435
701.4811, 21.13234
701.9633, 21.25523
702.4454, 21.23207
702.9275, 21.12180
703.4096, 21.13079
703.8917, 21.35468
704.3738, 21.60714
704.8560, 21.91685
705.3381, 22.15390
705.8202, 22.06873
706.3023, 21.71382
706.7844, 21.46007
707.2665, 21.57378
707.7487, 21.91947
708.2308, 22.14286
708.7129, 22.24008
709.1950, 22.22469
709.6771, 22.02734
710.1592, 21.81030
710.6414, 21.66219
711.1235, 21.57248
711.6056, 21.52441
712.0877, 21.52569
712.5698, 21.54381
713.0519, 21.55828
713.5341, 21.58414
714.0162, 21.63116
714.4983, 21.70542
714.9804, 21.84667
715.4625, 22.08887
715.9446, 22.33237
716.4268, 22.32634
716.9089, 21.97423
717.3910, 21.81749
717.8731, 22.03207
718.3552, 22.22134
718.8373, 22.12110
719.3195, 21.91447
719.8016, 21.89009
720.2837, 22.12623
720.7658, 22.32172
721.2479, 22.26538
721.7300, 22.14393
722.2122, 22.15363
722.6943, 22.28378
723.1764, 22.46861
723.6585, 22.68123
724.1406, 22.85799
724.6227, 22.88352
725.1049, 22.73433
725.5870, 22.66265
726.0691, 22.71943
726.5512, 22.77191
727.0333, 22.73020
727.5154, 22.68996
727.9976, 22.79721
728.4797, 23.05577
728.9618, 23.19081
729.4439, 22.93064
729.9260, 22.63140
730.4081, 22.65840
730.8903, 22.89815
731.3724, 23.07593
731.8545, 23.10970
732.3366, 23.05415
732.8187, 22.94969
733.3008, 22.80728
733.7830, 22.76577
734.2651, 22.88648
734.7472, 22.97486
735.2293, 22.87008
735.7114, 22.81842
736.1935, 23.11593
736.6757, 23.65328
737.1578, 23.92589
737.6399, 23.57458
738.1220, 23.18354
738.6041, 23.15578
739.0862, 23.33727
739.5684, 23.51208
740.0505, 23.63567
740.5326, 23.71405
741.0147, 23.74353
741.4968, 23.75350
741.9789, 23.84632
742.4611, 24.05984
742.9432, 24.21783
743.4253, 24.31534
743.9074, 24.33654
744.3895, 24.18630
744.8716, 23.97992
745.3538, 23.95370
745.8359, 24.20704
746.3180, 24.43328
746.8001, 24.44625
747.2822, 24.39912
747.7643, 24.48887
748.2465, 24.66588
748.7286, 24.70121
749.2107, 24.49028
749.6928, 24.24609
750.1749, 24.32849
750.6570, 24.76073
751.1392, 25.02363
751.6213, 25.05900
752.1034, 25.05745
752.5855, 25.03279
753.0676, 25.05258
753.5497, 25.24513
754.0319, 25.61908
754.5140, 25.85884
754.9961, 25.75474
755.4782, 25.63549
755.9603, 25.72261
756.4424, 25.91425
756.9246, 26.02275
757.4067, 26.02482
757.8888, 26.08338
758.3709, 26.37910
758.8530, 26.79534
759.3351, 26.87132
759.8173, 26.54383
760.2994, 26.42252
760.7815, 26.68141
761.2636, 27.09565
761.7457, 27.52064
762.2278, 27.94707
762.7100, 28.33690
763.1921, 28.69748
763.6742, 29.00689
764.1563, 29.19711
764.6384, 29.38391
765.1205, 29.70239
765.6027, 30.10020
766.0848, 30.41385
766.5669, 30.56596
767.0490, 30.65387
767.5311, 30.77889
768.0132, 30.94660
768.4954, 31.20991
768.9775, 31.58602
769.4596, 31.93058
769.9417, 32.15065
770.4238, 32.33749
770.9059, 32.66452
771.3881, 33.18922
771.8702, 33.61774
772.3523, 33.79726
772.8344, 34.06701
773.3165, 34.60664
773.7986, 35.25826
774.2808, 35.88954
774.7629, 36.45405
775.2450, 36.89013
775.7271, 37.02771
776.2092, 37.13552
776.6913, 37.71266
777.1735, 38.62793
777.6556, 39.29107
778.1377, 39.56050
778.6198, 39.80239
779.1019, 40.32693
779.5840, 41.08650
780.0662, 41.83616
780.5483, 42.56353
781.0304, 43.30539
781.5125, 44.12505
781.9946, 44.89410
782.4767, 45.43031
782.9589, 45.90453
783.4410, 46.67324
783.9231, 47.88757
784.4052, 49.08395
784.8873, 49.85133
785.3694, 50.53841
785.8516, 51.52610
786.3337, 52.81927
786.8158, 54.36835
787.2979, 56.15014
787.7800, 58.00679
788.2621, 59.74903
788.7443, 61.37086
789.2264, 62.89996
789.7085, 64.10698
790.1906, 65.88146
790.6727, 68.74621
791.1548, 72.06217
791.6370, 75.22134
792.1191, 78.25802
792.6012, 81.32922
793.0833, 84.21949
793.5654, 87.46450
794.0475, 91.33586
794.5297, 95.59228
795.0118, 100.0410
795.4939, 104.6561
795.9760, 109.4646
796.4581, 114.4953
796.9402, 119.6613
797.4224, 124.6826
797.9045, 129.6775
798.3866, 135.3910
798.8687, 141.9111
799.3508, 148.6559
799.8329, 155.2263
800.3151, 161.9909
800.7972, 169.4512
801.2793, 177.5031
801.7614, 186.8108
802.2435, 197.1864
802.7256, 208.9368
803.2078, 221.9090
803.6899, 236.4467
804.1720, 253.0340
804.6541, 271.6153
805.1362, 291.9382
805.6183, 314.4683
806.1005, 337.8443
806.5826, 361.5070
807.0647, 384.6315
807.5468, 406.2325
808.0289, 425.8309
808.5110, 440.8973
808.9932, 449.8197
809.4753, 452.5371
809.9574, 448.6564
810.4395, 437.5364
810.9216, 422.3103
811.4037, 401.5743
811.8859, 379.4201
812.3680, 356.7233
812.8501, 334.3759
813.3322, 313.4172
813.8143, 293.7994
814.2964, 276.6236
814.7786, 262.7091
815.2607, 250.5904
815.7428, 239.4721
816.2249, 229.6294
816.7070, 221.7449
817.1891, 215.8260
817.6713, 211.1384
818.1534, 207.3226
818.6355, 204.1541
819.1176, 201.6005
819.5997, 199.4702
820.0818, 196.2111
820.5640, 191.5127
821.0461, 186.0230
821.5282, 180.2132
822.0103, 173.4321
822.4924, 166.6603
822.9745, 158.0452
823.4567, 149.2478
823.9388, 139.8593
824.4209, 130.7147
824.9030, 122.0197
825.3851, 113.7334
825.8672, 105.7670
826.3494, 98.08617
826.8315, 91.06319
827.3136, 84.94324
827.7957, 79.47311
828.2778, 74.51801
828.7599, 70.06738
829.2421, 66.18601
829.7242, 62.83833
830.2063, 59.77237
830.6884, 56.76451
831.1705, 53.94453
831.6526, 51.69562
832.1348, 50.04794
832.6169, 48.35442
833.0990, 46.50462
833.5811, 44.72794
834.0632, 43.12596
834.5453, 41.70266
835.0275, 40.45064
835.5096, 39.41234
835.9917, 38.44746
836.4738, 37.49165
836.9559, 36.67948
837.4380, 36.15140
837.9202, 35.73363
838.4023, 35.24221
838.8844, 34.65322
839.3665, 34.02766
839.8486, 33.35485
840.3307, 32.70917
840.8129, 32.17736
841.2950, 31.72634
841.7771, 31.30142
842.2592, 30.89124
842.7413, 30.48265
843.2234, 30.06854
843.7056, 29.66853
844.1877, 29.33632
844.6698, 29.08239
845.1519, 28.76523
845.6340, 28.32111
846.1161, 28.00245
846.5983, 28.02568
847.0804, 28.12273
847.5625, 27.85062
848.0446, 27.17337
848.5267, 26.74221
849.0089, 26.86203
849.4910, 26.87150
849.9731, 26.39219
850.4552, 25.87362
850.9373, 25.74711
851.4194, 25.95915
851.9016, 26.21217
852.3837, 26.40502
852.8658, 26.50443
853.3479, 26.43347
853.8300, 26.27135
854.3121, 26.16902
854.7943, 26.11785
855.2764, 25.98600
855.7585, 25.71576
856.2406, 25.48195
856.7227, 25.54840
857.2048, 25.88108
857.6870, 26.01240
858.1691, 25.87633
858.6512, 25.81121
859.1333, 25.97962
859.6154, 26.11395
860.0975, 25.91446
860.5797, 25.46179
861.0618, 25.21367
861.5439, 25.23566
862.0260, 25.34619
862.5081, 25.62608
862.9902, 25.88922
863.4724, 26.01386
863.9545, 26.05074
864.4366, 26.08526
864.9187, 26.13980
865.4008, 26.20938
865.8829, 26.26885
866.3651, 26.35931
866.8472, 26.55154
867.3293, 26.80942
867.8114, 27.03029
868.2935, 27.20232
868.7756, 27.43262
869.2578, 27.81068
869.7399, 28.27465
870.2220, 28.67185
870.7041, 28.99860
871.1862, 29.30658
871.6683, 29.58236
872.1505, 29.90463
872.6326, 30.32687
873.1147, 30.80054
873.5968, 31.23498
874.0789, 31.59937
874.5610, 32.08971
875.0432, 32.70161
875.5253, 33.43139
876.0074, 34.34475
876.4895, 35.32063
876.9716, 36.24751
877.4537, 37.14881
877.9359, 38.14848
878.4180, 39.30812
878.9001, 40.53351
879.3822, 41.72636
879.8643, 42.98933
880.3464, 44.54173
880.8286, 46.26690
881.3107, 47.82832
881.7928, 49.10896
882.2749, 50.32508
882.7570, 51.76786
883.2391, 53.29371
883.7213, 54.40000
884.2034, 55.10804
884.6855, 55.75981
885.1676, 56.43124
885.6497, 57.09873
886.1318, 57.82136
886.6140, 58.44384
887.0961, 58.40340
887.5782, 57.43593
888.0603, 56.47654
888.5424, 55.55286
889.0245, 54.60715
889.5067, 53.60736
889.9888, 52.57744
890.4709, 51.51319
890.9530, 50.41326
891.4351, 49.42381
891.9172, 48.79358
892.3994, 47.99948
892.8815, 46.73326
893.3636, 45.27578
893.8457, 43.84874
894.3278, 42.48981
894.8099, 41.18509
895.2921, 39.92744
895.7742, 38.73293
896.2563, 37.63383
896.7384, 36.60293
897.2205, 35.64372
897.7026, 34.72749
898.1848, 33.74208
898.6669, 32.65459
899.1490, 31.61661
899.6311, 30.77627
900.1132, 30.09001
900.5953, 29.40838
901.0775, 28.73302
901.5596, 28.03544
902.0417, 27.27406
902.5238, 26.62248
903.0059, 26.19939
903.4880, 25.93733
903.9702, 25.70735
904.4523, 25.52642
904.9344, 25.31017
905.4165, 25.09011
905.8986, 24.79333
906.3807, 24.31061
906.8629, 23.81488
907.3450, 23.42920
907.8271, 23.16267
908.3092, 23.03334
908.7913, 23.18443
909.2734, 23.18177
909.7556, 22.65456
910.2377, 22.04338
910.7198, 21.71295
911.2019, 21.61554
911.6840, 21.63470
912.1661, 21.71783
912.6483, 21.76046
913.1304, 21.70879
913.6125, 21.53465
914.0946, 21.08900
914.5767, 20.48449
915.0588, 20.10770
915.5410, 20.00877
916.0231, 19.98181
916.5052, 19.90395
916.9873, 19.77549
917.4694, 19.57221
917.9515, 19.28795
918.4337, 19.11542
918.9158, 19.09490
919.3979, 18.99312
919.8800, 18.69924
920.3621, 18.35804
920.8442, 18.12111
921.3264, 17.97894
921.8085, 17.84230
922.2906, 17.78720
922.7727, 17.61061
923.2548, 17.16921
923.7369, 16.75642
924.2191, 16.53052
924.7012, 16.41155
925.1833, 16.27305
925.6654, 16.09809
926.1475, 15.96504
926.6296, 15.91337
927.1118, 15.89097
927.5939, 15.92051
928.0760, 15.93086
928.5581, 15.82869
929.0402, 15.63354
929.5223, 15.43221
930.0045, 15.25770
930.4866, 15.11527
930.9687, 15.02682
931.4508, 14.96176
931.9329, 14.82878
932.4150, 14.67803
932.8972, 14.72468
933.3793, 15.00084
933.8614, 15.21456
934.3435, 15.09638
934.8256, 14.77417
935.3077, 14.54219
935.7899, 14.39810
936.2720, 14.29581
936.7541, 14.22725
937.2362, 14.26584
937.7183, 14.47566
938.2004, 14.72614
938.6826, 14.82699
939.1647, 14.77670
939.6468, 14.62536
940.1289, 14.29919
940.6110, 14.04918
941.0931, 13.90247
941.5753, 13.87401
942.0574, 14.09246
942.5395, 14.41645
943.0216, 14.43597
943.5037, 13.99250
943.9858, 13.72915
944.4680, 13.77077
944.9501, 13.91012
945.4322, 14.23660
945.9143, 14.50406
946.3964, 14.39046
946.8785, 13.96378
947.3607, 13.64098
947.8428, 13.60444
948.3249, 13.59337
948.8070, 13.43688
949.2891, 13.26809
949.7712, 13.21826
950.2534, 13.25368
950.7355, 13.28649
951.2176, 13.29642
951.6997, 13.34089
952.1818, 13.49850
952.6639, 13.66774
953.1461, 13.67550
953.6282, 13.59543
954.1103, 13.64104
954.5924, 13.79951
955.0745, 13.82370
955.5566, 13.58831
956.0388, 13.29216
956.5209, 13.20443
957.0030, 13.29049
957.4851, 13.38945
957.9672, 13.50162
958.4493, 13.59677
958.9315, 13.67253
959.4136, 13.69655
959.8957, 13.64146
960.3778, 13.52509
960.8599, 13.37774
961.3420, 13.17261
961.8242, 13.08439
962.3063, 13.15770
962.7884, 13.24594
963.2705, 13.35023
963.7526, 13.38470
964.2347, 13.21390
964.7169, 12.87988
965.1990, 12.69078
965.6811, 12.74289
966.1632, 12.79514
966.6453, 12.88480
967.1274, 12.93142
967.6096, 12.85773
968.0917, 12.74764
968.5738, 12.71924
969.0559, 12.77479
969.5380, 12.79390
970.0201, 12.69999
970.5023, 12.62856
970.9844, 12.62781
971.4665, 12.66772
971.9486, 12.76920
972.4307, 12.87807
972.9128, 12.89705
973.3950, 12.80131
973.8771, 12.65369
974.3592, 12.41417
974.8413, 12.21516
975.3234, 12.16296
975.8055, 12.23076
976.2877, 12.45880
976.7698, 12.77099
977.2519, 12.91635
977.7340, 12.77299
978.2161, 12.56658
978.6982, 12.54743
979.1804, 12.62895
979.6625, 12.65074
980.1446, 12.62709
980.6267, 12.61665
981.1088, 12.63202
981.5909, 12.66612
982.0731, 12.72085
982.5552, 12.75063
983.0373, 12.62690
983.5194, 12.38683
984.0015, 12.32279
984.4836, 12.44251
984.9658, 12.53957
985.4479, 12.54360
985.9300, 12.55760
986.4121, 12.67411
986.8942, 12.87936
987.3763, 13.18656
987.8585, 13.67365
988.3406, 13.68487
988.8227, 13.02491
989.3048, 12.44250
989.7869, 12.23860
990.2690, 12.26697
990.7512, 12.40921
991.2333, 12.64290
991.7154, 12.67075
992.1975, 12.35011
992.6796, 12.12366
993.1617, 12.02236
993.6439, 12.01860
994.1260, 12.20267
994.6081, 12.41709
995.0902, 12.39148
995.5723, 12.11269
996.0544, 11.99307
996.5366, 12.24749
997.0187, 12.37528
997.5008, 12.15781
997.9829, 11.93280
998.4650, 11.90962
998.9471, 12.01813
999.4293, 12.14291
999.9114, 12.27130
1000.393, 12.35814
1000.876, 12.36260
1001.358, 12.35877
1001.840, 12.43677
1002.322, 12.46896
1002.804, 12.26843
1003.286, 11.94511
1003.768, 11.77052
1004.250, 11.82633
1004.733, 11.90092
1005.215, 11.86432
1005.697, 11.82320
1006.179, 11.88086
1006.661, 11.96673
1007.143, 11.96378
1007.625, 11.89816
1008.107, 11.90732
1008.589, 12.05548
1009.072, 12.18993
1009.554, 12.15281
1010.036, 12.05606
1010.518, 12.04749
1011.000, 12.07754
1011.482, 12.02456
1011.964, 11.88911
1012.446, 11.77368
1012.929, 11.73230
1013.411, 11.74277
1013.893, 11.80699
1014.375, 11.88940
1014.857, 11.93531
1015.339, 11.93410
1015.821, 11.82505
1016.303, 11.61443
1016.785, 11.44851
1017.268, 11.42720
1017.750, 11.50182
1018.232, 11.60512
1018.714, 11.73528
1019.196, 11.91634
1019.678, 12.13231
1020.160, 12.22568
1020.642, 12.15469
1021.125, 12.09961
1021.607, 12.22609
1022.089, 12.38907
1022.571, 12.18216
1023.053, 11.63570
1023.535, 11.37995
1024.017, 11.44395
1024.499, 11.65892
1024.981, 12.00152
1025.464, 12.25836
1025.946, 12.21387
1026.428, 11.97307
1026.910, 11.88418
1027.392, 11.97504
1027.874, 11.92264
1028.356, 11.66773
1028.838, 11.50340
1029.321, 11.52931
1029.803, 11.69977
1030.285, 12.02559
1030.767, 12.42444
1031.249, 12.49616
1031.731, 12.11446
1032.213, 11.90044
1032.695, 11.93619
1033.177, 11.96560
1033.660, 11.86402
1034.142, 11.77652
1034.624, 11.89172
1035.106, 12.15513
1035.588, 12.21453
1036.070, 11.95642
1036.552, 11.76866
1037.034, 11.69809
1037.516, 11.62664
1037.999, 11.46993
1038.481, 11.33759
1038.963, 11.37864
1039.445, 11.56240
1039.927, 11.64894
1040.409, 11.55098
1040.891, 11.51163
1041.373, 11.65832
1041.855, 11.70224
1042.338, 11.38526
1042.820, 11.02605
1043.302, 10.98688
1043.784, 11.22353
1044.266, 11.38454
1044.748, 11.41294
1045.230, 11.44419
1045.712, 11.53231
1046.195, 11.56738
1046.677, 11.40114
1047.159, 11.23449
1047.641, 11.34926
1048.123, 11.69316
1048.605, 11.86389
1049.087, 11.74319
1049.569, 11.58617
1050.052, 11.33957
1050.534, 11.16921
1051.016, 11.21747
1051.498, 11.33481
1051.980, 11.32804
1052.462, 11.22077
1052.944, 11.22530
1053.426, 11.47211
1053.908, 11.64259
1054.391, 11.63548
1054.873, 11.56945
1055.355, 11.42667
1055.837, 11.31139
1056.319, 11.38399
1056.801, 11.60355
1057.283, 11.71994
1057.765, 11.62844
1058.248, 11.54067
1058.730, 11.51683
1059.212, 11.51442
1059.694, 11.53606
1060.176, 11.54791
1060.658, 11.49808
1061.140, 11.40128
1061.622, 11.33056
1062.104, 11.30099
1062.587, 11.31243
1063.069, 11.38777
1063.551, 11.47812
1064.033, 11.64497
1064.515, 11.74780
1064.997, 11.51706
1065.479, 11.06820
1065.961, 10.88118
1066.443, 11.16210
1066.926, 11.46535
1067.408, 11.75377
1067.890, 11.84723
1068.372, 11.41445
1068.854, 10.89020
1069.336, 10.80345
1069.818, 11.08207
1070.300, 11.31388
1070.782, 11.38028
1071.265, 11.40041
1071.747, 11.41972
1072.229, 11.41740
1072.711, 11.38475
1073.193, 11.32107
1073.675, 11.17230
1074.157, 10.99937
1074.639, 10.99728
1075.122, 11.25648
1075.604, 11.39904
1076.086, 11.07264
1076.568, 10.79313
1077.050, 11.00241
1077.532, 11.29957
1078.014, 11.18786
1078.496, 10.81578
1078.979, 10.67671
1079.461, 10.91067
1079.943, 11.09823
1080.425, 10.98921
1080.907, 10.85438
1081.389, 10.83424
1081.871, 10.86592
1082.353, 10.88974
1082.835, 10.91394
1083.318, 10.98480
1083.800, 11.11117
1084.282, 11.19146
1084.764, 11.13061
1085.246, 11.07883
1085.728, 11.17549
1086.210, 11.25407
1086.692, 11.13761
1087.175, 10.90905
1087.657, 10.71052
1088.139, 10.57436
1088.621, 10.51975
1089.103, 10.58129
1089.585, 10.68805
1090.067, 10.90685
1090.549, 11.06265
1091.031, 10.93272
1091.514, 10.69588
1091.996, 10.66474
1092.478, 10.84617
1092.960, 10.92257
1093.442, 10.70016
1093.924, 10.52276
1094.406, 10.51307
1094.888, 10.59449
1095.370, 10.85211
1095.853, 11.08325
1096.335, 10.94858
1096.817, 10.52061
1097.299, 10.30920
1097.781, 10.55602
1098.263, 10.74960
1098.745, 10.65268
1099.227, 10.55159
1099.709, 10.60875
1100.192, 10.72911
1100.674, 10.85581
1101.156, 10.94773
1101.638, 10.88409
1102.120, 10.57257
1102.602, 10.37250
1103.084, 10.51132
1103.566, 10.59641
1104.049, 10.36535
1104.531, 10.11191
1105.013, 10.09646
1105.495, 10.25702
1105.977, 10.41730
1106.459, 10.55511
1106.941, 10.70311
1107.423, 11.01307
1107.906, 11.12996
1108.388, 10.72372
1108.870, 10.33637
1109.352, 10.43909
1109.834, 10.75243
1110.316, 10.71410
1110.798, 10.26651
1111.280, 10.10738
1111.762, 10.58896
1112.245, 10.91168
1112.727, 10.88080
1113.209, 10.78368
1113.691, 10.73882
1114.173, 10.71771
1114.655, 10.67838
1115.137, 10.62374
1115.619, 10.59445
1116.102, 10.62235
1116.584, 10.61754
1117.066, 10.52745
1117.548, 10.48341
1118.030, 10.58811
1118.512, 10.69311
1118.994, 10.62190
1119.476, 10.43829
1119.958, 10.41541
1120.441, 10.65875
1120.923, 10.71104
1121.405, 10.44056
1121.887, 10.27025
1122.369, 10.32840
1122.851, 10.48664
1123.333, 10.71007
1123.815, 10.90572
1124.297, 10.84190
1124.780, 10.48833
1125.262, 10.26363
1125.744, 10.16732
1126.226, 10.23265
1126.708, 10.52443
1127.190, 10.78799
1127.672, 10.89421
1128.154, 10.86393
1128.636, 10.70328
1129.119, 10.43682
1129.601, 10.27596
1130.083, 10.22636
1130.565, 10.21595
1131.047, 10.24134
1131.529, 10.26383
1132.011, 10.26123
1132.493, 10.31222
1132.976, 10.52774
1133.458, 10.79145
1133.940, 10.69845
1134.422, 10.29246
1134.904, 10.16402
1135.386, 10.32479
1135.868, 10.44084
1136.350, 10.42295
1136.833, 10.43634
1137.315, 10.60946
1137.797, 10.80540
1138.279, 10.80334
1138.761, 10.63144
1139.243, 10.28731
1139.725, 9.855813
1140.207, 9.730842
1140.689, 9.936080
1141.172, 10.17540
1141.654, 10.30738
1142.136, 10.38695
1142.618, 10.47913
1143.100, 10.54787
1143.582, 10.49608
1144.064, 10.38966
1144.546, 10.35576
1145.029, 10.39962
1145.511, 10.52704
1145.993, 10.71568
1146.475, 10.79944
1146.957, 10.63152
1147.439, 10.40237
1147.921, 10.25007
1148.403, 10.18373
1148.885, 10.24195
1149.368, 10.38243
1149.850, 10.60351
1150.332, 10.83853
1150.814, 10.85686
1151.296, 10.52342
1151.778, 10.21008
1152.260, 10.18279
1152.742, 10.20307
1153.224, 10.06092
1153.707, 9.920048
1154.189, 10.00031
1154.671, 10.21851
1155.153, 10.36231
1155.635, 10.38923
1156.117, 10.36369
1156.599, 10.18377
1157.081, 10.12874
1157.563, 10.45245
1158.046, 10.74422
1158.528, 10.70021
1159.010, 10.50297
1159.492, 10.36741
1159.974, 10.31291
1160.456, 10.36568
1160.938, 10.67508
1161.420, 10.80527
1161.903, 10.56538
1162.385, 10.39410
1162.867, 10.46321
1163.349, 10.58098
1163.831, 10.60744
1164.313, 10.56793
1164.795, 10.51173
1165.277, 10.42501
1165.760, 10.45722
1166.242, 10.69144
1166.724, 10.76090
1167.206, 10.55402
1167.688, 10.35570
1168.170, 10.31112
1168.652, 10.35174
1169.134, 10.40135
1169.616, 10.44994
1170.099, 10.41196
1170.581, 10.28435
1171.063, 10.41000
1171.545, 10.81275
1172.027, 11.03955
1172.509, 10.95174
1172.991, 10.80209
1173.473, 10.78491
1173.956, 10.80876
1174.438, 10.70962
1174.920, 10.52389
1175.402, 10.36361
1175.884, 10.22463
1176.366, 10.04700
1176.848, 9.857123
1177.330, 9.857341
1177.813, 10.12425
1178.295, 10.38659
1178.777, 10.38722
1179.259, 10.28361
1179.741, 10.19882
1180.223, 10.18770
1180.705, 10.42650
1181.187, 10.76840
1181.669, 10.84910
1182.151, 10.66423
1182.634, 10.61072
1183.116, 10.93462
1183.598, 11.16145
1184.080, 10.86031
1184.562, 10.54591
1185.044, 10.59080
1185.526, 10.77470
1186.008, 10.91864
1186.490, 10.98395
1186.973, 10.92194
1187.455, 10.71644
1187.937, 10.54365
1188.419, 10.39450
1188.901, 10.34498
1189.383, 10.50995
1189.865, 10.66003
1190.347, 10.66510
1190.830, 10.60781
1191.312, 10.56484
1191.794, 10.53653
1192.276, 10.53259
1192.758, 10.59630
1193.240, 10.50722
1193.722, 10.13570
1194.204, 10.03635
1194.687, 10.43706
1195.169, 10.79667
1195.651, 10.74686
1196.133, 10.53991
1196.615, 10.59494
1197.097, 10.57946
1197.579, 10.89981
1198.061, 10.75888
1198.543, 10.80487
1199.026, 11.04980
1199.508, 11.08403
1199.990, 10.78008
1200.472, 10.44099
1200.954, 10.29663
1201.436, 10.30738
1201.918, 10.52261
1202.400, 10.78588
1202.883, 10.71854
1203.365, 10.46222
1203.847, 10.36390
1204.329, 10.43104
1204.811, 10.47924
1205.293, 10.44020
1205.775, 10.37813
1206.257, 10.27891
1206.740, 10.25316
1207.222, 10.43002
1207.704, 10.66900
1208.186, 10.92746
1208.668, 11.11088
1209.150, 11.06312
1209.632, 10.81563
1210.114, 10.58299
1210.596, 10.41365
1211.078, 10.25860
1211.561, 10.00029
1212.043, 9.901694
1212.525, 10.17910
1213.007, 10.49370
1213.489, 10.61974
1213.971, 10.65956
1214.453, 10.81743
1214.935, 11.06951
1215.417, 10.91778
1215.900, 10.13021
1216.382, 9.877433
1216.864, 10.36577
1217.346, 10.75218
1217.828, 10.76719
1218.310, 10.63200
1218.792, 10.48892
1219.274, 10.40612
1219.757, 10.58457
1220.239, 10.46221
1220.721, 10.83234
1221.203, 10.42475
1221.685, 10.14855
1222.167, 10.07255
1222.649, 10.26598
1223.131, 10.71341
1223.614, 11.01124
1224.096, 10.81112
1224.578, 10.46471
1225.060, 10.28032
1225.542, 10.23722
1226.024, 10.38031
1226.506, 10.60662
1226.988, 10.78860
1227.470, 10.90465
1227.953, 10.96528
1228.435, 10.97290
1228.917, 10.91671
1229.399, 10.74917
1229.881, 10.57998
1230.363, 10.34113
1230.845, 10.22785
1231.327, 10.53920
1231.810, 10.90152
1232.292, 10.77944
1232.774, 10.32383
1233.256, 10.15710
1233.738, 10.36330
1234.220, 10.49487
1234.702, 10.52156
1235.184, 10.58008
1235.667, 10.71811
1236.149, 10.79654
1236.631, 10.73907
1237.113, 10.60135
1237.595, 10.42336
1238.077, 10.26363
1238.559, 10.33232
1239.041, 10.57873
1239.523, 10.78060
1240.005, 10.91104
1240.488, 10.88139
1240.970, 10.69464
1241.452, 10.45038
1241.934, 10.19479
1242.416, 10.02519
1242.898, 10.07051
1243.380, 10.19817
1243.862, 10.32024
1244.344, 10.41290
1244.827, 10.41840
1245.309, 10.39222
1245.791, 10.47105
1246.273, 10.62471
1246.755, 10.60402
1247.237, 10.24966
1247.719, 10.05509
1248.201, 10.23746
1248.684, 10.44362
1249.166, 10.63422
1249.648, 10.74584
1250.130, 10.73565
1250.612, 10.62812
1251.094, 10.39782
1251.576, 10.10358
1252.058, 10.19416
1252.541, 10.12517
1253.023, 10.12094
1253.505, 10.43287
1253.987, 10.32352
1254.469, 10.77501
1254.951, 11.11670
1255.433, 10.95772
1255.915, 10.59767
1256.397, 10.33202
1256.880, 10.20702
1257.362, 10.42500
1257.844, 10.79014
1258.326, 10.92129
1258.808, 10.85857
1259.290, 10.73530
1259.772, 10.60549
1260.254, 10.54984
1260.737, 10.61936
1261.219, 10.61705
1261.701, 10.30294
1262.183, 10.07450
1262.665, 10.22298
1263.147, 10.42193
1263.629, 10.42579
1264.111, 10.33590
1264.594, 10.26944
1265.076, 10.24880
1265.558, 10.38770
1266.040, 10.79928
1266.522, 10.93936
1267.004, 10.71922
1267.486, 10.52842
1267.968, 10.42630
1268.450, 10.46291
1268.932, 10.69283
1269.415, 10.86001
1269.897, 10.62285
1270.379, 10.85684
1270.861, 10.41338
1271.343, 10.92401
1271.825, 11.08979
1272.307, 10.96714
1272.789, 10.76113
1273.271, 10.54843
1273.754, 10.41669
1274.236, 10.39829
1274.718, 10.47616
1275.200, 10.77798
1275.682, 10.96402
1276.164, 10.70163
1276.646, 10.39686
1277.128, 10.33293
1277.611, 10.39614
1278.093, 10.45326
1278.575, 10.50843
1279.057, 10.62303
1279.539, 10.81711
1280.021, 10.92210
1280.503, 10.93709
1280.985, 10.83647
1281.468, 10.56329
1281.950, 10.40846
1282.432, 10.49864
1282.914, 10.62522
1283.396, 10.61693
1283.878, 10.52958
1284.360, 10.40925
1284.842, 10.30980
1285.324, 10.38375
##END=



