##NAMES=Metatorbernite
##RRUFFID=R070509
##IDEAL CHEMISTRY=Cu^2+^(U^6+^O_2_)_2_(PO_4_)_2_&#183;8H_2_O
##LOCALITY=Musonoi mine, Kolwezi, Katanga, Congo
##OWNER=RRUFF
##SOURCE=James Shigley
##DESCRIPTION=Dark green platy crystals
##STATUS=The identification of this mineral has been confirmed by single-crystal X-ray diffraction.
##URL=rruff.info/R070509
140.0309, 748.8057
140.5130, 771.9669
140.9951, 784.7610
141.4772, 794.5085
141.9594, 817.9152
142.4415, 861.7151
142.9236, 905.8206
143.4057, 940.6167
143.8878, 960.1581
144.3699, 986.1215
144.8521, 1025.040
145.3342, 1071.995
145.8163, 1100.597
146.2984, 1101.566
146.7805, 1094.375
147.2626, 1091.880
147.7448, 1101.132
148.2269, 1104.158
148.7090, 1094.270
149.1911, 1070.459
149.6732, 1060.289
150.1554, 1077.402
150.6375, 1101.276
151.1196, 1112.467
151.6017, 1097.653
152.0838, 1083.420
152.5659, 1072.512
153.0481, 1063.038
153.5302, 1063.925
154.0123, 1087.110
154.4944, 1118.342
154.9765, 1138.008
155.4586, 1126.895
155.9408, 1118.014
156.4229, 1124.530
156.9050, 1154.194
157.3871, 1170.901
157.8692, 1166.988
158.3513, 1151.226
158.8335, 1141.982
159.3156, 1148.073
159.7977, 1158.677
160.2798, 1168.365
160.7619, 1179.854
161.2440, 1185.831
161.7262, 1179.429
162.2083, 1164.027
162.6904, 1154.212
163.1725, 1158.057
163.6546, 1168.362
164.1367, 1179.401
164.6189, 1194.162
165.1010, 1205.442
165.5831, 1207.251
166.0652, 1200.046
166.5473, 1194.949
167.0294, 1196.050
167.5116, 1202.964
167.9937, 1215.352
168.4758, 1239.906
168.9579, 1265.149
169.4400, 1280.338
169.9221, 1283.523
170.4043, 1290.621
170.8864, 1316.138
171.3685, 1352.968
171.8506, 1388.539
172.3327, 1413.651
172.8148, 1435.742
173.2970, 1461.301
173.7791, 1490.653
174.2612, 1524.985
174.7433, 1567.612
175.2254, 1616.231
175.7076, 1664.793
176.1897, 1701.543
176.6718, 1738.060
177.1539, 1794.881
177.6360, 1884.600
178.1181, 1979.244
178.6003, 2037.887
179.0824, 2067.696
179.5645, 2110.246
180.0466, 2207.214
180.5287, 2338.780
181.0108, 2458.637
181.4930, 2547.681
181.9751, 2629.350
182.4572, 2736.079
182.9393, 2868.574
183.4214, 3022.624
183.9035, 3201.352
184.3857, 3399.481
184.8678, 3603.460
185.3499, 3801.863
185.8320, 4004.468
186.3141, 4228.404
186.7962, 4476.009
187.2784, 4740.627
187.7605, 5025.929
188.2426, 5326.555
188.7247, 5619.057
189.2068, 5895.030
189.6889, 6152.882
190.1711, 6394.025
190.6532, 6617.440
191.1353, 6820.305
191.6174, 7009.518
192.0995, 7181.454
192.5816, 7294.720
193.0638, 7339.178
193.5459, 7312.276
194.0280, 7189.344
194.5101, 6967.150
194.9922, 6653.180
195.4743, 6231.658
195.9565, 5703.428
196.4386, 5158.545
196.9207, 4631.368
197.4028, 4122.811
197.8849, 3685.558
198.3671, 3323.089
198.8492, 3027.100
199.3313, 2779.269
199.8134, 2580.718
200.2955, 2419.123
200.7776, 2290.668
201.2598, 2196.606
201.7419, 2113.469
202.2240, 2038.833
202.7061, 1972.374
203.1882, 1910.470
203.6703, 1851.005
204.1525, 1802.335
204.6346, 1773.856
205.1167, 1769.011
205.5988, 1759.783
206.0809, 1737.233
206.5630, 1706.327
207.0452, 1699.167
207.5273, 1723.774
208.0094, 1753.808
208.4915, 1764.948
208.9736, 1752.521
209.4557, 1741.844
209.9379, 1737.317
210.4200, 1738.837
210.9021, 1744.677
211.3842, 1754.240
211.8663, 1769.204
212.3484, 1792.589
212.8306, 1826.899
213.3127, 1860.962
213.7948, 1892.602
214.2769, 1921.862
214.7590, 1947.279
215.2411, 1965.415
215.7233, 1983.798
216.2054, 2013.324
216.6875, 2059.372
217.1696, 2101.703
217.6517, 2133.413
218.1338, 2152.876
218.6160, 2175.303
219.0981, 2203.222
219.5802, 2231.994
220.0623, 2254.622
220.5444, 2270.958
221.0265, 2281.432
221.5087, 2286.578
221.9908, 2286.947
222.4729, 2279.697
222.9550, 2265.212
223.4371, 2242.968
223.9192, 2211.193
224.4014, 2169.916
224.8835, 2120.323
225.3656, 2061.192
225.8477, 1985.862
226.3298, 1920.313
226.8119, 1866.374
227.2941, 1821.049
227.7762, 1776.770
228.2583, 1736.201
228.7404, 1693.571
229.2225, 1646.015
229.7046, 1589.944
230.1868, 1537.801
230.6689, 1489.784
231.1510, 1446.106
231.6331, 1406.957
232.1152, 1374.428
232.5974, 1343.890
233.0795, 1311.690
233.5616, 1273.190
234.0437, 1244.637
234.5258, 1229.789
235.0079, 1224.925
235.4901, 1216.360
235.9722, 1200.788
236.4543, 1186.252
236.9364, 1177.975
237.4185, 1182.046
237.9006, 1178.604
238.3828, 1161.730
238.8649, 1136.196
239.3470, 1123.020
239.8291, 1128.402
240.3112, 1138.291
240.7933, 1144.829
241.2755, 1147.677
241.7576, 1147.635
242.2397, 1142.852
242.7218, 1134.763
243.2039, 1131.276
243.6860, 1133.241
244.1682, 1138.710
244.6503, 1146.557
245.1324, 1157.235
245.6145, 1169.831
246.0966, 1187.142
246.5787, 1207.280
247.0609, 1215.879
247.5430, 1204.227
248.0251, 1192.091
248.5072, 1194.034
248.9893, 1217.840
249.4714, 1239.088
249.9536, 1256.680
250.4357, 1270.106
250.9178, 1274.183
251.3999, 1265.789
251.8820, 1252.076
252.3641, 1237.734
252.8463, 1222.128
253.3284, 1207.763
253.8105, 1195.997
254.2926, 1186.283
254.7747, 1173.295
255.2568, 1154.804
255.7390, 1135.968
256.2211, 1120.799
256.7032, 1111.137
257.1853, 1100.984
257.6674, 1089.280
258.1495, 1076.209
258.6317, 1064.313
259.1138, 1054.010
259.5959, 1044.408
260.0780, 1034.405
260.5601, 1022.285
261.0422, 1014.106
261.5244, 1011.664
262.0065, 1014.424
262.4886, 1016.353
262.9707, 1016.630
263.4528, 1017.394
263.9349, 1020.591
264.4171, 1026.939
264.8992, 1033.820
265.3813, 1041.309
265.8634, 1049.192
266.3455, 1055.330
266.8276, 1058.871
267.3098, 1062.289
267.7919, 1067.930
268.2740, 1076.307
268.7561, 1084.825
269.2382, 1092.519
269.7203, 1099.708
270.2025, 1109.602
270.6846, 1123.421
271.1667, 1137.188
271.6488, 1146.414
272.1309, 1149.226
272.6130, 1155.918
273.0952, 1168.507
273.5773, 1186.559
274.0594, 1208.268
274.5415, 1234.777
275.0236, 1261.718
275.5057, 1284.255
275.9879, 1301.550
276.4700, 1320.294
276.9521, 1341.322
277.4342, 1364.825
277.9163, 1393.110
278.3984, 1427.758
278.8806, 1461.749
279.3627, 1489.710
279.8448, 1511.542
280.3269, 1527.065
280.8090, 1532.965
281.2911, 1533.277
281.7733, 1545.722
282.2554, 1572.450
282.7375, 1600.430
283.2196, 1617.712
283.7017, 1624.304
284.1838, 1632.517
284.6660, 1647.290
285.1481, 1663.671
285.6302, 1664.348
286.1123, 1647.669
286.5944, 1629.936
287.0765, 1628.698
287.5587, 1641.823
288.0408, 1643.490
288.5229, 1625.983
289.0050, 1596.795
289.4871, 1572.851
289.9692, 1554.092
290.4514, 1538.274
290.9335, 1527.084
291.4156, 1518.647
291.8977, 1501.879
292.3798, 1471.437
292.8619, 1435.701
293.3441, 1412.212
293.8262, 1400.355
294.3083, 1390.844
294.7904, 1377.162
295.2726, 1360.323
295.7547, 1343.427
296.2368, 1327.027
296.7189, 1311.038
297.2010, 1294.822
297.6831, 1278.749
298.1653, 1264.996
298.6474, 1254.685
299.1295, 1247.861
299.6116, 1245.428
300.0937, 1249.455
300.5758, 1253.824
301.0580, 1249.446
301.5401, 1238.013
302.0222, 1226.751
302.5043, 1220.033
302.9864, 1216.470
303.4685, 1214.949
303.9507, 1216.538
304.4328, 1216.567
304.9149, 1209.094
305.3970, 1195.949
305.8791, 1182.357
306.3612, 1169.506
306.8434, 1158.648
307.3255, 1152.782
307.8076, 1153.876
308.2897, 1153.706
308.7718, 1144.021
309.2539, 1127.957
309.7361, 1112.490
310.2182, 1102.062
310.7003, 1093.090
311.1824, 1082.887
311.6645, 1071.158
312.1466, 1058.189
312.6288, 1042.685
313.1109, 1026.179
313.5930, 1010.946
314.0751, 997.4789
314.5572, 985.7822
315.0393, 976.1674
315.5215, 968.8431
316.0036, 962.1548
316.4857, 955.2983
316.9678, 948.6241
317.4499, 942.4416
317.9320, 938.0504
318.4142, 933.1756
318.8963, 925.9395
319.3784, 916.0108
319.8605, 908.1540
320.3426, 906.1871
320.8247, 906.2211
321.3069, 904.3282
321.7890, 897.4278
322.2711, 890.5200
322.7532, 885.4201
323.2353, 882.1841
323.7174, 877.9698
324.1996, 871.5716
324.6817, 864.2981
325.1638, 857.2530
325.6459, 848.0291
326.1280, 841.7272
326.6101, 841.0376
327.0923, 845.4526
327.5744, 846.8566
328.0565, 842.3179
328.5386, 836.3910
329.0207, 831.7067
329.5028, 826.5637
329.9850, 825.1033
330.4671, 831.1625
330.9492, 842.2686
331.4313, 845.4529
331.9134, 834.5917
332.3955, 822.2008
332.8777, 814.4429
333.3598, 812.3016
333.8419, 813.4431
334.3240, 820.3986
334.8061, 830.0651
335.2882, 832.7275
335.7704, 823.4156
336.2525, 815.6505
336.7346, 817.3432
337.2167, 834.1753
337.6988, 839.5458
338.1809, 828.7716
338.6631, 810.6859
339.1452, 803.4674
339.6273, 810.0447
340.1094, 817.0895
340.5915, 819.5345
341.0736, 817.1850
341.5558, 812.3146
342.0379, 803.3769
342.5200, 795.0677
343.0021, 795.8742
343.4842, 806.5687
343.9663, 814.1831
344.4485, 811.6492
344.9306, 801.3295
345.4127, 799.0361
345.8948, 805.8276
346.3769, 814.3365
346.8590, 816.3406
347.3412, 812.5580
347.8233, 807.7941
348.3054, 801.6307
348.7875, 796.3745
349.2696, 799.3153
349.7517, 810.3391
350.2339, 821.9202
350.7160, 827.7784
351.1981, 829.0887
351.6802, 828.5357
352.1623, 825.5332
352.6444, 822.4927
353.1266, 823.3874
353.6087, 827.5603
354.0908, 831.4062
354.5729, 832.0609
355.0550, 831.0303
355.5371, 830.6489
356.0193, 832.1064
356.5014, 832.6335
356.9835, 829.2347
357.4656, 822.9856
357.9477, 816.6647
358.4298, 810.6035
358.9120, 805.7745
359.3941, 802.5638
359.8762, 800.6227
360.3583, 802.0202
360.8404, 812.9689
361.3225, 827.1999
361.8047, 834.8544
362.2868, 821.2448
362.7689, 809.3246
363.2510, 812.6813
363.7331, 834.4288
364.2152, 852.5696
364.6974, 860.0664
365.1795, 860.6917
365.6616, 858.3546
366.1437, 847.3257
366.6258, 839.9886
367.1079, 840.7812
367.5901, 849.7329
368.0722, 857.6678
368.5543, 864.6097
369.0364, 869.7755
369.5185, 872.6913
370.0006, 873.4119
370.4828, 871.8543
370.9649, 865.8268
371.4470, 856.9881
371.9291, 853.0899
372.4112, 856.6678
372.8933, 862.1846
373.3755, 866.9233
373.8576, 870.7947
374.3397, 873.9341
374.8218, 875.1398
375.3039, 876.2183
375.7861, 881.9913
376.2682, 894.4623
376.7503, 905.8337
377.2324, 912.8925
377.7145, 915.4614
378.1967, 914.4779
378.6788, 907.4388
379.1609, 902.1774
379.6430, 915.1436
380.1251, 947.7285
380.6072, 967.2454
381.0894, 955.0868
381.5715, 921.2411
382.0536, 907.7538
382.5357, 915.5328
383.0178, 933.9835
383.4999, 959.3910
383.9821, 988.7493
384.4642, 1008.175
384.9463, 1009.055
385.4284, 1004.292
385.9105, 1014.363
386.3926, 1038.244
386.8748, 1067.843
387.3569, 1101.673
387.8390, 1136.776
388.3211, 1167.513
388.8032, 1191.127
389.2853, 1215.922
389.7675, 1245.543
390.2496, 1282.173
390.7317, 1330.476
391.2138, 1400.141
391.6959, 1477.415
392.1780, 1552.004
392.6602, 1621.819
393.1423, 1695.071
393.6244, 1776.603
394.1065, 1864.052
394.5886, 1955.620
395.0707, 2043.706
395.5529, 2141.443
396.0350, 2254.220
396.5171, 2382.130
396.9992, 2519.980
397.4813, 2688.656
397.9634, 2851.794
398.4456, 2985.282
398.9277, 3073.967
399.4098, 3145.357
399.8919, 3199.121
400.3740, 3236.782
400.8561, 3263.181
401.3383, 3261.091
401.8204, 3265.654
402.3025, 3291.152
402.7846, 3339.759
403.2667, 3406.033
403.7488, 3497.144
404.2310, 3600.480
404.7131, 3700.706
405.1952, 3810.052
405.6773, 3880.692
406.1594, 3899.383
406.6415, 3866.146
407.1237, 3772.339
407.6058, 3609.979
408.0879, 3411.447
408.5700, 3204.134
409.0521, 2986.964
409.5342, 2773.217
410.0164, 2562.608
410.4985, 2360.136
410.9806, 2179.556
411.4627, 2020.261
411.9448, 1884.036
412.4269, 1775.399
412.9091, 1688.916
413.3912, 1613.693
413.8733, 1547.856
414.3554, 1489.782
414.8375, 1440.021
415.3196, 1397.249
415.8018, 1358.036
416.2839, 1317.415
416.7660, 1281.301
417.2481, 1259.035
417.7302, 1251.671
418.2123, 1246.832
418.6945, 1237.674
419.1766, 1226.036
419.6587, 1214.413
420.1408, 1204.005
420.6229, 1193.348
421.1050, 1179.218
421.5872, 1162.768
422.0693, 1152.896
422.5514, 1157.479
423.0335, 1166.246
423.5156, 1172.674
423.9977, 1170.195
424.4799, 1173.143
424.9620, 1188.362
425.4441, 1209.975
425.9262, 1223.722
426.4083, 1223.272
426.8904, 1221.615
427.3726, 1219.803
427.8547, 1213.586
428.3368, 1228.964
428.8189, 1280.731
429.3010, 1339.528
429.7831, 1368.577
430.2653, 1356.650
430.7474, 1353.288
431.2295, 1369.619
431.7116, 1403.323
432.1937, 1444.626
432.6758, 1495.664
433.1580, 1544.344
433.6401, 1578.587
434.1222, 1600.043
434.6043, 1627.534
435.0864, 1665.078
435.5685, 1705.781
436.0507, 1736.568
436.5328, 1759.371
437.0149, 1785.372
437.4970, 1828.435
437.9791, 1876.197
438.4612, 1907.724
438.9434, 1921.897
439.4255, 1924.124
439.9076, 1914.894
440.3897, 1897.425
440.8718, 1877.341
441.3539, 1860.058
441.8361, 1837.320
442.3182, 1799.935
442.8003, 1751.047
443.2824, 1705.331
443.7645, 1673.909
444.2466, 1644.630
444.7288, 1609.541
445.2109, 1564.229
445.6930, 1518.860
446.1751, 1467.578
446.6572, 1418.552
447.1393, 1385.768
447.6215, 1391.833
448.1036, 1392.939
448.5857, 1376.352
449.0678, 1339.937
449.5499, 1307.453
450.0320, 1278.386
450.5142, 1254.185
450.9963, 1236.318
451.4784, 1225.471
451.9605, 1219.207
452.4426, 1217.669
452.9247, 1220.286
453.4069, 1226.126
453.8890, 1235.937
454.3711, 1245.337
454.8532, 1252.744
455.3353, 1258.032
455.8174, 1258.721
456.2996, 1253.776
456.7817, 1247.818
457.2638, 1247.708
457.7459, 1251.946
458.2281, 1254.362
458.7102, 1251.048
459.1923, 1245.642
459.6744, 1242.757
460.1565, 1242.417
460.6386, 1244.977
461.1208, 1255.936
461.6029, 1267.756
462.0850, 1271.028
462.5671, 1260.702
463.0492, 1249.310
463.5313, 1244.595
464.0135, 1243.789
464.4956, 1241.466
464.9777, 1237.283
465.4598, 1229.857
465.9419, 1217.578
466.4240, 1199.630
466.9062, 1182.568
467.3883, 1167.295
467.8704, 1153.336
468.3525, 1139.877
468.8346, 1122.725
469.3167, 1112.671
469.7989, 1114.842
470.2810, 1124.478
470.7631, 1124.631
471.2452, 1111.327
471.7273, 1096.326
472.2094, 1084.633
472.6916, 1076.635
473.1737, 1069.808
473.6558, 1064.779
474.1379, 1059.565
474.6200, 1050.157
475.1021, 1036.886
475.5843, 1027.281
476.0664, 1024.613
476.5485, 1026.175
477.0306, 1026.827
477.5127, 1026.525
477.9948, 1024.621
478.4770, 1017.268
478.9591, 1008.934
479.4412, 1007.986
479.9233, 1017.369
480.4054, 1027.328
480.8875, 1031.025
481.3697, 1029.749
481.8518, 1025.643
482.3339, 1013.590
482.8160, 1004.101
483.2981, 1005.557
483.7802, 1017.435
484.2624, 1024.205
484.7445, 1015.567
485.2266, 1004.414
485.7087, 998.9124
486.1908, 1006.001
486.6729, 1010.325
487.1551, 1010.503
487.6372, 1007.899
488.1193, 1004.945
488.6014, 1001.057
489.0835, 997.9459
489.5656, 995.8879
490.0478, 994.8994
490.5299, 996.7050
491.0120, 1002.584
491.4941, 1008.156
491.9762, 1008.672
492.4583, 1004.158
492.9405, 1001.955
493.4226, 1004.403
493.9047, 1007.606
494.3868, 1001.858
494.8689, 988.8854
495.3510, 980.2111
495.8332, 985.5444
496.3153, 997.9006
496.7974, 1006.358
497.2795, 1010.494
497.7616, 1014.312
498.2437, 1023.524
498.7259, 1033.226
499.2080, 1037.132
499.6901, 1027.696
500.1722, 1019.412
500.6543, 1019.746
501.1364, 1026.517
501.6186, 1033.862
502.1007, 1043.210
502.5828, 1050.115
503.0649, 1051.588
503.5470, 1044.858
504.0291, 1042.932
504.5113, 1050.069
504.9934, 1059.206
505.4755, 1063.474
505.9576, 1059.348
506.4397, 1058.781
506.9218, 1065.300
507.4040, 1075.756
507.8861, 1079.109
508.3682, 1074.011
508.8503, 1068.226
509.3324, 1065.181
509.8145, 1064.798
510.2967, 1068.373
510.7788, 1076.917
511.2609, 1082.898
511.7430, 1073.863
512.2252, 1055.359
512.7073, 1043.525
513.1894, 1045.766
513.6715, 1053.037
514.1536, 1055.805
514.6357, 1055.378
515.1179, 1056.277
515.6000, 1062.370
516.0821, 1069.699
516.5642, 1076.615
517.0463, 1083.630
517.5284, 1085.818
518.0106, 1074.705
518.4927, 1061.115
518.9748, 1055.753
519.4569, 1068.794
519.9390, 1079.792
520.4211, 1086.866
520.9033, 1090.381
521.3854, 1091.325
521.8675, 1087.971
522.3496, 1084.928
522.8317, 1084.015
523.3138, 1085.367
523.7960, 1087.646
524.2781, 1091.003
524.7602, 1094.970
525.2423, 1099.982
525.7244, 1105.809
526.2065, 1108.840
526.6887, 1107.426
527.1708, 1104.091
527.6529, 1102.394
528.1350, 1102.357
528.6171, 1104.100
529.0992, 1104.309
529.5814, 1108.118
530.0635, 1126.789
530.5456, 1161.666
531.0277, 1187.211
531.5098, 1178.838
531.9919, 1157.420
532.4741, 1143.354
532.9562, 1149.958
533.4383, 1154.668
533.9204, 1147.438
534.4025, 1134.076
534.8846, 1130.105
535.3668, 1149.447
535.8489, 1164.261
536.3310, 1164.578
536.8131, 1148.507
537.2952, 1143.126
537.7773, 1152.642
538.2595, 1165.881
538.7416, 1175.027
539.2237, 1180.193
539.7058, 1178.809
540.1879, 1168.698
540.6700, 1155.597
541.1522, 1149.333
541.6343, 1149.287
542.1164, 1151.194
542.5985, 1153.783
543.0806, 1156.740
543.5627, 1159.550
544.0449, 1162.209
544.5270, 1164.950
545.0091, 1169.652
545.4912, 1173.660
545.9733, 1173.028
546.4554, 1163.297
546.9376, 1158.485
547.4197, 1170.596
547.9018, 1189.606
548.3839, 1200.724
548.8660, 1195.993
549.3481, 1188.554
549.8303, 1178.167
550.3124, 1165.968
550.7945, 1163.371
551.2766, 1177.003
551.7587, 1190.057
552.2408, 1191.949
552.7230, 1179.361
553.2051, 1176.686
553.6872, 1186.461
554.1693, 1199.966
554.6514, 1206.871
555.1335, 1207.526
555.6157, 1205.031
556.0978, 1198.668
556.5799, 1191.568
557.0620, 1189.048
557.5441, 1190.393
558.0262, 1192.472
558.5084, 1195.477
558.9905, 1197.058
559.4726, 1193.659
559.9547, 1184.653
560.4368, 1177.712
560.9189, 1181.117
561.4011, 1185.839
561.8832, 1184.138
562.3653, 1165.561
562.8474, 1151.560
563.3295, 1147.492
563.8116, 1149.393
564.2938, 1150.395
564.7759, 1151.694
565.2580, 1149.781
565.7401, 1141.761
566.2222, 1128.509
566.7043, 1122.898
567.1865, 1126.544
567.6686, 1131.683
568.1507, 1131.877
568.6328, 1128.050
569.1149, 1126.793
569.5970, 1129.320
570.0792, 1132.016
570.5613, 1129.920
571.0434, 1124.665
571.5255, 1119.892
572.0076, 1115.713
572.4897, 1113.831
572.9719, 1116.429
573.4540, 1122.715
573.9361, 1129.670
574.4182, 1137.600
574.9003, 1144.579
575.3824, 1149.814
575.8646, 1153.451
576.3467, 1154.494
576.8288, 1151.143
577.3109, 1146.509
577.7930, 1142.647
578.2751, 1138.522
578.7573, 1138.407
579.2394, 1145.135
579.7215, 1153.769
580.2036, 1153.321
580.6857, 1143.186
581.1678, 1131.400
581.6500, 1118.430
582.1321, 1106.912
582.6142, 1106.571
583.0963, 1116.877
583.5784, 1128.797
584.0605, 1136.311
584.5427, 1141.299
585.0248, 1147.213
585.5069, 1155.668
585.9890, 1159.104
586.4711, 1148.175
586.9532, 1131.488
587.4354, 1119.069
587.9175, 1108.712
588.3996, 1108.252
588.8817, 1128.528
589.3638, 1161.264
589.8459, 1177.644
590.3281, 1165.716
590.8102, 1154.716
591.2923, 1155.843
591.7744, 1169.060
592.2565, 1175.647
592.7386, 1174.443
593.2208, 1170.557
593.7029, 1167.477
594.1850, 1165.247
594.6671, 1163.782
595.1492, 1162.614
595.6313, 1163.964
596.1135, 1173.587
596.5956, 1187.694
597.0777, 1197.969
597.5598, 1199.683
598.0419, 1197.861
598.5240, 1195.190
599.0062, 1191.769
599.4883, 1187.822
599.9704, 1180.545
600.4525, 1175.228
600.9346, 1175.236
601.4167, 1182.232
601.8989, 1186.715
602.3810, 1186.297
602.8631, 1185.537
603.3452, 1187.892
603.8273, 1194.008
604.3094, 1200.799
604.7916, 1208.818
605.2737, 1216.121
605.7558, 1217.759
606.2379, 1214.417
606.7200, 1215.437
607.2021, 1227.408
607.6843, 1242.522
608.1664, 1246.136
608.6485, 1240.601
609.1306, 1237.478
609.6127, 1247.358
610.0948, 1260.208
610.5770, 1267.681
611.0591, 1268.825
611.5412, 1268.769
612.0233, 1270.158
612.5054, 1270.579
612.9875, 1268.044
613.4697, 1252.463
613.9518, 1248.836
614.4339, 1263.468
614.9160, 1285.875
615.3981, 1299.254
615.8802, 1302.297
616.3624, 1301.368
616.8445, 1296.896
617.3266, 1290.278
617.8087, 1286.045
618.2908, 1284.070
618.7729, 1281.563
619.2551, 1275.813
619.7372, 1268.859
620.2193, 1263.697
620.7014, 1260.496
621.1835, 1258.840
621.6656, 1259.024
622.1478, 1260.331
622.6299, 1262.172
623.1120, 1264.685
623.5941, 1267.254
624.0762, 1272.144
624.5583, 1276.203
625.0405, 1274.472
625.5226, 1260.230
626.0047, 1251.834
626.4868, 1255.279
626.9689, 1265.669
627.4510, 1263.324
627.9332, 1245.083
628.4153, 1232.151
628.8974, 1241.253
629.3795, 1263.707
629.8616, 1262.185
630.3438, 1237.017
630.8259, 1213.578
631.3080, 1216.446
631.7901, 1231.521
632.2722, 1239.682
632.7543, 1236.928
633.2365, 1231.015
633.7186, 1225.134
634.2007, 1218.845
634.6828, 1211.651
635.1649, 1201.357
635.6470, 1192.746
636.1292, 1186.250
636.6113, 1181.839
637.0934, 1180.122
637.5755, 1183.087
638.0576, 1183.894
638.5397, 1179.464
639.0219, 1171.129
639.5040, 1165.760
639.9861, 1163.384
640.4682, 1163.409
640.9503, 1169.464
641.4324, 1176.839
641.9146, 1172.396
642.3967, 1154.725
642.8788, 1138.736
643.3609, 1138.991
643.8430, 1146.049
644.3251, 1148.864
644.8073, 1139.949
645.2894, 1135.701
645.7715, 1148.305
646.2536, 1166.541
646.7357, 1172.560
647.2178, 1158.274
647.7000, 1143.124
648.1821, 1127.972
648.6642, 1114.679
649.1463, 1111.057
649.6284, 1118.675
650.1105, 1127.243
650.5927, 1131.604
651.0748, 1133.181
651.5569, 1138.265
652.0390, 1146.656
652.5211, 1152.276
653.0032, 1148.967
653.4854, 1140.973
653.9675, 1132.960
654.4496, 1125.507
654.9317, 1118.680
655.4138, 1110.931
655.8959, 1104.549
656.3781, 1101.948
656.8602, 1107.823
657.3423, 1111.810
657.8244, 1111.985
658.3065, 1110.678
658.7886, 1112.789
659.2708, 1120.508
659.7529, 1123.781
660.2350, 1118.554
660.7171, 1108.220
661.1992, 1101.889
661.6813, 1099.410
662.1635, 1099.260
662.6456, 1103.344
663.1277, 1107.921
663.6099, 1106.309
664.0920, 1098.833
664.5741, 1092.068
665.0562, 1090.466
665.5383, 1090.689
666.0204, 1090.710
666.5026, 1090.954
666.9847, 1088.716
667.4668, 1081.061
667.9489, 1072.364
668.4310, 1065.468
668.9131, 1059.158
669.3953, 1059.318
669.8774, 1069.965
670.3595, 1082.365
670.8416, 1077.965
671.3237, 1058.054
671.8058, 1042.964
672.2880, 1039.641
672.7701, 1044.337
673.2522, 1057.036
673.7343, 1074.205
674.2164, 1083.927
674.6985, 1072.791
675.1807, 1057.864
675.6628, 1050.008
676.1449, 1049.342
676.6270, 1050.284
677.1091, 1056.534
677.5912, 1059.619
678.0734, 1053.499
678.5555, 1033.861
679.0376, 1027.904
679.5197, 1040.991
680.0018, 1056.880
680.4839, 1059.824
680.9661, 1050.797
681.4482, 1043.623
681.9303, 1040.502
682.4124, 1037.489
682.8945, 1026.789
683.3766, 1013.103
683.8588, 1006.202
684.3409, 1012.403
684.8230, 1021.654
685.3051, 1032.043
685.7872, 1041.041
686.2693, 1043.367
686.7515, 1029.332
687.2336, 1018.088
687.7157, 1014.295
688.1978, 1016.897
688.6799, 1020.926
689.1620, 1028.208
689.6442, 1031.628
690.1263, 1026.086
690.6084, 1013.355
691.0905, 1004.607
691.5726, 999.9086
692.0547, 997.6345
692.5369, 998.3348
693.0190, 999.9381
693.5011, 998.7654
693.9832, 993.9585
694.4653, 990.5771
694.9474, 992.7599
695.4296, 996.9113
695.9117, 999.8784
696.3938, 1001.026
696.8759, 1001.078
697.3580, 999.0272
697.8401, 996.7354
698.3223, 997.1396
698.8044, 1001.441
699.2865, 1002.887
699.7686, 999.3044
700.2507, 993.7807
700.7328, 992.2570
701.2150, 994.2760
701.6971, 997.5475
702.1792, 1003.841
702.6613, 1008.476
703.1434, 1004.089
703.6255, 993.3178
704.1077, 985.5792
704.5898, 990.2890
705.0719, 994.1396
705.5540, 989.1243
706.0361, 974.4345
706.5182, 966.0125
707.0004, 966.3690
707.4825, 969.6072
707.9646, 973.2067
708.4467, 977.2501
708.9288, 980.8931
709.4109, 984.2715
709.8931, 986.6404
710.3752, 987.5835
710.8573, 986.9625
711.3394, 983.7277
711.8215, 977.1369
712.3036, 971.2798
712.7858, 968.5378
713.2679, 968.4389
713.7500, 970.6049
714.2321, 977.9555
714.7142, 983.1586
715.1964, 985.0496
715.6785, 983.9110
716.1606, 978.9774
716.6427, 967.0463
717.1248, 960.3489
717.6069, 962.4778
718.0891, 969.7181
718.5712, 973.6408
719.0533, 974.5342
719.5354, 974.7533
720.0175, 977.2168
720.4996, 978.0505
720.9818, 968.5753
721.4639, 952.2200
721.9460, 941.7436
722.4281, 948.6388
722.9102, 958.1337
723.3923, 963.5908
723.8745, 964.5414
724.3566, 963.4971
724.8387, 958.3478
725.3208, 954.3002
725.8029, 954.0181
726.2850, 957.6177
726.7672, 961.2648
727.2493, 965.0106
727.7314, 968.4309
728.2135, 970.6975
728.6956, 972.3773
729.1777, 975.2693
729.6599, 979.6862
730.1420, 983.4642
730.6241, 987.0898
731.1062, 988.2077
731.5883, 983.5366
732.0704, 966.3060
732.5526, 955.1457
733.0347, 955.7911
733.5168, 962.6821
733.9989, 971.8431
734.4810, 986.2097
734.9631, 992.2552
735.4453, 985.9117
735.9274, 974.5942
736.4095, 970.5958
736.8916, 973.1912
737.3737, 978.6852
737.8558, 989.4010
738.3380, 997.2201
738.8201, 989.2770
739.3022, 971.7629
739.7843, 958.9557
740.2664, 959.2859
740.7485, 962.4653
741.2307, 965.4023
741.7128, 968.1212
742.1949, 971.0466
742.6770, 974.0508
743.1591, 977.6277
743.6412, 982.6232
744.1234, 988.3990
744.6055, 990.5085
745.0876, 988.9450
745.5697, 987.1821
746.0518, 985.5612
746.5339, 985.9129
747.0161, 995.1197
747.4982, 1012.016
747.9803, 1020.416
748.4624, 1000.321
748.9445, 977.1998
749.4266, 968.8211
749.9088, 981.3158
750.3909, 987.1634
750.8730, 981.0557
751.3551, 973.9703
751.8372, 972.7930
752.3193, 977.7856
752.8015, 988.8099
753.2836, 1007.860
753.7657, 1022.945
754.2478, 1015.593
754.7299, 996.3910
755.2120, 989.8550
755.6942, 1002.953
756.1763, 1016.205
756.6584, 1016.043
757.1405, 1009.349
757.6226, 1003.234
758.1047, 993.5702
758.5869, 993.2133
759.0690, 1009.802
759.5511, 1030.279
760.0332, 1036.451
760.5153, 1025.704
760.9974, 1017.901
761.4796, 1017.480
761.9617, 1018.753
762.4438, 1009.573
762.9259, 994.1281
763.4080, 985.9019
763.8901, 995.3912
764.3723, 1005.991
764.8544, 1003.665
765.3365, 994.1351
765.8186, 989.1283
766.3007, 993.2407
766.7828, 1000.257
767.2650, 1009.469
767.7471, 1020.435
768.2292, 1033.510
768.7113, 1050.710
769.1934, 1058.689
769.6755, 1048.781
770.1577, 1029.091
770.6398, 1017.424
771.1219, 1013.343
771.6040, 1014.678
772.0861, 1026.742
772.5682, 1038.322
773.0504, 1038.084
773.5325, 1028.279
774.0146, 1024.124
774.4967, 1033.964
774.9788, 1045.554
775.4609, 1055.205
775.9431, 1062.920
776.4252, 1069.698
776.9073, 1075.309
777.3894, 1081.063
777.8715, 1089.929
778.3536, 1099.439
778.8358, 1098.803
779.3179, 1088.799
779.8000, 1082.653
780.2821, 1094.616
780.7642, 1110.466
781.2463, 1118.236
781.7285, 1116.157
782.2106, 1113.359
782.6927, 1108.422
783.1748, 1106.260
783.6569, 1109.902
784.1390, 1120.037
784.6212, 1130.462
785.1033, 1141.587
785.5854, 1151.222
786.0675, 1156.635
786.5496, 1159.250
787.0317, 1161.982
787.5139, 1164.946
787.9960, 1171.276
788.4781, 1187.889
788.9602, 1206.056
789.4423, 1217.700
789.9244, 1219.352
790.4066, 1219.969
790.8887, 1216.118
791.3708, 1215.887
791.8529, 1227.533
792.3350, 1253.697
792.8171, 1273.720
793.2993, 1285.904
793.7814, 1295.462
794.2635, 1307.574
794.7456, 1321.738
795.2277, 1337.282
795.7098, 1354.443
796.1920, 1372.029
796.6741, 1389.087
797.1562, 1406.513
797.6383, 1425.291
798.1204, 1448.170
798.6025, 1468.750
799.0847, 1486.247
799.5668, 1502.272
800.0489, 1515.570
800.5310, 1525.487
801.0131, 1549.755
801.4952, 1593.631
801.9774, 1643.946
802.4595, 1685.208
802.9416, 1719.987
803.4237, 1752.362
803.9058, 1779.378
804.3879, 1811.901
804.8701, 1860.418
805.3522, 1915.542
805.8343, 1963.544
806.3164, 1994.091
806.7985, 2035.548
807.2806, 2092.164
807.7628, 2157.588
808.2449, 2219.086
808.7270, 2277.963
809.2091, 2351.109
809.6912, 2442.568
810.1733, 2547.321
810.6555, 2657.368
811.1376, 2776.898
811.6197, 2912.993
812.1018, 3067.769
812.5839, 3239.582
813.0660, 3417.287
813.5482, 3618.172
814.0303, 3861.839
814.5124, 4154.108
814.9945, 4476.389
815.4766, 4822.962
815.9587, 5202.982
816.4409, 5625.769
816.9230, 6098.553
817.4051, 6629.328
817.8872, 7232.333
818.3693, 7888.666
818.8514, 8578.544
819.3336, 9310.457
819.8157, 10110.28
820.2978, 10996.87
820.7799, 11943.26
821.2620, 12924.79
821.7441, 13959.64
822.2263, 15096.48
822.7084, 16327.80
823.1905, 17655.70
823.6726, 19119.23
824.1547, 20603.95
824.6368, 22112.25
825.1190, 23501.44
825.6011, 24502.24
826.0832, 25145.10
826.5653, 25191.63
827.0474, 24423.12
827.5295, 23006.18
828.0117, 21192.21
828.4938, 18769.95
828.9760, 16420.59
829.4581, 14192.04
829.9402, 12122.12
830.4223, 10325.10
830.9044, 8802.328
831.3865, 7504.814
831.8687, 6448.039
832.3508, 5576.872
832.8329, 4894.793
833.3150, 4365.200
833.7971, 3922.179
834.2792, 3582.130
834.7614, 3287.864
835.2435, 3032.206
835.7256, 2810.492
836.2077, 2619.220
836.6898, 2461.396
837.1719, 2322.088
837.6541, 2199.581
838.1362, 2093.009
838.6183, 2003.237
839.1004, 1927.536
839.5825, 1856.280
840.0646, 1785.158
840.5468, 1719.640
841.0289, 1664.760
841.5110, 1616.348
841.9931, 1568.941
842.4752, 1515.733
842.9573, 1472.584
843.4395, 1442.867
843.9216, 1421.209
844.4037, 1400.955
844.8858, 1381.871
845.3679, 1360.891
845.8500, 1337.027
846.3322, 1312.096
846.8143, 1285.648
847.2964, 1260.253
847.7785, 1239.890
848.2606, 1226.369
848.7427, 1217.365
849.2249, 1218.203
849.7070, 1220.139
850.1891, 1213.136
850.6712, 1195.656
851.1533, 1174.054
851.6354, 1146.201
852.1176, 1121.889
852.5997, 1117.464
853.0818, 1126.396
853.5639, 1131.631
854.0460, 1129.404
854.5281, 1123.337
855.0103, 1114.866
855.4924, 1104.173
855.9745, 1091.237
856.4566, 1072.360
856.9387, 1057.519
857.4208, 1046.498
857.9030, 1040.001
858.3851, 1042.812
858.8672, 1053.204
859.3493, 1050.311
859.8314, 1030.232
860.3135, 1009.637
860.7957, 1006.055
861.2778, 1009.541
861.7599, 1008.186
862.2420, 998.2155
862.7241, 989.3655
863.2062, 983.6443
863.6884, 980.0951
864.1705, 979.0653
864.6526, 981.6458
865.1347, 978.9333
865.6168, 969.9643
866.0989, 960.9355
866.5811, 957.4114
867.0632, 957.5983
867.5453, 959.6322
868.0274, 963.4129
868.5095, 963.6226
868.9916, 952.3557
869.4738, 940.7640
869.9559, 936.9033
870.4380, 941.5486
870.9201, 947.4451
871.4022, 956.3409
871.8843, 961.6985
872.3665, 955.2700
872.8486, 941.6773
873.3307, 940.4142
873.8128, 950.6628
874.2949, 960.4019
874.7770, 960.1675
875.2592, 957.8572
875.7413, 959.0999
876.2234, 964.1030
876.7055, 968.7566
877.1876, 973.2035
877.6697, 976.3474
878.1519, 977.1503
878.6340, 976.3593
879.1161, 977.2249
879.5982, 979.7781
880.0803, 984.5177
880.5624, 994.4819
881.0446, 1004.666
881.5267, 1008.892
882.0088, 1008.869
882.4909, 1010.651
882.9730, 1016.166
883.4551, 1023.795
883.9373, 1034.350
884.4194, 1046.266
884.9015, 1054.113
885.3836, 1057.510
885.8657, 1062.583
886.3478, 1069.682
886.8300, 1082.045
887.3121, 1112.941
887.7942, 1151.772
888.2763, 1176.404
888.7584, 1162.017
889.2405, 1151.401
889.7227, 1161.394
890.2048, 1180.832
890.6869, 1192.799
891.1690, 1193.158
891.6511, 1205.545
892.1332, 1236.861
892.6154, 1270.901
893.0975, 1283.377
893.5796, 1281.132
894.0617, 1279.264
894.5438, 1280.085
895.0259, 1285.678
895.5081, 1302.530
895.9902, 1321.724
896.4723, 1333.660
896.9544, 1334.577
897.4365, 1337.613
897.9186, 1342.816
898.4008, 1350.312
898.8829, 1364.330
899.3650, 1380.795
899.8471, 1384.130
900.3292, 1372.575
900.8113, 1361.636
901.2935, 1365.199
901.7756, 1371.139
902.2577, 1370.049
902.7398, 1359.709
903.2219, 1349.047
903.7040, 1337.900
904.1862, 1326.832
904.6683, 1316.810
905.1504, 1307.300
905.6325, 1293.905
906.1146, 1277.122
906.5967, 1261.814
907.0789, 1251.610
907.5610, 1243.443
908.0431, 1236.741
908.5252, 1230.663
909.0073, 1219.453
909.4894, 1195.786
909.9716, 1178.231
910.4537, 1173.567
910.9358, 1177.003
911.4179, 1176.164
911.9000, 1170.831
912.3821, 1158.749
912.8643, 1133.905
913.3464, 1109.256
913.8285, 1098.170
914.3106, 1095.419
914.7927, 1091.617
915.2748, 1081.872
915.7570, 1074.798
916.2391, 1073.204
916.7212, 1072.669
917.2033, 1065.377
917.6854, 1051.882
918.1675, 1042.936
918.6497, 1040.697
919.1318, 1041.339
919.6139, 1041.708
920.0960, 1042.390
920.5781, 1044.257
921.0602, 1048.085
921.5424, 1051.328
922.0245, 1055.660
922.5066, 1057.066
922.9887, 1051.774
923.4708, 1039.612
923.9529, 1027.734
924.4351, 1015.987
924.9172, 1008.647
925.3993, 1012.283
925.8814, 1019.995
926.3635, 1025.447
926.8456, 1028.142
927.3278, 1027.708
927.8099, 1017.468
928.2920, 1011.915
928.7741, 1018.358
929.2562, 1033.095
929.7383, 1035.467
930.2205, 1025.582
930.7026, 1019.688
931.1847, 1030.045
931.6668, 1042.814
932.1489, 1038.637
932.6310, 1025.145
933.1132, 1019.630
933.5953, 1036.226
934.0774, 1049.759
934.5595, 1055.631
935.0416, 1057.036
935.5237, 1057.820
936.0059, 1058.036
936.4880, 1064.301
936.9701, 1079.617
937.4522, 1093.430
937.9343, 1089.799
938.4164, 1080.376
938.8986, 1080.109
939.3807, 1094.530
939.8628, 1111.181
940.3449, 1133.552
940.8270, 1151.647
941.3091, 1157.218
941.7913, 1150.029
942.2734, 1142.346
942.7555, 1134.109
943.2376, 1134.409
943.7197, 1159.661
944.2018, 1190.380
944.6840, 1204.543
945.1661, 1203.022
945.6482, 1206.185
946.1303, 1222.335
946.6124, 1239.119
947.0945, 1253.658
947.5767, 1266.146
948.0588, 1274.868
948.5409, 1280.654
949.0230, 1293.789
949.5051, 1325.107
949.9872, 1355.428
950.4694, 1359.635
950.9515, 1351.950
951.4336, 1356.822
951.9157, 1391.604
952.3978, 1423.457
952.8799, 1450.281
953.3621, 1473.912
953.8442, 1496.829
954.3263, 1518.682
954.8084, 1534.228
955.2905, 1541.797
955.7726, 1552.683
956.2548, 1583.909
956.7369, 1617.914
957.2190, 1637.285
957.7011, 1636.970
958.1832, 1639.109
958.6653, 1642.880
959.1475, 1652.278
959.6296, 1671.638
960.1117, 1698.212
960.5938, 1720.124
961.0759, 1737.547
961.5580, 1752.845
962.0402, 1766.490
962.5223, 1779.080
963.0044, 1788.940
963.4865, 1797.974
963.9686, 1812.053
964.4507, 1830.945
964.9329, 1856.859
965.4150, 1892.862
965.8971, 1931.829
966.3792, 1956.465
966.8613, 1973.925
967.3434, 2005.202
967.8256, 2059.440
968.3077, 2116.487
968.7898, 2161.613
969.2719, 2208.301
969.7540, 2267.641
970.2361, 2339.793
970.7183, 2425.895
971.2004, 2527.588
971.6825, 2639.699
972.1646, 2759.973
972.6467, 2887.414
973.1288, 3012.594
973.6110, 3139.849
974.0931, 3294.401
974.5752, 3489.662
975.0573, 3713.782
975.5394, 3960.170
976.0215, 4227.278
976.5037, 4526.587
976.9858, 4856.882
977.4679, 5216.246
977.9500, 5602.056
978.4321, 6028.981
978.9142, 6518.541
979.3964, 7064.179
979.8785, 7654.534
980.3606, 8280.853
980.8427, 8964.156
981.3248, 9711.771
981.8069, 10506.81
982.2891, 11340.19
982.7712, 12209.48
983.2533, 13163.77
983.7354, 14199.40
984.2175, 15270.16
984.6996, 16356.01
985.1818, 17444.05
985.6639, 18543.69
986.1460, 19650.25
986.6281, 20671.50
987.1102, 21643.46
987.5923, 22469.96
988.0745, 23145.42
988.5566, 23643.19
989.0387, 23864.91
989.5208, 23835.61
990.0029, 23664.85
990.4850, 23366.16
990.9672, 22984.53
991.4493, 22463.92
991.9314, 21911.02
992.4135, 21475.33
992.8957, 21196.77
993.3778, 20946.77
993.8599, 20722.54
994.3420, 20523.82
994.8242, 20405.87
995.3063, 20298.66
995.7884, 20086.81
996.2705, 19757.45
996.7526, 19242.29
997.2347, 18493.33
997.7169, 17562.48
998.1990, 16427.52
998.6811, 15145.80
999.1632, 13880.90
999.6453, 12624.07
1000.127, 11449.83
1000.610, 10365.88
1001.092, 9386.313
1001.574, 8540.206
1002.056, 7818.510
1002.538, 7207.828
1003.020, 6747.707
1003.502, 6334.575
1003.984, 5973.429
1004.466, 5639.684
1004.949, 5318.316
1005.431, 5006.130
1005.913, 4694.146
1006.395, 4381.731
1006.877, 4088.950
1007.359, 3834.039
1007.841, 3601.306
1008.323, 3382.303
1008.806, 3176.243
1009.288, 2990.947
1009.770, 2828.328
1010.252, 2687.260
1010.734, 2571.471
1011.216, 2474.581
1011.698, 2387.768
1012.180, 2308.424
1012.662, 2228.103
1013.145, 2136.434
1013.627, 2056.712
1014.109, 2002.804
1014.591, 1961.447
1015.073, 1922.855
1015.555, 1887.847
1016.037, 1843.866
1016.519, 1789.261
1017.002, 1739.547
1017.484, 1711.983
1017.966, 1692.290
1018.448, 1664.833
1018.930, 1629.716
1019.412, 1595.432
1019.894, 1559.324
1020.376, 1531.203
1020.858, 1516.118
1021.341, 1508.296
1021.823, 1496.366
1022.305, 1480.258
1022.787, 1458.593
1023.269, 1428.232
1023.751, 1399.772
1024.233, 1379.308
1024.715, 1364.701
1025.198, 1353.632
1025.680, 1345.966
1026.162, 1342.478
1026.644, 1344.751
1027.126, 1343.161
1027.608, 1328.792
1028.090, 1306.792
1028.572, 1281.439
1029.054, 1254.767
1029.536, 1235.851
1030.019, 1236.550
1030.501, 1234.276
1030.983, 1221.735
1031.465, 1204.709
1031.947, 1196.069
1032.429, 1194.594
1032.911, 1186.744
1033.393, 1168.265
1033.876, 1151.431
1034.358, 1149.585
1034.840, 1152.473
1035.322, 1150.243
1035.804, 1141.033
1036.286, 1132.657
1036.768, 1125.719
1037.250, 1117.541
1037.733, 1104.183
1038.215, 1089.953
1038.697, 1086.175
1039.179, 1089.705
1039.661, 1090.519
1040.143, 1081.637
1040.625, 1072.710
1041.107, 1064.454
1041.589, 1058.804
1042.072, 1060.576
1042.554, 1069.791
1043.036, 1072.615
1043.518, 1067.578
1044.000, 1057.442
1044.482, 1035.965
1044.964, 1016.941
1045.446, 1015.956
1045.928, 1034.465
1046.411, 1043.539
1046.893, 1038.767
1047.375, 1034.041
1047.857, 1035.181
1048.339, 1037.823
1048.821, 1030.097
1049.303, 1016.763
1049.785, 1010.303
1050.268, 1019.672
1050.750, 1027.288
1051.232, 1028.399
1051.714, 1024.353
1052.196, 1014.038
1052.678, 996.9094
1053.160, 988.3867
1053.642, 988.6866
1054.125, 986.8649
1054.607, 970.3774
1055.089, 952.5040
1055.571, 945.0620
1056.053, 946.2984
1056.535, 947.1920
1057.017, 947.0792
1057.499, 946.9179
1057.981, 947.7033
1058.464, 946.5943
1058.946, 935.7112
1059.428, 920.6281
1059.910, 914.8072
1060.392, 922.2960
1060.874, 926.6984
1061.356, 917.4050
1061.838, 907.8029
1062.320, 904.8000
1062.803, 907.3604
1063.285, 907.1937
1063.767, 904.5624
1064.249, 902.6697
1064.731, 904.4358
1065.213, 905.6990
1065.695, 903.0570
1066.177, 897.8666
1066.660, 891.9014
1067.142, 883.5250
1067.624, 879.8377
1068.106, 882.0469
1068.588, 885.0457
1069.070, 883.6579
1069.552, 880.0008
1070.034, 876.3019
1070.516, 873.1360
1070.999, 873.7058
1071.481, 888.6436
1071.963, 894.7654
1072.445, 883.0161
1072.927, 862.2678
1073.409, 850.2526
1073.891, 846.1710
1074.373, 847.7585
1074.855, 856.1271
1075.338, 862.2525
1075.820, 856.4542
1076.302, 848.7910
1076.784, 848.3131
1077.266, 855.3915
1077.748, 859.5204
1078.230, 860.9387
1078.713, 856.4578
1079.195, 837.3611
1079.677, 818.8112
1080.159, 826.4213
1080.641, 847.7960
1081.123, 858.8434
1081.605, 842.5159
1082.087, 831.6719
1082.569, 827.7325
1083.052, 828.1577
1083.534, 832.3084
1084.016, 838.3995
1084.498, 840.9832
1084.980, 840.1322
1085.462, 840.1417
1085.944, 844.6507
1086.426, 848.7478
1086.908, 850.7413
1087.391, 850.9903
1087.873, 849.7097
1088.355, 847.0333
1088.837, 845.7422
1089.319, 846.7362
1089.801, 847.8050
1090.283, 850.6305
1090.765, 850.1767
1091.248, 838.1816
1091.730, 812.7715
1092.212, 802.1687
1092.694, 809.0601
1093.176, 818.0164
1093.658, 821.2947
1094.140, 823.1541
1094.622, 832.7084
1095.104, 845.4174
1095.587, 852.2079
1096.069, 846.8145
1096.551, 840.6942
1097.033, 833.6707
1097.515, 827.7625
1097.997, 825.7228
1098.479, 826.2697
1098.961, 823.2984
1099.443, 817.4297
1099.926, 814.2931
1100.408, 823.0349
1100.890, 827.9681
1101.372, 819.5499
1101.854, 805.1271
1102.336, 798.5001
1102.818, 799.3628
1103.300, 798.1789
1103.783, 793.2819
1104.265, 788.6906
1104.747, 788.9458
1105.229, 790.2212
1105.711, 789.7960
1106.193, 787.4354
1106.675, 781.5092
1107.157, 770.2421
1107.640, 764.7848
1108.122, 770.0225
1108.604, 781.1102
1109.086, 796.2001
1109.568, 810.5082
1110.050, 815.8323
1110.532, 806.0004
1111.014, 798.4097
1111.496, 794.1652
1111.979, 792.1744
1112.461, 792.7426
1112.943, 794.6603
1113.425, 794.2047
1113.907, 791.7614
1114.389, 788.7055
1114.871, 783.2006
1115.353, 780.5178
1115.835, 784.1609
1116.318, 789.1083
1116.800, 789.6758
1117.282, 786.2359
1117.764, 782.3208
1118.246, 778.1818
1118.728, 773.3972
1119.210, 764.7335
1119.692, 758.2283
1120.175, 760.8235
1120.657, 768.3127
1121.139, 767.9593
1121.621, 758.9172
1122.103, 751.8375
1122.585, 749.0333
1123.067, 747.2129
1123.549, 741.5894
1124.031, 736.1480
1124.514, 736.1262
1124.996, 742.7383
1125.478, 745.2359
1125.960, 742.5706
1126.442, 738.8827
1126.924, 734.8165
1127.406, 732.0400
1127.888, 736.4103
1128.370, 743.1317
1128.853, 743.0795
1129.335, 728.9866
1129.817, 720.6396
1130.299, 721.7992
1130.781, 724.8738
1131.263, 724.9638
1131.745, 723.1064
1132.227, 721.8468
1132.710, 721.4727
1133.192, 723.0378
1133.674, 732.7554
1134.156, 736.6348
1134.638, 727.3870
1135.120, 714.8318
1135.602, 709.0305
1136.084, 709.4043
1136.567, 713.3280
1137.049, 720.3015
1137.531, 724.9942
1138.013, 723.3034
1138.495, 719.0771
1138.977, 711.9531
1139.459, 704.5496
1139.941, 703.4677
1140.423, 708.9672
1140.906, 709.7474
1141.388, 703.1902
1141.870, 698.8484
1142.352, 710.1780
1142.834, 723.3174
1143.316, 725.1524
1143.798, 716.2264
1144.280, 712.1827
1144.762, 713.9998
1145.245, 714.7061
1145.727, 711.3937
1146.209, 708.2501
1146.691, 713.8837
1147.173, 720.8029
1147.655, 717.6233
1148.137, 697.9579
1148.619, 690.8104
1149.102, 700.6250
1149.584, 709.6163
1150.066, 708.5275
1150.548, 701.6587
1151.030, 693.7522
1151.512, 686.2385
1151.994, 681.9368
1152.476, 681.9828
1152.958, 685.4914
1153.441, 694.5181
1153.923, 702.5907
1154.405, 704.5059
1154.887, 701.9125
1155.369, 698.1633
1155.851, 693.9164
1156.333, 691.5393
1156.815, 695.8548
1157.297, 696.5654
1157.780, 690.1836
1158.262, 681.9293
1158.744, 678.4834
1159.226, 678.4738
1159.708, 673.5199
1160.190, 664.0416
1160.672, 660.9892
1161.154, 679.7768
1161.637, 695.0581
1162.119, 695.7801
1162.601, 688.2636
1163.083, 683.1220
1163.565, 680.1025
1164.047, 676.8251
1164.529, 672.8902
1165.011, 670.2285
1165.494, 670.0122
1165.976, 671.7409
1166.458, 676.8591
1166.940, 683.3891
1167.422, 682.6249
1167.904, 674.8027
1168.386, 671.3917
1168.868, 676.3571
1169.350, 681.4167
1169.833, 679.7875
1170.315, 675.1764
1170.797, 670.7433
1171.279, 666.5852
1171.761, 658.3604
1172.243, 645.5984
1172.725, 641.6086
1173.207, 655.5995
1173.689, 671.8631
1174.172, 674.7192
1174.654, 671.2375
1175.136, 670.2167
1175.618, 673.2643
1176.100, 671.5290
1176.582, 664.1591
1177.064, 659.3315
1177.546, 664.9694
1178.029, 671.8069
1178.511, 667.2885
1178.993, 657.3755
1179.475, 653.3688
1179.957, 660.2753
1180.439, 661.7560
1180.921, 656.5557
1181.403, 651.8338
1181.885, 654.7491
1182.368, 660.0660
1182.850, 661.8279
1183.332, 660.2547
1183.814, 655.6939
1184.296, 644.0851
1184.778, 639.4905
1185.260, 643.7207
1185.742, 651.9446
1186.224, 664.3358
1186.707, 674.5784
1187.189, 668.3091
1187.671, 649.6160
1188.153, 643.2588
1188.635, 665.1882
1189.117, 674.6991
1189.599, 662.7453
1190.081, 645.7301
1190.564, 645.1584
1191.046, 653.0945
1191.528, 657.3814
1192.010, 657.0205
1192.492, 655.9980
1192.974, 654.9596
1193.456, 653.4623
1193.938, 650.8836
1194.421, 648.9387
1194.903, 652.3986
1195.385, 657.6572
1195.867, 657.2471
1196.349, 649.6085
1196.831, 643.6181
1197.313, 641.7438
1197.795, 640.4316
1198.277, 638.1301
1198.760, 636.3875
1199.242, 639.8668
1199.724, 645.7209
1200.206, 647.5718
1200.688, 642.9911
1201.170, 639.7711
1201.652, 639.8342
1202.134, 640.5357
1202.616, 640.6755
1203.099, 640.7972
1203.581, 643.4639
1204.063, 647.0039
1204.545, 646.6712
1205.027, 638.3580
1205.509, 634.9351
1205.991, 642.1760
1206.473, 648.0961
1206.956, 644.7273
1207.438, 636.1486
1207.920, 632.8748
1208.402, 634.0347
1208.884, 637.3955
1209.366, 644.9047
1209.848, 648.9376
1210.330, 646.8826
1210.813, 644.1547
1211.295, 645.0603
1211.777, 648.1280
1212.259, 647.8513
1212.741, 645.5071
1213.223, 645.0260
1213.705, 649.9167
1214.187, 653.9590
1214.669, 656.3362
1215.151, 657.7963
1215.634, 659.4400
1216.116, 660.5344
1216.598, 657.8632
1217.080, 652.4706
1217.562, 648.6560
1218.044, 648.9854
1218.526, 649.8953
1219.008, 650.8768
1219.491, 652.1057
1219.973, 654.6416
1220.455, 657.3295
1220.937, 656.2986
1221.419, 652.1584
1221.901, 648.8439
1222.383, 647.6450
1222.865, 648.1298
1223.348, 651.2625
1223.830, 654.0203
1224.312, 652.7432
1224.794, 648.4479
1225.276, 641.8110
1225.758, 633.7332
1226.240, 629.5468
1226.722, 635.8787
1227.204, 639.4451
1227.687, 637.3220
1228.169, 633.7781
1228.651, 635.2150
1229.133, 639.0867
1229.615, 640.2092
1230.097, 638.2989
1230.579, 635.8354
1231.061, 631.0712
1231.543, 630.3834
1232.026, 636.1884
1232.508, 643.7909
1232.990, 647.5562
1233.472, 647.9708
1233.954, 644.5036
1234.436, 637.3791
1234.918, 633.5043
1235.400, 636.7811
1235.883, 636.9232
1236.365, 630.3846
1236.847, 622.6282
1237.329, 621.1544
1237.811, 624.0557
1238.293, 629.8607
1238.775, 638.4384
1239.257, 642.6606
1239.740, 640.2161
1240.222, 638.7281
1240.704, 640.4932
1241.186, 643.5184
1241.668, 646.1921
1242.150, 647.7302
1242.632, 645.8161
1243.114, 639.8881
1243.596, 639.8721
1244.079, 649.0189
1244.561, 652.2550
1245.043, 642.5286
1245.525, 631.5765
1246.007, 637.4998
1246.489, 649.0240
1246.971, 651.4132
1247.453, 641.9164
1247.936, 637.8547
1248.418, 640.5403
1248.900, 640.0165
1249.382, 630.8846
1249.864, 622.8401
1250.346, 629.5503
1250.828, 641.6197
1251.310, 648.9787
1251.792, 650.9393
1252.275, 649.3654
1252.757, 643.8724
1253.239, 641.3723
1253.721, 645.7178
1254.203, 650.3963
1254.685, 649.1334
1255.167, 645.3212
1255.649, 641.8050
1256.131, 638.7852
1256.614, 638.7948
1257.096, 641.7319
1257.578, 642.4978
1258.060, 637.6838
1258.542, 633.9094
1259.024, 638.1088
1259.506, 643.6718
1259.988, 644.3099
1260.471, 640.7678
1260.953, 642.1704
1261.435, 647.8943
1261.917, 653.4073
1262.399, 658.2692
1262.881, 659.5281
1263.363, 651.2904
1263.845, 643.0533
1264.328, 641.8649
1264.810, 646.1235
1265.292, 646.2180
1265.774, 643.4271
1266.256, 643.9077
1266.738, 653.5190
1267.220, 657.9651
1267.702, 645.6229
1268.184, 635.4487
1268.667, 641.1648
1269.149, 656.0204
1269.631, 655.8538
1270.113, 644.7990
1270.595, 633.6032
1271.077, 621.9073
1271.559, 620.8840
1272.041, 637.3974
1272.523, 652.3198
1273.006, 653.3340
1273.488, 646.1351
1273.970, 640.9292
1274.452, 638.3088
1274.934, 640.2807
1275.416, 652.0353
1275.898, 656.1908
1276.380, 650.2075
1276.863, 643.5784
1277.345, 641.0009
1277.827, 641.8339
1278.309, 649.2723
1278.791, 657.8715
1279.273, 657.1035
1279.755, 640.4617
1280.237, 636.1631
1280.719, 646.2754
1281.202, 653.7348
1281.684, 645.9713
1282.166, 636.2419
1282.648, 639.2621
1283.130, 647.5186
1283.612, 650.7814
1284.094, 648.3405
1284.576, 645.2181
1285.058, 641.4474
1285.541, 638.5444
1286.023, 636.8907
1286.505, 636.9287
1286.987, 641.7603
1287.469, 646.1157
1287.951, 644.1123
1288.433, 636.4810
1288.915, 633.4563
##END=



