##NAMES=Metazeunerite
##RRUFFID=R060301
##IDEAL CHEMISTRY=Cu^2+^(U^6+^O_2_)_2_(As^5+^O_4_)_2_&#183;8H_2_O
##LOCALITY=Joachimstal, Bohemia, Czech Republic
##OWNER=RRUFF
##SOURCE=University of Arizona Mineral Museum
##DESCRIPTION=Green blocky dipyramidal single crystals associated with yellow walpurgite, R050573
##STATUS=The identification of this mineral has been confirmed by single-crystal X-ray diffraction.
##URL=rruff.info/R060301
130.0258, 50.09426
130.5079, 52.32637
130.9900, 55.17440
131.4721, 58.61388
131.9542, 62.91577
132.4363, 68.43539
132.9185, 75.09206
133.4006, 82.33807
133.8827, 90.13435
134.3648, 98.33896
134.8469, 106.8205
135.3290, 115.4575
135.8112, 124.9507
136.2933, 135.7733
136.7754, 147.9406
137.2575, 161.8264
137.7396, 177.7587
138.2217, 195.4482
138.7039, 214.8075
139.1860, 236.2973
139.6681, 258.7869
140.1502, 281.0335
140.6323, 302.7025
141.1144, 324.5180
141.5966, 347.0568
142.0787, 370.6286
142.5608, 393.0430
143.0429, 414.3092
143.5250, 434.3751
144.0071, 452.8751
144.4893, 469.2173
144.9714, 484.6927
145.4535, 499.2912
145.9356, 511.1982
146.4177, 526.2365
146.8998, 545.3784
147.3820, 567.8438
147.8641, 591.3265
148.3462, 615.7444
148.8283, 640.9579
149.3104, 667.1321
149.7925, 693.0476
150.2747, 721.3730
150.7568, 752.7114
151.2389, 786.7950
151.7210, 820.5116
152.2031, 854.6644
152.6852, 887.6296
153.1674, 918.7737
153.6495, 947.3727
154.1316, 974.5682
154.6137, 1000.554
155.0958, 1025.339
155.5779, 1048.613
156.0601, 1070.607
156.5422, 1091.013
157.0243, 1109.302
157.5064, 1122.755
157.9885, 1136.534
158.4706, 1152.619
158.9528, 1171.489
159.4349, 1189.214
159.9170, 1203.138
160.3991, 1215.874
160.8812, 1230.440
161.3633, 1248.908
161.8455, 1268.427
162.3276, 1287.556
162.8097, 1305.517
163.2918, 1325.053
163.7739, 1347.886
164.2560, 1371.274
164.7382, 1384.624
165.2203, 1394.721
165.7024, 1404.420
166.1845, 1413.441
166.6666, 1421.540
167.1487, 1429.852
167.6309, 1438.920
168.1130, 1448.743
168.5951, 1459.159
169.0772, 1471.197
169.5593, 1483.300
170.0414, 1494.229
170.5236, 1503.902
171.0057, 1512.202
171.4878, 1519.251
171.9699, 1525.029
172.4520, 1529.305
172.9341, 1531.073
173.4163, 1531.665
173.8984, 1532.640
174.3805, 1534.434
174.8626, 1536.490
175.3447, 1537.884
175.8268, 1538.885
176.3090, 1540.840
176.7911, 1545.769
177.2732, 1552.019
177.7553, 1556.764
178.2374, 1558.551
178.7195, 1559.363
179.2017, 1561.801
179.6838, 1565.739
180.1659, 1569.868
180.6480, 1572.626
181.1301, 1574.802
181.6122, 1578.509
182.0944, 1585.597
182.5765, 1593.606
183.0586, 1598.139
183.5407, 1599.166
184.0228, 1599.381
184.5049, 1600.965
184.9871, 1603.674
185.4692, 1606.604
185.9513, 1609.782
186.4334, 1612.891
186.9155, 1615.201
187.3976, 1616.670
187.8798, 1617.734
188.3619, 1618.869
188.8440, 1620.032
189.3261, 1620.838
189.8082, 1621.086
190.2903, 1620.887
190.7725, 1620.802
191.2546, 1620.935
191.7367, 1620.629
192.2188, 1618.584
192.7009, 1614.906
193.1830, 1612.030
193.6652, 1611.216
194.1473, 1612.086
194.6294, 1612.197
195.1115, 1611.338
195.5936, 1610.412
196.0757, 1610.675
196.5579, 1612.151
197.0400, 1613.951
197.5221, 1616.128
198.0042, 1618.585
198.4863, 1619.413
198.9684, 1618.068
199.4506, 1616.321
199.9327, 1616.984
200.4148, 1620.265
200.8969, 1623.954
201.3790, 1627.610
201.8611, 1631.260
202.3433, 1633.064
202.8254, 1632.451
203.3075, 1630.858
203.7896, 1630.863
204.2717, 1632.742
204.7538, 1634.627
205.2360, 1635.331
205.7181, 1634.533
206.2002, 1635.694
206.6823, 1639.661
207.1644, 1644.555
207.6465, 1646.784
208.1287, 1645.841
208.6108, 1644.028
209.0929, 1642.156
209.5750, 1640.140
210.0571, 1638.662
210.5392, 1637.832
211.0214, 1637.496
211.5035, 1637.207
211.9856, 1636.761
212.4677, 1637.021
212.9498, 1638.743
213.4319, 1642.561
213.9141, 1645.041
214.3962, 1645.676
214.8783, 1645.255
215.3604, 1645.616
215.8425, 1646.997
216.3246, 1648.552
216.8067, 1649.887
217.2889, 1650.865
217.7710, 1652.010
218.2531, 1653.629
218.7352, 1655.209
219.2173, 1655.423
219.6994, 1653.580
220.1816, 1651.630
220.6637, 1650.377
221.1458, 1649.884
221.6279, 1650.028
222.1100, 1651.348
222.5921, 1653.128
223.0743, 1653.318
223.5564, 1651.051
224.0385, 1648.806
224.5206, 1647.934
225.0027, 1649.283
225.4848, 1649.717
225.9670, 1648.734
226.4491, 1646.989
226.9312, 1646.211
227.4133, 1646.863
227.8954, 1647.738
228.3775, 1648.305
228.8597, 1648.591
229.3418, 1648.343
229.8239, 1647.026
230.3060, 1645.235
230.7881, 1644.767
231.2702, 1646.151
231.7524, 1647.942
232.2345, 1649.558
232.7166, 1651.271
233.1987, 1652.128
233.6808, 1651.879
234.1629, 1650.841
234.6451, 1649.807
235.1272, 1648.777
235.6093, 1647.844
236.0914, 1647.053
236.5735, 1646.391
237.0556, 1646.114
237.5378, 1646.697
238.0199, 1647.604
238.5020, 1647.196
238.9841, 1644.025
239.4662, 1641.739
239.9483, 1642.177
240.4305, 1647.109
240.9126, 1650.584
241.3947, 1652.368
241.8768, 1652.738
242.3589, 1652.248
242.8410, 1650.215
243.3232, 1648.284
243.8053, 1647.139
244.2874, 1646.953
244.7695, 1647.155
245.2516, 1648.225
245.7337, 1649.494
246.2159, 1649.225
246.6980, 1645.937
247.1801, 1643.475
247.6622, 1643.655
248.1443, 1648.011
248.6264, 1650.736
249.1086, 1651.460
249.5907, 1650.786
250.0728, 1649.790
250.5549, 1648.000
251.0370, 1646.674
251.5191, 1646.312
252.0013, 1647.099
252.4834, 1648.190
252.9655, 1649.639
253.4476, 1651.306
253.9297, 1652.831
254.4118, 1653.726
254.8940, 1655.344
255.3761, 1658.847
255.8582, 1665.689
256.3403, 1668.280
256.8224, 1664.992
257.3046, 1658.732
257.7867, 1654.314
258.2688, 1652.190
258.7509, 1650.953
259.2330, 1650.314
259.7151, 1650.398
260.1973, 1650.481
260.6794, 1650.561
261.1615, 1650.691
261.6436, 1650.928
262.1257, 1651.258
262.6078, 1651.750
263.0900, 1652.552
263.5721, 1653.759
264.0542, 1654.203
264.5363, 1653.512
265.0184, 1652.459
265.5005, 1651.894
265.9827, 1651.662
266.4648, 1652.349
266.9469, 1654.485
267.4290, 1658.103
267.9111, 1660.520
268.3932, 1661.442
268.8754, 1661.566
269.3575, 1661.606
269.8396, 1661.541
270.3217, 1661.551
270.8038, 1661.968
271.2859, 1662.717
271.7681, 1661.768
272.2502, 1658.512
272.7323, 1654.853
273.2144, 1652.770
273.6965, 1652.411
274.1786, 1652.808
274.6608, 1654.045
275.1429, 1655.934
275.6250, 1657.271
276.1071, 1658.175
276.5892, 1658.211
277.0714, 1656.205
277.5535, 1651.695
278.0356, 1649.512
278.5177, 1651.297
278.9998, 1655.913
279.4819, 1658.531
279.9641, 1658.864
280.4462, 1658.584
280.9283, 1659.138
281.4104, 1660.578
281.8925, 1661.421
282.3746, 1661.315
282.8568, 1660.574
283.3389, 1659.905
283.8210, 1659.242
284.3031, 1659.068
284.7852, 1659.938
285.2673, 1661.761
285.7495, 1663.333
286.2316, 1664.427
286.7137, 1665.238
287.1958, 1666.197
287.6779, 1667.289
288.1600, 1668.332
288.6422, 1669.166
289.1243, 1669.818
289.6064, 1670.553
290.0885, 1671.456
290.5706, 1672.323
291.0527, 1672.784
291.5349, 1672.874
292.0170, 1672.915
292.4991, 1673.364
292.9812, 1673.979
293.4633, 1673.658
293.9454, 1672.212
294.4276, 1670.472
294.9097, 1669.292
295.3918, 1668.690
295.8739, 1668.800
296.3560, 1670.076
296.8381, 1672.060
297.3203, 1673.875
297.8024, 1675.543
298.2845, 1676.514
298.7666, 1675.620
299.2487, 1673.426
299.7308, 1671.661
300.2130, 1671.096
300.6951, 1671.373
301.1772, 1672.062
301.6593, 1673.167
302.1414, 1674.380
302.6235, 1675.863
303.1057, 1677.258
303.5878, 1677.739
304.0699, 1676.262
304.5520, 1674.392
305.0341, 1674.240
305.5162, 1675.609
305.9984, 1676.798
306.4805, 1675.887
306.9626, 1674.200
307.4447, 1673.621
307.9268, 1674.952
308.4089, 1677.103
308.8911, 1679.743
309.3732, 1682.582
309.8553, 1684.479
310.3374, 1683.859
310.8195, 1682.364
311.3016, 1681.669
311.7838, 1682.371
312.2659, 1683.407
312.7480, 1684.217
313.2301, 1684.861
313.7122, 1685.483
314.1943, 1685.386
314.6765, 1685.824
315.1586, 1688.237
315.6407, 1693.735
316.1228, 1698.003
316.6049, 1697.625
317.0870, 1694.813
317.5692, 1693.215
318.0513, 1695.434
318.5334, 1698.063
319.0155, 1699.554
319.4976, 1699.718
319.9797, 1699.040
320.4619, 1696.898
320.9440, 1694.214
321.4261, 1692.058
321.9082, 1691.994
322.3903, 1691.177
322.8724, 1688.003
323.3546, 1682.386
323.8367, 1678.286
324.3188, 1677.724
324.8009, 1678.305
325.2830, 1678.208
325.7651, 1676.686
326.2473, 1675.135
326.7294, 1673.528
327.2115, 1671.974
327.6936, 1671.158
328.1757, 1672.312
328.6578, 1673.381
329.1400, 1673.305
329.6221, 1669.580
330.1042, 1668.141
330.5863, 1670.874
331.0684, 1675.954
331.5505, 1677.895
332.0327, 1674.310
332.5148, 1670.352
332.9969, 1667.897
333.4790, 1667.209
333.9611, 1667.404
334.4432, 1668.980
334.9254, 1671.132
335.4075, 1672.467
335.8896, 1672.729
336.3717, 1672.721
336.8538, 1672.637
337.3359, 1672.469
337.8180, 1672.505
338.3001, 1672.961
338.7823, 1673.327
339.2644, 1672.743
339.7465, 1670.789
340.2286, 1669.830
340.7107, 1670.875
341.1928, 1673.495
341.6750, 1674.322
342.1571, 1672.933
342.6392, 1671.331
343.1213, 1671.443
343.6034, 1673.289
344.0855, 1674.411
344.5677, 1674.181
345.0498, 1673.185
345.5319, 1672.711
346.0140, 1672.755
346.4961, 1673.394
346.9782, 1676.094
347.4604, 1679.909
347.9425, 1679.139
348.4246, 1672.140
348.9067, 1663.909
349.3888, 1662.387
349.8709, 1666.514
350.3531, 1670.330
350.8352, 1669.819
351.3173, 1667.202
351.7994, 1667.257
352.2815, 1670.366
352.7636, 1673.477
353.2458, 1673.428
353.7279, 1671.181
354.2100, 1668.774
354.6921, 1665.592
355.1742, 1663.545
355.6563, 1665.908
356.1385, 1672.199
356.6206, 1677.561
357.1027, 1677.843
357.5848, 1675.612
358.0669, 1673.875
358.5490, 1673.561
359.0312, 1673.696
359.5133, 1673.564
359.9954, 1673.345
360.4775, 1673.612
360.9596, 1675.839
361.4417, 1677.846
361.9239, 1677.799
362.4060, 1674.465
362.8881, 1671.862
363.3702, 1672.329
363.8523, 1674.312
364.3344, 1675.430
364.8166, 1674.100
365.2987, 1672.613
365.7808, 1672.119
366.2629, 1672.899
366.7450, 1672.779
367.2271, 1670.520
367.7093, 1667.692
368.1914, 1665.676
368.6735, 1665.117
369.1556, 1664.828
369.6377, 1664.646
370.1198, 1664.593
370.6020, 1664.938
371.0841, 1666.197
371.5662, 1667.378
372.0483, 1667.895
372.5304, 1667.153
373.0125, 1666.917
373.4947, 1667.707
373.9768, 1668.844
374.4589, 1668.560
374.9410, 1666.017
375.4231, 1663.773
375.9052, 1662.961
376.3874, 1663.840
376.8695, 1664.150
377.3516, 1663.860
377.8337, 1663.072
378.3158, 1661.647
378.7979, 1659.422
379.2801, 1657.745
379.7622, 1656.785
380.2443, 1656.668
380.7264, 1658.616
381.2085, 1662.973
381.6906, 1666.821
382.1728, 1666.996
382.6549, 1664.122
383.1370, 1662.173
383.6191, 1661.836
384.1012, 1662.637
384.5833, 1664.350
385.0655, 1666.789
385.5476, 1668.575
386.0297, 1668.360
386.5118, 1667.117
386.9939, 1666.582
387.4760, 1666.925
387.9582, 1667.791
388.4403, 1669.448
388.9224, 1671.376
389.4045, 1672.487
389.8866, 1671.436
390.3687, 1670.013
390.8509, 1669.797
391.3330, 1670.712
391.8151, 1671.821
392.2972, 1673.568
392.7793, 1674.764
393.2614, 1674.057
393.7436, 1669.107
394.2257, 1665.069
394.7078, 1664.837
395.1899, 1667.272
395.6720, 1669.375
396.1541, 1669.998
396.6363, 1670.259
397.1184, 1670.734
397.6005, 1671.670
398.0826, 1672.274
398.5647, 1672.458
399.0468, 1672.252
399.5290, 1671.684
400.0111, 1669.187
400.4932, 1668.070
400.9753, 1669.835
401.4574, 1674.467
401.9395, 1676.531
402.4217, 1674.515
402.9038, 1671.527
403.3859, 1669.562
403.8680, 1668.845
404.3501, 1668.663
404.8322, 1669.317
405.3144, 1670.296
405.7965, 1670.136
406.2786, 1668.527
406.7607, 1666.799
407.2428, 1665.621
407.7249, 1665.016
408.2071, 1663.842
408.6892, 1661.838
409.1713, 1659.991
409.6534, 1659.816
410.1355, 1661.228
410.6176, 1662.434
411.0998, 1662.948
411.5819, 1662.906
412.0640, 1662.366
412.5461, 1661.364
413.0282, 1660.661
413.5103, 1661.702
413.9925, 1663.367
414.4746, 1662.929
414.9567, 1659.258
415.4388, 1655.432
415.9209, 1654.871
416.4030, 1656.666
416.8852, 1658.545
417.3673, 1660.041
417.8494, 1660.683
418.3315, 1659.565
418.8136, 1656.617
419.2957, 1654.121
419.7779, 1653.529
420.2600, 1653.967
420.7421, 1654.575
421.2242, 1655.794
421.7063, 1656.446
422.1884, 1655.747
422.6706, 1654.094
423.1527, 1652.928
423.6348, 1653.134
424.1169, 1653.498
424.5990, 1653.484
425.0811, 1652.953
425.5633, 1652.302
426.0454, 1651.326
426.5275, 1650.346
427.0096, 1649.749
427.4917, 1649.501
427.9738, 1649.739
428.4560, 1650.792
428.9381, 1652.588
429.4202, 1653.182
429.9023, 1651.918
430.3844, 1650.624
430.8665, 1650.670
431.3487, 1652.224
431.8308, 1654.078
432.3129, 1656.240
432.7950, 1658.461
433.2771, 1660.434
433.7592, 1662.158
434.2414, 1662.860
434.7235, 1661.313
435.2056, 1658.316
435.6877, 1657.464
436.1698, 1658.890
436.6519, 1660.688
437.1341, 1660.503
437.6162, 1659.170
438.0983, 1659.061
438.5804, 1661.652
439.0625, 1664.551
439.5446, 1664.980
440.0268, 1663.357
440.5089, 1661.182
440.9910, 1658.656
441.4731, 1656.392
441.9552, 1654.999
442.4373, 1654.681
442.9195, 1654.629
443.4016, 1654.550
443.8837, 1654.479
444.3658, 1654.457
444.8479, 1653.756
445.3300, 1653.860
445.8122, 1656.549
446.2943, 1661.225
446.7764, 1662.899
447.2585, 1657.028
447.7406, 1650.898
448.2227, 1648.328
448.7049, 1652.076
449.1870, 1654.152
449.6691, 1653.936
450.1512, 1652.344
450.6333, 1650.715
451.1154, 1648.830
451.5976, 1647.361
452.0797, 1646.626
452.5618, 1646.551
453.0439, 1646.039
453.5260, 1644.885
454.0081, 1643.946
454.4903, 1644.128
454.9724, 1645.409
455.4545, 1646.437
455.9366, 1647.257
456.4187, 1647.314
456.9008, 1644.832
457.3830, 1640.186
457.8651, 1636.559
458.3472, 1635.819
458.8293, 1636.934
459.3114, 1638.562
459.7935, 1640.656
460.2757, 1641.930
460.7578, 1640.103
461.2399, 1637.172
461.7220, 1636.141
462.2041, 1639.063
462.6862, 1641.838
463.1684, 1641.027
463.6505, 1638.009
464.1326, 1635.998
464.6147, 1637.370
465.0968, 1639.156
465.5789, 1639.921
466.0611, 1639.484
466.5432, 1638.503
467.0253, 1635.954
467.5074, 1633.510
467.9895, 1632.595
468.4716, 1635.705
468.9538, 1637.176
469.4359, 1635.695
469.9180, 1632.364
470.4001, 1630.890
470.8822, 1632.631
471.3643, 1633.883
471.8465, 1632.983
472.3286, 1629.709
472.8107, 1626.721
473.2928, 1623.960
473.7749, 1621.787
474.2570, 1620.930
474.7392, 1621.389
475.2213, 1621.703
475.7034, 1621.632
476.1855, 1621.154
476.6676, 1619.787
477.1497, 1617.671
477.6319, 1616.226
478.1140, 1616.804
478.5961, 1618.405
479.0782, 1619.554
479.5603, 1620.161
480.0424, 1619.971
480.5246, 1618.265
481.0067, 1615.753
481.4888, 1613.405
481.9709, 1610.801
482.4530, 1609.238
482.9352, 1610.180
483.4173, 1612.845
483.8994, 1614.762
484.3815, 1614.660
484.8636, 1613.975
485.3457, 1613.351
485.8279, 1612.854
486.3100, 1612.344
486.7921, 1611.938
487.2742, 1611.448
487.7563, 1610.690
488.2384, 1609.513
488.7206, 1608.316
489.2027, 1607.020
489.6848, 1605.764
490.1669, 1605.203
490.6490, 1605.666
491.1311, 1605.870
491.6133, 1604.839
492.0954, 1602.617
492.5775, 1602.065
493.0596, 1603.540
493.5417, 1605.237
494.0238, 1604.946
494.5060, 1603.078
494.9881, 1601.492
495.4702, 1600.636
495.9523, 1600.313
496.4344, 1600.377
496.9165, 1600.772
497.3987, 1601.291
497.8808, 1602.001
498.3629, 1602.662
498.8450, 1603.032
499.3271, 1603.082
499.8092, 1602.945
500.2914, 1602.322
500.7735, 1601.703
501.2556, 1601.545
501.7377, 1602.393
502.2198, 1603.164
502.7019, 1603.790
503.1841, 1604.171
503.6662, 1604.053
504.1483, 1603.108
504.6304, 1601.992
505.1125, 1600.931
505.5946, 1599.964
506.0768, 1598.655
506.5589, 1596.752
507.0410, 1594.936
507.5231, 1593.860
508.0052, 1593.677
508.4873, 1593.305
508.9695, 1592.550
509.4516, 1591.714
509.9337, 1591.551
510.4158, 1592.008
510.8979, 1592.106
511.3800, 1591.027
511.8622, 1589.398
512.3443, 1588.705
512.8264, 1588.906
513.3085, 1589.277
513.7906, 1589.714
514.2728, 1589.819
514.7549, 1588.847
515.2370, 1586.209
515.7191, 1583.872
516.2012, 1583.630
516.6833, 1584.380
517.1655, 1584.415
517.6476, 1582.076
518.1297, 1580.062
518.6118, 1579.459
519.0939, 1580.185
519.5760, 1580.924
520.0582, 1581.966
520.5403, 1582.609
521.0224, 1582.407
521.5045, 1580.791
521.9866, 1580.049
522.4688, 1580.654
522.9509, 1581.589
523.4330, 1581.594
523.9151, 1580.542
524.3972, 1579.129
524.8793, 1577.249
525.3615, 1575.318
525.8436, 1574.526
526.3257, 1574.861
526.8078, 1575.510
527.2899, 1576.481
527.7720, 1577.356
528.2542, 1577.129
528.7363, 1575.762
529.2184, 1573.723
529.7005, 1570.302
530.1826, 1566.833
530.6647, 1565.331
531.1469, 1567.581
531.6290, 1569.893
532.1111, 1569.928
532.5932, 1568.562
533.0753, 1567.584
533.5574, 1567.785
534.0396, 1568.171
534.5217, 1568.514
535.0038, 1568.799
535.4859, 1568.681
535.9680, 1568.127
536.4501, 1567.170
536.9323, 1565.727
537.4144, 1563.393
537.8965, 1561.633
538.3786, 1560.464
538.8607, 1559.897
539.3428, 1560.216
539.8250, 1561.526
540.3071, 1562.463
540.7892, 1562.584
541.2713, 1562.151
541.7534, 1561.773
542.2355, 1561.440
542.7177, 1560.945
543.1998, 1560.175
543.6819, 1559.151
544.1640, 1557.873
544.6461, 1556.335
545.1282, 1554.683
545.6104, 1552.476
546.0925, 1550.442
546.5746, 1549.415
547.0567, 1549.984
547.5388, 1551.061
548.0209, 1553.120
548.5031, 1555.376
548.9852, 1556.161
549.4673, 1553.116
549.9494, 1550.817
550.4315, 1551.058
550.9136, 1553.822
551.3958, 1553.998
551.8779, 1550.086
552.3600, 1546.119
552.8421, 1544.884
553.3242, 1546.729
553.8063, 1548.061
554.2885, 1548.750
554.7706, 1548.863
555.2527, 1548.419
555.7348, 1547.447
556.2169, 1545.977
556.6990, 1543.482
557.1812, 1541.213
557.6633, 1541.397
558.1454, 1543.497
558.6275, 1545.498
559.1096, 1546.519
559.5917, 1546.775
560.0739, 1546.064
560.5560, 1544.359
561.0381, 1543.197
561.5202, 1544.237
562.0023, 1545.442
562.4844, 1545.220
562.9666, 1541.347
563.4487, 1539.077
563.9308, 1539.417
564.4129, 1541.149
564.8950, 1542.490
565.3771, 1543.350
565.8593, 1543.932
566.3414, 1544.138
566.8235, 1544.097
567.3056, 1544.646
567.7877, 1545.922
568.2698, 1546.676
568.7520, 1545.989
569.2341, 1544.150
569.7162, 1542.017
570.1983, 1539.599
570.6804, 1537.541
571.1625, 1536.868
571.6447, 1536.889
572.1268, 1536.412
572.6089, 1534.837
573.0910, 1533.420
573.5731, 1533.518
574.0552, 1534.248
574.5374, 1534.064
575.0195, 1530.954
575.5016, 1528.410
575.9837, 1528.298
576.4658, 1530.340
576.9479, 1530.627
577.4301, 1527.682
577.9122, 1524.651
578.3943, 1522.782
578.8764, 1522.179
579.3585, 1522.412
579.8406, 1523.771
580.3228, 1525.313
580.8049, 1526.147
581.2870, 1526.275
581.7691, 1525.685
582.2512, 1524.074
582.7333, 1522.402
583.2155, 1522.265
583.6976, 1523.284
584.1797, 1524.318
584.6617, 1524.294
585.1439, 1524.403
585.6260, 1526.518
586.1081, 1530.045
586.5902, 1532.027
587.0723, 1529.521
587.5544, 1526.297
588.0366, 1524.533
588.5187, 1524.810
589.0008, 1525.088
589.4829, 1525.755
589.9650, 1525.930
590.4471, 1524.851
590.9293, 1521.852
591.4114, 1519.134
591.8935, 1516.724
592.3756, 1514.780
592.8577, 1513.639
593.3398, 1513.337
593.8220, 1513.476
594.3041, 1514.160
594.7862, 1515.024
595.2683, 1515.218
595.7504, 1514.784
596.2325, 1514.049
596.7147, 1512.781
597.1968, 1511.566
597.6789, 1511.268
598.1610, 1511.971
598.6431, 1512.501
599.1252, 1512.295
599.6074, 1511.602
600.0895, 1510.565
600.5716, 1508.732
601.0537, 1507.413
601.5358, 1506.889
602.0179, 1506.969
602.5001, 1507.528
602.9822, 1509.141
603.4643, 1510.014
603.9464, 1509.595
604.4285, 1508.311
604.9106, 1507.784
605.3928, 1508.152
605.8749, 1507.878
606.3570, 1505.375
606.8391, 1501.687
607.3212, 1500.396
607.8033, 1501.432
608.2855, 1503.240
608.7676, 1505.424
609.2497, 1507.330
609.7318, 1508.022
610.2139, 1507.254
610.6960, 1505.855
611.1782, 1503.581
611.6603, 1501.231
612.1424, 1499.634
612.6245, 1499.801
613.1066, 1499.769
613.5887, 1498.913
614.0709, 1497.773
614.5530, 1497.565
615.0351, 1499.104
615.5172, 1499.789
615.9993, 1498.509
616.4814, 1495.817
616.9636, 1495.057
617.4457, 1496.455
617.9278, 1497.368
618.4099, 1495.441
618.8920, 1491.820
619.3741, 1489.710
619.8563, 1489.228
620.3384, 1489.078
620.8205, 1487.739
621.3026, 1486.302
621.7847, 1486.285
622.2668, 1488.615
622.7490, 1490.678
623.2311, 1491.769
623.7132, 1491.787
624.1953, 1490.606
624.6774, 1485.753
625.1595, 1482.776
625.6417, 1483.452
626.1238, 1486.252
626.6059, 1486.666
627.0880, 1483.854
627.5701, 1481.236
628.0522, 1480.045
628.5344, 1480.047
629.0165, 1480.236
629.4986, 1480.628
629.9807, 1480.742
630.4628, 1479.736
630.9449, 1478.349
631.4271, 1478.269
631.9092, 1479.673
632.3913, 1480.701
632.8734, 1478.987
633.3555, 1476.689
633.8376, 1476.257
634.3198, 1479.840
634.8019, 1482.085
635.2840, 1480.161
635.7661, 1476.569
636.2482, 1474.868
636.7303, 1476.776
637.2125, 1477.787
637.6946, 1476.979
638.1767, 1475.026
638.6588, 1473.823
639.1409, 1473.461
639.6230, 1473.291
640.1052, 1473.369
640.5873, 1473.370
641.0694, 1471.906
641.5515, 1469.134
642.0336, 1466.751
642.5157, 1466.412
642.9979, 1466.854
643.4800, 1466.595
643.9621, 1465.485
644.4442, 1464.404
644.9263, 1463.617
645.4084, 1463.131
645.8906, 1462.948
646.3727, 1463.064
646.8548, 1463.446
647.3369, 1464.059
647.8190, 1464.875
648.3011, 1466.052
648.7833, 1468.053
649.2654, 1468.527
649.7475, 1466.432
650.2296, 1463.410
650.7117, 1463.272
651.1938, 1465.752
651.6760, 1467.769
652.1581, 1467.970
652.6402, 1467.074
653.1223, 1466.103
653.6044, 1465.017
654.0865, 1463.537
654.5687, 1460.379
655.0508, 1457.726
655.5329, 1457.537
656.0150, 1460.046
656.4971, 1461.599
656.9792, 1460.135
657.4614, 1458.515
657.9435, 1458.480
658.4256, 1460.902
658.9077, 1461.717
659.3898, 1460.415
659.8719, 1458.372
660.3541, 1456.846
660.8362, 1455.832
661.3183, 1455.267
661.8004, 1455.191
662.2825, 1455.427
662.7646, 1456.430
663.2468, 1457.570
663.7289, 1457.186
664.2110, 1453.297
664.6931, 1449.471
665.1752, 1448.741
665.6573, 1450.005
666.1395, 1450.615
666.6216, 1449.080
667.1037, 1447.514
667.5858, 1446.301
668.0679, 1445.524
668.5500, 1446.090
669.0322, 1449.109
669.5143, 1451.269
669.9964, 1450.829
670.4785, 1447.959
670.9606, 1445.269
671.4427, 1442.659
671.9249, 1441.049
672.4070, 1441.796
672.8891, 1443.930
673.3712, 1445.679
673.8533, 1446.938
674.3354, 1446.932
674.8176, 1443.816
675.2997, 1439.773
675.7818, 1437.186
676.2639, 1437.300
676.7460, 1437.500
677.2281, 1437.281
677.7103, 1436.834
678.1924, 1436.370
678.6745, 1435.824
679.1566, 1435.475
679.6387, 1435.467
680.1208, 1435.580
680.6030, 1435.200
681.0851, 1434.331
681.5672, 1433.713
682.0493, 1433.549
682.5314, 1433.838
683.0135, 1434.978
683.4957, 1436.680
683.9778, 1437.797
684.4599, 1437.395
684.9420, 1436.434
685.4241, 1435.540
685.9063, 1434.730
686.3884, 1433.694
686.8705, 1431.450
687.3526, 1429.857
687.8347, 1430.110
688.3168, 1432.734
688.7990, 1433.510
689.2811, 1431.930
689.7632, 1429.728
690.2453, 1427.925
690.7274, 1426.560
691.2095, 1426.598
691.6917, 1428.278
692.1738, 1430.008
692.6559, 1430.388
693.1380, 1429.559
693.6201, 1427.418
694.1022, 1423.197
694.5844, 1419.728
695.0665, 1419.158
695.5486, 1420.114
696.0307, 1420.839
696.5128, 1420.378
696.9949, 1420.421
697.4771, 1421.370
697.9592, 1422.804
698.4413, 1424.071
698.9234, 1425.425
699.4055, 1425.494
699.8876, 1423.445
700.3698, 1420.331
700.8519, 1419.022
701.3340, 1419.273
701.8161, 1419.438
702.2982, 1418.638
702.7803, 1417.354
703.2625, 1415.906
703.7446, 1414.376
704.2267, 1413.138
704.7088, 1412.554
705.1909, 1412.127
705.6730, 1411.428
706.1552, 1410.371
706.6373, 1410.282
707.1194, 1411.554
707.6015, 1413.231
708.0836, 1414.923
708.5657, 1416.633
709.0479, 1417.629
709.5300, 1417.779
710.0121, 1417.824
710.4942, 1419.222
710.9763, 1420.887
711.4584, 1419.485
711.9406, 1414.046
712.4227, 1409.875
712.9048, 1413.490
713.3869, 1419.091
713.8690, 1420.343
714.3511, 1412.653
714.8333, 1406.368
715.3154, 1403.969
715.7975, 1403.715
716.2796, 1404.026
716.7617, 1405.301
717.2438, 1406.161
717.7260, 1406.573
718.2081, 1406.370
718.6902, 1404.937
719.1723, 1402.436
719.6544, 1400.073
720.1365, 1397.924
720.6187, 1396.535
721.1008, 1397.245
721.5829, 1399.184
722.0650, 1400.349
722.5471, 1398.389
723.0292, 1396.909
723.5114, 1398.403
723.9935, 1401.889
724.4756, 1403.023
724.9577, 1400.123
725.4398, 1397.209
725.9219, 1395.251
726.4041, 1394.235
726.8862, 1394.228
727.3683, 1395.305
727.8504, 1396.698
728.3325, 1398.461
728.8146, 1400.127
729.2968, 1400.483
729.7789, 1399.640
730.2610, 1398.569
730.7431, 1397.336
731.2252, 1396.520
731.7073, 1397.011
732.1895, 1399.065
732.6716, 1399.749
733.1537, 1397.091
733.6358, 1394.201
734.1179, 1392.569
734.6000, 1392.389
735.0822, 1392.402
735.5643, 1392.741
736.0464, 1392.768
736.5285, 1391.478
737.0106, 1389.342
737.4927, 1388.447
737.9749, 1389.161
738.4570, 1389.632
738.9391, 1387.629
739.4212, 1384.813
739.9033, 1383.117
740.3854, 1383.325
740.8676, 1383.826
741.3497, 1384.764
741.8318, 1385.484
742.3139, 1385.262
742.7960, 1383.555
743.2781, 1382.301
743.7603, 1381.708
744.2424, 1381.402
744.7245, 1380.626
745.2066, 1379.497
745.6887, 1379.191
746.1708, 1380.148
746.6530, 1381.500
747.1351, 1382.530
747.6172, 1383.176
748.0993, 1383.334
748.5814, 1382.224
749.0635, 1381.473
749.5457, 1382.433
750.0278, 1384.029
750.5099, 1383.852
750.9920, 1380.436
751.4741, 1378.109
751.9562, 1377.988
752.4384, 1379.214
752.9205, 1379.769
753.4026, 1379.671
753.8847, 1378.913
754.3668, 1376.918
754.8489, 1374.927
755.3311, 1375.392
755.8132, 1377.444
756.2953, 1378.527
756.7774, 1376.629
757.2595, 1374.287
757.7416, 1372.560
758.2238, 1371.430
758.7059, 1370.346
759.1880, 1368.540
759.6701, 1368.010
760.1522, 1369.842
760.6343, 1373.419
761.1165, 1375.645
761.5986, 1376.485
762.0807, 1376.290
762.5628, 1374.306
763.0449, 1371.818
763.5270, 1371.278
764.0092, 1372.395
764.4913, 1373.598
764.9734, 1374.409
765.4555, 1374.707
765.9376, 1374.289
766.4197, 1373.153
766.9019, 1371.972
767.3840, 1370.533
767.8661, 1369.447
768.3482, 1369.054
768.8303, 1369.329
769.3124, 1369.729
769.7946, 1370.299
770.2767, 1370.462
770.7588, 1368.317
771.2409, 1366.032
771.7230, 1368.799
772.2051, 1376.468
772.6873, 1382.444
773.1694, 1381.442
773.6515, 1378.448
774.1336, 1376.696
774.6157, 1376.707
775.0978, 1376.660
775.5800, 1376.575
776.0621, 1376.268
776.5442, 1375.440
777.0263, 1374.027
777.5084, 1373.578
777.9905, 1374.188
778.4727, 1374.812
778.9548, 1374.483
779.4369, 1373.590
779.9190, 1372.657
780.4011, 1371.735
780.8832, 1371.267
781.3654, 1371.858
781.8475, 1372.793
782.3296, 1373.511
782.8117, 1373.762
783.2938, 1374.558
783.7759, 1376.496
784.2581, 1378.192
784.7402, 1378.188
785.2223, 1376.487
785.7044, 1376.414
786.1865, 1378.251
786.6686, 1380.277
787.1508, 1379.599
787.6329, 1378.479
788.1150, 1380.972
788.5971, 1388.261
789.0792, 1395.255
789.5613, 1399.259
790.0435, 1402.162
790.5256, 1405.634
791.0077, 1410.432
791.4898, 1413.869
791.9719, 1415.602
792.4540, 1416.479
792.9362, 1417.223
793.4183, 1417.815
793.9004, 1417.566
794.3825, 1416.277
794.8646, 1415.571
795.3467, 1417.216
795.8289, 1420.342
796.3110, 1423.813
796.7931, 1427.536
797.2752, 1431.401
797.7573, 1434.801
798.2394, 1438.800
798.7216, 1444.326
799.2037, 1452.153
799.6858, 1459.537
800.1679, 1466.309
800.6500, 1473.010
801.1321, 1480.414
801.6143, 1488.356
802.0964, 1496.192
802.5785, 1503.793
803.0606, 1511.414
803.5427, 1518.443
804.0248, 1525.906
804.5070, 1535.202
804.9891, 1547.161
805.4712, 1559.104
805.9533, 1570.975
806.4354, 1582.375
806.9175, 1592.650
807.3997, 1600.996
807.8818, 1612.048
808.3639, 1626.202
808.8460, 1641.674
809.3281, 1657.301
809.8102, 1672.705
810.2924, 1686.410
810.7745, 1697.968
811.2566, 1710.336
811.7387, 1726.230
812.2208, 1743.340
812.7029, 1759.676
813.1851, 1775.017
813.6672, 1789.316
814.1493, 1803.362
814.6314, 1815.494
815.1135, 1824.647
815.5956, 1830.930
816.0778, 1833.020
816.5599, 1830.937
817.0420, 1824.248
817.5241, 1811.367
818.0062, 1794.073
818.4883, 1774.513
818.9705, 1752.768
819.4526, 1730.121
819.9347, 1707.424
820.4168, 1683.921
820.8989, 1658.363
821.3810, 1629.655
821.8632, 1604.564
822.3453, 1583.555
822.8274, 1565.014
823.3095, 1548.301
823.7916, 1533.165
824.2737, 1519.586
824.7559, 1507.499
825.2380, 1496.534
825.7201, 1486.869
826.2022, 1477.988
826.6843, 1469.636
827.1664, 1461.828
827.6486, 1454.082
828.1307, 1446.126
828.6128, 1438.305
829.0949, 1430.736
829.5770, 1423.506
830.0591, 1416.039
830.5413, 1408.269
831.0234, 1400.873
831.5055, 1394.094
831.9876, 1388.140
832.4697, 1384.024
832.9518, 1381.600
833.4340, 1378.131
833.9161, 1370.083
834.3982, 1362.107
834.8803, 1357.428
835.3624, 1356.527
835.8445, 1354.939
836.3267, 1352.314
836.8088, 1349.721
837.2909, 1347.900
837.7730, 1346.607
838.2551, 1343.906
838.7372, 1339.944
839.2194, 1336.861
839.7015, 1336.889
840.1836, 1337.873
840.6657, 1337.755
841.1478, 1336.636
841.6299, 1335.494
842.1121, 1335.113
842.5942, 1334.196
843.0763, 1331.969
843.5584, 1328.787
844.0405, 1326.565
844.5226, 1325.261
845.0048, 1325.152
845.4869, 1327.036
845.9690, 1329.599
846.4511, 1330.103
846.9332, 1329.025
847.4153, 1327.953
847.8975, 1327.150
848.3796, 1327.040
848.8617, 1328.791
849.3438, 1331.460
849.8259, 1331.802
850.3080, 1328.296
850.7902, 1325.828
851.2723, 1325.765
851.7544, 1327.067
852.2365, 1327.385
852.7186, 1326.922
853.2007, 1326.795
853.6829, 1327.326
854.1650, 1328.488
854.6471, 1331.204
855.1292, 1334.314
855.6113, 1335.869
856.0934, 1334.619
856.5756, 1332.519
857.0577, 1328.669
857.5398, 1325.002
858.0219, 1324.728
858.5040, 1328.075
858.9861, 1330.504
859.4683, 1331.173
859.9504, 1331.066
860.4325, 1331.498
860.9146, 1331.959
861.3967, 1331.492
861.8788, 1329.516
862.3610, 1327.538
862.8431, 1326.306
863.3252, 1325.218
863.8073, 1323.579
864.2894, 1320.685
864.7715, 1319.755
865.2537, 1321.446
865.7358, 1323.205
866.2179, 1322.024
866.7000, 1318.965
867.1821, 1317.044
867.6642, 1316.611
868.1464, 1316.130
868.6285, 1314.134
869.1106, 1312.022
869.5927, 1310.806
870.0748, 1310.681
870.5569, 1310.972
871.0391, 1310.989
871.5212, 1312.688
872.0033, 1318.503
872.4854, 1327.452
872.9675, 1331.561
873.4496, 1331.112
873.9318, 1329.862
874.4139, 1330.662
874.8960, 1331.550
875.3781, 1330.588
875.8602, 1327.922
876.3423, 1325.333
876.8245, 1323.301
877.3066, 1321.345
877.7887, 1319.224
878.2708, 1317.122
878.7529, 1315.788
879.2350, 1315.240
879.7172, 1315.220
880.1993, 1315.890
880.6814, 1316.766
881.1635, 1317.462
881.6456, 1317.863
882.1277, 1317.681
882.6099, 1315.928
883.0920, 1314.645
883.5741, 1314.608
884.0562, 1315.274
884.5383, 1316.156
885.0204, 1317.584
885.5026, 1316.733
885.9847, 1312.437
886.4668, 1307.641
886.9489, 1306.877
887.4310, 1308.532
887.9131, 1309.262
888.3953, 1307.843
888.8774, 1306.525
889.3595, 1306.786
889.8416, 1307.290
890.3237, 1306.750
890.8058, 1304.881
891.2880, 1302.572
891.7701, 1299.546
892.2522, 1296.965
892.7343, 1296.415
893.2164, 1297.056
893.6985, 1296.394
894.1807, 1294.258
894.6628, 1292.450
895.1449, 1292.625
895.6270, 1293.133
896.1091, 1293.229
896.5912, 1292.869
897.0734, 1290.292
897.5555, 1284.070
898.0376, 1279.088
898.5197, 1278.051
899.0018, 1279.959
899.4839, 1282.161
899.9661, 1284.387
900.4482, 1285.069
900.9303, 1281.982
901.4124, 1278.366
901.8945, 1276.102
902.3766, 1275.042
902.8588, 1274.618
903.3409, 1275.928
903.8230, 1275.554
904.3051, 1272.056
904.7872, 1267.546
905.2693, 1266.624
905.7515, 1268.698
906.2336, 1270.170
906.7157, 1270.063
907.1978, 1269.029
907.6799, 1266.221
908.1620, 1263.429
908.6442, 1262.987
909.1263, 1268.529
909.6084, 1270.593
910.0905, 1267.394
910.5726, 1262.870
911.0547, 1260.316
911.5369, 1259.661
912.0190, 1260.307
912.5011, 1262.296
912.9832, 1263.530
913.4653, 1261.352
913.9474, 1258.239
914.4296, 1256.535
914.9117, 1256.510
915.3938, 1256.674
915.8759, 1257.020
916.3580, 1257.149
916.8401, 1256.736
917.3223, 1255.936
917.8044, 1256.170
918.2865, 1257.302
918.7686, 1257.249
919.2507, 1253.234
919.7328, 1248.949
920.2150, 1248.492
920.6971, 1250.617
921.1792, 1252.207
921.6613, 1252.946
922.1434, 1252.288
922.6255, 1249.492
923.1077, 1245.935
923.5898, 1243.879
924.0719, 1243.307
924.5540, 1243.836
925.0361, 1245.706
925.5182, 1247.323
926.0004, 1246.697
926.4825, 1245.072
926.9646, 1243.952
927.4467, 1243.789
927.9288, 1243.619
928.4109, 1243.342
928.8931, 1242.979
929.3752, 1242.466
929.8573, 1241.813
930.3394, 1241.656
930.8215, 1242.002
931.3036, 1242.095
931.7858, 1241.325
932.2679, 1240.106
932.7500, 1238.724
933.2321, 1237.261
933.7142, 1235.897
934.1964, 1235.035
934.6785, 1233.800
935.1606, 1231.702
935.6427, 1229.242
936.1248, 1227.979
936.6069, 1227.844
937.0891, 1228.238
937.5712, 1229.185
938.0533, 1230.108
938.5354, 1230.387
939.0175, 1230.282
939.4996, 1230.176
939.9818, 1230.198
940.4639, 1230.089
940.9460, 1229.641
941.4281, 1229.325
941.9102, 1230.039
942.3923, 1231.549
942.8745, 1231.208
943.3566, 1228.762
943.8387, 1226.656
944.3208, 1227.709
944.8029, 1229.398
945.2850, 1229.321
945.7672, 1227.203
946.2493, 1225.956
946.7314, 1225.813
947.2135, 1226.582
947.6956, 1228.813
948.1777, 1231.633
948.6599, 1231.437
949.1420, 1228.652
949.6241, 1225.651
950.1062, 1223.161
950.5883, 1221.282
951.0704, 1219.558
951.5526, 1218.609
952.0347, 1219.856
952.5168, 1225.159
952.9989, 1228.925
953.4810, 1230.676
953.9631, 1230.917
954.4453, 1229.385
954.9274, 1226.830
955.4095, 1226.443
955.8916, 1228.861
956.3737, 1230.278
956.8558, 1226.001
957.3380, 1221.425
957.8201, 1221.352
958.3022, 1226.374
958.7843, 1228.368
959.2664, 1226.570
959.7485, 1224.076
960.2307, 1222.293
960.7128, 1220.933
961.1949, 1218.914
961.6770, 1216.664
962.1591, 1215.712
962.6412, 1218.836
963.1234, 1221.077
963.6055, 1218.913
964.0876, 1215.207
964.5697, 1214.962
965.0518, 1219.095
965.5339, 1222.741
966.0161, 1225.574
966.4982, 1226.883
966.9803, 1224.322
967.4624, 1220.215
967.9445, 1218.820
968.4266, 1221.101
968.9088, 1223.120
969.3909, 1223.034
969.8730, 1222.624
970.3551, 1222.869
970.8372, 1223.694
971.3193, 1223.747
971.8015, 1222.966
972.2836, 1222.795
972.7657, 1224.520
973.2478, 1226.833
973.7299, 1227.677
974.2120, 1227.903
974.6942, 1229.624
975.1763, 1236.591
975.6584, 1240.611
976.1405, 1239.007
976.6226, 1235.889
977.1047, 1237.743
977.5869, 1244.050
978.0690, 1248.948
978.5511, 1251.549
979.0332, 1253.135
979.5153, 1254.266
979.9974, 1255.258
980.4796, 1256.116
980.9617, 1256.700
981.4438, 1259.087
981.9259, 1264.457
982.4080, 1269.291
982.8901, 1271.932
983.3723, 1272.925
983.8544, 1273.469
984.3365, 1273.783
984.8186, 1274.785
985.3007, 1277.524
985.7828, 1280.379
986.2650, 1282.933
986.7471, 1284.942
987.2292, 1286.100
987.7113, 1286.305
988.1934, 1285.983
988.6755, 1285.181
989.1577, 1283.759
989.6398, 1281.224
990.1219, 1278.113
990.6040, 1275.314
991.0861, 1272.934
991.5682, 1270.789
992.0504, 1269.105
992.5325, 1267.347
993.0146, 1265.095
993.4967, 1262.602
993.9788, 1261.573
994.4609, 1262.017
994.9431, 1260.779
995.4252, 1255.702
995.9073, 1249.708
996.3894, 1245.707
996.8715, 1243.026
997.3536, 1240.468
997.8358, 1237.437
998.3179, 1235.113
998.8000, 1233.855
999.2821, 1232.749
999.7642, 1230.848
1000.246, 1228.246
1000.728, 1225.463
1001.211, 1222.507
1001.693, 1219.976
1002.175, 1218.675
1002.657, 1217.490
1003.139, 1215.493
1003.621, 1212.840
1004.103, 1210.968
1004.585, 1209.979
1005.068, 1209.482
1005.550, 1209.623
1006.032, 1209.703
1006.514, 1208.346
1006.996, 1206.138
1007.478, 1204.228
1007.960, 1203.093
1008.442, 1201.934
1008.924, 1200.080
1009.407, 1198.482
1009.889, 1197.793
1010.371, 1198.043
1010.853, 1198.627
1011.335, 1199.555
1011.817, 1200.277
1012.299, 1200.786
1012.781, 1200.636
1013.263, 1198.560
1013.746, 1195.383
1014.228, 1194.046
1014.710, 1196.237
1015.192, 1197.927
1015.674, 1198.566
1016.156, 1198.404
1016.638, 1197.494
1017.120, 1196.110
1017.603, 1195.223
1018.085, 1195.078
1018.567, 1194.637
1019.049, 1192.396
1019.531, 1190.408
1020.013, 1190.351
1020.495, 1192.114
1020.977, 1192.861
1021.459, 1192.476
1021.942, 1192.100
1022.424, 1192.544
1022.906, 1192.970
1023.388, 1192.109
1023.870, 1190.402
1024.352, 1188.700
1024.834, 1186.027
1025.316, 1185.413
1025.799, 1188.243
1026.281, 1191.590
1026.763, 1192.066
1027.245, 1190.208
1027.727, 1189.918
1028.209, 1191.329
1028.691, 1192.017
1029.173, 1189.300
1029.656, 1186.207
1030.138, 1184.565
1030.620, 1184.372
1031.102, 1185.148
1031.584, 1187.298
1032.066, 1188.610
1032.548, 1188.293
1033.030, 1187.474
1033.512, 1188.027
1033.995, 1189.179
1034.477, 1189.522
1034.959, 1188.472
1035.441, 1187.629
1035.923, 1187.884
1036.405, 1187.850
1036.887, 1186.568
1037.369, 1184.256
1037.851, 1183.010
1038.334, 1182.703
1038.816, 1181.830
1039.298, 1178.368
1039.780, 1175.279
1040.262, 1175.082
1040.744, 1176.532
1041.226, 1177.077
1041.708, 1176.325
1042.191, 1175.455
1042.673, 1174.411
1043.155, 1173.765
1043.637, 1174.476
1044.119, 1175.816
1044.601, 1176.756
1045.083, 1177.174
1045.565, 1176.645
1046.047, 1173.862
1046.530, 1171.422
1047.012, 1169.962
1047.494, 1169.503
1047.976, 1170.704
1048.458, 1173.272
1048.940, 1174.612
1049.422, 1173.679
1049.904, 1172.458
1050.386, 1172.445
1050.869, 1172.888
1051.351, 1173.035
1051.833, 1172.810
1052.315, 1172.433
1052.797, 1171.809
1053.279, 1171.466
1053.761, 1172.430
1054.243, 1173.369
1054.726, 1170.896
1055.208, 1166.516
1055.690, 1164.227
1056.172, 1168.740
1056.654, 1170.715
1057.136, 1167.691
1057.618, 1163.348
1058.100, 1162.068
1058.583, 1163.417
1059.065, 1164.867
1059.547, 1166.205
1060.029, 1166.673
1060.511, 1165.633
1060.993, 1163.671
1061.475, 1160.179
1061.957, 1155.971
1062.439, 1154.594
1062.922, 1156.545
1063.404, 1158.348
1063.886, 1159.255
1064.368, 1159.300
1064.850, 1157.859
1065.332, 1155.889
1065.814, 1154.716
1066.296, 1154.753
1066.778, 1154.943
1067.261, 1155.538
1067.743, 1155.549
1068.225, 1154.005
1068.707, 1151.714
1069.189, 1151.554
1069.671, 1153.085
1070.153, 1154.775
1070.635, 1156.968
1071.118, 1157.799
1071.600, 1155.008
1072.082, 1151.461
1072.564, 1150.166
1073.046, 1151.350
1073.528, 1151.992
1074.010, 1151.974
1074.492, 1151.874
1074.974, 1152.062
1075.457, 1152.409
1075.939, 1152.733
1076.421, 1153.098
1076.903, 1153.791
1077.385, 1154.719
1077.867, 1156.460
1078.349, 1159.628
1078.831, 1162.174
1079.313, 1160.561
1079.796, 1156.709
1080.278, 1153.949
1080.760, 1152.748
1081.242, 1152.092
1081.724, 1152.083
1082.206, 1152.094
1082.688, 1152.047
1083.170, 1151.786
1083.652, 1150.459
1084.135, 1148.348
1084.617, 1147.006
1085.099, 1147.157
1085.581, 1147.636
1086.063, 1148.559
1086.545, 1148.879
1087.027, 1147.381
1087.509, 1143.768
1087.992, 1141.723
1088.474, 1141.292
1088.956, 1141.906
1089.438, 1144.205
1089.920, 1146.517
1090.402, 1146.571
1090.884, 1145.392
1091.366, 1145.229
1091.849, 1147.504
1092.331, 1148.449
1092.813, 1147.513
1093.295, 1146.127
1093.777, 1145.611
1094.259, 1145.705
1094.741, 1146.073
1095.223, 1146.614
1095.705, 1146.844
1096.188, 1147.180
1096.670, 1146.226
1097.152, 1142.745
1097.634, 1138.805
1098.116, 1138.989
1098.598, 1142.358
1099.080, 1143.268
1099.562, 1140.606
1100.044, 1138.014
1100.527, 1137.855
1101.009, 1138.651
1101.491, 1139.841
1101.973, 1141.171
1102.455, 1140.774
1102.937, 1138.544
1103.419, 1137.579
1103.901, 1139.499
1104.384, 1141.571
1104.866, 1140.542
1105.348, 1138.232
1105.830, 1136.804
1106.312, 1136.779
1106.794, 1136.604
1107.276, 1136.128
1107.758, 1136.009
1108.240, 1136.896
1108.723, 1138.145
1109.205, 1138.225
1109.687, 1137.835
1110.169, 1138.567
1110.651, 1143.651
1111.133, 1145.660
1111.615, 1143.008
1112.097, 1139.119
1112.579, 1136.910
1113.062, 1136.084
1113.544, 1135.737
1114.026, 1135.776
1114.508, 1135.824
1114.990, 1135.324
1115.472, 1135.282
1115.954, 1136.674
1116.436, 1138.262
1116.919, 1137.696
1117.401, 1135.181
1117.883, 1134.533
1118.365, 1136.236
1118.847, 1137.808
1119.329, 1136.870
1119.811, 1135.600
1120.293, 1135.691
1120.776, 1136.781
1121.258, 1137.332
1121.740, 1137.350
1122.222, 1136.617
1122.704, 1134.912
1123.186, 1133.111
1123.668, 1132.259
1124.150, 1131.708
1124.632, 1130.597
1125.115, 1128.714
1125.597, 1127.795
1126.079, 1128.162
1126.561, 1128.570
1127.043, 1128.678
1127.525, 1128.357
1128.007, 1127.029
1128.489, 1125.246
1128.971, 1123.925
1129.454, 1123.239
1129.936, 1123.326
1130.418, 1124.767
1130.900, 1125.762
1131.382, 1124.690
1131.864, 1122.625
1132.346, 1122.829
1132.828, 1124.786
1133.311, 1126.869
1133.793, 1128.160
1134.275, 1129.920
1134.757, 1133.696
1135.239, 1136.634
1135.721, 1135.063
1136.203, 1129.906
1136.685, 1129.761
1137.167, 1134.069
1137.650, 1136.686
1138.132, 1132.284
1138.614, 1127.378
1139.096, 1124.803
1139.578, 1123.588
1140.060, 1122.585
1140.542, 1121.788
1141.024, 1121.008
1141.506, 1120.226
1141.989, 1119.871
1142.471, 1121.529
1142.953, 1122.553
1143.435, 1119.222
1143.917, 1113.808
1144.399, 1114.626
1144.881, 1122.925
1145.363, 1128.010
1145.846, 1127.872
1146.328, 1125.090
1146.810, 1119.888
1147.292, 1115.015
1147.774, 1113.533
1148.256, 1115.650
1148.738, 1117.176
1149.220, 1117.935
1149.703, 1118.576
1150.185, 1119.374
1150.667, 1119.829
1151.149, 1118.887
1151.631, 1117.383
1152.113, 1116.381
1152.595, 1116.056
1153.077, 1116.416
1153.559, 1117.837
1154.042, 1118.787
1154.524, 1118.417
1155.006, 1117.547
1155.488, 1118.037
1155.970, 1119.072
1156.452, 1118.956
1156.934, 1116.752
1157.416, 1114.992
1157.898, 1114.063
1158.381, 1113.449
1158.863, 1113.084
1159.345, 1112.703
1159.827, 1111.009
1160.309, 1108.686
1160.791, 1107.694
1161.273, 1109.995
1161.755, 1111.428
1162.238, 1110.486
1162.720, 1109.439
1163.202, 1110.515
1163.684, 1112.996
1164.166, 1112.493
1164.648, 1109.691
1165.130, 1107.605
1165.612, 1108.022
1166.094, 1108.969
1166.577, 1110.062
1167.059, 1111.145
1167.541, 1112.183
1168.023, 1113.094
1168.505, 1113.276
1168.987, 1112.706
1169.469, 1111.504
1169.951, 1108.432
1170.433, 1106.221
1170.916, 1106.820
1171.398, 1108.522
1171.880, 1109.381
1172.362, 1109.416
1172.844, 1108.185
1173.326, 1105.730
1173.808, 1104.202
1174.290, 1106.407
1174.773, 1108.685
1175.255, 1108.557
1175.737, 1107.157
1176.219, 1106.638
1176.701, 1107.008
1177.183, 1107.249
1177.665, 1107.274
1178.147, 1106.426
1178.630, 1102.612
1179.112, 1099.197
1179.594, 1099.120
1180.076, 1101.387
1180.558, 1102.852
1181.040, 1103.506
1181.522, 1103.488
1182.004, 1102.750
1182.486, 1101.821
1182.969, 1100.877
1183.451, 1100.162
1183.933, 1099.818
1184.415, 1099.867
1184.897, 1100.713
1185.379, 1102.508
1185.861, 1103.285
1186.343, 1102.365
1186.825, 1101.027
1187.308, 1100.226
1187.790, 1099.844
1188.272, 1100.167
1188.754, 1101.119
1189.236, 1100.462
1189.718, 1098.024
1190.200, 1095.810
1190.682, 1094.448
1191.165, 1093.638
1191.647, 1093.263
1192.129, 1093.143
1192.611, 1092.938
1193.093, 1092.567
1193.575, 1093.373
1194.057, 1095.541
1194.539, 1097.502
1195.021, 1098.717
1195.504, 1099.283
1195.986, 1098.778
1196.468, 1097.956
1196.950, 1097.969
1197.432, 1099.175
1197.914, 1099.178
1198.396, 1097.811
1198.878, 1096.234
1199.360, 1094.551
1199.843, 1093.657
1200.325, 1095.881
1200.807, 1099.016
1201.289, 1099.641
1201.771, 1096.661
1202.253, 1094.732
1202.735, 1093.911
1203.217, 1093.969
1203.700, 1095.813
1204.182, 1097.241
1204.664, 1094.641
1205.146, 1090.310
1205.628, 1088.019
1206.110, 1088.746
1206.592, 1089.352
1207.074, 1089.763
1207.557, 1090.482
1208.039, 1092.376
1208.521, 1094.190
1209.003, 1094.306
1209.485, 1093.403
1209.967, 1092.648
1210.449, 1091.800
1210.931, 1092.347
1211.413, 1094.555
1211.896, 1096.478
1212.378, 1097.061
1212.860, 1096.433
1213.342, 1093.516
1213.824, 1089.787
1214.306, 1088.561
1214.788, 1091.052
1215.270, 1092.264
1215.752, 1091.956
1216.235, 1091.479
1216.717, 1092.269
1217.199, 1093.008
1217.681, 1092.158
1218.163, 1090.289
1218.645, 1088.646
1219.127, 1087.086
1219.609, 1086.807
1220.092, 1087.994
1220.574, 1089.174
1221.056, 1089.369
1221.538, 1088.862
1222.020, 1087.353
1222.502, 1085.479
1222.984, 1084.656
1223.466, 1085.162
1223.948, 1085.651
1224.431, 1086.086
1224.913, 1085.914
1225.395, 1083.548
1225.877, 1081.449
1226.359, 1082.422
1226.841, 1085.053
1227.323, 1085.584
1227.805, 1083.536
1228.287, 1082.818
1228.770, 1083.774
1229.252, 1084.737
1229.734, 1084.089
1230.216, 1083.218
1230.698, 1083.145
1231.180, 1083.621
1231.662, 1084.104
1232.144, 1084.633
1232.627, 1084.425
1233.109, 1083.390
1233.591, 1082.401
1234.073, 1081.907
1234.555, 1081.883
1235.037, 1083.291
1235.519, 1084.751
1236.001, 1082.980
1236.484, 1078.004
1236.966, 1076.302
1237.448, 1078.454
1237.930, 1080.611
1238.412, 1079.347
1238.894, 1078.208
1239.376, 1080.000
1239.858, 1082.767
1240.340, 1083.099
1240.823, 1081.233
1241.305, 1080.005
1241.787, 1079.672
1242.269, 1079.434
1242.751, 1078.430
1243.233, 1077.910
1243.715, 1078.908
1244.197, 1080.259
1244.679, 1080.075
1245.162, 1078.604
1245.644, 1076.757
1246.126, 1074.706
1246.608, 1073.865
1247.090, 1076.404
1247.572, 1078.400
1248.054, 1078.303
1248.536, 1077.478
1249.019, 1078.236
1249.501, 1079.948
1249.983, 1080.444
1250.465, 1079.643
1250.947, 1079.120
1251.429, 1079.980
1251.911, 1080.559
1252.393, 1080.465
1252.875, 1080.033
1253.358, 1079.686
1253.840, 1079.354
1254.322, 1078.754
1254.804, 1077.933
1255.286, 1077.508
1255.768, 1078.335
1256.250, 1078.251
1256.732, 1076.546
1257.214, 1074.878
1257.697, 1076.032
1258.179, 1078.177
1258.661, 1078.023
1259.143, 1075.808
1259.625, 1074.554
1260.107, 1075.065
1260.589, 1075.413
1261.071, 1075.307
1261.554, 1075.073
1262.036, 1075.112
1262.518, 1075.173
1263.000, 1074.946
1263.482, 1074.451
1263.964, 1073.865
1264.446, 1073.067
1264.928, 1072.798
1265.411, 1073.212
1265.893, 1073.614
1266.375, 1073.059
1266.857, 1072.499
1267.339, 1072.928
1267.821, 1074.011
1268.303, 1074.663
1268.785, 1074.879
1269.267, 1074.555
1269.750, 1073.653
1270.232, 1073.140
1270.714, 1074.591
1271.196, 1075.789
1271.678, 1074.942
1272.160, 1073.078
1272.642, 1071.555
1273.124, 1070.416
1273.606, 1070.396
1274.089, 1071.477
1274.571, 1072.325
1275.053, 1071.714
1275.535, 1071.314
1276.017, 1072.283
1276.499, 1073.202
1276.981, 1071.416
1277.463, 1067.972
1277.946, 1067.277
1278.428, 1069.214
1278.910, 1070.806
1279.392, 1070.623
1279.874, 1070.007
1280.356, 1069.034
1280.838, 1068.062
1281.320, 1067.743
1281.802, 1067.570
1282.285, 1066.077
1282.767, 1063.642
1283.249, 1062.250
1283.731, 1063.339
1284.213, 1063.557
1284.695, 1062.426
1285.177, 1061.271
1285.659, 1061.499
1286.141, 1062.273
1286.624, 1062.737
1287.106, 1062.849
1287.588, 1062.479
1288.070, 1061.393
1288.552, 1061.043
1289.034, 1061.580
1289.516, 1062.008
1289.998, 1061.294
1290.481, 1060.433
1290.963, 1060.416
1291.445, 1060.678
1291.927, 1059.869
1292.409, 1057.777
1292.891, 1058.953
1293.373, 1063.238
1293.855, 1066.666
1294.338, 1066.490
1294.820, 1065.308
1295.302, 1063.260
1295.784, 1061.703
1296.266, 1062.390
1296.748, 1064.830
1297.230, 1065.177
1297.712, 1064.011
1298.194, 1063.746
1298.677, 1066.147
1299.159, 1068.004
1299.641, 1068.726
1300.123, 1068.987
1300.605, 1069.449
1301.087, 1069.659
1301.569, 1067.996
1302.051, 1065.056
1302.533, 1062.215
1303.016, 1058.952
##END=



